[{"start_time":1551887626311,"click_time":1551887628414,"finger_time":1551887628074,"fix_duration":913.4859665247178,"trial":0,"RT":1763,"MT":340,"sideResp":2,"stimulus":"img/250/randomdotsizeEA/R/4_Ratio_250_L_3_R_12.png","xmouse":[793,793,793,793,793,793,793,793,793,793,793,793,793,793,793,793,793,793,793,793,793,793,793,793,793,793,793,793,793,793,793,793,793,793,793,793,793,793,793,793,793,793,793,793,793,793,793,793,793,793,793,793,793,793,793,793,792,792,792,792,792,792,792,792,792,792,792,792,792,792,792,792,792,792,792,792,792,792,792,792,792,792,792,792,792,792,792,792,818,862,909,941,963,998,1013,1028,1035,1040,1048,1048,1048,1052,1058,1071,1078,1084],"ymouse":[585,585,585,585,585,585,585,585,585,585,585,585,585,585,585,585,585,585,585,585,585,585,585,585,585,585,585,585,585,585,585,585,585,585,585,585,585,585,585,585,585,585,585,585,585,585,585,585,585,585,585,585,585,585,585,585,584,584,582,581,579,579,579,579,579,579,579,579,579,579,579,579,579,579,579,579,579,579,579,579,579,579,579,579,579,579,579,578,543,482,428,388,356,299,271,233,216,207,183,177,170,159,145,115,102,91],"timestamp_mouse":[7,32,43,64,83,103,123,143,163,183,203,224,243,262,282,302,323,343,362,383,402,423,443,462,482,502,523,543,564,583,602,622,643,663,683,703,722,742,762,782,803,823,843,862,883,903,922,942,964,984,1002,1022,1042,1062,1084,1103,1123,1142,1164,1183,1204,1223,1242,1262,1283,1302,1322,1342,1363,1382,1402,1423,1443,1463,1483,1504,1522,1542,1563,1583,1603,1623,1642,1662,1684,1703,1722,1743,1763,1782,1803,1824,1844,1863,1882,1903,1923,1943,1963,1982,2002,2022,2043,2063,2082,2103],"xSR":741.5,"ySR":526.5,"xT1":424.9,"yT1":0,"xT2":1058.1,"yT2":0,"toosoon":0,"cond_shown":"randomdotsizeEA","ratio_trial":250,"smaller_num":"3","larger_num":"12","correct_side":2,"subjID":"paulavaleriabarbosahernandez18","gender":"1","age":"11","school":"sexto","test":{"fix_dur":[250,1500],"timestim":300,"targets_dim":[100,100],"targets_relative_coord":[0.3,0.7],"size_stim":[880,420],"start_dim":[100,100],"size_start":[300,300],"size_fix":60,"samplingrate":20,"img_types":["equaldotsize","equaldotanddens","randomdotsizeEA"],"ratios":[250,500,750,900],"rep_conds":9,"nTrials":120,"trials_to_rest":500,"Trials_order":[110,69,67,17,88,100,1,8,97,66,54,76,57,48,106,21,104,75,16,73,3,23,65,109,19,83,27,14,116,15,30,93,11,99,5,90,112,72,47,10,107,53,22,49,95,113,82,74,35,115,81,50,105,12,68,91,52,20,25,39,55,111,46,94,92,36,6,61,4,78,79,64,0,102,59,56,29,13,34,117,71,119,98,89,101,63,58,87,31,70,60,41,40,9,42,77,118,43,62,18,38,96,33,24,2,7,37,84,32,80,86,45,103,85,26,108,44,28,51,114],"cond_shown":["randomdotsizeEA","equaldotsize","equaldotanddens","randomdotsizeEA","equaldotanddens","equaldotanddens","equaldotanddens","randomdotsizeEA","equaldotanddens","equaldotsize","equaldotsize","equaldotanddens","equaldotsize","equaldotsize","equaldotanddens","equaldotsize","randomdotsizeEA","equaldotsize","equaldotanddens","equaldotanddens","equaldotsize","randomdotsizeEA","randomdotsizeEA","equaldotanddens","equaldotanddens","randomdotsizeEA","equaldotsize","randomdotsizeEA","randomdotsizeEA","equaldotsize","equaldotsize","equaldotsize","randomdotsizeEA","equaldotsize","randomdotsizeEA","equaldotsize","equaldotanddens","equaldotsize","randomdotsizeEA","equaldotanddens","randomdotsizeEA","randomdotsizeEA","equaldotanddens","equaldotanddens","randomdotsizeEA","randomdotsizeEA","equaldotanddens","randomdotsizeEA","randomdotsizeEA","equaldotanddens","equaldotsize","randomdotsizeEA","equaldotsize","equaldotsize","randomdotsizeEA","equaldotanddens","equaldotanddens","randomdotsizeEA","equaldotanddens","equaldotsize","equaldotanddens","equaldotsize","equaldotanddens","equaldotanddens","randomdotsizeEA","equaldotsize","equaldotsize","equaldotanddens","equaldotanddens","equaldotsize","equaldotanddens","equaldotanddens","equaldotsize","equaldotsize","randomdotsizeEA","randomdotsizeEA","randomdotsizeEA","equaldotanddens","equaldotanddens","equaldotsize","randomdotsizeEA","randomdotsizeEA","randomdotsizeEA","randomdotsizeEA","randomdotsizeEA","equaldotsize","equaldotanddens","equaldotsize","equaldotanddens","equaldotanddens","equaldotsize","randomdotsizeEA","equaldotanddens","equaldotsize","equaldotsize","randomdotsizeEA","equaldotanddens","equaldotanddens","randomdotsizeEA","equaldotsize","randomdotsizeEA","equaldotsize","equaldotsize","equaldotsize","randomdotsizeEA","equaldotanddens","equaldotanddens","equaldotsize","randomdotsizeEA","randomdotsizeEA","randomdotsizeEA","equaldotsize","equaldotanddens","equaldotanddens","randomdotsizeEA","equaldotsize","randomdotsizeEA","equaldotanddens","equaldotsize","equaldotsize"],"ratio_trial":[250,900,750,500,500,500,250,750,250,750,750,500,900,250,900,900,750,500,500,250,500,900,500,250,750,900,500,250,750,500,750,900,900,500,500,750,500,250,900,900,900,500,900,250,900,500,900,250,900,750,900,250,900,250,750,750,500,750,250,500,750,500,900,900,750,250,750,250,500,750,750,500,250,750,900,750,500,250,900,900,900,900,250,500,500,500,900,500,750,900,250,500,500,900,750,500,900,750,250,750,250,250,900,250,250,750,250,250,750,750,250,900,750,250,250,250,750,500,500,750],"smaller_num":["3","18","15","3","9","1","2","6","4","3","15","6","18","2","18","18","18","9","9","2","2","9","5","2","3","9","5","2","3","1","15","9","9","6","4","3","6","3","18","18","18","6","18","2","9","4","18","5","18","3","18","6","9","3","15","6","2","12","3","2","15","1","9","9","9","3","3","3","3","15","15","4","3","3","18","15","10","2","18","9","18","18","6","10","2","4","18","10","3","18","3","2","4","9","15","4","9","12","3","15","6","4","18","3","4","15","1","6","15","3","2","18","15","2","3","6","3","6","3","15"],"larger_num":["12","20","20","6","18","2","8","8","16","4","20","12","20","8","20","20","24","18","18","8","4","10","10","8","4","10","10","8","4","2","20","10","10","12","8","4","12","12","20","20","20","12","20","8","10","8","20","20","20","4","20","24","10","12","20","8","4","16","12","4","20","2","10","10","12","12","4","12","6","20","20","8","12","4","20","20","20","8","20","10","20","20","24","20","4","8","20","20","4","20","12","4","8","10","20","8","10","16","12","20","24","16","20","12","16","20","4","24","20","4","8","20","20","8","12","24","4","12","6","20"],"correct_side":[2,1,2,2,2,2,1,2,1,1,2,1,1,2,1,1,1,2,2,1,1,2,1,1,1,1,1,1,1,2,2,1,2,1,1,2,1,2,2,2,1,1,1,2,2,1,1,2,2,2,1,1,2,2,2,1,2,2,2,1,1,2,1,2,2,2,1,1,2,2,1,1,2,1,2,2,2,1,1,1,2,1,1,2,2,1,2,2,2,1,2,1,1,2,2,1,2,2,1,2,2,1,1,1,2,2,2,1,2,1,2,1,2,1,2,2,2,1,2,2],"img_shown":["img/250/randomdotsizeEA/R/4_Ratio_250_L_3_R_12.png","img/900/equaldotsize/L/8_Ratio_900_L_20_R_18.png","img/750/equaldotanddens/R/3_Ratio_750_L_15_R_20.png","img/500/randomdotsizeEA/R/2_Ratio_500_L_3_R_6.png","img/500/equaldotanddens/R/6_Ratio_500_L_9_R_18.png","img/500/equaldotanddens/R/12_Ratio_500_L_1_R_2.png","img/250/equaldotanddens/L/7_Ratio_250_L_8_R_2.png","img/750/randomdotsizeEA/R/2_Ratio_750_L_6_R_8.png","img/250/equaldotanddens/L/2_Ratio_250_L_16_R_4.png","img/750/equaldotsize/L/9_Ratio_750_L_4_R_3.png","img/750/equaldotsize/R/5_Ratio_750_L_15_R_20.png","img/500/equaldotanddens/L/13_Ratio_500_L_12_R_6.png","img/900/equaldotsize/L/4_Ratio_900_L_20_R_18.png","img/250/equaldotsize/R/13_Ratio_250_L_2_R_8.png","img/900/equaldotanddens/L/10_Ratio_900_L_20_R_18.png","img/900/equaldotsize/L/8_Ratio_900_L_20_R_18.png","img/750/randomdotsizeEA/L/6_Ratio_750_L_24_R_18.png","img/500/equaldotsize/R/6_Ratio_500_L_9_R_18.png","img/500/equaldotanddens/R/1_Ratio_500_L_9_R_18.png","img/250/equaldotanddens/L/1_Ratio_250_L_8_R_2.png","img/500/equaldotsize/L/10_Ratio_500_L_4_R_2.png","img/900/randomdotsizeEA/R/3_Ratio_900_L_9_R_10.png","img/500/randomdotsizeEA/L/7_Ratio_500_L_10_R_5.png","img/250/equaldotanddens/L/7_Ratio_250_L_8_R_2.png","img/750/equaldotanddens/L/9_Ratio_750_L_4_R_3.png","img/900/randomdotsizeEA/L/1_Ratio_900_L_10_R_9.png","img/500/equaldotsize/L/7_Ratio_500_L_10_R_5.png","img/250/randomdotsizeEA/L/3_Ratio_250_L_8_R_2.png","img/750/randomdotsizeEA/L/10_Ratio_750_L_4_R_3.png","img/500/equaldotsize/R/12_Ratio_500_L_1_R_2.png","img/750/equaldotsize/R/5_Ratio_750_L_15_R_20.png","img/900/equaldotsize/L/1_Ratio_900_L_10_R_9.png","img/900/randomdotsizeEA/R/7_Ratio_900_L_9_R_10.png","img/500/equaldotsize/L/13_Ratio_500_L_12_R_6.png","img/500/randomdotsizeEA/L/8_Ratio_500_L_8_R_4.png","img/750/equaldotsize/R/7_Ratio_750_L_3_R_4.png","img/500/equaldotanddens/L/13_Ratio_500_L_12_R_6.png","img/250/equaldotsize/R/11_Ratio_250_L_3_R_12.png","img/900/randomdotsizeEA/R/11_Ratio_900_L_18_R_20.png","img/900/equaldotanddens/R/14_Ratio_900_L_18_R_20.png","img/900/randomdotsizeEA/L/8_Ratio_900_L_20_R_18.png","img/500/randomdotsizeEA/L/13_Ratio_500_L_12_R_6.png","img/900/equaldotanddens/L/2_Ratio_900_L_20_R_18.png","img/250/equaldotanddens/R/13_Ratio_250_L_2_R_8.png","img/900/randomdotsizeEA/R/3_Ratio_900_L_9_R_10.png","img/500/randomdotsizeEA/L/8_Ratio_500_L_8_R_4.png","img/900/equaldotanddens/L/10_Ratio_900_L_20_R_18.png","img/250/randomdotsizeEA/R/12_Ratio_250_L_5_R_20.png","img/900/randomdotsizeEA/R/14_Ratio_900_L_18_R_20.png","img/750/equaldotanddens/R/12_Ratio_750_L_3_R_4.png","img/900/equaldotsize/L/2_Ratio_900_L_20_R_18.png","img/250/randomdotsizeEA/L/5_Ratio_250_L_24_R_6.png","img/900/equaldotsize/R/5_Ratio_900_L_9_R_10.png","img/250/equaldotsize/R/4_Ratio_250_L_3_R_12.png","img/750/randomdotsizeEA/R/3_Ratio_750_L_15_R_20.png","img/750/equaldotanddens/L/13_Ratio_750_L_8_R_6.png","img/500/equaldotanddens/R/9_Ratio_500_L_2_R_4.png","img/750/randomdotsizeEA/R/11_Ratio_750_L_12_R_16.png","img/250/equaldotanddens/R/9_Ratio_250_L_3_R_12.png","img/500/equaldotsize/L/10_Ratio_500_L_4_R_2.png","img/750/equaldotanddens/L/1_Ratio_750_L_20_R_15.png","img/500/equaldotsize/R/15_Ratio_500_L_1_R_2.png","img/900/equaldotanddens/L/1_Ratio_900_L_10_R_9.png","img/900/equaldotanddens/R/3_Ratio_900_L_9_R_10.png","img/750/randomdotsizeEA/R/15_Ratio_750_L_9_R_12.png","img/250/equaldotsize/R/9_Ratio_250_L_3_R_12.png","img/750/equaldotsize/L/9_Ratio_750_L_4_R_3.png","img/250/equaldotanddens/L/15_Ratio_250_L_12_R_3.png","img/500/equaldotanddens/R/2_Ratio_500_L_3_R_6.png","img/750/equaldotsize/R/5_Ratio_750_L_15_R_20.png","img/750/equaldotanddens/L/1_Ratio_750_L_20_R_15.png","img/500/equaldotanddens/L/8_Ratio_500_L_8_R_4.png","img/250/equaldotsize/R/9_Ratio_250_L_3_R_12.png","img/750/equaldotsize/L/10_Ratio_750_L_4_R_3.png","img/900/randomdotsizeEA/R/11_Ratio_900_L_18_R_20.png","img/750/randomdotsizeEA/R/4_Ratio_750_L_15_R_20.png","img/500/randomdotsizeEA/R/3_Ratio_500_L_10_R_20.png","img/250/equaldotanddens/L/1_Ratio_250_L_8_R_2.png","img/900/equaldotanddens/L/4_Ratio_900_L_20_R_18.png","img/900/equaldotsize/L/1_Ratio_900_L_10_R_9.png","img/900/randomdotsizeEA/R/14_Ratio_900_L_18_R_20.png","img/900/randomdotsizeEA/L/4_Ratio_900_L_20_R_18.png","img/250/randomdotsizeEA/L/5_Ratio_250_L_24_R_6.png","img/500/randomdotsizeEA/R/3_Ratio_500_L_10_R_20.png","img/500/randomdotsizeEA/R/9_Ratio_500_L_2_R_4.png","img/500/equaldotsize/L/8_Ratio_500_L_8_R_4.png","img/900/equaldotanddens/R/11_Ratio_900_L_18_R_20.png","img/500/equaldotsize/R/3_Ratio_500_L_10_R_20.png","img/750/equaldotanddens/R/12_Ratio_750_L_3_R_4.png","img/900/equaldotanddens/L/4_Ratio_900_L_20_R_18.png","img/250/equaldotsize/R/11_Ratio_250_L_3_R_12.png","img/500/randomdotsizeEA/L/5_Ratio_500_L_4_R_2.png","img/500/equaldotanddens/L/8_Ratio_500_L_8_R_4.png","img/900/equaldotsize/R/7_Ratio_900_L_9_R_10.png","img/750/equaldotsize/R/5_Ratio_750_L_15_R_20.png","img/500/randomdotsizeEA/L/8_Ratio_500_L_8_R_4.png","img/900/equaldotanddens/R/3_Ratio_900_L_9_R_10.png","img/750/equaldotanddens/R/11_Ratio_750_L_12_R_16.png","img/250/randomdotsizeEA/L/15_Ratio_250_L_12_R_3.png","img/750/equaldotsize/R/4_Ratio_750_L_15_R_20.png","img/250/randomdotsizeEA/R/6_Ratio_250_L_6_R_24.png","img/250/equaldotsize/L/2_Ratio_250_L_16_R_4.png","img/900/equaldotsize/L/8_Ratio_900_L_20_R_18.png","img/250/equaldotsize/L/14_Ratio_250_L_12_R_3.png","img/250/randomdotsizeEA/R/10_Ratio_250_L_4_R_16.png","img/750/equaldotanddens/R/3_Ratio_750_L_15_R_20.png","img/250/equaldotanddens/R/8_Ratio_250_L_1_R_4.png","img/250/equaldotsize/L/5_Ratio_250_L_24_R_6.png","img/750/randomdotsizeEA/R/3_Ratio_750_L_15_R_20.png","img/750/randomdotsizeEA/L/8_Ratio_750_L_4_R_3.png","img/250/randomdotsizeEA/R/13_Ratio_250_L_2_R_8.png","img/900/equaldotsize/L/10_Ratio_900_L_20_R_18.png","img/750/equaldotanddens/R/5_Ratio_750_L_15_R_20.png","img/250/equaldotanddens/L/7_Ratio_250_L_8_R_2.png","img/250/randomdotsizeEA/R/9_Ratio_250_L_3_R_12.png","img/250/equaldotsize/R/6_Ratio_250_L_6_R_24.png","img/750/randomdotsizeEA/R/7_Ratio_750_L_3_R_4.png","img/500/equaldotanddens/L/13_Ratio_500_L_12_R_6.png","img/500/equaldotsize/R/2_Ratio_500_L_3_R_6.png","img/750/equaldotsize/R/4_Ratio_750_L_15_R_20.png"],"Rat0":[["12_Ratio_0_L_9_R_0.png","13_Ratio_0_L_6_R_0.png","5_Ratio_0_L_2_R_0.png","6_Ratio_0_L_4_R_0.png","8_Ratio_0_L_6_R_0.png"],["1_Ratio_0_L_0_R_17.png","10_Ratio_0_L_0_R_22.png","11_Ratio_0_L_0_R_1.png","14_Ratio_0_L_0_R_24.png","15_Ratio_0_L_0_R_4.png","2_Ratio_0_L_0_R_5.png","3_Ratio_0_L_0_R_17.png","4_Ratio_0_L_0_R_7.png","7_Ratio_0_L_0_R_19.png","9_Ratio_0_L_0_R_15.png"]],"Rat250":[["1_Ratio_250_L_8_R_2.png","14_Ratio_250_L_12_R_3.png","15_Ratio_250_L_12_R_3.png","2_Ratio_250_L_16_R_4.png","3_Ratio_250_L_8_R_2.png","5_Ratio_250_L_24_R_6.png","7_Ratio_250_L_8_R_2.png"],["10_Ratio_250_L_4_R_16.png","11_Ratio_250_L_3_R_12.png","12_Ratio_250_L_5_R_20.png","13_Ratio_250_L_2_R_8.png","4_Ratio_250_L_3_R_12.png","6_Ratio_250_L_6_R_24.png","8_Ratio_250_L_1_R_4.png","9_Ratio_250_L_3_R_12.png"]],"Rat500":[["10_Ratio_500_L_4_R_2.png","11_Ratio_500_L_12_R_6.png","13_Ratio_500_L_12_R_6.png","4_Ratio_500_L_18_R_9.png","5_Ratio_500_L_4_R_2.png","7_Ratio_500_L_10_R_5.png","8_Ratio_500_L_8_R_4.png"],["1_Ratio_500_L_9_R_18.png","12_Ratio_500_L_1_R_2.png","14_Ratio_500_L_5_R_10.png","15_Ratio_500_L_1_R_2.png","2_Ratio_500_L_3_R_6.png","3_Ratio_500_L_10_R_20.png","6_Ratio_500_L_9_R_18.png","9_Ratio_500_L_2_R_4.png"]],"Rat750":[["1_Ratio_750_L_20_R_15.png","10_Ratio_750_L_4_R_3.png","13_Ratio_750_L_8_R_6.png","14_Ratio_750_L_8_R_6.png","6_Ratio_750_L_24_R_18.png","8_Ratio_750_L_4_R_3.png","9_Ratio_750_L_4_R_3.png"],["11_Ratio_750_L_12_R_16.png","12_Ratio_750_L_3_R_4.png","15_Ratio_750_L_9_R_12.png","2_Ratio_750_L_6_R_8.png","3_Ratio_750_L_15_R_20.png","4_Ratio_750_L_15_R_20.png","5_Ratio_750_L_15_R_20.png","7_Ratio_750_L_3_R_4.png"]],"Rat900":[["1_Ratio_900_L_10_R_9.png","10_Ratio_900_L_20_R_18.png","2_Ratio_900_L_20_R_18.png","4_Ratio_900_L_20_R_18.png","8_Ratio_900_L_20_R_18.png"],["11_Ratio_900_L_18_R_20.png","12_Ratio_900_L_18_R_20.png","13_Ratio_900_L_18_R_20.png","14_Ratio_900_L_18_R_20.png","15_Ratio_900_L_9_R_10.png","3_Ratio_900_L_9_R_10.png","5_Ratio_900_L_9_R_10.png","6_Ratio_900_L_9_R_10.png","7_Ratio_900_L_9_R_10.png","9_Ratio_900_L_18_R_20.png"]],"Rat1000":[["10_Ratio_1000_L_16_R_16.png","11_Ratio_1000_L_6_R_6.png","12_Ratio_1000_L_14_R_14.png","13_Ratio_1000_L_20_R_20.png","15_Ratio_1000_L_15_R_15.png","2_Ratio_1000_L_17_R_17.png","4_Ratio_1000_L_9_R_9.png","5_Ratio_1000_L_6_R_6.png","6_Ratio_1000_L_19_R_19.png","8_Ratio_1000_L_14_R_14.png","9_Ratio_1000_L_25_R_25.png"],["1_Ratio_1000_L_1_R_1.png","14_Ratio_1000_L_17_R_17.png","3_Ratio_1000_L_17_R_17.png","7_Ratio_1000_L_6_R_6.png"]]}},{"start_time":1551887630694,"click_time":1551887632494,"finger_time":1551887632174,"fix_duration":1199.4003632294216,"trial":1,"RT":1480,"MT":320,"sideResp":2,"stimulus":"img/900/equaldotsize/L/8_Ratio_900_L_20_R_18.png","xmouse":[776,776,776,776,776,776,776,776,776,776,776,776,776,776,776,776,776,776,776,776,776,776,776,776,776,776,776,776,776,776,776,776,776,776,776,776,776,776,776,776,776,776,776,776,776,776,776,776,776,776,776,776,776,776,776,776,776,776,776,776,776,776,776,776,776,776,776,776,776,776,776,782,793,822,866,990,1086,1150,1209,1254,1275,1276,1276,1276,1276,1267,1255,1235,1214,1174,1156],"ymouse":[630,630,630,630,630,630,630,630,630,630,630,630,630,630,630,630,630,630,630,630,630,630,630,630,630,630,630,630,630,630,630,630,630,630,630,630,630,630,630,630,630,630,630,630,630,630,630,630,630,630,630,630,630,630,630,630,630,630,630,630,630,630,630,630,630,630,630,630,630,630,630,621,609,575,523,366,245,158,66,0,0,0,0,0,0,0,0,0,0,12,19],"timestamp_mouse":[2,25,40,60,79,99,119,140,160,179,199,220,240,260,280,299,319,340,359,379,399,419,439,459,479,499,519,541,560,580,599,619,639,659,679,700,720,739,759,779,799,820,840,860,879,899,919,940,959,979,1000,1019,1040,1060,1080,1099,1121,1140,1159,1179,1199,1219,1239,1260,1280,1299,1320,1340,1360,1379,1400,1420,1440,1460,1480,1499,1519,1539,1559,1579,1600,1619,1640,1659,1679,1699,1719,1739,1759,1781,1799],"xSR":741.5,"ySR":573.95,"xT1":424.9,"yT1":0,"xT2":1058.1,"yT2":0,"toosoon":0,"cond_shown":"equaldotsize","ratio_trial":900,"smaller_num":"18","larger_num":"20","correct_side":1,"subjID":"paulavaleriabarbosahernandez18","gender":"1","age":"11","school":"sexto"},{"start_time":1551887635903,"click_time":1551887636794,"finger_time":1551887636634,"fix_duration":808.1666742886105,"trial":2,"RT":731,"MT":160,"sideResp":2,"stimulus":"img/750/equaldotanddens/R/3_Ratio_750_L_15_R_20.png","xmouse":[752,747,747,747,747,747,747,747,747,747,747,747,747,747,747,747,747,747,747,747,747,747,747,747,747,747,747,747,747,747,747,747,747,747,747,747,740,733,726,733,760,805,880,1038,1119],"ymouse":[605,604,604,604,604,604,604,604,604,604,604,604,604,604,604,604,604,604,604,604,604,604,604,604,604,604,604,604,604,604,604,604,604,604,604,604,604,594,556,527,479,407,318,133,55],"timestamp_mouse":[11,30,52,71,90,110,132,151,171,191,211,231,251,270,290,310,330,350,370,390,410,430,451,471,491,511,531,551,571,591,611,631,652,670,690,710,731,751,772,790,810,831,851,872,890],"xSR":741.5,"ySR":573.95,"xT1":424.9,"yT1":0,"xT2":1058.1,"yT2":0,"toosoon":0,"cond_shown":"equaldotanddens","ratio_trial":750,"smaller_num":"15","larger_num":"20","correct_side":2,"subjID":"paulavaleriabarbosahernandez18","gender":"1","age":"11","school":"sexto"},{"start_time":1551887638724,"click_time":1551887640193,"finger_time":1551887639733,"fix_duration":888.023931749344,"trial":3,"RT":1009,"MT":460,"sideResp":2,"stimulus":"img/500/randomdotsizeEA/R/2_Ratio_500_L_3_R_6.png","xmouse":[803,803,803,803,803,803,803,803,803,803,803,803,803,803,803,803,803,803,803,803,803,803,803,803,803,803,803,803,803,803,803,803,803,803,803,803,803,803,803,803,803,803,803,803,803,803,803,803,809,824,844,863,885,919,928,936,945,957,965,963,952,938,929,931,932,932,932,932,944,958,980,1000,1018,1067],"ymouse":[607,607,607,607,607,607,607,607,607,607,607,607,607,607,607,607,607,607,607,607,607,607,607,607,607,607,607,607,607,607,607,607,607,607,607,607,607,607,607,607,607,607,607,607,607,607,607,607,596,577,553,531,509,457,432,407,384,361,316,285,185,80,0,0,0,0,0,0,1,3,7,10,14,26],"timestamp_mouse":[11,29,50,69,89,109,129,149,169,189,209,229,249,270,289,310,329,349,369,389,409,429,451,469,489,509,529,549,569,589,609,629,649,670,689,710,729,749,769,789,809,829,849,869,889,909,930,949,970,989,1009,1029,1049,1069,1089,1109,1129,1150,1169,1190,1209,1230,1249,1269,1290,1310,1329,1349,1369,1389,1409,1429,1449,1469],"xSR":741.5,"ySR":573.95,"xT1":424.9,"yT1":0,"xT2":1058.1,"yT2":0,"toosoon":0,"cond_shown":"randomdotsizeEA","ratio_trial":500,"smaller_num":"3","larger_num":"6","correct_side":2,"subjID":"paulavaleriabarbosahernandez18","gender":"1","age":"11","school":"sexto"},{"start_time":1551887641566,"click_time":1551887643493,"finger_time":1551887643073,"fix_duration":470.3407833472172,"trial":4,"RT":1507,"MT":420,"sideResp":2,"stimulus":"img/500/equaldotanddens/R/6_Ratio_500_L_9_R_18.png","xmouse":[814,814,814,814,814,814,814,814,814,814,814,814,814,814,814,814,814,814,814,814,815,816,816,816,816,816,816,816,816,816,816,816,816,816,816,816,816,816,816,816,816,816,816,816,813,812,812,812,812,812,812,813,815,816,816,816,816,813,811,808,804,800,800,800,800,800,800,800,800,800,800,800,800,800,800,803,840,864,884,900,915,922,929,937,947,978,1001,1021,1028,1028,1028,1028,1032,1034,1039,1053,1084],"ymouse":[634,634,634,634,634,634,634,634,634,634,634,634,634,634,634,634,634,634,634,634,634,634,635,635,635,635,635,635,635,635,635,635,635,635,635,635,635,635,635,635,635,635,635,635,634,633,632,631,631,631,630,629,629,629,629,629,629,627,626,622,618,613,613,613,613,613,613,613,613,613,613,613,613,610,602,571,431,367,319,286,252,235,218,202,187,160,143,130,125,125,125,125,120,108,87,60,13],"timestamp_mouse":[13,38,47,67,87,107,127,147,168,187,207,227,247,267,287,308,327,347,367,388,408,427,447,467,487,507,527,547,567,587,607,627,647,669,687,708,727,747,767,787,807,827,847,867,888,907,927,948,967,987,1008,1027,1047,1067,1087,1107,1127,1147,1167,1187,1207,1228,1247,1267,1287,1307,1327,1347,1367,1387,1407,1427,1447,1468,1487,1507,1527,1547,1568,1587,1608,1627,1647,1667,1687,1708,1727,1747,1767,1788,1807,1828,1848,1868,1887,1907,1927],"xSR":741.5,"ySR":573.95,"xT1":424.9,"yT1":0,"xT2":1058.1,"yT2":0,"toosoon":0,"cond_shown":"equaldotanddens","ratio_trial":500,"smaller_num":"9","larger_num":"18","correct_side":2,"subjID":"paulavaleriabarbosahernandez18","gender":"1","age":"11","school":"sexto"},{"start_time":1551887648190,"click_time":1551887649574,"finger_time":1551887649093,"fix_duration":1435.1735254208215,"trial":5,"RT":903,"MT":481,"sideResp":2,"stimulus":"img/500/equaldotanddens/R/12_Ratio_500_L_1_R_2.png","xmouse":[783,783,783,783,783,783,783,783,783,783,783,783,783,783,783,783,783,783,783,783,783,783,783,783,783,783,783,783,783,783,783,783,783,783,783,783,783,783,783,783,783,783,783,786,791,834,852,862,869,877,881,883,886,892,912,929,948,959,972,1011,1034,1071,1094,1120,1151,1154,1156,1156,1157,1157],"ymouse":[623,623,623,623,623,623,623,623,623,623,623,623,623,623,623,623,623,623,623,623,623,623,623,623,623,623,623,623,623,623,623,623,623,623,623,623,623,623,623,623,623,623,623,623,621,550,475,407,365,311,289,280,272,260,238,224,207,196,189,176,171,162,156,148,128,118,112,106,102,91],"timestamp_mouse":[7,28,43,64,83,103,124,143,163,184,203,223,243,264,284,303,323,343,364,385,403,423,443,463,484,503,523,543,563,583,603,623,643,663,683,704,723,743,763,784,803,823,843,864,883,903,923,943,963,984,1003,1023,1043,1063,1084,1103,1123,1143,1164,1184,1203,1223,1244,1264,1284,1303,1324,1343,1364,1384],"xSR":741.5,"ySR":573.95,"xT1":424.9,"yT1":0,"xT2":1058.1,"yT2":0,"toosoon":0,"cond_shown":"equaldotanddens","ratio_trial":500,"smaller_num":"1","larger_num":"2","correct_side":2,"subjID":"paulavaleriabarbosahernandez18","gender":"1","age":"11","school":"sexto"},{"start_time":1551887653045,"click_time":1551887656233,"finger_time":1551887656094,"fix_duration":1210.8695896266204,"trial":6,"RT":3049,"MT":139,"sideResp":1,"stimulus":"img/250/equaldotanddens/L/7_Ratio_250_L_8_R_2.png","xmouse":[781,781,781,781,781,781,781,781,781,781,781,781,781,781,781,781,781,781,781,781,781,781,781,781,781,781,781,781,781,781,781,781,781,781,781,781,781,781,781,781,781,781,781,781,781,781,781,781,781,781,781,781,781,781,782,782,783,783,783,783,783,783,784,784,784,784,784,784,784,784,784,784,784,785,785,785,787,787,787,787,787,786,786,786,786,786,786,786,786,786,786,786,786,784,782,781,779,777,777,777,777,777,777,778,781,786,796,798,799,799,799,800,791,785,777,771,767,767,766,766,766,766,766,766,766,766,766,766,766,766,766,766,766,766,766,766,766,766,766,766,766,766,766,766,766,766,766,766,766,766,766,757,702,628,563,518,485,449,436,425],"ymouse":[621,621,621,621,621,621,621,621,621,621,621,621,621,621,621,621,621,621,621,621,621,621,621,621,621,621,621,621,621,621,621,621,621,621,621,621,621,621,621,621,621,621,621,621,621,621,621,621,621,621,621,621,621,621,621,621,621,621,621,621,621,621,618,612,603,596,591,591,591,591,591,591,591,590,590,590,592,601,608,611,615,618,619,619,619,619,619,619,619,619,619,619,619,617,615,610,608,605,605,605,605,605,605,610,617,624,635,637,637,637,637,633,617,610,605,603,603,603,603,603,604,604,604,604,604,604,604,604,604,604,604,604,604,604,604,604,604,604,604,604,604,604,604,604,604,604,604,604,604,604,604,598,522,421,321,248,195,135,104,73],"timestamp_mouse":[9,28,48,68,88,108,128,148,168,188,208,228,248,268,289,308,328,349,368,388,408,428,449,468,488,508,528,548,568,588,608,628,648,669,688,708,728,748,768,788,808,828,848,868,888,908,928,948,968,988,1008,1028,1048,1068,1088,1108,1128,1148,1168,1188,1208,1228,1248,1268,1288,1308,1329,1349,1368,1388,1408,1428,1448,1468,1488,1509,1528,1548,1568,1588,1609,1629,1649,1668,1688,1708,1729,1748,1768,1789,1808,1828,1848,1869,1888,1908,1928,1948,1968,1988,2009,2028,2048,2068,2088,2108,2129,2148,2168,2188,2208,2228,2248,2268,2288,2308,2328,2348,2368,2389,2408,2429,2448,2468,2488,2508,2528,2548,2568,2588,2608,2628,2648,2668,2688,2708,2728,2748,2768,2788,2808,2828,2848,2868,2888,2908,2928,2948,2968,2988,3008,3028,3049,3068,3089,3108,3128,3149,3168,3188],"xSR":741.5,"ySR":573.95,"xT1":424.9,"yT1":0,"xT2":1058.1,"yT2":0,"toosoon":0,"cond_shown":"equaldotanddens","ratio_trial":250,"smaller_num":"2","larger_num":"8","correct_side":1,"subjID":"paulavaleriabarbosahernandez18","gender":"1","age":"11","school":"sexto"},{"start_time":1551887663472,"click_time":1551887664553,"finger_time":1551887664494,"fix_duration":1396.2474305072942,"trial":7,"RT":1022,"MT":59,"sideResp":1,"stimulus":"img/750/randomdotsizeEA/R/2_Ratio_750_L_6_R_8.png","xmouse":[792,786,785,784,782,782,783,788,796,807,814,816,816,816,816,816,816,816,816,816,816,816,816,816,816,816,816,816,816,816,816,816,816,816,816,816,816,816,816,816,816,816,819,825,831,831,831,831,828,823,803,698,606,526,463],"ymouse":[598,601,603,605,611,626,633,637,637,637,636,635,635,635,635,635,635,635,635,635,635,635,635,635,635,635,635,635,635,635,635,635,635,635,635,635,635,635,635,635,635,635,636,638,641,641,641,641,639,631,595,458,333,171,25],"timestamp_mouse":[1,32,41,61,81,102,121,141,161,181,201,221,241,261,281,301,321,341,362,381,401,421,441,461,481,501,521,541,561,581,601,621,642,662,681,702,721,741,761,781,801,821,841,861,881,901,922,942,961,981,1001,1022,1041,1062,1081],"xSR":741.5,"ySR":573.95,"xT1":424.9,"yT1":0,"xT2":1058.1,"yT2":0,"toosoon":0,"cond_shown":"randomdotsizeEA","ratio_trial":750,"smaller_num":"6","larger_num":"8","correct_side":2,"subjID":"paulavaleriabarbosahernandez18","gender":"1","age":"11","school":"sexto"},{"start_time":1551887665824,"click_time":1551887666593,"finger_time":1551887666514,"fix_duration":250,"trial":8,"RT":690,"MT":79,"sideResp":1,"stimulus":"img/250/equaldotanddens/L/2_Ratio_250_L_16_R_4.png","xmouse":[778,778,778,778,778,778,778,778,778,778,778,778,778,778,778,778,778,778,778,778,778,778,778,778,778,778,778,778,778,778,778,778,778,778,771,752,710,640,510],"ymouse":[600,600,600,600,600,600,600,600,600,600,600,600,600,600,600,600,600,600,600,600,600,600,600,600,600,600,600,600,600,600,600,600,600,600,569,530,433,274,13],"timestamp_mouse":[10,28,49,69,89,109,129,149,169,189,209,229,249,269,289,310,329,349,369,390,409,429,449,469,489,509,529,549,569,590,609,629,649,669,690,709,730,750,769],"xSR":741.5,"ySR":573.95,"xT1":424.9,"yT1":0,"xT2":1058.1,"yT2":0,"toosoon":0,"cond_shown":"equaldotanddens","ratio_trial":250,"smaller_num":"4","larger_num":"16","correct_side":1,"subjID":"paulavaleriabarbosahernandez18","gender":"1","age":"11","school":"sexto"},{"start_time":1551887668027,"click_time":1551887669013,"finger_time":1551887668914,"fix_duration":413.43529251486365,"trial":9,"RT":887,"MT":99,"sideResp":1,"stimulus":"img/750/equaldotsize/L/9_Ratio_750_L_4_R_3.png","xmouse":[800,800,800,800,800,800,800,800,800,800,800,800,800,800,800,800,800,800,800,800,800,800,800,800,800,800,800,800,800,800,800,800,800,800,800,800,800,800,800,800,800,800,799,791,781,765,735,647,565,509],"ymouse":[614,614,614,614,614,614,614,614,614,614,614,614,614,614,614,614,614,614,614,614,614,614,614,614,614,614,614,614,614,614,614,614,614,614,614,614,614,614,614,614,614,614,613,596,572,535,480,320,191,97],"timestamp_mouse":[8,26,46,66,86,106,126,147,166,186,206,226,246,266,286,306,326,346,366,387,406,426,446,466,486,506,527,546,566,587,606,627,646,666,686,706,726,746,767,786,807,827,846,867,887,906,926,947,965,986],"xSR":741.5,"ySR":573.95,"xT1":424.9,"yT1":0,"xT2":1058.1,"yT2":0,"toosoon":0,"cond_shown":"equaldotsize","ratio_trial":750,"smaller_num":"3","larger_num":"4","correct_side":1,"subjID":"paulavaleriabarbosahernandez18","gender":"1","age":"11","school":"sexto"},{"start_time":1551887671005,"click_time":1551887671993,"finger_time":1551887671693,"fix_duration":1290.9140386763602,"trial":10,"RT":688,"MT":300,"sideResp":2,"stimulus":"img/750/equaldotsize/R/5_Ratio_750_L_15_R_20.png","xmouse":[768,768,769,769,769,769,769,770,770,770,770,770,770,770,770,770,770,770,770,770,770,770,770,770,770,770,770,771,771,771,771,771,771,785,842,898,968,1021,1044,1058,1058,1058,1058,1058,1058,1067,1082,1094,1100,1103],"ymouse":[617,617,617,617,617,617,617,618,618,618,618,618,618,618,618,618,618,618,618,618,618,618,618,618,618,618,618,618,618,618,618,618,618,600,516,444,368,309,275,244,242,242,242,232,220,195,160,132,100,87],"timestamp_mouse":[9,32,49,69,88,108,128,148,168,188,208,229,248,268,288,308,328,348,368,388,408,428,448,468,488,508,528,548,569,588,608,628,649,669,688,708,728,748,768,789,808,828,848,869,888,909,928,948,969,988],"xSR":741.5,"ySR":573.95,"xT1":424.9,"yT1":0,"xT2":1058.1,"yT2":0,"toosoon":0,"cond_shown":"equaldotsize","ratio_trial":750,"smaller_num":"15","larger_num":"20","correct_side":2,"subjID":"paulavaleriabarbosahernandez18","gender":"1","age":"11","school":"sexto"},{"start_time":1551887674302,"click_time":1551887675153,"finger_time":1551887674894,"fix_duration":1367.087146890574,"trial":11,"RT":592,"MT":259,"sideResp":1,"stimulus":"img/500/equaldotanddens/L/13_Ratio_500_L_12_R_6.png","xmouse":[796,796,796,796,796,796,796,796,796,796,796,796,796,796,796,796,796,796,796,796,796,796,796,796,796,796,796,796,794,762,734,693,648,606,565,562,557,556,550,542,536,528,521],"ymouse":[612,612,612,612,612,612,612,612,612,612,612,612,612,612,612,612,612,612,612,612,612,612,612,612,612,612,612,610,607,544,481,407,330,250,172,168,164,164,155,138,118,101,87],"timestamp_mouse":[12,34,51,71,91,111,132,151,171,191,211,231,251,271,291,312,331,351,371,391,411,431,452,471,491,511,531,551,571,592,611,631,652,672,691,711,731,751,772,791,811,831,851],"xSR":741.5,"ySR":573.95,"xT1":424.9,"yT1":0,"xT2":1058.1,"yT2":0,"toosoon":0,"cond_shown":"equaldotanddens","ratio_trial":500,"smaller_num":"6","larger_num":"12","correct_side":1,"subjID":"paulavaleriabarbosahernandez18","gender":"1","age":"11","school":"sexto"},{"start_time":1551887676708,"click_time":1551887678034,"finger_time":1551887676775,"fix_duration":894.1631337654893,"trial":12,"RT":67,"MT":1259,"sideResp":2,"stimulus":"img/900/equaldotsize/L/4_Ratio_900_L_20_R_18.png","xmouse":[780,799,799,844,846,850,851,852,852,853,853,853,855,855,856,857,858,855,845,815,805,799,797,796,796,796,796,796,796,796,796,796,796,796,796,796,796,796,796,796,797,799,805,812,824,848,872,905,951,970,989,1006,1042,1074,1106,1109,1109,1109,1110,1111,1111,1111,1111,1111,1104,1105,1110],"ymouse":[612,597,597,579,579,580,580,582,582,582,582,582,582,582,583,584,584,587,589,594,595,596,597,597,597,597,597,597,597,597,597,597,597,597,597,597,597,597,597,597,591,586,575,564,544,520,499,470,431,416,403,390,352,303,257,252,251,250,248,239,229,217,208,199,154,117,90],"timestamp_mouse":[8,33,45,67,85,105,125,145,165,185,205,225,245,265,285,305,325,346,365,386,405,425,446,465,485,505,526,546,565,585,605,625,645,665,686,705,725,745,765,785,805,826,846,865,886,905,925,945,966,985,1005,1025,1045,1065,1085,1106,1125,1146,1165,1186,1205,1226,1245,1265,1285,1305,1326],"xSR":741.5,"ySR":573.95,"xT1":424.9,"yT1":0,"xT2":1058.1,"yT2":0,"toosoon":0,"cond_shown":"equaldotsize","ratio_trial":900,"smaller_num":"18","larger_num":"20","correct_side":1,"subjID":"paulavaleriabarbosahernandez18","gender":"1","age":"11","school":"sexto"},{"start_time":1551887679769,"click_time":1551887680953,"finger_time":1551887680573,"fix_duration":934.366094930645,"trial":13,"RT":804,"MT":380,"sideResp":2,"stimulus":"img/250/equaldotsize/R/13_Ratio_250_L_2_R_8.png","xmouse":[784,784,784,784,784,783,783,782,780,778,775,773,772,771,771,771,771,771,771,771,771,771,771,771,771,771,771,771,771,771,771,768,767,766,765,764,764,764,764,764,798,904,942,1078,1158,1203,1269,1272,1272,1267,1260,1240,1238,1238,1238,1238,1237,1236,1217,1151],"ymouse":[615,615,615,615,615,615,614,614,613,611,600,597,597,597,597,596,596,596,596,596,596,596,596,596,596,596,596,596,596,596,596,595,594,594,593,592,592,592,592,591,548,442,403,285,216,174,83,67,56,44,28,4,2,2,2,2,2,2,2,9],"timestamp_mouse":[8,32,44,65,85,104,124,144,165,184,205,224,244,264,284,305,324,344,364,384,404,424,444,465,484,504,524,545,564,584,604,624,644,664,684,705,724,744,764,784,804,824,845,865,885,904,925,944,965,985,1004,1024,1045,1064,1085,1104,1124,1144,1164,1184],"xSR":741.5,"ySR":573.95,"xT1":424.9,"yT1":0,"xT2":1058.1,"yT2":0,"toosoon":0,"cond_shown":"equaldotsize","ratio_trial":250,"smaller_num":"2","larger_num":"8","correct_side":2,"subjID":"paulavaleriabarbosahernandez18","gender":"1","age":"11","school":"sexto"},{"start_time":1551887685249,"click_time":1551887686353,"finger_time":1551887686033,"fix_duration":1474.5557181899546,"trial":14,"RT":784,"MT":320,"sideResp":1,"stimulus":"img/900/equaldotanddens/L/10_Ratio_900_L_20_R_18.png","xmouse":[776,776,776,776,776,776,776,776,776,776,776,776,776,776,776,776,776,776,776,776,776,776,776,776,776,776,776,776,776,776,776,776,776,776,776,776,776,770,764,758,749,735,735,734,731,726,713,698,690,679,666,643,627,596,550,507],"ymouse":[591,591,591,591,591,591,591,591,591,591,591,591,591,591,591,591,591,591,591,591,591,591,591,591,591,591,591,591,591,591,591,591,591,591,591,591,591,587,577,566,550,530,528,525,515,500,453,413,384,354,315,231,174,116,58,2],"timestamp_mouse":[8,24,45,64,84,104,124,144,164,184,204,224,244,264,284,304,324,344,364,384,405,426,445,464,485,504,525,544,564,584,604,624,644,664,684,704,725,745,764,784,804,825,844,864,884,904,925,944,965,984,1004,1024,1044,1064,1084,1104],"xSR":741.5,"ySR":573.95,"xT1":424.9,"yT1":0,"xT2":1058.1,"yT2":0,"toosoon":0,"cond_shown":"equaldotanddens","ratio_trial":900,"smaller_num":"18","larger_num":"20","correct_side":1,"subjID":"paulavaleriabarbosahernandez18","gender":"1","age":"11","school":"sexto"},{"start_time":1551887688548,"click_time":1551887689813,"finger_time":1551887689514,"fix_duration":1272.4041974563559,"trial":15,"RT":966,"MT":299,"sideResp":2,"stimulus":"img/900/equaldotsize/L/8_Ratio_900_L_20_R_18.png","xmouse":[812,812,812,812,812,812,812,812,812,812,812,812,812,812,812,812,812,812,812,812,812,812,812,812,812,812,812,812,812,812,812,812,812,812,812,812,812,812,812,812,812,812,812,812,812,812,812,812,833,870,907,989,1017,1045,1052,1055,1053,1050,1050,1050,1050,1050,1050,1062],"ymouse":[632,632,632,632,632,632,632,632,632,632,632,632,632,632,632,632,632,632,632,632,632,632,632,632,632,632,632,632,632,632,632,632,632,632,632,632,632,632,632,632,632,632,632,632,632,632,632,625,563,474,396,296,268,230,215,201,175,169,163,154,142,132,107,94],"timestamp_mouse":[15,25,45,65,86,105,126,145,166,185,205,225,245,265,285,305,325,345,367,385,405,425,445,466,485,506,525,545,565,585,605,625,645,665,685,705,725,745,765,785,805,825,846,865,885,905,925,945,966,985,1005,1026,1045,1065,1086,1106,1126,1145,1165,1185,1205,1225,1245,1265],"xSR":741.5,"ySR":573.95,"xT1":424.9,"yT1":0,"xT2":1058.1,"yT2":0,"toosoon":0,"cond_shown":"equaldotsize","ratio_trial":900,"smaller_num":"18","larger_num":"20","correct_side":1,"subjID":"paulavaleriabarbosahernandez18","gender":"1","age":"11","school":"sexto"},{"start_time":1551887691097,"click_time":1551887692193,"finger_time":1551887691973,"fix_duration":381.0219863864705,"trial":16,"RT":876,"MT":220,"sideResp":1,"stimulus":"img/750/randomdotsizeEA/L/6_Ratio_750_L_24_R_18.png","xmouse":[784,784,784,784,784,784,784,784,784,784,784,784,784,784,784,784,784,784,784,784,784,784,784,784,784,784,784,784,784,784,784,784,784,784,784,784,784,784,784,784,784,770,753,721,618,596,585,581,578,568,560,548,538,525,518],"ymouse":[636,636,636,636,636,636,636,636,636,636,636,636,636,636,636,636,636,636,636,636,636,636,636,636,636,636,636,636,636,636,636,636,636,636,636,636,636,636,636,636,636,613,584,516,361,334,318,308,300,286,278,259,242,182,90],"timestamp_mouse":[27,36,56,76,96,116,136,156,177,196,216,236,256,276,297,316,336,356,376,396,418,436,456,476,496,516,536,556,576,596,616,637,656,676,696,716,736,756,776,796,816,836,857,876,896,916,936,956,976,996,1016,1037,1057,1076,1096],"xSR":741.5,"ySR":573.95,"xT1":424.9,"yT1":0,"xT2":1058.1,"yT2":0,"toosoon":0,"cond_shown":"randomdotsizeEA","ratio_trial":750,"smaller_num":"18","larger_num":"24","correct_side":1,"subjID":"paulavaleriabarbosahernandez18","gender":"1","age":"11","school":"sexto"},{"start_time":1551887698627,"click_time":1551887699634,"finger_time":1551887699294,"fix_duration":1353.265970326683,"trial":17,"RT":667,"MT":340,"sideResp":2,"stimulus":"img/500/equaldotsize/R/6_Ratio_500_L_9_R_18.png","xmouse":[810,810,810,810,810,810,810,810,810,810,810,810,810,810,810,810,810,810,810,810,810,810,810,810,810,810,810,810,810,810,810,810,810,868,939,1052,1122,1188,1198,1206,1207,1207,1208,1205,1204,1201,1197,1195,1189,1169,1152],"ymouse":[598,598,598,598,598,598,598,598,598,598,598,598,598,598,598,598,598,598,598,598,598,598,598,598,598,598,598,598,598,598,598,598,599,519,404,239,142,32,12,0,0,0,0,0,0,0,0,0,0,7,16],"timestamp_mouse":[7,26,46,66,86,106,126,146,167,187,206,227,247,266,287,307,326,347,366,387,407,427,446,466,487,507,527,547,567,587,607,626,647,667,687,707,726,748,777,788,806,827,846,867,886,907,926,949,967,987,1007],"xSR":741.5,"ySR":573.95,"xT1":424.9,"yT1":0,"xT2":1058.1,"yT2":0,"toosoon":0,"cond_shown":"equaldotsize","ratio_trial":500,"smaller_num":"9","larger_num":"18","correct_side":2,"subjID":"paulavaleriabarbosahernandez18","gender":"1","age":"11","school":"sexto"},{"start_time":1551887700785,"click_time":1551887702193,"finger_time":1551887701574,"fix_duration":250,"trial":18,"RT":789,"MT":619,"sideResp":2,"stimulus":"img/500/equaldotanddens/R/1_Ratio_500_L_9_R_18.png","xmouse":[770,770,770,770,770,770,770,770,770,770,770,770,770,770,770,770,770,770,770,770,770,770,770,770,770,770,770,770,770,770,770,770,770,770,770,770,770,774,778,788,807,813,818,824,833,853,866,880,894,908,929,946,969,995,1015,1058,1070,1079,1081,1084,1092,1097,1099,1102,1104,1105,1105,1106,1106,1108,1109],"ymouse":[631,631,631,631,631,631,631,630,630,630,630,630,630,630,630,630,630,630,630,630,630,630,630,630,630,630,630,630,630,630,630,630,630,630,630,630,630,609,596,562,510,488,471,457,440,409,396,380,362,347,323,309,290,264,241,201,188,176,172,166,150,141,134,128,124,122,120,116,109,104,99],"timestamp_mouse":[17,35,49,70,89,109,129,150,169,189,209,229,250,269,289,308,328,348,368,389,409,429,449,469,489,509,529,548,570,589,609,629,650,669,690,709,729,750,768,789,809,829,849,868,888,909,930,948,968,989,1009,1029,1049,1069,1088,1109,1130,1150,1170,1188,1208,1229,1249,1270,1289,1309,1328,1348,1368,1388,1408],"xSR":741.5,"ySR":573.95,"xT1":424.9,"yT1":0,"xT2":1058.1,"yT2":0,"toosoon":0,"cond_shown":"equaldotanddens","ratio_trial":500,"smaller_num":"9","larger_num":"18","correct_side":2,"subjID":"paulavaleriabarbosahernandez18","gender":"1","age":"11","school":"sexto"},{"start_time":1551887704924,"click_time":1551887706133,"finger_time":1551887705714,"fix_duration":250,"trial":19,"RT":790,"MT":419,"sideResp":1,"stimulus":"img/250/equaldotanddens/L/1_Ratio_250_L_8_R_2.png","xmouse":[776,776,776,776,776,776,776,776,776,776,776,776,776,776,776,776,776,776,776,776,776,776,776,776,776,776,776,776,776,776,776,776,776,776,776,776,770,758,749,743,735,725,695,670,620,583,560,547,547,547,547,546,542,541,541,541,541,541,539,531,517],"ymouse":[622,622,622,622,622,622,622,622,622,622,622,622,622,622,622,622,622,622,622,622,622,622,622,622,622,622,622,622,622,622,622,622,622,622,622,617,610,596,577,560,542,518,447,404,287,196,125,67,52,38,20,0,0,0,0,0,0,0,0,1,9],"timestamp_mouse":[10,30,51,70,90,109,129,149,170,190,210,229,249,269,289,310,329,349,370,390,409,429,449,470,491,509,529,550,570,589,610,629,649,670,690,709,730,750,770,790,810,829,850,869,890,910,930,950,969,989,1010,1030,1051,1069,1090,1110,1130,1151,1169,1189,1209],"xSR":741.5,"ySR":573.95,"xT1":424.9,"yT1":0,"xT2":1058.1,"yT2":0,"toosoon":0,"cond_shown":"equaldotanddens","ratio_trial":250,"smaller_num":"2","larger_num":"8","correct_side":1,"subjID":"paulavaleriabarbosahernandez18","gender":"1","age":"11","school":"sexto"},{"start_time":1551887707332,"click_time":1551887709333,"finger_time":1551887708754,"fix_duration":316.09379469725417,"trial":20,"RT":1422,"MT":579,"sideResp":1,"stimulus":"img/500/equaldotsize/L/10_Ratio_500_L_4_R_2.png","xmouse":[773,773,773,773,773,773,773,773,773,773,773,773,773,773,773,773,773,773,773,773,773,773,773,773,773,773,773,773,773,773,773,773,773,773,773,773,773,773,773,773,773,773,773,773,773,773,773,773,773,773,773,773,773,773,773,773,773,773,773,773,773,773,773,773,773,773,773,773,773,770,763,743,654,509,414,341,313,307,307,307,307,308,311,318,318,318,318,324,355,368,384,399,417,468,492,512,526,531,531,527,519],"ymouse":[609,609,609,609,609,609,609,609,609,609,609,609,609,609,609,609,609,609,609,609,609,609,609,609,609,609,609,609,609,609,609,609,609,609,609,609,609,609,609,609,609,609,609,609,609,609,609,609,609,609,609,609,609,609,609,609,609,609,609,609,609,609,609,609,609,609,609,609,609,600,587,550,420,245,147,63,27,5,0,0,0,0,0,0,0,0,0,4,49,69,88,94,97,105,107,107,103,101,92,86,77],"timestamp_mouse":[6,25,43,62,83,102,122,141,162,181,201,221,242,262,281,301,322,341,361,382,402,422,442,461,481,501,521,542,562,582,602,621,641,662,682,702,722,742,762,782,801,822,842,862,882,902,921,942,962,983,1002,1022,1042,1062,1082,1103,1121,1141,1162,1182,1201,1221,1242,1262,1283,1301,1321,1341,1362,1381,1402,1422,1442,1461,1482,1502,1522,1543,1561,1582,1603,1621,1643,1662,1682,1703,1722,1742,1762,1781,1802,1821,1841,1861,1882,1901,1923,1941,1961,1981,2001],"xSR":741.5,"ySR":573.95,"xT1":424.9,"yT1":0,"xT2":1058.1,"yT2":0,"toosoon":0,"cond_shown":"equaldotsize","ratio_trial":500,"smaller_num":"2","larger_num":"4","correct_side":1,"subjID":"paulavaleriabarbosahernandez18","gender":"1","age":"11","school":"sexto"},{"start_time":1551887712676,"click_time":1551887713874,"finger_time":1551887713494,"fix_duration":561.4195738596256,"trial":21,"RT":818,"MT":380,"sideResp":2,"stimulus":"img/900/randomdotsizeEA/R/3_Ratio_900_L_9_R_10.png","xmouse":[771,771,771,771,771,771,771,771,771,771,771,771,771,771,771,771,771,771,771,771,771,771,771,771,771,771,771,771,771,771,771,771,771,771,771,771,771,771,771,774,796,840,903,969,1007,1032,1039,1041,1041,1043,1047,1048,1050,1052,1052,1060,1063,1069,1086,1109],"ymouse":[597,597,597,597,597,597,597,597,597,597,597,597,597,597,597,597,597,597,597,597,597,597,597,597,597,597,597,597,597,597,597,597,597,597,597,597,597,597,597,591,560,504,417,342,299,257,244,239,232,224,201,189,180,170,163,141,132,122,101,81],"timestamp_mouse":[29,37,58,78,98,117,137,157,177,198,218,238,258,278,298,317,337,358,378,397,417,439,458,478,497,518,538,558,577,597,617,637,657,677,698,718,738,757,777,799,818,838,859,877,897,918,937,957,979,997,1017,1038,1057,1077,1097,1117,1138,1158,1179,1197],"xSR":741.5,"ySR":573.95,"xT1":424.9,"yT1":0,"xT2":1058.1,"yT2":0,"toosoon":0,"cond_shown":"randomdotsizeEA","ratio_trial":900,"smaller_num":"9","larger_num":"10","correct_side":2,"subjID":"paulavaleriabarbosahernandez18","gender":"1","age":"11","school":"sexto"},{"start_time":1551887717628,"click_time":1551887718753,"finger_time":1551887718414,"fix_duration":552.6715451522647,"trial":22,"RT":786,"MT":339,"sideResp":1,"stimulus":"img/500/randomdotsizeEA/L/7_Ratio_500_L_10_R_5.png","xmouse":[808,808,808,808,808,808,808,808,808,808,808,808,808,808,808,808,808,808,808,808,808,808,808,808,808,808,808,808,808,808,808,808,808,808,808,808,808,808,801,759,710,641,557,544,541,541,541,541,541,541,541,541,541,541,540,535,524],"ymouse":[612,612,612,612,612,612,612,612,612,612,612,612,612,612,612,612,612,612,612,612,612,612,612,612,612,612,612,612,612,612,612,612,612,612,612,612,612,612,605,551,487,414,253,179,131,114,108,101,101,101,99,97,93,86,80,75,66],"timestamp_mouse":[6,29,47,66,86,105,125,146,165,185,205,225,245,266,286,306,326,347,366,385,405,425,446,466,486,506,526,545,565,586,606,625,645,665,686,705,725,746,765,785,806,826,847,866,885,907,925,946,966,986,1005,1026,1045,1066,1086,1105,1125],"xSR":741.5,"ySR":573.95,"xT1":424.9,"yT1":0,"xT2":1058.1,"yT2":0,"toosoon":0,"cond_shown":"randomdotsizeEA","ratio_trial":500,"smaller_num":"5","larger_num":"10","correct_side":1,"subjID":"paulavaleriabarbosahernandez18","gender":"1","age":"11","school":"sexto"},{"start_time":1551887720368,"click_time":1551887722753,"finger_time":1551887721054,"fix_duration":1033.4248499609284,"trial":23,"RT":686,"MT":1699,"sideResp":1,"stimulus":"img/250/equaldotanddens/L/7_Ratio_250_L_8_R_2.png","xmouse":[780,780,780,780,780,780,780,780,780,780,780,780,780,780,780,780,780,780,780,780,780,780,780,780,780,780,780,780,780,780,780,781,770,759,745,718,707,698,692,689,688,682,675,669,663,654,637,628,617,610,605,595,587,583,579,575,574,574,573,572,572,572,572,573,576,580,585,586,586,586,586,587,589,589,590,593,593,596,609,645,647,647,647,647,647,647,647,647,647,647,647,647,647,647,647,647,647,652,636,631,621,604,603,600,586,560,508,469,427,385,333,319,303,298,297,298,311,330,374,444],"ymouse":[643,643,643,643,643,643,643,643,643,643,643,643,643,643,643,643,643,643,643,643,643,643,643,643,643,643,643,643,643,643,643,639,618,594,562,491,464,435,413,398,387,373,363,356,347,338,318,302,285,276,271,264,253,247,242,234,230,228,226,224,222,219,218,215,211,207,204,204,204,204,204,204,204,204,204,214,217,222,233,258,259,259,259,259,259,259,259,259,259,259,259,259,259,259,259,259,259,267,270,271,271,270,270,269,264,250,205,160,100,35,0,0,0,0,0,0,0,11,40,70],"timestamp_mouse":[7,35,45,65,86,105,126,146,167,186,206,226,245,265,287,306,326,345,366,386,406,425,445,466,485,506,525,546,565,585,605,626,645,666,685,706,727,746,766,785,807,826,846,865,885,906,925,947,966,987,1005,1026,1046,1065,1085,1106,1125,1145,1166,1186,1207,1227,1246,1265,1286,1306,1325,1345,1366,1386,1405,1426,1445,1466,1485,1506,1526,1546,1565,1585,1606,1626,1646,1666,1686,1705,1725,1746,1766,1786,1805,1825,1845,1866,1886,1906,1925,1945,1966,1985,2007,2025,2046,2065,2086,2106,2126,2146,2166,2185,2206,2225,2247,2266,2285,2305,2325,2347,2365,2385],"xSR":741.5,"ySR":573.95,"xT1":424.9,"yT1":0,"xT2":1058.1,"yT2":0,"toosoon":0,"cond_shown":"equaldotanddens","ratio_trial":250,"smaller_num":"2","larger_num":"8","correct_side":1,"subjID":"paulavaleriabarbosahernandez18","gender":"1","age":"11","school":"sexto"},{"start_time":1551887726536,"click_time":1551887728314,"finger_time":1551887727453,"fix_duration":1059.548096106285,"trial":24,"RT":917,"MT":861,"sideResp":1,"stimulus":"img/750/equaldotanddens/L/9_Ratio_750_L_4_R_3.png","xmouse":[785,785,785,785,785,785,785,785,785,785,785,785,785,785,785,785,785,785,785,785,785,785,785,785,785,785,785,785,785,785,785,785,785,785,785,785,785,785,785,785,785,785,785,785,787,790,793,798,799,801,801,803,797,790,780,764,737,652,601,544,488,451,395,385,358,342,330,328,328,329,336,353,359,361,361,361,361,361,361,361,361,361,373,390,407,418,423,423,425],"ymouse":[601,601,601,601,601,601,601,601,601,601,601,601,601,601,601,601,601,601,601,601,601,601,601,601,601,601,601,601,601,601,601,601,601,601,601,601,601,601,601,601,601,601,601,599,578,558,538,501,485,468,450,438,410,391,368,336,295,184,123,58,0,0,0,0,0,0,0,0,6,21,43,72,79,80,80,80,80,80,80,80,80,80,80,78,76,74,74,74,74],"timestamp_mouse":[17,38,58,77,97,117,138,157,177,197,217,237,259,278,298,318,337,357,378,398,418,437,458,479,497,518,538,558,578,598,618,637,658,677,698,718,738,758,778,798,818,838,857,877,897,917,938,958,979,999,1017,1037,1058,1077,1098,1117,1138,1159,1178,1198,1218,1237,1259,1279,1297,1317,1338,1357,1377,1398,1418,1438,1457,1477,1498,1517,1537,1557,1578,1599,1618,1639,1657,1677,1697,1718,1737,1758,1778],"xSR":741.5,"ySR":573.95,"xT1":424.9,"yT1":0,"xT2":1058.1,"yT2":0,"toosoon":0,"cond_shown":"equaldotanddens","ratio_trial":750,"smaller_num":"3","larger_num":"4","correct_side":1,"subjID":"paulavaleriabarbosahernandez18","gender":"1","age":"11","school":"sexto"},{"start_time":1551887730146,"click_time":1551887730994,"finger_time":1551887730874,"fix_duration":772.2849323551058,"trial":25,"RT":728,"MT":120,"sideResp":1,"stimulus":"img/900/randomdotsizeEA/L/1_Ratio_900_L_10_R_9.png","xmouse":[798,798,798,798,798,798,798,798,798,798,798,798,798,798,798,798,798,798,798,798,798,798,798,798,798,798,798,798,798,798,798,798,798,798,798,798,778,753,721,678,632,581,514],"ymouse":[601,601,601,601,601,601,601,601,601,601,601,601,601,601,601,601,601,601,601,601,601,601,601,601,601,601,601,601,601,601,601,601,601,601,601,600,534,472,394,317,237,161,76],"timestamp_mouse":[8,27,48,68,88,107,127,148,167,188,208,227,247,268,288,307,329,348,368,389,407,428,448,468,488,508,527,547,568,588,608,627,647,667,687,709,728,747,768,789,808,827,848],"xSR":741.5,"ySR":573.95,"xT1":424.9,"yT1":0,"xT2":1058.1,"yT2":0,"toosoon":0,"cond_shown":"randomdotsizeEA","ratio_trial":900,"smaller_num":"9","larger_num":"10","correct_side":1,"subjID":"paulavaleriabarbosahernandez18","gender":"1","age":"11","school":"sexto"},{"start_time":1551887732186,"click_time":1551887732834,"finger_time":1551887732754,"fix_duration":370.66895353331665,"trial":26,"RT":568,"MT":80,"sideResp":1,"stimulus":"img/500/equaldotsize/L/7_Ratio_500_L_10_R_5.png","xmouse":[794,794,794,794,794,794,794,794,794,794,794,794,794,794,794,794,794,794,794,794,794,794,794,794,794,794,793,791,778,725,639,561,487],"ymouse":[632,632,632,632,632,632,632,632,632,632,632,632,632,632,632,632,632,632,632,632,632,632,632,632,632,632,627,614,571,440,283,170,64],"timestamp_mouse":[13,34,48,67,87,107,128,147,168,187,208,228,248,268,287,308,328,348,368,387,407,427,449,467,487,507,527,547,568,588,607,628,648],"xSR":741.5,"ySR":573.95,"xT1":424.9,"yT1":0,"xT2":1058.1,"yT2":0,"toosoon":0,"cond_shown":"equaldotsize","ratio_trial":500,"smaller_num":"5","larger_num":"10","correct_side":1,"subjID":"paulavaleriabarbosahernandez18","gender":"1","age":"11","school":"sexto"},{"start_time":1551887734405,"click_time":1551887735294,"finger_time":1551887734873,"fix_duration":250,"trial":27,"RT":468,"MT":421,"sideResp":1,"stimulus":"img/250/randomdotsizeEA/L/3_Ratio_250_L_8_R_2.png","xmouse":[815,815,815,815,815,815,815,815,815,815,815,815,815,815,815,815,815,815,815,815,815,813,805,788,751,727,693,653,591,562,552,549,547,544,539,534,531,529,518,513,513,513,513,513,506],"ymouse":[593,593,593,593,593,593,593,593,593,593,593,593,593,593,593,593,593,593,593,593,593,591,581,562,512,463,394,322,197,133,111,100,94,85,51,24,0,0,0,0,0,0,0,0,11],"timestamp_mouse":[8,30,48,69,89,109,128,150,169,189,209,228,250,268,288,308,328,349,368,389,409,428,450,468,489,510,530,549,569,588,608,628,648,668,689,709,729,748,769,789,809,830,850,869,889],"xSR":741.5,"ySR":573.95,"xT1":424.9,"yT1":0,"xT2":1058.1,"yT2":0,"toosoon":0,"cond_shown":"randomdotsizeEA","ratio_trial":250,"smaller_num":"2","larger_num":"8","correct_side":1,"subjID":"paulavaleriabarbosahernandez18","gender":"1","age":"11","school":"sexto"},{"start_time":1551887737226,"click_time":1551887738994,"finger_time":1551887738653,"fix_duration":1230.1064526430127,"trial":28,"RT":1427,"MT":341,"sideResp":1,"stimulus":"img/750/randomdotsizeEA/L/10_Ratio_750_L_4_R_3.png","xmouse":[772,772,772,773,773,773,773,773,773,773,773,773,773,773,773,773,773,773,773,773,773,773,773,773,773,773,773,773,773,773,773,773,773,773,773,773,773,773,773,773,773,773,773,773,773,773,773,773,773,773,773,773,773,773,773,773,773,773,773,773,773,773,773,773,773,773,773,773,773,773,773,766,738,717,698,681,663,632,614,601,592,591,590,588,578,570,562,554,516],"ymouse":[596,595,595,592,592,592,592,592,592,592,592,592,592,592,592,592,592,592,592,592,592,592,592,592,592,592,592,592,592,592,592,592,592,592,592,592,592,592,592,592,592,592,592,592,592,592,592,592,592,592,592,592,592,592,592,592,592,592,592,592,592,592,592,592,592,592,592,592,592,592,580,564,522,498,478,461,442,402,362,328,298,275,251,203,166,136,109,84,34],"timestamp_mouse":[9,30,48,68,88,108,128,147,167,187,208,228,248,267,287,309,327,347,369,387,407,428,448,467,488,508,528,547,567,587,607,627,647,668,688,708,727,747,769,788,807,827,847,868,888,908,927,947,968,987,1008,1028,1047,1067,1089,1108,1128,1147,1169,1188,1208,1227,1247,1269,1288,1308,1328,1347,1367,1388,1407,1427,1448,1468,1487,1508,1529,1548,1567,1588,1608,1627,1647,1668,1688,1707,1728,1747,1768],"xSR":741.5,"ySR":573.95,"xT1":424.9,"yT1":0,"xT2":1058.1,"yT2":0,"toosoon":0,"cond_shown":"randomdotsizeEA","ratio_trial":750,"smaller_num":"3","larger_num":"4","correct_side":1,"subjID":"paulavaleriabarbosahernandez18","gender":"1","age":"11","school":"sexto"},{"start_time":1551887743082,"click_time":1551887744194,"finger_time":1551887743895,"fix_duration":1307.4051202774183,"trial":29,"RT":813,"MT":299,"sideResp":2,"stimulus":"img/500/equaldotsize/R/12_Ratio_500_L_1_R_2.png","xmouse":[827,827,827,827,827,827,827,827,827,827,827,827,827,827,827,827,827,827,827,827,827,827,827,827,827,827,827,827,827,827,827,827,827,827,827,827,827,827,827,832,866,894,915,927,939,974,989,994,999,1004,1005,1005,1005,1006,1046,1069],"ymouse":[630,630,630,630,630,630,630,630,630,630,630,630,630,630,630,630,630,630,630,630,630,630,630,630,630,630,630,630,630,630,630,630,630,630,630,630,630,630,630,610,556,497,426,355,281,126,72,42,22,9,4,4,4,4,11,20],"timestamp_mouse":[23,32,53,72,92,113,131,151,172,191,212,232,252,273,291,312,331,351,372,392,412,432,451,471,491,512,532,552,572,592,612,632,652,671,691,711,733,751,771,791,813,833,852,871,891,912,931,951,972,991,1013,1031,1052,1071,1092,1112],"xSR":741.5,"ySR":573.95,"xT1":424.9,"yT1":0,"xT2":1058.1,"yT2":0,"toosoon":0,"cond_shown":"equaldotsize","ratio_trial":500,"smaller_num":"1","larger_num":"2","correct_side":2,"subjID":"paulavaleriabarbosahernandez18","gender":"1","age":"11","school":"sexto"},{"start_time":1551887745845,"click_time":1551887746935,"finger_time":1551887746694,"fix_duration":250,"trial":30,"RT":849,"MT":241,"sideResp":2,"stimulus":"img/750/equaldotsize/R/5_Ratio_750_L_15_R_20.png","xmouse":[807,807,807,807,807,807,807,807,807,807,807,807,807,807,807,807,807,807,807,807,807,807,807,807,807,807,807,807,807,807,807,807,807,807,807,807,807,807,807,807,814,824,903,950,987,1005,1017,1023,1032,1041,1053,1072,1120,1146,1157],"ymouse":[620,620,620,620,620,620,620,620,620,620,620,620,620,620,620,620,620,620,620,620,620,620,620,620,620,620,620,620,620,620,620,620,620,620,620,620,620,620,620,620,619,611,554,522,490,471,444,429,404,383,359,324,211,149,96],"timestamp_mouse":[9,29,48,70,89,108,128,148,168,188,209,229,248,268,288,310,330,349,368,388,408,428,448,469,489,509,530,549,570,590,608,628,648,669,689,709,730,748,768,788,808,828,849,869,888,908,929,948,968,988,1008,1029,1048,1068,1090],"xSR":741.5,"ySR":573.95,"xT1":424.9,"yT1":0,"xT2":1058.1,"yT2":0,"toosoon":0,"cond_shown":"equaldotsize","ratio_trial":750,"smaller_num":"15","larger_num":"20","correct_side":2,"subjID":"paulavaleriabarbosahernandez18","gender":"1","age":"11","school":"sexto"},{"start_time":1551887749941,"click_time":1551887753374,"finger_time":1551887752793,"fix_duration":727.6912953171412,"trial":31,"RT":2852,"MT":581,"sideResp":1,"stimulus":"img/900/equaldotsize/L/1_Ratio_900_L_10_R_9.png","xmouse":[781,781,781,781,781,781,781,781,781,781,781,781,781,781,781,781,781,781,781,781,781,781,781,781,781,781,781,781,781,781,781,781,781,781,781,781,781,781,781,781,781,781,781,781,781,781,781,781,781,781,781,781,781,781,781,781,781,781,781,781,781,781,781,781,781,781,781,781,781,781,781,781,781,781,781,781,781,781,781,781,781,781,781,781,781,781,781,781,781,781,781,781,781,781,781,781,781,781,781,781,781,781,781,781,781,781,781,781,781,781,781,781,781,781,781,781,781,781,781,781,781,781,781,781,781,781,781,781,781,781,781,781,781,781,781,781,781,781,781,781,781,781,761,705,650,594,552,456,391,337,285,248,195,181,181,181,184,232,267,291,306,313,321,329,334,335,340,343,354,378,413,469],"ymouse":[613,613,613,613,613,613,613,613,613,613,613,613,613,613,613,613,613,613,613,613,613,613,613,613,613,613,613,613,613,613,613,613,613,613,613,613,613,613,613,613,613,613,613,613,613,613,613,613,613,613,613,613,613,613,613,613,613,613,613,613,613,613,613,613,613,613,613,613,613,613,613,613,613,613,613,613,613,613,613,613,613,613,613,613,613,613,613,613,613,613,613,613,613,613,613,613,613,613,613,613,613,613,613,613,613,613,613,613,613,613,613,613,613,613,613,613,613,613,613,613,613,613,613,613,613,613,613,613,613,613,613,613,613,613,613,613,613,613,613,613,613,613,488,272,166,87,27,0,0,0,0,0,0,0,0,0,0,24,53,76,90,95,96,96,96,96,96,96,96,92,86,64],"timestamp_mouse":[13,34,53,73,92,113,133,153,173,192,212,232,252,273,292,313,334,353,372,393,413,433,454,472,493,513,534,554,573,592,612,633,652,673,692,714,733,753,773,792,813,833,852,874,893,912,933,952,973,993,1012,1033,1053,1073,1093,1112,1133,1153,1173,1192,1212,1233,1253,1273,1293,1314,1332,1352,1372,1393,1412,1433,1453,1474,1493,1513,1533,1553,1574,1594,1613,1634,1653,1672,1692,1712,1734,1752,1772,1793,1812,1832,1853,1873,1892,1914,1933,1953,1973,1993,2013,2032,2053,2073,2092,2112,2132,2152,2172,2193,2213,2233,2253,2273,2294,2313,2333,2353,2374,2392,2413,2434,2453,2472,2492,2513,2533,2553,2573,2593,2612,2634,2652,2672,2692,2713,2733,2753,2773,2793,2813,2832,2852,2873,2892,2913,2932,2953,2973,2993,3013,3032,3054,3073,3093,3112,3133,3153,3172,3192,3213,3232,3253,3272,3292,3312,3333,3352,3372,3392,3412,3433],"xSR":741.5,"ySR":573.95,"xT1":424.9,"yT1":0,"xT2":1058.1,"yT2":0,"toosoon":0,"cond_shown":"equaldotsize","ratio_trial":900,"smaller_num":"9","larger_num":"10","correct_side":1,"subjID":"paulavaleriabarbosahernandez18","gender":"1","age":"11","school":"sexto"},{"start_time":1551887756245,"click_time":1551887759374,"finger_time":1551887759013,"fix_duration":949.2137100646759,"trial":32,"RT":2768,"MT":361,"sideResp":1,"stimulus":"img/900/randomdotsizeEA/R/7_Ratio_900_L_9_R_10.png","xmouse":[836,836,836,836,836,836,836,836,836,836,836,836,836,836,836,836,836,836,836,836,836,836,836,836,836,836,836,836,836,836,836,836,836,836,836,836,836,836,836,836,836,836,836,836,836,836,836,836,836,836,836,836,836,836,836,836,836,836,836,836,836,836,836,836,836,836,836,836,836,836,836,836,836,836,836,836,836,836,836,836,836,836,836,836,836,836,836,836,836,836,836,836,836,836,836,836,836,836,836,836,836,836,836,836,836,836,836,836,836,836,836,836,836,836,836,836,836,836,836,836,836,836,836,836,836,836,836,836,836,836,836,836,836,832,828,819,809,785,773,764,758,753,740,734,726,719,711,685,676,665,650,628,576,556,543,531,506],"ymouse":[644,644,644,644,644,644,644,644,644,644,644,644,644,644,644,644,644,644,644,644,644,644,644,644,644,644,644,644,644,644,644,644,644,644,644,644,644,644,644,644,644,644,644,644,644,644,644,644,644,644,644,644,644,644,644,644,644,644,644,644,644,644,644,644,644,644,644,644,644,644,644,644,644,644,644,644,644,644,644,644,644,644,644,644,644,644,644,644,644,644,644,644,644,644,644,644,644,644,644,644,644,644,644,644,644,644,644,644,644,644,644,644,644,644,644,644,644,644,644,644,644,644,644,644,644,644,644,644,644,644,644,644,644,642,637,626,612,578,559,540,520,499,461,439,412,388,360,290,270,248,222,193,134,112,96,84,61],"timestamp_mouse":[10,29,49,68,88,109,129,149,170,189,209,228,248,268,289,309,329,349,368,388,408,429,449,469,488,508,528,549,568,588,609,629,649,670,689,708,728,749,769,788,808,828,849,868,889,908,930,948,970,989,1010,1028,1049,1068,1088,1109,1129,1149,1169,1189,1209,1229,1248,1268,1289,1308,1328,1349,1370,1389,1409,1429,1450,1469,1489,1508,1528,1548,1569,1589,1608,1628,1649,1669,1689,1709,1729,1749,1770,1789,1809,1828,1848,1868,1888,1908,1929,1949,1969,1989,2009,2028,2048,2069,2089,2109,2129,2148,2169,2188,2208,2229,2249,2269,2289,2309,2328,2348,2369,2389,2409,2429,2449,2469,2489,2508,2528,2550,2569,2588,2609,2629,2648,2670,2688,2708,2728,2748,2768,2789,2809,2828,2849,2868,2888,2908,2929,2948,2968,2989,3008,3028,3049,3069,3088,3108,3129],"xSR":741.5,"ySR":573.95,"xT1":424.9,"yT1":0,"xT2":1058.1,"yT2":0,"toosoon":0,"cond_shown":"randomdotsizeEA","ratio_trial":900,"smaller_num":"9","larger_num":"10","correct_side":2,"subjID":"paulavaleriabarbosahernandez18","gender":"1","age":"11","school":"sexto"},{"start_time":1551887772559,"click_time":1551887774353,"finger_time":1551887774094,"fix_duration":864.4694812526375,"trial":33,"RT":1535,"MT":259,"sideResp":1,"stimulus":"img/500/equaldotsize/L/13_Ratio_500_L_12_R_6.png","xmouse":[825,825,825,825,825,825,825,825,825,825,825,825,825,825,825,825,825,825,825,825,825,825,825,825,825,825,825,825,825,825,825,825,825,825,825,825,825,825,825,825,825,825,825,825,825,825,825,825,825,825,825,825,825,825,825,825,825,825,825,825,825,825,825,825,825,825,825,825,825,825,825,825,825,825,823,819,797,786,773,756,689,643,620,598,580,561,539,528,513,502],"ymouse":[598,598,598,598,598,598,598,598,598,598,598,598,598,598,598,598,598,598,598,598,598,598,598,598,598,598,598,598,598,598,598,598,598,598,598,598,598,598,598,598,598,598,598,598,598,598,598,598,598,598,598,598,598,598,598,598,598,598,598,598,598,598,598,598,598,598,598,598,598,598,598,598,598,598,592,585,548,529,509,485,405,351,322,291,259,225,165,137,104,77],"timestamp_mouse":[26,34,55,76,95,114,134,154,174,195,215,235,255,274,295,314,335,355,374,394,415,435,454,474,494,514,535,555,574,594,614,634,655,675,694,715,734,754,774,794,815,835,854,874,894,914,935,955,974,994,1014,1034,1055,1075,1094,1114,1134,1155,1175,1196,1215,1234,1254,1274,1294,1315,1335,1354,1374,1394,1414,1435,1455,1475,1494,1514,1535,1554,1575,1594,1615,1634,1654,1674,1694,1714,1734,1754,1774,1794],"xSR":741.5,"ySR":573.95,"xT1":424.9,"yT1":0,"xT2":1058.1,"yT2":0,"toosoon":0,"cond_shown":"equaldotsize","ratio_trial":500,"smaller_num":"6","larger_num":"12","correct_side":1,"subjID":"paulavaleriabarbosahernandez18","gender":"1","age":"11","school":"sexto"},{"start_time":1551887779537,"click_time":1551887780753,"finger_time":1551887780394,"fix_duration":1262.8618535679193,"trial":34,"RT":857,"MT":359,"sideResp":1,"stimulus":"img/500/randomdotsizeEA/L/8_Ratio_500_L_8_R_4.png","xmouse":[807,807,807,807,807,807,807,807,807,807,807,807,807,807,807,807,807,807,807,807,806,800,787,784,782,781,780,779,779,779,779,779,779,779,779,779,779,779,779,779,779,779,774,763,748,731,693,667,631,591,558,532,522,510,492,464,439,426,426,426,428],"ymouse":[610,610,610,610,610,610,610,610,610,610,610,610,610,610,610,610,610,610,610,610,610,607,591,585,580,577,575,574,574,574,574,574,574,574,574,574,574,574,574,574,574,574,550,510,465,410,265,178,99,28,0,0,0,0,0,0,0,0,0,0,6],"timestamp_mouse":[17,37,57,77,96,116,136,156,177,197,216,236,256,276,296,317,337,356,376,396,416,436,456,476,498,518,536,556,576,596,617,637,657,676,696,716,736,757,777,796,816,836,857,876,896,918,937,956,977,998,1017,1037,1056,1076,1096,1116,1137,1158,1177,1196,1216],"xSR":741.5,"ySR":573.95,"xT1":424.9,"yT1":0,"xT2":1058.1,"yT2":0,"toosoon":0,"cond_shown":"randomdotsizeEA","ratio_trial":500,"smaller_num":"4","larger_num":"8","correct_side":1,"subjID":"paulavaleriabarbosahernandez18","gender":"1","age":"11","school":"sexto"},{"start_time":1551887789991,"click_time":1551887795574,"finger_time":1551887795333,"fix_duration":916.2112850413514,"trial":35,"RT":5342,"MT":241,"sideResp":2,"stimulus":"img/750/equaldotsize/R/7_Ratio_750_L_3_R_4.png","xmouse":[814,814,814,814,814,814,814,814,814,814,814,814,814,814,814,814,814,814,814,814,814,814,814,814,814,814,814,814,814,814,814,814,814,814,814,814,814,814,814,814,814,814,814,814,814,814,814,814,814,814,814,814,814,814,814,814,814,814,814,814,814,814,814,814,814,814,814,814,814,814,814,814,814,814,814,814,814,814,814,814,814,814,814,814,814,814,814,814,814,814,814,814,814,814,814,814,814,814,814,814,814,814,814,814,814,814,814,814,814,814,814,814,814,814,814,814,814,814,814,814,814,814,814,814,814,814,814,814,814,814,814,814,814,814,814,814,814,814,814,814,814,814,814,814,814,814,814,814,814,814,814,814,814,814,814,814,814,814,814,814,814,814,814,814,814,814,814,814,814,814,814,814,814,814,814,814,814,814,814,814,814,814,814,814,814,814,814,814,814,814,814,814,814,814,814,814,814,814,814,814,814,814,814,814,814,814,814,814,814,814,814,814,814,814,814,814,814,814,814,814,814,814,814,814,814,814,814,814,814,814,814,814,814,814,814,814,814,814,814,814,814,814,814,814,814,814,814,814,814,814,814,814,814,814,814,814,814,814,814,814,814,814,814,814,814,811,803,790,775,747,745,759,784,824,912,941,953,958,967,1068],"ymouse":[645,645,645,645,645,645,645,645,645,645,645,645,645,645,645,645,645,645,645,645,645,645,645,645,645,645,645,645,645,645,645,645,645,645,645,645,645,645,645,645,645,645,645,645,645,645,645,645,645,645,645,645,645,645,645,645,645,645,645,645,645,645,645,645,645,645,645,645,645,645,645,645,645,645,645,645,645,645,645,645,645,645,645,645,645,645,645,645,645,645,645,645,645,645,645,645,645,645,645,645,645,645,645,645,645,645,645,645,645,645,645,645,645,645,645,645,645,645,645,645,645,645,645,645,645,645,645,645,645,645,645,645,645,645,645,645,645,645,645,645,645,645,645,645,645,645,645,645,645,645,645,645,645,645,645,645,645,645,645,645,645,645,645,645,645,645,645,645,645,645,645,645,645,645,645,645,645,645,645,645,645,645,645,645,645,645,645,645,645,645,645,645,645,645,645,645,645,645,645,645,645,645,645,645,645,645,645,645,645,645,645,645,645,645,645,645,645,645,645,645,645,645,645,645,645,645,645,645,645,645,645,645,645,645,645,645,645,645,645,645,645,645,645,645,645,645,645,645,645,645,645,645,645,645,645,645,645,645,645,645,645,645,645,645,646,628,594,553,506,424,401,388,373,343,269,234,208,188,168,93],"timestamp_mouse":[7,27,42,62,82,103,122,142,163,183,203,223,242,262,282,302,324,342,362,382,403,423,442,462,482,503,522,542,562,583,603,622,642,662,682,702,722,743,763,783,803,824,843,862,882,902,922,943,963,982,1002,1022,1043,1062,1084,1103,1123,1142,1162,1184,1203,1223,1242,1262,1282,1302,1323,1342,1363,1383,1402,1422,1442,1463,1482,1502,1523,1543,1562,1582,1603,1623,1642,1662,1683,1702,1722,1742,1763,1783,1803,1822,1842,1862,1882,1903,1923,1942,1963,1983,2003,2022,2042,2064,2083,2103,2122,2142,2162,2183,2203,2224,2243,2262,2283,2303,2324,2342,2363,2383,2402,2422,2442,2462,2483,2503,2523,2542,2563,2582,2602,2622,2642,2662,2682,2703,2723,2742,2762,2784,2802,2822,2843,2864,2882,2903,2922,2942,2962,2982,3003,3022,3043,3062,3082,3102,3122,3142,3163,3183,3203,3223,3243,3262,3282,3303,3323,3343,3363,3382,3402,3422,3442,3462,3483,3503,3523,3542,3563,3583,3602,3623,3642,3663,3683,3703,3722,3743,3763,3783,3802,3822,3843,3863,3882,3903,3922,3942,3963,3983,4003,4022,4043,4063,4083,4102,4122,4142,4163,4182,4203,4223,4242,4262,4282,4302,4323,4343,4363,4382,4402,4422,4443,4463,4482,4502,4523,4543,4562,4582,4602,4622,4642,4662,4682,4702,4722,4743,4762,4782,4802,4823,4843,4863,4882,4902,4922,4942,4963,4983,5003,5022,5042,5062,5082,5102,5124,5142,5162,5184,5202,5222,5242,5262,5283,5303,5322,5342,5363,5383,5402,5422,5442,5463,5483,5502,5523,5542,5562,5583],"xSR":741.5,"ySR":573.95,"xT1":424.9,"yT1":0,"xT2":1058.1,"yT2":0,"toosoon":0,"cond_shown":"equaldotsize","ratio_trial":750,"smaller_num":"3","larger_num":"4","correct_side":2,"subjID":"paulavaleriabarbosahernandez18","gender":"1","age":"11","school":"sexto"},{"start_time":1551887798698,"click_time":1551887802453,"finger_time":1551887799393,"fix_duration":343.8063632972542,"trial":36,"RT":695,"MT":3060,"sideResp":1,"stimulus":"img/500/equaldotanddens/L/13_Ratio_500_L_12_R_6.png","xmouse":[790,790,790,790,790,790,790,790,790,790,790,790,790,790,790,790,790,790,790,790,790,790,790,790,790,790,790,790,790,790,790,790,789,784,752,717,685,655,628,601,598,597,597,597,597,597,597,597,597,597,597,597,597,597,597,597,597,597,606,649,655,656,656,656,656,656,656,656,656,656,656,656,656,656,656,656,656,656,656,656,656,656,656,656,656,639,618,604,602,602,602,602,602,602,602,602,602,602,602,602,602,602,602,602,602,602,602,602,602,602,602,602,602,602,602,602,602,602,602,602,602,602,602,602,602,602,602,602,602,602,602,602,602,602,602,602,602,597,536,509,496,491,488,481,478,476,475,474,472,470,469,468,467,465,462,462,462,460,460,455,447,437,431,428,428,424,413,408,405,405,405,405,405,405,405,405,405,405,422,443,457,459,459,459,460,460,459,447],"ymouse":[608,608,608,608,608,608,608,608,608,608,608,608,608,608,608,608,608,608,608,608,608,608,608,608,608,608,608,608,608,608,608,608,608,604,545,484,426,373,327,274,256,241,230,223,223,223,223,223,223,223,223,223,223,223,223,223,223,225,265,394,414,415,415,415,415,415,415,415,415,415,415,415,415,415,415,415,415,415,415,415,415,415,415,415,415,418,425,431,432,432,432,432,432,432,432,432,432,432,432,432,432,432,432,432,432,432,432,432,432,432,432,432,432,432,432,432,432,432,432,432,432,432,432,432,432,432,432,432,432,432,432,432,432,432,432,432,432,431,395,381,373,369,366,351,341,337,333,330,323,316,310,304,296,287,279,278,277,274,272,264,252,239,229,225,225,222,215,213,211,211,211,211,211,211,211,211,211,211,196,183,174,173,173,173,170,164,122,53],"timestamp_mouse":[16,38,55,75,95,115,135,155,175,196,215,236,255,275,295,316,335,355,375,395,416,436,456,475,495,515,535,556,576,595,617,635,656,675,695,715,735,757,775,796,815,837,855,876,895,915,935,955,975,995,1016,1035,1055,1076,1095,1115,1136,1155,1176,1196,1216,1236,1255,1276,1297,1315,1335,1355,1376,1395,1417,1436,1455,1476,1496,1516,1536,1555,1576,1596,1616,1636,1655,1676,1695,1716,1735,1756,1777,1796,1815,1835,1855,1877,1896,1916,1935,1955,1975,1996,2015,2035,2055,2075,2095,2116,2136,2155,2175,2195,2215,2235,2256,2276,2296,2315,2335,2356,2377,2396,2415,2435,2455,2476,2495,2516,2535,2555,2576,2596,2615,2635,2655,2675,2695,2716,2736,2755,2775,2795,2815,2836,2857,2876,2895,2915,2935,2955,2976,2995,3015,3035,3055,3075,3095,3116,3135,3155,3176,3196,3216,3235,3256,3275,3295,3316,3335,3355,3376,3395,3415,3435,3456,3477,3496,3515,3535,3555,3575,3595,3615,3635,3656,3676,3695,3715,3735,3755],"xSR":741.5,"ySR":573.95,"xT1":424.9,"yT1":0,"xT2":1058.1,"yT2":0,"toosoon":0,"cond_shown":"equaldotanddens","ratio_trial":500,"smaller_num":"6","larger_num":"12","correct_side":1,"subjID":"paulavaleriabarbosahernandez18","gender":"1","age":"11","school":"sexto"},{"start_time":1551887806063,"click_time":1551887807174,"finger_time":1551887806113,"fix_duration":307.3505167718827,"trial":37,"RT":50,"MT":1061,"sideResp":2,"stimulus":"img/250/equaldotsize/R/11_Ratio_250_L_3_R_12.png","xmouse":[784,760,737,715,699,693,693,693,693,693,693,693,693,693,693,693,693,693,693,694,710,717,727,737,749,774,776,776,776,776,776,777,782,790,802,844,884,902,915,924,939,947,957,969,982,1004,1017,1021,1023,1025,1027,1029,1030,1033,1043,1078],"ymouse":[628,628,633,636,639,639,639,639,639,639,639,639,639,639,639,639,639,639,639,639,637,634,630,626,624,624,624,624,624,624,624,615,587,527,456,317,240,215,199,186,162,147,131,114,98,62,50,48,47,47,47,47,47,47,47,49],"timestamp_mouse":[10,39,50,71,92,111,131,150,170,191,212,231,250,270,290,311,330,350,370,390,410,430,450,471,490,511,531,550,570,591,611,631,651,670,690,711,731,755,772,790,811,831,850,870,891,910,930,950,971,990,1011,1031,1052,1071,1091,1111],"xSR":741.5,"ySR":573.95,"xT1":424.9,"yT1":0,"xT2":1058.1,"yT2":0,"toosoon":0,"cond_shown":"equaldotsize","ratio_trial":250,"smaller_num":"3","larger_num":"12","correct_side":2,"subjID":"paulavaleriabarbosahernandez18","gender":"1","age":"11","school":"sexto"},{"start_time":1551887809801,"click_time":1551887810774,"finger_time":1551887810393,"fix_duration":1126.3883684905775,"trial":38,"RT":592,"MT":381,"sideResp":1,"stimulus":"img/900/randomdotsizeEA/R/11_Ratio_900_L_18_R_20.png","xmouse":[775,775,775,775,775,775,775,775,775,775,775,775,775,775,775,775,775,775,775,775,775,775,775,775,775,775,767,761,751,704,668,647,632,611,601,594,588,584,571,560,555,552,546,538,538,536,530,522,493],"ymouse":[639,639,639,639,639,639,639,639,639,639,639,639,639,639,639,639,639,639,639,639,639,639,639,639,639,639,634,629,619,575,544,524,509,484,470,458,444,431,399,370,350,331,311,264,239,211,182,152,90],"timestamp_mouse":[13,36,52,72,92,114,132,152,173,192,213,233,253,272,292,314,333,352,373,394,412,434,452,473,492,513,532,552,572,592,612,633,654,673,693,712,732,753,773,792,813,834,854,873,892,914,933,953,973],"xSR":741.5,"ySR":573.95,"xT1":424.9,"yT1":0,"xT2":1058.1,"yT2":0,"toosoon":0,"cond_shown":"randomdotsizeEA","ratio_trial":900,"smaller_num":"18","larger_num":"20","correct_side":2,"subjID":"paulavaleriabarbosahernandez18","gender":"1","age":"11","school":"sexto"},{"start_time":1551887813205,"click_time":1551887814593,"finger_time":1551887814074,"fix_duration":1291.669635258739,"trial":39,"RT":869,"MT":519,"sideResp":1,"stimulus":"img/900/equaldotanddens/R/14_Ratio_900_L_18_R_20.png","xmouse":[788,788,788,788,788,788,788,788,788,788,788,788,788,788,788,788,788,788,788,788,788,788,788,788,788,788,788,788,788,788,788,788,788,788,788,788,788,788,788,788,788,777,759,714,694,683,677,670,659,653,650,645,639,619,599,577,553,532,497,481,478,477,477,475,474,472,471,470,469,469],"ymouse":[638,638,638,638,638,638,638,638,638,638,638,638,638,638,638,638,638,638,638,638,638,638,638,638,638,638,638,638,638,638,638,638,638,638,638,638,638,638,638,638,638,626,603,537,503,480,459,441,417,404,394,380,361,319,292,261,235,213,185,174,172,172,172,165,159,152,144,132,114,97],"timestamp_mouse":[8,30,49,68,88,109,129,149,168,188,208,228,248,268,289,310,329,350,369,388,408,429,448,468,488,508,528,548,568,589,609,629,648,668,688,709,729,748,768,788,808,829,849,869,888,908,928,948,969,988,1009,1030,1048,1069,1089,1108,1128,1149,1169,1188,1209,1229,1248,1268,1288,1309,1328,1349,1369,1388],"xSR":741.5,"ySR":573.95,"xT1":424.9,"yT1":0,"xT2":1058.1,"yT2":0,"toosoon":0,"cond_shown":"equaldotanddens","ratio_trial":900,"smaller_num":"18","larger_num":"20","correct_side":2,"subjID":"paulavaleriabarbosahernandez18","gender":"1","age":"11","school":"sexto"},{"start_time":1551887815742,"click_time":1551887816913,"finger_time":1551887816573,"fix_duration":428.2531738460195,"trial":40,"RT":831,"MT":340,"sideResp":2,"stimulus":"img/900/randomdotsizeEA/L/8_Ratio_900_L_20_R_18.png","xmouse":[813,813,813,813,813,813,813,813,813,813,813,813,813,813,813,813,813,810,795,778,768,765,765,765,765,765,765,765,765,765,765,765,765,766,767,769,770,770,770,770,773,785,803,821,852,886,972,1006,1034,1051,1065,1088,1098,1101,1101,1101,1101,1101,1102],"ymouse":[626,626,626,626,626,626,626,626,626,626,626,626,626,626,626,626,626,621,612,600,594,593,593,593,593,593,593,593,593,593,593,593,593,595,597,598,599,599,599,599,589,562,528,495,453,413,320,280,239,206,183,143,117,112,109,109,109,102,90],"timestamp_mouse":[12,32,52,71,91,112,132,152,172,191,211,232,251,271,291,312,332,351,372,391,411,431,451,471,491,511,532,551,571,592,612,631,651,672,691,711,731,751,771,791,813,831,851,871,893,911,932,951,971,992,1011,1032,1051,1072,1091,1112,1132,1151,1171],"xSR":741.5,"ySR":573.95,"xT1":424.9,"yT1":0,"xT2":1058.1,"yT2":0,"toosoon":0,"cond_shown":"randomdotsizeEA","ratio_trial":900,"smaller_num":"18","larger_num":"20","correct_side":1,"subjID":"paulavaleriabarbosahernandez18","gender":"1","age":"11","school":"sexto"},{"start_time":1551887818790,"click_time":1551887820016,"finger_time":1551887819475,"fix_duration":833.0508661188575,"trial":41,"RT":685,"MT":541,"sideResp":1,"stimulus":"img/500/randomdotsizeEA/L/13_Ratio_500_L_12_R_6.png","xmouse":[786,786,782,776,769,759,758,758,758,758,758,758,758,758,758,758,758,758,758,758,758,758,758,758,758,758,758,758,758,758,758,758,758,752,743,737,725,720,713,699,691,678,668,657,626,609,586,564,536,518,510,510,510,510,510,510,510,510,510,510,510,506],"ymouse":[591,591,590,590,590,590,590,590,590,590,590,590,590,590,590,590,590,590,590,590,590,590,590,590,590,590,590,590,590,590,590,590,590,579,551,530,506,483,458,409,382,333,296,256,174,131,86,49,10,0,0,0,0,0,0,0,0,0,0,0,0,2],"timestamp_mouse":[7,30,46,66,86,106,125,145,166,185,205,225,245,266,285,305,326,345,365,385,406,425,445,465,485,506,525,545,565,586,606,625,646,666,685,706,725,746,767,785,805,825,845,866,885,905,925,945,965,986,1006,1025,1045,1065,1086,1105,1126,1146,1165,1187,1206,1225],"xSR":741.5,"ySR":573.95,"xT1":424.9,"yT1":0,"xT2":1058.1,"yT2":0,"toosoon":0,"cond_shown":"randomdotsizeEA","ratio_trial":500,"smaller_num":"6","larger_num":"12","correct_side":1,"subjID":"paulavaleriabarbosahernandez18","gender":"1","age":"11","school":"sexto"},{"start_time":1551887822074,"click_time":1551887823475,"finger_time":1551887823037,"fix_duration":1257.161748855122,"trial":42,"RT":963,"MT":438,"sideResp":1,"stimulus":"img/900/equaldotanddens/L/2_Ratio_900_L_20_R_18.png","xmouse":[801,801,801,801,801,801,801,801,801,801,801,801,801,801,801,801,801,801,801,801,801,801,801,801,801,801,801,801,801,801,801,801,801,801,801,801,801,801,801,801,801,801,791,777,768,757,750,747,744,742,740,738,733,721,702,621,554,509,463,424,396,394,393,393,393,393,393,393,402,416,429],"ymouse":[625,625,625,625,625,625,625,625,625,625,625,625,625,625,625,625,625,625,625,625,625,625,625,625,625,625,625,625,625,625,625,625,625,625,625,625,625,625,625,625,625,625,622,613,606,594,585,580,573,569,556,546,529,505,467,345,256,203,151,112,85,82,80,80,80,80,80,80,79,78,77],"timestamp_mouse":[6,31,41,61,81,101,123,141,161,181,201,221,241,262,282,301,321,341,361,381,402,422,442,462,481,501,521,541,561,582,601,621,641,661,681,701,721,741,761,781,801,822,843,862,882,902,922,941,963,981,1002,1021,1042,1061,1081,1102,1121,1141,1162,1183,1201,1221,1241,1261,1281,1301,1322,1341,1361,1381,1401],"xSR":741.5,"ySR":573.95,"xT1":424.9,"yT1":0,"xT2":1058.1,"yT2":0,"toosoon":0,"cond_shown":"equaldotanddens","ratio_trial":900,"smaller_num":"18","larger_num":"20","correct_side":1,"subjID":"paulavaleriabarbosahernandez18","gender":"1","age":"11","school":"sexto"},{"start_time":1551887824795,"click_time":1551887826176,"finger_time":1551887825475,"fix_duration":318.9177691069317,"trial":43,"RT":680,"MT":701,"sideResp":2,"stimulus":"img/250/equaldotanddens/R/13_Ratio_250_L_2_R_8.png","xmouse":[777,779,780,780,782,782,782,782,782,782,782,782,782,782,782,782,782,782,782,782,782,782,782,782,782,782,782,782,782,782,782,782,782,785,800,811,819,823,827,842,857,868,875,884,903,912,919,931,945,974,991,1002,1017,1030,1038,1050,1059,1063,1067,1070,1075,1076,1076,1076,1076,1076,1076,1076,1077,1088],"ymouse":[589,593,595,599,600,600,600,600,600,600,600,600,600,600,600,600,600,600,600,600,600,600,600,600,600,600,600,600,600,600,600,600,595,583,541,517,492,467,441,386,336,305,282,262,241,234,230,224,217,196,180,170,156,143,136,129,126,124,120,118,110,109,109,109,109,109,109,109,106,87],"timestamp_mouse":[7,25,41,62,80,100,120,140,160,180,200,220,240,260,280,300,320,340,360,380,400,420,440,460,481,500,520,540,560,580,601,620,642,661,680,700,720,741,760,781,800,821,840,860,880,900,921,940,960,981,1000,1020,1041,1062,1081,1100,1120,1140,1160,1181,1201,1220,1240,1260,1280,1300,1321,1340,1360,1381],"xSR":741.5,"ySR":573.95,"xT1":424.9,"yT1":0,"xT2":1058.1,"yT2":0,"toosoon":0,"cond_shown":"equaldotanddens","ratio_trial":250,"smaller_num":"2","larger_num":"8","correct_side":2,"subjID":"paulavaleriabarbosahernandez18","gender":"1","age":"11","school":"sexto"},{"start_time":1551887827974,"click_time":1551887831275,"finger_time":1551887828895,"fix_duration":797.3727124943683,"trial":44,"RT":921,"MT":2380,"sideResp":2,"stimulus":"img/900/randomdotsizeEA/R/3_Ratio_900_L_9_R_10.png","xmouse":[813,813,813,813,813,813,813,813,813,813,813,813,813,813,813,813,813,813,813,813,813,813,813,813,813,813,813,813,813,813,813,813,813,813,811,805,803,803,803,803,803,803,803,803,803,803,803,803,802,802,802,802,802,799,792,754,738,727,721,719,719,719,719,719,719,721,722,722,723,726,752,764,772,778,784,790,790,790,790,790,790,790,790,790,790,790,790,790,790,790,790,790,790,790,790,784,762,761,761,761,761,761,761,761,761,761,761,761,761,761,761,761,761,761,761,761,761,761,761,764,779,796,810,832,867,1004,1107,1217,1315,1390,1431,1433,1433,1428,1414,1364,1344,1331,1328,1326,1325,1324,1320,1314,1304,1270,1243,1216,1202,1202,1202,1202,1198,1186,1177,1174,1174,1175,1176,1177,1177,1176,1176,1174,1166,1147],"ymouse":[619,619,619,619,619,619,619,619,619,619,619,619,619,619,619,619,619,619,619,619,619,619,619,619,619,619,619,619,619,619,619,619,619,619,623,640,643,643,643,643,643,643,643,643,628,587,560,542,533,533,533,533,532,514,478,360,308,272,250,243,243,243,243,243,242,242,242,242,242,243,249,252,254,256,256,259,259,259,259,259,259,259,259,259,259,259,259,259,259,259,259,252,252,252,252,247,231,231,231,231,231,231,231,231,231,231,231,231,231,231,230,230,230,230,230,230,230,222,214,206,189,181,175,170,165,162,160,152,137,119,98,95,95,84,65,15,0,0,0,0,0,0,0,2,4,6,6,6,7,7,7,7,7,8,11,15,18,21,24,27,32,40,41,41,41,41],"timestamp_mouse":[6,31,43,61,81,102,121,141,161,181,201,223,241,261,283,302,321,341,361,381,401,421,441,461,481,501,522,542,561,582,601,621,642,661,682,703,723,741,761,781,801,821,841,861,882,901,921,941,961,981,1001,1022,1041,1063,1081,1101,1122,1141,1163,1181,1202,1221,1241,1261,1282,1302,1322,1341,1362,1381,1402,1421,1441,1461,1481,1501,1521,1541,1562,1581,1602,1621,1641,1661,1682,1703,1721,1742,1761,1781,1801,1821,1841,1862,1881,1901,1922,1942,1961,1981,2001,2022,2042,2063,2083,2102,2122,2143,2162,2181,2201,2222,2241,2262,2281,2301,2321,2343,2361,2381,2401,2421,2442,2461,2482,2502,2521,2541,2561,2582,2601,2621,2641,2661,2682,2702,2721,2742,2761,2782,2802,2821,2841,2862,2881,2901,2921,2942,2962,2981,3001,3022,3041,3062,3081,3101,3121,3141,3161,3181,3201,3221,3241,3261,3281,3301],"xSR":741.5,"ySR":573.95,"xT1":424.9,"yT1":0,"xT2":1058.1,"yT2":0,"toosoon":0,"cond_shown":"randomdotsizeEA","ratio_trial":900,"smaller_num":"9","larger_num":"10","correct_side":2,"subjID":"paulavaleriabarbosahernandez18","gender":"1","age":"11","school":"sexto"},{"start_time":1551887834399,"click_time":1551887835337,"finger_time":1551887834976,"fix_duration":1400.202390198363,"trial":45,"RT":577,"MT":361,"sideResp":1,"stimulus":"img/500/randomdotsizeEA/L/8_Ratio_500_L_8_R_4.png","xmouse":[793,793,793,793,793,793,793,793,793,793,793,793,793,793,793,793,793,793,793,793,793,793,793,793,793,784,779,769,741,713,697,679,667,643,634,625,617,610,597,586,574,557,542,534,515,505,497],"ymouse":[643,643,643,643,643,643,643,643,643,643,643,643,643,643,643,643,643,643,643,643,643,643,643,643,643,632,625,611,573,538,519,500,488,467,460,454,446,439,415,389,363,325,283,252,164,107,44],"timestamp_mouse":[24,36,56,76,96,117,138,156,177,196,216,237,256,276,296,316,336,356,376,396,416,436,456,476,496,517,538,557,577,596,616,638,658,676,696,716,736,756,777,796,816,836,858,876,896,916,937],"xSR":741.5,"ySR":573.95,"xT1":424.9,"yT1":0,"xT2":1058.1,"yT2":0,"toosoon":0,"cond_shown":"randomdotsizeEA","ratio_trial":500,"smaller_num":"4","larger_num":"8","correct_side":1,"subjID":"paulavaleriabarbosahernandez18","gender":"1","age":"11","school":"sexto"},{"start_time":1551887840397,"click_time":1551887841815,"finger_time":1551887841155,"fix_duration":780.3770623661023,"trial":46,"RT":758,"MT":660,"sideResp":1,"stimulus":"img/900/equaldotanddens/L/10_Ratio_900_L_20_R_18.png","xmouse":[781,781,781,781,781,781,781,781,781,781,781,781,781,781,781,781,781,781,781,781,781,781,781,781,781,781,781,781,781,781,781,781,781,781,781,775,770,761,766,779,781,781,781,781,779,776,774,770,750,731,713,704,702,694,688,678,673,664,648,636,617,599,588,577,575,574,569,561,549,535,518],"ymouse":[618,618,618,618,618,618,618,618,618,618,618,618,618,618,618,618,618,618,618,618,618,618,618,618,618,618,618,618,618,618,618,618,618,618,618,595,578,536,456,421,398,374,358,335,325,316,311,305,275,246,219,202,191,157,130,97,74,57,41,39,39,39,39,39,39,39,39,39,39,39,39],"timestamp_mouse":[28,39,58,78,98,118,138,159,178,199,218,238,258,278,298,319,338,358,378,398,418,438,458,479,498,519,538,558,578,598,619,639,658,678,698,718,740,758,779,798,818,839,859,878,898,918,938,959,979,998,1018,1038,1059,1078,1098,1118,1138,1158,1178,1199,1218,1238,1258,1278,1298,1319,1339,1358,1378,1398,1418],"xSR":741.5,"ySR":573.95,"xT1":424.9,"yT1":0,"xT2":1058.1,"yT2":0,"toosoon":0,"cond_shown":"equaldotanddens","ratio_trial":900,"smaller_num":"18","larger_num":"20","correct_side":1,"subjID":"paulavaleriabarbosahernandez18","gender":"1","age":"11","school":"sexto"},{"start_time":1551887845961,"click_time":1551887847057,"finger_time":1551887846795,"fix_duration":923.144587971485,"trial":47,"RT":834,"MT":262,"sideResp":2,"stimulus":"img/250/randomdotsizeEA/R/12_Ratio_250_L_5_R_20.png","xmouse":[783,783,783,783,783,783,783,783,783,783,783,783,783,783,783,783,783,783,783,783,783,783,783,783,783,783,783,783,783,783,783,783,783,783,783,783,783,783,785,787,793,816,841,862,886,907,949,971,990,1008,1030,1040,1051,1057,1060],"ymouse":[645,645,645,645,645,645,645,645,645,645,645,645,645,645,645,645,645,645,645,645,645,645,645,645,645,645,645,645,645,645,645,645,645,645,645,645,645,645,637,630,613,569,526,491,456,419,333,294,255,223,169,147,115,94,74],"timestamp_mouse":[14,34,54,75,96,114,134,154,174,194,214,234,254,274,294,315,334,354,374,395,414,434,455,475,494,516,534,554,574,594,614,634,654,675,694,714,734,754,774,794,815,834,854,875,896,914,934,954,974,994,1015,1035,1054,1076,1095],"xSR":741.5,"ySR":573.95,"xT1":424.9,"yT1":0,"xT2":1058.1,"yT2":0,"toosoon":0,"cond_shown":"randomdotsizeEA","ratio_trial":250,"smaller_num":"5","larger_num":"20","correct_side":2,"subjID":"paulavaleriabarbosahernandez18","gender":"1","age":"11","school":"sexto"},{"start_time":1551887850264,"click_time":1551887851396,"finger_time":1551887851075,"fix_duration":1066.3938275263652,"trial":48,"RT":811,"MT":321,"sideResp":1,"stimulus":"img/900/randomdotsizeEA/R/14_Ratio_900_L_18_R_20.png","xmouse":[800,800,800,800,800,800,800,800,800,800,800,800,800,800,800,800,800,800,800,800,800,800,800,800,800,800,800,800,800,800,800,800,800,800,800,800,800,800,790,773,741,728,717,709,691,654,637,627,625,623,617,611,603,592,578,542,512],"ymouse":[619,619,619,619,619,619,619,619,619,619,619,619,619,619,619,619,619,619,619,619,619,619,619,619,619,619,619,619,619,619,619,619,619,619,619,619,619,619,604,585,539,514,486,456,410,326,279,240,222,210,189,176,160,145,128,101,89],"timestamp_mouse":[25,31,51,71,91,111,131,151,171,191,211,231,251,272,291,312,331,351,371,391,411,431,451,472,491,511,531,551,571,592,611,631,651,672,692,711,731,751,771,791,811,831,851,871,891,911,931,951,971,991,1011,1031,1052,1071,1091,1111,1132],"xSR":741.5,"ySR":573.95,"xT1":424.9,"yT1":0,"xT2":1058.1,"yT2":0,"toosoon":0,"cond_shown":"randomdotsizeEA","ratio_trial":900,"smaller_num":"18","larger_num":"20","correct_side":2,"subjID":"paulavaleriabarbosahernandez18","gender":"1","age":"11","school":"sexto"},{"start_time":1551887853657,"click_time":1551887854755,"finger_time":1551887854376,"fix_duration":859.3389504969231,"trial":49,"RT":719,"MT":379,"sideResp":2,"stimulus":"img/750/equaldotanddens/R/12_Ratio_750_L_3_R_4.png","xmouse":[793,793,793,793,793,793,793,793,793,793,793,793,793,793,793,793,793,793,793,793,793,793,793,793,793,793,793,793,793,793,793,793,793,793,794,806,818,842,864,901,981,1018,1046,1065,1077,1087,1106,1109,1110,1110,1110,1110,1110,1110,1110],"ymouse":[602,602,602,602,602,602,602,602,602,602,602,602,602,602,602,602,602,602,602,602,602,602,602,602,602,602,602,602,602,602,602,602,602,602,594,570,543,466,395,301,115,19,0,0,0,0,0,0,0,0,0,0,0,0,4],"timestamp_mouse":[29,39,58,78,98,118,138,158,178,199,218,238,258,278,298,319,338,358,378,399,418,438,458,479,498,518,538,558,578,598,618,638,658,678,699,719,738,758,779,799,818,838,858,879,898,919,939,958,978,998,1020,1038,1059,1078,1098],"xSR":741.5,"ySR":573.95,"xT1":424.9,"yT1":0,"xT2":1058.1,"yT2":0,"toosoon":0,"cond_shown":"equaldotanddens","ratio_trial":750,"smaller_num":"3","larger_num":"4","correct_side":2,"subjID":"paulavaleriabarbosahernandez18","gender":"1","age":"11","school":"sexto"},{"start_time":1551887856436,"click_time":1551887857555,"finger_time":1551887857196,"fix_duration":619.2589953834265,"trial":50,"RT":760,"MT":359,"sideResp":2,"stimulus":"img/900/equaldotsize/L/2_Ratio_900_L_20_R_18.png","xmouse":[782,786,799,805,807,808,808,808,808,808,808,808,808,808,808,809,809,809,809,809,809,809,809,809,809,809,809,809,809,809,809,809,809,809,809,809,809,812,849,894,953,1011,1056,1133,1167,1185,1198,1203,1211,1212,1212,1212,1212,1203,1189,1172,1158],"ymouse":[621,613,597,591,590,589,589,589,589,589,589,589,589,589,589,591,594,600,613,615,616,616,616,616,616,616,616,616,616,616,616,616,616,616,616,616,610,598,524,459,389,322,259,150,103,64,35,14,0,0,0,0,0,0,0,1,5],"timestamp_mouse":[1,24,39,59,80,100,119,139,159,180,199,219,239,259,280,300,320,340,360,380,399,419,440,459,480,499,519,539,560,579,599,619,639,660,679,699,719,739,760,779,800,820,839,859,879,901,920,939,960,980,1000,1020,1039,1059,1079,1100,1119],"xSR":741.5,"ySR":573.95,"xT1":424.9,"yT1":0,"xT2":1058.1,"yT2":0,"toosoon":0,"cond_shown":"equaldotsize","ratio_trial":900,"smaller_num":"18","larger_num":"20","correct_side":1,"subjID":"paulavaleriabarbosahernandez18","gender":"1","age":"11","school":"sexto"},{"start_time":1551887864997,"click_time":1551887865916,"finger_time":1551887865676,"fix_duration":480.88645014485644,"trial":51,"RT":679,"MT":240,"sideResp":1,"stimulus":"img/250/randomdotsizeEA/L/5_Ratio_250_L_24_R_6.png","xmouse":[796,796,796,796,796,796,796,796,796,796,796,796,796,796,796,796,796,796,796,796,796,796,796,796,796,796,796,796,796,796,796,796,796,764,735,695,643,600,556,544,535,530,526,524,524,519],"ymouse":[646,646,646,646,646,646,646,646,646,646,646,646,646,646,646,646,646,646,646,646,646,646,646,646,646,646,646,646,646,646,646,640,616,469,397,313,222,145,36,11,0,0,0,0,0,4],"timestamp_mouse":[25,38,58,79,98,119,138,158,178,199,220,238,259,278,298,320,338,358,378,400,419,438,458,478,498,518,538,558,579,598,619,638,658,679,698,719,739,758,778,799,818,839,858,879,899,919],"xSR":741.5,"ySR":573.95,"xT1":424.9,"yT1":0,"xT2":1058.1,"yT2":0,"toosoon":0,"cond_shown":"randomdotsizeEA","ratio_trial":250,"smaller_num":"6","larger_num":"24","correct_side":1,"subjID":"paulavaleriabarbosahernandez18","gender":"1","age":"11","school":"sexto"},{"start_time":1551887868366,"click_time":1551887869136,"finger_time":1551887868976,"fix_duration":250,"trial":52,"RT":610,"MT":160,"sideResp":1,"stimulus":"img/900/equaldotsize/R/5_Ratio_900_L_9_R_10.png","xmouse":[761,761,761,761,761,761,761,761,761,761,761,761,761,761,761,761,761,761,761,761,761,761,761,761,761,761,761,761,761,758,740,722,696,674,647,600,571,541,515],"ymouse":[624,624,624,624,624,624,624,624,624,624,624,624,624,624,624,624,624,624,624,624,624,624,624,624,624,624,624,624,622,611,539,494,435,381,324,223,175,129,93],"timestamp_mouse":[12,37,49,69,89,109,129,149,170,189,209,229,249,269,290,310,329,349,370,389,409,429,450,469,489,509,531,549,569,591,610,629,650,670,690,709,729,749,770],"xSR":741.5,"ySR":573.95,"xT1":424.9,"yT1":0,"xT2":1058.1,"yT2":0,"toosoon":0,"cond_shown":"equaldotsize","ratio_trial":900,"smaller_num":"9","larger_num":"10","correct_side":2,"subjID":"paulavaleriabarbosahernandez18","gender":"1","age":"11","school":"sexto"},{"start_time":1551887870110,"click_time":1551887871195,"finger_time":1551887870615,"fix_duration":254.31463239065977,"trial":53,"RT":505,"MT":580,"sideResp":2,"stimulus":"img/250/equaldotsize/R/4_Ratio_250_L_3_R_12.png","xmouse":[771,771,771,771,771,771,771,771,771,771,771,771,771,771,771,771,771,771,771,771,771,771,773,786,815,850,892,941,989,1104,1165,1225,1268,1314,1324,1326,1326,1324,1301,1284,1265,1249,1233,1204,1191,1190,1190,1190,1190,1190,1190,1190,1190,1174,1153],"ymouse":[611,611,611,611,611,611,611,611,611,611,611,611,611,611,611,611,611,611,611,611,611,611,611,605,592,577,554,520,470,329,244,150,60,0,0,0,0,0,0,0,0,0,4,26,42,45,45,45,45,45,44,44,44,42,39],"timestamp_mouse":[6,27,45,65,87,105,125,145,165,185,205,225,245,265,285,305,326,345,365,385,407,425,447,466,485,505,525,545,565,585,606,627,646,666,685,705,726,747,766,785,806,825,845,866,885,906,926,946,966,986,1006,1025,1045,1065,1085],"xSR":741.5,"ySR":573.95,"xT1":424.9,"yT1":0,"xT2":1058.1,"yT2":0,"toosoon":0,"cond_shown":"equaldotsize","ratio_trial":250,"smaller_num":"3","larger_num":"12","correct_side":2,"subjID":"paulavaleriabarbosahernandez18","gender":"1","age":"11","school":"sexto"},{"start_time":1551887878416,"click_time":1551887881578,"finger_time":1551887880138,"fix_duration":1340.0151488853219,"trial":54,"RT":1722,"MT":1440,"sideResp":1,"stimulus":"img/750/randomdotsizeEA/R/3_Ratio_750_L_15_R_20.png","xmouse":[777,777,777,777,777,777,777,777,777,777,777,777,777,777,777,777,777,777,777,777,777,777,777,777,777,777,777,777,777,777,777,777,777,777,777,777,777,777,777,777,777,777,777,777,777,777,777,777,777,777,777,777,777,777,777,777,777,777,777,777,777,777,777,777,772,772,772,772,772,772,772,772,772,772,772,772,772,772,772,772,772,772,772,780,791,794,792,751,725,717,708,703,694,688,681,677,671,662,654,651,649,647,641,638,636,635,634,629,626,624,621,616,610,597,592,588,584,576,574,572,572,571,565,563,562,561,560,558,553,552,551,551,551,551,551,551,551,551,548,543,538,534,530,530,530,530,530,530,530,530,530,530,530,530,530,530,527,523],"ymouse":[619,619,619,619,619,619,619,619,619,619,619,619,619,619,619,619,619,619,619,619,619,619,619,619,619,619,619,619,619,619,619,619,619,619,619,619,619,619,619,619,619,619,619,619,619,619,619,619,619,619,619,619,619,619,619,619,619,619,619,619,619,619,619,619,622,622,622,622,622,622,622,622,622,622,622,622,622,622,622,622,622,622,622,603,581,556,531,475,446,430,414,401,379,370,357,344,331,310,293,282,276,270,255,248,243,238,235,226,219,213,205,198,190,172,166,159,151,138,135,133,132,131,122,120,118,117,116,112,105,104,104,104,104,104,104,104,104,104,103,103,102,101,101,101,101,101,101,101,101,101,101,101,101,101,101,101,99,96],"timestamp_mouse":[26,40,59,79,100,119,140,159,179,199,219,239,260,279,299,319,339,359,382,402,422,443,462,481,502,522,542,563,582,602,621,641,662,681,701,723,743,762,781,801,821,841,861,882,902,922,942,961,981,1002,1022,1041,1063,1081,1101,1122,1142,1161,1182,1202,1222,1241,1262,1281,1302,1322,1342,1361,1381,1403,1422,1442,1461,1482,1502,1522,1542,1562,1581,1601,1621,1642,1662,1681,1702,1722,1742,1762,1781,1802,1823,1842,1862,1881,1902,1922,1943,1961,1981,2003,2022,2042,2061,2082,2102,2122,2141,2162,2181,2202,2222,2242,2262,2281,2302,2321,2341,2361,2383,2403,2422,2442,2462,2482,2502,2522,2543,2561,2583,2602,2622,2641,2661,2681,2701,2721,2742,2763,2782,2802,2822,2842,2862,2882,2901,2922,2942,2962,2983,3002,3022,3043,3063,3082,3102,3123,3142,3162],"xSR":741.5,"ySR":573.95,"xT1":424.9,"yT1":0,"xT2":1058.1,"yT2":0,"toosoon":0,"cond_shown":"randomdotsizeEA","ratio_trial":750,"smaller_num":"15","larger_num":"20","correct_side":2,"subjID":"paulavaleriabarbosahernandez18","gender":"1","age":"11","school":"sexto"},{"start_time":1551887883589,"click_time":1551887885498,"finger_time":1551887884517,"fix_duration":250.84079811930692,"trial":55,"RT":928,"MT":981,"sideResp":1,"stimulus":"img/750/equaldotanddens/L/13_Ratio_750_L_8_R_6.png","xmouse":[781,781,781,781,781,781,781,781,781,781,781,781,781,781,781,781,781,781,781,781,781,781,781,781,781,781,781,781,781,781,781,781,781,781,781,781,781,781,781,781,781,781,781,781,781,772,758,747,737,718,703,697,696,695,695,695,694,692,690,686,672,662,656,651,642,637,633,627,622,615,610,609,607,606,603,601,595,585,574,561,561,558,556,553,550,549,549,548,547,543,540,538,536,534,525,521],"ymouse":[605,605,605,605,605,605,605,605,605,605,605,605,605,605,605,605,605,605,605,605,605,605,605,605,605,605,605,605,605,605,605,605,605,605,605,605,605,605,605,605,605,605,605,605,605,591,567,545,522,484,464,457,453,452,451,445,436,425,410,392,353,327,311,300,276,267,259,251,244,235,226,222,218,215,210,208,206,203,199,193,192,185,179,171,157,153,150,145,140,129,124,119,115,110,97,92],"timestamp_mouse":[8,34,48,69,89,110,129,149,168,188,208,228,249,269,288,308,328,349,369,389,408,429,448,468,489,509,528,548,568,589,609,629,649,669,688,708,728,749,769,789,809,830,848,868,889,909,928,950,968,988,1009,1029,1050,1069,1089,1109,1129,1150,1170,1189,1210,1228,1250,1269,1288,1309,1329,1349,1370,1389,1409,1429,1450,1468,1489,1509,1529,1550,1570,1589,1609,1629,1650,1669,1688,1709,1729,1748,1768,1788,1809,1829,1849,1869,1889,1909],"xSR":741.5,"ySR":573.95,"xT1":424.9,"yT1":0,"xT2":1058.1,"yT2":0,"toosoon":0,"cond_shown":"equaldotanddens","ratio_trial":750,"smaller_num":"6","larger_num":"8","correct_side":1,"subjID":"paulavaleriabarbosahernandez18","gender":"1","age":"11","school":"sexto"},{"start_time":1551887888221,"click_time":1551887889478,"finger_time":1551887889178,"fix_duration":1301.1489029228308,"trial":56,"RT":957,"MT":300,"sideResp":2,"stimulus":"img/500/equaldotanddens/R/9_Ratio_500_L_2_R_4.png","xmouse":[791,791,791,791,791,791,791,791,791,791,791,791,791,791,791,791,791,791,791,791,791,791,791,791,791,791,791,791,791,791,791,791,791,791,791,791,791,791,791,791,791,791,791,791,791,791,792,805,835,868,904,939,968,1010,1022,1031,1035,1042,1047,1063,1075,1083,1096],"ymouse":[578,578,578,578,578,578,578,578,578,578,578,578,578,578,578,578,578,578,578,578,578,578,578,578,578,578,578,578,578,578,578,578,578,578,578,578,578,578,578,578,578,578,578,578,578,578,578,540,471,415,356,304,265,216,203,194,191,173,161,136,119,105,84],"timestamp_mouse":[17,36,57,77,97,117,136,156,177,197,217,237,256,276,296,316,336,357,377,397,417,436,456,477,497,516,537,556,577,596,617,637,656,676,697,717,737,757,776,796,818,836,856,876,897,917,937,957,976,997,1018,1037,1057,1077,1097,1116,1138,1157,1177,1196,1217,1236,1257],"xSR":741.5,"ySR":573.95,"xT1":424.9,"yT1":0,"xT2":1058.1,"yT2":0,"toosoon":0,"cond_shown":"equaldotanddens","ratio_trial":500,"smaller_num":"2","larger_num":"4","correct_side":2,"subjID":"paulavaleriabarbosahernandez18","gender":"1","age":"11","school":"sexto"},{"start_time":1551887892850,"click_time":1551887893959,"finger_time":1551887893658,"fix_duration":250,"trial":57,"RT":808,"MT":301,"sideResp":2,"stimulus":"img/750/randomdotsizeEA/R/11_Ratio_750_L_12_R_16.png","xmouse":[770,770,770,770,770,770,770,770,770,770,770,770,770,770,770,770,770,770,770,770,770,770,770,770,770,770,770,770,770,770,770,770,770,770,770,770,770,773,784,793,831,870,879,884,892,905,926,935,944,960,975,1010,1027,1044,1063,1079],"ymouse":[627,627,627,627,627,627,627,627,627,627,627,627,627,627,627,627,627,627,627,627,627,627,627,627,627,627,627,627,627,627,627,627,627,627,627,627,627,626,597,577,506,405,363,324,294,265,225,207,192,172,160,137,129,118,107,97],"timestamp_mouse":[8,27,47,68,88,107,127,148,168,188,208,228,247,268,288,308,329,348,367,387,408,428,449,468,487,507,528,548,568,588,607,628,648,668,688,707,727,748,768,788,808,828,848,867,889,908,928,949,968,988,1008,1028,1048,1068,1089,1109],"xSR":741.5,"ySR":573.95,"xT1":424.9,"yT1":0,"xT2":1058.1,"yT2":0,"toosoon":0,"cond_shown":"randomdotsizeEA","ratio_trial":750,"smaller_num":"12","larger_num":"16","correct_side":2,"subjID":"paulavaleriabarbosahernandez18","gender":"1","age":"11","school":"sexto"},{"start_time":1551887894969,"click_time":1551887896038,"finger_time":1551887895698,"fix_duration":250,"trial":58,"RT":729,"MT":340,"sideResp":2,"stimulus":"img/250/equaldotanddens/R/9_Ratio_250_L_3_R_12.png","xmouse":[817,817,817,817,817,817,817,817,817,817,817,817,817,817,817,817,817,817,817,817,817,817,817,817,817,817,817,817,817,817,817,817,817,817,818,833,853,882,916,950,1015,1038,1069,1087,1099,1111,1117,1125,1134,1143,1149,1149,1151,1153],"ymouse":[646,646,646,646,646,646,646,646,646,646,646,646,646,646,646,646,646,646,646,646,646,646,646,646,646,646,646,646,646,646,646,646,646,646,640,597,560,519,472,429,361,338,309,294,284,263,249,229,208,187,146,126,104,94],"timestamp_mouse":[9,37,49,69,88