[{"start_time":1551886969785,"click_time":1551886971365,"finger_time":1551886971086,"fix_duration":534.9045597151475,"trial":0,"RT":1301,"MT":279,"sideResp":2,"stimulus":[],"xmouse":[788,788,788,788,788,788,788,788,788,788,788,788,788,788,788,788,788,788,788,788,788,788,788,788,788,788,788,788,788,788,788,788,788,788,788,788,788,788,788,788,788,788,788,788,788,788,788,788,788,788,788,788,788,788,788,788,788,788,788,788,788,788,788,788,792,803,818,836,857,904,934,971,1007,1045,1057,1057,1057,1057,1058,1095],"ymouse":[595,595,595,595,595,595,595,595,595,595,595,595,595,595,595,595,595,595,595,595,595,595,595,595,595,595,595,595,595,595,595,595,595,595,595,595,595,595,595,595,595,595,595,595,595,595,595,595,595,595,595,595,595,595,595,595,595,595,595,595,595,595,595,595,581,555,526,489,450,364,308,244,188,135,114,114,114,114,114,91],"timestamp_mouse":[6,33,40,60,80,100,121,140,162,180,200,220,240,260,282,302,321,341,361,381,401,421,441,460,480,500,520,540,560,580,600,620,641,661,680,700,720,740,761,781,800,821,841,861,880,900,920,940,961,981,1002,1020,1040,1060,1080,1101,1121,1140,1161,1181,1200,1220,1240,1260,1281,1301,1320,1341,1361,1380,1401,1420,1440,1460,1480,1500,1520,1540,1560,1580],"xSR":741.5,"ySR":526.5,"xT1":424.9,"yT1":0,"xT2":1058.1,"yT2":0,"toosoon":0,"cond_shown":"Incongruent","ratio_trial":100,"L_num":3,"L_den":6,"R_num":4,"R_den":10,"correct_side":1,"subjID":"paulavaleriabarbosahernandez18","gender":"1","age":"11","school":"sexto","test":{"fix_dur":[250,1500],"timestim":1000,"targets_dim":[100,100],"targets_relative_coord":[0.3,0.7],"size_stim":[880,420],"start_dim":[100,100],"size_start":[300,300],"size_fix":60,"samplingrate":20,"img_types":["Congruent","Incongruent"],"ratios":[100,200,300],"rep_conds":19,"nTrials":120,"trials_to_rest":500,"Trials_order":[91,51,113,18,79,52,108,119,38,107,98,104,40,44,2,54,37,46,66,39,103,87,31,114,0,100,32,118,101,47,29,112,75,24,25,59,67,82,36,95,55,14,89,68,102,53,86,3,64,65,41,83,60,48,9,56,6,116,74,78,62,109,110,58,33,69,45,81,10,42,21,84,50,43,76,73,11,90,94,30,57,35,115,12,7,85,77,93,63,106,23,26,80,4,71,22,15,92,16,20,1,70,17,8,34,117,27,19,105,96,111,5,72,49,13,88,99,97,28,61],"cond_shown":["Incongruent","Incongruent","Incongruent","Congruent","Incongruent","Congruent","Congruent","Incongruent","Congruent","Incongruent","Congruent","Congruent","Congruent","Congruent","Congruent","Congruent","Incongruent","Congruent","Congruent","Incongruent","Incongruent","Incongruent","Incongruent","Congruent","Congruent","Congruent","Congruent","Congruent","Incongruent","Incongruent","Incongruent","Congruent","Incongruent","Congruent","Incongruent","Incongruent","Incongruent","Congruent","Congruent","Incongruent","Incongruent","Congruent","Incongruent","Congruent","Congruent","Incongruent","Congruent","Incongruent","Congruent","Incongruent","Incongruent","Incongruent","Congruent","Congruent","Incongruent","Congruent","Congruent","Congruent","Congruent","Congruent","Congruent","Incongruent","Congruent","Congruent","Incongruent","Incongruent","Incongruent","Incongruent","Congruent","Congruent","Incongruent","Congruent","Congruent","Incongruent","Congruent","Incongruent","Incongruent","Congruent","Congruent","Congruent","Incongruent","Incongruent","Incongruent","Congruent","Incongruent","Incongruent","Incongruent","Incongruent","Incongruent","Congruent","Incongruent","Congruent","Congruent","Congruent","Incongruent","Congruent","Incongruent","Congruent","Congruent","Congruent","Incongruent","Congruent","Incongruent","Congruent","Congruent","Incongruent","Incongruent","Incongruent","Incongruent","Congruent","Incongruent","Incongruent","Congruent","Incongruent","Incongruent","Congruent","Incongruent","Incongruent","Congruent","Incongruent"],"ratio_trial":[100,200,300,100,100,300,100,300,200,300,200,200,300,200,200,100,100,300,100,200,100,200,100,100,100,300,200,300,300,300,300,300,200,100,100,300,100,300,100,300,100,200,300,200,100,300,200,200,300,300,300,300,100,100,200,200,100,200,200,100,200,100,200,300,200,200,200,200,300,100,200,100,200,100,300,100,300,100,300,100,200,300,100,100,100,100,300,200,200,300,300,200,200,300,300,300,200,200,300,200,100,300,300,200,300,200,200,100,200,100,200,300,100,100,100,300,200,100,300,100],"left_num":[3,7,8,3,9,2,11,1,7,8,8,3,8,12,6,6,11,12,7,3,6,7,6,12,11,8,20,11,4,13,13,1,1,3,2,13,4,11,3,13,9,16,8,6,2,1,8,1,1,4,2,13,6,11,7,13,4,11,6,15,9,6,16,20,4,3,3,4,9,1,1,6,3,17,1,9,4,8,24,11,7,4,12,6,4,9,13,1,9,1,4,5,12,20,4,24,11,15,11,12,12,20,1,9,8,9,7,9,9,7,11,3,1,3,9,11,1,3,24,13],"right_num":[4,6,9,2,20,10,6,2,18,9,7,14,10,6,11,15,9,2,9,11,11,6,13,13,4,1,9,1,2,12,12,7,2,4,6,12,8,4,4,12,6,12,14,11,11,2,7,2,6,6,6,12,5,6,8,14,6,3,7,13,13,13,9,14,14,11,11,6,3,18,2,5,14,10,3,20,8,2,2,4,12,2,9,5,8,20,12,3,8,11,2,14,6,5,6,2,3,4,4,6,9,8,3,4,10,8,12,13,8,9,3,4,18,4,14,2,3,7,2,12],"left_den":[6,15,10,6,10,20,22,2,15,10,15,6,15,15,20,12,22,24,14,4,10,15,10,30,22,16,25,22,20,26,26,20,3,20,4,26,8,22,20,26,18,20,10,20,5,2,15,3,5,5,4,26,20,22,10,26,8,22,12,25,30,10,30,25,6,4,4,5,10,2,3,20,10,30,5,10,5,16,30,22,10,20,24,20,8,10,26,2,15,5,20,10,15,25,5,30,20,25,22,20,24,25,2,20,15,15,10,15,15,14,20,6,2,6,15,22,2,9,30,26],"right_den":[10,9,18,5,25,25,15,10,27,18,21,20,12,10,22,25,15,10,15,20,22,9,26,26,10,5,15,5,4,15,15,20,15,16,15,15,20,20,16,15,10,20,28,22,22,10,21,15,12,12,30,15,25,15,16,20,10,10,10,26,26,26,27,28,30,20,20,10,5,30,15,25,28,15,6,25,16,5,4,10,24,4,15,25,20,25,15,10,10,22,4,20,10,10,12,4,4,10,20,15,15,16,15,16,12,10,24,26,10,15,4,20,30,10,28,10,10,30,4,20],"correct_side":[1,2,1,1,1,2,1,1,2,1,1,2,2,1,2,2,2,1,2,1,1,2,1,2,1,1,1,1,2,2,2,2,1,2,1,2,1,1,2,2,2,1,1,2,2,1,1,1,2,1,1,2,1,1,1,2,2,1,2,1,2,1,1,1,1,1,1,1,1,2,1,1,2,2,2,1,1,1,1,1,1,2,2,1,1,1,2,1,2,2,2,2,1,1,1,1,2,1,1,1,2,1,1,1,2,2,1,1,2,2,2,1,2,1,1,1,1,1,1,2],"img_shown":["img2/100/Incongruent/L/I_Dist_100_LN_3_LD_6_RN_4_RD_10_0.png","img2/200/Incongruent/R/I_Dist_200_LN_7_LD_15_RN_6_RD_9_1.png","img2/300/Incongruent/L/I_Dist_300_LN_8_LD_10_RN_9_RD_18_0.png","img2/100/Congruent/L/C_Dist_100_LN_3_LD_6_RN_2_RD_5_0.png","img2/100/Incongruent/L/I_Dist_100_LN_9_LD_10_RN_20_RD_25_0.png","img2/300/Congruent/R/C_Dist_300_LN_2_LD_20_RN_10_RD_25_1.png","img2/100/Congruent/L/C_Dist_100_LN_11_LD_22_RN_6_RD_15_0.png","img2/300/Incongruent/L/I_Dist_300_LN_1_LD_2_RN_2_RD_10_0.png","img2/200/Congruent/R/C_Dist_200_LN_7_LD_15_RN_18_RD_27_1.png","img2/300/Incongruent/L/I_Dist_300_LN_8_LD_10_RN_9_RD_18_0.png","img2/200/Congruent/L/C_Dist_200_LN_8_LD_15_RN_7_RD_21_0.png","img2/200/Congruent/R/C_Dist_200_LN_3_LD_6_RN_14_RD_20_1.png","img2/300/Congruent/R/C_Dist_300_LN_8_LD_15_RN_10_RD_12_1.png","img2/200/Congruent/L/C_Dist_200_LN_12_LD_15_RN_6_RD_10_0.png","img2/200/Congruent/R/C_Dist_200_LN_6_LD_20_RN_11_RD_22_1.png","img2/100/Congruent/R/C_Dist_100_LN_6_LD_12_RN_15_RD_25_1.png","img2/100/Incongruent/R/I_Dist_100_LN_11_LD_22_RN_9_RD_15_1.png","img2/300/Congruent/L/C_Dist_300_LN_12_LD_24_RN_2_RD_10_0.png","img2/100/Congruent/R/C_Dist_100_LN_7_LD_14_RN_9_RD_15_1.png","img2/200/Incongruent/L/I_Dist_200_LN_3_LD_4_RN_11_RD_20_0.png","img2/100/Incongruent/L/I_Dist_100_LN_6_LD_10_RN_11_RD_22_0.png","img2/200/Incongruent/R/I_Dist_200_LN_7_LD_15_RN_6_RD_9_1.png","img2/100/Incongruent/L/I_Dist_100_LN_6_LD_10_RN_13_RD_26_0.png","img2/100/Congruent/R/C_Dist_100_LN_12_LD_30_RN_13_RD_26_1.png","img2/100/Congruent/L/C_Dist_100_LN_11_LD_22_RN_4_RD_10_0.png","img2/300/Congruent/L/C_Dist_300_LN_8_LD_16_RN_1_RD_5_0.png","img2/200/Congruent/L/C_Dist_200_LN_20_LD_25_RN_9_RD_15_0.png","img2/300/Congruent/L/C_Dist_300_LN_11_LD_22_RN_1_RD_5_0.png","img2/300/Incongruent/R/I_Dist_300_LN_4_LD_20_RN_2_RD_4_1.png","img2/300/Incongruent/R/I_Dist_300_LN_13_LD_26_RN_12_RD_15_1.png","img2/300/Incongruent/R/I_Dist_300_LN_13_LD_26_RN_12_RD_15_1.png","img2/300/Congruent/R/C_Dist_300_LN_1_LD_20_RN_7_RD_20_1.png","img2/200/Incongruent/L/I_Dist_200_LN_1_LD_3_RN_2_RD_15_0.png","img2/100/Congruent/R/C_Dist_100_LN_3_LD_20_RN_4_RD_16_1.png","img2/100/Incongruent/L/I_Dist_100_LN_2_LD_4_RN_6_RD_15_0.png","img2/300/Incongruent/R/I_Dist_300_LN_13_LD_26_RN_12_RD_15_1.png","img2/100/Incongruent/L/I_Dist_100_LN_4_LD_8_RN_8_RD_20_0.png","img2/300/Congruent/L/C_Dist_300_LN_11_LD_22_RN_4_RD_20_0.png","img2/100/Congruent/R/C_Dist_100_LN_3_LD_20_RN_4_RD_16_1.png","img2/300/Incongruent/R/I_Dist_300_LN_13_LD_26_RN_12_RD_15_1.png","img2/100/Incongruent/R/I_Dist_100_LN_9_LD_18_RN_6_RD_10_1.png","img2/200/Congruent/L/C_Dist_200_LN_16_LD_20_RN_12_RD_20_0.png","img2/300/Incongruent/L/I_Dist_300_LN_8_LD_10_RN_14_RD_28_0.png","img2/200/Congruent/R/C_Dist_200_LN_6_LD_20_RN_11_RD_22_1.png","img2/100/Congruent/R/C_Dist_100_LN_2_LD_5_RN_11_RD_22_1.png","img2/300/Incongruent/L/I_Dist_300_LN_1_LD_2_RN_2_RD_10_0.png","img2/200/Congruent/L/C_Dist_200_LN_8_LD_15_RN_7_RD_21_0.png","img2/200/Incongruent/L/I_Dist_200_LN_1_LD_3_RN_2_RD_15_0.png","img2/300/Congruent/R/C_Dist_300_LN_1_LD_5_RN_6_RD_12_1.png","img2/300/Incongruent/L/I_Dist_300_LN_4_LD_5_RN_6_RD_12_0.png","img2/300/Incongruent/L/I_Dist_300_LN_2_LD_4_RN_6_RD_30_0.png","img2/300/Incongruent/R/I_Dist_300_LN_13_LD_26_RN_12_RD_15_1.png","img2/100/Congruent/L/C_Dist_100_LN_6_LD_20_RN_5_RD_25_0.png","img2/100/Congruent/L/C_Dist_100_LN_11_LD_22_RN_6_RD_15_0.png","img2/200/Incongruent/L/I_Dist_200_LN_7_LD_10_RN_8_RD_16_0.png","img2/200/Congruent/R/C_Dist_200_LN_13_LD_26_RN_14_RD_20_1.png","img2/100/Congruent/R/C_Dist_100_LN_4_LD_8_RN_6_RD_10_1.png","img2/200/Congruent/L/C_Dist_200_LN_11_LD_22_RN_3_RD_10_0.png","img2/200/Congruent/R/C_Dist_200_LN_6_LD_12_RN_7_RD_10_1.png","img2/100/Congruent/L/C_Dist_100_LN_15_LD_25_RN_13_RD_26_0.png","img2/200/Congruent/R/C_Dist_200_LN_9_LD_30_RN_13_RD_26_1.png","img2/100/Incongruent/L/I_Dist_100_LN_6_LD_10_RN_13_RD_26_0.png","img2/200/Congruent/L/C_Dist_200_LN_16_LD_30_RN_9_RD_27_0.png","img2/300/Congruent/L/C_Dist_300_LN_20_LD_25_RN_14_RD_28_0.png","img2/200/Incongruent/L/I_Dist_200_LN_4_LD_6_RN_14_RD_30_0.png","img2/200/Incongruent/L/I_Dist_200_LN_3_LD_4_RN_11_RD_20_0.png","img2/200/Incongruent/L/I_Dist_200_LN_3_LD_4_RN_11_RD_20_0.png","img2/200/Incongruent/L/I_Dist_200_LN_4_LD_5_RN_6_RD_10_0.png","img2/300/Congruent/L/C_Dist_300_LN_9_LD_10_RN_3_RD_5_0.png","img2/100/Congruent/R/C_Dist_100_LN_1_LD_2_RN_18_RD_30_1.png","img2/200/Incongruent/L/I_Dist_200_LN_1_LD_3_RN_2_RD_15_0.png","img2/100/Congruent/L/C_Dist_100_LN_6_LD_20_RN_5_RD_25_0.png","img2/200/Congruent/R/C_Dist_200_LN_3_LD_10_RN_14_RD_28_1.png","img2/100/Incongruent/R/I_Dist_100_LN_17_LD_30_RN_10_RD_15_1.png","img2/300/Congruent/R/C_Dist_300_LN_1_LD_5_RN_3_RD_6_1.png","img2/100/Incongruent/L/I_Dist_100_LN_9_LD_10_RN_20_RD_25_0.png","img2/300/Incongruent/L/I_Dist_300_LN_4_LD_5_RN_8_RD_16_0.png","img2/100/Congruent/L/C_Dist_100_LN_8_LD_16_RN_2_RD_5_0.png","img2/300/Congruent/L/C_Dist_300_LN_24_LD_30_RN_2_RD_4_0.png","img2/100/Congruent/L/C_Dist_100_LN_11_LD_22_RN_4_RD_10_0.png","img2/200/Incongruent/L/I_Dist_200_LN_7_LD_10_RN_12_RD_24_0.png","img2/300/Incongruent/R/I_Dist_300_LN_4_LD_20_RN_2_RD_4_1.png","img2/100/Incongruent/R/I_Dist_100_LN_12_LD_24_RN_9_RD_15_1.png","img2/100/Congruent/L/C_Dist_100_LN_6_LD_20_RN_5_RD_25_0.png","img2/100/Incongruent/L/I_Dist_100_LN_4_LD_8_RN_8_RD_20_0.png","img2/100/Incongruent/L/I_Dist_100_LN_9_LD_10_RN_20_RD_25_0.png","img2/300/Incongruent/R/I_Dist_300_LN_13_LD_26_RN_12_RD_15_1.png","img2/200/Incongruent/L/I_Dist_200_LN_1_LD_2_RN_3_RD_10_0.png","img2/200/Incongruent/R/I_Dist_200_LN_9_LD_15_RN_8_RD_10_1.png","img2/300/Congruent/R/C_Dist_300_LN_1_LD_5_RN_11_RD_22_1.png","img2/300/Incongruent/R/I_Dist_300_LN_4_LD_20_RN_2_RD_4_1.png","img2/200/Congruent/R/C_Dist_200_LN_5_LD_10_RN_14_RD_20_1.png","img2/200/Congruent/L/C_Dist_200_LN_12_LD_15_RN_6_RD_10_0.png","img2/300/Congruent/L/C_Dist_300_LN_20_LD_25_RN_5_RD_10_0.png","img2/300/Incongruent/L/I_Dist_300_LN_4_LD_5_RN_6_RD_12_0.png","img2/300/Congruent/L/C_Dist_300_LN_24_LD_30_RN_2_RD_4_0.png","img2/200/Incongruent/R/I_Dist_200_LN_11_LD_20_RN_3_RD_4_1.png","img2/200/Congruent/L/C_Dist_200_LN_15_LD_25_RN_4_RD_10_0.png","img2/300/Congruent/L/C_Dist_300_LN_11_LD_22_RN_4_RD_20_0.png","img2/200/Congruent/L/C_Dist_200_LN_12_LD_20_RN_6_RD_15_0.png","img2/100/Incongruent/R/I_Dist_100_LN_12_LD_24_RN_9_RD_15_1.png","img2/300/Congruent/L/C_Dist_300_LN_20_LD_25_RN_8_RD_16_0.png","img2/300/Incongruent/L/I_Dist_300_LN_1_LD_2_RN_3_RD_15_0.png","img2/200/Congruent/L/C_Dist_200_LN_9_LD_20_RN_4_RD_16_0.png","img2/300/Congruent/R/C_Dist_300_LN_8_LD_15_RN_10_RD_12_1.png","img2/200/Incongruent/R/I_Dist_200_LN_9_LD_15_RN_8_RD_10_1.png","img2/200/Incongruent/L/I_Dist_200_LN_7_LD_10_RN_12_RD_24_0.png","img2/100/Incongruent/L/I_Dist_100_LN_9_LD_15_RN_13_RD_26_0.png","img2/200/Incongruent/R/I_Dist_200_LN_9_LD_15_RN_8_RD_10_1.png","img2/100/Congruent/R/C_Dist_100_LN_7_LD_14_RN_9_RD_15_1.png","img2/200/Incongruent/R/I_Dist_200_LN_11_LD_20_RN_3_RD_4_1.png","img2/300/Incongruent/L/I_Dist_300_LN_3_LD_6_RN_4_RD_20_0.png","img2/100/Congruent/R/C_Dist_100_LN_1_LD_2_RN_18_RD_30_1.png","img2/100/Incongruent/L/I_Dist_100_LN_3_LD_6_RN_4_RD_10_0.png","img2/100/Incongruent/L/I_Dist_100_LN_9_LD_15_RN_14_RD_28_0.png","img2/300/Congruent/L/C_Dist_300_LN_11_LD_22_RN_2_RD_10_0.png","img2/200/Incongruent/L/I_Dist_200_LN_1_LD_2_RN_3_RD_10_0.png","img2/100/Incongruent/L/I_Dist_100_LN_3_LD_9_RN_7_RD_30_0.png","img2/300/Congruent/L/C_Dist_300_LN_24_LD_30_RN_2_RD_4_0.png","img2/100/Incongruent/R/I_Dist_100_LN_13_LD_26_RN_12_RD_20_1.png"],"dist100_C":[["C_Dist_100_LN_10_LD_25_RN_3_RD_10_0.png","C_Dist_100_LN_11_LD_22_RN_4_RD_10_0.png","C_Dist_100_LN_11_LD_22_RN_6_RD_15_0.png","C_Dist_100_LN_15_LD_25_RN_13_RD_26_0.png","C_Dist_100_LN_3_LD_6_RN_2_RD_5_0.png","C_Dist_100_LN_6_LD_20_RN_5_RD_25_0.png","C_Dist_100_LN_8_LD_16_RN_2_RD_5_0.png","C_Dist_100_LN_9_LD_15_RN_8_RD_16_0.png"],["C_Dist_100_LN_1_LD_2_RN_18_RD_30_1.png","C_Dist_100_LN_1_LD_2_RN_3_RD_5_1.png","C_Dist_100_LN_12_LD_30_RN_13_RD_26_1.png","C_Dist_100_LN_2_LD_5_RN_11_RD_22_1.png","C_Dist_100_LN_2_LD_5_RN_6_RD_12_1.png","C_Dist_100_LN_3_LD_20_RN_4_RD_16_1.png","C_Dist_100_LN_4_LD_10_RN_15_RD_30_1.png","C_Dist_100_LN_4_LD_8_RN_6_RD_10_1.png","C_Dist_100_LN_6_LD_12_RN_15_RD_25_1.png","C_Dist_100_LN_7_LD_14_RN_15_RD_25_1.png","C_Dist_100_LN_7_LD_14_RN_9_RD_15_1.png"]],"dist100_I":[["I_Dist_100_LN_1_LD_2_RN_8_RD_20_0.png","I_Dist_100_LN_2_LD_4_RN_6_RD_15_0.png","I_Dist_100_LN_2_LD_4_RN_8_RD_20_0.png","I_Dist_100_LN_3_LD_5_RN_11_RD_22_0.png","I_Dist_100_LN_3_LD_5_RN_8_RD_16_0.png","I_Dist_100_LN_3_LD_6_RN_4_RD_10_0.png","I_Dist_100_LN_3_LD_9_RN_7_RD_30_0.png","I_Dist_100_LN_4_LD_8_RN_8_RD_20_0.png","I_Dist_100_LN_6_LD_10_RN_11_RD_22_0.png","I_Dist_100_LN_6_LD_10_RN_13_RD_26_0.png","I_Dist_100_LN_6_LD_10_RN_7_RD_14_0.png","I_Dist_100_LN_9_LD_10_RN_20_RD_25_0.png","I_Dist_100_LN_9_LD_15_RN_13_RD_26_0.png","I_Dist_100_LN_9_LD_15_RN_14_RD_28_0.png"],["I_Dist_100_LN_10_LD_25_RN_8_RD_16_1.png","I_Dist_100_LN_10_LD_25_RN_9_RD_18_1.png","I_Dist_100_LN_11_LD_22_RN_9_RD_15_1.png","I_Dist_100_LN_12_LD_24_RN_9_RD_15_1.png","I_Dist_100_LN_12_LD_30_RN_2_RD_4_1.png","I_Dist_100_LN_13_LD_26_RN_12_RD_20_1.png","I_Dist_100_LN_13_LD_26_RN_6_RD_10_1.png","I_Dist_100_LN_17_LD_30_RN_10_RD_15_1.png","I_Dist_100_LN_6_LD_12_RN_3_RD_5_1.png","I_Dist_100_LN_8_LD_16_RN_6_RD_10_1.png","I_Dist_100_LN_8_LD_20_RN_1_RD_2_1.png","I_Dist_100_LN_9_LD_18_RN_6_RD_10_1.png"]],"dist100_S":[["E_Dist_100_LN_2_LD_12_RN_2_RD_30_0.png","E_Dist_100_LN_6_LD_10_RN_6_RD_12_0.png"],["E_Dist_100_LN_6_LD_12_RN_6_RD_10_1.png"]],"dist200_C":[["C_Dist_200_LN_11_LD_22_RN_3_RD_10_0.png","C_Dist_200_LN_12_LD_15_RN_6_RD_10_0.png","C_Dist_200_LN_12_LD_20_RN_6_RD_15_0.png","C_Dist_200_LN_14_LD_28_RN_6_RD_20_0.png","C_Dist_200_LN_15_LD_25_RN_4_RD_10_0.png","C_Dist_200_LN_16_LD_20_RN_12_RD_20_0.png","C_Dist_200_LN_16_LD_30_RN_9_RD_27_0.png","C_Dist_200_LN_20_LD_25_RN_9_RD_15_0.png","C_Dist_200_LN_21_LD_30_RN_2_RD_4_0.png","C_Dist_200_LN_4_LD_10_RN_3_RD_15_0.png","C_Dist_200_LN_4_LD_8_RN_3_RD_10_0.png","C_Dist_200_LN_6_LD_15_RN_3_RD_15_0.png","C_Dist_200_LN_7_LD_21_RN_2_RD_15_0.png","C_Dist_200_LN_8_LD_15_RN_2_RD_6_0.png","C_Dist_200_LN_8_LD_15_RN_3_RD_9_0.png","C_Dist_200_LN_8_LD_15_RN_7_RD_21_0.png","C_Dist_200_LN_9_LD_20_RN_4_RD_16_0.png"],["C_Dist_200_LN_1_LD_2_RN_21_RD_30_1.png","C_Dist_200_LN_13_LD_26_RN_14_RD_20_1.png","C_Dist_200_LN_3_LD_10_RN_11_RD_22_1.png","C_Dist_200_LN_3_LD_10_RN_14_RD_28_1.png","C_Dist_200_LN_3_LD_10_RN_7_RD_14_1.png","C_Dist_200_LN_3_LD_12_RN_9_RD_20_1.png","C_Dist_200_LN_3_LD_6_RN_14_RD_20_1.png","C_Dist_200_LN_5_LD_10_RN_14_RD_20_1.png","C_Dist_200_LN_6_LD_12_RN_7_RD_10_1.png","C_Dist_200_LN_6_LD_20_RN_11_RD_22_1.png","C_Dist_200_LN_7_LD_15_RN_18_RD_27_1.png","C_Dist_200_LN_9_LD_30_RN_13_RD_26_1.png"]],"dist200_I":[["I_Dist_200_LN_1_LD_2_RN_3_RD_10_0.png","I_Dist_200_LN_1_LD_3_RN_2_RD_15_0.png","I_Dist_200_LN_3_LD_4_RN_11_RD_20_0.png","I_Dist_200_LN_4_LD_5_RN_6_RD_10_0.png","I_Dist_200_LN_4_LD_6_RN_14_RD_30_0.png","I_Dist_200_LN_7_LD_10_RN_12_RD_24_0.png","I_Dist_200_LN_7_LD_10_RN_14_RD_28_0.png","I_Dist_200_LN_7_LD_10_RN_8_RD_16_0.png"],["I_Dist_200_LN_11_LD_20_RN_3_RD_4_1.png","I_Dist_200_LN_14_LD_30_RN_12_RD_18_1.png","I_Dist_200_LN_14_LD_30_RN_6_RD_9_1.png","I_Dist_200_LN_3_LD_10_RN_1_RD_2_1.png","I_Dist_200_LN_4_LD_30_RN_1_RD_3_1.png","I_Dist_200_LN_6_LD_20_RN_3_RD_6_1.png","I_Dist_200_LN_7_LD_15_RN_4_RD_6_1.png","I_Dist_200_LN_7_LD_15_RN_6_RD_9_1.png","I_Dist_200_LN_9_LD_15_RN_8_RD_10_1.png"]],"dist200_S":[["E_Dist_200_LN_3_LD_6_RN_3_RD_10_0.png"],["E_Dist_200_LN_3_LD_10_RN_3_RD_6_1.png"]],"dist300_C":[["C_Dist_300_LN_11_LD_22_RN_1_RD_5_0.png","C_Dist_300_LN_11_LD_22_RN_2_RD_10_0.png","C_Dist_300_LN_11_LD_22_RN_4_RD_20_0.png","C_Dist_300_LN_12_LD_24_RN_2_RD_10_0.png","C_Dist_300_LN_18_LD_20_RN_9_RD_15_0.png","C_Dist_300_LN_20_LD_25_RN_13_RD_26_0.png","C_Dist_300_LN_20_LD_25_RN_14_RD_28_0.png","C_Dist_300_LN_20_LD_25_RN_5_RD_10_0.png","C_Dist_300_LN_20_LD_25_RN_8_RD_16_0.png","C_Dist_300_LN_20_LD_25_RN_9_RD_18_0.png","C_Dist_300_LN_24_LD_30_RN_2_RD_4_0.png","C_Dist_300_LN_24_LD_30_RN_8_RD_16_0.png","C_Dist_300_LN_3_LD_6_RN_2_RD_10_0.png","C_Dist_300_LN_4_LD_10_RN_1_RD_10_0.png","C_Dist_300_LN_4_LD_5_RN_2_RD_4_0.png","C_Dist_300_LN_8_LD_16_RN_1_RD_5_0.png","C_Dist_300_LN_9_LD_10_RN_3_RD_5_0.png"],["C_Dist_300_LN_1_LD_20_RN_7_RD_20_1.png","C_Dist_300_LN_1_LD_3_RN_19_RD_30_1.png","C_Dist_300_LN_1_LD_30_RN_8_RD_24_1.png","C_Dist_300_LN_1_LD_5_RN_11_RD_22_1.png","C_Dist_300_LN_1_LD_5_RN_3_RD_6_1.png","C_Dist_300_LN_1_LD_5_RN_6_RD_12_1.png","C_Dist_300_LN_2_LD_10_RN_12_RD_24_1.png","C_Dist_300_LN_2_LD_20_RN_10_RD_25_1.png","C_Dist_300_LN_3_LD_12_RN_11_RD_20_1.png","C_Dist_300_LN_3_LD_6_RN_4_RD_5_1.png","C_Dist_300_LN_4_LD_20_RN_13_RD_26_1.png","C_Dist_300_LN_5_LD_25_RN_6_RD_12_1.png","C_Dist_300_LN_5_LD_25_RN_7_RD_14_1.png","C_Dist_300_LN_7_LD_14_RN_20_RD_25_1.png","C_Dist_300_LN_8_LD_15_RN_10_RD_12_1.png"]],"dist300_I":[["I_Dist_300_LN_1_LD_2_RN_2_RD_10_0.png","I_Dist_300_LN_1_LD_2_RN_3_RD_15_0.png","I_Dist_300_LN_2_LD_4_RN_6_RD_30_0.png","I_Dist_300_LN_3_LD_6_RN_4_RD_20_0.png","I_Dist_300_LN_4_LD_5_RN_6_RD_12_0.png","I_Dist_300_LN_4_LD_5_RN_8_RD_16_0.png","I_Dist_300_LN_7_LD_10_RN_8_RD_20_0.png","I_Dist_300_LN_8_LD_10_RN_14_RD_28_0.png","I_Dist_300_LN_8_LD_10_RN_9_RD_18_0.png"],["I_Dist_300_LN_13_LD_26_RN_12_RD_15_1.png","I_Dist_300_LN_4_LD_20_RN_2_RD_4_1.png"]],"dist300_S":[["E_Dist_300_LN_9_LD_12_RN_9_RD_20_0.png"],["E_Dist_300_LN_18_LD_30_RN_18_RD_20_1.png","E_Dist_300_LN_3_LD_10_RN_3_RD_5_1.png","E_Dist_300_LN_9_LD_20_RN_9_RD_12_1.png"]],"dist500_C":[["C_Dist_500_LN_10_LD_13_RN_7_RD_26_0.png","C_Dist_500_LN_10_LD_15_RN_4_RD_24_0.png","C_Dist_500_LN_12_LD_16_RN_3_RD_12_0.png","C_Dist_500_LN_12_LD_18_RN_4_RD_24_0.png","C_Dist_500_LN_15_LD_18_RN_5_RD_15_0.png","C_Dist_500_LN_15_LD_20_RN_1_RD_4_0.png","C_Dist_500_LN_18_LD_27_RN_1_RD_6_0.png","C_Dist_500_LN_20_LD_24_RN_1_RD_3_0.png","C_Dist_500_LN_20_LD_24_RN_3_RD_9_0.png","C_Dist_500_LN_20_LD_24_RN_7_RD_21_0.png","C_Dist_500_LN_20_LD_28_RN_3_RD_14_0.png","C_Dist_500_LN_21_LD_28_RN_6_RD_24_0.png","C_Dist_500_LN_22_LD_28_RN_2_RD_7_0.png","C_Dist_500_LN_25_LD_30_RN_9_RD_27_0.png","C_Dist_500_LN_4_LD_6_RN_1_RD_6_0.png","C_Dist_500_LN_5_LD_6_RN_2_RD_6_0.png","C_Dist_500_LN_6_LD_9_RN_1_RD_6_0.png","C_Dist_500_LN_7_LD_10_RN_1_RD_5_0.png","C_Dist_500_LN_8_LD_12_RN_1_RD_6_0.png","C_Dist_500_LN_8_LD_12_RN_4_RD_24_0.png"],["C_Dist_500_LN_1_LD_4_RN_12_RD_16_1.png","C_Dist_500_LN_1_LD_4_RN_9_RD_12_1.png","C_Dist_500_LN_1_LD_9_RN_11_RD_18_1.png","C_Dist_500_LN_10_LD_24_RN_22_RD_24_1.png","C_Dist_500_LN_2_LD_12_RN_10_RD_15_1.png","C_Dist_500_LN_2_LD_12_RN_12_RD_18_1.png","C_Dist_500_LN_2_LD_12_RN_4_RD_6_1.png","C_Dist_500_LN_2_LD_24_RN_7_RD_12_1.png","C_Dist_500_LN_2_LD_5_RN_18_RD_20_1.png","C_Dist_500_LN_2_LD_5_RN_9_RD_10_1.png","C_Dist_500_LN_2_LD_8_RN_12_RD_16_1.png","C_Dist_500_LN_2_LD_8_RN_21_RD_28_1.png","C_Dist_500_LN_3_LD_10_RN_4_RD_5_1.png","C_Dist_500_LN_3_LD_12_RN_15_RD_20_1.png","C_Dist_500_LN_3_LD_30_RN_6_RD_10_1.png","C_Dist_500_LN_3_LD_8_RN_14_RD_16_1.png","C_Dist_500_LN_4_LD_16_RN_15_RD_20_1.png","C_Dist_500_LN_4_LD_24_RN_12_RD_18_1.png","C_Dist_500_LN_5_LD_14_RN_6_RD_7_1.png","C_Dist_500_LN_7_LD_21_RN_20_RD_24_1.png","C_Dist_500_LN_7_LD_28_RN_12_RD_16_1.png","C_Dist_500_LN_7_LD_28_RN_9_RD_12_1.png","C_Dist_500_LN_9_LD_27_RN_20_RD_24_1.png"]],"dist500_I":[["I_Dist_500_LN_2_LD_3_RN_4_RD_24_0.png","I_Dist_500_LN_5_LD_6_RN_6_RD_18_0.png","I_Dist_500_LN_7_LD_8_RN_9_RD_24_0.png"],["I_Dist_500_LN_7_LD_21_RN_5_RD_6_1.png"]],"dist500_S":[["E_Dist_500_LN_6_LD_8_RN_6_RD_24_0.png"],["E_Dist_500_LN_2_LD_12_RN_2_RD_3_1.png","E_Dist_500_LN_6_LD_24_RN_6_RD_8_1.png"]]}},{"start_time":1551886983971,"click_time":1551886987205,"finger_time":1551886986685,"fix_duration":524.2656267891851,"trial":1,"RT":2714,"MT":520,"sideResp":1,"stimulus":[],"xmouse":[778,778,778,778,778,778,778,778,778,778,778,778,778,778,778,778,778,778,778,778,778,778,778,778,778,778,778,778,778,778,778,778,778,778,778,778,778,778,778,778,778,778,778,778,778,778,778,778,778,778,778,778,778,778,778,778,778,778,778,778,778,778,778,778,778,778,778,778,778,778,778,778,778,778,778,778,778,778,778,778,778,778,778,778,778,778,778,778,778,778,778,778,778,778,778,778,778,778,778,778,778,778,778,778,778,778,778,778,778,778,778,778,778,778,778,778,778,778,778,778,778,778,778,778,778,778,778,778,778,778,778,778,778,775,749,728,701,681,656,650,650,647,640,632,603,594,584,582,581,580,579,579,575,561,555,551,548,545,544,544,534,494],"ymouse":[651,651,651,651,651,651,651,651,651,651,651,651,651,651,651,651,651,651,651,651,651,651,651,651,651,651,651,651,651,651,651,651,651,651,651,651,651,651,651,651,651,651,651,651,651,651,651,651,651,651,651,651,651,651,651,651,651,651,651,651,651,651,651,651,651,651,651,651,651,651,651,651,651,651,651,651,651,651,651,651,651,651,651,651,651,651,651,651,651,651,651,651,651,651,651,651,651,651,651,651,651,651,651,651,651,651,651,651,651,651,651,651,651,651,651,651,651,651,651,651,651,651,651,651,651,651,651,651,651,651,651,651,649,640,601,573,532,500,456,438,429,422,407,390,318,297,274,269,265,261,260,253,235,160,129,109,93,84,82,82,82,86],"timestamp_mouse":[15,35,54,74,94,114,134,154,174,194,215,235,254,274,294,314,336,355,374,395,414,434,454,475,494,514,534,554,574,594,615,635,656,674,694,714,734,754,775,795,814,835,855,874,894,914,934,954,974,994,1015,1035,1054,1074,1094,1114,1134,1154,1174,1195,1214,1234,1254,1274,1294,1315,1334,1354,1374,1395,1414,1436,1454,1476,1495,1515,1534,1554,1574,1595,1615,1634,1654,1674,1694,1715,1735,1754,1775,1795,1815,1834,1854,1874,1894,1915,1934,1954,1974,1994,2015,2034,2055,2075,2094,2114,2134,2155,2174,2195,2214,2234,2254,2275,2295,2315,2334,2354,2375,2394,2414,2435,2454,2474,2494,2515,2534,2554,2574,2594,2614,2634,2655,2675,2694,2714,2735,2755,2775,2794,2815,2835,2854,2874,2894,2914,2934,2955,2974,2994,3015,3034,3054,3074,3094,3114,3134,3154,3174,3194,3215,3234],"xSR":741.5,"ySR":573.95,"xT1":424.9,"yT1":0,"xT2":1058.1,"yT2":0,"toosoon":0,"cond_shown":"Incongruent","ratio_trial":200,"L_num":7,"L_den":15,"R_num":6,"R_den":9,"correct_side":2,"subjID":"paulavaleriabarbosahernandez18","gender":"1","school":"sexto","age":"11"},{"start_time":1551886991071,"click_time":1551886993527,"finger_time":1551886992926,"fix_duration":485.9185753742249,"trial":2,"RT":1855,"MT":601,"sideResp":1,"stimulus":[],"xmouse":[764,764,764,765,765,765,767,768,770,771,772,773,773,773,773,773,773,773,773,773,773,773,773,773,773,773,773,773,773,773,773,773,773,773,773,773,773,773,773,773,773,773,773,773,773,773,773,773,773,773,773,773,773,773,773,773,773,773,773,773,773,773,773,773,773,773,773,773,773,773,773,773,773,773,773,773,773,773,773,773,773,773,773,773,773,773,773,773,773,773,772,770,766,750,739,726,717,712,709,699,694,694,694,697,704,706,706,706,706,706,706,703,700,684,681,680,678,675,661,649,624,576,510],"ymouse":[590,590,590,594,595,598,603,606,612,619,622,625,627,627,627,627,627,627,627,627,627,627,627,627,627,627,627,627,627,627,627,627,627,627,627,627,627,627,627,627,627,627,627,627,627,627,627,627,627,627,627,627,627,627,627,627,627,627,627,627,627,627,627,627,627,627,627,627,627,627,627,627,627,627,627,627,627,627,627,627,627,627,627,627,627,627,627,627,627,627,615,594,569,528,511,491,475,460,437,390,379,374,372,368,365,364,364,364,364,364,364,343,328,299,292,288,283,278,275,264,226,158,78],"timestamp_mouse":[14,37,56,75,94,114,135,156,175,194,214,235,254,275,294,314,334,354,376,395,414,434,456,476,494,514,534,555,575,594,614,636,654,674,694,714,734,754,774,794,815,835,855,874,894,914,934,956,974,994,1014,1034,1055,1074,1094,1114,1136,1154,1174,1195,1214,1236,1255,1274,1294,1316,1334,1354,1376,1394,1415,1434,1454,1474,1494,1515,1534,1554,1574,1594,1616,1635,1654,1674,1695,1715,1734,1754,1774,1795,1814,1835,1855,1874,1894,1915,1934,1956,1975,1995,2014,2036,2055,2075,2094,2114,2135,2154,2176,2195,2214,2236,2254,2274,2294,2315,2335,2354,2375,2395,2414,2435,2456],"xSR":741.5,"ySR":573.95,"xT1":424.9,"yT1":0,"xT2":1058.1,"yT2":0,"toosoon":0,"cond_shown":"Incongruent","ratio_trial":300,"L_num":8,"L_den":10,"R_num":9,"R_den":18,"correct_side":1,"subjID":"paulavaleriabarbosahernandez18","gender":"1","school":"sexto","age":"11"},{"start_time":1551886995837,"click_time":1551886998607,"finger_time":1551886998307,"fix_duration":250,"trial":3,"RT":2470,"MT":300,"sideResp":1,"stimulus":[],"xmouse":[815,816,816,816,816,817,817,817,817,817,817,817,817,817,817,817,817,817,817,817,817,817,817,817,817,817,817,817,817,817,817,817,817,817,817,817,817,817,817,817,817,817,817,817,817,817,817,817,817,817,817,817,817,817,817,817,817,817,817,817,817,817,817,817,817,817,817,817,817,817,817,817,817,817,817,817,817,817,817,817,817,817,817,817,817,817,817,817,817,817,817,817,817,817,817,817,817,817,817,817,817,817,817,817,817,817,817,817,817,817,817,817,817,817,817,817,817,817,817,817,817,817,817,799,758,650,567,500,485,485,483,479,473,466,457,455,455,455,455],"ymouse":[622,619,619,619,619,619,619,619,619,619,619,619,619,619,619,619,619,619,619,619,619,619,619,619,619,619,619,619,619,619,619,619,619,619,619,619,619,619,619,619,619,619,619,619,619,619,619,619,619,619,619,619,619,619,619,619,619,619,619,619,619,619,619,619,619,619,619,619,619,619,619,619,619,619,619,619,619,619,619,619,619,619,619,619,619,619,619,619,619,619,619,619,619,619,619,619,619,619,619,619,619,619,619,619,619,619,619,619,619,619,619,619,619,619,619,619,619,619,619,619,619,619,619,561,438,116,0,0,0,0,0,0,0,0,0,0,0,0,1],"timestamp_mouse":[9,30,48,68,88,109,129,149,168,188,208,228,248,269,289,308,328,349,368,388,408,428,449,469,488,508,528,548,568,589,610,628,648,668,688,709,729,748,768,789,808,828,848,868,888,908,928,949,969,988,1008,1029,1048,1068,1088,1108,1128,1150,1169,1188,1209,1229,1249,1268,1288,1308,1328,1348,1369,1389,1408,1428,1448,1468,1488,1509,1528,1549,1568,1588,1609,1628,1648,1668,1689,1709,1729,1751,1768,1788,1808,1828,1849,1869,1889,1908,1928,1948,1969,1990,2008,2028,2049,2069,2088,2108,2128,2148,2169,2189,2210,2228,2248,2268,2288,2308,2328,2348,2368,2388,2409,2429,2448,2470,2489,2510,2528,2549,2569,2589,2608,2630,2649,2670,2689,2710,2729,2749,2770],"xSR":741.5,"ySR":573.95,"xT1":424.9,"yT1":0,"xT2":1058.1,"yT2":0,"toosoon":0,"cond_shown":"Congruent","ratio_trial":100,"L_num":3,"L_den":6,"R_num":2,"R_den":5,"correct_side":1,"subjID":"paulavaleriabarbosahernandez18","gender":"1","school":"sexto","age":"11"},{"start_time":1551887000277,"click_time":1551887002407,"finger_time":1551887001707,"fix_duration":250,"trial":4,"RT":1430,"MT":700,"sideResp":2,"stimulus":[],"xmouse":[806,806,806,806,806,806,806,806,806,806,806,806,806,806,806,806,806,806,806,806,806,806,806,806,806,806,806,806,806,806,806,806,806,806,806,806,806,806,806,806,806,806,806,806,806,806,806,806,806,806,806,806,806,806,806,806,806,806,806,806,806,806,806,806,806,806,806,806,806,809,841,886,920,963,985,1011,1043,1076,1118,1174,1186,1211,1227,1236,1269,1289,1299,1310,1313,1313,1313,1309,1305,1274,1251,1230,1208,1199,1197,1197,1197,1197,1196,1194,1182,1168,1153],"ymouse":[620,620,620,620,620,620,620,620,620,620,620,620,620,620,620,620,620,620,620,620,620,620,620,620,620,620,620,620,620,620,620,620,620,620,620,620,620,620,620,620,620,620,620,620,620,620,620,620,620,620,620,620,620,620,620,620,620,620,620,620,620,620,620,620,620,620,620,620,620,615,596,569,550,515,479,429,364,286,175,33,10,0,0,0,0,0,0,0,0,0,0,0,2,21,40,57,73,79,81,81,81,81,81,80,62,51,44],"timestamp_mouse":[8,32,48,69,88,108,129,149,168,189,209,228,248,268,289,310,328,348,368,388,409,429,448,468,488,509,529,549,568,589,608,628,648,668,689,709,728,748,768,788,809,829,850,868,888,908,928,949,969,988,1008,1028,1048,1069,1089,1108,1128,1148,1169,1188,1208,1228,1248,1269,1289,1308,1328,1348,1368,1388,1408,1430,1448,1469,1488,1509,1529,1548,1569,1589,1610,1629,1649,1669,1688,1710,1728,1748,1769,1788,1808,1828,1849,1870,1888,1909,1929,1949,1969,1989,2008,2028,2049,2069,2088,2109,2130],"xSR":741.5,"ySR":573.95,"xT1":424.9,"yT1":0,"xT2":1058.1,"yT2":0,"toosoon":0,"cond_shown":"Incongruent","ratio_trial":100,"L_num":9,"L_den":10,"R_num":20,"R_den":25,"correct_side":1,"subjID":"paulavaleriabarbosahernandez18","gender":"1","school":"sexto","age":"11"},{"start_time":1551887005897,"click_time":1551887011226,"finger_time":1551887008745,"fix_duration":1411.5421682947954,"trial":5,"RT":2848,"MT":2481,"sideResp":2,"stimulus":[],"xmouse":[810,810,810,810,810,810,810,810,810,810,810,810,810,810,810,810,810,810,810,810,810,810,810,810,810,810,810,810,810,810,810,810,810,810,810,810,810,810,810,810,810,810,810,810,810,810,810,810,810,810,810,810,810,810,810,810,810,810,810,810,810,810,810,810,810,810,810,810,810,810,810,810,810,810,810,810,810,810,810,810,810,810,810,810,810,810,810,810,810,810,810,810,810,810,810,810,810,810,810,810,810,810,810,810,810,810,810,810,810,810,810,810,810,810,810,810,810,810,810,810,810,810,810,810,810,810,810,807,782,774,774,774,774,774,774,774,774,774,774,774,780,817,882,981,1041,1103,1179,1200,1248,1248,1252,1256,1260,1260,1260,1260,1260,1260,1260,1260,1259,1255,1244,1242,1242,1242,1242,1242,1242,1242,1242,1242,1242,1242,1242,1242,1242,1242,1242,1242,1242,1242,1242,1242,1242,1242,1242,1242,1242,1242,1242,1242,1242,1242,1242,1242,1242,1242,1242,1242,1242,1242,1242,1242,1242,1242,1242,1242,1242,1242,1242,1242,1242,1242,1242,1242,1242,1242,1242,1242,1242,1242,1242,1242,1242,1242,1242,1242,1242,1242,1242,1242,1242,1242,1242,1242,1242,1242,1242,1242,1242,1242,1242,1242,1242,1242,1242,1242,1242,1241,1238,1236,1232,1224,1221,1217,1212,1199,1192,1188,1181,1176,1172,1165,1162,1160,1157],"ymouse":[647,647,647,647,647,647,647,647,647,647,647,647,647,647,647,647,647,647,647,647,647,647,647,647,647,647,647,647,647,647,647,647,647,647,647,647,647,647,647,647,647,647,647,647,647,647,647,647,647,647,647,647,647,647,647,647,647,647,647,647,647,647,647,647,647,647,647,647,647,647,647,647,647,647,647,647,647,647,647,647,647,647,647,647,647,647,647,647,647,647,647,647,647,647,647,647,647,647,647,647,647,647,647,647,647,647,647,647,647,647,647,647,647,647,647,647,647,647,647,647,647,647,647,647,647,647,647,646,608,592,592,592,592,592,592,592,592,592,592,591,589,581,562,504,427,292,61,0,0,0,0,0,0,0,0,0,0,0,0,0,0,1,11,14,14,14,14,14,14,14,14,14,14,14,14,14,14,14,14,14,14,14,14,14,14,14,14,14,14,14,14,14,14,14,14,14,14,14,14,14,14,14,14,14,14,14,14,14,14,14,14,14,14,14,14,14,14,14,14,14,14,14,14,14,14,14,14,14,14,14,14,14,14,14,14,14,14,14,14,14,14,14,14,14,14,14,14,14,14,15,19,21,24,29,31,34,36,42,45,47,51,53,54,57,57,58,58],"timestamp_mouse":[17,31,49,69,88,108,128,148,168,188,208,229,248,268,288,308,329,348,368,388,408,428,449,468,488,509,529,548,569,588,608,629,649,669,688,708,729,750,768,789,809,830,849,868,889,909,929,948,969,988,1008,1028,1048,1068,1089,1108,1129,1149,1169,1188,1208,1229,1249,1269,1289,1309,1328,1348,1368,1388,1409,1429,1449,1469,1488,1508,1528,1548,1568,1588,1609,1629,1649,1668,1689,1708,1729,1749,1769,1789,1808,1828,1849,1869,1889,1908,1929,1948,1970,1988,2008,2028,2049,2068,2088,2108,2130,2149,2168,2188,2208,2228,2249,2269,2289,2308,2328,2348,2368,2388,2409,2428,2448,2469,2489,2509,2529,2548,2569,2589,2608,2628,2648,2668,2688,2708,2729,2750,2768,2789,2809,2829,2848,2868,2888,2908,2929,2948,2968,2988,3008,3030,3050,3068,3088,3108,3128,3149,3169,3188,3210,3228,3249,3268,3290,3308,3328,3350,3368,3388,3408,3428,3448,3468,3489,3509,3529,3550,3568,3590,3608,3628,3648,3668,3689,3710,3729,3748,3768,3789,3810,3828,3848,3868,3889,3908,3929,3950,3968,3988,4010,4029,4050,4069,4088,4108,4130,4150,4169,4188,4208,4228,4248,4269,4288,4309,4329,4348,4368,4388,4409,4429,4450,4468,4489,4508,4528,4550,4569,4588,4608,4628,4648,4670,4689,4708,4728,4748,4768,4790,4809,4828,4849,4868,4888,4909,4928,4949,4968,4988,5009,5028,5048,5068,5088,5109,5129,5150,5168,5188,5208,5228,5249,5268,5290,5309,5329],"xSR":741.5,"ySR":573.95,"xT1":424.9,"yT1":0,"xT2":1058.1,"yT2":0,"toosoon":0,"cond_shown":"Congruent","ratio_trial":300,"L_num":2,"L_den":20,"R_num":10,"R_den":25,"correct_side":2,"subjID":"paulavaleriabarbosahernandez18","gender":"1","school":"sexto","age":"11"},{"start_time":1551887013456,"click_time":1551887017666,"finger_time":1551887016225,"fix_duration":588.347660425929,"trial":6,"RT":2769,"MT":1441,"sideResp":1,"stimulus":[],"xmouse":[797,797,797,797,797,795,795,795,795,795,795,795,795,795,795,795,795,795,795,795,795,795,795,795,795,795,795,795,795,795,795,795,795,795,795,795,795,795,795,795,795,795,795,795,795,795,795,795,795,795,795,795,796,796,797,797,797,797,797,797,797,797,797,797,797,797,797,797,797,797,797,797,797,797,797,797,797,797,797,799,802,804,806,806,806,806,806,806,806,806,806,806,806,806,806,806,806,806,806,806,806,806,806,806,806,806,806,806,806,806,806,806,806,806,806,806,806,806,806,806,806,806,806,806,806,806,806,806,806,806,806,806,806,806,807,808,809,810,811,811,811,811,811,811,813,829,846,870,922,963,1051,1096,1140,1176,1187,1167,1128,1076,1010,908,781,720,644,560,438,409,392,386,381,379,373,365,358,352,347,341,341,341,344,347,350,350,351,352,353,354,354,354,354,354,354,355,355,355,356,366,373,379,382,382,382,382,382,382,382,383,384,390,407,422,452],"ymouse":[592,592,592,592,593,594,594,594,594,594,594,594,594,594,594,594,594,594,594,594,594,594,594,594,594,594,594,594,594,594,594,594,594,594,594,594,594,594,594,594,594,594,594,594,594,594,594,594,594,594,594,594,594,594,594,594,594,594,594,594,594,594,594,594,594,594,594,594,594,594,594,594,594,594,594,594,594,594,594,593,589,584,582,582,582,582,582,582,582,582,582,582,582,582,582,582,582,582,582,582,582,582,582,582,582,582,582,582,582,582,582,582,582,582,582,582,582,582,582,582,582,582,582,582,582,582,582,582,582,582,582,582,582,582,578,577,576,574,573,573,573,573,573,572,571,555,543,531,509,492,454,430,402,374,357,308,244,175,113,33,0,0,0,0,0,0,0,0,0,0,1,6,12,18,25,37,45,53,60,63,67,67,67,67,67,67,67,67,67,67,67,67,67,67,68,73,76,78,80,80,80,80,80,80,80,80,80,80,80,80,71],"timestamp_mouse":[10,37,49,69,90,109,129,149,169,189,209,230,249,269,289,310,330,349,369,389,409,429,449,470,490,510,529,549,569,589,609,630,650,669,689,709,729,749,769,789,810,830,850,869,889,909,929,950,970,990,1009,1030,1050,1070,1091,1110,1129,1149,1171,1189,1209,1229,1249,1269,1289,1309,1329,1349,1369,1389,1409,1429,1450,1469,1489,1510,1530,1549,1569,1590,1609,1630,1650,1669,1689,1709,1729,1750,1770,1789,1809,1829,1849,1870,1890,1909,1929,1949,1969,1990,2010,2029,2049,2069,2089,2110,2130,2151,2169,2189,2209,2230,2249,2269,2289,2309,2330,2350,2369,2389,2409,2429,2450,2470,2489,2509,2529,2549,2570,2589,2610,2630,2649,2669,2691,2709,2729,2749,2769,2791,2810,2829,2849,2869,2889,2909,2930,2950,2970,2990,3011,3030,3050,3070,3089,3109,3129,3149,3169,3191,3209,3229,3249,3269,3290,3309,3329,3350,3370,3389,3409,3429,3451,3469,3489,3509,3529,3549,3570,3589,3609,3630,3650,3669,3689,3709,3729,3749,3770,3790,3809,3829,3850,3869,3890,3909,3930,3949,3969,3991,4010,4029,4050,4070,4090,4109,4129,4150,4170,4189,4210],"xSR":741.5,"ySR":573.95,"xT1":424.9,"yT1":0,"xT2":1058.1,"yT2":0,"toosoon":0,"cond_shown":"Congruent","ratio_trial":100,"L_num":11,"L_den":22,"R_num":6,"R_den":15,"correct_side":1,"subjID":"paulavaleriabarbosahernandez18","gender":"1","school":"sexto","age":"11"},{"start_time":1551887021910,"click_time":1551887023306,"finger_time":1551887023246,"fix_duration":1442.9923310650904,"trial":7,"RT":1336,"MT":60,"sideResp":2,"stimulus":[],"xmouse":[792,792,792,792,792,792,792,792,791,790,790,790,790,790,790,790,790,790,790,790,790,790,790,790,790,790,790,790,790,790,790,790,790,790,790,790,790,790,790,790,790,790,790,790,790,790,790,790,790,790,790,790,790,790,790,790,790,790,790,790,790,790,790,790,790,794,828,966,1054,1089],"ymouse":[602,602,602,602,602,602,602,602,602,603,604,604,604,604,604,604,604,604,604,604,604,604,604,604,604,604,604,604,604,604,604,604,604,604,604,604,604,604,604,604,604,604,604,604,604,604,604,604,604,604,604,604,604,604,604,604,604,604,604,604,604,604,604,604,604,600,562,329,153,71],"timestamp_mouse":[15,35,55,75,95,116,136,156,175,197,216,235,255,275,295,315,336,356,375,395,416,436,457,475,495,515,536,555,575,596,616,636,655,675,696,716,735,755,775,795,815,835,856,877,895,915,935,955,976,996,1015,1035,1056,1076,1095,1115,1137,1155,1175,1195,1216,1236,1256,1276,1295,1316,1336,1356,1375,1396],"xSR":741.5,"ySR":573.95,"xT1":424.9,"yT1":0,"xT2":1058.1,"yT2":0,"toosoon":0,"cond_shown":"Incongruent","ratio_trial":300,"L_num":1,"L_den":2,"R_num":2,"R_den":10,"correct_side":1,"subjID":"paulavaleriabarbosahernandez18","gender":"1","school":"sexto","age":"11"},{"start_time":1551887026040,"click_time":1551887027806,"finger_time":1551887027306,"fix_duration":1393.7365196260325,"trial":8,"RT":1266,"MT":500,"sideResp":2,"stimulus":[],"xmouse":[801,800,798,797,796,796,796,796,796,796,796,796,796,796,796,796,796,796,796,796,796,796,796,796,796,796,796,796,796,796,796,796,796,796,796,796,796,796,796,796,796,796,796,796,796,796,796,796,796,796,796,796,796,796,796,796,796,796,796,796,796,796,803,839,909,997,1168,1223,1266,1301,1336,1338,1339,1339,1334,1331,1331,1330,1330,1319,1299,1238,1212,1199,1192,1186,1169,1160,1152],"ymouse":[629,621,606,598,595,594,594,594,594,594,594,594,594,594,594,594,594,594,594,594,594,594,594,594,594,594,594,594,594,594,594,594,594,594,594,594,594,594,594,594,594,594,594,594,594,594,594,594,594,594,594,594,594,594,594,594,594,594,594,594,594,594,586,557,498,424,235,163,98,37,0,0,0,0,0,0,0,0,0,4,19,51,58,60,61,61,64,68,69],"timestamp_mouse":[8,26,45,66,86,106,125,146,166,186,205,226,246,265,285,305,325,346,365,385,406,427,445,465,485,505,525,545,565,585,605,625,645,665,685,707,726,746,765,785,805,825,845,865,886,905,926,945,965,987,1005,1025,1045,1067,1086,1106,1125,1147,1165,1185,1205,1225,1246,1266,1285,1306,1325,1346,1365,1386,1407,1426,1447,1466,1485,1506,1525,1546,1565,1585,1607,1625,1646,1666,1685,1705,1725,1746,1765],"xSR":741.5,"ySR":573.95,"xT1":424.9,"yT1":0,"xT2":1058.1,"yT2":0,"toosoon":0,"cond_shown":"Congruent","ratio_trial":200,"L_num":7,"L_den":15,"R_num":18,"R_den":27,"correct_side":2,"subjID":"paulavaleriabarbosahernandez18","gender":"1","school":"sexto","age":"11"},{"start_time":1551887029056,"click_time":1551887030726,"finger_time":1551887030545,"fix_duration":250,"trial":9,"RT":1489,"MT":181,"sideResp":1,"stimulus":[],"xmouse":[786,786,786,786,786,786,786,786,786,786,786,786,786,786,786,786,786,786,786,786,786,786,786,786,786,786,786,786,786,786,786,786,786,786,786,786,786,786,786,786,786,786,786,786,786,786,786,786,786,786,786,786,786,786,786,786,786,786,786,786,786,786,786,786,786,786,786,786,786,786,786,786,786,786,780,750,735,715,688,633,604,581,549,513],"ymouse":[623,623,623,623,623,623,623,623,623,623,623,623,623,623,623,623,623,623,623,623,623,623,623,623,623,623,623,623,623,623,623,623,623,623,623,623,623,623,623,623,623,623,623,623,623,623,623,623,623,623,623,623,623,623,623,623,623,623,623,623,623,623,623,623,623,623,623,623,623,623,623,623,618,603,554,428,379,335,283,199,160,131,94,53],"timestamp_mouse":[9,35,49,69,89,109,129,150,170,189,209,229,249,270,291,310,330,349,370,390,409,429,450,469,490,510,529,549,569,589,609,630,650,670,690,709,729,749,769,789,809,829,849,870,891,909,929,950,970,989,1009,1029,1050,1071,1089,1110,1130,1149,1169,1190,1209,1229,1249,1269,1290,1309,1329,1349,1371,1390,1411,1431,1449,1471,1489,1509,1529,1550,1569,1590,1609,1630,1650,1670],"xSR":741.5,"ySR":573.95,"xT1":424.9,"yT1":0,"xT2":1058.1,"yT2":0,"toosoon":0,"cond_shown":"Incongruent","ratio_trial":300,"L_num":8,"L_den":10,"R_num":9,"R_den":18,"correct_side":1,"subjID":"paulavaleriabarbosahernandez18","gender":"1","school":"sexto","age":"11"},{"start_time":1551887037473,"click_time":1551887040406,"finger_time":1551887040306,"fix_duration":1426.0064486297047,"trial":10,"RT":2833,"MT":100,"sideResp":1,"stimulus":[],"xmouse":[770,770,770,770,770,770,770,770,770,770,770,770,770,770,770,770,770,770,770,770,770,770,770,770,770,770,770,770,770,770,770,770,770,770,770,770,770,770,770,770,770,770,770,770,770,770,770,770,770,770,770,770,770,770,770,770,770,770,770,770,770,770,770,770,770,770,770,770,770,770,770,770,770,770,770,770,770,770,770,770,770,770,770,770,770,770,770,770,770,770,770,770,770,770,770,770,770,770,770,770,770,770,770,770,770,770,770,770,770,770,770,770,770,770,770,770,770,770,770,770,770,770,770,770,770,770,770,770,770,770,770,770,770,770,770,770,770,770,770,770,770,761,732,685,566,535,521],"ymouse":[624,624,624,624,624,624,624,624,624,624,624,624,624,624,624,624,624,624,624,624,624,624,624,624,624,624,624,624,624,624,624,624,624,624,624,624,624,624,624,624,624,624,624,624,624,624,624,624,624,624,624,624,624,624,624,624,624,624,624,624,624,624,624,624,624,624,624,624,624,624,624,624,624,624,624,624,624,624,624,624,624,624,624,624,624,624,624,624,624,624,624,624,624,624,624,624,624,624,624,624,624,624,624,624,624,624,624,624,624,624,624,624,624,624,624,624,624,624,624,624,624,624,624,624,624,624,624,624,624,624,624,624,624,624,624,624,624,624,624,622,585,512,412,299,108,64,38],"timestamp_mouse":[13,36,53,72,93,112,132,152,172,192,212,232,252,274,293,314,333,353,372,394,413,433,452,472,492,512,533,553,573,593,613,632,652,672,693,712,732,753,774,794,812,832,853,873,893,912,933,953,973,992,1014,1033,1052,1072,1092,1113,1133,1153,1174,1193,1212,1234,1253,1274,1292,1312,1332,1352,1372,1392,1412,1432,1453,1473,1493,1513,1533,1552,1572,1592,1612,1632,1652,1673,1692,1712,1733,1752,1772,1792,1812,1834,1854,1872,1892,1912,1932,1952,1973,1992,2013,2032,2052,2072,2092,2112,2132,2152,2173,2192,2212,2233,2252,2272,2292,2314,2332,2352,2373,2393,2413,2432,2452,2472,2493,2512,2533,2553,2573,2592,2613,2634,2652,2672,2692,2712,2732,2752,2772,2793,2812,2833,2852,2872,2892,2913,2933],"xSR":741.5,"ySR":573.95,"xT1":424.9,"yT1":0,"xT2":1058.1,"yT2":0,"toosoon":0,"cond_shown":"Congruent","ratio_trial":200,"L_num":8,"L_den":15,"R_num":7,"R_den":21,"correct_side":1,"subjID":"paulavaleriabarbosahernandez18","gender":"1","school":"sexto","age":"11"},{"start_time":1551887042051,"click_time":1551887043265,"finger_time":1551887042947,"fix_duration":283.2980985299137,"trial":11,"RT":896,"MT":318,"sideResp":2,"stimulus":[],"xmouse":[782,782,782,782,782,782,782,782,782,782,782,782,782,782,782,782,782,782,782,782,782,782,782,785,786,786,786,786,787,787,787,787,787,787,787,787,787,787,787,787,787,787,799,809,846,949,988,1012,1023,1033,1040,1041,1044,1044,1044,1044,1044,1044,1045,1048,1084],"ymouse":[611,611,611,611,611,611,611,611,611,611,611,611,611,611,611,611,611,611,611,611,611,611,612,611,611,611,610,610,609,609,609,609,609,609,609,609,609,609,609,609,609,609,598,588,536,350,273,217,159,96,26,9,0,0,0,0,0,0,0,3,44],"timestamp_mouse":[24,36,54,74,94,114,134,154,175,195,214,234,255,275,294,315,335,354,374,395,415,434,454,475,495,515,534,554,575,595,616,636,654,674,694,715,736,754,775,795,815,835,855,874,896,915,934,954,974,995,1014,1034,1055,1074,1095,1115,1135,1155,1176,1194,1214],"xSR":741.5,"ySR":573.95,"xT1":424.9,"yT1":0,"xT2":1058.1,"yT2":0,"toosoon":0,"cond_shown":"Congruent","ratio_trial":200,"L_num":3,"L_den":6,"R_num":14,"R_den":20,"correct_side":2,"subjID":"paulavaleriabarbosahernandez18","gender":"1","school":"sexto","age":"11"},{"start_time":1551887044459,"click_time":1551887046165,"finger_time":1551887046106,"fix_duration":250,"trial":12,"RT":1647,"MT":59,"sideResp":2,"stimulus":[],"xmouse":[803,803,803,803,803,803,803,803,803,803,803,803,803,803,803,803,803,803,803,803,803,803,803,803,803,803,803,803,803,803,803,803,803,803,803,803,803,803,803,803,803,803,805,806,808,811,812,812,812,812,812,812,812,812,812,812,812,812,812,812,812,812,812,812,812,812,812,812,812,812,812,812,812,812,812,812,812,812,812,812,817,831,862,902,964,1083],"ymouse":[633,633,633,633,633,633,633,633,633,633,633,633,633,633,633,633,633,633,633,633,633,633,633,633,633,633,633,633,633,633,633,633,633,633,633,633,633,633,633,633,633,633,631,631,630,627,627,627,627,627,627,627,627,627,627,627,627,627,627,627,627,627,627,627,627,627,627,627,627,627,627,627,627,627,627,627,627,627,627,627,622,599,543,459,347,65],"timestamp_mouse":[8,33,46,66,86,106,127,146,167,186,207,227,246,266,286,306,326,346,367,386,407,426,447,466,486,506,526,546,567,587,606,626,646,666,686,706,727,747,767,786,806,826,846,866,887,907,926,946,966,988,1006,1027,1047,1067,1086,1106,1126,1147,1167,1187,1206,1227,1247,1266,1286,1306,1326,1348,1367,1386,1406,1427,1448,1466,1486,1506,1527,1546,1566,1587,1606,1627,1647,1666,1686,1706],"xSR":741.5,"ySR":573.95,"xT1":424.9,"yT1":0,"xT2":1058.1,"yT2":0,"toosoon":0,"cond_shown":"Congruent","ratio_trial":300,"L_num":8,"L_den":15,"R_num":10,"R_den":12,"correct_side":2,"subjID":"paulavaleriabarbosahernandez18","gender":"1","school":"sexto","age":"11"},{"start_time":1551887047737,"click_time":1551887049446,"finger_time":1551887049265,"fix_duration":250,"trial":13,"RT":1528,"MT":181,"sideResp":1,"stimulus":[],"xmouse":[775,775,775,775,775,775,775,775,775,775,775,775,775,775,775,775,775,775,775,775,775,775,775,775,775,775,775,775,775,775,775,775,775,775,775,775,775,775,775,775,775,775,775,775,775,775,775,775,775,775,775,775,775,775,775,775,775,775,775,775,775,775,775,775,775,775,775,775,775,775,775,775,775,775,772,763,699,646,601,580,570,546,532,518,493,469],"ymouse":[642,642,642,642,642,642,642,642,642,642,642,642,642,642,642,642,642,642,642,642,642,642,642,642,642,642,642,642,642,642,642,642,642,642,642,642,642,642,642,642,642,642,642,642,642,642,642,642,642,642,642,642,642,642,642,642,642,642,642,642,642,642,642,642,642,642,642,642,642,642,642,642,642,639,621,579,422,333,268,237,226,201,186,168,132,99],"timestamp_mouse":[8,28,48,69,88,108,128,148,168,188,209,229,248,269,288,310,329,348,369,388,408,429,448,468,490,508,528,548,568,588,608,629,650,670,689,710,730,748,770,788,808,828,848,868,888,908,929,949,968,988,1008,1029,1048,1068,1088,1109,1129,1149,1169,1188,1208,1228,1248,1268,1289,1309,1328,1348,1368,1388,1409,1429,1449,1468,1489,1508,1528,1549,1569,1588,1608,1628,1649,1669,1688,1709],"xSR":741.5,"ySR":573.95,"xT1":424.9,"yT1":0,"xT2":1058.1,"yT2":0,"toosoon":0,"cond_shown":"Congruent","ratio_trial":200,"L_num":12,"L_den":15,"R_num":6,"R_den":10,"correct_side":1,"subjID":"paulavaleriabarbosahernandez18","gender":"1","school":"sexto","age":"11"},{"start_time":1551887051276,"click_time":1551887054885,"finger_time":1551887054425,"fix_duration":769.7268841438936,"trial":14,"RT":3149,"MT":460,"sideResp":2,"stimulus":[],"xmouse":[764,764,764,764,764,765,765,765,765,765,765,765,765,765,765,765,765,765,765,765,765,765,765,765,765,765,765,765,765,765,765,765,765,765,765,765,765,765,765,765,765,765,765,765,765,765,765,765,765,765,765,765,765,765,765,765,765,765,765,765,765,765,765,765,765,765,765,765,765,765,765,765,765,765,765,765,765,765,765,765,765,765,765,765,765,765,765,765,765,765,765,765,765,765,765,765,765,765,765,765,765,765,765,765,765,765,765,765,765,765,765,765,765,765,765,765,765,765,765,765,765,765,765,765,765,765,765,765,765,765,765,765,765,765,765,765,765,765,765,765,765,765,765,765,765,765,765,765,765,765,765,765,765,765,765,766,766,771,789,842,851,858,862,867,886,901,917,922,923,928,936,955,978,1010,1018,1021,1023,1023,1030,1053,1060],"ymouse":[638,638,637,637,637,635,635,635,635,635,635,635,635,635,635,635,635,635,635,635,635,635,635,635,635,635,635,635,635,635,635,635,635,635,635,635,635,635,635,635,635,635,635,635,635,635,635,635,635,635,635,635,635,635,635,635,635,635,635,635,635,635,635,635,635,635,635,635,635,635,635,635,635,635,635,635,635,635,635,635,635,635,635,635,635,635,635,635,635,635,635,635,635,635,635,635,635,635,635,635,635,635,635,635,635,635,635,635,635,635,635,635,635,635,635,635,635,635,635,635,635,635,635,635,635,635,635,635,635,635,635,635,635,635,635,635,635,635,635,635,635,635,635,635,635,635,635,635,635,635,635,635,635,635,635,633,624,567,448,274,240,221,206,194,149,124,108,106,105,100,91,79,69,60,57,57,56,56,56,57,57],"timestamp_mouse":[12,35,50,71,90,109,129,150,171,189,209,229,249,269,289,309,329,350,370,389,409,443,449,469,489,509,529,550,569,589,609,630,651,670,689,709,729,749,770,789,810,830,849,869,889,909,929,949,971,990,1010,1030,1051,1069,1090,1109,1130,1149,1169,1189,1209,1230,1250,1269,1289,1310,1329,1349,1369,1389,1410,1430,1450,1470,1489,1510,1530,1550,1570,1589,1609,1629,1651,1669,1690,1710,1729,1749,1770,1789,1810,1830,1849,1869,1890,1910,1930,1949,1970,1990,2009,2029,2049,2069,2089,2109,2130,2150,2169,2189,2210,2230,2249,2269,2289,2309,2330,2350,2369,2391,2409,2429,2449,2469,2490,2509,2529,2550,2570,2589,2609,2629,2649,2669,2689,2711,2729,2749,2769,2789,2810,2830,2849,2869,2889,2909,2929,2950,2970,2990,3009,3029,3049,3069,3089,3110,3130,3149,3169,3189,3209,3230,3249,3269,3289,3311,3330,3350,3370,3390,3409,3429,3449,3470,3489,3510,3530,3551,3569,3589,3609],"xSR":741.5,"ySR":573.95,"xT1":424.9,"yT1":0,"xT2":1058.1,"yT2":0,"toosoon":0,"cond_shown":"Congruent","ratio_trial":200,"L_num":6,"L_den":20,"R_num":11,"R_den":22,"correct_side":2,"subjID":"paulavaleriabarbosahernandez18","gender":"1","school":"sexto","age":"11"},{"start_time":1551887059336,"click_time":1551887061965,"finger_time":1551887061525,"fix_duration":250,"trial":15,"RT":2189,"MT":440,"sideResp":2,"stimulus":[],"xmouse":[827,827,827,827,827,827,827,827,827,827,827,827,827,827,827,827,827,827,827,827,827,827,827,827,827,827,827,827,827,827,827,827,827,827,827,827,827,827,827,827,827,827,827,827,827,827,827,827,827,827,827,827,827,827,827,827,827,827,827,827,827,827,827,827,827,827,827,827,827,827,827,827,827,827,827,827,827,827,827,827,827,827,827,827,827,827,827,827,827,827,827,827,827,827,827,827,827,827,827,827,827,827,827,827,827,827,827,827,827,827,835,845,849,856,862,879,919,936,954,969,984,986,988,997,1000,1021,1042,1044,1044,1044,1046,1061],"ymouse":[607,607,607,607,607,607,607,607,607,607,607,607,607,607,607,607,607,607,607,607,607,607,607,607,607,607,607,607,607,607,607,607,607,607,607,607,607,607,607,607,607,607,607,607,607,607,607,607,607,607,607,607,607,607,607,607,607,607,607,607,607,607,607,607,607,607,607,607,607,607,607,607,607,607,607,607,607,607,607,607,607,607,607,607,607,607,607,607,607,607,607,607,607,607,607,607,607,607,607,607,607,607,607,607,607,607,607,607,584,516,354,293,265,248,235,208,175,167,159,153,146,146,144,139,136,125,112,111,110,110,108,75],"timestamp_mouse":[9,30,49,70,89,110,130,149,169,190,210,229,249,269,289,309,329,350,369,389,409,429,449,470,489,509,529,549,569,590,609,629,649,674,689,709,729,749,769,789,810,829,850,869,889,909,929,949,969,989,1010,1029,1049,1069,1089,1110,1129,1149,1169,1189,1209,1229,1249,1269,1289,1309,1329,1349,1369,1389,1409,1429,1449,1469,1489,1509,1529,1550,1569,1589,1609,1629,1649,1670,1689,1709,1729,1749,1770,1789,1809,1830,1849,1869,1889,1909,1929,1949,1969,1990,2009,2029,2049,2069,2089,2109,2129,2149,2169,2189,2209,2229,2249,2269,2289,2309,2329,2348,2370,2389,2409,2429,2450,2469,2490,2509,2529,2549,2570,2589,2609,2629],"xSR":741.5,"ySR":573.95,"xT1":424.9,"yT1":0,"xT2":1058.1,"yT2":0,"toosoon":0,"cond_shown":"Congruent","ratio_trial":100,"L_num":6,"L_den":12,"R_num":15,"R_den":25,"correct_side":2,"subjID":"paulavaleriabarbosahernandez18","gender":"1","school":"sexto","age":"11"},{"start_time":1551887063430,"click_time":1551887065905,"finger_time":1551887064965,"fix_duration":484.44100790037004,"trial":16,"RT":1535,"MT":940,"sideResp":2,"stimulus":[],"xmouse":[787,787,787,787,787,787,787,787,787,787,787,787,787,787,787,787,787,787,787,787,787,787,787,787,787,787,787,787,787,787,787,787,787,787,787,787,787,787,787,787,787,787,787,787,787,787,787,787,787,787,787,787,787,787,787,787,787,787,787,787,787,787,787,787,787,787,787,787,787,787,787,787,787,787,787,805,827,849,871,887,908,913,916,921,929,944,951,953,954,954,955,956,956,956,956,956,956,956,956,956,956,956,956,956,956,956,956,956,956,956,956,956,956,956,956,956,956,956,956,956,956,993,1031,1077],"ymouse":[606,606,606,606,606,606,606,606,606,606,606,606,606,606,606,606,606,606,606,606,606,606,606,606,606,606,606,606,606,606,606,606,606,606,606,606,606,606,606,606,606,606,606,606,606,606,606,606,606,606,606,606,606,606,606,606,606,606,606,606,606,606,606,606,606,606,606,606,606,606,606,606,606,606,606,593,569,534,495,468,430,418,407,387,362,315,301,294,290,288,286,284,284,284,284,284,284,284,284,284,284,284,284,284,284,284,284,284,284,284,284,284,284,284,284,284,284,284,284,284,284,233,159,82],"timestamp_mouse":[28,35,55,75,95,115,135,155,176,195,216,235,255,275,295,315,335,355,375,395,415,435,455,475,495,515,535,555,575,595,615,635,655,675,695,715,735,755,775,795,815,835,855,875,896,915,935,955,975,995,1016,1035,1055,1075,1095,1115,1135,1155,1175,1195,1215,1235,1255,1275,1295,1315,1335,1355,1375,1396,1415,1435,1455,1475,1495,1516,1535,1555,1575,1595,1615,1635,1654,1675,1695,1715,1735,1755,1775,1796,1815,1835,1855,1875,1895,1916,1935,1955,1975,1995,2015,2036,2055,2075,2095,2116,2135,2155,2175,2195,2216,2235,2257,2275,2295,2315,2335,2355,2375,2395,2415,2435,2455,2475],"xSR":741.5,"ySR":573.95,"xT1":424.9,"yT1":0,"xT2":1058.1,"yT2":0,"toosoon":0,"cond_shown":"Incongruent","ratio_trial":100,"L_num":11,"L_den":22,"R_num":9,"R_den":15,"correct_side":2,"subjID":"paulavaleriabarbosahernandez18","gender":"1","school":"sexto","age":"11"},{"start_time":1551887068472,"click_time":1551887072925,"finger_time":1551887072605,"fix_duration":965.2908075757691,"trial":17,"RT":4133,"MT":320,"sideResp":2,"stimulus":[],"xmouse":[787,787,787,787,787,787,787,787,787,787,787,787,787,787,787,787,787,787,787,787,787,787,787,787,787,787,787,787,787,787,787,787,787,787,787,787,787,787,787,787,787,787,787,787,787,787,787,787,787,787,787,787,787,787,787,787,787,787,787,787,787,787,787,787,787,787,787,787,787,787,787,787,787,787,787,787,787,787,787,787,787,787,787,787,787,787,787,787,787,787,787,787,787,787,787,787,787,787,787,787,787,787,787,787,787,787,787,787,787,787,787,787,787,787,787,787,787,787,787,787,787,787,787,787,787,787,787,787,787,787,787,787,787,787,787,787,787,787,787,787,787,787,787,787,787,787,787,787,787,787,787,787,787,787,787,787,787,787,787,787,787,787,787,787,787,787,787,787,787,787,787,787,787,787,787,787,787,787,787,787,787,787,787,787,787,787,787,787,787,787,787,787,787,787,787,787,787,787,788,789,799,816,826,826,828,829,843,869,909,967,996,1013,1017,1004,1000,1000,1000,1000,1000,1000,1008,1035,1068],"ymouse":[618,618,618,618,618,618,618,618,618,618,618,618,618,618,618,618,618,618,618,618,618,618,618,618,618,618,618,618,618,618,618,618,618,618,618,618,618,618,618,618,618,618,618,618,618,618,618,618,618,618,618,618,618,618,618,618,618,618,618,618,618,618,618,618,618,618,618,618,618,618,618,618,618,618,618,618,618,618,618,618,618,618,618,618,618,618,618,618,618,618,618,618,618,618,618,618,618,618,618,618,618,618,618,618,618,618,618,618,618,618,618,618,618,618,618,618,618,618,618,618,618,618,618,618,618,618,618,618,618,618,618,618,618,618,618,618,618,618,618,618,618,618,618,618,618,618,618,618,618,618,618,618,618,618,618,618,618,618,618,618,618,618,618,618,618,618,618,618,618,618,618,618,618,618,618,618,618,618,618,618,618,618,618,618,618,618,618,618,618,618,618,618,618,618,618,618,618,618,618,617,608,600,595,595,595,593,576,540,483,315,192,65,0,0,0,0,0,0,0,0,8,21,35],"timestamp_mouse":[17,36,53,73,93,113,133,153,173,193,213,234,254,273,293,313,333,353,373,393,413,433,454,473,494,513,533,553,573,593,613,633,653,673,693,713,734,753,773,793,813,834,854,873,894,913,933,953,973,993,1014,1033,1053,1073,1093,1113,1133,1153,1173,1194,1213,1233,1253,1273,1293,1313,1333,1353,1373,1393,1413,1433,1453,1473,1493,1513,1533,1553,1573,1594,1613,1633,1653,1673,1693,1714,1733,1753,1773,1793,1813,1833,1853,1873,1893,1913,1933,1953,1974,1993,2014,2033,2053,2073,2094,2113,2133,2154,2173,2193,2214,2233,2253,2273,2293,2313,2333,2353,2373,2393,2413,2433,2453,2473,2493,2513,2533,2553,2573,2593,2613,2633,2653,2673,2693,2714,2734,2753,2773,2793,2814,2833,2854,2873,2893,2913,2934,2953,2973,2993,3013,3033,3053,3073,3093,3113,3133,3153,3174,3193,3213,3233,3253,3274,3293,3313,3333,3354,3373,3393,3413,3434,3453,3473,3493,3513,3533,3553,3573,3593,3613,3633,3653,3673,3693,3713,3733,3753,3773,3793,3813,3833,3853,3873,3894,3913,3933,3953,3973,3994,4013,4033,4053,4074,4093,4113,4133,4154,4173,4194,4213,4233,4253,4274,4293,4313,4333,4354,4373,4393,4413,4434,4453],"xSR":741.5,"ySR":573.95,"xT1":424.9,"yT1":0,"xT2":1058.1,"yT2":0,"toosoon":0,"cond_shown":"Congruent","ratio_trial":300,"L_num":12,"L_den":24,"R_num":2,"R_den":10,"correct_side":1,"subjID":"paulavaleriabarbosahernandez18","gender":"1","school":"sexto","age":"11"},{"start_time":1551887087213,"click_time":1551887090105,"finger_time":1551887088705,"fix_duration":447.6570443039145,"trial":18,"RT":1492,"MT":1400,"sideResp":1,"stimulus":[],"xmouse":[766,766,766,766,766,766,766,766,766,766,766,766,766,766,766,766,766,766,766,766,766,766,767,768,768,769,769,769,769,769,769,769,769,769,769,769,769,769,769,769,769,769,769,769,769,769,769,769,769,769,769,769,769,769,769,769,769,769,769,769,769,769,769,769,769,769,769,769,769,769,769,770,774,782,785,789,797,797,797,797,797,797,797,797,797,797,797,797,797,797,797,797,797,797,797,797,797,797,797,797,797,797,797,797,797,797,797,797,797,797,797,797,797,797,797,797,797,797,788,757,746,677,649,633,623,612,585,540,473,417,382,363,354,354,354,352,350,351,363,376,384,393,398,412,434],"ymouse":[630,630,630,630,630,630,630,630,630,630,630,630,630,630,630,630,630,630,630,630,630,630,629,627,625,624,624,624,624,624,624,624,624,624,624,624,624,624,624,624,624,624,624,624,624,624,624,624,624,624,624,624,624,624,624,624,624,624,624,624,624,624,624,624,624,624,624,624,624,624,624,623,606,579,571,568,563,563,563,563,563,563,563,563,563,563,563,563,563,563,563,563,563,563,563,563,563,563,563,563,563,563,563,563,563,563,563,563,563,563,563,563,563,563,563,563,563,560,536,467,448,349,322,308,298,287,263,239,213,202,200,200,200,200,200,198,193,175,156,142,134,126,120,108,88],"timestamp_mouse":[12,32,52,72,92,112,132,152,172,192,212,232,253,272,292,312,332,352,372,392,412,432,452,472,492,513,533,552,572,592,612,632,652,672,693,712,732,752,772,792,812,832,852,872,892,911,932,952,973,992,1012,1033,1052,1072,1092,1112,1132,1152,1172,1192,1212,1232,1252,1272,1292,1312,1332,1352,1372,1392,1412,1432,1452,1472,1492,1512,1532,1552,1572,1592,1612,1633,1652,1672,1692,1712,1733,1752,1773,1792,1812,1833,1852,1872,1892,1912,1932,1952,1972,1992,2012,2032,2052,2072,2092,2112,2133,2152,2172,2192,2212,2233,2252,2272,2292,2312,2332,2353,2372,2392,2413,2432,2452,2472,2492,2512,2532,2552,2572,2592,2612,2632,2652,2672,2692,2712,2733,2752,2773,2793,2812,2833,2853,2872,2892],"xSR":741.5,"ySR":573.95,"xT1":424.9,"yT1":0,"xT2":1058.1,"yT2":0,"toosoon":0,"cond_shown":"Congruent","ratio_trial":100,"L_num":7,"L_den":14,"R_num":9,"R_den":15,"correct_side":2,"subjID":"paulavaleriabarbosahernandez18","gender":"1","school":"sexto","age":"11"},{"start_time":1551887096207,"click_time":1551887100185,"finger_time":1551887099485,"fix_duration":940.3168317487329,"trial":19,"RT":3278,"MT":700,"sideResp":1,"stimulus":[],"xmouse":[779,779,779,779,779,779,779,779,779,779,779,779,779,779,779,779,779,779,779,779,779,779,779,779,779,779,779,779,779,779,779,779,779,779,779,779,779,779,779,779,779,779,779,779,779,779,779,779,779,779,779,779,779,779,779,779,779,779,779,779,779,779,779,779,779,779,779,779,779,779,779,779,779,779,779,779,779,779,779,779,779,779,779,779,779,779,779,779,779,779,779,779,779,779,779,779,779,779,779,779,779,779,779,779,779,779,779,779,779,779,779,779,779,779,779,779,779,779,779,779,779,779,779,779,779,779,779,779,779,779,779,779,779,779,779,779,779,779,779,779,779,779,779,779,779,779,779,779,779,779,779,779,779,779,779,779,779,779,779,779,779,779,779,775,764,742,715,696,694,692,685,680,670,666,656,645,634,599,579,557,550,550,550,550,550,550,550,550,550,550,550,548,544,542,541,536,531,525,524],"ymouse":[606,606,606,606,606,606,606,606,606,606,606,606,606,606,606,606,606,606,606,606,606,606,606,606,606,606,606,606,606,606,606,606,606,606,606,606,606,606,606,606,606,606,606,606,606,606,606,606,606,606,606,606,606,606,606,606,606,606,606,606,606,606,606,606,606,606,606,606,606,606,606,606,606,606,606,606,606,606,606,606,606,606,606,606,606,606,606,606,606,606,606,606,606,606,606,606,606,606,606,606,606,606,606,606,606,606,606,606,606,606,606,606,606,606,606,606,606,606,606,606,606,606,606,606,604,602,601,601,601,601,601,601,601,601,601,601,601,601,601,601,601,601,601,601,601,601,601,601,601,601,601,601,601,601,601,601,601,601,601,601,601,601,597,563,484,383,288,212,200,185,155,136,114,108,98,88,80,58,49,42,40,40,40,40,40,40,40,40,40,40,40,40,40,41,42,43,46,48,48],"timestamp_mouse":[18,38,58,78,98,118,138,158,178,199,218,239,259,278,298,318,338,358,378,398,418,438,458,480,498,518,539,558,579,598,619,638,658,678,699,718,739,758,778,799,818,838,858,878,898,918,938,958,978,998,1019,1038,1058,1078,1098,1118,1138,1159,1178,1198,1218,1238,1258,1278,1298,1318,1338,1358,1378,1398,1418,1438,1458,1479,1498,1518,1539,1559,1579,1598,1618,1638,1659,1678,1698,1719,1738,1758,1778,1798,1819,1838,1858,1878,1898,1919,1938,1958,1978,1998,2018,2039,2058,2078,2098,2119,2138,2158,2178,2199,2218,2239,2258,2278,2298,2318,2338,2358,2378,2398,2418,2438,2458,2478,2499,2518,2538,2558,2578,2598,2618,2638,2658,2678,2699,2718,2738,2758,2778,2799,2819,2838,2858,2878,2898,2918,2942,2958,2978,2998,3018,3038,3058,3078,3098,3118,3138,3158,3178,3198,3218,3239,3258,3278,3299,3318,3339,3358,3379,3398,3418,3438,3458,3477,3498,3518,3538,3558,3579,3598,3618,3638,3658,3678,3698,3718,3739,3758,3778,3798,3819,3838,3858,3878,3898,3918,3938,3958,3978],"xSR":741.5,"ySR":573.95,"xT1":424.9,"yT1":0,"xT2":1058.1,"yT2":0,"toosoon":0,"cond_shown":"Incongruent","ratio_trial":200,"L_num":3,"L_den":4,"R_num":11,"R_den":20,"correct_side":1,"subjID":"paulavaleriabarbosahernandez18","gender":"1","school":"sexto","age":"11"},{"start_time":1551887102175,"click_time":1551887104505,"finger_time":1551887103665,"fix_duration":488.6857120925253,"trial":20,"RT":1490,"MT":840,"sideResp":1,"stimulus":[],"xmouse":[755,755,756,757,758,759,760,761,762,763,763,764,764,764,764,764,764,764,764,764,764,764,764,764,764,764,764,764,764,764,764,764,764,764,764,764,764,764,764,764,764,764,764,764,764,764,764,764,764,764,764,764,764,764,764,764,764,764,764,764,764,764,764,764,764,764,764,764,764,764,764,764,764,764,745,723,698,676,653,608,589,555,544,510,391,326,282,228,181,181,181,181,181,180,187,204,240,306,505,615,703,743,747,740,728,720,717,714,709,679,655,624,568,531,526,525,524],"ymouse":[652,652,652,652,651,651,651,651,650,650,650,650,650,650,650,650,650,650,650,650,650,650,650,650,650,650,650,650,650,650,650,650,650,650,650,650,650,650,650,650,650,650,650,650,650,650,650,650,650,650,650,650,650,650,650,650,650,650,650,650,650,650,650,650,650,650,650,650,650,650,650,650,650,649,557,496,444,409,378,324,301,273,265,248,221,213,206,191,179,179,179,179,179,178,176,168,143,93,0,0,0,0,0,0,0,0,0,0,3,18,31,46,71,87,88,89,89],"timestamp_mouse":[10,33,50,70,90,111,131,150,171,190,210,230,250,270,290,310,331,350,370,390,410,430,450,470,490,510,530,550,570,590,610,630,650,670,690,710,730,750,771,790,810,830,850,870,890,911,931,950,970,990,1010,1030,1050,1070,1090,1110,1130,1151,1170,1190,1210,1230,1250,1270,1290,1310,1330,1350,1370,1390,1410,1430,1450,1470,1490,1511,1530,1550,1570,1590,1610,1630,1650,1670,1691,1710,1730,1751,1770,1791,1811,1830,1850,1870,1890,1910,1930,1950,1971,1990,2010,2030,2051,2072,2090,2110,2130,2150,2170,2191,2210,2230,2250,2271,2290,2310,2330],"xSR":741.5,"ySR":573.95,"xT1":424.9,"yT1":0,"xT2":1058.1,"yT2":0,"toosoon":0,"cond_shown":"Incongruent","ratio_trial":100,"L_num":6,"L_den":10,"R_num":11,"R_den":22,"correct_side":1,"subjID":"paulavaleriabarbosahernandez18","gender":"1","school":"sexto","age":"11"},{"start_time":1551887106556,"click_time":1551887110066,"finger_time":1551887109545,"fix_duration":609.6048842329319,"trial":21,"RT":2989,"MT":521,"sideResp":2,"stimulus":[],"xmouse":[800,800,800,800,800,800,800,800,800,800,800,800,800,800,800,800,800,800,800,800,800,800,800,800,800,800,800,800,800,800,800,800,800,800,800,800,800,800,800,800,800,800,800,800,800,800,800,800,800,800,800,800,800,800,800,800,800,800,800,800,800,800,800,800,800,800,800,800,800,800,800,800,800,800,800,800,800,800,800,800,800,800,800,800,800,800,800,800,800,800,800,800,800,800,800,800,800,800,800,800,800,800,800,800,800,800,800,800,800,800,800,800,800,800,800,800,800,800,800,800,800,800,800,800,800,800,800,800,800,800,800,800,800,800,800,800,800,800,800,800,800,800,800,800,800,800,800,805,814,850,993,1069,1138,1220,1268,1323,1329,1329,1328,1314,1303,1289,1270,1236,1215,1176,1170,1167,1167,1167,1167,1167,1167,1165,1159,1121],"ymouse":[604,604,604,604,604,604,604,604,604,604,604,604,604,604,604,604,604,604,604,604,604,604,604,604,604,604,604,604,604,604,604,604,604,604,604,604,604,604,604,604,604,604,604,604,604,604,604,604,604,604,604,604,604,604,604,604,604,604,604,604,604,604,604,604,604,604,604,604,604,604,604,604,604,604,604,604,604,604,604,604,604,604,604,604,604,604,604,604,604,604,604,604,604,604,604,604,604,604,604,604,604,604,604,604,604,604,604,604,604,604,604,604,604,604,604,604,604,604,604,604,604,604,604,604,604,604,604,604,604,604,604,604,604,604,604,604,604,604,604,604,604,604,604,604,604,604,604,598,590,559,431,359,278,149,51,0,0,0,0,0,0,0,0,0,0,0,0,0,0,0,0,0,0,2,8,67],"timestamp_mouse":[15,34,49,70,89,109,129,149,169,189,209,229,249,269,289,309,329,349,369,390,409,429,449,469,489,509,529,549,569,589,610,629,649,669,690,709,729,749,769,789,809,829,849,869,889,909,929,949,969,989,1009,1029,1049,1069,1089,1110,1129,1149,1169,1189,1209,1229,1249,1269,1290,1309,1329,1349,1369,1389,1409,1429,1449,1469,1489,1509,1529,1549,1570,1589,1609,1629,1650,1670,1689,1709,1729,1749,1769,1789,1809,1830,1849,1869,1890,1909,1929,1949,1969,1989,2009,2029,2050,2070,2089,2109,2129,2149,2169,2189,2210,2229,2249,2269,2289,2309,2329,2349,2369,2389,2409,2429,2449,2469,2489,2509,2529,2550,2569,2589,2610,2629,2649,2669,2689,2709,2729,2749,2769,2789,2809,2829,2849,2869,2890,2909,2929,2949,2969,2989,3009,3029,3049,3070,3089,3110,3129,3149,3169,3190,3209,3230,3249,3269,3289,3309,3329,3349,3369,3390,3409,3429,3449,3470,3489,3510],"xSR":741.5,"ySR":573.95,"xT1":424.9,"yT1":0,"xT2":1058.1,"yT2":0,"toosoon":0,"cond_shown":"Incongruent","ratio_trial":200,"L_num":7,"L_den":15,"R_num":6,"R_den":9,"correct_side":2,"subjID":"paulavaleriabarbosahernandez18","gender":"1","school":"sexto","age":"11"},{"start_time":1551887112345,"click_time":1551887115585,"finger_time":1551887113765,"fix_duration":1019.9637265176015,"trial":22,"RT":1420,"MT":1820,"sideResp":1,"stimulus":[],"xmouse":[781,781,781,781,781,781,781,781,781,781,781,781,781,781,781,781,781,781,781,781,781,781,781,781,781,781,781,781,781,781,781,781,781,781,781,781,781,781,781,781,781,781,781,781,781,781,781,781,781,781,781,781,781,781,781,781,781,781,781,781,781,781,781,781,781,781,781,781,781,777,769,736,729,726,723,723,722,722,722,722,722,722,722,722,722,722,722,722,722,722,722,722,722,722,722,722,722,722,722,722,722,722,722,722,722,722,722,722,722,722,722,722,722,722,722,722,722,722,722,722,722,722,722,722,722,722,722,722,722,722,722,722,722,722,722,722,661,614,564,511,461,389,380,376,375,375,375,375,375,375,375,376,377,380,384,387,389,389,389,389,395,409,443],"ymouse":[627,627,627,627,627,627,627,627,627,627,627,627,627,627,627,627,627,627,627,627,627,627,627,627,627,627,627,627,627,627,627,627,627,627,627,627,627,627,627,627,627,627,627,627,627,627,627,627,627,627,627,627,627,627,627,627,627,627,627,627,627,627,627,627,627,627,627,627,627,606,579,462,447,443,440,440,438,438,438,438,438,438,438,438,438,438,438,438,438,438,438,438,438,438,438,438,438,438,438,438,438,438,438,438,438,438,438,438,438,438,438,438,438,438,438,438,438,438,438,438,438,438,438,438,438,438,438,438,438,438,438,438,438,438,438,438,360,306,264,227,198,167,163,161,161,161,160,158,157,155,152,148,141,132,121,106,94,93,93,93,83,68,32],"timestamp_mouse":[6,31,40,60,80,100,120,140,160,180,200,220,240,260,280,300,320,341,360,380,401,420,440,460,481,500,521,540,560,580,601,620,641,660,680,700,720,740,760,780,800,820,841,861,880,901,920,940,960,980,999,1021,1040,1060,1080,1100,1120,1140,1160,1180,1200,1220,1240,1260,1280,1300,1320,1340,1360,1380,1400,1420,1440,1460,1480,1500,1520,1540,1560,1580,1601,1622,1640,1660,1680,1700,1721,1740,1760,1780,1800,1820,1840,1860,1880,1901,1920,1940,1961,1980,2001,2021,2040,2060,2080,2100,2121,2140,2161,2180,2201,2220,2240,2260,2280,2300,2320,2340,2360,2380,2400,2420,2440,2460,2480,2500,2520,2540,2560,2580,2600,2621,2640,2661,2681,2700,2720,2739,2760,2780,2800,2820,2840,2861,2880,2901,2920,2943,2960,2980,3000,3020,3040,3061,3080,3100,3120,3140,3160,3180,3201,3220,3240],"xSR":741.5,"ySR":573.95,"xT1":424.9,"yT1":0,"xT2":1058.1,"yT2":0,"toosoon":0,"cond_shown":"Incongruent","ratio_trial":100,"L_num":6,"L_den":10,"R_num":13,"R_den":26,"correct_side":1,"subjID":"paulavaleriabarbosahernandez18","gender":"1","school":"sexto","age":"11"},{"start_time":1551887120934,"click_time":1551887122845,"finger_time":1551887122324,"fix_duration":267.4945114812607,"trial":23,"RT":1390,"MT":521,"sideResp":2,"stimulus":[],"xmouse":[797,797,797,797,797,797,797,797,797,797,797,797,797,797,797,797,797,797,797,797,797,797,797,797,797,797,797,797,797,797,797,797,797,797,797,797,797,797,797,797,797,797,797,797,797,797,797,797,797,797,797,797,797,797,797,797,797,797,797,797,797,797,797,797,797,797,797,799,801,805,821,827,831,832,833,833,835,836,840,845,855,884,906,928,959,999,1038,1049,1059,1062,1062,1062,1062,1062,1062,1062],"ymouse":[618,618,618,618,618,618,618,618,618,618,618,618,618,618,618,618,618,618,618,618,618,618,618,618,618,618,618,618,618,618,618,618,618,618,618,618,618,618,618,618,618,618,618,618,618,618,618,618,618,618,618,618,618,618,618,618,618,618,618,618,618,618,618,618,617,616,613,602,581,550,438,397,370,352,341,329,312,305,288,269,251,201,170,139,100,47,0,0,0,0,0,0,0,0,0,1],"timestamp_mouse":[11,31,51,71,90,110,130,151,171,191,211,231,251,271,290,311,331,351,371,391,410,430,451,471,491,511,530,550,571,591,611,631,650,671,690,710,730,750,770,790,810,830,851,870,890,911,931,951,971,991,1011,1030,1050,1071,1090,1111,1131,1151,1171,1191,1210,1231,1251,1271,1291,1310,1330,1350,1370,1390,1412,1430,1450,1472,1492,1510,1531,1551,1571,1592,1610,1630,1651,1670,1691,1711,1731,1750,1770,1790,1810,1832,1851,1872,1891,1911],"xSR":741.5,"ySR":573.95,"xT1":424.9,"yT1":0,"xT2":1058.1,"yT2":0,"toosoon":0,"cond_shown":"Congruent","ratio_trial":100,"L_num":12,"L_den":30,"R_num":13,"R_den":26,"correct_side":2,"subjID":"paulavaleriabarbosahernandez18","gender":"1","school":"sexto","age":"11"},{"start_time":1551887125515,"click_time":1551887128065,"finger_time":1551887127746,"fix_duration":1488.0886509224451,"trial":24,"RT":2231,"MT":319,"sideResp":2,"stimulus":[],"xmouse":[796,796,796,796,796,796,796,796,796,796,796,796,796,796,796,796,796,796,796,796,796,796,796,796,796,796,796,796,796,796,796,796,796,796,796,796,796,796,796,796,796,796,796,796,796,796,796,796,796,796,796,796,796,796,796,796,796,796,796,796,796,796,796,796,796,796,796,796,796,796,796,796,796,796,796,796,796,796,796,796,796,796,796,796,796,796,796,796,796,796,796,796,796,796,796,795,795,795,794,792,787,784,784,784,784,784,784,784,784,786,791,810,920,986,1076,1097,1169,1183,1183,1184,1184,1185,1185,1182,1179,1167,1139,1119],"ymouse":[622,622,622,622,622,622,622,622,622,622,622,622,622,622,622,622,622,622,622,622,622,622,622,622,622,622,622,622,622,622,622,622,622,622,622,622,622,622,622,622,622,622,622,622,622,622,622,622,622,622,622,622,622,622,622,622,622,622,622,622,622,622,622,622,622,622,622,622,622,622,622,622,622,622,622,622,622,622,622,622,622,622,622,622,622,622,622,622,622,622,622,622,622,622,622,621,621,621,620,618,614,611,610,610,610,610,610,610,610,600,592,553,401,306,183,141,21,0,0,0,0,0,0,0,0,0,0,4],"timestamp_mouse":[9,30,50,69,89,110,129,149,169,191,210,230,250,269,290,310,329,349,370,390,410,430,450,470,490,510,529,549,569,589,610,630,649,669,691,710,729,749,770,789,810,830,851,870,889,909,930,950,969,990,1011,1031,1049,1069,1090,1110,1130,1149,1170,1190,1210,1231,1250,1271,1290,1309,1330,1349,1369,1391,1410,1430,1449,1469,1490,1510,1530,1550,1570,1590,1609,1629,1650,1670,1690,1710,1731,1750,1770,1790,1810,1830,1849,1870,1890,1910,1931,1951,1970,1989,2010,2030,2051,2070,2089,2111,2130,2149,2169,2190,2209,2231,2250,2270,2291,2310,2331,2350,2369,2391,2409,2430,2449,2471,2489,2510,2531,2549],"xSR":741.5,"ySR":573.95,"xT1":424.9,"yT1":0,"xT2":1058.1,"yT2":0,"toosoon":0,"cond_shown":"Congruent","ratio_trial":100,"L_num":11,"L_den":22,"R_num":4,"R_den":10,"correct_side":1,"subjID":"paulavaleriabarbosahernandez18","gender":"1","school":"sexto","age":"11"},{"start_time":1551887129902,"click_time":1551887133665,"finger_time":1551887132084,"fix_duration":556.1843915409631,"trial":25,"RT":2182,"MT":1581,"sideResp":1,"stimulus":[],"xmouse":[801,801,801,801,801,801,801,801,801,801,801,801,801,801,801,801,801,801,801,801,801,801,801,801,801,801,801,801,801,801,801,801,801,801,801,801,801,801,801,801,801,801,801,801,801,801,801,801,801,801,801,801,801,801,801,801,801,801,801,801,801,801,801,801,801,801,801,801,801,801,801,801,801,801,801,801,801,801,801,801,801,801,801,801,801,801,801,801,801,801,801,801,801,801,801,801,801,801,801,801,801,801,801,801,801,801,799,788,747,715,679,647,618,567,550,531,509,496,481,471,460,452,444,442,440,438,436,434,426,422,421,421,421,421,421,421,432,456,461,464,467,476,496,625,696,754,850,884,957,967,967,967,967,967,976,1000,1026,1028,1028,1028,1028,1028,1028,1026,1027,1028,1028,1028,1028,1028,1028,1028,1015,923,849,763,596,540,386,380,379,379,379,376,375,375,375,414,443],"ymouse":[648,648,648,648,648,648,648,648,648,648,648,648,648,648,648,648,648,648,648,648,648,648,648,648,648,648,648,648,648,648,648,648,648,648,648,648,648,648,648,648,648,648,648,648,648,648,648,648,648,648,648,648,648,648,648,648,648,648,648,648,648,648,648,648,648,648,648,648,648,648,648,648,648,648,648,648,648,648,648,648,648,648,648,648,648,648,648,648,648,648,648,648,648,648,648,648,648,648,648,648,648,648,648,648,648,646,645,634,587,549,513,487,463,425,410,393,375,365,347,333,313,293,257,245,235,226,211,202,184,178,177,177,177,177,177,179,190,210,212,215,219,228,247,340,389,423,465,472,482,486,486,486,486,487,501,562,756,778,778,778,778,778,778,767,763,761,761,761,761,761,761,760,745,611,498,371,166,108,0,0,0,0,0,0,0,0,0,13,26],"timestamp_mouse":[6,23,44,63,83,102,124,142,163,184,203,223,242,263,283,303,322,344,362,384,403,424,443,462,482,503,524,543,563,583,603,624,642,662,683,703,723,743,763,782,802,823,843,863,883,902,923,943,963,983,1003,1022,1043,1064,1084,1102,1122,1144,1163,1183,1202,1223,1243,1263,1283,1302,1322,1343,1363,1382,1402,1423,1444,1463,1484,1503,1523,1543,1562,1582,1602,1622,1642,1663,1683,1703,1722,1742,1763,1783,1803,1822,1842,1863,1882,1903,1924,1942,1962,1982,2003,2023,2043,2062,2082,2103,2123,2142,2162,2182,2202,2224,2243,2262,2282,2302,2323,2343,2363,2382,2403,2422,2443,2462,2482,2502,2522,2542,2563,2582,2603,2623,2644,2663,2683,2702,2722,2743,2762,2783,2803,2822,2842,2863,2882,2903,2922,2942,2962,2982,3003,3023,3042,3063,3083,3102,3122,3143,3163,3184,3203,3223,3244,3262,3283,3303,3323,3343,3364,3383,3403,3422,3444,3464,3483,3503,3522,3544,3563,3582,3602,3623,3644,3663,3683,3703,3723,3743,3763],"xSR":741.5,"ySR":573.95,"xT1":424.9,"yT1":0,"xT2":1058.1,"yT2":0,"toosoon":0,"cond_shown":"Congruent","ratio_trial":300,"L_num":8,"L_den":16,"R_num":1,"R_den":5,"correct_side":1,"subjID":"paulavaleriabarbosahernandez18","gender":"1","school":"sexto","age":"11"},{"start_time":1551887137081,"click_time":1551887139005,"finger_time":1551887138464,"fix_duration":1496.7612077571307,"trial":26,"RT":1383,"MT":541,"sideResp":1,"stimulus":[],"xmouse":[810,810,810,810,810,810,810,810,810,810,810,810,810,810,810,810,810,810,810,810,810,810,810,810,810,810,810,810,810,810,810,810,810,810,810,810,810,810,810,810,810,810,810,810,810,810,810,810,810,810,810,810,810,810,810,810,810,810,810,810,810,810,810,810,810,810,810,803,788,678,649,622,607,595,558,519,456,359,301,251,250,256,263,281,284,286,287,292,292,292,292,292,293,344,380,415,430],"ymouse":[624,624,624,624,624,624,624,624,624,624,624,624,624,624,624,624,624,624,624,624,624,624,624,624,624,624,624,624,624,624,624,624,624,624,624,624,624,624,624,624,624,624,624,624,624,624,624,624,624,624,624,624,624,624,624,624,624,624,624,624,624,624,624,624,624,624,624,624,628,638,631,619,614,610,598,583,553,459,380,227,145,65,28,0,0,0,0,0,0,0,0,0,0,34,60,79,83],"timestamp_mouse":[8,28,44,64,85,104,123,144,164,184,204,224,244,265,283,304,324,344,364,383,403,423,444,464,484,504,524,544,563,583,604,624,644,663,683,704,724,744,763,783,805,824,844,863,883,904,924,943,964,983,1004,1025,1043,1063,1084,1104,1123,1143,1163,1183,1204,1224,1244,1264,1284,1304,1324,1344,1364,1383,1403,1424,1443,1463,1484,1505,1523,1543,1564,1583,1603,1624,1643,1664,1684,1704,1724,1743,1765,1784,1804,1824,1843,1864,1883,1904,1924],"xSR":741.5,"ySR":573.95,"xT1":424.9,"yT1":0,"xT2":1058.1,"yT2":0,"toosoon":0,"cond_shown":"Congruent","ratio_trial":200,"L_num":20,"L_den":25,"R_num":9,"R_den":15,"correct_side":1,"subjID":"paulavaleriabarbosahernandez18","gender":"1","school":"sexto","age":"11"},{"start_time":1551887140923,"click_time":1551887143285,"finger_time":1551887142665,"fix_duration":637.9138472863003,"trial":27,"RT":1742,"MT":620,"sideResp":1,"stimulus":[],"xmouse":[791,791,791,791,793,793,793,793,793,793,793,793,793,793,793,793,793,793,793,793,793,793,793,793,793,793,793,793,793,793,793,793,793,794,794,794,794,795,796,796,796,796,796,796,796,796,796,796,796,796,796,796,796,796,796,796,796,796,796,796,796,796,796,796,796,796,796,796,796,796,796,796,796,796,796,796,796,796,796,796,796,796,796,796,796,796,794,776,765,751,731,580,464,339,231,154,134,114,113,113,113,113,114,130,183,316,425,601,632,634,634,634,632,623,607,579,549,531,508],"ymouse":[600,600,600,600,604,604,604,604,604,604,604,604,604,604,604,604,604,604,604,604,604,604,604,604,604,604,604,604,604,604,604,604,604,604,604,604,604,603,601,601,601,601,601,601,601,600,600,600,600,599,599,599,599,599,599,599,599,599,599,599,599,599,599,599,599,599,599,599,599,599,599,599,599,599,599,599,599,599,599,599,599,599,599,599,599,598,587,549,531,511,488,351,271,185,106,63,56,49,49,49,49,49,47,35,0,0,0,0,0,0,0,0,0,1,5,15,31,38,48],"timestamp_mouse":[8,33,42,62,82,102,122,142,161,182,201,221,241,263,281,301,322,342,362,383,402,422,442,462,482,502,522,542,561,581,602,622,642,661,681,702,722,741,761,783,802,822,841,863,882,903,921,942,962,982,1001,1021,1043,1062,1082,1101,1122,1142,1162,1181,1202,1222,1242,1262,1282,1301,1323,1342,1361,1382,1402,1422,1442,1461,1481,1501,1522,1542,1562,1581,1601,1622,1642,1662,1682,1701,1721,1742,1761,1782,1802,1822,1842,1863,1883,1901,1922,1941,1961,1982,2001,2021,2041,2061,2083,2101,2121,2141,2161,2182,2202,2223,2241,2262,2281,2302,2323,2342,2361],"xSR":741.5,"ySR":573.95,"xT1":424.9,"yT1":0,"xT2":1058.1,"yT2":0,"toosoon":0,"cond_shown":"Congruent","ratio_trial":300,"L_num":11,"L_den":22,"R_num":1,"R_den":5,"correct_side":1,"subjID":"paulavaleriabarbosahernandez18","gender":"1","school":"sexto","age":"11"},{"start_time":1551887145347,"click_time":1551887147924,"finger_time":1551887147346,"fix_duration":821.1654644953528,"trial":28,"RT":1999,"MT":578,"sideResp":2,"stimulus":[],"xmouse":[779,779,779,779,779,779,779,779,779,779,779,779,779,779,779,779,779,779,779,779,779,779,779,779,779,779,779,779,779,779,779,779,779,779,779,779,779,779,779,779,779,779,779,779,779,779,779,779,779,779,779,779,779,779,779,779,779,779,779,779,779,779,779,779,779,779,779,779,779,779,779,779,779,779,779,779,779,779,779,779,779,779,779,779,779,779,779,779,779,779,779,779,779,779,779,779,779,781,783,789,793,797,800,809,819,851,871,892,912,933,935,937,945,949,959,970,980,988,996,1005,1009,1018,1027,1045,1053,1055,1055,1056,1059],"ymouse":[609,609,609,609,609,609,609,609,609,609,609,609,609,609,609,609,609,609,609,609,609,609,609,609,609,609,609,609,609,609,609,609,609,609,609,609,609,609,609,609,609,609,609,609,609,609,609,609,609,609,609,609,609,609,609,609,609,609,609,609,609,609,609,609,609,609,609,609,609,609,609,609,609,609,609,609,609,609,609,609,609,609,609,609,609,609,609,609,609,609,609,609,609,609,609,609,605,596,584,568,559,550,541,520,497,424,376,328,279,208,190,175,149,133,105,84,67,55,47,43,41,40,37,32,30,30,30,30,30],"timestamp_mouse":[32,38,58,78,99,117,137,158,179,198,217,239,257,278,298,318,338,358,378,398,418,437,459,477,497,518,538,558,578,597,618,638,657,677,697,717,738,758,778,799,818,838,858,878,898,917,937,957,977,997,1018,1038,1058,1078,1099,1118,1138,1157,1178,1198,1218,1239,1258,1277,1298,1317,1337,1357,1378,1398,1418,1438,1458,1478,1497,1517,1538,1558,1577,1597,1617,1638,1658,1677,1697,1718,1738,1758,1777,1799,1818,1839,1859,1878,1899,1918,1937,1957,1978,1999,2018,2038,2057,2077,2097,2119,2137,2158,2177,2198,2217,2237,2257,2278,2299,2317,2338,2358,2378,2398,2419,2438,2457,2477,2497,2518,2538,2557,2577],"xSR":741.5,"ySR":573.95,"xT1":424.9,"yT1":0,"xT2":1058.1,"yT2":0,"toosoon":0,"cond_shown":"Incongruent","ratio_trial":300,"L_num":4,"L_den":20,"R_num":2,"R_den":4,"correct_side":2,"subjID":"paulavaleriabarbosahernandez18","gender":"1","school":"sexto","age":"11"},{"start_time":1551887151042,"click_time":1551887152844,"finger_time":1551887152485,"fix_duration":556.2252274136334,"trial":29,"RT":1443,"MT":359,"sideResp":2,"stimulus":[],"xmouse":[804,803,803,803,803,803,803,803,803,803,803,803,803,803,803,803,803,803,803,803,803,803,803,803,803,803,803,803,803,803,803,803,803,803,803,803,803,803,803,803,803,803,803,803,803,803,803,803,803,803,803,803,803,803,803,803,803,803,803,803,803,803,803,803,803,803,803,803,803,803,803,810,821,838,871,946,977,991,998,998,999,999,1000,1006,1012,1016,1020,1030,1050,1056,1070],"ymouse":[596,596,596,596,596,596,596,596,596,596,596,596,596,596,596,596,596,596,596,596,596,596,596,596,596,596,596,596,596,596,596,596,596,596,596,596,596,596,596,596,596,596,596,596,596,596,596,596,596,596,596,596,596,596,596,596,596,596,596,596,596,596,596,596,596,596,596,596,596,596,596,588,568,527,452,274,204,170,154,153,152,144,128,110,96,89,87,82,75,71,63],"timestamp_mouse":[2,32,42,62,82,103,122,143,164,183,203,224,243,262,282,302,323,343,363,383,403,423,443,463,483,504,522,542,563,583,603,623,644,663,683,703,723,744,763,783,803,824,843,863,883,903,924,943,963,982,1002,1023,1042,1063,1083,1103,1124,1143,1164,1182,1202,1223,1242,1263,1282,1302,1323,1343,1363,1382,1403,1423,1443,1464,1483,1503,1522,1542,1563,1583,1603,1622,1642,1664,1683,1704,1722,1742,1762,1782,1802],"xSR":741.5,"ySR":573.95,"xT1":424.9,"yT1":0,"xT2":1058.1,"yT2":0,"toosoon":0,"cond_shown":"Incongruent","ratio_trial":300,"L_num":13,"L_den":26,"R_num":12,"R_den":15,"correct_side":2,"subjID":"paulavaleriabarbosahernandez18","gender":"1","school":"sexto","age":"11"},{"start_time":1551887154131,"click_time":1551887156005,"finger_time":1551887155485,"fix_duration":365.45855542278395,"trial":30,"RT":1354,"MT":520,"sideResp":2,"stimulus":[],"xmouse":[801,801,801,801,801,801,801,801,801,801,801,801,801,801,801,801,801,801,801,801,802,804,804,806,806,806,806,806,806,806,806,806,806,806,806,806,806,806,806,806,806,806,806,806,806,806,806,806,806,806,806,806,806,806,806,806,806,806,806,806,806,806,806,806,806,812,829,854,885,914,947,957,964,969,975,983,986,991,1001,1012,1022,1027,1027,1027,1028,1035,1041,1047,1051,1052,1052,1052,1055,1061],"ymouse":[633,633,633,633,633,633,633,633,633,633,633,633,633,633,633,633,633,633,633,633,633,631,630,628,628,628,628,628,628,628,628,628,628,628,628,628,628,628,628,628,628,628,628,628,628,628,628,628,628,628,628,628,628,628,628,628,628,628,628,628,628,628,628,628,628,619,594,547,474,399,285,252,227,209,187,159,145,124,102,81,66,57,57,57,56,51,48,44,43,43,43,42,42,41],"timestamp_mouse":[14,33,53,74,93,113,134,153,174,194,214,234,253,274,294,315,333,353,373,394,413,433,453,473,494,514,534,554,573,593,615,635,654,674,694,714,733,753,773,793,814,834,853,873,894,914,934,954,974,994,1015,1035,1053,1073,1094,1113,1134,1155,1175,1193,1214,1234,1254,1274,1293,1314,1334,1354,1373,1393,1414,1433,1453,1474,1493,1514,1533,1554,1573,1593,1613,1634,1654,1674,1693,1714,1733,1754,1773,1794,1813,1833,1853,1874],"xSR":741.5,"ySR":573.95,"xT1":424.9,"yT1":0,"xT2":1058.1,"yT2":0,"toosoon":0,"cond_shown":"Incongruent","ratio_trial":300,"L_num":13,"L_den":26,"R_num":12,"R_den":15,"correct_side":2,"subjID":"paulavaleriabarbosahernandez18","gender":"1","school":"sexto","age":"11"},{"start_time":1551887158716,"click_time":1551887160684,"finger_time":1551887160185,"fix_duration":250,"trial":31,"RT":1469,"MT":499,"sideResp":2,"stimulus":[],"xmouse":[805,809,810,810,810,810,810,810,810,810,810,810,810,810,810,810,810,810,810,810,810,810,810,810,810,810,810,810,810,810,810,810,810,810,810,810,810,810,810,810,810,810,810,810,810,810,810,810,810,810,810,810,810,810,810,810,810,810,810,810,810,810,810,810,810,810,810,810,810,812,814,821,831,843,860,879,942,960,974,985,993,996,1002,1004,1004,1005,1009,1011,1012,1012,1012,1012,1012,1012,1013,1018,1042,1053,1066],"ymouse":[599,607,610,610,610,610,610,610,610,610,610,610,610,610,610,610,610,610,610,610,610,610,610,610,610,610,610,610,610,610,610,610,610,610,610,610,610,610,610,610,610,610,610,610,610,610,610,610,610,610,610,610,610,610,610,610,610,610,610,610,610,610,610,610,610,610,610,610,610,610,610,603,596,583,557,523,392,352,319,293,272,252,205,181,158,133,90,81,78,78,78,78,78,77,76,70,57,52,47],"timestamp_mouse":[8,29,48,68,89,109,129,149,168,188,209,229,249,269,289,309,328,348,369,389,409,429,448,468,489,509,529,549,569,588,610,630,649,669,689,709,730,749,768,789,809,829,849,868,888,909,929,949,969,988,1010,1029,1049,1069,1089,1109,1129,1148,1170,1190,1209,1229,1249,1269,1289,1310,1329,1348,1368,1389,1408,1429,1448,1469,1488,1508,1528,1548,1569,1588,1608,1629,1648,1669,1689,1710,1729,1748,1769,1790,1808,1829,1848,1869,1888,1909,1929,1949,1968],"xSR":741.5,"ySR":573.95,"xT1":424.9,"yT1":0,"xT2":1058.1,"yT2":0,"toosoon":0,"cond_shown":"Congruent","ratio_trial":300,"L_num":1,"L_den":20,"R_num":7,"R_den":20,"correct_side":2,"subjID":"paulavaleriabarbosahernandez18","gender":"1","school":"sexto","age":"11"},{"start_time":1551887163396,"click_time":1551887167625,"finger_time":1551887167045,"fix_duration":250,"trial":32,"RT":3649,"MT":580,"sideResp":1,"stimulus":[],"xmouse":[822,822,822,822,822,822,822,822,822,822,822,822,822,822,822,822,822,822,822,822,822,822,822,822,822,822,822,822,822,822,822,822,822,822,822,822,822,822,822,822,822,822,822,822,822,822,822,822,822,822,822,822,822,822,822,822,822,822,822,822,822,822,822,822,822,822,822,822,822,822,822,822,822,822,822,822,822,822,822,822,822,822,822,822,822,822,822,822,822,822,822,822,822,822,822,822,822,822,822,822,822,822,822,822,822,822,822,822,822,822,822,822,822,822,822,822,822,822,822,822,822,822,822,822,822,822,822,822,822,822,822,822,822,822,822,822,822,822,822,822,822,822,822,822,822,822,822,822,822,822,822,822,822,822,822,822,822,822,822,822,822,822,822,822,822,822,822,822,822,822,822,822,822,822,814,790,769,754,754,754,753,751,718,691,655,626,596,507,437,356,296,266,250,249,249,249,249,249,255,259,260,261,261,261,266,277,290,328,353,381,412,448],"ymouse":[634,634,634,634,634,634,634,634,634,634,634,634,634,634,634,634,634,634,634,634,634,634,634,634,634,634,634,634,634,634,634,634,634,634,634,634,634,634,634,634,634,634,634,634,634,634,634,634,634,634,634,634,634,634,634,634,634,634,634,634,634,634,634,634,634,634,634,634,634,634,634,634,634,634,634,634,634,634,634,634,634,634,634,634,634,634,634,634,634,634,634,634,634,634,634,634,634,634,634,634,634,634,634,634,634,634,634,634,634,634,634,634,634,634,634,634,634,634,634,634,634,634,634,634,634,634,634,634,634,634,634,634,634,634,634,634,634,634,634,634,634,634,634,634,634,634,634,634,634,634,634,634,634,634,634,634,634,634,634,634,634,634,634,634,634,634,634,634,634,634,634,634,634,634,634,631,631,631,631,631,631,631,629,621,610,592,565,454,380,307,251,218,171,152,143,138,133,124,96,83,79,78,78,78,76,73,70,64,61,56,52,45],"timestamp_mouse":[9,28,49,68,89,109,129,148,168,188,209,229,248,268,290,308,329,348,368,389,410,430,449,469,489,509,530,549,568,589,609,629,649,669,690,709,728,750,768,788,809,829,849,869,889,908,928,949,969,989,1009,1028,1049,1068,1089,1109,1129,1150,1169,1189,1209,1230,1248,1269,1288,1308,1328,1349,1369,1388,1409,1429,1449,1469,1489,1509,1528,1548,1568,1589,1608,1628,1648,1669,1689,1709,1729,1748,1769,1790,1809,1828,1850,1868,1888,1908,1929,1948,1968,1989,2010,2029,2049,2069,2088,2108,2129,2149,2169,2189,2209,2229,2249,2269,2288,2309,2329,2349,2368,2389,2409,2429,2449,2468,2488,2509,2529,2550,2569,2589,2608,2628,2649,2669,2689,2709,2728,2748,2769,2788,2809,2829,2848,2868,2889,2909,2929,2948,2969,2989,3009,3028,3050,3068,3088,3109,3128,3148,3169,3189,3209,3229,3248,3268,3290,3309,3330,3348,3368,3388,3408,3428,3448,3468,3489,3508,3528,3548,3569,3589,3609,3628,3649,3668,3689,3709,3728,3748,3769,3788,3809,3829,3849,3869,3889,3908,3929,3949,3968,3989,4009,4029,4049,4068,4088,4109,4128,4149,4170,4189,4209,4229],"xSR":741.5,"ySR":573.95,"xT1":424.9,"yT1":0,"xT2":1058.1,"yT2":0,"toosoon":0,"cond_shown":"Incongruent","ratio_trial":200,"L_num":1,"L_den":3,"R_num":2,"R_den":15,"correct_side":1,"subjID":"paulavaleriabarbosahernandez18","gender":"1","school":"sexto","age":"11"},{"start_time":1551887171561,"click_time":1551887175645,"finger_time":1551887173504,"fix_duration":895.2819837348276,"trial":33,"RT":1943,"MT":2141,"sideResp":2,"stimulus":[],"xmouse":[786,786,786,786,786,786,786,786,786,786,786,786,786,786,786,786,786,786,786,786,786,786,786,786,786,786,786,786,786,786,786,786,786,786,786,786,786,786,786,786,786,786,786,786,786,786,786,786,786,786,786,786,786,786,786,786,786,786,786,786,786,786,786,786,786,786,786,786,786,786,786,786,786,786,786,786,786,786,786,786,786,786,786,786,786,786,786,786,786,786,786,786,786,786,786,790,800,813,827,858,867,872,873,873,873,873,873,873,873,873,873,873,873,873,874,874,874,874,874,874,874,874,874,874,874,874,874,875,875,875,876,876,878,878,880,881,883,883,885,886,887,889,890,892,893,897,901,903,906,909,910,911,912,913,914,915,917,920,922,925,926,927,928,933,943,950,953,956,958,960,962,964,970,974,983,986,992,998,1007,1022,1030,1036,1039,1042,1048,1049,1049,1049,1049,1051,1051,1051,1051,1051,1051,1051,1051,1051,1051,1051,1051,1052,1052,1055,1107],"ymouse":[603,603,603,603,603,603,603,603,603,603,603,603,603,603,603,603,603,603,603,603,603,603,603,603,603,603,603,603,603,603,603,603,603,603,603,603,603,603,603,603,603,603,603,603,603,603,603,603,603,603,603,603,603,603,603,603,603,603,603,603,603,603,603,603,603,603,603,603,603,603,603,603,603,603,603,603,603,603,603,603,603,603,603,603,603,603,603,603,603,603,603,603,603,603,604,600,588,571,552,526,519,515,514,514,514,514,514,514,514,514,514,514,514,514,512,507,503,501,499,499,499,499,499,498,495,492,490,489,487,485,483,479,474,471,464,460,456,452,451,447,444,441,438,433,431,422,417,410,406,401,399,396,394,393,389,387,383,379,377,373,370,369,367,361,348,339,333,330,327,325,321,315,307,300,285,279,269,258,245,212,196,180,169,160,138,129,119,106,93,71,61,54,51,49,48,48,48,48,48,48,48,48,48,48,42],"timestamp_mouse":[4,24,44,64,84,104,125,144,163,184,204,223,243,264,284,304,324,344,363,383,404,424,444,463,483,503,524,544,564,584,603,623,644,664,684,703,724,744,764,784,804,823,844,864,885,904,924,944,963,983,1005,1025,1043,1064,1084,1104,1124,1144,1163,1183,1203,1224,1245,1264,1283,1303,1324,1344,1364,1384,1403,1423,1444,1465,1483,1503,1523,1545,1564,1584,1603,1623,1644,1664,1684,1704,1723,1743,1763,1784,1804,1824,1844,1864,1884,1903,1923,1943,1963,1983,2004,2024,2043,2064,2084,2104,2124,2144,2164,2185,2204,2224,2244,2263,2283,2304,2324,2344,2363,2384,2404,2424,2445,2464,2484,2503,2524,2543,2565,2583,2604,2623,2644,2664,2684,2705,2724,2743,2763,2783,2803,2824,2843,2863,2883,2904,2924,2943,2964,2984,3003,3024,3043,3063,3083,3104,3124,3143,3163,3183,3203,3223,3243,3264,3284,3305,3323,3343,3363,3383,3403,3423,3443,3464,3484,3503,3524,3544,3564,3583,3605,3624,3643,3663,3683,3703,3724,3744,3763,3783,3804,3823,3843,3863,3883,3904,3924,3944,3964,3983,4003,4024,4043,4065,4084],"xSR":741.5,"ySR":573.95,"xT1":424.9,"yT1":0,"xT2":1058.1,"yT2":0,"toosoon":0,"cond_shown":"Congruent","ratio_trial":100,"L_num":3,"L_den":20,"R_num":4,"R_den":16,"correct_side":2,"subjID":"paulavaleriabarbosahernandez18","gender":"1","school":"sexto","age":"11"},{"start_time":1551887177685,"click_time":1551887181545,"finger_time":1551887180905,"fix_duration":699.1073814153552,"trial":34,"RT":3220,"MT":640,"sideResp":1,"stimulus":[],"xmouse":[795,795,795,795,795,795,795,795,795,795,795,795,795,795,795,795,795,795,795,795,795,795,795,795,795,795,795,795,795,795,795,795,795,795,795,795,795,795,795,795,795,795,795,795,795,795,795,795,795,795,795,795,795,795,795,795,795,795,795,795,795,795,795,795,795,795,795,795,795,795,795,795,795,795,795,795,795,795,795,795,795,795,795,795,795,795,795,795,795,795,795,795,795,795,795,795,795,795,795,795,795,795,795,795,795,795,795,795,795,795,795,795,795,795,795,795,795,795,795,795,795,795,795,795,795,795,795,795,795,795,795,795,795,795,795,795,795,795,795,795,795,795,795,795,795,795,795,795,795,795,795,795,795,795,795,795,795,795,795,791,765,695,571,255,160,132,117,105,87,85,85,87,96,132,155,181,212,255,399,457,490,508,513,514,514,514,514,514,514,514,514,514,514,513],"ymouse":[636,636,636,636,636,636,636,636,636,636,636,636,636,636,636,636,636,636,636,636,636,636,636,636,636,636,636,636,636,636,636,636,636,636,636,636,636,636,636,636,636,636,636,636,636,636,636,636,636,636,636,636,636,636,636,636,636,636,636,636,636,636,636,636,636,636,636,636,636,636,636,636,636,636,636,636,636,636,636,636,636,636,636,636,636,636,636,636,636,636,636,636,636,636,636,636,636,636,636,636,636,636,636,636,636,636,636,636,636,636,636,636,636,636,636,636,636,636,636,636,636,636,636,636,636,636,636,636,636,636,636,636,636,636,636,636,636,636,636,636,636,636,636,636,636,636,636,636,636,636,636,636,636,636,636,636,636,636,636,636,611,538,432,214,164,151,141,138,134,132,130,126,123,118,111,102,93,75,4,0,0,0,0,0,0,0,0,0,0,0,0,0,0,14],"timestamp_mouse":[1,24,40,59,79,101,120,140,160,180,199,219,240,260,280,301,320,339,359,380,400,421,439,459,479,500,520,540,560,579,601,620,639,659,680,700,720,740,761,780,800,819,839,859,880,900,920,940,959,979,1000,1020,1040,1060,1080,1100,1119,1139,1159,1179,1200,1220,1240,1260,1280,1300,1319,1339,1360,1381,1400,1420,1440,1460,1480,1499,1520,1540,1560,1580,1599,1620,1640,1660,1679,1699,1720,1740,1759,1779,1800,1820,1840,1860,1880,1900,1920,1940,1959,1980,2001,2019,2040,2060,2080,2101,2120,2140,2160,2179,2199,2219,2239,2261,2280,2301,2320,2341,2359,2379,2400,2420,2440,2459,2479,2499,2519,2540,2560,2580,2599,2619,2639,2660,2680,2700,2719,2739,2759,2780,2800,2820,2840,2861,2880,2899,2919,2939,2959,2980,3001,3019,3039,3059,3079,3100,3120,3139,3159,3179,3200,3220,3241,3259,3279,3299,3321,3339,3359,3379,3400,3420,3441,3459,3479,3499,3520,3540,3559,3580,3600,3620,3640,3659,3680,3699,3719,3740,3760,3779,3799,3821,3841,3860],"xSR":741.5,"ySR":573.95,"xT1":424.9,"yT1":0,"xT2":1058.1,"yT2":0,"toosoon":0,"cond_shown":"Incongruent","ratio_trial":100,"L_num":2,"L_den":4,"R_num":6,"R_den":15,"correct_side":1,"subjID":"paulavaleriabarbosahernandez18","gender":"1","school":"sexto","age":"11"},{"start_time":1551887196632,"click_time":1551887199485,"finger_time":1551887199024,"fix_duration":565.0963009781226,"trial":35,"RT":2392,"MT":461,"sideResp":2,"stimulus":[],"xmouse":[772,773,782,783,783,783,783,783,783,783,783,783,783,783,783,783,783,783,783,783,783,783,783,783,783,783,783,783,783,783,783,783,783,783,783,783,783,783,783,783,783,783,783,783,783,783,783,783,783,783,783,783,783,783,783,783,783,783,783,783,783,783,783,783,783,783,783,783,783,783,783,783,783,783,783,783,783,783,783,783,783,783,783,783,783,783,783,783,783,783,783,783,783,783,783,783,783,783,783,783,783,783,783,783,783,783,783,783,783,783,783,783,783,783,783,783,791,802,836,923,1012,1031,1044,1049,1053,1058,1061,1066,1069,1067,1055,1053,1053,1053,1053,1053,1053,1053,1053,1053,1053,1056,1071],"ymouse":[618,620,622,623,623,623,623,623,623,623,623,623,623,623,623,623,623,623,623,623,623,623,623,623,623,623,623,623,623,623,623,623,623,623,623,623,623,623,623,623,623,623,623,623,623,623,623,623,623,623,623,623,623,623,623,623,623,623,623,623,623,623,623,623,623,623,623,623,623,623,623,623,623,623,623,623,623,623,623,623,623,623,623,623,623,623,623,623,623,623,623,623,623,623,623,623,623,623,623,623,623,623,623,623,623,623,623,623,623,623,623,623,623,623,623,623,616,610,591,514,398,343,301,282,275,270,265,246,214,105,41,14,14,14,14,14,12,12,12,12,12,11,23],"timestamp_mouse":[13,33,52,73,93,113,133,152,172,192,212,232,253,273,292,312,333,353,372,393,412,432,452,473,493,513,532,553,573,592,612,632,652,672,692,714,732,752,772,792,814,832,852,872,894,913,932,952,972,993,1013,1033,1053,1072,1092,1112,1132,1152,1174,1193,1212,1232,1253,1272,1292,1312,1332,1352,1372,1393,1412,1432,1452,1472,1492,1514,1532,1552,1572,1592,1612,1633,1653,1673,1692,1712,1732,1753,1773,1792,1813,1833,1852,1872,1893,1913,1932,1953,1973,1993,2012,2032,2052,2072,2092,2112,2133,2153,2173,2192,2212,2233,2252,2272,2292,2312,2332,2352,2374,2392,2413,2432,2453,2472,2494,2513,2532,2553,2574,2593,2612,2632,2652,2673,2693,2713,2732,2753,2773,2793,2813,2832,2853],"xSR":741.5,"ySR":573.95,"xT1":424.9,"yT1":0,"xT2":1058.1,"yT2":0,"toosoon":0,"cond_shown":"Incongruent","ratio_trial":300,"L_num":13,"L_den":26,"R_num":12,"R_den":15,"correct_side":2,"subjID":"paulavaleriabarbosahernandez18","gender":"1","school":"sexto","age":"11"},{"start_time":1551887204027,"click_time":1551887205964,"finger_time":1551887205525,"fix_duration":1400.0060025048556,"trial":36,"RT":1498,"MT":439,"sideResp":1,"stimulus":[],"xmouse":[803,803,803,803,803,803,803,803,801,799,794,794,794,794,794,794,794,794,794,794,794,794,794,794,794,794,794,794,794,794,794,794,794,794,794,794,794,794,794,794,794,794,794,794,794,794,794,794,794,794,794,794,794,794,794,794,794,794,794,794,794,794,793,792,791,791,791,791,791,791,790,790,785,770