[{"start_time":1551801352129,"click_time":1551801353575,"finger_time":1551801352934,"fix_duration":250,"trial":0,"RT":805,"MT":641,"sideResp":2,"stimulus":"img/900/equaldotsize/R/3_Ratio_900_L_9_R_10.png","xmouse":[792,792,792,792,792,792,792,792,792,792,792,792,792,792,792,792,792,792,792,792,792,792,792,792,792,792,792,792,792,792,792,792,792,792,792,791,786,779,777,776,776,776,775,775,775,775,775,775,775,776,779,795,806,822,835,852,886,905,922,936,945,949,949,952,962,971,993,1004,1016,1029,1049,1099],"ymouse":[542,542,542,542,542,542,542,542,542,542,542,542,542,542,542,542,542,542,542,542,542,542,542,542,542,542,542,542,542,542,542,542,542,542,542,538,517,496,474,448,424,377,353,343,333,312,297,285,271,258,242,195,173,150,133,116,90,81,72,66,62,61,61,61,61,61,61,61,61,61,61,61],"timestamp_mouse":[10,52,65,86,104,126,145,165,186,205,225,245,265,285,305,326,345,365,385,405,425,445,465,485,506,525,546,566,585,605,625,646,665,685,706,725,745,766,785,805,825,845,865,886,906,926,945,965,986,1005,1025,1045,1065,1086,1105,1125,1145,1165,1186,1206,1226,1246,1265,1286,1305,1325,1346,1365,1385,1405,1425,1445],"xSR":741.5,"ySR":481,"xT1":424.9,"yT1":0,"xT2":1058.1,"yT2":0,"toosoon":0,"cond_shown":"equaldotsize","ratio_trial":900,"smaller_num":"9","larger_num":"10","correct_side":2,"subjID":"AndresFernandez28","gender":"0","age":"13","school":"6","test":{"fix_dur":[250,1500],"timestim":300,"targets_dim":[100,100],"targets_relative_coord":[0.3,0.7],"size_stim":[880,420],"start_dim":[100,100],"size_start":[300,300],"size_fix":60,"samplingrate":20,"img_types":["equaldotsize","equaldotanddens","randomdotsizeEA"],"ratios":[250,500,750,900],"rep_conds":9,"nTrials":120,"trials_to_rest":500,"Trials_order":[93,30,11,28,31,22,15,40,71,82,89,13,105,51,41,102,95,68,61,44,5,101,42,86,88,59,96,113,109,97,52,29,67,38,110,64,36,112,32,25,27,20,7,16,6,47,75,3,39,100,66,85,45,84,1,91,70,4,17,78,103,92,43,49,114,26,50,87,63,54,53,34,116,99,9,118,106,117,8,80,73,65,60,14,19,72,18,58,119,111,55,10,24,35,33,81,56,98,12,74,46,77,115,94,83,23,21,2,107,62,0,37,57,48,90,104,79,108,69,76],"cond_shown":["equaldotsize","equaldotsize","randomdotsizeEA","equaldotanddens","equaldotanddens","equaldotanddens","equaldotsize","equaldotanddens","randomdotsizeEA","equaldotanddens","randomdotsizeEA","equaldotanddens","equaldotsize","equaldotsize","randomdotsizeEA","equaldotsize","randomdotsizeEA","randomdotsizeEA","equaldotanddens","randomdotsizeEA","randomdotsizeEA","randomdotsizeEA","equaldotsize","randomdotsizeEA","equaldotanddens","randomdotsizeEA","equaldotsize","randomdotsizeEA","equaldotanddens","equaldotanddens","equaldotanddens","randomdotsizeEA","equaldotanddens","randomdotsizeEA","randomdotsizeEA","equaldotanddens","equaldotsize","equaldotanddens","randomdotsizeEA","equaldotanddens","equaldotsize","randomdotsizeEA","equaldotanddens","equaldotanddens","equaldotsize","randomdotsizeEA","equaldotsize","equaldotsize","equaldotsize","equaldotanddens","equaldotsize","equaldotanddens","equaldotsize","equaldotsize","equaldotanddens","equaldotanddens","equaldotanddens","equaldotanddens","randomdotsizeEA","equaldotsize","equaldotanddens","randomdotsizeEA","equaldotanddens","equaldotanddens","equaldotsize","randomdotsizeEA","randomdotsizeEA","equaldotsize","equaldotsize","equaldotsize","randomdotsizeEA","equaldotanddens","randomdotsizeEA","equaldotsize","equaldotsize","equaldotanddens","equaldotanddens","equaldotsize","randomdotsizeEA","randomdotsizeEA","equaldotanddens","randomdotsizeEA","equaldotsize","randomdotsizeEA","equaldotanddens","equaldotsize","equaldotsize","equaldotanddens","randomdotsizeEA","equaldotsize","equaldotanddens","equaldotanddens","equaldotsize","randomdotsizeEA","equaldotsize","equaldotsize","randomdotsizeEA","randomdotsizeEA","equaldotsize","randomdotsizeEA","equaldotanddens","randomdotsizeEA","equaldotanddens","equaldotanddens","randomdotsizeEA","randomdotsizeEA","equaldotsize","randomdotsizeEA","randomdotsizeEA","randomdotsizeEA","equaldotsize","equaldotanddens","equaldotsize","equaldotsize","equaldotsize","randomdotsizeEA","equaldotanddens","equaldotsize","equaldotsize","equaldotanddens"],"ratio_trial":[900,750,900,500,750,900,500,500,900,900,500,250,900,500,500,750,900,750,250,750,500,500,750,250,500,900,250,500,250,250,500,500,750,250,250,500,250,500,750,250,500,750,750,500,750,900,500,500,500,500,750,250,900,250,250,750,900,500,500,750,750,750,750,250,750,250,250,500,500,750,500,900,750,500,900,900,900,900,750,750,250,500,250,250,750,250,750,900,900,500,750,900,250,900,900,900,750,250,250,250,900,500,750,900,900,900,900,250,900,250,250,250,900,250,750,750,750,250,900,500],"smaller_num":["9","3","9","5","12","18","1","5","9","9","1","6","18","2","2","15","18","3","5","12","2","6","6","1","10","18","2","5","4","4","5","2","3","4","2","10","6","5","12","5","1","6","6","9","15","18","4","10","6","2","6","5","18","2","2","3","18","6","6","3","15","3","6","2","3","6","1","5","6","18","6","9","3","9","18","9","9","9","3","3","1","2","2","4","15","4","15","18","9","2","6","18","2","18","18","9","15","3","6","6","18","2","6","9","18","9","18","4","9","3","6","6","18","4","6","15","3","2","18","9"],"larger_num":["10","4","10","10","16","20","2","10","10","10","2","24","20","4","4","20","20","4","20","16","4","12","8","4","20","20","8","10","16","16","10","4","4","16","8","20","24","10","16","20","2","8","8","18","20","20","8","20","12","4","8","20","20","8","8","4","20","12","12","4","20","4","8","8","4","24","4","10","12","24","12","10","4","18","20","10","10","10","4","4","4","4","8","16","20","16","20","20","10","4","8","20","8","20","20","10","20","12","24","24","20","4","8","10","20","10","20","16","10","12","24","24","20","16","8","20","4","8","20","18"],"correct_side":[2,1,2,1,2,2,2,1,1,2,2,1,1,1,1,2,2,1,2,2,1,1,1,2,2,2,1,2,1,2,2,2,2,1,2,2,2,2,2,2,2,1,1,1,2,2,1,2,1,1,1,2,1,1,2,2,1,1,1,2,2,1,1,1,1,1,2,1,1,1,1,2,1,1,2,2,2,2,1,2,2,2,1,2,2,1,2,1,2,2,1,2,1,2,2,2,2,1,1,1,1,1,1,2,1,1,1,2,2,2,1,1,1,2,2,1,1,1,1,2],"img_shown":["img/900/equaldotsize/R/3_Ratio_900_L_9_R_10.png","img/750/equaldotsize/L/10_Ratio_750_L_4_R_3.png","img/900/randomdotsizeEA/R/5_Ratio_900_L_9_R_10.png","img/500/equaldotanddens/L/7_Ratio_500_L_10_R_5.png","img/750/equaldotanddens/R/11_Ratio_750_L_12_R_16.png","img/900/equaldotanddens/R/13_Ratio_900_L_18_R_20.png","img/500/equaldotsize/R/15_Ratio_500_L_1_R_2.png","img/500/equaldotanddens/L/7_Ratio_500_L_10_R_5.png","img/900/randomdotsizeEA/L/1_Ratio_900_L_10_R_9.png","img/900/equaldotanddens/R/15_Ratio_900_L_9_R_10.png","img/500/randomdotsizeEA/R/15_Ratio_500_L_1_R_2.png","img/250/equaldotanddens/L/5_Ratio_250_L_24_R_6.png","img/900/equaldotsize/L/8_Ratio_900_L_20_R_18.png","img/500/equaldotsize/L/10_Ratio_500_L_4_R_2.png","img/500/randomdotsizeEA/L/10_Ratio_500_L_4_R_2.png","img/750/equaldotsize/R/3_Ratio_750_L_15_R_20.png","img/900/randomdotsizeEA/R/13_Ratio_900_L_18_R_20.png","img/750/randomdotsizeEA/L/9_Ratio_750_L_4_R_3.png","img/250/equaldotanddens/R/12_Ratio_250_L_5_R_20.png","img/750/randomdotsizeEA/R/11_Ratio_750_L_12_R_16.png","img/500/randomdotsizeEA/L/10_Ratio_500_L_4_R_2.png","img/500/randomdotsizeEA/L/13_Ratio_500_L_12_R_6.png","img/750/equaldotsize/L/13_Ratio_750_L_8_R_6.png","img/250/randomdotsizeEA/R/8_Ratio_250_L_1_R_4.png","img/500/equaldotanddens/R/3_Ratio_500_L_10_R_20.png","img/900/randomdotsizeEA/R/9_Ratio_900_L_18_R_20.png","img/250/equaldotsize/L/1_Ratio_250_L_8_R_2.png","img/500/randomdotsizeEA/R/14_Ratio_500_L_5_R_10.png","img/250/equaldotanddens/L/2_Ratio_250_L_16_R_4.png","img/250/equaldotanddens/R/10_Ratio_250_L_4_R_16.png","img/500/equaldotanddens/R/14_Ratio_500_L_5_R_10.png","img/500/randomdotsizeEA/R/9_Ratio_500_L_2_R_4.png","img/750/equaldotanddens/R/12_Ratio_750_L_3_R_4.png","img/250/randomdotsizeEA/L/2_Ratio_250_L_16_R_4.png","img/250/randomdotsizeEA/R/13_Ratio_250_L_2_R_8.png","img/500/equaldotanddens/R/3_Ratio_500_L_10_R_20.png","img/250/equaldotsize/R/6_Ratio_250_L_6_R_24.png","img/500/equaldotanddens/R/14_Ratio_500_L_5_R_10.png","img/750/randomdotsizeEA/R/11_Ratio_750_L_12_R_16.png","img/250/equaldotanddens/R/12_Ratio_250_L_5_R_20.png","img/500/equaldotsize/R/12_Ratio_500_L_1_R_2.png","img/750/randomdotsizeEA/L/14_Ratio_750_L_8_R_6.png","img/750/equaldotanddens/L/13_Ratio_750_L_8_R_6.png","img/500/equaldotanddens/L/4_Ratio_500_L_18_R_9.png","img/750/equaldotsize/R/4_Ratio_750_L_15_R_20.png","img/900/randomdotsizeEA/R/13_Ratio_900_L_18_R_20.png","img/500/equaldotsize/L/8_Ratio_500_L_8_R_4.png","img/500/equaldotsize/R/3_Ratio_500_L_10_R_20.png","img/500/equaldotsize/L/13_Ratio_500_L_12_R_6.png","img/500/equaldotanddens/L/5_Ratio_500_L_4_R_2.png","img/750/equaldotsize/L/13_Ratio_750_L_8_R_6.png","img/250/equaldotanddens/R/12_Ratio_250_L_5_R_20.png","img/900/equaldotsize/L/10_Ratio_900_L_20_R_18.png","img/250/equaldotsize/L/3_Ratio_250_L_8_R_2.png","img/250/equaldotanddens/R/13_Ratio_250_L_2_R_8.png","img/750/equaldotanddens/R/12_Ratio_750_L_3_R_4.png","img/900/equaldotanddens/L/10_Ratio_900_L_20_R_18.png","img/500/equaldotanddens/L/13_Ratio_500_L_12_R_6.png","img/500/randomdotsizeEA/L/13_Ratio_500_L_12_R_6.png","img/750/equaldotsize/R/12_Ratio_750_L_3_R_4.png","img/750/equaldotanddens/R/3_Ratio_750_L_15_R_20.png","img/750/randomdotsizeEA/L/9_Ratio_750_L_4_R_3.png","img/750/equaldotanddens/L/14_Ratio_750_L_8_R_6.png","img/250/equaldotanddens/L/7_Ratio_250_L_8_R_2.png","img/750/equaldotsize/L/10_Ratio_750_L_4_R_3.png","img/250/randomdotsizeEA/L/5_Ratio_250_L_24_R_6.png","img/250/randomdotsizeEA/R/8_Ratio_250_L_1_R_4.png","img/500/equaldotsize/L/7_Ratio_500_L_10_R_5.png","img/500/equaldotsize/L/13_Ratio_500_L_12_R_6.png","img/750/equaldotsize/L/6_Ratio_750_L_24_R_18.png","img/500/randomdotsizeEA/L/11_Ratio_500_L_12_R_6.png","img/900/equaldotanddens/R/3_Ratio_900_L_9_R_10.png","img/750/randomdotsizeEA/L/9_Ratio_750_L_4_R_3.png","img/500/equaldotsize/L/4_Ratio_500_L_18_R_9.png","img/900/equaldotsize/R/13_Ratio_900_L_18_R_20.png","img/900/equaldotanddens/R/5_Ratio_900_L_9_R_10.png","img/900/equaldotanddens/R/5_Ratio_900_L_9_R_10.png","img/900/equaldotsize/R/5_Ratio_900_L_9_R_10.png","img/750/randomdotsizeEA/L/8_Ratio_750_L_4_R_3.png","img/750/randomdotsizeEA/R/7_Ratio_750_L_3_R_4.png","img/250/equaldotanddens/R/8_Ratio_250_L_1_R_4.png","img/500/randomdotsizeEA/R/9_Ratio_500_L_2_R_4.png","img/250/equaldotsize/L/7_Ratio_250_L_8_R_2.png","img/250/randomdotsizeEA/R/10_Ratio_250_L_4_R_16.png","img/750/equaldotanddens/R/4_Ratio_750_L_15_R_20.png","img/250/equaldotsize/L/2_Ratio_250_L_16_R_4.png","img/750/equaldotsize/R/5_Ratio_750_L_15_R_20.png","img/900/equaldotanddens/L/4_Ratio_900_L_20_R_18.png","img/900/randomdotsizeEA/R/15_Ratio_900_L_9_R_10.png","img/500/equaldotsize/R/9_Ratio_500_L_2_R_4.png","img/750/equaldotanddens/L/13_Ratio_750_L_8_R_6.png","img/900/equaldotanddens/R/12_Ratio_900_L_18_R_20.png","img/250/equaldotsize/L/3_Ratio_250_L_8_R_2.png","img/900/randomdotsizeEA/R/11_Ratio_900_L_18_R_20.png","img/900/equaldotsize/R/12_Ratio_900_L_18_R_20.png","img/900/equaldotsize/R/6_Ratio_900_L_9_R_10.png","img/750/randomdotsizeEA/R/5_Ratio_750_L_15_R_20.png","img/250/randomdotsizeEA/L/15_Ratio_250_L_12_R_3.png","img/250/equaldotsize/L/5_Ratio_250_L_24_R_6.png","img/250/randomdotsizeEA/L/5_Ratio_250_L_24_R_6.png","img/900/equaldotanddens/L/8_Ratio_900_L_20_R_18.png","img/500/randomdotsizeEA/L/5_Ratio_500_L_4_R_2.png","img/750/equaldotanddens/L/14_Ratio_750_L_8_R_6.png","img/900/equaldotanddens/R/5_Ratio_900_L_9_R_10.png","img/900/randomdotsizeEA/L/10_Ratio_900_L_20_R_18.png","img/900/randomdotsizeEA/L/1_Ratio_900_L_10_R_9.png","img/900/equaldotsize/L/4_Ratio_900_L_20_R_18.png","img/250/randomdotsizeEA/R/10_Ratio_250_L_4_R_16.png","img/900/randomdotsizeEA/R/15_Ratio_900_L_9_R_10.png","img/250/randomdotsizeEA/R/11_Ratio_250_L_3_R_12.png","img/250/equaldotsize/L/5_Ratio_250_L_24_R_6.png","img/250/equaldotanddens/L/5_Ratio_250_L_24_R_6.png","img/900/equaldotsize/L/10_Ratio_900_L_20_R_18.png","img/250/equaldotsize/R/10_Ratio_250_L_4_R_16.png","img/750/equaldotsize/R/2_Ratio_750_L_6_R_8.png","img/750/randomdotsizeEA/L/1_Ratio_750_L_20_R_15.png","img/750/equaldotanddens/L/9_Ratio_750_L_4_R_3.png","img/250/equaldotsize/L/7_Ratio_250_L_8_R_2.png","img/900/equaldotsize/L/4_Ratio_900_L_20_R_18.png","img/500/equaldotanddens/R/1_Ratio_500_L_9_R_18.png"],"Rat0":[["12_Ratio_0_L_9_R_0.png","13_Ratio_0_L_6_R_0.png","5_Ratio_0_L_2_R_0.png","6_Ratio_0_L_4_R_0.png","8_Ratio_0_L_6_R_0.png"],["1_Ratio_0_L_0_R_17.png","10_Ratio_0_L_0_R_22.png","11_Ratio_0_L_0_R_1.png","14_Ratio_0_L_0_R_24.png","15_Ratio_0_L_0_R_4.png","2_Ratio_0_L_0_R_5.png","3_Ratio_0_L_0_R_17.png","4_Ratio_0_L_0_R_7.png","7_Ratio_0_L_0_R_19.png","9_Ratio_0_L_0_R_15.png"]],"Rat250":[["1_Ratio_250_L_8_R_2.png","14_Ratio_250_L_12_R_3.png","15_Ratio_250_L_12_R_3.png","2_Ratio_250_L_16_R_4.png","3_Ratio_250_L_8_R_2.png","5_Ratio_250_L_24_R_6.png","7_Ratio_250_L_8_R_2.png"],["10_Ratio_250_L_4_R_16.png","11_Ratio_250_L_3_R_12.png","12_Ratio_250_L_5_R_20.png","13_Ratio_250_L_2_R_8.png","4_Ratio_250_L_3_R_12.png","6_Ratio_250_L_6_R_24.png","8_Ratio_250_L_1_R_4.png","9_Ratio_250_L_3_R_12.png"]],"Rat500":[["10_Ratio_500_L_4_R_2.png","11_Ratio_500_L_12_R_6.png","13_Ratio_500_L_12_R_6.png","4_Ratio_500_L_18_R_9.png","5_Ratio_500_L_4_R_2.png","7_Ratio_500_L_10_R_5.png","8_Ratio_500_L_8_R_4.png"],["1_Ratio_500_L_9_R_18.png","12_Ratio_500_L_1_R_2.png","14_Ratio_500_L_5_R_10.png","15_Ratio_500_L_1_R_2.png","2_Ratio_500_L_3_R_6.png","3_Ratio_500_L_10_R_20.png","6_Ratio_500_L_9_R_18.png","9_Ratio_500_L_2_R_4.png"]],"Rat750":[["1_Ratio_750_L_20_R_15.png","10_Ratio_750_L_4_R_3.png","13_Ratio_750_L_8_R_6.png","14_Ratio_750_L_8_R_6.png","6_Ratio_750_L_24_R_18.png","8_Ratio_750_L_4_R_3.png","9_Ratio_750_L_4_R_3.png"],["11_Ratio_750_L_12_R_16.png","12_Ratio_750_L_3_R_4.png","15_Ratio_750_L_9_R_12.png","2_Ratio_750_L_6_R_8.png","3_Ratio_750_L_15_R_20.png","4_Ratio_750_L_15_R_20.png","5_Ratio_750_L_15_R_20.png","7_Ratio_750_L_3_R_4.png"]],"Rat900":[["1_Ratio_900_L_10_R_9.png","10_Ratio_900_L_20_R_18.png","2_Ratio_900_L_20_R_18.png","4_Ratio_900_L_20_R_18.png","8_Ratio_900_L_20_R_18.png"],["11_Ratio_900_L_18_R_20.png","12_Ratio_900_L_18_R_20.png","13_Ratio_900_L_18_R_20.png","14_Ratio_900_L_18_R_20.png","15_Ratio_900_L_9_R_10.png","3_Ratio_900_L_9_R_10.png","5_Ratio_900_L_9_R_10.png","6_Ratio_900_L_9_R_10.png","7_Ratio_900_L_9_R_10.png","9_Ratio_900_L_18_R_20.png"]],"Rat1000":[["10_Ratio_1000_L_16_R_16.png","11_Ratio_1000_L_6_R_6.png","12_Ratio_1000_L_14_R_14.png","13_Ratio_1000_L_20_R_20.png","15_Ratio_1000_L_15_R_15.png","2_Ratio_1000_L_17_R_17.png","4_Ratio_1000_L_9_R_9.png","5_Ratio_1000_L_6_R_6.png","6_Ratio_1000_L_19_R_19.png","8_Ratio_1000_L_14_R_14.png","9_Ratio_1000_L_25_R_25.png"],["1_Ratio_1000_L_1_R_1.png","14_Ratio_1000_L_17_R_17.png","3_Ratio_1000_L_17_R_17.png","7_Ratio_1000_L_6_R_6.png"]]}},{"start_time":1551801356132,"click_time":1551801357195,"finger_time":1551801356875,"fix_duration":1496.1869705648303,"trial":1,"RT":743,"MT":320,"sideResp":2,"stimulus":"img/750/equaldotsize/L/10_Ratio_750_L_4_R_3.png","xmouse":[800,800,800,800,800,800,800,800,800,800,800,800,800,800,800,800,800,800,800,800,800,800,800,800,800,800,800,800,800,800,800,800,800,800,800,800,800,800,800,800,800,800,807,814,822,830,842,886,918,951,982,1007,1045,1061],"ymouse":[468,468,468,468,468,468,468,468,468,468,468,468,468,468,468,468,468,468,468,468,468,468,468,468,468,468,468,468,468,468,468,468,468,468,468,468,452,423,401,381,353,324,244,218,191,170,150,121,110,99,91,85,81,81],"timestamp_mouse":[10,36,43,62,83,102,122,143,163,182,202,222,243,262,283,302,323,341,362,382,402,423,443,462,483,503,523,542,562,582,602,623,642,662,683,703,722,743,762,783,802,822,842,862,882,903,922,943,962,983,1002,1023,1042,1062],"xSR":741.5,"ySR":449.15000000000003,"xT1":424.9,"yT1":0,"xT2":1058.1,"yT2":0,"toosoon":0,"cond_shown":"equaldotsize","ratio_trial":750,"smaller_num":"3","larger_num":"4","correct_side":1,"subjID":"AndresFernandez28","gender":"0","age":"13","school":"6"},{"start_time":1551801359061,"click_time":1551801362234,"finger_time":1551801361015,"fix_duration":905.6837195442087,"trial":2,"RT":1954,"MT":1219,"sideResp":1,"stimulus":"img/900/randomdotsizeEA/R/5_Ratio_900_L_9_R_10.png","xmouse":[802,802,802,802,802,802,802,802,802,802,802,802,802,802,802,802,802,802,802,802,802,802,802,802,802,802,800,798,798,798,798,798,798,798,798,798,798,798,798,798,798,798,798,798,798,798,798,798,798,798,798,798,798,798,798,798,798,798,798,798,798,798,798,798,798,798,798,798,798,798,798,798,798,798,798,798,798,798,798,795,793,794,796,796,796,796,796,796,796,796,796,796,796,796,796,796,795,792,791,790,790,791,792,793,793,793,793,793,793,793,795,797,798,798,798,799,801,804,805,807,808,808,808,808,808,805,803,802,799,796,792,791,791,791,791,791,791,791,791,791,791,788,778,767,755,723,708,689,668,643,639,636,635,631,619,587,565,531,494],"ymouse":[461,461,461,461,461,461,461,461,461,461,461,461,461,461,461,461,461,461,461,461,461,461,461,461,461,461,461,461,461,461,461,461,461,461,461,461,461,461,461,461,461,461,461,461,461,461,461,461,461,461,461,461,461,461,461,461,461,461,461,461,461,461,461,461,461,461,461,461,461,461,461,461,461,461,461,461,461,461,461,466,476,486,493,498,498,498,498,498,498,498,498,499,500,504,516,532,548,565,578,592,596,599,601,602,604,607,611,617,622,628,642,645,648,648,648,643,633,617,603,582,577,574,571,569,563,555,549,543,533,520,505,501,501,501,501,501,501,501,501,501,501,498,487,475,460,378,316,254,200,143,134,130,129,128,127,120,114,101,86],"timestamp_mouse":[14,43,54,73,93,113,133,153,174,194,214,233,254,274,292,314,333,354,374,393,414,433,454,473,493,513,534,553,573,593,614,633,653,674,694,713,733,754,774,793,813,833,853,873,893,913,933,954,973,993,1013,1034,1054,1073,1094,1114,1134,1153,1173,1194,1213,1233,1253,1274,1293,1313,1333,1354,1373,1393,1413,1433,1453,1474,1493,1513,1533,1554,1573,1593,1614,1633,1654,1674,1693,1714,1733,1753,1774,1793,1813,1833,1853,1874,1895,1913,1934,1953,1973,1994,2013,2033,2054,2073,2094,2113,2133,2154,2173,2194,2213,2233,2254,2273,2294,2313,2333,2353,2374,2395,2412,2433,2453,2474,2493,2513,2533,2553,2573,2593,2613,2633,2654,2674,2692,2713,2733,2753,2773,2794,2812,2833,2854,2873,2892,2913,2934,2953,2974,2995,3013,3033,3054,3073,3093,3113,3133,3153,3173],"xSR":741.5,"ySR":449.15000000000003,"xT1":424.9,"yT1":0,"xT2":1058.1,"yT2":0,"toosoon":0,"cond_shown":"randomdotsizeEA","ratio_trial":900,"smaller_num":"9","larger_num":"10","correct_side":2,"subjID":"AndresFernandez28","gender":"0","age":"13","school":"6"},{"start_time":1551801363689,"click_time":1551801364715,"finger_time":1551801364294,"fix_duration":553.3535301606878,"trial":3,"RT":605,"MT":421,"sideResp":1,"stimulus":"img/500/equaldotanddens/L/7_Ratio_500_L_10_R_5.png","xmouse":[788,788,788,788,788,788,788,788,788,788,788,788,788,788,788,788,788,788,788,788,788,788,788,788,788,788,788,788,797,806,811,815,815,807,756,747,747,747,747,747,747,747,747,747,747,747,747,747,747,532,526,524],"ymouse":[513,513,513,513,513,513,513,513,513,513,513,513,513,513,513,513,513,513,513,513,513,513,513,513,513,513,513,513,487,461,425,369,301,212,36,6,6,6,6,6,6,6,6,6,6,6,6,6,6,3,7,9],"timestamp_mouse":[10,31,45,65,85,105,125,145,165,185,205,226,245,265,286,306,325,345,365,386,405,426,446,465,485,506,526,545,566,586,605,625,645,665,686,706,724,745,764,784,804,825,845,866,885,906,925,946,965,986,1006,1026],"xSR":741.5,"ySR":449.15000000000003,"xT1":424.9,"yT1":0,"xT2":1058.1,"yT2":0,"toosoon":0,"cond_shown":"equaldotanddens","ratio_trial":500,"smaller_num":"5","larger_num":"10","correct_side":1,"subjID":"AndresFernandez28","gender":"0","age":"13","school":"6"},{"start_time":1551801366404,"click_time":1551801367574,"finger_time":1551801367115,"fix_duration":828.6130942013202,"trial":4,"RT":711,"MT":459,"sideResp":2,"stimulus":"img/750/equaldotanddens/R/11_Ratio_750_L_12_R_16.png","xmouse":[811,811,811,811,811,811,811,811,811,811,811,811,811,811,811,811,811,811,811,811,811,811,811,811,811,811,811,811,811,810,809,808,807,806,805,805,805,805,805,808,815,822,834,870,891,919,946,988,1010,1022,1029,1031,1033,1037,1038,1040,1043,1046,1059],"ymouse":[512,512,512,512,512,512,512,512,512,512,512,512,512,512,512,512,512,512,512,512,512,512,512,512,512,512,512,512,512,508,502,495,488,466,456,443,433,397,375,337,316,291,266,226,208,186,171,146,134,128,122,120,119,115,114,111,108,106,98],"timestamp_mouse":[10,33,51,70,89,110,130,150,170,191,209,229,251,269,289,311,331,349,371,391,410,430,450,469,491,511,529,551,571,590,609,631,649,671,690,711,731,751,770,790,810,829,849,869,890,911,930,951,970,990,1011,1029,1050,1070,1090,1111,1130,1150,1170],"xSR":741.5,"ySR":449.15000000000003,"xT1":424.9,"yT1":0,"xT2":1058.1,"yT2":0,"toosoon":0,"cond_shown":"equaldotanddens","ratio_trial":750,"smaller_num":"12","larger_num":"16","correct_side":2,"subjID":"AndresFernandez28","gender":"0","age":"13","school":"6"},{"start_time":1551801370306,"click_time":1551801371673,"finger_time":1551801371114,"fix_duration":250,"trial":5,"RT":808,"MT":559,"sideResp":2,"stimulus":"img/900/equaldotanddens/R/13_Ratio_900_L_18_R_20.png","xmouse":[799,799,799,799,799,799,799,799,799,799,799,799,799,799,799,799,799,799,799,799,799,799,799,799,799,799,799,799,799,799,799,799,799,799,799,799,798,796,793,789,787,786,786,788,801,810,817,825,855,874,893,913,932,977,991,1001,1011,1017,1017,1017,1018,1021,1033,1041,1047,1052,1056,1058,1063],"ymouse":[504,504,504,504,504,504,504,504,504,504,504,504,504,504,504,504,504,504,504,504,504,504,504,504,504,504,504,504,504,504,504,504,504,504,504,504,500,486,472,455,439,420,376,350,301,269,239,211,161,141,127,115,106,89,83,78,74,72,72,72,71,70,69,67,66,66,66,66,66],"timestamp_mouse":[20,33,48,69,87,108,129,148,167,188,209,228,247,269,288,308,329,348,368,388,409,428,449,469,488,509,529,548,567,589,609,628,649,668,687,708,729,748,769,789,808,829,849,868,887,908,928,949,968,989,1008,1029,1048,1068,1087,1108,1129,1149,1168,1188,1208,1227,1248,1268,1289,1308,1328,1348,1367],"xSR":741.5,"ySR":449.15000000000003,"xT1":424.9,"yT1":0,"xT2":1058.1,"yT2":0,"toosoon":0,"cond_shown":"equaldotanddens","ratio_trial":900,"smaller_num":"18","larger_num":"20","correct_side":2,"subjID":"AndresFernandez28","gender":"0","age":"13","school":"6"},{"start_time":1551801374424,"click_time":1551801384395,"finger_time":1551801382974,"fix_duration":389.28507730467163,"trial":6,"RT":8550,"MT":1421,"sideResp":1,"stimulus":"img/500/equaldotsize/R/15_Ratio_500_L_1_R_2.png","xmouse":[781,781,781,781,781,781,781,781,781,781,781,781,781,781,781,781,781,781,781,781,781,781,781,781,781,781,781,781,781,781,781,781,781,781,781,781,781,781,781,781,781,781,781,781,781,781,781,781,781,781,781,781,781,781,781,781,781,781,781,781,781,781,781,781,781,781,781,781,781,781,781,781,781,781,781,781,781,781,781,781,781,781,781,781,781,781,781,781,781,781,781,781,781,781,781,781,781,781,781,781,781,781,781,781,781,781,781,781,781,781,781,781,781,781,781,781,781,781,781,781,781,781,781,781,781,781,781,781,781,781,781,781,781,781,781,781,781,781,781,781,781,781,781,781,781,781,781,781,781,781,781,781,781,781,781,781,781,781,781,781,781,781,781,781,781,781,781,781,781,781,781,781,783,783,784,784,784,784,784,784,784,784,784,784,784,784,784,784,784,784,784,784,784,784,784,784,784,784,784,784,784,784,784,784,784,784,784,784,784,784,784,784,784,784,784,784,784,784,784,784,784,784,784,784,784,784,784,784,784,784,784,784,784,784,784,784,784,784,784,784,784,784,784,784,784,784,784,784,784,784,784,784,784,784,784,784,784,784,784,784,784,784,784,784,784,784,784,784,784,784,784,785,785,785,785,785,785,785,785,785,785,785,785,785,785,785,785,785,785,785,785,785,785,785,785,785,785,785,785,785,785,785,785,785,785,785,785,785,785,785,785,785,785,785,785,785,785,785,785,785,785,785,785,785,785,785,785,785,785,785,785,785,785,785,785,785,785,785,785,785,785,785,785,785,785,785,785,785,785,785,785,785,785,785,785,785,785,785,785,785,785,785,785,785,785,785,785,785,785,785,785,785,785,785,785,785,785,785,785,785,785,785,785,785,785,785,785,785,785,785,785,785,785,785,785,785,785,785,785,785,785,785,785,785,785,785,785,785,785,785,785,785,785,785,785,785,785,785,785,785,785,785,785,789,790,794,801,810,832,846,862,875,893,896,899,901,902,903,903,903,903,903,903,903,903,903,903,903,903,944,948,950,953,954,955,956,956,955,951,947,937,907,881,856,825,794,720,679,624,601,586,568,564,562,561,561,561,561,561,561,566,573,625,658,688,714,735,746,746,746,746,713,683,656,628,593,549,529,524],"ymouse":[498,498,498,498,498,498,498,498,498,498,498,498,498,498,498,498,498,498,498,498,498,498,498,498,498,498,498,498,498,498,498,498,498,498,498,498,498,498,498,498,498,498,498,498,498,498,498,498,498,498,498,498,498,498,498,498,498,498,498,498,498,498,498,498,498,498,498,498,498,498,498,498,498,498,498,498,498,498,498,498,498,498,498,498,498,498,498,498,498,498,498,498,498,498,498,498,498,498,498,498,498,498,498,498,498,498,498,498,498,498,498,498,498,498,498,498,498,498,498,498,498,498,498,498,498,498,498,498,498,498,498,498,498,498,498,499,500,500,500,500,500,500,500,500,500,500,500,500,500,500,500,500,500,500,500,500,500,500,500,500,500,500,500,500,500,500,501,502,502,503,504,505,510,512,514,514,514,514,514,514,514,514,514,514,514,514,514,514,514,514,514,514,514,514,514,514,514,514,514,514,514,514,514,514,514,514,514,514,514,514,514,514,514,514,514,514,514,514,514,514,514,514,514,514,514,514,514,514,514,514,514,514,514,514,514,514,514,514,514,514,514,514,514,514,514,514,514,514,514,514,514,514,514,514,514,514,514,514,514,514,514,514,514,514,514,514,514,514,514,517,518,519,519,519,519,519,519,519,519,519,519,519,519,519,519,519,519,519,519,519,519,519,519,519,519,519,519,519,519,519,519,519,519,519,519,519,519,519,519,519,519,519,519,519,519,519,519,519,519,519,519,519,519,519,519,519,519,519,519,519,519,519,519,519,519,519,519,519,519,519,519,519,519,519,519,519,519,519,519,519,519,519,519,519,519,519,519,519,519,519,519,519,519,519,519,518,518,518,518,518,518,518,518,518,518,518,518,518,518,518,518,518,518,518,518,518,518,518,518,518,518,518,518,518,518,518,518,518,518,518,518,518,518,517,517,517,517,517,517,517,517,517,517,517,517,517,517,517,517,517,517,517,517,505,502,487,466,408,335,278,226,182,112,87,65,45,15,7,7,7,7,7,7,7,7,7,7,7,7,10,15,18,23,25,29,31,35,43,48,51,55,66,70,72,72,72,72,72,72,72,72,73,74,74,74,74,74,74,74,74,74,74,74,74,74,74,74,74,74,74,74,71,66,64,61,57,50,47,47],"timestamp_mouse":[10,33,49,70,90,111,130,149,170,191,209,229,250,271,290,309,331,351,370,390,410,431,451,470,490,510,531,549,570,591,611,629,651,671,690,711,729,749,770,791,810,830,849,871,891,910,930,951,970,991,1010,1029,1050,1071,1089,1111,1130,1149,1170,1190,1211,1230,1250,1271,1290,1310,1329,1350,1370,1391,1410,1431,1449,1470,1491,1510,1530,1551,1569,1591,1609,1631,1649,1670,1690,1709,1731,1751,1770,1791,1809,1831,1850,1869,1889,1911,1930,1950,1970,1991,2009,2029,2050,2070,2091,2111,2129,2150,2170,2191,2209,2230,2250,2270,2289,2311,2330,2349,2371,2389,2411,2430,2449,2469,2491,2510,2530,2550,2570,2589,2610,2630,2650,2670,2690,2710,2730,2751,2769,2789,2811,2829,2849,2869,2890,2911,2930,2949,2969,2991,3010,3029,3049,3070,3089,3110,3130,3149,3171,3190,3210,3231,3251,3271,3290,3310,3330,3350,3370,3390,3411,3430,3451,3470,3490,3509,3529,3549,3571,3589,3611,3630,3650,3671,3689,3711,3730,3749,3770,3790,3809,3830,3851,3871,3889,3911,3929,3949,3970,3991,4010,4030,4050,4071,4089,4109,4130,4149,4171,4189,4211,4230,4250,4271,4291,4311,4330,4350,4369,4390,4410,4429,4449,4470,4490,4509,4530,4549,4570,4590,4609,4630,4650,4670,4689,4709,4730,4750,4770,4789,4810,4830,4850,4869,4891,4909,4930,4950,4970,4989,5010,5030,5050,5070,5090,5109,5129,5150,5171,5189,5210,5231,5249,5271,5290,5310,5329,5351,5371,5389,5410,5431,5449,5470,5490,5510,5531,5550,5569,5591,5610,5630,5651,5671,5691,5710,5730,5751,5769,5791,5810,5830,5851,5870,5890,5911,5931,5949,5970,5990,6009,6030,6050,6070,6090,6109,6131,6150,6170,6190,6210,6231,6250,6270,6291,6309,6331,6350,6371,6390,6410,6429,6450,6469,6490,6510,6530,6550,6569,6589,6609,6630,6650,6669,6691,6711,6729,6750,6769,6791,6811,6829,6850,6871,6890,6909,6930,6949,6969,6989,7011,7029,7050,7070,7089,7111,7130,7149,7170,7190,7210,7231,7251,7269,7291,7309,7331,7349,7371,7391,7410,7431,7449,7469,7491,7509,7531,7550,7569,7590,7609,7629,7650,7670,7691,7709,7730,7750,7769,7790,7809,7831,7850,7870,7890,7910,7929,7951,7969,7989,8010,8031,8049,8071,8089,8110,8130,8151,8169,8191,8209,8231,8251,8269,8290,8311,8329,8350,8369,8391,8411,8429,8451,8470,8490,8511,8529,8550,8570,8591,8611,8631,8651,8670,8689,8709,8731,8750,8771,8791,8809,8830,8849,8869,8890,8909,8929,8949,8970,8989,9010,9031,9049,9070,9090,9109,9129,9150,9170,9190,9210,9230,9250,9270,9291,9310,9331,9350,9370,9390,9409,9431,9450,9470,9490,9510,9531,9551,9569,9590,9611,9629,9650,9669,9690,9710,9730,9750,9771,9790,9810,9831,9849,9870,9891,9909,9930,9950,9971],"xSR":741.5,"ySR":449.15000000000003,"xT1":424.9,"yT1":0,"xT2":1058.1,"yT2":0,"toosoon":0,"cond_shown":"equaldotsize","ratio_trial":500,"smaller_num":"1","larger_num":"2","correct_side":2,"subjID":"AndresFernandez28","gender":"0","age":"13","school":"6"},{"start_time":1551801385587,"click_time":1551801386915,"finger_time":1551801386354,"fix_duration":250,"trial":7,"RT":767,"MT":561,"sideResp":1,"stimulus":"img/500/equaldotanddens/L/7_Ratio_500_L_10_R_5.png","xmouse":[813,813,813,813,813,813,813,813,813,813,813,813,813,813,813,813,813,813,810,809,808,808,808,808,807,807,807,807,807,807,807,807,807,806,805,804,801,798,790,783,775,763,753,737,729,720,706,684,631,595,572,552,537,523,501,496,494,494,494,494,494,494,494,494,496,497,499],"ymouse":[528,528,528,528,528,528,528,528,528,528,528,528,528,528,528,528,528,528,526,523,522,520,519,518,517,517,517,517,517,515,514,513,512,505,501,491,474,452,400,359,333,302,278,241,226,215,207,201,186,175,168,161,154,150,144,142,141,140,140,139,137,136,134,130,118,108,98],"timestamp_mouse":[10,31,47,67,87,107,128,147,168,188,207,228,248,268,287,307,328,347,367,386,407,427,447,468,487,507,527,546,568,587,606,626,646,668,688,707,728,747,767,786,807,828,847,867,887,907,928,947,968,986,1008,1028,1046,1066,1087,1106,1128,1147,1168,1188,1207,1227,1248,1267,1288,1306,1328],"xSR":741.5,"ySR":449.15000000000003,"xT1":424.9,"yT1":0,"xT2":1058.1,"yT2":0,"toosoon":0,"cond_shown":"equaldotanddens","ratio_trial":500,"smaller_num":"5","larger_num":"10","correct_side":1,"subjID":"AndresFernandez28","gender":"0","age":"13","school":"6"},{"start_time":1551801388214,"click_time":1551801389474,"finger_time":1551801388854,"fix_duration":458.6339791816808,"trial":8,"RT":640,"MT":620,"sideResp":2,"stimulus":"img/900/randomdotsizeEA/L/1_Ratio_900_L_10_R_9.png","xmouse":[777,777,777,777,777,777,777,777,777,777,777,777,777,777,777,777,777,777,777,777,777,777,777,777,777,777,777,777,777,777,776,776,776,776,778,782,789,800,808,815,827,839,854,875,882,891,900,909,931,935,938,942,947,956,961,967,972,979,993,1006,1016,1029,1055,1067],"ymouse":[483,483,483,483,483,483,483,483,483,483,483,483,483,483,483,483,483,483,483,483,483,483,483,483,483,483,483,483,483,483,480,469,449,405,379,356,334,297,280,263,235,214,194,160,144,129,117,105,89,88,88,88,87,85,85,84,83,82,79,76,74,72,69,67],"timestamp_mouse":[8,21,41,59,80,99,120,139,161,180,201,219,240,260,279,301,320,340,360,380,399,421,440,461,479,500,521,541,560,580,601,620,640,660,680,699,719,741,760,780,800,821,840,859,879,900,920,940,960,981,1001,1019,1039,1060,1081,1101,1120,1140,1160,1181,1201,1220,1240,1260],"xSR":741.5,"ySR":449.15000000000003,"xT1":424.9,"yT1":0,"xT2":1058.1,"yT2":0,"toosoon":0,"cond_shown":"randomdotsizeEA","ratio_trial":900,"smaller_num":"9","larger_num":"10","correct_side":1,"subjID":"AndresFernandez28","gender":"0","age":"13","school":"6"},{"start_time":1551801392335,"click_time":1551801393594,"finger_time":1551801392994,"fix_duration":1299.9090877006468,"trial":9,"RT":659,"MT":600,"sideResp":2,"stimulus":"img/900/equaldotanddens/R/15_Ratio_900_L_9_R_10.png","xmouse":[783,783,783,783,783,783,783,783,783,783,784,785,785,785,785,785,785,785,785,785,785,785,786,787,788,788,789,790,791,791,792,793,793,794,794,794,794,794,794,794,794,771,763,757,755,750,732,720,701,683,665,606,566,550,542,541,549,569,605,670,752,952,1090],"ymouse":[466,466,466,466,466,466,466,466,466,466,467,469,469,469,469,469,469,469,469,469,469,469,469,469,468,467,466,463,462,461,457,455,449,442,434,399,370,331,282,230,183,89,71,63,61,61,62,64,65,65,65,65,65,65,66,66,68,68,68,68,68,68,68],"timestamp_mouse":[36,38,58,79,100,119,139,159,180,200,220,240,259,278,299,320,339,359,380,398,420,440,459,479,499,518,540,559,579,600,620,639,659,679,700,720,739,759,779,799,818,839,860,879,900,919,939,960,979,1000,1019,1040,1059,1079,1098,1119,1139,1159,1179,1200,1219,1240,1258],"xSR":741.5,"ySR":449.15000000000003,"xT1":424.9,"yT1":0,"xT2":1058.1,"yT2":0,"toosoon":0,"cond_shown":"equaldotanddens","ratio_trial":900,"smaller_num":"9","larger_num":"10","correct_side":2,"subjID":"AndresFernandez28","gender":"0","age":"13","school":"6"},{"start_time":1551801400086,"click_time":1551801402014,"finger_time":1551801400975,"fix_duration":250,"trial":10,"RT":889,"MT":1039,"sideResp":2,"stimulus":"img/500/randomdotsizeEA/R/15_Ratio_500_L_1_R_2.png","xmouse":[827,827,827,827,827,827,827,827,827,827,827,827,827,827,827,827,827,827,827,827,827,827,827,827,827,827,827,827,827,827,827,827,827,827,827,827,827,827,827,827,827,827,827,826,825,823,820,816,811,795,787,777,767,758,739,723,706,681,658,623,611,606,605,605,605,605,605,605,605,624,648,683,732,781,886,943,959,968,970,973,976,982,991,1003,1020,1024,1027,1031,1032,1039,1043,1044,1045,1048,1051,1055,1061],"ymouse":[512,512,512,512,512,512,512,512,512,512,512,512,512,512,512,512,512,512,512,512,512,512,512,512,512,512,512,512,512,512,512,512,512,511,506,503,500,496,495,491,487,482,475,454,435,419,401,382,357,312,290,272,255,239,220,212,204,195,186,174,171,169,169,169,169,169,169,169,169,168,168,168,168,168,157,144,136,128,124,118,114,109,104,99,94,94,94,94,94,93,92,92,91,90,89,87,85],"timestamp_mouse":[9,34,49,67,88,108,129,147,169,189,208,228,248,268,288,308,329,348,367,388,409,429,447,469,489,507,528,548,567,587,609,627,649,669,688,707,729,749,768,789,807,828,848,869,889,908,928,948,967,994,1008,1028,1048,1068,1087,1107,1128,1149,1167,1187,1208,1228,1248,1268,1287,1308,1328,1349,1368,1388,1408,1428,1449,1468,1489,1507,1527,1548,1568,1588,1608,1627,1649,1668,1688,1708,1727,1748,1768,1788,1807,1828,1848,1869,1888,1908,1928],"xSR":741.5,"ySR":449.15000000000003,"xT1":424.9,"yT1":0,"xT2":1058.1,"yT2":0,"toosoon":0,"cond_shown":"randomdotsizeEA","ratio_trial":500,"smaller_num":"1","larger_num":"2","correct_side":2,"subjID":"AndresFernandez28","gender":"0","age":"13","school":"6"},{"start_time":1551801403401,"click_time":1551801404955,"finger_time":1551801404053,"fix_duration":585.2668234102687,"trial":11,"RT":652,"MT":902,"sideResp":1,"stimulus":"img/250/equaldotanddens/L/5_Ratio_250_L_24_R_6.png","xmouse":[794,794,794,794,794,794,794,794,794,794,794,794,794,794,794,794,794,794,794,794,794,794,794,794,794,794,794,794,795,796,799,801,803,803,803,803,805,809,809,798,791,781,775,760,750,737,725,711,689,680,671,658,631,620,606,588,576,571,571,571,571,571,570,568,563,557,548,532,532,532,532,532,532,531,529,528,526,524],"ymouse":[515,515,515,515,515,515,515,515,515,515,515,515,515,515,515,515,515,515,515,515,515,515,515,515,515,515,515,515,509,498,479,456,430,373,348,329,311,288,272,248,232,217,207,188,176,165,157,148,138,135,132,128,118,114,112,108,107,106,106,106,106,106,106,106,105,103,102,99,99,99,99,99,99,99,98,97,96,92],"timestamp_mouse":[12,34,53,72,94,112,134,153,174,192,212,232,253,274,293,314,333,352,374,394,413,434,454,472,493,514,532,554,573,592,612,634,652,672,693,712,734,754,773,793,813,834,853,873,893,914,933,953,973,993,1013,1032,1054,1072,1094,1113,1134,1153,1173,1192,1212,1232,1254,1273,1293,1313,1357,1358,1373,1393,1413,1432,1452,1473,1493,1513,1533,1554],"xSR":741.5,"ySR":449.15000000000003,"xT1":424.9,"yT1":0,"xT2":1058.1,"yT2":0,"toosoon":0,"cond_shown":"equaldotanddens","ratio_trial":250,"smaller_num":"6","larger_num":"24","correct_side":1,"subjID":"AndresFernandez28","gender":"0","age":"13","school":"6"},{"start_time":1551801406152,"click_time":1551801407275,"finger_time":1551801406714,"fix_duration":317.19451841007975,"trial":12,"RT":562,"MT":561,"sideResp":2,"stimulus":"img/900/equaldotsize/L/8_Ratio_900_L_20_R_18.png","xmouse":[814,814,814,814,814,814,814,814,814,814,814,814,814,814,814,814,814,814,814,814,814,814,814,813,813,811,811,812,815,817,821,822,825,827,830,835,840,846,856,869,910,944,971,991,1011,1040,1040,1040,1040,1040,1040,1040,1040,1040,1040,1093,1097],"ymouse":[499,499,499,499,499,499,499,499,499,499,499,499,499,499,499,499,499,499,499,499,499,499,499,499,495,476,465,453,440,427,401,376,360,344,329,300,283,269,253,233,178,119,78,50,27,2,2,2,2,2,2,2,2,2,2,0,9],"timestamp_mouse":[9,35,41,61,81,103,122,142,161,182,201,222,241,261,282,302,321,341,362,381,402,422,441,462,482,503,521,541,562,583,604,622,641,662,683,704,721,742,763,782,802,822,842,862,882,902,921,943,962,981,1001,1021,1041,1063,1082,1102,1123],"xSR":741.5,"ySR":449.15000000000003,"xT1":424.9,"yT1":0,"xT2":1058.1,"yT2":0,"toosoon":0,"cond_shown":"equaldotsize","ratio_trial":900,"smaller_num":"18","larger_num":"20","correct_side":1,"subjID":"AndresFernandez28","gender":"0","age":"13","school":"6"},{"start_time":1551801410777,"click_time":1551801411815,"finger_time":1551801411174,"fix_duration":321.368894118902,"trial":13,"RT":397,"MT":641,"sideResp":2,"stimulus":"img/500/equaldotsize/L/10_Ratio_500_L_4_R_2.png","xmouse":[800,800,800,800,800,800,800,800,800,800,800,800,800,800,800,800,798,796,787,778,776,775,772,771,771,771,771,771,771,787,801,816,834,857,901,912,912,912,912,912,912,912,912,912,912,912,912,1046,1055,1058,1058,1059],"ymouse":[477,477,477,477,477,477,477,477,477,477,477,477,477,477,477,477,474,472,458,444,441,436,428,423,417,413,409,403,388,318,272,215,155,102,20,8,8,8,8,8,8,8,8,8,8,8,8,0,5,7,7,8],"timestamp_mouse":[31,37,56,77,98,117,138,157,177,198,216,236,258,277,296,316,337,356,378,397,417,437,457,478,497,517,538,556,576,597,617,638,657,677,697,717,737,756,777,797,817,837,857,876,897,916,937,956,977,997,1017,1038],"xSR":741.5,"ySR":449.15000000000003,"xT1":424.9,"yT1":0,"xT2":1058.1,"yT2":0,"toosoon":0,"cond_shown":"equaldotsize","ratio_trial":500,"smaller_num":"2","larger_num":"4","correct_side":1,"subjID":"AndresFernandez28","gender":"0","age":"13","school":"6"},{"start_time":1551801414676,"click_time":1551801416574,"finger_time":1551801415155,"fix_duration":899.7389127512304,"trial":14,"RT":479,"MT":1419,"sideResp":1,"stimulus":"img/500/randomdotsizeEA/L/10_Ratio_500_L_4_R_2.png","xmouse":[774,774,774,774,775,777,777,777,777,777,777,777,780,781,787,789,789,789,791,794,796,798,799,801,811,819,827,837,850,854,855,856,856,856,856,857,857,863,867,885,903,924,949,995,1026,1044,1056,1062,1065,1068,1069,1070,1072,1073,1073,1073,1073,1073,1072,1061,1042,1022,1001,963,924,899,880,860,842,794,761,716,674,620,605,605,605,605,603,598,596,595,590,581,569,569,569,569,566,565,564,560,556,552,514],"ymouse":[510,510,510,510,508,507,507,507,507,507,507,507,505,503,498,495,492,491,486,477,471,464,459,436,410,391,367,342,304,288,276,262,250,237,214,202,200,191,186,174,167,160,151,138,129,124,121,118,116,115,115,114,113,113,113,113,113,113,112,113,116,119,122,126,126,126,126,126,126,130,131,138,141,143,143,143,143,143,143,143,143,143,139,133,117,111,106,104,102,100,100,98,95,92,86],"timestamp_mouse":[17,42,57,77,98,119,137,158,179,197,219,238,258,278,299,317,337,357,378,399,418,437,457,479,498,518,537,558,579,598,618,639,658,678,698,717,737,758,778,799,818,838,858,878,897,917,937,958,978,998,1018,1038,1059,1078,1099,1119,1138,1157,1178,1198,1218,1238,1259,1278,1298,1318,1338,1358,1378,1398,1417,1438,1459,1479,1497,1519,1538,1557,1577,1598,1619,1639,1658,1678,1699,1719,1737,1758,1778,1797,1818,1838,1857,1877,1898],"xSR":741.5,"ySR":449.15000000000003,"xT1":424.9,"yT1":0,"xT2":1058.1,"yT2":0,"toosoon":0,"cond_shown":"randomdotsizeEA","ratio_trial":500,"smaller_num":"2","larger_num":"4","correct_side":1,"subjID":"AndresFernandez28","gender":"0","age":"13","school":"6"},{"start_time":1551801417993,"click_time":1551801419274,"finger_time":1551801418674,"fix_duration":418.4882474802158,"trial":15,"RT":681,"MT":600,"sideResp":2,"stimulus":"img/750/equaldotsize/R/3_Ratio_750_L_15_R_20.png","xmouse":[767,767,767,767,767,767,767,767,767,767,767,767,767,767,767,767,767,767,767,767,767,767,767,767,767,767,767,767,767,767,767,767,767,768,771,773,776,778,780,780,783,784,789,806,818,841,862,883,922,952,975,994,1009,1027,1030,1033,1035,1037,1037,1037,1037,1039,1043,1051,1068],"ymouse":[506,506,506,506,506,506,506,506,506,506,506,506,506,506,506,506,506,506,506,506,506,506,506,505,504,502,501,500,498,492,486,479,470,456,419,400,382,371,356,354,344,333,316,266,241,207,177,150,113,99,93,91,89,87,86,85,85,84,84,84,84,83,81,79,74],"timestamp_mouse":[8,31,40,61,82,101,121,142,160,181,200,220,242,261,280,301,322,341,361,381,401,422,440,461,481,500,522,541,561,582,602,622,641,660,681,701,721,742,762,781,800,821,841,862,881,901,921,940,962,981,1001,1021,1040,1061,1080,1101,1122,1141,1161,1180,1200,1221,1242,1261,1281],"xSR":741.5,"ySR":449.15000000000003,"xT1":424.9,"yT1":0,"xT2":1058.1,"yT2":0,"toosoon":0,"cond_shown":"equaldotsize","ratio_trial":750,"smaller_num":"15","larger_num":"20","correct_side":2,"subjID":"AndresFernandez28","gender":"0","age":"13","school":"6"},{"start_time":1551801420787,"click_time":1551801422035,"finger_time":1551801421295,"fix_duration":530.7016105678263,"trial":16,"RT":508,"MT":740,"sideResp":2,"stimulus":"img/900/randomdotsizeEA/R/13_Ratio_900_L_18_R_20.png","xmouse":[795,795,795,795,795,795,795,795,795,795,795,795,795,795,795,795,795,795,795,795,795,795,795,795,794,793,793,793,793,793,791,788,784,781,772,768,763,757,749,729,729,729,729,729,729,729,729,729,729,729,729,1344,1354,1354,1354,1354,1350,1338,1317,1270,1230,1192,1153],"ymouse":[503,503,503,503,503,503,503,503,503,503,503,503,503,503,503,503,503,498,497,486,480,476,471,461,452,438,414,384,322,295,259,238,218,200,168,154,135,113,85,15,15,15,15,15,15,15,15,15,15,15,15,10,18,19,19,19,19,19,22,28,30,30,31],"timestamp_mouse":[8,27,46,66,86,107,126,146,166,186,207,227,248,268,288,308,327,348,367,388,407,427,447,468,486,508,528,547,568,587,606,627,647,668,688,707,727,747,767,787,807,827,847,868,888,908,928,947,968,988,1007,1026,1046,1067,1088,1108,1127,1148,1168,1187,1206,1226,1247],"xSR":741.5,"ySR":449.15000000000003,"xT1":424.9,"yT1":0,"xT2":1058.1,"yT2":0,"toosoon":0,"cond_shown":"randomdotsizeEA","ratio_trial":900,"smaller_num":"18","larger_num":"20","correct_side":2,"subjID":"AndresFernandez28","gender":"0","age":"13","school":"6"},{"start_time":1551801425598,"click_time":1551801427073,"finger_time":1551801426374,"fix_duration":1344.683677489805,"trial":17,"RT":776,"MT":699,"sideResp":2,"stimulus":"img/750/randomdotsizeEA/L/9_Ratio_750_L_4_R_3.png","xmouse":[780,780,780,780,780,780,780,780,780,780,780,780,780,780,780,780,780,780,780,780,780,780,780,780,780,780,780,780,780,780,780,780,780,780,780,780,781,784,785,785,785,785,788,796,801,803,805,807,807,807,805,802,802,802,802,803,810,819,842,845,846,846,847,854,870,893,925,983,1004,1029,1041,1048,1058,1060],"ymouse":[506,506,506,506,506,506,506,506,506,506,506,506,506,506,506,506,506,506,506,506,506,506,506,506,506,506,506,506,506,506,506,506,506,506,506,506,502,477,449,430,414,395,374,333,314,295,280,267,234,202,180,164,137,124,115,108,92,73,40,37,37,37,36,34,27,20,14,14,14,21,25,27,28,28],"timestamp_mouse":[21,36,56,76,96,116,136,156,176,196,216,235,256,276,295,316,336,355,376,396,415,435,456,475,496,515,536,555,575,595,615,636,657,675,695,716,735,756,776,795,815,835,855,875,895,916,935,955,975,996,1015,1035,1056,1075,1095,1115,1136,1155,1176,1197,1216,1235,1256,1275,1296,1316,1336,1357,1375,1396,1417,1436,1456,1475],"xSR":741.5,"ySR":449.15000000000003,"xT1":424.9,"yT1":0,"xT2":1058.1,"yT2":0,"toosoon":0,"cond_shown":"randomdotsizeEA","ratio_trial":750,"smaller_num":"3","larger_num":"4","correct_side":1,"subjID":"AndresFernandez28","gender":"0","age":"13","school":"6"},{"start_time":1551801432090,"click_time":1551801433574,"finger_time":1551801432873,"fix_duration":695.0041433021202,"trial":18,"RT":783,"MT":701,"sideResp":2,"stimulus":"img/250/equaldotanddens/R/12_Ratio_250_L_5_R_20.png","xmouse":[771,771,771,771,771,771,771,771,771,771,771,771,771,771,771,771,771,771,771,771,771,771,771,771,771,771,771,771,771,771,771,771,771,772,773,774,774,774,775,775,775,775,775,775,777,777,775,770,770,770,770,770,770,770,770,770,770,770,770,770,770,770,770,770,770,770,770,770,1043,1047,1049,1052,1055,1058,1066],"ymouse":[508,508,508,508,508,508,508,508,508,508,508,508,508,508,508,508,508,508,508,508,508,508,508,508,508,508,508,508,508,508,508,508,507,503,497,489,487,481,463,439,367,266,188,131,58,42,23,8,8,8,8,8,8,8,8,8,8,8,8,8,8,8,8,8,8,8,8,8,4,10,13,16,18,21,27],"timestamp_mouse":[3,23,43,64,84,104,124,144,163,183,205,224,243,264,284,304,323,343,363,384,403,424,443,463,485,504,524,543,565,584,603,623,643,664,684,703,724,743,765,783,803,823,843,865,883,904,924,943,963,983,1005,1023,1044,1064,1083,1103,1124,1144,1164,1184,1203,1224,1243,1264,1283,1304,1324,1343,1364,1383,1404,1424,1445,1464,1484],"xSR":741.5,"ySR":449.15000000000003,"xT1":424.9,"yT1":0,"xT2":1058.1,"yT2":0,"toosoon":0,"cond_shown":"equaldotanddens","ratio_trial":250,"smaller_num":"5","larger_num":"20","correct_side":2,"subjID":"AndresFernandez28","gender":"0","age":"13","school":"6"},{"start_time":1551801434964,"click_time":1551801438295,"finger_time":1551801437454,"fix_duration":250,"trial":19,"RT":2490,"MT":841,"sideResp":2,"stimulus":"img/750/randomdotsizeEA/R/11_Ratio_750_L_12_R_16.png","xmouse":[784,784,784,784,784,784,784,784,784,784,784,784,784,784,784,784,784,784,784,784,784,784,784,784,784,784,784,784,784,784,784,784,784,784,784,784,784,784,784,784,784,784,784,784,784,784,784,784,784,784,784,784,784,784,784,784,784,784,784,784,784,784,784,784,784,784,784,784,784,784,784,784,784,784,784,784,784,784,784,784,784,784,784,784,784,784,784,784,784,784,784,784,784,784,784,784,784,784,784,784,784,784,784,784,784,784,784,784,784,784,784,784,784,784,784,784,784,785,785,785,785,785,785,785,785,785,785,781,776,775,776,791,799,803,805,807,807,807,808,809,813,816,825,845,892,1050,1137,1215,1272,1300,1300,1300,1299,1297,1284,1274,1256,1234,1216,1208,1199,1198,1198,1196,1190,1165,1142],"ymouse":[507,507,507,507,507,507,507,507,507,507,507,507,507,507,507,507,507,507,507,507,507,507,507,507,507,507,507,507,507,507,507,507,507,507,507,507,507,507,507,507,507,507,507,507,507,507,507,507,507,507,507,507,507,507,507,507,507,507,507,507,507,507,507,507,507,507,507,507,507,507,507,507,507,507,507,507,507,507,507,507,507,507,507,507,507,507,507,507,507,507,507,507,507,507,507,507,507,507,507,507,507,507,507,507,507,507,507,507,507,507,507,507,507,507,507,506,503,500,496,492,483,476,468,460,436,421,396,363,336,266,219,119,60,31,12,3,3,3,2,2,9,14,24,40,63,115,128,135,135,129,129,127,126,124,113,105,98,89,84,81,77,77,77,77,77,75,71],"timestamp_mouse":[10,38,49,69,89,109,129,149,169,190,209,230,249,269,290,310,330,349,370,389,410,429,449,470,489,510,529,549,570,590,609,629,649,669,690,709,729,749,770,789,810,829,849,869,889,910,930,949,969,990,1009,1029,1049,1070,1089,1109,1130,1150,1170,1190,1209,1229,1251,1270,1290,1310,1331,1350,1370,1389,1410,1431,1449,1471,1490,1510,1529,1549,1571,1589,1609,1630,1649,1670,1690,1709,1729,1751,1769,1789,1810,1829,1851,1869,1890,1909,1930,1949,1971,1990,2010,2029,2049,2070,2089,2110,2129,2150,2169,2190,2209,2230,2251,2270,2289,2309,2329,2349,2369,2390,2410,2429,2449,2470,2490,2509,2529,2550,2571,2591,2609,2631,2650,2670,2690,2709,2730,2749,2769,2789,2809,2838,2850,2869,2889,2909,2930,2950,2969,2991,3009,3029,3049,3069,3090,3109,3129,3149,3169,3190,3210,3229,3249,3270,3289,3309,3331],"xSR":741.5,"ySR":449.15000000000003,"xT1":424.9,"yT1":0,"xT2":1058.1,"yT2":0,"toosoon":0,"cond_shown":"randomdotsizeEA","ratio_trial":750,"smaller_num":"12","larger_num":"16","correct_side":2,"subjID":"AndresFernandez28","gender":"0","age":"13","school":"6"},{"start_time":1551801440639,"click_time":1551801441973,"finger_time":1551801441373,"fix_duration":1283.5072303643105,"trial":20,"RT":734,"MT":600,"sideResp":1,"stimulus":"img/500/randomdotsizeEA/L/10_Ratio_500_L_4_R_2.png","xmouse":[784,784,784,784,784,784,784,784,784,784,784,784,784,784,784,784,784,784,784,784,784,784,784,784,784,784,784,784,784,784,784,777,773,771,769,767,763,762,760,757,750,696,666,648,636,626,620,614,612,607,589,577,565,552,542,536,535,535,535,535,535,535,534,532,530,525,523],"ymouse":[509,509,509,509,509,509,509,509,509,509,509,509,509,509,509,509,509,509,509,509,509,509,509,509,509,509,509,509,509,506,501,484,476,471,466,459,448,444,436,424,403,309,254,222,198,165,153,144,138,126,93,76,59,42,28,20,18,18,18,18,18,18,19,22,28,38,42],"timestamp_mouse":[14,34,54,74,94,114,134,155,176,195,215,236,254,274,294,314,334,355,375,395,415,435,454,474,494,514,535,555,575,595,616,635,654,675,694,714,734,754,775,795,814,835,855,874,895,916,934,955,975,994,1016,1034,1054,1075,1094,1114,1136,1154,1175,1195,1214,1234,1255,1274,1295,1316,1334],"xSR":741.5,"ySR":449.15000000000003,"xT1":424.9,"yT1":0,"xT2":1058.1,"yT2":0,"toosoon":0,"cond_shown":"randomdotsizeEA","ratio_trial":500,"smaller_num":"2","larger_num":"4","correct_side":1,"subjID":"AndresFernandez28","gender":"0","age":"13","school":"6"},{"start_time":1551801443287,"click_time":1551801444475,"finger_time":1551801443954,"fix_duration":492.6246195594874,"trial":21,"RT":667,"MT":521,"sideResp":2,"stimulus":"img/500/randomdotsizeEA/L/13_Ratio_500_L_12_R_6.png","xmouse":[756,756,756,756,756,756,756,756,756,756,756,756,756,756,756,756,756,756,756,756,756,756,756,756,756,756,756,756,756,756,756,757,757,766,775,792,807,823,845,853,859,863,868,886,901,906,912,917,919,933,942,957,973,993,1034,1043,1049,1053,1056,1059],"ymouse":[486,486,486,486,486,486,486,486,486,486,486,486,486,486,486,486,486,486,486,486,486,486,486,486,486,486,486,486,486,486,483,480,476,445,423,389,361,332,283,265,251,237,219,163,129,117,105,98,95,83,77,70,63,59,54,54,54,54,54,54],"timestamp_mouse":[9,32,47,66,86,107,126,146,166,187,206,226,246,266,286,306,327,347,367,386,407,426,447,467,486,508,526,548,566,586,606,626,647,667,686,707,727,746,767,786,806,826,846,868,886,906,928,946,966,986,1006,1027,1047,1066,1086,1107,1126,1147,1166,1188],"xSR":741.5,"ySR":449.15000000000003,"xT1":424.9,"yT1":0,"xT2":1058.1,"yT2":0,"toosoon":0,"cond_shown":"randomdotsizeEA","ratio_trial":500,"smaller_num":"6","larger_num":"12","correct_side":1,"subjID":"AndresFernandez28","gender":"0","age":"13","school":"6"},{"start_time":1551801447531,"click_time":1551801449014,"finger_time":1551801447973,"fix_duration":717.5479852953441,"trial":22,"RT":442,"MT":1041,"sideResp":1,"stimulus":"img/750/equaldotsize/L/13_Ratio_750_L_8_R_6.png","xmouse":[800,800,800,800,800,800,800,800,800,800,800,800,800,800,800,800,800,800,807,810,817,818,816,815,813,809,807,807,807,807,807,807,807,807,801,794,777,771,771,771,771,771,767,760,755,747,734,729,722,714,695,650,627,618,612,609,609,609,609,609,609,609,609,609,609,609,609,609,609,541,537,531,528,527,521],"ymouse":[481,481,481,481,481,481,481,481,481,481,481,481,481,481,481,481,481,481,477,473,460,452,445,443,441,437,435,435,435,435,435,435,435,434,429,423,410,406,406,406,406,406,381,340,314,292,260,245,218,178,128,48,19,10,4,0,0,0,0,0,0,0,0,0,0,0,0,0,0,0,2,4,5,6,10],"timestamp_mouse":[11,24,42,63,82,103,124,143,162,183,202,223,242,264,282,303,323,342,363,383,403,423,442,462,483,503,522,544,563,582,602,623,642,662,682,702,723,742,762,783,803,822,843,863,883,902,923,942,963,984,1002,1023,1043,1063,1082,1102,1123,1143,1162,1183,1203,1223,1243,1262,1284,1303,1324,1343,1363,1382,1402,1423,1443,1463,1483],"xSR":741.5,"ySR":449.15000000000003,"xT1":424.9,"yT1":0,"xT2":1058.1,"yT2":0,"toosoon":0,"cond_shown":"equaldotsize","ratio_trial":750,"smaller_num":"6","larger_num":"8","correct_side":1,"subjID":"AndresFernandez28","gender":"0","age":"13","school":"6"},{"start_time":1551801450187,"click_time":1551801451255,"finger_time":1551801450854,"fix_duration":250,"trial":23,"RT":667,"MT":401,"sideResp":2,"stimulus":"img/250/randomdotsizeEA/R/8_Ratio_250_L_1_R_4.png","xmouse":[808,808,808,808,808,808,808,808,808,808,808,808,808,808,808,808,808,808,808,808,808,808,808,808,808,808,808,808,808,808,808,808,806,796,791,783,776,772,770,770,771,777,786,800,806,809,815,830,883,928,964,993,1017,1059],"ymouse":[485,485,485,485,485,485,485,485,485,485,485,485,485,485,485,485,485,485,485,485,485,485,485,485,485,485,485,485,485,485,485,485,480,446,420,396,372,357,345,331,313,291,272,243,235,231,226,213,173,142,124,112,101,83],"timestamp_mouse":[10,31,46,68,86,107,126,146,167,186,206,227,247,267,286,306,327,348,366,386,406,426,446,467,486,506,526,546,567,587,606,626,647,667,686,706,726,748,768,786,806,827,846,867,886,907,926,946,968,986,1007,1026,1047,1068],"xSR":741.5,"ySR":449.15000000000003,"xT1":424.9,"yT1":0,"xT2":1058.1,"yT2":0,"toosoon":0,"cond_shown":"randomdotsizeEA","ratio_trial":250,"smaller_num":"1","larger_num":"4","correct_side":2,"subjID":"AndresFernandez28","gender":"0","age":"13","school":"6"},{"start_time":1551801453457,"click_time":1551801454793,"finger_time":1551801454093,"fix_duration":1083.5237112665934,"trial":24,"RT":636,"MT":700,"sideResp":2,"stimulus":"img/500/equaldotanddens/R/3_Ratio_500_L_10_R_20.png","xmouse":[796,796,796,796,796,795,795,795,795,795,795,795,795,795,795,795,795,795,795,795,795,795,795,795,795,795,795,795,794,794,794,793,793,792,788,780,780,780,780,780,785,789,792,794,803,807,811,815,817,820,843,862,883,911,938,985,1009,1019,1025,1031,1037,1039,1042,1046,1054,1057,1061],"ymouse":[497,497,497,497,497,497,497,497,497,497,497,497,497,497,497,497,497,497,497,497,497,497,497,497,497,497,497,497,493,489,466,448,422,393,352,276,255,235,219,194,179,165,153,146,132,127,125,124,123,123,120,120,118,116,113,104,100,99,96,94,90,87,82,77,66,63,58],"timestamp_mouse":[17,42,57,76,97,116,136,156,177,197,216,236,256,276,297,316,337,356,377,396,416,436,456,477,496,516,536,556,576,596,616,636,657,676,696,716,736,756,777,798,816,836,857,876,897,916,936,957,976,998,1017,1036,1057,1076,1096,1116,1136,1157,1177,1198,1216,1237,1256,1277,1298,1316,1336],"xSR":741.5,"ySR":449.15000000000003,"xT1":424.9,"yT1":0,"xT2":1058.1,"yT2":0,"toosoon":0,"cond_shown":"equaldotanddens","ratio_trial":500,"smaller_num":"10","larger_num":"20","correct_side":2,"subjID":"AndresFernandez28","gender":"0","age":"13","school":"6"},{"start_time":1551801458469,"click_time":1551801459793,"finger_time":1551801459294,"fix_duration":1273.9022386520826,"trial":25,"RT":825,"MT":499,"sideResp":1,"stimulus":"img/900/randomdotsizeEA/R/9_Ratio_900_L_18_R_20.png","xmouse":[802,802,802,802,802,802,802,802,802,802,802,802,802,802,802,802,802,802,802,802,802,802,802,802,802,802,802,802,802,802,802,802,802,802,802,802,802,802,802,802,803,805,801,789,760,753,743,737,732,718,709,702,699,695,692,686,679,662,639,587,566,555,551,548,534,528,522],"ymouse":[471,471,471,471,471,471,471,471,471,471,471,471,471,471,471,471,471,471,471,471,471,471,471,471,471,471,471,471,471,471,471,471,471,471,471,471,471,471,471,471,462,414,355,289,193,169,145,129,116,90,80,77,75,74,72,71,70,70,70,69,65,61,58,55,49,47,47],"timestamp_mouse":[10,34,45,64,84,106,124,144,165,185,206,224,244,264,285,305,324,344,364,384,405,425,445,465,484,506,524,545,566,584,605,625,644,664,684,705,724,744,765,784,804,825,845,864,885,904,924,945,964,985,1004,1024,1046,1064,1084,1104,1124,1144,1165,1186,1204,1225,1245,1265,1285,1304,1324],"xSR":741.5,"ySR":449.15000000000003,"xT1":424.9,"yT1":0,"xT2":1058.1,"yT2":0,"toosoon":0,"cond_shown":"randomdotsizeEA","ratio_trial":900,"smaller_num":"18","larger_num":"20","correct_side":2,"subjID":"AndresFernandez28","gender":"0","age":"13","school":"6"},{"start_time":1551801461812,"click_time":1551801463155,"finger_time":1551801462533,"fix_duration":1037.44494557042,"trial":26,"RT":721,"MT":622,"sideResp":1,"stimulus":"img/250/equaldotsize/L/1_Ratio_250_L_8_R_2.png","xmouse":[773,774,774,774,774,774,774,775,776,776,777,777,778,779,779,779,780,780,781,781,781,781,781,781,781,781,781,781,781,781,781,781,782,782,782,782,783,783,783,783,783,781,756,741,727,716,709,701,695,683,668,655,646,636,628,618,606,597,580,575,568,558,546,527,524,524,524,516],"ymouse":[481,481,481,481,481,481,481,480,477,476,475,474,473,472,470,469,467,466,464,464,464,464,464,463,463,463,463,463,461,460,459,458,457,456,454,452,447,436,394,371,346,324,271,253,239,230,226,219,213,197,180,167,159,147,139,130,124,118,112,109,108,106,104,102,102,102,102,99],"timestamp_mouse":[2,32,43,61,81,102,122,141,161,183,201,221,242,262,281,302,322,341,361,382,402,422,441,461,481,501,522,541,561,581,602,622,642,661,681,702,721,743,762,782,802,821,842,861,881,902,921,943,961,981,1001,1021,1041,1062,1081,1101,1121,1141,1162,1181,1201,1222,1241,1262,1281,1301,1322,1343],"xSR":741.5,"ySR":449.15000000000003,"xT1":424.9,"yT1":0,"xT2":1058.1,"yT2":0,"toosoon":0,"cond_shown":"equaldotsize","ratio_trial":250,"smaller_num":"2","larger_num":"8","correct_side":1,"subjID":"AndresFernandez28","gender":"0","age":"13","school":"6"},{"start_time":1551801464795,"click_time":1551801466173,"finger_time":1551801465334,"fix_duration":700.4798277648113,"trial":27,"RT":539,"MT":839,"sideResp":2,"stimulus":"img/500/randomdotsizeEA/R/14_Ratio_500_L_5_R_10.png","xmouse":[826,826,826,826,826,826,826,826,826,826,826,826,826,826,826,826,826,826,826,826,826,826,826,826,824,821,816,813,811,811,810,809,809,806,806,806,808,813,823,823,819,816,815,816,821,825,830,835,838,845,864,889,915,956,969,976,978,980,980,980,981,984,987,997,1006,1017,1027,1042,1059],"ymouse":[463,463,463,462,462,462,462,462,462,461,460,459,459,459,459,459,459,459,459,459,459,459,459,459,457,455,446,443,434,431,429,425,414,388,376,357,332,294,195,167,143,119,99,74,63,52,44,38,37,35,33,29,24,20,20,20,20,20,20,20,21,22,23,25,27,28,29,29,29],"timestamp_mouse":[18,39,60,79,99,118,138,158,178,200,219,238,260,278,298,318,340,359,379,399,419,438,458,478,500,518,539,559,578,598,619,638,658,680,699,718,738,758,779,799,818,839,859,879,898,920,938,960,978,998,1018,1039,1058,1079,1098,1118,1139,1159,1178,1199,1218,1239,1259,1279,1298,1318,1339,1360,1378],"xSR":741.5,"ySR":449.15000000000003,"xT1":424.9,"yT1":0,"xT2":1058.1,"yT2":0,"toosoon":0,"cond_shown":"randomdotsizeEA","ratio_trial":500,"smaller_num":"5","larger_num":"10","correct_side":2,"subjID":"AndresFernandez28","gender":"0","age":"13","school":"6"},{"start_time":1551801467639,"click_time":1551801468714,"finger_time":1551801468313,"fix_duration":625.2772222771139,"trial":28,"RT":674,"MT":401,"sideResp":1,"stimulus":"img/250/equaldotanddens/L/2_Ratio_250_L_16_R_4.png","xmouse":[787,787,787,787,787,787,787,787,787,787,787,787,787,787,787,787,787,787,787,787,787,787,787,787,787,787,787,787,787,787,787,787,786,783,778,771,729,708,688,676,660,649,634,615,595,576,548,544,541,540,538,532,527,523],"ymouse":[487,483,481,481,473,472,471,471,471,471,471,471,471,471,471,471,471,471,471,471,471,471,471,471,471,471,471,471,471,470,465,461,451,439,415,373,239,195,159,138,113,101,85,69,54,43,29,29,29,29,29,31,33,36],"timestamp_mouse":[15,34,65,75,94,114,134,155,175,194,215,234,255,274,295,315,334,354,375,394,415,436,454,475,494,515,535,554,575,595,615,636,655,674,694,714,734,756,775,795,816,834,854,874,895,916,935,954,975,994,1014,1034,1055,1075],"xSR":741.5,"ySR":449.15000000000003,"xT1":424.9,"yT1":0,"xT2":1058.1,"yT2":0,"toosoon":0,"cond_shown":"equaldotanddens","ratio_trial":250,"smaller_num":"4","larger_num":"16","correct_side":1,"subjID":"AndresFernandez28","gender":"0","age":"13","school":"6"},{"start_time":1551801469923,"click_time":1551801470934,"finger_time":1551801470574,"fix_duration":289.80341668396346,"trial":29,"RT":651,"MT":360,"sideResp":2,"stimulus":"img/250/equaldotanddens/R/10_Ratio_250_L_4_R_16.png","xmouse":[812,812,812,812,812,812,812,812,812,812,812,812,812,812,812,812,812,812,812,812,810,809,801,799,798,798,798,797,794,793,791,791,818,834,845,849,850,850,851,855,863,873,886,886,886,887,897,916,954,1009,1060],"ymouse":[500,500,500,500,500,500,500,500,500,500,500,500,500,500,500,500,500,500,500,500,501,501,499,499,499,499,499,498,496,494,489,474,360,303,260,232,212,179,157,131,96,68,40,40,40,39,38,35,29,22,16],"timestamp_mouse":[11,32,50,71,90,110,130,151,171,190,210,230,251,270,290,312,331,351,370,390,411,430,451,471,492,511,531,550,571,590,610,631,651,670,690,711,730,750,770,791,811,830,851,871,891,910,931,950,970,990,1011],"xSR":741.5,"ySR":449.15000000000003,"xT1":424.9,"yT1":0,"xT2":1058.1,"yT2":0,"toosoon":0,"cond_shown":"equaldotanddens","ratio_trial":250,"smaller_num":"4","larger_num":"16","correct_side":2,"subjID":"AndresFernandez28","gender":"0","age":"13","school":"6"},{"start_time":1551801474571,"click_time":1551801475733,"finger_time":1551801475153,"fix_duration":1375.7011533264226,"trial":30,"RT":582,"MT":580,"sideResp":2,"stimulus":"img/500/equaldotanddens/R/14_Ratio_500_L_5_R_10.png","xmouse":[809,809,809,809,809,809,809,809,809,809,809,809,809,809,809,809,809,809,809,809,809,809,809,809,809,809,809,805,798,790,769,768,768,768,772,779,784,790,798,834,859,899,920,938,959,964,968,973,976,986,989,993,997,1002,1007,1023,1033,1045,1059],"ymouse":[497,497,497,497,497,497,497,497,497,497,497,497,497,497,497,497,497,497,497,497,497,497,497,497,497,497,495,487,470,442,294,236,197,168,147,124,116,109,101,81,70,58,53,51,49,49,49,47,46,42,42,42,42,42,42,42,42,40,37],"timestamp_mouse":[10,33,42,62,83,103,124,143,162,182,204,223,242,262,282,302,323,343,362,383,403,423,442,463,482,503,522,544,562,582,602,622,643,663,682,702,723,743,762,784,802,823,842,862,883,902,922,944,963,983,1002,1023,1043,1063,1082,1103,1123,1142,1162],"xSR":741.5,"ySR":449.15000000000003,"xT1":424.9,"yT1":0,"xT2":1058.1,"yT2":0,"toosoon":0,"cond_shown":"equaldotanddens","ratio_trial":500,"smaller_num":"5","larger_num":"10","correct_side":2,"subjID":"AndresFernandez28","gender":"0","age":"13","school":"6"},{"start_time":1551801476956,"click_time":1551801478133,"finger_time":1551801477753,"fix_duration":420.2409991530116,"trial":31,"RT":797,"MT":380,"sideResp":2,"stimulus":"img/500/randomdotsizeEA/R/9_Ratio_500_L_2_R_4.png","xmouse":[775,775,775,775,775,775,775,775,775,775,775,775,775,775,775,775,775,775,775,775,775,775,775,775,775,775,775,775,775,775,775,775,775,775,772,769,766,762,759,759,768,778,788,799,825,845,869,898,929,971,989,992,995,999,1003,1022,1037,1049,1061],"ymouse":[513,513,513,513,513,513,513,513,513,513,513,513,513,513,513,513,513,513,513,513,513,513,513,513,513,513,513,513,513,513,513,513,513,511,500,496,490,478,459,440,372,346,322,299,256,218,180,148,123,99,91,90,88,85,81,68,61,57,55],"timestamp_mouse":[31,37,57,77,97,119,137,158,177,197,218,238,259,277,297,317,338,357,379,397,418,438,457,477,497,517,537,558,577,598,618,637,657,679,698,718,738,758,778,797,817,837,857,878,899,917,938,957,977,999,1017,1038,1059,1077,1097,1117,1137,1158,1177],"xSR":741.5,"ySR":449.15000000000003,"xT1":424.9,"yT1":0,"xT2":1058.1,"yT2":0,"toosoon":0,"cond_shown":"randomdotsizeEA","ratio_trial":500,"smaller_num":"2","larger_num":"4","correct_side":2,"subjID":"AndresFernandez28","gender":"0","age":"13","school":"6"},{"start_time":1551801481332,"click_time":1551801482374,"finger_time":1551801481974,"fix_duration":898.7840659928429,"trial":32,"RT":642,"MT":400,"sideResp":2,"stimulus":"img/750/equaldotanddens/R/12_Ratio_750_L_3_R_4.png","xmouse":[795,795,795,795,795,795,795,795,795,795,795,795,795,795,795,795,795,795,795,795,795,795,795,795,795,795,795,795,795,795,795,795,795,796,800,803,818,826,832,837,840,854,876,900,923,943,978,992,1007,1024,1037,1047,1061],"ymouse":[478,478,476,475,475,475,474,473,473,473,473,473,473,473,473,473,473,473,473,473,473,473,473,473,473,473,471,470,469,466,462,452,412,389,366,344,302,284,269,257,246,212,174,141,114,94,68,57,44,30,20,11,1],"timestamp_mouse":[2,22,42,61,82,102,121,142,161,181,201,222,241,261,281,302,322,341,362,382,402,422,441,462,481,501,521,542,561,581,602,621,642,662,681,701,723,741,761,782,801,822,841,861,882,901,922,941,962,981,1001,1021,1042],"xSR":741.5,"ySR":449.15000000000003,"xT1":424.9,"yT1":0,"xT2":1058.1,"yT2":0,"toosoon":0,"cond_shown":"equaldotanddens","ratio_trial":750,"smaller_num":"3","larger_num":"4","correct_side":2,"subjID":"AndresFernandez28","gender":"0","age":"13","school":"6"},{"start_time":1551801483996,"click_time":1551801485454,"finger_time":1551801484573,"fix_duration":582.6651890012555,"trial":33,"RT":577,"MT":881,"sideResp":1,"stimulus":"img/250/randomdotsizeEA/L/2_Ratio_250_L_16_R_4.png","xmouse":[821,821,821,821,821,821,821,821,821,821,821,821,821,821,821,821,820,818,816,816,816,815,814,808,802,798,792,783,767,760,751,743,735,724,719,714,711,709,709,707,704,699,679,669,663,662,662,661,653,643,635,628,622,607,603,599,597,594,594,594,594,594,594,594,594,593,591,589,583,566,553,535,515],"ymouse":[529,529,529,529,529,529,529,529,529,529,529,529,529,529,528,527,523,521,519,519,519,517,516,505,498,489,473,453,393,352,296,254,230,202,191,180,172,167,167,163,160,157,145,140,138,138,138,137,134,130,127,125,124,120,118,117,116,115,115,115,115,115,115,115,114,113,112,111,108,105,103,100,98],"timestamp_mouse":[18,38,57,78,99,117,138,159,177,198,217,237,258,277,297,318,337,358,377,397,419,437,457,477,497,518,538,557,577,597,617,639,657,678,697,717,738,758,777,797,817,837,859,877,898,917,938,959,977,997,1018,1038,1058,1077,1097,1118,1137,1159,1177,1197,1217,1237,1259,1279,1297,1318,1337,1358,1377,1397,1417,1438,1458],"xSR":741.5,"ySR":449.15000000000003,"xT1":424.9,"yT1":0,"xT2":1058.1,"yT2":0,"toosoon":0,"cond_shown":"randomdotsizeEA","ratio_trial":250,"smaller_num":"4","larger_num":"16","correct_side":1,"subjID":"AndresFernandez28","gender":"0","age":"13","school":"6"},{"start_time":1551801486765,"click_time":1551801487975,"finger_time":1551801487274,"fix_duration":250,"trial":34,"RT":509,"MT":701,"sideResp":2,"stimulus":"img/250/randomdotsizeEA/R/13_Ratio_250_L_2_R_8.png","xmouse":[821,821,821,821,818,817,817,817,816,816,816,816,816,815,814,814,814,813,813,812,810,809,807,805,802,792,785,782,777,777,777,777,777,777,779,780,780,781,784,803,831,857,893,933,1040,1098,1098,1098,1098,1098,1098,1098,1098,1098,1098,1098,1098,1226,1217,1192,1139],"ymouse":[499,499,499,499,498,497,497,497,497,497,497,497,497,495,494,494,494,494,493,493,491,490,486,479,470,437,414,386,355,322,251,212,195,182,161,159,158,156,149,129,111,97,79,62,20,0,0,0,0,0,0,0,0,0,0,0,0,9,17,35,65],"timestamp_mouse":[8,39,49,69,90,108,128,148,169,189,208,228,248,269,288,308,330,349,369,389,408,429,449,468,488,509,529,550,570,589,608,629,648,670,689,709,729,749,769,790,808,830,848,868,890,909,929,948,968,989,1009,1028,1048,1069,1088,1109,1129,1149,1169,1189,1210],"xSR":741.5,"ySR":449.15000000000003,"xT1":424.9,"yT1":0,"xT2":1058.1,"yT2":0,"toosoon":0,"cond_shown":"randomdotsizeEA","ratio_trial":250,"smaller_num":"2","larger_num":"8","correct_side":2,"subjID":"AndresFernandez28","gender":"0","age":"13","school":"6"},{"start_time":1551801490026,"click_time":1551801491173,"finger_time":1551801490533,"fix_duration":250,"trial":35,"RT":507,"MT":640,"sideResp":2,"stimulus":"img/500/equaldotanddens/R/3_Ratio_500_L_10_R_20.png","xmouse":[785,785,785,785,785,785,785,785,785,785,785,785,785,785,785,785,785,785,785,784,783,782,764,754,744,741,740,737,736,734,730,730,730,731,736,746,791,791,791,791,791,791,791,791,791,791,791,791,791,791,791,791,791,791,791,791,791,1112],"ymouse":[472,472,472,472,472,472,472,472,472,472,472,472,472,472,472,472,472,472,472,472,472,472,472,469,466,465,465,461,455,440,419,395,346,318,280,204,14,14,14,14,14,14,14,14,14,14,14,14,14,14,14,14,14,14,14,14,14,9],"timestamp_mouse":[10,32,47,67,88,108,127,147,168,188,208,228,247,267,288,308,327,347,368,387,408,428,447,468,489,507,527,547,568,589,607,627,648,667,689,707,729,747,767,787,809,829,847,867,889,907,928,948,968,987,1007,1027,1048,1069,1088,1108,1128,1147],"xSR":741.5,"ySR":449.15000000000003,"xT1":424.9,"yT1":0,"xT2":1058.1,"yT2":0,"toosoon":0,"cond_shown":"equaldotanddens","ratio_trial":500,"smaller_num":"10","larger_num":"20","correct_side":2,"subjID":"AndresFernandez28","gender":"0","age":"13","school":"6"},{"start_time":1551801492864,"click_time":1551801494055,"finger_time":1551801493474,"fix_duration":688.8823635850503,"trial":36,"RT":610,"MT":581,"sideResp":2,"stimulus":"img/250/equaldotsize/R/6_Ratio_250_L_6_R_24.png","xmouse":[805,805,805,805,805,805,805,805,805,805,805,805,805,805,805,805,805,805,805,805,805,805,805,805,805,804,802,800,798,789,781,777,771,768,768,770,778,785,789,799,806,816,833,866,929,929,929,929,929,929,929,929,929,929,929,929,929,929,929,1125],"ymouse":[515,515,515,515,515,515,515,515,515,515,515,515,515,515,515,515,515,515,515,515,515,515,515,515,515,509,504,498,491,466,434,404,363,305,253,172,146,122,100,70,62,51,38,23,2,2,2,2,2,2,2,2,2,2,2,2,2,2,2,11],"timestamp_mouse":[11,41,50,70,90,110,129,150,170,190,209,230,250,269,289,309,329,349,369,389,411,429,450,471,489,510,531,550,569,591,610,629,649,669,689,710,729,750,769,791,809,830,850,870,889,910,930,950,970,991,1010,1029,1049,1070,1090,1109,1130,1149,1170,1191],"xSR":741.5,"ySR":449.15000000000003,"xT1":424.9,"yT1":0,"xT2":1058.1,"yT2":0,"toosoon":0,"cond_shown":"equaldotsize","ratio_trial":250,"smaller_num":"6","larger_num":"24","correct_side":2,"subjID":"AndresFernandez28","gender":"0","age":"13","school":"6"},{"start_time":1551801496999,"click_time":1551801498374,"finger_time":1551801497674,"fix_duration":523.8998182111985,"trial":37,"RT":675,"MT":700,"sideResp":2,"stimulus":"img/500/equaldotanddens/R/14_Ratio_500_L_5_R_10.png","xmouse":[808,808,808,808,808,808,808,808,808,808,808,808,808,808,808,808,808,808,808,807,805,803,801,801,801,801,801,801,800,797,793,789,786,781,779,778,778,778,778,778,778,781,788,815,839,866,885,903,955,969,985,994,998,999,1000,1001,1002,1006,1017,1028,1033,1039,1041,1042,1042,1042,1044,1047,1067],"ymouse":[504,504,504,504,504,504,504,504,504,504,504,504,504,504,504,504,504,504,504,504,502,500,499,498,498,498,498,498,498,493,483,469,456,426,408,387,371,356,343,331,312,290,265,207,169,135,113,98,68,60,52,48,46,46,46,46,46,46,48,49,49,50,50,50,50,50,50,50,45],"timestamp_mouse":[14,34,55,75,95,115,135,155,174,194,215,234,255,275,294,314,336,355,375,396,416,434,454,476,494,514,534,555,574,596,615,634,654,675,695,714,734,755,774,795,814,834,854,874,895,915,935,954,974,995,1014,1035,1054,1074,1094,1114,1135,1155,1176,1195,1214,1235,1255,1276,1294,1314,1334,1354,1375],"xSR":741.5,"ySR":449.15000000000003,"xT1":424.9,"yT1":0,"xT2":1058.1,"yT2":0,"toosoon":0,"cond_shown":"equaldotanddens","ratio_trial":500,"smaller_num":"5","larger_num":"10","correct_side":2,"subjID":"AndresFernandez28","gender":"0","age":"13","school":"6"},{"start_time":1551801499811,"click_time":1551801501493,"finger_time":1551801500393,"fix_duration":595.8610092903787,"trial":38,"RT":582,"MT":1100,"sideResp":1,"stimulus":"img/750/randomdotsizeEA/R/11_Ratio_750_L_12_R_16.png","xmouse":[774,774,774,774,774,774,774,774,774,774,774,774,774,774,774,774,774,774,774,774,774,774,774,774,774,774,774,774,767,763,757,749,734,731,730,728,728,728,726,723,720,717,714,701,692,686,676,666,639,623,611,606,600,588,581,574,565,552,548,546,545,545,540,537,535,531,519,505,503,502,501,501,501,500,500,500,500,500,500,500,500,500,500,500,500],"ymouse":[528,528,528,528,528,528,528,528,528,528,528,528,528,528,528,528,528,528,528,528,528,528,528,528,522,514,506,496,458,437,414,387,337,320,312,302,295,285,249,231,221,213,210,200,195,190,183,178,163,157,151,147,145,141,139,137,135,130,128,127,126,126,122,118,116,114,110,108,107,107,106,106,106,105,104,104,104,103,103,103,102,101,100,100,99],"timestamp_mouse":[9,23,43,63,82,102,123,142,162,182,203,223,242,262,282,302,323,343,362,384,404,422,443,462,483,502,523,544,563,582,603,623,644,662,683,702,723,743,762,783,803,824,843,863,882,902,922,942,962,983,1002,1023,1043,1063,1082,1102,1123,1143,1162,1182,1204,1224,1244,1262,1283,1303,1323,1344,1362,1382,1402,1423,1442,1463,1482,1503,1523,1543,1563,1583,1603,1623,1644,1663,1682],"xSR":741.5,"ySR":449.15000000000003,"xT1":424.9,"yT1":0,"xT2":1058.1,"yT2":0,"toosoon":0,"cond_shown":"randomdotsizeEA","ratio_trial":750,"smaller_num":"12","larger_num":"16","correct_side":2,"subjID":"AndresFernandez28","gender":"0","age":"13","school":"6"},{"start_time":1551801504303,"click_time":1551801505155,"finger_time":1551801504754,"fix_duration":1146.1905235933045,"trial":39,"RT":451,"MT":401,"sideResp":2,"stimulus":"img/250/equaldotanddens/R/12_Ratio_250_L_5_R_20.png","xmouse":[808,808,808,808,808,808,808,808,808,808,808,808,808,808,808,808,808,808,808,807,807,811,826,833,833,833,833,830,827,825,827,846,891,906,911,918,923,927,944,958,979,1011,1088],"ymouse":[477,477,477,477,477,477,477,477,477,477,477,477,477,477,476,476,476,476,476,471,461,450,413,397,395,393,389,371,348,318,283,235,151,112,95,81,68,59,38,29,21,13,2],"timestamp_mouse":[11,33,50,71,90,112,131,150,170,191,211,232,250,271,292,311,331,350,370,390,412,430,451,470,491,512,530,551,571,591,610,631,652,670,690,710,731,751,771,791,810,833,852],"xSR":741.5,"ySR":449.15000000000003,"xT1":424.9,"yT1":0,"xT2":1058.1,"yT2":0,"toosoon":0,"cond_shown":"equaldotanddens","ratio_trial":250,"smaller_num":"5","larger_num":"20","correct_side":2,"subjID":"AndresFernandez28","gender":"0","age":"13","school":"6"},{"start_time":1551801506787,"click_time":1551801507793,"finger_time":1551801507274,"fix_duration":690.9908343271728,"trial":40,"RT":487,"MT":519,"sideResp":2,"stimulus":"img/500/equaldotsize/R/12_Ratio_500_L_1_R_2.png","xmouse":[821,821,821,821,821,821,821,821,821,821,821,821,821,821,820,819,818,816,813,811,809,808,805,800,787,783,778,773,770,762,761,762,768,779,816,843,870,896,914,942,949,954,961,968,991,1006,1019,1028,1036,1048,1062],"ymouse":[481,480,480,480,478,478,478,478,478,478,478,478,477,477,475,474,472,471,467,464,462,460,458,453,440,434,424,416,407,372,354,336,320,301,257,234,211,188,170,137,128,120,108,94,58,39,25,19,17,17,17],"timestamp_mouse":[9,28,50,67,86,107,126,146,166,186,206,227,247,266,286,308,326,346,368,387,407,427,447,466,487,507,526,548,567,586,606,627,646,667,686,706,727,746,767,786,806,826,848,867,887,906,926,946,967,988,1006],"xSR":741.5,"ySR":449.15000000000003,"xT1":424.9,"yT1":0,"xT2":1058.1,"yT2":0,"toosoon":0,"cond_shown":"equaldotsize","ratio_trial":500,"smaller_num":"1","larger_num":"2","correct_side":2,"subjID":"AndresFernandez28","gender":"0","age":"13","school":"6"},{"start_time":1551801508992,"click_time":1551801510974,"finger_time":1551801509455,"fix_duration":377.3955633613812,"trial":41,"RT":463,"MT":1519,"sideResp":1,"stimulus":"img/750/randomdotsizeEA/L/14_Ratio_750_L_8_R_6.png","xmouse":[808,808,808,808,808,808,808,808,808,808,808,808,808,808,807,806,805,804,803,799,794,789,781,760,751,743,738,734,731,728,726,725,724,724,724,731,757,787,822,830,836,842,853,889,910,933,966,978,978,978,978,978,978,978,978,1002,991,958,916,811,732,662,584,502,368,312,287,281,276,270,268,267,266,265,265,265,266,271,290,301,316,320,327,336,352,352,349,347,346,345,345,345,345,345,346,346,349,357,379,464],"ymouse":[512,511,511,510,509,509,508,508,508,508,508,508,508,508,507,505,503,502,499,492,484,474,461,425,410,391,380,371,362,358,351,344,337,323,267,212,158,105,65,61,60,58,56,46,35,22,5,1,1,1,1,1,1,1,1,0,6,25,49,99,132,162,200,238,292,307,309,308,303,290,287,285,282,274,269,263,259,251,228,217,206,202,195,181,147,140,132,126,123,122,122,122,122,122,122,122,121,119,109,66],"timestamp_mouse":[8,21,43,62,83,102,122,141,161,181,202,223,241,261,283,301,323,341,361,383,403,422,441,463,481,502,522,541,563,581,601,621,643,662,681,701,722,741,763,781,801,821,842,863,881,902,923,942,963,982,1001,1021,1041,1062,1081,1101,1121,1143,1161,1181,1202,1222,1241,1261,1281,1302,1323,1342,1361,1381,1403,1422,1442,1462,1481,1501,1522,1541,1563,1581,1602,1622,1642,1661,1681,1702,1721,1741,1761,1781,1801,1822,1841,1863,1881,1901,1921,1941,1963,1982],"xSR":741.5,"ySR":449.15000000000003,"xT1":424.9,"yT1":0,"xT2":1058.1,"yT2":0,"toosoon":0,"cond_shown":"randomdotsizeEA","ratio_trial":750,"smaller_num":"6","larger_num":"8","correct_side":1,"subjID":"AndresFernandez28","gender":"0","age":"13","school":"6"},{"start_time":1551801512956,"click_time":1551801514073,"finger_time":1551801513454,"fix_duration":720.1402741830166,"trial":42,"RT":498,"MT":619,"sideResp":1,"stimulus":"img/750/equaldotanddens/L/13_Ratio_750_L_8_R_6.png","xmouse":[778,778,778,778,778,778,778,778,778,778,778,778,778,778,778,778,778,778,778,778,778,778,779,779,779,778,778,778,778,778,778,778,778,779,780,776,771,765,756,748,711,692,675,652,603,581,561,542,530,520,499,493,481,472,457,451],"ymouse":[492,492,492,492,492,492,492,492,492,492,492,492,492,492,492,492,492,492,492,492,492,492,489,482,442,424,406,386,366,314,273,244,209,186,164,158,152,146,140,136,128,128,128,128,128,128,128,128,127,126,120,116,111,108,100,97],"timestamp_mouse":[18,48,58,78,98,119,137,157,179,198,217,237,258,278,297,318,338,358,379,397,418,438,458,478,498,517,538,557,577,599,617,638,658,678,699,717,737,758,777,798,818,837,858,879,899,917,938,957,977,999,1018,1038,1058,1077,1098,1117],"xSR":741.5,"ySR":449.15000000000003,"xT1":424.9,"yT1":0,"xT2":1058.1,"yT2":0,"toosoon":0,"cond_shown":"equaldotanddens","ratio_trial":750,"smaller_num":"6","larger_num":"8","correct_side":1,"subjID":"AndresFernandez28","gender":"0","age":"13","school":"6"},{"start_time":1551801516093,"click_time":1551801516973,"finger_time":1551801516653,"fix_duration":897.4972914246288,"trial":43,"RT":560,"MT":320,"sideResp":1,"stimulus":"img/500/equaldotanddens/L/4_Ratio_500_L_18_R_9.png","xmouse":[785,785,785,785,785,785,785,785,785,785,785,785,785,785,785,785,785,785,785,785,785,784,782,782,781,780,778,776,769,740,717,694,672,662,653,650,647,645,632,620,600,569,544,529,522],"ymouse":[485,485,485,485,485,485,485,485,485,485,485,485,485,485,485,485,485,485,485,485,485,482,479,477,474,472,468,458,440,364,308,252,205,181,158,152,145,140,122,110,95,82,72,66,63],"timestamp_mouse":[8,30,40,62,80,100,120,140,161,180,200,221,240,260,280,300,322,340,361,380,402,421,440,461,481,501,521,541,560,580,600,622,641,662,681,702,720,740,761,780,801,822,840,861,880],"xSR":741.5,"ySR":449.15000000000003,"xT1":424.9,"yT1":0,"xT2":1058.1,"yT2":0,"toosoon":0,"cond_shown":"equaldotanddens","ratio_trial":500,"smaller_num":"9","larger_num":"18","correct_side":1,"subjID":"AndresFernandez28","gender":"0","age":"13","school":"6"},{"start_time":1551801520654,"click_time":1551801521974,"finger_time":1551801521314,"fix_duration":1359.1138403712412,"trial":44,"RT":660,"MT":660,"sideResp":2,"stimulus":"img/750/equaldotsize/R/4_Ratio_750_L_15_R_20.png","xmouse":[782,782,782,782,782,782,782,782,782,782,782,782,782,782,782,782,782,782,782,782,782,782,782,782,782,782,782,782,782,782,782,779,776,770,760,750,741,741,741,741,743,750,760,769,777,789,830,858,891,925,952,992,995,995,996,997,1003,1007,1012,1014,1026,1035,1043,1048,1051,1054,1066],"ymouse":[497,497,497,497,497,497,497,497,497,497,497,497,497,497,497,497,497,497,497,497,497,497,497,497,497,497,497,497,497,497,497,482,462,415,349,281,195,180,172,170,163,151,137,121,110,96,71,56,42,30,22,12,11,11,11,11,11,13,13,14,15,15,15,15,15,15,15],"timestamp_mouse":[1,33,39,60,80,100,119,140,160,180,199,220,240,259,279,300,319,341,360,380,401,419,439,459,480,499,519,539,560,579,600,621,640,660,679,701,720,740,759,779,800,819,841,859,879,900,920,939,960,980,1000,1019,1040,1059,1080,1101,1120,1140,1159,1179,1200,1219,1240,1259,1280,1301,1320],"xSR":741.5,"ySR":449.15000000000003,"xT1":424.9,"yT1":0,"xT2":1058.1,"yT2":0,"toosoon":0,"cond_shown":"equaldotsize","ratio_trial":750,"smaller_num":"15","larger_num":"20","correct_side":2,"subjID":"AndresFernandez28","gender":"0","age":"13","school":"6"},{"start_time":1551801524846,"click_time":1551801527354,"finger_time":1551801526635,"fix_duration":390.99840130999183,"trial":45,"RT":1789,"MT":719,"sideResp":1,"stimulus":"img/900/randomdotsizeEA/R/13_Ratio_900_L_18_R_20.png","xmouse":[804,804,804,804,804,804,804,804,804,804,804,804,804,804,804,804,804,804,804,804,804,804,804,804,804,803,803,802,802,802,802,802,802,802,802,802,802,802,802,802,801,801,801,801,801,801,801,801,801,801,801,801,801,801,801,801,801,801,801,801,801,801,801,801,801,801,801,801,801,801,801,801,801,801,801,801,801,801,801,801,801,801,801,801,801,801,799,796,792,785,772,767,762,755,749,734,719,708,696,681,666,633,620,605,593,579,573,567,561,555,550,545,541,536,532,529,528,526,524,521,515,508,504,503,500,483],"ymouse":[506,506,506,506,506,506,506,506,506,506,506,506,506,506,506,506,506,506,506,506,506,506,506,506,505,502,501,500,500,500,500,500,500,500,500,500,500,500,500,500,498,497,497,497,497,497,497,497,497,497,497,497,497,497,497,497,497,497,497,497,497,497,497,497,497,497,497,497,497,497,497,497,497,497,497,497,497,497,497,497,497,497,497,497,496,495,489,480,465,442,376,350,326,303,284,253,228,212,195,178,163,146,145,145,145,144,144,144,144,144,144,144,143,140,138,136,135,134,130,124,118,108,105,104,101,93],"timestamp_mouse":[10,39,48,67,87,107,127,148,167,189,207,227,247,268,288,308,328,347,369,387,408,428,447,468,487,507,528,549,567,588,609,627,647,668,688,709,727,747,767,787,809,827,847,868,887,909,927,948,968,988,1009,1027,1047,1068,1089,1107,1128,1148,1168,1187,1208,1228,1247,1268,1288,1307,1328,1347,1367,1387,1407,1429,1447,1467,1487,1507,1528,1547,1567,1587,1607,1627,1647,1669,1688,1708,1728,1747,1767,1789,1809,1828,1848,1867,1888,1909,1927,1948,1968,1987,2008,2027,2047,2067,2087,2109,2127,2148,2168,2188,2208,2228,2248,2268,2287,2307,2327,2347,2368,2388,2408,2428,2447,2467,2487,2508],"xSR":741.5,"ySR":449.15000000000003,"xT1":424.9,"yT1":0,"xT2":1058.1,"yT2":0,"toosoon":0,"cond_shown":"randomdotsizeEA","ratio_trial":900,"smaller_num":"18","larger_num":"20","correct_side":2,"subjID":"AndresFernandez28","gender":"0","age":"13","school":"6"},{"start_time":1551801529604,"click_time":1551801530773,"finger_time":1551801530173,"fix_duration":308.03942874824173,"trial":46,"RT":569,"MT":600,"sideResp":1,"stimulus":"img/500/equaldotsize/L/8_Ratio_500_L_8_R_4.png","xmouse":[789,788,788,783,783,783,783,783,783,783,783,783,783,783,783,783,783,783,783,783,783,783,783,783,783,783,780,777,760,750,740,730,711,700,686,672,655,635,547,486,417,360,327,326,325,322,316,307,302,302,301,301,301,301,301,304,321,352,441],"ymouse":[517,515,515,510,509,509,509,509,509,509,509,509,509,509,509,509,509,509,509,509,509,509,509,509,509,509,503,496,445,422,398,376,329,306,285,269,255,243,213,189,164,148,143,143,143,143,143,141,140,140,139,138,137,133,129,120,101,76,11],"timestamp_mouse":[10,33,49,69,90,110,131,150,169,189,209,231,250,271,290,310,330,351,369,389,409,430,449,470,490,511,531,549,569,590,610,629,651,670,690,709,729,750,770,790,811,831,850,869,889,909,929,949,970,989,1009,1030,1051,1070,1091,1110,1129,1149,1169],"xSR":741.5,"ySR":449.15000000000003,"xT1":424.9,"yT1":0,"xT2":1058.1,"yT2":0,"toosoon":0,"cond_shown":"equaldotsize","ratio_trial":500,"smaller_num":"4","larger_num":"8","correct_side":1,"subjID":"AndresFernandez28","gender":"0","age":"13","school":"6"},{"start_time":1551801534916,"click_time":1551801536273,"finger_time":1551801535435,"fix_duration":940.515537551279,"trial":47,"RT":519,"MT":838,"sideResp":2,"stimulus":"img/500/equaldotsize/R/3_Ratio_500_L_10_R_20.png","xmouse":[815,815,815,815,814,814,814,814,814,814,814,814,814,814,814,814,814,814,814,814,814,813,812,809,804,800,781,766,750,742,734,731,729,729,729,735,751,820,853,870,877,879,883,891,905,920,946,955,963,975,989,1028,1049,1049,1049,1049,1049,1049,1049,1049,1049,1049,1049,1049,1049,1096,1096,1098],"ymouse":[495,495,488,485,481,480,480,480,480,480,480,480,480,480,480,480,480,480,480,480,480,478,475,466,457,445,400,368,335,313,294,283,268,262,255,241,218,147,123,114,110,109,104,93,79,64,43,37,33,30,23,9,0,0,0,0,0,0,0,0,0,0,0,0,0,0,0,4],"timestamp_mouse":[22,37,58,79,99,119,138,157,178,197,218,239,259,279,298,317,338,359,378,398,419,439,457,477,498,519,539,558,578,598,618,637,657,679,699,718,739,757,778,799,819,839,857,878,897,918,939,957,978,999,1017,1038,1057,1077,1098,1117,1137,1157,1179,1197,1217,1237,1258,1278,1298,1319,1338,1357],"xSR":741.5,"ySR":449.15000000000003,"xT1":424.9,"yT1":0,"xT2":1058.1,"yT2":0,"toosoon":0,"cond_shown":"equaldotsize","ratio_trial":500,"smaller_num":"10","larger_num":"20","correct_side":2,"subjID":"AndresFernandez28","gender":"0","age":"13","school":"6"},{"start_time":1551801538580,"click_time":1551801540355,"finger_time":1551801539253,"fix_duration":1423.4513401313054,"trial":48,"RT":673,"MT":1102,"sideResp":1,"stimulus":"img/500/equaldotsize/L/13_Ratio_500_L_12_R_6.png","xmouse":[780,780,780,780,780,780,780,780,779,779,777,777,777,777,777,777,777,777,777,777,777,777,777,777,777,777,777,777,777,777,777,777,775,773,770,767,762,756,750,727,716,706,697,688,677,673,669,668,666,657,651,628,591,557,520,509,498,488,483,481,481,481,481,481,481,481,481,481,481,481,481,481,481,481,481,481,481,481,481,481,480,480,480,480,480,479,479,478,478],"ymouse":[495,495,495,495,495,495,495,495,495,495,495,495,495,495,495,495,495,495,495,495,495,495,495,495,495,495,495,495,495,490,481,471,458,444,420,414,402,390,376,325,298,275,255,239,220,214,210,209,208,207,206,202,198,191,161,146,132,121,114,113,113,113,113,113,113,113,113,113,113,113,113,111,110,109,109,109,109,109,109,109,107,107,107,107,107,105,102,101,99],"timestamp_mouse":[14,45,53,73,94,114,133,153,173,194,215,233,254,274,294,313,334,353,374,395,414,433,455,474,494,514,533,553,573,594,613,634,653,673,693,713,733,754,774,794,813,834,855,873,893,914,934,953,974,994,1013,1033,1053,1074,1094,1113,1135,1155,1174,1195,1213,1233,1254,1274,1293,1313,1334,1353,1375,1393,1414,1434,1453,1474,1494,1514,1535,1553,1573,1593,1615,1633,1653,1674,1693,1713,1734,1754,1775],"xSR":741.5,"ySR":449.15000000000003,"xT1":424.9,"yT1":0,"xT2":1058.1,"yT2":0,"toosoon":0,"cond_shown":"equaldotsize","ratio_trial":500,"smaller_num":"6","larger_num":"12","correct_side":1,"subjID":"AndresFernandez28","gender":"0","age":"13","school":"6"},{"start_time":1551801542465,"click_time":1551801543773,"finger_time":1551801543094,"fix_duration":1129.131419710251,"trial":49,"RT":629,"MT":679,"sideResp":1,"stimulus":"img/500/equaldotanddens/L/5_Ratio_500_L_4_R_2.png","xmouse":[794,794,794,794,794,794,794,794,794,794,794,794,794,794,794,794,794,794,794,794,794,794,794,794,794,794,794,794,794,794,794,794,799,802,805,813,813,813,811,806,795,790,787,784,777,771,769,764,752,723,712,695,670,648,632,606,602,594,589,582,573,566,561,557,553,523],"ymouse":[493,493,493,493,493,493,493,493,493,493,493,493,493,493,493,493,493,493,493,493,493,493,493,493,493,493,493,493,493,483,452,420,387,363,341,278,265,250,236,222,197,188,182,178,169,163,161,158,152,136,130,121,109,102,96,89,88,87,86,86,84,81,80,79,79,75],"timestamp_mouse":[9,37,48,68,89,108,129,148,170,188,209,229,249,270,288,310,328,349,370,389,408,430,449,468,489,508,529,548,569,588,608,629,648,669,689,708,728,749,768,788,809,829,850,868,889,908,928,950,968,990,1009,1028,1050,1069,1089,1108,1128,1148,1169,1189,1208,1229,1248,1268,1289,1308],"xSR":741.5,"ySR":449.15000000000003,"xT1":424.9,"yT1":0,"xT2":1058.1,"yT2":0,"toosoon":0,"cond_shown":"equaldotanddens","ratio_trial":500,"smaller_num":"2","larger_num":"4","correct_side":1,"subjID":"AndresFernandez28","gender":"0","age":"13","school":"6"},{"start_time":1551801546109,"click_time":1551801548095,"finger_time":1551801546775,"fix_duration":953.0120312665526,"trial":50,"RT":666,"MT":1320,"sideResp":1,"stimulus":"img/750/equaldotsize/L/13_Ratio_750_L_8_R_6.png","xmouse":[771,771,771,771,771,771,771,771,771,771,771,771,771,771,771,771,771,771,771,771,771,771,771,771,771,771,771,771,770,768,767,767,765,764,761,758,756,751,734,721,702,686,665,654,650,645,640,626,612,606,602,600,595,582,563,553,543,539,538,538,538,538,511,454,419,398,383,369,345,342,340,340,340,340,340,340,341,345,376,392,402,406,406,406,406,406,406,406,407,408,408,409,412,418,420,422,423,423,424,426],"ymouse":[493,493,493,493,493,493,493,493,493,493,493,493,493,493,493,493,493,493,493,493,493,493,493,493,493,492,492,492,487,478,471,467,457,449,440,426,415,397,348,319,287,263,236,221,212,204,198,186,172,167,164,163,163,161,157,154,150,148,147,145,144,142,131,115,104,97,92,89,83,82,81,81,81,81,81,81,81,81,81,79,77,76,76,76,76,76,75,74,72,71,70,70,70,70,70,70,70,70,70,70],"timestamp_mouse":[10,31,44,64,84,105,126,144,165,186,204,224,245,266,285,305,325,345,364,384,405,424,445,464,485,505,524,545,565,586,605,625,645,666,684,704,724,745,765,785,804,824,846,865,884,904,925,945,964,984,1004,1024,1044,1064,1085,1104,1125,1145,1164,1184,1204,1224,1245,1264,1284,1306,1325,1344,1364,1384,1405,1424,1445,1464,1486,1505,1525,1544,1564,1585,1604,1624,1645,1664,1684,1704,1724,1744,1764,1785,1805,1824,1845,1864,1885,1904,1924,1945,1965,1985],"xSR":741.5,"ySR":449.15000000000003,"xT1":424.9,"yT1":0,"xT2":1058.1,"yT2":0,"toosoon":0,"cond_shown":"equaldotsize","ratio_trial":750,"smaller_num":"6","larger_num":"8","correct_side":1,"subjID":"AndresFernandez28","gender":"0","age":"13","school":"6"},{"start_time":1551801549738,"click_time":1551801550813,"finger_time":1551801550173,"fix_duration":462.2209982145492,"trial":51,"RT":435,"MT":640,"sideResp":2,"stimulus":"img/250/equaldotanddens/R/12_Ratio_250_L_5_R_20.png","xmouse":[798,798,798,798,798,798,798,798,798,798,798,798,798,798,798,798,798,798,798,798,797,795,792,790,789,787,786,785,784,782,781,780,780,780,780,784,810,839,869,909,948,1036,1036,1036,1036,1036,1036,1036,1036,1036,1036,1036,1036,1096],"ymouse":[468,468,468,468,468,468,468,468,468,468,468,468,468,468,468,468,468,468,468,467,465,441,428,413,402,395,385,380,375,371,363,348,329,314,294,275,209,168,130,96,68,1,1,1,1,1,1,1,1,1,1,1,1,11],"timestamp_mouse":[17,36,55,76,96,116,135,155,176,195,215,236,255,275,296,317,336,356,375,395,417,435,457,476,497,515,535,555,575,595,616,635,655,677,696,716,736,755,775,796,815,835,856,876,896,916,936,955,975,995,1015,1036,1056,1075],"xSR":741.5,"ySR":449.15000000000003,"xT1":424.9,"yT1":0,"xT2":1058.1,"yT2":0,"toosoon":0,"cond_shown":"equaldotanddens","ratio_trial":250,"smaller_num":"5","larger_num":"20","correct_side":2,"subjID":"AndresFernandez28","gender":"0","age":"13","school":"6"},{"start_time":1551801552238,"click_time":1551801554874,"finger_time":1551801552774,"fix_duration":382.3279158878499,"trial":52,"RT":536,"MT":2100,"sideResp":1,"stimulus":"img/900/equaldotsize/L/10_Ratio_900_L_20_R_18.png","xmouse":[827,827,827,827,827,827,827,827,827,827,826,826,826,826,825,825,825,825,825,825,825,824,823,822,822,818,816,813,808,803,790,783,777,769,764,759,752,748,741,734,731,725,724,722,722,722,722,722,722,722,722,722,722,722,722,722,722,722,722,722,722,722,722,722,722,721,721,721,716,706,692,635,589,534,480,431,322,275,269,264,264,263,263,263,264,270,385,385,385,385,385,385,385,385,385,385,385,385,385,385,592,565,559,557,555,555,555,555,555,555,555,552,549,545,542,535,533,533,533,533,533,533,533,533,532,532,531,531,530,529,526,524],"ymouse":[470,470,470,470,470,470,470,470,470,470,470,470,469,469,467,467,467,467,467,465,464,462,461,459,458,452,448,440,428,418,383,361,342,322,312,300,287,278,267,258,254,247,244,243,242,242,242,242,242,242,242,242,242,242,242,242,242,242,242,242,242,242,242,242,242,241,233,223,208,189,172,150,138,128,122,114,100,99,102,103,103,103,103,102,100,92,10,10,10,10,10,10,10,10,10,10,10,10,10,10,16,56,67,72,77,82,82,82,82,82,82,83,82,81,79,79,79,79,79,79,79,79,79,79,79,79,79,79,78,77,76,75],"timestamp_mouse":[16,39,57,76,96,117,136,155,175,196,216,235,255,275,295,316,335,356,376,396,415,436,456,475,495,517,536,555,576,596,617,635,655,675,695,715,735,756,775,796,815,836,855,875,895,916,936,956,975,995,1015,1035,1055,1075,1095,1116,1135,1155,1176,1196,1216,1235,1255,1276,1296,1315,1337,1356,1375,1395,1415,1435,1455,1476,1496,1515,1535,1556,1576,1596,1616,1635,1655,1676,1695,1715,1735,1756,1775,1795,1817,1836,1855,1875,1895,1916,1936,1957,1976,1996,2017,2035,2055,2075,2096,2117,2136,2156,2177,2197,2215,2235,2255,2275,2295,2317,2335,2356,2376,2397,2416,2436,2455,2475,2496,2516,2535,2555,2576,2595,2615,2636],"xSR":741.5,"ySR":449.15000000000003,"xT1":424.9,"yT1":0,"xT2":1058.1,"yT2":0,"toosoon":0,"cond_shown":"equaldotsize","ratio_trial":900,"smaller_num":"18","larger_num":"20","correct_side":1,"subjID":"AndresFernandez28","gender":"0","age":"13","school":"6"},{"start_time":1551801558125,"click_time":1551801559473,"finger_time":1551801558633,"fix_duration":250,"trial":53,"RT":508,"MT":840,"sideResp":1,"stimulus":"img/250/equaldotsize/L/3_Ratio_250_L_8_R_2.png","xmouse":[778,778,780,780,780,780,780,780,780,780,780,780,780,780,781,781,781,781,781,781,781,779,773,770,767,762,757,748,742,737,735,733,732,730,726,722,718,704,698,689,676,664,631,623,615,607,606,604,603,602,599,595,557,533,512,487,465,424,407,396,386,381,380,380,380,381,398,426],"ymouse":[514,513,513,513,513,513,513,513,513,513,513,513,513,513,512,512,511,509,508,507,504,497,477,468,460,449,436,410,396,384,377,367,361,348,334,322,308,288,281,275,267,260,237,231,227,223,223,223,223,223,223,223,212,199,188,177,171,159,154,150,147,146,146,146,146,144,126,99],"timestamp_mouse":[11,32,48,68,89,108,130,148,169,189,209,230,248,268,288,308,328,348,369,388,410,429,448,469,489,508,528,549,570,588,608,629,648,669,690,709,728,749,768,788,808,828,848,868,888,910,929,949,968,989,1008,1028,1048,1069,1090,1109,1128,1148,1168,1188,1208,1228,1248,1268,1288,1309,1329,1348],"xSR":741.5,"ySR":449.15000000000003,"xT1":424.9,"yT1":0,"xT2":1058.1,"yT2":0,"toosoon":0,"cond_shown":"equaldotsize","ratio_trial":250,"smaller_num":"2","larger_num":"8","correct_side":1,"subjID":"AndresFernandez28","gender":"0","age":"13","school":"6"},{"start_time":1551801561237,"click_time":1551801562154,"finger_time":1551801561673,"fix_duration":563.459423437298,"trial":54,"RT":436,"MT":481,"sideResp":2,"stimulus":"img/250/equaldotanddens/R/13_Ratio_250_L_2_R_8.png","xmouse":[800,800,799,798,798,798,798,798,798,798,797,796,795,793,790,787,781,777,774,770,767,760,758,755,753,749,748,748,751,762,797,809,821,835,852,875,886,893,898,902,907,915,937,975,1038,1147],"ymouse":[497,497,496,495,495,495,495,495,495,495,495,494,492,490,488,485,478,470,463,458,453,442,438,432,426,417,414,405,393,376,327,302,277,246,212,161,139,132,130,128,128,124,115,95,66,5],"timestamp_mouse":[18,36,56,76,96,116,137,157,176,196,217,237,256,276,297,317,337,356,377,396,416,436,456,476,497,518,536,557,577,597,618,636,656,676,696,718,736,757,776,796,817,836,857,878,896,917],"xSR":741.5,"ySR":449.15000000000003,"xT1":424.9,"yT1":0,"xT2":1058.1,"yT2":0,"toosoon":0,"cond_shown":"equaldotanddens","ratio_trial":250,"smaller_num":"2","larger_num":"8","correct_side":2,"subjID":"AndresFernandez28","gender":"0","age":"13","school":"6"},{"start_time":1551801565352,"click_time":1551801566313,"finger_time":1551801565893,"fix_duration":1396.5456789149619,"trial":55,"RT":541,"MT":420,"sideResp":2,"stimulus":"img/750/equaldotanddens/R/12_Ratio_750_L_3_R_4.png","xmouse":[806,806,806,806,806,806,806,806,806,806,806,806,806,806,806,806,806,806,806,806,806,806,806,806,806,806,807,809,811,814,830,862,900,952,1004,1080,1105,1123,1134,1137,1137,1132,1128,1121,1113,1107,1095,1095,1095],"ymouse":[479,479,479,479,479,479,479,479,479,479,479,479,479,479,479,479,479,479,479,479,479,479,479,478,475,460,452,445,441,437,420,398,372,337,298,233,206,184,168,158,150,142,138,131,123,116,102,100,99],"timestamp_mouse":[8,32,41,62,81,101,121,141,162,182,201,222,242,261,281,302,321,341,362,381,402,421,443,461,482,502,522,541,561,581,603,621,641,661,682,703,722,742,761,781,803,821,841,862,882,902,923,941,961],"xSR":741.5,"ySR":449.15000000000003,"xT1":424.9,"yT1":0,"xT2":1058.1,"yT2":0,"toosoon":0,"cond_shown":"equaldotanddens","ratio_trial":750,"smaller_num":"3","larger_num":"4","correct_side":2,"subjID":"AndresFernandez28","gender":"0","age":"13","school":"6"},{"start_time":1551801569190,"click_time":1551801570634,"finger_time":1551801569714,"fix_duration":254.3366045585439,"trial":56,"RT":524,"MT":920,"sideResp":1,"stimulus":"img/900/equaldotanddens/L/10_Ratio_900_L_20_R_18.png","xmouse":[775,775,775,775,775,775,775,775,775,775,775,775,775,775,775,775,775,775,775,775,775,776,777,778,779,779,779,779,779,779,778,775,771,767,757,756,753,752,752,755,763,766,766,766,760,753,739,721,701,661,646,641,637,636,634,632,626,609,589,566,561,558,558,558,557,557,556,556,555,548,541,532,523],"ymouse":[475,475,475,475,475,475,475,475,475,475,475,475,475,475,475,475,475,475,475,475,475,475,473,470,460,454,449,442,436,413,403,390,374,359,325,309,291,275,255,216,184,166,154,146,143,143,147,149,152,152,149,148,145,144,138,134,127,114,97,67,60,58,58,58,58,59,60,61,61,61,63,64,64],"timestamp_mouse":[4,23,49,63,83,103,123,143,163,183,203,223,243,264,283,303,323,343,365,385,403,423,444,464,484,503,524,543,564,584,603,623,644,664,684,703,724,744,764,783,803,823,844,863,883,904,923,943,963,983,1003,1024,1043,1064,1084,1105,1124,1143,1163,1184,1203,1223,1243,1264,1283,1303,1324,1343,1364,1383,1403,1424,1444],"xSR":741.5,"ySR":449.15000000000003,"xT1":424.9,"yT1":0,"xT2":1058.1,"yT2":0,"toosoon":0,"cond_shown":"equaldotanddens","ratio_trial":900,"smaller_num":"18","larger_num":"20","correct_side":1,"subjID":"AndresFernandez28","gender":"0","age":"13","school":"6"},{"start_time":1551801571887,"click_time":1551801573034,"finger_time":1551801572393,"fix_duration":250,"trial":57,"RT":506,"MT":641,"sideResp":1,"stimulus":"img/500/equaldotanddens/L/13_Ratio_500_L_12_R_6.png","xmouse":[801,801,801,801,813,820,824,827,828,828,828,828,829,829,831,831,832,833,834,834,834,834,834,834,831,829,829,829,829,826,822,816,811,805,790,776,764,750,723,707,687,672,659,629,610,598,588,580,569,566,564,563,556,551,540,536,530,524],"ymouse":[505,505,505,505,507,508,509,509,509,509,509,509,509,509,509,509,509,509,507,503,500,495,491,485,462,444,423,403,360,340,321,303,286,273,252,240,234,229,218,209,194,179,164,132,111,95,80,69,54,50,47,47,47,47,47,47,47,47],"timestamp_mouse":[9,32,48,66,86,108,126,147,167,186,206,226,246,266,286,307,326,347,367,387,407,427,448,467,486,506,527,546,568,586,606,627,646,667,686,707,726,746,768,786,806,826,847,868,886,907,926,946,967,986,1006,1028,1046,1066,1086,1108,1126,1147],"xSR":741.5,"ySR":449.15000000000003,"xT1":424.9,"yT1":0,"xT2":1058.1,"yT2":0,"toosoon":0,"cond_shown":"equaldotanddens","ratio_trial":500,"smaller_num":"6","larger_num":"12","correct_side":1,"subjID":"AndresFernandez28","gender":"0","age":"13","school":"6"},{"start_time":1551801574285,"click_time":1551801575294,"finger_time":1551801574833,"fix_duration":250,"trial":58,"RT":548,"MT":461,"sideResp":1,"stimulus":"img/500/randomdotsizeEA/L/13_Ratio_500_L_12_R_6.png","xmouse":[783,783,783,783,783,783,783,783,783,783,783,783,783,783,783,783,783,783,783,783,783,783,783,783,783,783,783,783,783,783,783,783,783,783,781,778,776,776,766,758,750,738,727,717,682,664,647,627,600,533,516],"ymouse":[513,513,513,513,513,513,513,513,513,513,513,513,513,513,513,513,513,513,513,513,513,513,511,506,482,470,455,440,423,390,379,365,352,336,286,266,246,227,191,178,167,159,154,152,143,137,133,124,115,96,92],"timestamp_mouse":[10,35,48,70,88,109,129,149,168,188,208,229,249,268,288,310,328,348,368,389,408,429,448,469,490,508,529,548,568,589,608,628,649,669,689,708,728,748,769,789,809,828,849,868,889,909,928,949,968,988,1009],"xSR":741.5,"ySR":449.15000000000003,"xT1":424.9,"yT1":0,"xT2":1058.1,"yT2":0,"toosoon":0,"cond_shown":"randomdotsizeEA","ratio_trial":500,"smaller_num":"6","larger_num":"12","correct_side":1,"subjID":"AndresFernandez28","gender":"0","age":"13","school":"6"},{"start_time":1551801576733,"click_time":1551801578234,"finger_time":1551801577094,"fix_duration":517.9603797239563,"trial":59,"RT":361,"MT":1140,"sideResp":2,"stimulus":"img/750/equaldotsize/R