[{"start_time":1551800569683,"click_time":1551800571304,"finger_time":1551800571225,"fix_duration":1148.4683877583298,"trial":0,"RT":1542,"MT":79,"sideResp":1,"stimulus":[],"xmouse":[787,787,787,787,787,787,787,787,787,787,787,787,787,787,787,787,787,787,787,787,787,787,787,787,787,787,787,787,787,787,787,787,787,787,787,787,787,787,787,787,787,787,787,787,787,787,787,787,787,787,787,787,787,787,787,787,787,787,787,787,787,787,787,787,787,787,787,787,787,787,787,787,787,787,786,783,766,684,610,541,489,448],"ymouse":[502,502,502,502,502,502,502,502,502,502,502,502,502,502,502,502,502,502,502,502,502,502,502,502,502,502,502,502,502,502,502,502,502,502,502,502,502,502,502,502,502,502,502,502,502,502,502,502,502,502,502,502,502,502,502,502,502,502,502,502,502,502,502,502,502,502,502,502,502,502,502,502,502,502,501,497,474,372,291,208,125,35],"timestamp_mouse":[9,21,48,61,81,101,121,141,162,180,201,222,240,260,281,300,321,340,360,382,400,420,441,461,481,501,520,541,561,580,602,620,640,660,680,701,721,740,760,780,801,820,842,860,882,902,922,941,962,980,1000,1021,1040,1062,1080,1102,1120,1141,1161,1180,1202,1220,1242,1261,1280,1301,1322,1342,1360,1380,1402,1421,1440,1461,1481,1500,1520,1542,1561,1582,1601,1621],"xSR":741.5,"ySR":449.15000000000003,"xT1":424.9,"yT1":0,"xT2":1058.1,"yT2":0,"toosoon":0,"cond_shown":"Congruent","ratio_trial":300,"L_num":20,"L_den":25,"R_num":14,"R_den":28,"correct_side":1,"subjID":"AndresFernandez28","gender":"0","age":"13","school":"6","test":{"fix_dur":[250,1500],"timestim":1000,"targets_dim":[100,100],"targets_relative_coord":[0.3,0.7],"size_stim":[880,420],"start_dim":[100,100],"size_start":[300,300],"size_fix":60,"samplingrate":20,"img_types":["Congruent","Incongruent"],"ratios":[100,200,300],"rep_conds":19,"nTrials":120,"trials_to_rest":500,"Trials_order":[46,41,13,4,103,17,93,110,108,116,22,117,61,89,57,35,44,51,106,97,5,114,71,68,56,83,109,92,66,16,45,1,79,86,94,118,107,26,21,50,27,77,53,37,43,20,63,33,0,85,11,73,23,14,69,91,40,67,98,102,38,60,101,19,113,28,95,59,115,70,64,8,30,9,78,72,24,88,65,48,36,62,39,100,55,96,49,25,29,58,15,80,18,82,7,47,31,34,119,112,76,111,75,12,87,42,52,6,2,104,84,99,54,105,32,10,81,3,74,90],"cond_shown":["Congruent","Incongruent","Incongruent","Congruent","Incongruent","Incongruent","Incongruent","Congruent","Congruent","Congruent","Congruent","Incongruent","Incongruent","Incongruent","Incongruent","Incongruent","Congruent","Incongruent","Congruent","Incongruent","Incongruent","Congruent","Incongruent","Congruent","Congruent","Incongruent","Incongruent","Congruent","Congruent","Congruent","Incongruent","Incongruent","Incongruent","Congruent","Congruent","Congruent","Incongruent","Congruent","Incongruent","Congruent","Incongruent","Incongruent","Incongruent","Incongruent","Incongruent","Congruent","Incongruent","Incongruent","Congruent","Incongruent","Incongruent","Incongruent","Incongruent","Congruent","Incongruent","Incongruent","Congruent","Incongruent","Congruent","Congruent","Congruent","Congruent","Incongruent","Incongruent","Incongruent","Congruent","Incongruent","Incongruent","Incongruent","Congruent","Congruent","Congruent","Congruent","Incongruent","Congruent","Congruent","Congruent","Congruent","Incongruent","Congruent","Congruent","Congruent","Incongruent","Congruent","Incongruent","Congruent","Incongruent","Incongruent","Incongruent","Congruent","Incongruent","Congruent","Congruent","Congruent","Incongruent","Incongruent","Incongruent","Congruent","Incongruent","Congruent","Congruent","Incongruent","Incongruent","Congruent","Incongruent","Congruent","Congruent","Congruent","Congruent","Congruent","Congruent","Incongruent","Congruent","Incongruent","Congruent","Congruent","Incongruent","Incongruent","Congruent","Congruent"],"ratio_trial":[300,300,100,300,100,300,200,200,100,200,300,200,100,300,200,300,200,200,300,100,300,100,300,200,200,300,100,200,100,300,200,100,100,200,300,300,300,200,200,200,200,300,300,100,100,200,200,200,100,100,300,100,300,200,200,100,300,100,200,100,200,100,300,100,300,300,300,300,100,300,300,200,100,200,100,100,100,300,300,100,100,200,200,300,100,100,100,100,300,300,200,200,100,300,100,300,100,300,300,300,300,200,200,100,200,100,300,100,200,200,100,200,100,200,200,300,200,200,200,100],"left_num":[20,4,2,4,12,4,1,1,6,3,20,7,6,13,4,8,3,14,7,6,13,10,13,21,6,4,2,12,15,7,7,6,13,5,18,1,8,16,7,15,3,13,1,10,6,9,7,7,7,3,4,10,13,11,7,10,18,3,4,7,6,9,8,6,4,3,4,4,10,11,9,4,3,1,1,3,10,7,4,1,7,16,7,9,1,4,6,3,4,4,3,5,3,11,9,3,10,9,13,9,3,9,7,9,11,2,20,8,12,7,10,1,15,7,3,20,4,3,9,12],"right_num":[14,2,8,13,9,2,3,21,15,14,8,6,7,12,14,14,7,6,20,13,12,3,12,2,11,6,6,6,13,20,8,3,12,14,9,7,9,12,14,4,1,12,2,8,11,4,14,12,15,8,2,9,12,3,8,8,9,7,3,15,7,8,9,7,2,11,6,2,9,1,3,3,4,2,18,2,3,20,2,18,15,12,6,3,8,6,13,11,2,1,1,14,2,1,20,4,8,3,12,3,2,8,8,8,3,11,13,2,6,2,3,2,13,8,14,8,14,11,4,13],"left_den":[25,20,4,20,24,20,2,2,12,6,25,15,10,26,6,10,10,30,14,10,26,25,26,30,20,5,4,15,25,14,10,12,26,10,20,20,10,20,10,25,10,26,2,25,10,20,10,10,14,5,20,25,26,22,10,25,20,9,8,14,12,15,10,10,20,12,5,20,25,22,10,8,20,3,2,6,25,14,20,2,14,20,15,10,2,8,10,5,20,10,10,10,6,22,10,6,25,10,26,10,6,15,10,15,20,5,25,16,20,21,25,3,25,10,6,25,6,4,20,30],"right_den":[28,4,20,26,15,4,10,30,25,20,16,9,14,15,30,28,14,9,25,26,15,10,15,4,22,12,15,10,26,25,16,5,20,20,15,20,18,20,28,10,2,15,10,16,22,16,28,24,25,16,4,18,15,10,16,16,15,30,10,25,10,16,18,14,4,20,12,4,18,5,5,10,16,15,30,5,10,25,4,30,25,20,9,5,20,10,26,22,4,10,2,20,5,5,25,20,16,5,15,5,10,10,16,16,4,22,26,5,15,15,10,15,26,16,20,16,30,20,16,26],"correct_side":[1,2,1,2,2,2,1,2,2,2,1,2,1,2,1,1,2,2,2,1,2,1,2,1,2,1,1,1,1,2,1,2,2,2,1,2,1,1,1,1,2,2,1,2,1,1,1,1,2,1,2,2,2,1,1,2,1,1,1,2,2,1,1,1,2,2,1,2,2,1,1,1,2,1,2,1,1,2,2,2,2,1,2,1,1,2,1,1,2,1,2,2,1,1,1,1,2,1,2,1,1,2,1,1,2,2,1,1,1,1,1,1,1,1,2,1,1,1,1,2],"img_shown":["img2/300/Congruent/L/C_Dist_300_LN_20_LD_25_RN_14_RD_28_0.png","img2/300/Incongruent/R/I_Dist_300_LN_4_LD_20_RN_2_RD_4_1.png","img2/100/Incongruent/L/I_Dist_100_LN_2_LD_4_RN_8_RD_20_0.png","img2/300/Congruent/R/C_Dist_300_LN_4_LD_20_RN_13_RD_26_1.png","img2/100/Incongruent/R/I_Dist_100_LN_12_LD_24_RN_9_RD_15_1.png","img2/300/Incongruent/R/I_Dist_300_LN_4_LD_20_RN_2_RD_4_1.png","img2/200/Incongruent/L/I_Dist_200_LN_1_LD_2_RN_3_RD_10_0.png","img2/200/Congruent/R/C_Dist_200_LN_1_LD_2_RN_21_RD_30_1.png","img2/100/Congruent/R/C_Dist_100_LN_6_LD_12_RN_15_RD_25_1.png","img2/200/Congruent/R/C_Dist_200_LN_3_LD_6_RN_14_RD_20_1.png","img2/300/Congruent/L/C_Dist_300_LN_20_LD_25_RN_8_RD_16_0.png","img2/200/Incongruent/R/I_Dist_200_LN_7_LD_15_RN_6_RD_9_1.png","img2/100/Incongruent/L/I_Dist_100_LN_6_LD_10_RN_7_RD_14_0.png","img2/300/Incongruent/R/I_Dist_300_LN_13_LD_26_RN_12_RD_15_1.png","img2/200/Incongruent/L/I_Dist_200_LN_4_LD_6_RN_14_RD_30_0.png","img2/300/Incongruent/L/I_Dist_300_LN_8_LD_10_RN_14_RD_28_0.png","img2/200/Congruent/R/C_Dist_200_LN_3_LD_10_RN_7_RD_14_1.png","img2/200/Incongruent/R/I_Dist_200_LN_14_LD_30_RN_6_RD_9_1.png","img2/300/Congruent/R/C_Dist_300_LN_7_LD_14_RN_20_RD_25_1.png","img2/100/Incongruent/L/I_Dist_100_LN_6_LD_10_RN_13_RD_26_0.png","img2/300/Incongruent/R/I_Dist_300_LN_13_LD_26_RN_12_RD_15_1.png","img2/100/Congruent/L/C_Dist_100_LN_10_LD_25_RN_3_RD_10_0.png","img2/300/Incongruent/R/I_Dist_300_LN_13_LD_26_RN_12_RD_15_1.png","img2/200/Congruent/L/C_Dist_200_LN_21_LD_30_RN_2_RD_4_0.png","img2/200/Congruent/R/C_Dist_200_LN_6_LD_20_RN_11_RD_22_1.png","img2/300/Incongruent/L/I_Dist_300_LN_4_LD_5_RN_6_RD_12_0.png","img2/100/Incongruent/L/I_Dist_100_LN_2_LD_4_RN_6_RD_15_0.png","img2/200/Congruent/L/C_Dist_200_LN_12_LD_15_RN_6_RD_10_0.png","img2/100/Congruent/L/C_Dist_100_LN_15_LD_25_RN_13_RD_26_0.png","img2/300/Congruent/R/C_Dist_300_LN_7_LD_14_RN_20_RD_25_1.png","img2/200/Incongruent/L/I_Dist_200_LN_7_LD_10_RN_8_RD_16_0.png","img2/100/Incongruent/R/I_Dist_100_LN_6_LD_12_RN_3_RD_5_1.png","img2/100/Incongruent/R/I_Dist_100_LN_13_LD_26_RN_12_RD_20_1.png","img2/200/Congruent/R/C_Dist_200_LN_5_LD_10_RN_14_RD_20_1.png","img2/300/Congruent/L/C_Dist_300_LN_18_LD_20_RN_9_RD_15_0.png","img2/300/Congruent/R/C_Dist_300_LN_1_LD_20_RN_7_RD_20_1.png","img2/300/Incongruent/L/I_Dist_300_LN_8_LD_10_RN_9_RD_18_0.png","img2/200/Congruent/L/C_Dist_200_LN_16_LD_20_RN_12_RD_20_0.png","img2/200/Incongruent/L/I_Dist_200_LN_7_LD_10_RN_14_RD_28_0.png","img2/200/Congruent/L/C_Dist_200_LN_15_LD_25_RN_4_RD_10_0.png","img2/200/Incongruent/R/I_Dist_200_LN_3_LD_10_RN_1_RD_2_1.png","img2/300/Incongruent/R/I_Dist_300_LN_13_LD_26_RN_12_RD_15_1.png","img2/300/Incongruent/L/I_Dist_300_LN_1_LD_2_RN_2_RD_10_0.png","img2/100/Incongruent/R/I_Dist_100_LN_10_LD_25_RN_8_RD_16_1.png","img2/100/Incongruent/L/I_Dist_100_LN_6_LD_10_RN_11_RD_22_0.png","img2/200/Congruent/L/C_Dist_200_LN_9_LD_20_RN_4_RD_16_0.png","img2/200/Incongruent/L/I_Dist_200_LN_7_LD_10_RN_14_RD_28_0.png","img2/200/Incongruent/L/I_Dist_200_LN_7_LD_10_RN_12_RD_24_0.png","img2/100/Congruent/R/C_Dist_100_LN_7_LD_14_RN_15_RD_25_1.png","img2/100/Incongruent/L/I_Dist_100_LN_3_LD_5_RN_8_RD_16_0.png","img2/300/Incongruent/R/I_Dist_300_LN_4_LD_20_RN_2_RD_4_1.png","img2/100/Incongruent/R/I_Dist_100_LN_10_LD_25_RN_9_RD_18_1.png","img2/300/Incongruent/R/I_Dist_300_LN_13_LD_26_RN_12_RD_15_1.png","img2/200/Congruent/L/C_Dist_200_LN_11_LD_22_RN_3_RD_10_0.png","img2/200/Incongruent/L/I_Dist_200_LN_7_LD_10_RN_8_RD_16_0.png","img2/100/Incongruent/R/I_Dist_100_LN_10_LD_25_RN_8_RD_16_1.png","img2/300/Congruent/L/C_Dist_300_LN_18_LD_20_RN_9_RD_15_0.png","img2/100/Incongruent/L/I_Dist_100_LN_3_LD_9_RN_7_RD_30_0.png","img2/200/Congruent/L/C_Dist_200_LN_4_LD_8_RN_3_RD_10_0.png","img2/100/Congruent/R/C_Dist_100_LN_7_LD_14_RN_15_RD_25_1.png","img2/200/Congruent/R/C_Dist_200_LN_6_LD_12_RN_7_RD_10_1.png","img2/100/Congruent/L/C_Dist_100_LN_9_LD_15_RN_8_RD_16_0.png","img2/300/Incongruent/L/I_Dist_300_LN_8_LD_10_RN_9_RD_18_0.png","img2/100/Incongruent/L/I_Dist_100_LN_6_LD_10_RN_7_RD_14_0.png","img2/300/Incongruent/R/I_Dist_300_LN_4_LD_20_RN_2_RD_4_1.png","img2/300/Congruent/R/C_Dist_300_LN_3_LD_12_RN_11_RD_20_1.png","img2/300/Incongruent/L/I_Dist_300_LN_4_LD_5_RN_6_RD_12_0.png","img2/300/Incongruent/R/I_Dist_300_LN_4_LD_20_RN_2_RD_4_1.png","img2/100/Incongruent/R/I_Dist_100_LN_10_LD_25_RN_9_RD_18_1.png","img2/300/Congruent/L/C_Dist_300_LN_11_LD_22_RN_1_RD_5_0.png","img2/300/Congruent/L/C_Dist_300_LN_9_LD_10_RN_3_RD_5_0.png","img2/200/Congruent/L/C_Dist_200_LN_4_LD_8_RN_3_RD_10_0.png","img2/100/Congruent/R/C_Dist_100_LN_3_LD_20_RN_4_RD_16_1.png","img2/200/Incongruent/L/I_Dist_200_LN_1_LD_3_RN_2_RD_15_0.png","img2/100/Congruent/R/C_Dist_100_LN_1_LD_2_RN_18_RD_30_1.png","img2/100/Congruent/L/C_Dist_100_LN_3_LD_6_RN_2_RD_5_0.png","img2/100/Congruent/L/C_Dist_100_LN_10_LD_25_RN_3_RD_10_0.png","img2/300/Congruent/R/C_Dist_300_LN_7_LD_14_RN_20_RD_25_1.png","img2/300/Incongruent/R/I_Dist_300_LN_4_LD_20_RN_2_RD_4_1.png","img2/100/Congruent/R/C_Dist_100_LN_1_LD_2_RN_18_RD_30_1.png","img2/100/Congruent/R/C_Dist_100_LN_7_LD_14_RN_15_RD_25_1.png","img2/200/Congruent/L/C_Dist_200_LN_16_LD_20_RN_12_RD_20_0.png","img2/200/Incongruent/R/I_Dist_200_LN_7_LD_15_RN_6_RD_9_1.png","img2/300/Congruent/L/C_Dist_300_LN_9_LD_10_RN_3_RD_5_0.png","img2/100/Incongruent/L/I_Dist_100_LN_1_LD_2_RN_8_RD_20_0.png","img2/100/Congruent/R/C_Dist_100_LN_4_LD_8_RN_6_RD_10_1.png","img2/100/Incongruent/L/I_Dist_100_LN_6_LD_10_RN_13_RD_26_0.png","img2/100/Incongruent/L/I_Dist_100_LN_3_LD_5_RN_11_RD_22_0.png","img2/300/Incongruent/R/I_Dist_300_LN_4_LD_20_RN_2_RD_4_1.png","img2/300/Congruent/L/C_Dist_300_LN_4_LD_10_RN_1_RD_10_0.png","img2/200/Incongruent/R/I_Dist_200_LN_3_LD_10_RN_1_RD_2_1.png","img2/200/Congruent/R/C_Dist_200_LN_5_LD_10_RN_14_RD_20_1.png","img2/100/Congruent/L/C_Dist_100_LN_3_LD_6_RN_2_RD_5_0.png","img2/300/Congruent/L/C_Dist_300_LN_11_LD_22_RN_1_RD_5_0.png","img2/100/Incongruent/L/I_Dist_100_LN_9_LD_10_RN_20_RD_25_0.png","img2/300/Incongruent/L/I_Dist_300_LN_3_LD_6_RN_4_RD_20_0.png","img2/100/Incongruent/R/I_Dist_100_LN_10_LD_25_RN_8_RD_16_1.png","img2/300/Congruent/L/C_Dist_300_LN_9_LD_10_RN_3_RD_5_0.png","img2/300/Incongruent/R/I_Dist_300_LN_13_LD_26_RN_12_RD_15_1.png","img2/300/Congruent/L/C_Dist_300_LN_9_LD_10_RN_3_RD_5_0.png","img2/300/Congruent/L/C_Dist_300_LN_3_LD_6_RN_2_RD_10_0.png","img2/200/Incongruent/R/I_Dist_200_LN_9_LD_15_RN_8_RD_10_1.png","img2/200/Incongruent/L/I_Dist_200_LN_7_LD_10_RN_8_RD_16_0.png","img2/100/Congruent/L/C_Dist_100_LN_9_LD_15_RN_8_RD_16_0.png","img2/200/Incongruent/R/I_Dist_200_LN_11_LD_20_RN_3_RD_4_1.png","img2/100/Congruent/R/C_Dist_100_LN_2_LD_5_RN_11_RD_22_1.png","img2/300/Congruent/L/C_Dist_300_LN_20_LD_25_RN_13_RD_26_0.png","img2/100/Congruent/L/C_Dist_100_LN_8_LD_16_RN_2_RD_5_0.png","img2/200/Congruent/L/C_Dist_200_LN_12_LD_20_RN_6_RD_15_0.png","img2/200/Congruent/L/C_Dist_200_LN_7_LD_21_RN_2_RD_15_0.png","img2/100/Congruent/L/C_Dist_100_LN_10_LD_25_RN_3_RD_10_0.png","img2/200/Incongruent/L/I_Dist_200_LN_1_LD_3_RN_2_RD_15_0.png","img2/100/Congruent/L/C_Dist_100_LN_15_LD_25_RN_13_RD_26_0.png","img2/200/Incongruent/L/I_Dist_200_LN_7_LD_10_RN_8_RD_16_0.png","img2/200/Congruent/R/C_Dist_200_LN_3_LD_6_RN_14_RD_20_1.png","img2/300/Congruent/L/C_Dist_300_LN_20_LD_25_RN_8_RD_16_0.png","img2/200/Incongruent/L/I_Dist_200_LN_4_LD_6_RN_14_RD_30_0.png","img2/200/Incongruent/L/I_Dist_200_LN_3_LD_4_RN_11_RD_20_0.png","img2/200/Congruent/L/C_Dist_200_LN_9_LD_20_RN_4_RD_16_0.png","img2/100/Congruent/R/C_Dist_100_LN_12_LD_30_RN_13_RD_26_1.png"],"dist100_C":[["C_Dist_100_LN_10_LD_25_RN_3_RD_10_0.png","C_Dist_100_LN_11_LD_22_RN_4_RD_10_0.png","C_Dist_100_LN_11_LD_22_RN_6_RD_15_0.png","C_Dist_100_LN_15_LD_25_RN_13_RD_26_0.png","C_Dist_100_LN_3_LD_6_RN_2_RD_5_0.png","C_Dist_100_LN_6_LD_20_RN_5_RD_25_0.png","C_Dist_100_LN_8_LD_16_RN_2_RD_5_0.png","C_Dist_100_LN_9_LD_15_RN_8_RD_16_0.png"],["C_Dist_100_LN_1_LD_2_RN_18_RD_30_1.png","C_Dist_100_LN_1_LD_2_RN_3_RD_5_1.png","C_Dist_100_LN_12_LD_30_RN_13_RD_26_1.png","C_Dist_100_LN_2_LD_5_RN_11_RD_22_1.png","C_Dist_100_LN_2_LD_5_RN_6_RD_12_1.png","C_Dist_100_LN_3_LD_20_RN_4_RD_16_1.png","C_Dist_100_LN_4_LD_10_RN_15_RD_30_1.png","C_Dist_100_LN_4_LD_8_RN_6_RD_10_1.png","C_Dist_100_LN_6_LD_12_RN_15_RD_25_1.png","C_Dist_100_LN_7_LD_14_RN_15_RD_25_1.png","C_Dist_100_LN_7_LD_14_RN_9_RD_15_1.png"]],"dist100_I":[["I_Dist_100_LN_1_LD_2_RN_8_RD_20_0.png","I_Dist_100_LN_2_LD_4_RN_6_RD_15_0.png","I_Dist_100_LN_2_LD_4_RN_8_RD_20_0.png","I_Dist_100_LN_3_LD_5_RN_11_RD_22_0.png","I_Dist_100_LN_3_LD_5_RN_8_RD_16_0.png","I_Dist_100_LN_3_LD_6_RN_4_RD_10_0.png","I_Dist_100_LN_3_LD_9_RN_7_RD_30_0.png","I_Dist_100_LN_4_LD_8_RN_8_RD_20_0.png","I_Dist_100_LN_6_LD_10_RN_11_RD_22_0.png","I_Dist_100_LN_6_LD_10_RN_13_RD_26_0.png","I_Dist_100_LN_6_LD_10_RN_7_RD_14_0.png","I_Dist_100_LN_9_LD_10_RN_20_RD_25_0.png","I_Dist_100_LN_9_LD_15_RN_13_RD_26_0.png","I_Dist_100_LN_9_LD_15_RN_14_RD_28_0.png"],["I_Dist_100_LN_10_LD_25_RN_8_RD_16_1.png","I_Dist_100_LN_10_LD_25_RN_9_RD_18_1.png","I_Dist_100_LN_11_LD_22_RN_9_RD_15_1.png","I_Dist_100_LN_12_LD_24_RN_9_RD_15_1.png","I_Dist_100_LN_12_LD_30_RN_2_RD_4_1.png","I_Dist_100_LN_13_LD_26_RN_12_RD_20_1.png","I_Dist_100_LN_13_LD_26_RN_6_RD_10_1.png","I_Dist_100_LN_17_LD_30_RN_10_RD_15_1.png","I_Dist_100_LN_6_LD_12_RN_3_RD_5_1.png","I_Dist_100_LN_8_LD_16_RN_6_RD_10_1.png","I_Dist_100_LN_8_LD_20_RN_1_RD_2_1.png","I_Dist_100_LN_9_LD_18_RN_6_RD_10_1.png"]],"dist100_S":[["E_Dist_100_LN_2_LD_12_RN_2_RD_30_0.png","E_Dist_100_LN_6_LD_10_RN_6_RD_12_0.png"],["E_Dist_100_LN_6_LD_12_RN_6_RD_10_1.png"]],"dist200_C":[["C_Dist_200_LN_11_LD_22_RN_3_RD_10_0.png","C_Dist_200_LN_12_LD_15_RN_6_RD_10_0.png","C_Dist_200_LN_12_LD_20_RN_6_RD_15_0.png","C_Dist_200_LN_14_LD_28_RN_6_RD_20_0.png","C_Dist_200_LN_15_LD_25_RN_4_RD_10_0.png","C_Dist_200_LN_16_LD_20_RN_12_RD_20_0.png","C_Dist_200_LN_16_LD_30_RN_9_RD_27_0.png","C_Dist_200_LN_20_LD_25_RN_9_RD_15_0.png","C_Dist_200_LN_21_LD_30_RN_2_RD_4_0.png","C_Dist_200_LN_4_LD_10_RN_3_RD_15_0.png","C_Dist_200_LN_4_LD_8_RN_3_RD_10_0.png","C_Dist_200_LN_6_LD_15_RN_3_RD_15_0.png","C_Dist_200_LN_7_LD_21_RN_2_RD_15_0.png","C_Dist_200_LN_8_LD_15_RN_2_RD_6_0.png","C_Dist_200_LN_8_LD_15_RN_3_RD_9_0.png","C_Dist_200_LN_8_LD_15_RN_7_RD_21_0.png","C_Dist_200_LN_9_LD_20_RN_4_RD_16_0.png"],["C_Dist_200_LN_1_LD_2_RN_21_RD_30_1.png","C_Dist_200_LN_13_LD_26_RN_14_RD_20_1.png","C_Dist_200_LN_3_LD_10_RN_11_RD_22_1.png","C_Dist_200_LN_3_LD_10_RN_14_RD_28_1.png","C_Dist_200_LN_3_LD_10_RN_7_RD_14_1.png","C_Dist_200_LN_3_LD_12_RN_9_RD_20_1.png","C_Dist_200_LN_3_LD_6_RN_14_RD_20_1.png","C_Dist_200_LN_5_LD_10_RN_14_RD_20_1.png","C_Dist_200_LN_6_LD_12_RN_7_RD_10_1.png","C_Dist_200_LN_6_LD_20_RN_11_RD_22_1.png","C_Dist_200_LN_7_LD_15_RN_18_RD_27_1.png","C_Dist_200_LN_9_LD_30_RN_13_RD_26_1.png"]],"dist200_I":[["I_Dist_200_LN_1_LD_2_RN_3_RD_10_0.png","I_Dist_200_LN_1_LD_3_RN_2_RD_15_0.png","I_Dist_200_LN_3_LD_4_RN_11_RD_20_0.png","I_Dist_200_LN_4_LD_5_RN_6_RD_10_0.png","I_Dist_200_LN_4_LD_6_RN_14_RD_30_0.png","I_Dist_200_LN_7_LD_10_RN_12_RD_24_0.png","I_Dist_200_LN_7_LD_10_RN_14_RD_28_0.png","I_Dist_200_LN_7_LD_10_RN_8_RD_16_0.png"],["I_Dist_200_LN_11_LD_20_RN_3_RD_4_1.png","I_Dist_200_LN_14_LD_30_RN_12_RD_18_1.png","I_Dist_200_LN_14_LD_30_RN_6_RD_9_1.png","I_Dist_200_LN_3_LD_10_RN_1_RD_2_1.png","I_Dist_200_LN_4_LD_30_RN_1_RD_3_1.png","I_Dist_200_LN_6_LD_20_RN_3_RD_6_1.png","I_Dist_200_LN_7_LD_15_RN_4_RD_6_1.png","I_Dist_200_LN_7_LD_15_RN_6_RD_9_1.png","I_Dist_200_LN_9_LD_15_RN_8_RD_10_1.png"]],"dist200_S":[["E_Dist_200_LN_3_LD_6_RN_3_RD_10_0.png"],["E_Dist_200_LN_3_LD_10_RN_3_RD_6_1.png"]],"dist300_C":[["C_Dist_300_LN_11_LD_22_RN_1_RD_5_0.png","C_Dist_300_LN_11_LD_22_RN_2_RD_10_0.png","C_Dist_300_LN_11_LD_22_RN_4_RD_20_0.png","C_Dist_300_LN_12_LD_24_RN_2_RD_10_0.png","C_Dist_300_LN_18_LD_20_RN_9_RD_15_0.png","C_Dist_300_LN_20_LD_25_RN_13_RD_26_0.png","C_Dist_300_LN_20_LD_25_RN_14_RD_28_0.png","C_Dist_300_LN_20_LD_25_RN_5_RD_10_0.png","C_Dist_300_LN_20_LD_25_RN_8_RD_16_0.png","C_Dist_300_LN_20_LD_25_RN_9_RD_18_0.png","C_Dist_300_LN_24_LD_30_RN_2_RD_4_0.png","C_Dist_300_LN_24_LD_30_RN_8_RD_16_0.png","C_Dist_300_LN_3_LD_6_RN_2_RD_10_0.png","C_Dist_300_LN_4_LD_10_RN_1_RD_10_0.png","C_Dist_300_LN_4_LD_5_RN_2_RD_4_0.png","C_Dist_300_LN_8_LD_16_RN_1_RD_5_0.png","C_Dist_300_LN_9_LD_10_RN_3_RD_5_0.png"],["C_Dist_300_LN_1_LD_20_RN_7_RD_20_1.png","C_Dist_300_LN_1_LD_3_RN_19_RD_30_1.png","C_Dist_300_LN_1_LD_30_RN_8_RD_24_1.png","C_Dist_300_LN_1_LD_5_RN_11_RD_22_1.png","C_Dist_300_LN_1_LD_5_RN_3_RD_6_1.png","C_Dist_300_LN_1_LD_5_RN_6_RD_12_1.png","C_Dist_300_LN_2_LD_10_RN_12_RD_24_1.png","C_Dist_300_LN_2_LD_20_RN_10_RD_25_1.png","C_Dist_300_LN_3_LD_12_RN_11_RD_20_1.png","C_Dist_300_LN_3_LD_6_RN_4_RD_5_1.png","C_Dist_300_LN_4_LD_20_RN_13_RD_26_1.png","C_Dist_300_LN_5_LD_25_RN_6_RD_12_1.png","C_Dist_300_LN_5_LD_25_RN_7_RD_14_1.png","C_Dist_300_LN_7_LD_14_RN_20_RD_25_1.png","C_Dist_300_LN_8_LD_15_RN_10_RD_12_1.png"]],"dist300_I":[["I_Dist_300_LN_1_LD_2_RN_2_RD_10_0.png","I_Dist_300_LN_1_LD_2_RN_3_RD_15_0.png","I_Dist_300_LN_2_LD_4_RN_6_RD_30_0.png","I_Dist_300_LN_3_LD_6_RN_4_RD_20_0.png","I_Dist_300_LN_4_LD_5_RN_6_RD_12_0.png","I_Dist_300_LN_4_LD_5_RN_8_RD_16_0.png","I_Dist_300_LN_7_LD_10_RN_8_RD_20_0.png","I_Dist_300_LN_8_LD_10_RN_14_RD_28_0.png","I_Dist_300_LN_8_LD_10_RN_9_RD_18_0.png"],["I_Dist_300_LN_13_LD_26_RN_12_RD_15_1.png","I_Dist_300_LN_4_LD_20_RN_2_RD_4_1.png"]],"dist300_S":[["E_Dist_300_LN_9_LD_12_RN_9_RD_20_0.png"],["E_Dist_300_LN_18_LD_30_RN_18_RD_20_1.png","E_Dist_300_LN_3_LD_10_RN_3_RD_5_1.png","E_Dist_300_LN_9_LD_20_RN_9_RD_12_1.png"]],"dist500_C":[["C_Dist_500_LN_10_LD_13_RN_7_RD_26_0.png","C_Dist_500_LN_10_LD_15_RN_4_RD_24_0.png","C_Dist_500_LN_12_LD_16_RN_3_RD_12_0.png","C_Dist_500_LN_12_LD_18_RN_4_RD_24_0.png","C_Dist_500_LN_15_LD_18_RN_5_RD_15_0.png","C_Dist_500_LN_15_LD_20_RN_1_RD_4_0.png","C_Dist_500_LN_18_LD_27_RN_1_RD_6_0.png","C_Dist_500_LN_20_LD_24_RN_1_RD_3_0.png","C_Dist_500_LN_20_LD_24_RN_3_RD_9_0.png","C_Dist_500_LN_20_LD_24_RN_7_RD_21_0.png","C_Dist_500_LN_20_LD_28_RN_3_RD_14_0.png","C_Dist_500_LN_21_LD_28_RN_6_RD_24_0.png","C_Dist_500_LN_22_LD_28_RN_2_RD_7_0.png","C_Dist_500_LN_25_LD_30_RN_9_RD_27_0.png","C_Dist_500_LN_4_LD_6_RN_1_RD_6_0.png","C_Dist_500_LN_5_LD_6_RN_2_RD_6_0.png","C_Dist_500_LN_6_LD_9_RN_1_RD_6_0.png","C_Dist_500_LN_7_LD_10_RN_1_RD_5_0.png","C_Dist_500_LN_8_LD_12_RN_1_RD_6_0.png","C_Dist_500_LN_8_LD_12_RN_4_RD_24_0.png"],["C_Dist_500_LN_1_LD_4_RN_12_RD_16_1.png","C_Dist_500_LN_1_LD_4_RN_9_RD_12_1.png","C_Dist_500_LN_1_LD_9_RN_11_RD_18_1.png","C_Dist_500_LN_10_LD_24_RN_22_RD_24_1.png","C_Dist_500_LN_2_LD_12_RN_10_RD_15_1.png","C_Dist_500_LN_2_LD_12_RN_12_RD_18_1.png","C_Dist_500_LN_2_LD_12_RN_4_RD_6_1.png","C_Dist_500_LN_2_LD_24_RN_7_RD_12_1.png","C_Dist_500_LN_2_LD_5_RN_18_RD_20_1.png","C_Dist_500_LN_2_LD_5_RN_9_RD_10_1.png","C_Dist_500_LN_2_LD_8_RN_12_RD_16_1.png","C_Dist_500_LN_2_LD_8_RN_21_RD_28_1.png","C_Dist_500_LN_3_LD_10_RN_4_RD_5_1.png","C_Dist_500_LN_3_LD_12_RN_15_RD_20_1.png","C_Dist_500_LN_3_LD_30_RN_6_RD_10_1.png","C_Dist_500_LN_3_LD_8_RN_14_RD_16_1.png","C_Dist_500_LN_4_LD_16_RN_15_RD_20_1.png","C_Dist_500_LN_4_LD_24_RN_12_RD_18_1.png","C_Dist_500_LN_5_LD_14_RN_6_RD_7_1.png","C_Dist_500_LN_7_LD_21_RN_20_RD_24_1.png","C_Dist_500_LN_7_LD_28_RN_12_RD_16_1.png","C_Dist_500_LN_7_LD_28_RN_9_RD_12_1.png","C_Dist_500_LN_9_LD_27_RN_20_RD_24_1.png"]],"dist500_I":[["I_Dist_500_LN_2_LD_3_RN_4_RD_24_0.png","I_Dist_500_LN_5_LD_6_RN_6_RD_18_0.png","I_Dist_500_LN_7_LD_8_RN_9_RD_24_0.png"],["I_Dist_500_LN_7_LD_21_RN_5_RD_6_1.png"]],"dist500_S":[["E_Dist_500_LN_6_LD_8_RN_6_RD_24_0.png"],["E_Dist_500_LN_2_LD_12_RN_2_RD_3_1.png","E_Dist_500_LN_6_LD_24_RN_6_RD_8_1.png"]]}},{"start_time":1551800572837,"click_time":1551800574805,"finger_time":1551800574524,"fix_duration":250,"trial":1,"RT":1687,"MT":281,"sideResp":1,"stimulus":[],"xmouse":[771,771,771,771,771,771,771,771,771,771,771,771,771,771,771,771,771,771,771,771,771,771,771,771,771,771,771,771,771,771,771,772,772,773,774,774,774,774,774,774,774,774,774,774,774,774,774,774,774,774,774,774,774,774,774,774,774,774,774,774,774,774,774,774,774,774,774,774,774,774,774,774,774,774,774,775,775,775,775,775,775,775,770,765,731,711,678,648,611,454,404,389,389,391,392,395,398,404,435],"ymouse":[508,508,508,508,508,508,508,508,508,508,508,508,508,508,508,508,508,508,508,508,508,508,508,508,508,508,508,508,508,508,508,507,506,505,504,503,503,503,503,503,503,503,503,503,503,503,503,503,503,503,503,503,503,503,503,503,503,503,503,503,503,503,503,503,503,503,503,503,503,503,503,503,503,503,503,502,502,502,502,502,502,502,500,496,468,440,394,338,277,120,83,69,66,64,64,64,64,63,56],"timestamp_mouse":[11,32,47,66,86,107,127,146,167,188,206,227,247,267,286,306,327,346,366,386,406,427,448,466,488,508,526,547,568,587,606,627,647,666,687,707,726,748,767,786,807,827,846,868,886,907,927,947,967,986,1007,1026,1047,1067,1086,1106,1127,1147,1166,1186,1206,1227,1247,1267,1287,1306,1326,1346,1366,1388,1406,1426,1446,1466,1487,1508,1526,1546,1566,1586,1608,1626,1646,1667,1687,1707,1727,1746,1767,1787,1807,1826,1848,1868,1886,1906,1926,1946,1968],"xSR":741.5,"ySR":449.15000000000003,"xT1":424.9,"yT1":0,"xT2":1058.1,"yT2":0,"toosoon":0,"cond_shown":"Incongruent","ratio_trial":300,"L_num":4,"L_den":20,"R_num":2,"R_den":4,"correct_side":2,"subjID":"AndresFernandez28","gender":"0","school":"6","age":"13"},{"start_time":1551800579006,"click_time":1551800580343,"finger_time":1551800579883,"fix_duration":1361.1978441189785,"trial":2,"RT":877,"MT":460,"sideResp":2,"stimulus":[],"xmouse":[790,790,790,790,790,790,790,790,790,790,790,790,790,790,790,790,790,790,790,790,790,790,790,790,790,790,790,790,790,790,790,790,790,790,790,790,790,790,790,792,796,802,810,826,857,867,874,882,888,912,925,940,954,975,982,991,1002,1021,1026,1042,1048,1052,1054,1057,1058,1059],"ymouse":[505,505,505,505,505,505,505,505,505,505,505,505,505,505,505,505,505,505,505,505,505,505,505,505,505,505,505,505,505,505,505,505,505,505,505,505,505,505,505,495,475,452,421,384,316,291,276,261,252,228,218,209,198,178,166,155,145,129,125,105,97,91,88,83,82,81],"timestamp_mouse":[37,58,77,98,117,139,157,177,197,217,237,258,279,297,318,339,357,379,398,419,437,459,477,498,517,538,558,578,598,617,637,658,677,697,719,739,758,779,797,818,838,858,877,899,918,938,958,977,997,1017,1037,1058,1077,1099,1117,1138,1159,1177,1198,1218,1238,1258,1278,1299,1318,1337],"xSR":741.5,"ySR":449.15000000000003,"xT1":424.9,"yT1":0,"xT2":1058.1,"yT2":0,"toosoon":0,"cond_shown":"Incongruent","ratio_trial":100,"L_num":2,"L_den":4,"R_num":8,"R_den":20,"correct_side":1,"subjID":"AndresFernandez28","gender":"0","school":"6","age":"13"},{"start_time":1551800582674,"click_time":1551800584143,"finger_time":1551800583724,"fix_duration":868.852905081405,"trial":3,"RT":1050,"MT":419,"sideResp":1,"stimulus":[],"xmouse":[794,794,794,794,794,794,794,794,794,794,794,794,794,794,794,794,794,794,794,794,794,794,794,794,794,794,794,794,794,794,794,794,794,794,794,794,794,794,794,794,794,794,794,794,792,792,791,788,785,781,775,771,757,749,741,734,722,681,666,650,637,624,599,585,571,565,559,547,545,545,544,543,534,521],"ymouse":[499,499,499,499,499,499,499,499,499,499,499,499,499,499,499,499,499,499,499,499,499,499,499,499,499,499,499,499,499,499,499,499,499,499,499,499,499,499,499,499,499,499,499,499,498,497,496,489,485,479,470,463,444,432,421,412,397,348,324,298,274,250,201,175,149,130,115,89,86,86,86,86,86,85],"timestamp_mouse":[10,32,50,69,89,111,129,150,169,191,211,229,250,270,289,310,330,351,369,391,409,431,449,469,490,510,531,549,569,590,611,630,649,671,691,709,729,751,769,789,810,829,849,869,889,910,930,951,970,990,1009,1030,1050,1070,1091,1109,1130,1149,1170,1189,1209,1230,1250,1269,1291,1310,1330,1349,1371,1389,1410,1430,1450,1469],"xSR":741.5,"ySR":449.15000000000003,"xT1":424.9,"yT1":0,"xT2":1058.1,"yT2":0,"toosoon":0,"cond_shown":"Congruent","ratio_trial":300,"L_num":4,"L_den":20,"R_num":13,"R_den":26,"correct_side":2,"subjID":"AndresFernandez28","gender":"0","school":"6","age":"13"},{"start_time":1551800586713,"click_time":1551800587724,"finger_time":1551800587403,"fix_duration":1408.2597878166414,"trial":4,"RT":690,"MT":321,"sideResp":1,"stimulus":[],"xmouse":[776,776,776,776,776,776,776,776,776,776,776,776,776,776,776,776,776,776,776,776,776,776,776,776,776,776,776,776,776,776,776,774,768,754,718,657,628,609,583,554,550,550,550,550,550,551,551,550,542,522,512],"ymouse":[508,508,508,508,508,508,508,508,508,508,508,508,508,508,508,508,508,508,508,508,508,508,508,508,508,508,508,508,508,508,508,505,502,492,474,428,400,374,338,274,250,229,213,199,187,175,172,164,152,117,99],"timestamp_mouse":[11,35,51,71,90,111,130,151,171,191,211,230,251,270,291,311,330,350,371,390,412,432,452,471,491,510,531,552,570,590,610,631,650,670,690,710,731,752,771,792,811,831,851,871,891,911,931,950,970,992,1011],"xSR":741.5,"ySR":449.15000000000003,"xT1":424.9,"yT1":0,"xT2":1058.1,"yT2":0,"toosoon":0,"cond_shown":"Incongruent","ratio_trial":100,"L_num":12,"L_den":24,"R_num":9,"R_den":15,"correct_side":2,"subjID":"AndresFernandez28","gender":"0","school":"6","age":"13"},{"start_time":1551800589829,"click_time":1551800593424,"finger_time":1551800592244,"fix_duration":483.439066415405,"trial":5,"RT":2415,"MT":1180,"sideResp":2,"stimulus":[],"xmouse":[807,807,807,807,807,807,807,807,807,807,807,807,807,807,807,807,807,807,807,807,807,807,807,807,807,807,807,807,807,807,807,807,807,807,807,807,807,807,807,807,807,807,807,807,807,807,807,807,807,807,807,807,807,807,807,807,807,807,807,807,807,807,807,807,807,807,807,807,807,807,807,807,807,807,807,807,807,807,807,807,807,807,807,807,807,807,807,807,807,807,807,807,807,807,807,807,807,807,807,807,807,807,807,807,807,807,807,807,807,807,807,807,807,807,807,807,807,805,802,771,755,730,706,690,673,669,663,659,656,653,651,650,649,645,644,642,637,626,621,589,577,570,569,569,569,569,569,570,574,582,600,656,765,941,1365,1532,1532,1532,1532,1532,1577,1563,1545,1505,1484,1460,1425,1398,1377,1359,1349,1330,1308,1270,1255,1247,1237,1214,1176,1136],"ymouse":[489,489,489,489,489,489,489,489,489,489,489,489,489,489,489,489,489,489,489,489,489,489,489,489,489,489,489,489,489,489,489,489,489,489,489,489,489,489,489,489,489,489,489,489,489,489,489,489,489,489,489,489,489,489,489,489,489,489,489,489,489,489,489,489,489,489,489,489,489,489,489,489,489,489,489,489,489,489,489,489,489,489,489,489,489,489,489,489,489,489,489,489,489,489,489,489,489,489,489,489,489,489,489,489,489,489,489,489,489,489,489,489,489,489,489,489,489,489,489,464,441,405,369,336,294,279,267,260,255,251,251,251,251,248,247,244,236,216,206,157,141,131,127,127,127,127,126,126,127,128,132,138,146,150,152,152,152,152,152,152,113,104,92,69,61,54,43,36,33,32,33,36,39,45,47,49,52,55,60,71],"timestamp_mouse":[15,40,55,75,94,116,136,155,174,195,214,235,254,274,296,314,336,355,374,395,415,435,455,474,494,514,535,555,575,594,615,635,655,676,694,715,735,756,775,795,814,834,856,875,894,914,935,955,974,994,1015,1035,1054,1075,1095,1115,1134,1154,1175,1194,1215,1234,1254,1275,1294,1314,1335,1354,1376,1394,1415,1434,1456,1475,1495,1516,1535,1554,1575,1595,1616,1635,1655,1674,1695,1714,1735,1754,1775,1796,1816,1834,1855,1876,1894,1916,1935,1955,1976,1994,2015,2035,2055,2074,2095,2116,2134,2155,2175,2194,2214,2235,2254,2274,2295,2316,2335,2355,2375,2396,2415,2436,2456,2475,2495,2515,2535,2555,2574,2594,2615,2635,2655,2676,2695,2715,2734,2754,2775,2794,2815,2835,2856,2875,2895,2914,2934,2955,2975,2995,3014,3034,3055,3074,3094,3114,3134,3154,3175,3195,3215,3235,3254,3276,3295,3314,3335,3354,3375,3394,3414,3435,3455,3476,3495,3515,3535,3554,3575,3595],"xSR":741.5,"ySR":449.15000000000003,"xT1":424.9,"yT1":0,"xT2":1058.1,"yT2":0,"toosoon":0,"cond_shown":"Incongruent","ratio_trial":300,"L_num":4,"L_den":20,"R_num":2,"R_den":4,"correct_side":2,"subjID":"AndresFernandez28","gender":"0","school":"6","age":"13"},{"start_time":1551800596324,"click_time":1551800597664,"finger_time":1551800597103,"fix_duration":998.0803787491236,"trial":6,"RT":779,"MT":561,"sideResp":1,"stimulus":[],"xmouse":[768,768,768,768,768,768,768,768,768,768,768,768,768,768,768,768,768,768,768,768,768,768,768,768,768,768,768,768,768,768,768,768,768,769,769,769,768,762,753,741,702,677,661,648,642,638,638,638,637,634,619,609,590,567,540,512,506,503,502,501,501,501,501,501,501,501,502,503],"ymouse":[509,509,509,509,509,509,509,509,509,509,509,509,509,509,509,509,509,509,509,509,509,509,509,509,509,509,509,509,509,509,509,509,509,507,504,496,493,485,468,443,365,320,284,250,227,196,193,193,192,191,189,187,181,174,160,145,141,138,137,135,135,135,134,134,130,115,101,87],"timestamp_mouse":[1,33,40,60,80,100,121,140,159,181,201,219,240,259,280,301,321,340,361,380,399,420,439,460,479,499,520,539,559,580,600,619,640,659,679,699,720,739,760,779,800,820,839,859,881,900,920,940,961,980,1000,1019,1041,1060,1080,1099,1120,1141,1161,1180,1200,1219,1240,1260,1280,1300,1320,1340],"xSR":741.5,"ySR":449.15000000000003,"xT1":424.9,"yT1":0,"xT2":1058.1,"yT2":0,"toosoon":0,"cond_shown":"Incongruent","ratio_trial":200,"L_num":1,"L_den":2,"R_num":3,"R_den":10,"correct_side":1,"subjID":"AndresFernandez28","gender":"0","school":"6","age":"13"},{"start_time":1551800601961,"click_time":1551800603244,"finger_time":1551800602964,"fix_duration":336.53947416453934,"trial":7,"RT":1003,"MT":280,"sideResp":1,"stimulus":[],"xmouse":[793,793,793,793,792,791,790,789,787,787,787,787,787,787,787,787,787,787,787,787,787,787,787,787,787,787,787,787,787,787,787,787,787,787,787,787,787,787,787,787,787,787,787,787,787,787,786,784,772,757,733,701,671,630,625,624,617,609,590,580,576,573,563,529,514],"ymouse":[533,533,531,529,527,526,523,521,517,517,517,517,517,517,517,517,517,517,517,517,517,517,517,517,517,517,517,517,517,517,517,517,517,517,517,517,517,517,517,517,517,517,517,517,517,517,517,512,495,476,452,417,377,287,251,223,197,176,143,131,124,120,111,99,93],"timestamp_mouse":[11,22,42,62,82,103,122,143,164,184,202,222,242,262,282,304,324,343,362,382,403,424,442,463,483,503,523,542,564,583,603,623,643,662,683,702,724,742,762,782,803,822,843,862,883,902,923,943,963,982,1003,1022,1043,1063,1082,1102,1122,1143,1162,1182,1202,1223,1243,1264,1283],"xSR":741.5,"ySR":449.15000000000003,"xT1":424.9,"yT1":0,"xT2":1058.1,"yT2":0,"toosoon":0,"cond_shown":"Congruent","ratio_trial":200,"L_num":1,"L_den":2,"R_num":21,"R_den":30,"correct_side":2,"subjID":"AndresFernandez28","gender":"0","school":"6","age":"13"},{"start_time":1551800605540,"click_time":1551800607343,"finger_time":1551800607064,"fix_duration":414.69898090458923,"trial":8,"RT":1524,"MT":279,"sideResp":1,"stimulus":[],"xmouse":[793,793,793,793,793,793,793,793,793,793,793,793,793,793,793,793,793,793,793,793,793,793,793,793,793,793,793,793,793,793,793,793,793,793,793,793,793,793,793,793,793,793,793,793,793,793,793,793,793,793,793,793,793,793,793,793,793,793,793,792,789,788,785,779,770,769,769,769,769,769,769,769,769,769,769,769,765,755,743,702,680,657,631,607,569,560,552,541,531,514,507],"ymouse":[490,490,490,490,490,490,491,491,491,491,491,491,491,491,491,491,491,491,491,491,491,491,491,491,491,491,491,491,491,491,491,491,491,491,491,491,491,491,491,491,491,491,491,491,491,491,491,491,491,491,491,491,491,491,491,491,491,491,490,485,481,477,472,464,452,450,450,450,450,450,450,450,450,450,450,450,446,438,429,395,373,347,318,286,220,199,178,159,142,113,99],"timestamp_mouse":[10,34,43,64,83,104,124,144,164,184,205,223,243,264,283,303,323,344,364,385,403,425,443,465,484,503,524,545,564,583,603,624,643,665,685,703,723,745,763,784,803,823,844,864,885,903,924,944,964,983,1003,1024,1043,1064,1085,1104,1125,1143,1165,1184,1203,1225,1245,1263,1284,1303,1323,1344,1363,1385,1404,1424,1445,1463,1483,1503,1524,1544,1564,1583,1604,1624,1644,1664,1683,1703,1723,1744,1764,1784,1803],"xSR":741.5,"ySR":449.15000000000003,"xT1":424.9,"yT1":0,"xT2":1058.1,"yT2":0,"toosoon":0,"cond_shown":"Congruent","ratio_trial":100,"L_num":6,"L_den":12,"R_num":15,"R_den":25,"correct_side":2,"subjID":"AndresFernandez28","gender":"0","school":"6","age":"13"},{"start_time":1551800610873,"click_time":1551800611984,"finger_time":1551800611664,"fix_duration":648.9998668915875,"trial":9,"RT":791,"MT":320,"sideResp":1,"stimulus":[],"xmouse":[774,774,774,774,774,774,774,774,774,774,774,774,774,774,774,774,774,774,774,774,774,774,774,774,774,774,774,774,774,774,774,774,774,774,774,774,773,765,751,726,699,679,638,622,603,582,573,568,567,565,565,564,560,549,532,516],"ymouse":[502,502,502,502,502,502,502,502,502,502,502,502,502,502,502,502,502,502,502,502,502,502,502,502,502,502,502,502,502,502,502,502,502,502,502,502,500,481,461,430,394,359,279,243,205,168,147,114,107,103,101,100,98,94,90,85],"timestamp_mouse":[10,40,50,70,92,112,131,152,170,190,211,231,251,271,290,310,331,350,371,392,410,431,450,471,490,511,532,550,572,592,611,630,651,671,691,711,730,750,771,791,810,831,851,870,890,910,931,951,971,990,1011,1030,1051,1071,1091,1110],"xSR":741.5,"ySR":449.15000000000003,"xT1":424.9,"yT1":0,"xT2":1058.1,"yT2":0,"toosoon":0,"cond_shown":"Congruent","ratio_trial":200,"L_num":3,"L_den":6,"R_num":14,"R_den":20,"correct_side":2,"subjID":"AndresFernandez28","gender":"0","school":"6","age":"13"},{"start_time":1551800614178,"click_time":1551800616183,"finger_time":1551800614804,"fix_duration":1192.1696415430279,"trial":10,"RT":626,"MT":1379,"sideResp":1,"stimulus":[],"xmouse":[782,782,782,782,782,782,782,782,782,782,782,782,782,782,782,782,782,781,781,781,781,783,786,787,788,789,789,789,789,789,789,789,788,783,777,772,768,766,766,766,766,766,766,766,766,765,755,745,735,726,722,722,722,722,722,727,740,763,770,775,778,791,820,829,834,834,834,834,833,831,827,822,815,815,815,815,815,815,815,815,815,815,815,800,766,723,677,613,591,576,565,559,554,554,554,554,553,531,519,503,489],"ymouse":[484,484,484,484,484,484,484,484,484,484,484,484,484,484,484,484,484,484,481,480,478,473,463,456,453,450,450,450,450,450,450,449,448,447,446,445,445,444,444,444,444,444,444,444,444,444,438,432,425,421,420,420,426,432,437,442,445,451,454,456,458,462,475,480,483,484,484,485,486,486,487,488,490,490,490,490,490,490,490,490,490,490,490,477,449,411,372,296,266,244,228,221,216,215,214,213,209,181,159,130,98],"timestamp_mouse":[8,41,46,65,87,105,127,146,166,187,206,226,245,267,287,305,326,346,365,386,407,425,446,466,486,505,526,547,566,586,605,626,645,666,687,706,726,745,765,787,806,825,846,866,885,905,927,946,966,985,1005,1026,1046,1066,1085,1105,1125,1146,1165,1186,1206,1225,1246,1266,1287,1306,1325,1346,1367,1386,1405,1426,1446,1466,1485,1506,1525,1546,1565,1587,1606,1627,1647,1666,1685,1706,1726,1746,1766,1785,1806,1825,1846,1866,1887,1907,1926,1946,1965,1986,2005],"xSR":741.5,"ySR":449.15000000000003,"xT1":424.9,"yT1":0,"xT2":1058.1,"yT2":0,"toosoon":0,"cond_shown":"Congruent","ratio_trial":300,"L_num":20,"L_den":25,"R_num":8,"R_den":16,"correct_side":1,"subjID":"AndresFernandez28","gender":"0","school":"6","age":"13"},{"start_time":1551800618461,"click_time":1551800620324,"finger_time":1551800620024,"fix_duration":1276.1116301405802,"trial":11,"RT":1563,"MT":300,"sideResp":2,"stimulus":[],"xmouse":[781,781,781,781,781,781,781,781,781,781,781,781,781,781,781,781,781,781,781,781,781,781,781,781,781,781,781,781,781,781,781,781,781,781,781,781,781,781,781,781,781,781,781,781,781,781,781,781,781,781,781,781,781,781,781,781,781,781,781,781,781,781,781,781,781,781,781,781,781,781,781,781,781,781,781,781,784,791,812,827,841,856,887,903,920,938,957,981,1010,1021,1032,1043,1055,1074],"ymouse":[516,516,516,516,516,516,516,516,516,516,516,516,516,516,516,516,516,516,516,516,516,516,516,516,516,516,516,516,516,516,516,516,516,516,516,516,516,516,516,516,516,516,516,516,516,516,516,516,516,516,516,516,516,516,516,516,516,516,514,513,513,513,513,513,513,513,513,513,513,513,513,513,513,513,509,505,493,476,413,375,341,304,246,222,200,181,165,142,120,113,103,94,84,67],"timestamp_mouse":[10,23,42,62,84,103,122,144,162,184,202,222,243,263,284,302,322,342,362,384,402,422,443,464,482,503,523,542,562,582,604,623,644,662,682,704,723,743,764,782,802,823,842,862,884,903,923,942,964,983,1002,1023,1044,1062,1083,1102,1123,1142,1163,1183,1202,1222,1243,1262,1283,1302,1322,1343,1362,1383,1402,1422,1442,1462,1483,1503,1522,1543,1563,1583,1603,1622,1644,1663,1683,1703,1723,1743,1763,1783,1803,1823,1842,1863],"xSR":741.5,"ySR":449.15000000000003,"xT1":424.9,"yT1":0,"xT2":1058.1,"yT2":0,"toosoon":0,"cond_shown":"Incongruent","ratio_trial":200,"L_num":7,"L_den":15,"R_num":6,"R_den":9,"correct_side":2,"subjID":"AndresFernandez28","gender":"0","school":"6","age":"13"},{"start_time":1551800621670,"click_time":1551800623924,"finger_time":1551800623624,"fix_duration":645.6614410651811,"trial":12,"RT":1954,"MT":300,"sideResp":1,"stimulus":[],"xmouse":[795,795,795,795,795,795,795,795,795,795,795,795,795,795,795,795,795,795,795,795,795,795,795,795,795,795,795,795,795,795,795,795,795,795,795,795,795,795,795,795,795,795,795,795,795,795,795,795,795,795,795,795,795,795,795,795,795,795,795,795,795,795,795,795,795,795,795,795,795,795,795,794,793,792,791,791,791,791,791,791,791,791,791,791,791,791,791,791,791,791,791,791,791,791,789,786,778,727,697,665,631,604,562,554,552,555,555,553,549,548,544,536,521],"ymouse":[533,533,533,533,533,533,533,533,533,533,533,533,533,533,533,533,533,533,533,533,533,533,533,533,533,533,533,533,533,533,533,533,533,533,533,533,533,533,533,533,533,533,533,533,533,533,533,533,533,533,533,533,533,533,530,527,526,521,521,521,521,521,521,521,521,521,521,521,521,521,519,519,518,516,516,516,516,516,516,516,516,516,516,516,516,516,516,516,516,516,516,516,516,516,515,512,504,466,440,405,358,312,215,180,160,143,127,123,117,113,105,99,90],"timestamp_mouse":[14,41,53,74,95,114,134,155,173,193,215,234,253,273,293,315,334,354,374,394,414,433,453,473,493,513,534,553,573,593,615,633,654,675,694,714,733,754,774,795,813,833,854,874,894,913,933,953,974,993,1014,1034,1053,1074,1094,1113,1133,1153,1175,1194,1215,1235,1253,1274,1293,1315,1334,1354,1373,1395,1413,1433,1454,1474,1494,1515,1535,1553,1574,1595,1613,1634,1653,1674,1693,1714,1733,1754,1773,1794,1813,1834,1853,1874,1893,1913,1933,1954,1974,1994,2013,2034,2054,2073,2094,2114,2135,2153,2174,2194,2214,2233,2254],"xSR":741.5,"ySR":449.15000000000003,"xT1":424.9,"yT1":0,"xT2":1058.1,"yT2":0,"toosoon":0,"cond_shown":"Incongruent","ratio_trial":100,"L_num":6,"L_den":10,"R_num":7,"R_den":14,"correct_side":1,"subjID":"AndresFernandez28","gender":"0","school":"6","age":"13"},{"start_time":1551800625274,"click_time":1551800626523,"finger_time":1551800626183,"fix_duration":528.2024018485695,"trial":13,"RT":909,"MT":340,"sideResp":2,"stimulus":[],"xmouse":[783,783,783,783,783,783,783,783,783,783,783,783,783,783,783,783,783,783,783,783,783,783,783,783,783,783,783,783,783,783,783,783,783,783,783,783,783,783,783,783,783,783,785,788,791,800,809,849,873,896,923,946,987,1001,1011,1019,1036,1040,1046,1051,1054,1055,1060],"ymouse":[480,480,480,480,480,480,480,480,480,480,480,480,480,480,480,480,480,480,480,480,480,480,480,480,480,480,480,480,480,480,480,480,480,480,480,480,480,480,480,480,480,480,478,472,463,446,427,358,322,284,239,201,140,118,102,89,64,59,53,50,49,48,48],"timestamp_mouse":[11,33,50,71,89,109,129,151,170,190,211,230,249,270,290,310,330,349,369,390,409,430,450,470,490,510,530,549,570,589,610,630,649,669,690,709,729,749,769,790,809,829,850,870,889,909,929,950,970,989,1011,1030,1050,1069,1090,1109,1131,1149,1170,1189,1209,1229,1249],"xSR":741.5,"ySR":449.15000000000003,"xT1":424.9,"yT1":0,"xT2":1058.1,"yT2":0,"toosoon":0,"cond_shown":"Incongruent","ratio_trial":300,"L_num":13,"L_den":26,"R_num":12,"R_den":15,"correct_side":2,"subjID":"AndresFernandez28","gender":"0","school":"6","age":"13"},{"start_time":1551800627855,"click_time":1551800632963,"finger_time":1551800632484,"fix_duration":250.17859692480826,"trial":14,"RT":4629,"MT":479,"sideResp":2,"stimulus":[],"xmouse":[816,816,816,816,816,816,816,816,816,816,816,816,816,816,816,816,816,816,816,816,816,816,816,816,816,816,815,814,813,813,813,813,813,813,813,813,813,813,813,813,812,811,811,811,811,811,811,811,811,811,811,811,811,811,811,811,811,811,811,811,811,811,811,811,811,811,811,811,811,811,811,811,811,811,811,811,811,811,811,811,811,811,811,811,811,811,811,811,811,811,811,811,810,809,809,810,810,810,810,810,810,809,808,807,806,806,806,806,806,806,806,806,806,806,806,806,806,806,806,806,806,806,806,806,806,806,806,806,806,806,806,806,806,806,806,806,806,806,806,806,806,806,806,806,806,806,806,806,806,806,806,806,806,806,806,806,806,806,806,806,806,806,806,806,806,806,806,806,806,806,806,806,806,806,806,806,806,806,806,806,806,806,806,806,806,806,806,806,806,806,806,806,806,806,806,806,806,806,806,806,806,806,806,806,806,806,806,806,806,806,806,806,806,806,806,806,806,806,806,806,806,806,806,806,806,806,805,805,805,808,811,815,824,829,837,848,859,873,901,913,923,935,946,965,976,986,995,1004,1012,1015,1019,1022,1029,1050,1058,1065],"ymouse":[516,516,516,516,516,516,516,516,516,516,516,516,516,516,516,516,516,516,516,516,516,516,516,516,516,516,515,515,515,515,515,515,515,515,515,515,515,515,515,515,515,516,516,516,516,516,516,516,516,516,516,516,516,516,516,516,516,516,516,516,516,516,516,516,516,516,516,516,516,516,516,516,516,516,516,516,516,516,516,516,516,516,516,516,516,516,516,516,516,516,516,516,515,509,502,498,496,496,495,495,495,494,494,494,494,494,494,494,494,494,494,494,494,494,494,494,494,494,494,494,494,494,494,494,494,494,494,494,494,494,494,494,494,494,494,494,494,494,494,494,494,494,494,494,494,494,494,494,494,494,494,494,494,494,494,494,494,494,494,494,494,494,494,494,494,494,494,494,494,494,494,494,494,494,494,494,494,494,494,494,494,494,494,494,494,494,494,494,494,494,494,494,494,494,494,494,494,494,494,494,494,494,494,494,494,494,494,494,494,494,494,494,494,494,494,494,494,494,494,494,494,494,494,494,494,494,493,488,477,467,454,441,408,389,368,346,324,301,253,232,214,193,175,137,117,100,87,76,68,68,68,68,68,68,67,66],"timestamp_mouse":[10,34,49,67,87,108,129,147,169,187,209,227,247,269,288,309,329,348,367,387,408,427,447,469,487,507,529,547,567,587,608,627,647,667,688,708,727,748,767,788,809,827,848,868,888,908,927,947,969,987,1007,1028,1048,1068,1088,1108,1127,1148,1168,1189,1209,1227,1247,1269,1287,1309,1327,1347,1367,1387,1408,1429,1447,1467,1487,1507,1528,1548,1568,1588,1608,1629,1649,1667,1689,1707,1728,1748,1767,1788,1807,1827,1848,1868,1888,1907,1928,1947,1967,1989,2008,2028,2047,2068,2088,2109,2127,2149,2167,2187,2207,2228,2247,2267,2287,2307,2327,2347,2368,2387,2408,2428,2447,2467,2489,2509,2528,2548,2568,2587,2607,2628,2647,2667,2688,2707,2727,2747,2767,2789,2808,2827,2848,2868,2889,2907,2928,2949,2968,2987,3008,3027,3049,3067,3088,3109,3127,3148,3168,3187,3207,3227,3248,3267,3287,3307,3327,3348,3367,3388,3408,3428,3448,3467,3487,3509,3527,3548,3568,3588,3608,3629,3647,3668,3689,3709,3729,3747,3769,3788,3808,3828,3848,3868,3888,3908,3928,3947,3967,3988,4009,4027,4048,4068,4087,4107,4127,4148,4168,4189,4207,4227,4247,4267,4288,4307,4327,4348,4368,4389,4409,4428,4447,4469,4488,4507,4529,4547,4568,4588,4607,4629,4649,4667,4687,4708,4727,4748,4767,4787,4807,4827,4848,4868,4888,4908,4928,4948,4968,4988,5008,5028,5049,5068,5088,5107],"xSR":741.5,"ySR":449.15000000000003,"xT1":424.9,"yT1":0,"xT2":1058.1,"yT2":0,"toosoon":0,"cond_shown":"Incongruent","ratio_trial":200,"L_num":4,"L_den":6,"R_num":14,"R_den":30,"correct_side":1,"subjID":"AndresFernandez28","gender":"0","school":"6","age":"13"},{"start_time":1551800638975,"click_time":1551800641804,"finger_time":1551800641023,"fix_duration":250,"trial":15,"RT":2048,"MT":781,"sideResp":1,"stimulus":[],"xmouse":[805,805,805,805,805,805,805,805,805,805,805,805,805,805,805,805,805,805,805,805,805,805,805,805,805,805,805,805,805,805,805,805,805,805,805,805,805,805,805,805,805,805,805,805,805,805,805,805,805,805,805,805,805,805,805,805,805,805,805,805,805,805,805,805,805,805,805,805,805,805,805,805,805,805,805,805,805,805,804,803,803,803,803,803,803,803,803,803,803,803,803,803,803,803,803,803,803,803,803,798,795,773,708,672,652,637,632,627,627,626,626,614,598,579,556,533,509,466,451,439,430,420,415,411,407,403,396,390,383,377,370,367,367,367,367,370,371,372,373,374,380,427],"ymouse":[504,504,504,504,504,504,504,504,504,504,504,504,504,504,504,504,504,504,504,504,504,504,504,504,504,504,504,504,504,504,504,504,504,504,504,504,504,504,504,504,504,504,504,504,504,504,504,504,504,504,504,504,504,504,504,504,504,504,504,504,504,504,504,504,504,504,504,504,504,504,504,504,504,504,504,504,504,504,503,503,503,503,503,503,503,503,503,503,503,503,503,503,503,503,503,503,503,503,503,503,503,503,503,503,503,503,503,503,503,503,503,503,502,498,495,490,481,456,443,426,406,376,337,313,286,258,204,176,152,129,107,92,65,60,55,51,50,49,49,49,49,49],"timestamp_mouse":[9,32,47,69,89,108,128,147,168,188,208,228,247,269,287,307,329,349,368,387,407,429,448,468,489,508,529,549,569,587,607,628,648,668,687,709,729,748,767,787,821,829,849,868,887,908,929,947,967,988,1008,1028,1048,1069,1087,1108,1128,1148,1167,1188,1207,1229,1247,1267,1288,1307,1329,1347,1367,1387,1407,1429,1448,1467,1488,1509,1527,1548,1568,1589,1608,1628,1648,1667,1689,1707,1728,1747,1768,1787,1809,1827,1848,1868,1889,1908,1928,1949,1967,1987,2008,2028,2048,2067,2087,2107,2128,2148,2167,2187,2209,2229,2247,2267,2289,2307,2327,2348,2367,2389,2409,2428,2448,2468,2488,2509,2529,2548,2567,2588,2609,2628,2648,2668,2689,2707,2728,2747,2768,2788,2809,2829],"xSR":741.5,"ySR":449.15000000000003,"xT1":424.9,"yT1":0,"xT2":1058.1,"yT2":0,"toosoon":0,"cond_shown":"Incongruent","ratio_trial":300,"L_num":8,"L_den":10,"R_num":14,"R_den":28,"correct_side":1,"subjID":"AndresFernandez28","gender":"0","school":"6","age":"13"},{"start_time":1551800643526,"click_time":1551800645423,"finger_time":1551800645183,"fix_duration":701.0405969107355,"trial":16,"RT":1657,"MT":240,"sideResp":1,"stimulus":[],"xmouse":[775,775,775,775,775,775,775,775,775,775,775,775,775,775,775,775,775,775,775,775,775,775,775,775,775,775,775,775,775,775,775,775,775,775,775,775,775,775,775,775,775,775,775,775,775,775,775,775,775,775,775,775,775,775,775,775,775,775,775,775,775,775,775,775,775,775,775,775,775,775,775,775,775,775,775,775,775,775,775,767,761,753,741,704,686,670,645,622,601,553,530,512,494,477,437],"ymouse":[509,509,509,509,509,509,509,509,509,509,509,509,509,509,509,509,509,509,509,509,509,509,509,509,509,509,509,509,509,509,509,509,509,509,509,509,509,509,509,509,509,509,509,509,509,509,509,509,509,509,509,509,509,509,509,509,509,509,509,509,509,509,509,509,509,509,509,509,509,509,509,509,509,509,509,509,509,509,503,495,486,474,455,407,383,360,326,292,260,204,181,159,139,119,78],"timestamp_mouse":[16,36,56,76,97,118,136,157,176,197,217,238,256,276,297,316,336,357,378,396,416,436,457,478,498,516,537,557,576,597,618,636,656,678,698,717,737,756,778,796,817,838,857,876,897,917,937,956,978,996,1017,1037,1057,1076,1097,1117,1136,1157,1176,1197,1217,1237,1257,1277,1298,1317,1337,1356,1376,1397,1416,1436,1458,1476,1496,1517,1537,1557,1576,1597,1618,1636,1657,1678,1696,1716,1736,1757,1778,1797,1817,1836,1856,1877,1897],"xSR":741.5,"ySR":449.15000000000003,"xT1":424.9,"yT1":0,"xT2":1058.1,"yT2":0,"toosoon":0,"cond_shown":"Congruent","ratio_trial":200,"L_num":3,"L_den":10,"R_num":7,"R_den":14,"correct_side":2,"subjID":"AndresFernandez28","gender":"0","school":"6","age":"13"},{"start_time":1551800646802,"click_time":1551800648782,"finger_time":1551800648383,"fix_duration":276.7040432806485,"trial":17,"RT":1581,"MT":399,"sideResp":2,"stimulus":[],"xmouse":[823,823,823,823,823,824,824,824,824,824,824,824,824,824,824,824,824,824,824,824,824,824,824,824,824,824,824,824,824,824,824,824,824,824,824,824,824,824,824,824,824,824,824,824,824,824,824,824,824,824,824,824,824,824,824,824,824,824,824,824,824,824,824,824,824,824,824,824,824,824,824,824,824,824,824,824,824,826,833,845,858,909,931,955,975,992,1009,1011,1011,1011,1013,1020,1026,1034,1042,1051,1054,1056,1058,1060],"ymouse":[523,523,523,523,523,523,523,523,523,523,523,523,523,523,523,523,523,523,523,523,523,523,523,523,523,522,522,521,521,520,520,520,520,520,520,518,517,516,516,516,516,516,516,516,516,516,516,516,516,516,516,516,516,516,516,516,516,516,516,516,516,516,516,516,516,516,516,516,516,516,516,516,516,516,516,516,516,507,490,463,437,326,280,237,201,174,149,147,146,145,143,137,133,125,115,100,96,93,90,88],"timestamp_mouse":[8,33,41,60,81,101,121,141,161,180,202,222,241,261,280,302,321,340,361,381,402,421,442,461,480,500,521,542,561,580,601,620,641,660,681,702,721,740,760,782,800,820,841,862,881,900,921,941,960,981,1000,1020,1040,1060,1082,1100,1120,1142,1160,1180,1201,1222,1241,1260,1281,1302,1320,1342,1360,1382,1400,1420,1440,1462,1482,1500,1521,1541,1561,1581,1601,1621,1641,1661,1680,1701,1721,1742,1762,1781,1801,1821,1841,1861,1882,1902,1920,1941,1961,1980],"xSR":741.5,"ySR":449.15000000000003,"xT1":424.9,"yT1":0,"xT2":1058.1,"yT2":0,"toosoon":0,"cond_shown":"Incongruent","ratio_trial":200,"L_num":14,"L_den":30,"R_num":6,"R_den":9,"correct_side":2,"subjID":"AndresFernandez28","gender":"0","school":"6","age":"13"},{"start_time":1551800650375,"click_time":1551800651942,"finger_time":1551800651222,"fix_duration":511.2294068541997,"trial":18,"RT":847,"MT":720,"sideResp":1,"stimulus":[],"xmouse":[783,783,783,783,783,783,783,783,783,783,783,783,783,783,783,783,783,783,783,783,783,783,783,783,783,783,783,783,783,783,783,783,783,783,783,783,782,780,778,773,765,748,723,711,697,682,669,651,650,650,650,650,648,644,638,633,625,601,590,577,566,556,543,537,531,523,519,513,510,506,501,494,489,489,489,489,489,489,488],"ymouse":[534,534,534,534,534,534,534,534,534,534,534,534,534,534,534,534,534,534,534,534,534,534,534,534,534,534,534,534,534,534,534,534,534,534,534,534,531,530,528,522,517,501,467,447,426,406,387,364,363,363,363,363,362,361,360,355,344,308,290,269,249,230,190,176,163,151,143,132,127,121,115,107,100,100,100,100,100,100,99],"timestamp_mouse":[10,34,48,68,88,107,128,148,168,187,208,228,247,268,288,307,328,347,367,388,408,427,447,467,488,508,528,548,568,589,607,627,648,667,687,707,729,748,768,788,809,828,847,869,888,907,928,947,968,988,1009,1029,1047,1068,1087,1108,1127,1148,1168,1189,1209,1227,1247,1268,1287,1308,1328,1348,1367,1388,1407,1428,1448,1468,1489,1508,1529,1548,1567],"xSR":741.5,"ySR":449.15000000000003,"xT1":424.9,"yT1":0,"xT2":1058.1,"yT2":0,"toosoon":0,"cond_shown":"Congruent","ratio_trial":300,"L_num":7,"L_den":14,"R_num":20,"R_den":25,"correct_side":2,"subjID":"AndresFernandez28","gender":"0","school":"6","age":"13"},{"start_time":1551800653255,"click_time":1551800656103,"finger_time":1551800655744,"fix_duration":250,"trial":19,"RT":2489,"MT":359,"sideResp":2,"stimulus":[],"xmouse":[776,776,776,776,776,776,776,776,776,776,776,776,776,776,776,776,776,776,776,776,776,776,776,776,776,776,776,776,776,776,776,776,776,776,776,776,776,776,776,776,776,776,776,776,776,776,776,776,776,776,776,776,776,776,776,776,776,776,776,776,776,776,776,776,776,776,776,776,776,776,776,776,776,776,776,776,776,776,776,776,776,776,776,776,776,776,774,773,773,773,773,773,773,773,773,773,773,773,773,773,773,773,773,773,773,773,773,773,773,773,773,773,773,773,773,773,773,773,773,773,773,773,773,778,794,812,836,871,903,914,926,939,950,961,962,964,970,989,1025,1044,1061,1074,1083],"ymouse":[497,497,497,497,497,497,497,497,497,497,497,497,497,497,497,497,497,497,497,497,497,497,497,497,497,497,497,497,497,497,497,497,497,497,497,497,497,497,497,497,497,497,497,497,497,497,497,497,497,497,497,497,497,497,497,497,497,497,497,497,497,497,497,497,497,497,497,497,497,497,497,497,497,497,497,497,497,497,497,497,497,497,497,497,497,497,479,474,470,470,470,470,470,470,470,470,470,470,470,470,470,470,470,470,470,470,470,470,470,470,470,470,470,470,470,470,470,470,470,470,470,470,468,453,434,411,378,332,274,253,232,216,204,196,195,194,190,180,155,137,117,100,86],"timestamp_mouse":[9,28,48,67,87,107,127,149,167,189,209,228,247,269,288,309,327,347,369,387,408,427,447,468,487,509,527,549,567,589,607,629,647,667,688,709,727,747,768,788,808,829,847,867,889,908,928,949,967,989,1008,1028,1048,1068,1088,1107,1128,1149,1168,1187,1208,1227,1248,1269,1287,1308,1329,1347,1368,1387,1407,1428,1448,1467,1488,1509,1528,1549,1567,1589,1607,1627,1647,1667,1688,1708,1728,1749,1768,1787,1808,1827,1847,1868,1887,1909,1927,1947,1968,1987,2008,2028,2049,2069,2087,2108,2127,2149,2167,2187,2208,2227,2249,2267,2289,2309,2328,2349,2367,2388,2409,2428,2449,2468,2489,2509,2527,2548,2567,2588,2607,2627,2648,2668,2688,2707,2728,2748,2767,2787,2807,2829,2848],"xSR":741.5,"ySR":449.15000000000003,"xT1":424.9,"yT1":0,"xT2":1058.1,"yT2":0,"toosoon":0,"cond_shown":"Incongruent","ratio_trial":100,"L_num":6,"L_den":10,"R_num":13,"R_den":26,"correct_side":1,"subjID":"AndresFernandez28","gender":"0","school":"6","age":"13"},{"start_time":1551800660795,"click_time":1551800664462,"finger_time":1551800664083,"fix_duration":250,"trial":20,"RT":3288,"MT":379,"sideResp":1,"stimulus":[],"xmouse":[783,783,783,783,783,783,783,783,783,783,783,783,783,783,783,783,783,783,783,783,783,783,783,783,783,783,783,783,783,783,783,783,783,783,783,783,783,783,783,783,783,783,783,783,783,783,783,783,783,783,783,783,783,783,783,783,783,783,783,783,783,783,783,783,783,783,783,783,783,783,783,783,783,783,783,783,783,783,783,783,783,783,783,783,783,783,783,783,783,783,783,783,783,783,783,783,783,783,783,783,783,783,783,783,783,783,783,783,783,783,783,783,783,783,783,783,783,783,783,783,783,783,783,783,783,783,783,784,784,784,784,784,784,784,784,784,784,783,781,780,779,778,778,778,778,778,778,778,778,778,778,778,778,778,778,778,778,776,774,773,771,769,764,750,726,665,630,599,571,551,531,518,509,497,486,478,475,475,475,473,470,467,466,466],"ymouse":[493,493,493,493,493,493,493,493,493,493,493,493,493,493,493,493,493,493,493,493,493,493,493,493,493,493,493,493,493,493,493,493,493,493,493,493,493,493,493,493,493,493,493,493,493,493,493,493,493,493,493,493,493,493,493,493,493,493,493,493,493,493,493,493,493,493,493,493,493,493,493,493,493,493,493,493,493,493,493,493,493,493,493,493,493,493,493,493,493,493,493,493,493,493,493,493,493,493,493,493,493,493,493,493,493,493,493,493,493,493,493,493,493,493,493,493,493,493,493,493,493,493,493,493,493,493,494,495,495,495,495,495,495,495,495,495,495,491,488,485,481,479,479,479,479,479,479,479,479,479,479,479,479,479,479,479,479,478,478,478,478,478,475,470,463,431,409,386,367,350,325,290,272,255,238,223,201,193,182,168,145,113,100,94],"timestamp_mouse":[11,43,47,69,88,108,128,148,167,189,207,227,249,267,289,308,327,348,369,387,409,427,448,469,488,508,528,547,567,588,608,628,649,669,687,709,728,749,767,788,809,828,847,869,887,908,929,947,969,988,1008,1027,1049,1068,1088,1109,1129,1147,1169,1188,1207,1227,1247,1268,1287,1309,1327,1348,1369,1387,1407,1429,1447,1468,1487,1507,1528,1547,1568,1587,1607,1627,1649,1669,1687,1708,1728,1747,1768,1787,1807,1828,1848,1867,1887,1909,1927,1949,1967,1988,2008,2029,2047,2067,2088,2108,2129,2147,2168,2188,2209,2227,2247,2269,2289,2307,2327,2349,2367,2388,2409,2427,2447,2467,2488,2508,2528,2549,2567,2588,2608,2627,2649,2669,2687,2708,2728,2749,2769,2787,2809,2829,2848,2867,2888,2908,2927,2947,2967,2988,3008,3027,3047,3069,3088,3109,3128,3147,3168,3188,3207,3227,3248,3268,3288,3309,3328,3348,3368,3388,3408,3427,3447,3467,3487,3509,3528,3548,3567,3587,3608,3628,3648,3667],"xSR":741.5,"ySR":449.15000000000003,"xT1":424.9,"yT1":0,"xT2":1058.1,"yT2":0,"toosoon":0,"cond_shown":"Incongruent","ratio_trial":300,"L_num":13,"L_den":26,"R_num":12,"R_den":15,"correct_side":2,"subjID":"AndresFernandez28","gender":"0","school":"6","age":"13"},{"start_time":1551800666151,"click_time":1551800667823,"finger_time":1551800667704,"fix_duration":786.038640727224,"trial":21,"RT":1553,"MT":119,"sideResp":1,"stimulus":[],"xmouse":[814,814,814,814,814,814,814,814,814,814,814,814,814,814,814,814,814,814,814,814,814,814,814,814,814,814,814,814,814,814,814,814,814,814,814,814,814,814,814,814,814,814,814,814,814,814,814,814,814,814,814,814,814,814,814,814,814,814,814,814,814,814,814,814,814,814,814,814,814,814,814,814,814,814,814,810,780,740,654,618,597,577,555,524],"ymouse":[531,531,531,531,531,531,531,531,531,531,531,531,531,531,531,531,531,531,531,531,531,531,531,531,531,531,531,531,531,531,531,531,531,531,531,531,531,531,531,531,531,531,531,531,531,531,531,531,531,531,531,531,531,531,531,531,531,531,531,531,531,531,531,531,531,531,531,531,531,531,531,531,531,531,531,520,497,467,371,317,266,220,166,92],"timestamp_mouse":[21,37,52,72,91,112,132,151,173,192,212,232,251,271,292,311,333,351,372,391,411,433,451,472,491,512,532,551,571,593,612,632,652,671,691,712,732,753,772,791,813,831,852,872,891,912,931,952,971,993,1012,1032,1053,1071,1092,1112,1131,1152,1171,1193,1213,1232,1252,1273,1291,1312,1332,1351,1371,1393,1412,1431,1451,1471,1493,1513,1531,1553,1571,1591,1611,1631,1653,1672],"xSR":741.5,"ySR":449.15000000000003,"xT1":424.9,"yT1":0,"xT2":1058.1,"yT2":0,"toosoon":0,"cond_shown":"Congruent","ratio_trial":100,"L_num":10,"L_den":25,"R_num":3,"R_den":10,"correct_side":1,"subjID":"AndresFernandez28","gender":"0","school":"6","age":"13"},{"start_time":1551800669989,"click_time":1551800672283,"finger_time":1551800671522,"fix_duration":765.4332781670873,"trial":22,"RT":1533,"MT":761,"sideResp":2,"stimulus":[],"xmouse":[774,774,774,774,774,774,774,774,774,774,774,774,774,774,774,774,774,774,774,774,774,774,774,774,774,774,774,774,774,774,774,774,774,774,774,774,774,774,774,774,774,774,774,774,774,774,774,774,774,774,774,774,774,774,774,774,774,774,774,774,774,774,774,774,774,774,774,774,773,778,792,807,808,808,813,832,855,885,921,962,1043,1114,1136,1153,1170,1182,1208,1222,1238,1252,1271,1293,1299,1305,1311,1316,1317,1317,1317,1310,1293,1285,1276,1264,1252,1241,1228,1220,1207,1196,1191,1181,1175,1168,1158],"ymouse":[507,507,507,507,507,507,507,507,507,507,507,507,507,507,507,507,507,507,507,507,507,507,507,507,507,507,507,507,507,507,507,507,507,507,507,507,507,507,507,507,507,507,507,507,507,507,507,507,507,507,507,507,507,507,507,507,507,507,507,507,507,507,507,507,507,507,507,507,504,503,500,496,496,496,496,501,509,517,528,533,538,539,539,537,535,533,525,519,513,507,494,467,454,434,413,369,349,327,304,265,214,191,173,153,137,124,112,109,106,102,100,98,98,96,96],"timestamp_mouse":[14,35,54,74,93,113,134,154,174,195,213,233,253,274,295,313,333,353,374,395,413,433,454,474,494,515,533,553,575,593,613,634,654,674,693,713,733,753,774,793,814,834,853,875,893,914,933,954,973,993,1014,1035,1053,1073,1094,1115,1134,1154,1174,1194,1215,1233,1253,1274,1293,1313,1334,1353,1374,1393,1413,1435,1454,1474,1493,1515,1533,1554,1574,1594,1614,1633,1654,1675,1694,1713,1733,1753,1775,1794,1814,1834,1854,1873,1894,1915,1933,1954,1973,1994,2015,2033,2054,2075,2094,2113,2134,2155,2174,2193,2214,2234,2254,2274,2294],"xSR":741.5,"ySR":449.15000000000003,"xT1":424.9,"yT1":0,"xT2":1058.1,"yT2":0,"toosoon":0,"cond_shown":"Incongruent","ratio_trial":300,"L_num":13,"L_den":26,"R_num":12,"R_den":15,"correct_side":2,"subjID":"AndresFernandez28","gender":"0","school":"6","age":"13"},{"start_time":1551800673841,"click_time":1551800675882,"finger_time":1551800675424,"fix_duration":495.9285223077623,"trial":23,"RT":1583,"MT":458,"sideResp":1,"stimulus":[],"xmouse":[786,786,786,786,786,786,786,786,786,786,786,786,786,786,786,786,786,786,786,786,786,786,786,786,786,786,786,786,786,786,786,786,786,786,786,786,786,786,786,786,786,786,786,786,786,786,786,786,786,786,786,786,786,786,786,786,786,786,786,786,786,785,785,785,785,785,785,785,785,785,785,785,785,785,785,785,785,783,777,749,736,721,708,694,676,673,673,673,673,669,663,655,643,604,571,537,518,506,495,491,486,483,480],"ymouse":[509,509,509,509,509,509,509,509,509,509,509,509,509,509,509,509,509,509,509,509,509,509,509,509,509,509,509,509,509,509,509,509,509,509,509,509,509,509,509,509,509,509,509,509,509,509,509,509,509,509,509,509,509,509,509,509,509,509,509,509,509,508,508,508,508,508,508,508,508,508,508,508,508,508,508,508,507,503,493,441,414,388,364,342,315,311,311,311,311,304,296,286,272,241,221,200,186,171,133,121,110,104,99],"timestamp_mouse":[10,31,42,62,82,102,121,142,163,182,202,222,242,263,281,302,322,342,361,382,401,421,441,463,481,502,523,542,562,581,601,623,642,661,682,701,721,742,761,782,802,823,842,861,882,901,923,941,963,981,1002,1023,1049,1061,1081,1101,1122,1142,1161,1181,1202,1221,1241,1261,1281,1301,1322,1342,1361,1383,1401,1423,1443,1461,1481,1502,1521,1542,1563,1583,1602,1621,1641,1662,1682,1702,1722,1741,1762,1782,1802,1821,1842,1863,1882,1901,1921,1942,1963,1981,2001,2021,2041],"xSR":741.5,"ySR":449.15000000000003,"xT1":424.9,"yT1":0,"xT2":1058.1,"yT2":0,"toosoon":0,"cond_shown":"Congruent","ratio_trial":200,"L_num":21,"L_den":30,"R_num":2,"R_den":4,"correct_side":1,"subjID":"AndresFernandez28","gender":"0","school":"6","age":"13"},{"start_time":1551800677464,"click_time":1551800678682,"finger_time":1551800678543,"fix_duration":640.9733412307176,"trial":24,"RT":1079,"MT":139,"sideResp":2,"stimulus":[],"xmouse":[782,782,782,782,782,782,782,782,782,782,782,782,782,782,782,782,782,782,782,782,782,782,782,782,782,782,782,782,782,782,782,782,782,782,782,782,782,782,782,782,782,782,782,782,782,782,782,783,784,786,789,800,812,830,860,908,990,1078,1110,1126,1133],"ymouse":[492,492,492,492,492,492,492,492,492,492,492,492,492,492,492,492,492,492,492,492,492,492,492,492,492,492,492,492,492,492,492,492,492,492,492,492,492,492,492,492,492,492,492,492,492,492,492,492,492,492,489,470,450,430,406,369,299,201,150,114,94],"timestamp_mouse":[18,50,59,80,98,118,139,158,180,198,219,239,258,280,300,319,340,358,379,400,419,439,458,479,500,519,540,558,579,598,619,639,658,679,700,719,740,759,779,800,818,838,858,879,898,919,938,958,978,998,1018,1040,1059,1079,1098,1119,1139,1159,1179,1199,1218],"xSR":741.5,"ySR":449.15000000000003,"xT1":424.9,"yT1":0,"xT2":1058.1,"yT2":0,"toosoon":0,"cond_shown":"Congruent","ratio_trial":200,"L_num":6,"L_den":20,"R_num":11,"R_den":22,"correct_side":2,"subjID":"AndresFernandez28","gender":"0","school":"6","age":"13"},{"start_time":1551800679916,"click_time":1551800681363,"finger_time":1551800680922,"fix_duration":250,"trial":25,"RT":1006,"MT":441,"sideResp":2,"stimulus":[],"xmouse":[805,805,805,805,805,805,805,805,805,805,805,805,805,805,805,805,804,804,804,804,804,804,804,804,804,804,804,804,804,804,804,804,804,804,804,804,804,804,804,804,804,804,804,804,804,804,805,809,815,824,858,883,904,925,963,975,985,991,996,1000,1002,1005,1008,1010,1021,1024,1027,1031,1036,1041,1053,1059,1064],"ymouse":[517,517,517,517,517,517,517,517,517,517,517,517,517,517,517,517,517,517,517,517,517,517,517,517,517,517,517,517,517,517,517,517,517,517,517,517,517,517,517,516,514,514,513,513,513,511,507,500,487,473,421,378,339,304,236,214,194,185,175,169,163,159,153,148,131,128,124,119,115,111,104,101,98],"timestamp_mouse":[9,36,48,67,88,107,127,148,168,187,207,228,246,266,288,307,326,348,366,386,407,427,448,466,487,507,527,547,568,587,607,627,647,666,688,708,727,748,766,786,807,827,846,867,888,907,927,947,967,987,1006,1027,1048,1068,1088,1107,1127,1146,1166,1187,1207,1227,1247,1266,1288,1306,1327,1347,1366,1386,1406,1426,1446],"xSR":741.5,"ySR":449.15000000000003,"xT1":424.9,"yT1":0,"xT2":1058.1,"yT2":0,"toosoon":0,"cond_shown":"Incongruent","ratio_trial":300,"L_num":4,"L_den":5,"R_num":6,"R_den":12,"correct_side":1,"subjID":"AndresFernandez28","gender":"0","school":"6","age":"13"},{"start_time":1551800683921,"click_time":1551800685184,"finger_time":1551800684804,"fix_duration":697.6953213510778,"trial":26,"RT":883,"MT":380,"sideResp":2,"stimulus":[],"xmouse":[785,785,785,785,785,785,785,785,785,785,785,785,785,785,785,785,785,785,785,785,785,785,785,785,785,785,785,785,785,785,785,785,785,785,785,785,785,785,785,785,785,786,787,792,855,907,964,1029,1087,1133,1171,1179,1188,1200,1210,1221,1221,1221,1220,1211,1178,1158,1137,1109],"ymouse":[514,514,514,514,514,514,514,514,514,514,514,514,514,514,514,514,514,514,514,514,514,514,514,514,514,514,514,514,514,514,514,514,514,514,514,514,514,514,514,514,514,513,513,513,523,530,538,547,556,562,566,566,563,554,545,510,491,466,438,395,273,200,127,24],"timestamp_mouse":[11,38,41,61,83,102,122,143,161,181,203,221,242,262,282,302,321,341,361,381,403,422,441,462,483,502,522,541,563,582,602,622,642,662,683,701,721,742,762,783,803,822,841,863,883,901,922,941,962,981,1001,1021,1043,1062,1082,1102,1122,1141,1161,1182,1202,1222,1242,1263],"xSR":741.5,"ySR":449.15000000000003,"xT1":424.9,"yT1":0,"xT2":1058.1,"yT2":0,"toosoon":0,"cond_shown":"Incongruent","ratio_trial":100,"L_num":2,"L_den":4,"R_num":6,"R_den":15,"correct_side":1,"subjID":"AndresFernandez28","gender":"0","school":"6","age":"13"},{"start_time":1551800687352,"click_time":1551800688884,"finger_time":1551800688263,"fix_duration":1008.8361706860721,"trial":27,"RT":911,"MT":621,"sideResp":1,"stimulus":[],"xmouse":[801,801,801,801,801,801,801,801,801,801,801,801,801,801,801,801,801,801,801,801,801,801,801,801,801,801,801,801,801,801,801,801,801,801,801,801,801,801,801,801,801,801,798,779,765,744,731,718,710,705,698,691,681,676,672,664,658,645,605,586,570,556,536,525,522,521,518,516,514,512,511,508,507,504,501,500,499],"ymouse":[502,502,502,502,502,502,502,502,502,502,502,502,502,502,502,502,502,502,502,502,502,502,502,502,502,502,502,502,502,502,502,502,502,502,502,502,502,502,502,502,502,501,495,472,455,429,408,372,353,338,321,309,294,283,275,267,260,254,235,226,215,204,189,170,162,156,150,144,136,133,131,128,126,119,113,107,98],"timestamp_mouse":[12,34,51,72,92,112,131,150,172,192,210,232,250,270,292,312,331,350,371,390,412,430,450,471,492,512,532,552,571,591,612,632,651,671,692,712,732,752,771,792,812,831,852,871,891,911,931,952,971,991,1012,1031,1052,1071,1092,1111,1131,1151,1171,1191,1211,1232,1251,1271,1292,1311,1332,1352,1371,1391,1411,1431,1451,1471,1491,1511,1532],"xSR":741.5,"ySR":449.15000000000003,"xT1":424.9,"yT1":0,"xT2":1058.1,"yT2":0,"toosoon":0,"cond_shown":"Congruent","ratio_trial":200,"L_num":12,"L_den":15,"R_num":6,"R_den":10,"correct_side":1,"subjID":"AndresFernandez28","gender":"0","school":"6","age":"13"},{"start_time":1551800690502,"click_time":1551800691804,"finger_time":1551800691264,"fix_duration":616.795187683614,"trial":28,"RT":762,"MT":540,"sideResp":2,"stimulus":[],"xmouse":[804,804,804,804,804,804,804,804,804,804,804,804,804,805,805,805,805,805,806,806,806,806,806,806,806,807,808,809,810,810,811,811,812,812,813,815,819,824,831,846,888,911,931,952,978,988,1023,1037,1048,1057,1063,1072,1074,1076,1079,1081,1081,1082,1083,1084,1086,1090,1093,1095,1100,1102],"ymouse":[475,475,475,475,475,475,475,475,475,475,475,475,474,474,474,474,473,473,472,472,472,472,472,472,471,470,468,467,465,464,462,461,460,460,459,456,454,452,449,445,436,434,430,425,414,410,387,376,363,346,332,295,278,261,246,224,201,191,181,175,164,141,131,120,104,96],"timestamp_mouse":[8,21,43,61,83,102,121,141,161,182,202,221,241,262,281,302,322,341,361,381,402,421,441,461,481,502,521,541,561,581,601,622,641,662,683,702,721,741,762,782,802,821,842,862,881,902,922,941,961,981,1001,1021,1041,1062,1082,1101,1121,1142,1162,1182,1202,1221,1242,1262,1282,1302],"xSR":741.5,"ySR":449.15000000000003,"xT1":424.9,"yT1":0,"xT2":1058.1,"yT2":0,"toosoon":0,"cond_shown":"Congruent","ratio_trial":100,"L_num":15,"L_den":25,"R_num":13,"R_den":26,"correct_side":1,"subjID":"AndresFernandez28","gender":"0","school":"6","age":"13"},{"start_time":1551800694035,"click_time":1551800694605,"finger_time":1551800694463,"fix_duration":1330.3932219710439,"trial":29,"RT":428,"MT":142,"sideResp":1,"stimulus":[],"xmouse":[779,779,779,779,779,779,779,779,779,779,779,779,779,779,779,779,779,779,779,778,769,757,734,661,614,575,532,521,498],"ymouse":[498,498,498,494,494,494,494,494,494,494,494,493,493,493,493,493,493,493,493,483,467,445,414,314,251,199,138,119,81],"timestamp_mouse":[12,35,48,68,88,109,129,149,169,188,209,229,248,268,288,309,328,349,368,389,409,428,449,469,488,509,528,548,569],"xSR":741.5,"ySR":449.15000000000003,"xT1":424.9,"yT1":0,"xT2":1058.1,"yT2":0,"toosoon":0,"cond_shown":"Congruent","ratio_trial":300,"L_num":7,"L_den":14,"R_num":20,"R_den":25,"correct_side":2,"subjID":"AndresFernandez28","gender":"0","school":"6","age":"13"},{"start_time":1551800699924,"click_time":1551800700605,"finger_time":1551800700184,"fix_duration":580.1062842154757,"trial":30,"RT":260,"MT":421,"sideResp":2,"stimulus":[],"xmouse":[816,816,816,817,820,820,821,821,821,821,821,823,829,835,904,946,981,1006,1027,1057,1062,1063,1063,1063,1063,1063,1063,1063,1063,1063,1065,1065,1068,1075],"ymouse":[473,473,474,474,468,468,467,467,467,467,467,461,447,437,343,288,236,195,161,119,112,110,110,110,110,110,110,110,110,110,108,105,102,93],"timestamp_mouse":[34,39,59,80,99,119,140,159,179,199,219,240,260,280,299,319,339,360,379,399,419,440,459,480,499,519,539,561,579,599,619,640,659,680],"xSR":741.5,"ySR":449.15000000000003,"xT1":424.9,"yT1":0,"xT2":1058.1,"yT2":0,"toosoon":0,"cond_shown":"Incongruent","ratio_trial":200,"L_num":7,"L_den":10,"R_num":8,"R_den":16,"correct_side":1,"subjID":"AndresFernandez28","gender":"0","school":"6","age":"13"},{"start_time":1551800707431,"click_time":1551800710143,"finger_time":1551800709423,"fix_duration":1165.1230392504503,"trial":31,"RT":1992,"MT":720,"sideResp":1,"stimulus":[],"xmouse":[779,779,779,779,779,779,779,779,779,779,779,779,779,779,779,779,779,779,779,779,779,779,779,779,779,779,779,779,779,779,779,779,779,779,779,779,779,779,779,779,779,779,779,779,779,779,779,779,779,779,779,779,779,779,779,779,779,779,779,779,779,779,779,779,779,779,779,779,779,779,779,779,779,779,779,779,779,779,779,779,779,779,779,779,779,778,777,775,772,772,772,772,772,772,772,771,771,771,771,777,780,783,789,794,805,809,811,815,815,817,817,817,814,802,795,783,773,757,740,693,672,652,637,613,604,596,591,586,583,568,558,545,539,533,526,523],"ymouse":[503,503,503,503,503,503,503,503,503,503,503,503,503,503,503,503,503,503,503,503,503,503,503,503,503,503,503,503,503,503,503,503,503,503,503,503,503,503,503,503,503,503,503,503,503,503,503,503,503,503,503,503,503,503,503,503,503,503,503,503,503,503,503,503,503,503,503,503,503,503,503,503,503,503,503,503,503,503,503,503,503,503,503,503,503,503,502,500,498,496,496,496,496,496,496,496,493,489,472,431,407,380,353,325,280,258,240,217,210,189,184,178,172,156,148,137,127,115,107,90,82,78,75,74,74,74,74,74,74,74,74,71,70,70,70,69],"timestamp_mouse":[12,37,52,73,93,112,133,153,173,192,212,233,253,273,292,313,332,352,372,392,413,432,453,473,492,513,532,553,573,592,614,633,653,673,692,713,732,752,773,792,813,832,853,872,892,913,933,953,973,992,1012,1033,1052,1074,1092,1113,1132,1153,1172,1192,1213,1233,1252,1272,1292,1312,1333,1352,1372,1392,1413,1432,1453,1472,1493,1513,1532,1552,1572,1592,1612,1632,1652,1673,1692,1712,1733,1752,1773,1793,1812,1832,1852,1872,1892,1913,1933,1952,1973,1992,2012,2032,2053,2073,2092,2112,2132,2152,2173,2192,2213,2232,2252,2273,2292,2312,2332,2352,2372,2392,2413,2432,2452,2474,2492,2513,2532,2553,2572,2592,2613,2632,2654,2672,2692,2712],"xSR":741.5,"ySR":449.15000000000003,"xT1":424.9,"yT1":0,"xT2":1058.1,"yT2":0,"toosoon":0,"cond_shown":"Incongruent","ratio_trial":100,"L_num":6,"L_den":12,"R_num":3,"R_den":5,"correct_side":2,"subjID":"AndresFernandez28","gender":"0","school":"6","age":"13"},{"start_time":1551800712580,"click_time":1551800715244,"finger_time":1551800714484,"fix_duration":1356.6498372202984,"trial":32,"RT":1904,"MT":760,"sideResp":2,"stimulus":[],"xmouse":[790,790,790,790,790,790,790,790,790,790,790,790,790,790,790,790,790,791,791,792,792,792,792,792,792,792,792,792,792,792,792,792,792,792,792,792,792,792,792,792,792,792,792,792,792,792,792,792,792,792,792,792,793,793,793,793,793,793,793,793,793,793,793,793,793,793,793,793,793,793,793,793,793,793,793,793,793,793,793,793,793,793,793,793,793,793,793,793,793,793,793,793,793,793,793,793,793,794,795,797,799,800,801,803,804,807,808,814,821,828,837,853,876,889,900,910,921,944,955,962,970,982,996,1001,1006,1012,1016,1020,1024,1029,1036,1039,1045,1059],"ymouse":[494,494,494,494,494,494,494,494,494,494,494,494,494,494,494,494,494,494,494,494,494,494,494,494,494,494,494,494,494,494,494,494,494,494,494,494,494,494,494,494,494,494,494,494,494,494,494,494,494,494,494,494,489,488,487,486,485,485,485,485,485,485,485,485,485,485,485,485,485,485,485,485,485,485,485,485,485,485,485,485,485,485,485,485,485,485,485,485,485,483,481,475,464,460,455,447,439,407,388,366,346,327,282,266,256,246,237,210,191,170,150,116,80,61,49,40,34,30,30,30,30,30,31,31,32,33,34,34,35,37,37,39,41,44],"timestamp_mouse":[8,24,43,63,83,104,124,143,163,184,204,224,243,263,284,304,324,343,364,383,403,423,443,464,483,504,525,543,564,583,603,623,643,663,684,703,724,745,764,784,803,824,844,863,884,903,923,943,963,983,1003,1023,1043,1063,1084,1104,1123,1143,1163,1183,1203,1224,1243,1264,1284,1303,1324,1343,1363,1384,1403,1423,1444,1465,1483,1504,1523,1543,1563,1583,1603,1623,1643,1663,1683,1704,1723,1744,1763,1783,1803,1823,1843,1863,1883,1904,1923,1943,1963,1983,2003,2024,2043,2064,2083,2103,2124,2143,2163,2184,2204,2224,2244,2264,2283,2303,2323,2343,2363,2384,2403,2424,2443,2463,2483,2504,2524,2543,2564,2584,2603,2624,2643,2664],"xSR":741.5,"ySR":449.15000000000003,"xT1":424.9,"yT1":0,"xT2":1058.1,"yT2":0,"toosoon":0,"cond_shown":"Incongruent","ratio_trial":100,"L_num":13,"L_den":26,"R_num":12,"R_den":20,"correct_side":2,"subjID":"AndresFernandez28","gender":"0","school":"6","age":"13"},{"start_time":1551800717833,"click_time":1551800719884,"finger_time":1551800719384,"fix_duration":1246.9829247579203,"trial":33,"RT":1551,"MT":500,"sideResp":2,"stimulus":[],"xmouse":[808,808,808,808,808,808,808,807,807,804,802,801,799,797,796,796,796,796,796,796,796,796,796,796,796,796,796,796,796,796,796,796,796,796,796,796,796,796,796,796,796,796,796,796,794,794,794,794,794,794,794,794,794,794,794,794,794,794,794,794,794,794,794,794,794,794,794,794,794,794,794,794,794,794,794,794,800,808,820,863,881,904,922,938,959,968,975,979,981,986,988,991,994,1008,1019,1028,1033,1038,1042,1045,1047,1053,1064],"ymouse":[524,524,524,524,524,524,524,522,521,514,511,507,503,501,499,499,499,499,499,499,499,499,499,499,499,499,499,499,499,499,499,499,499,499,499,499,499,499,499,499,499,499,499,497,492,491,489,489,489,489,489,489,489,489,489,489,489,489,489,489,489,489,489,489,489,489,489,489,489,489,489,489,489,489,485,473,453,429,398,293,250,206,174,147,110,97,87,81,79,77,77,75,75,72,69,66,63,62,61,60,60,60,58],"timestamp_mouse":[11,36,51,71,90,110,131,150,170,190,210,231,251,271,291,310,331,350,370,390,410,430,450,471,490,510,530,550,571,591,612,631,651,671,691,710,730,750,770,790,810,830,850,870,890,910,931,950,970,990,1010,1030,1050,1070,1091,1110,1131,1150,1170,1190,1210,1230,1250,1270,1290,1311,1331,1350,1371,1390,1410,1431,1450,1471,1490,1510,1531,1551,1571,1590,1610,1632,1650,1671,1690,1711,1732,1750,1771,1790,1811,1830,1851,1872,1891,1910,1930,1951,1971,1990,2011,2030,2051],"xSR":741.5,"ySR":449.15000000000003,"xT1":424.9,"yT1":0,"xT2":1058.1,"yT2":0,"toosoon":0,"cond_shown":"Congruent","ratio_trial":200,"L_num":5,"L_den":10,"R_num":14,"R_den":20,"correct_side":2,"subjID":"AndresFernandez28","gender":"0","school":"6","age":"13"},{"start_time":1551800721923,"click_time":1551800723223,"finger_time":1551800722683,"fix_duration":818.040082770749,"trial":34,"RT":760,"MT":540,"sideResp":1,"stimulus":[],"xmouse":[788,788,788,788,788,788,788,788,788,788,788,788,788,788,788,788,788,788,788,788,788,788,788,788,788,788,788,788,788,788,788,788,788,788,788,785,777,759,734,714,692,686,678,668,659,635,626,615,603,574,556,540,528,519,513,494,489,488,488,488,488,488,487,487,487,487],"ymouse":[519,519,519,519,519,519,519,519,519,519,519,519,519,519,519,519,519,519,519,519,519,519,519,519,519,519,519,519,519,519,519,519,519,519,519,513,501,481,446,414,355,330,307,285,264,216,198,183,168,144,137,134,131,130,129,126,125,125,125,125,125,125,124,123,120,85],"timestamp_mouse":[12,39,40,60,80,100,120,141,160,180,201,220,240,260,280,300,320,340,360,380,400,420,440,460,480,501,520,540,560,580,600,620,640,660,681,700,721,740,760,780,800,821,840,860,881,900,921,941,960,981,1001,1022,1040,1060,1080,1101,1120,1140,1161,1180,1201,1220,1240,1261,1280,1300],"xSR":741.5,"ySR":449.15000000000003,"xT1":424.9,"yT1":0,"xT2":1058.1,"yT2":0,"toosoon":0,"cond_shown":"Congruent","ratio_trial":300,"L_num":18,"L_den":20,"R_num":9,"R_den":15,"correct_side":1,"subjID":"AndresFernandez28","gender":"0","school":"6","age":"13"},{"start_time":1551800724374,"click_time":1551800725805,"finger_time":1551800725263,"fix_duration":250,"trial":35,"RT":889,"MT":542,"sideResp":2,"stimulus":[],"xmouse":[804,804,804,804,804,804,804,804,804,804,804,804,804,804,804,804,804,804,804,804,804,804,804,804,804,804,804,804,804,804,804,804,804,804,804,804,805,806,808,811,814,821,833,837,840,843,845,853,858,864,875,885,917,931,946,960,975,1006,1017,1029,1039,1050,1059,1063,1067,1071,1077,1088,1092,1096,1098,1105],"ymouse":[484,484,484,484,484,484,484,484,484,484,484,484,484,484,484,484,484,484,484,484,484,484,484,484,484,484,484,484,484,484,484,484,484,484,484,484,484,484,483,480,477,470,456,451,445,441,436,424,417,408,395,383,346,328,309,294,277,246,232,218,207,195,182,177,171,165,155,133,123,114,105,85],"timestamp_mouse":[10,33,49,70,89,109,130,149,170,189,209,229,250,270,290,309,330,349,370,389,409,429,450,469,489,510,530,550,570,589,610,629,650,669,689,709,729,750,769,789,809,830,849,869,889,909,930,949,969,989,1009,1030,1049,1070,1089,1109,1130,1149,1169,1189,1210,1229,1249,1270,1289,1309,1329,1349,1369,1389,1409,1431],"xSR":741.5,"ySR":449.15000000000003,"xT1":424.9,"yT1":0,"xT2":1058.1,"yT2":0,"toosoon":0,"cond_shown":"Congruent","ratio_trial":300,"L_num":1,"L_den":20,"R_num":7,"R_den":20,"correct_side":2,"subjID":"AndresFernandez28","gender":"0","school":"6","age":"13"},{"start_time":1551800727629,"click_time":1551800729103,"finger_time":1551800728543,"fix_duration":745.689331946772,"trial":36,"RT":914,"MT":560,"sideResp":1,"stimulus":[],"xmouse":[811,811,811,811,811,811,811,811,811,811,811,811,811,811,811,811,811,811,811,811,811,811,811,811,811,811,811,811,811,811,811,811,811,811,811,810,810,810,810,808,807,805,804,802,794,787,780,770,766,755,754,753,750,745,737,731,723,717,708,682,670,654,636,604,591,583,575,569,560,549,543,537,528,513],"ymouse":[508,508,508,508,508,508,508,508,508,508,508,508,508,508,508,508,508,508,508,508,508,508,508,508,508,508,508,508,508,508,508,508,508,508,508,508,507,506,505,499,494,491,486,479,454,438,416,378,360,283,255,232,211,195,173,162,151,142,133,107,97,87,80,72,69,69,69,69,69,69,69,69,69,69],"timestamp_mouse":[15,42,54,74,94,114,134,154,175,194,214,235,255,275,294,314,334,354,375,394,414,435,454,476,495,514,534,554,576,594,614,635,654,674,694,714,735,754,775,794,815,835,854,874,894,914,936,954,975,994,1015,1035,1054,1075,1094,1114,1134,1155,1174,1194,1214,1234,1254,1276,1294,1314,1335,1354,1374,1395,1414,1434,1454,1474],"xSR":741.5,"ySR":449.15000000000003,"xT1":424.9,"yT1":0,"xT2":1058.1,"yT2":0,"toosoon":0,"cond_shown":"Incongruent","ratio_trial":300,"L_num":8,"L_den":10,"R_num":9,"R_den":18,"correct_side":1,"subjID":"AndresFernandez28","gender":"0","school":"6","age":"13"},{"start_time":1551800731407,"click_time":1551800732803,"finger_time":1551800732143,"fix_duration":1183.1489931509052,"trial":37,"RT":736,"MT":660,"sideResp":2,"stimulus":[],"xmouse":[771,771,771,771,771,771,771,771,771,771,771,771,771,771,771,771,771,771,771,771,771,771,771,771,771,771,771,771,771,771,771,771,771,771,771,771,770,767,761,757,754,752,751,750,749,747,747,747,747,747,747,747,746,746,746,746,746,746,746,746,753,762,779,796,816,884,930,973,1018,1067],"ymouse":[466,466,466,466,466,466,466,466,466,466,466,466,466,466,466,466,466,466,466,466,466,466,466,466,466,466,466,466,466,466,466,466,466,466,466,464,443,419,386,350,332,321,314,309,307,303,303,303,303,303,299,296,290,287,283,276,275,274,273,271,262,255,243,229,211,158,126,98,74,51],"timestamp_mouse":[31,36,56,76,97,116,136,157,177,197,216,236,257,276,296,316,336,357,376,396,417,436,457,477,496,516,537,557,578,596,616,637,656,677,696,716,736,757,777,798,816,836,857,876,896,916,936,956,977,997,1016,1036,1057,1076,1096,1116,1136,1156,1176,1196,1217,1236,1256,1276,1297,1316,1336,1357,1376,1396],"xSR":741.5,"ySR":449.15000000000003,"xT1":424.9,"yT1":0,"xT2":1058.1,"yT2":0,"toosoon":0,"cond_shown":"Congruent","ratio_trial":200,"L_num":16,"L_den":20,"R_num":12,"R_den":20,"correct_side":1,"subjID":"AndresFernandez28","gender":"0","school":"6","age":"13"},{"start_time":1551800734387,"click_time":1551800737303,"finger_time":1551800735803,"fix_duration":422.5235572317924,"trial":38,"RT":1416,"MT":1500,"sideResp":1,"stimulus":[],"xmouse":[802,802,802,802,802,802,802,802,802,802,802,802,802,802,802,802,802,802,802,802,802,802,802,802,802,802,802,802,802,802,802,802,802,802,802,802,800,800,800,800,800,800,800,800,800,800,800,800,800,800,800,800,800,800,800,800,800,800,800,800,800,800,800,800,800,800,800,800,800,800,801,804,806,808,810,811,816,819,822,825,836,840,845,852,862,873,897,905,913,919,922,926,927,931,936,942,970,984,994,999,999,999,999,999,999,999,999,999,999,999,999,999,999,991,979,910,867,832,803,763,751,727,725,724,722,719,700,677,646,612,580,562,559,553,548,545,545,545,545,545,544,541,537,532,525,520],"ymouse":[484,484,484,484,484,484,484,484,484,484,484,484,484,484,484,484,484,484,484,484,484,484,484,484,484,484,484,484,484,484,484,484,483,480,479,476,470,467,466,464,464,464,464,464,464,464,464,464,464,464,464,464,464,464,464,464,464,464,464,464,464,464,464,464,464,464,464,463,459,454,437,410,397,385,371,360,339,328,318,306,269,254,236,214,191,168,130,114,104,96,90,85,84,82,82,79,73,69,66,66,65,65,65,65,65,65,65,65,65,65,65,65,65,64,64,64,69,69,69,69,69,68,68,68,68,68,68,68,66,66,66,66,66,66,65,64,64,64,64,64,64,64,64,64,64,64],"timestamp_mouse":[16,36,57,76,96,116,136,156,176,197,216,236,256,277,296,316,337,357,377,396,417,437,456,476,497,516,536,556,576,596,617,636,656,676,696,716,737,756,776,797,816,836,856,877,896,916,936,957,976,996,1016,1036,1057,1076,1096,1117,1136,1156,1176,1196,1216,1236,1256,1277,1296,1316,1336,1357,1376,1397,1416,1436,1457,1476,1496,1516,1536,1556,1576,1597,1618,1636,1656,1677,1696,1716,1736,1758,1777,1796,1817,1836,1857,1877,1896,1916,1936,1956,1977,1996,2016,2036,2056,2077,2096,2117,2136,2156,2176,2196,2216,2236,2257,2277,2297,2318,2336,2357,2377,2397,2416,2436,2457,2476,2496,2516,2537,2556,2576,2596,2617,2637,2656,2676,2697,2716,2736,2756,2776,2796,2816,2836,2856,2876,2896,2916],"xSR":741.5,"ySR":449.15000000000003,"xT1":424.9,"yT1":0,"xT2":1058.1,"yT2":0,"toosoon":0,"cond_shown":"Incongruent","ratio_trial":200,"L_num":7,"L_den":10,"R_num":14,"R_den":28,"correct_side":1,"subjID":"AndresFernandez28","gender":"0","school":"6","age":"13"},{"start_time":1551800738771,"click_time":1551800740223,"finger_time":1551800739543,"fix_duration":566.3185501498054,"trial":39,"RT":772,"MT":680,"sideResp":2,"stimulus":[],"xmouse":[779,779,779,779,779,779,779,779,779,779,779,779,779,779,779,779,779,779,779,779,779,779,779,779,779,779,779,779,779,779,779,779,779,779,779,779,779,782,783,785,788,790,794,794,794,795,796,796,796,796,797,797,802,806,810,814,820,839,856,877,911,923,959,966,973,982,1008,1021,1031,1037,1046,1050,1081],"ymouse":[477,477,477,477,477,477,477,477,477,477,477,477,477,477,477,477,477,477,477,477,477,477,477,477,477,477,477,477,477,477,477,477,477,477,477,476,473,456,445,428,416,401,368,357,347,335,323,293,276,259,232,225,189,177,168,160,153,136,124,111,92,85,72,69,68,67,64,61,58,56,56,56,55],"timestamp_mouse":[12,32,52,72,93,112,132,152,172,192,212,232,252,273,292,312,332,352,372,392,413,432,452,472,492,512,532,552,572,593,612,632,652,672,692,712,733,752,772,793,812,832,853,872,892,913,932,953,972,992,1012,1033,1052,1072,1092,1112,1132,1153,1172,1192,1212,1232,1252,1272,1293,1312,1333,1352,1372,1392,1412,1432,1452],"xSR":741.5,"ySR":449.15000000000003,"xT1":424.9,"yT1":0,"xT2":1058.1,"yT2":0,"toosoon":0,"cond_shown":"Congruent","ratio_trial":200,"L_num":15,"L_den":25,"R_num":4,"R_den":10,"correct_side":1,"subjID":"AndresFernandez28","gender":"0","school":"6","age":"13"},{"start_time":1551800743915,"click_time":1551800746904,"finger_time":1551800746423,"fix_duration":989.4463512358991,"trial":40,"RT":2508,"MT":481,"sideResp":1,"stimulus":[],"xmouse":[783,783,783,783,783,783,783,783,783,783,783,783,783,783,783,783,783,783,783,783,783,783,783,783,783,783,783,783,783,783,783,783,783,783,783,783,783,783,783,783,783,783,783,783,783,783,783,783,783,783,783,783,783,783,783,783,783,783,783,783,783,783,783,783,783,783,783,783,783,783,783,783,783,783,783,783,783,783,783,783,783,783,783,783,783,783,783,783,783,783,783,783,783,783,783,783,783,783,783,783,783,783,783,783,783,783,783,783,783,783,783,783,783,783,783,783,783,783,783,783,783,783,782,780,767,735,722,709,697,665,643,624,610,603,600,595,587,573,555,546,532,527,524,524,522,520,517,513,511,510],"ymouse":[488,488,488,488,488,488,488,488,488,488,488,488,488,488,488,488,488,488,488,488,488,488,488,488,488,488,488,488,488,488,488,488,488,488,488,488,488,488,488,488,488,488,488,488,488,488,488,488,488,488,488,488,488,488,488,488,488,488,488,488,488,488,488,488,488,488,488,488,488,488,488,488,488,488,488,488,488,488,488,488,488,488,488,488,488,488,488,488,488,488,488,488,488,488,488,488,488,488,488,488,488,488,488,488,488,488,488,488,488,488,488,488,488,488,488,488,488,488,488,488,488,488,487,483,461,415,392,370,349,308,288,275,267,263,263,261,256,249,234,215,178,162,150,143,135,128,121,112,103,99],"timestamp_mouse":[9,35,48,68,89,109,128,149,168,188,209,229,249,268,288,308,329,349,369,389,408,428,448,469,488,508,529,549,569,588,608,628,649,668,689,708,729,749,768,788,808,828,848,868,888,908,928,948,968,989,1008,1028,1048,1069,1088,1108,1129,1148,1168,1188,1208,1228,1249,1268,1289,1310,1329,1349,1368,1388,1409,1429,1449,1468,1489,1509,1528,1548,1568,1588,1608,1629,1649,1669,1688,1708,1728,1749,1769,1788,1808,1828,1849,1869,1889,1909,1929,1949,1969,1988,2008,2028,2049,2069,2088,2108,2129,2148,2168,2188,2208,2229,2250,2268,2288,2308,2328,2349,2369,2388,2409,2429,2449,2469,2489,2508,2528,2548,2569,2589,2608,2629,2648,2669,2688,2708,2728,2749,2768,2789,2808,2829,2848,2869,2889,2908,2928,2949,2970,2988],"xSR":741.5,"ySR":449.15000000000003,"xT1":424.9,"yT1":0,"xT2":1058.1,"yT2":0,"toosoon":0,"cond_shown":"Incongruent","ratio_trial":200,"L_num":3,"L_den":10,"R_num":1,"R_den":2,"correct_side":2,"subjID":"AndresFernandez28","gender":"0","school":"6","age":"13"},{"start_time":1551800748902,"click_time":1551800749882,"finger_time":1551800749322,"fix_duration":1037.279044709009,"trial":41,"RT":420,"MT":560,"sideResp":1,"stimulus":[],"xmouse":[803,803,803,803,803,803,803,803,803,803,803,803,803,803,803,802,803,805,806,808,810,813,813,814,814,814,812,807,802,799,793,791,790,786,785,783,781,780,779,778,775,766,758,744,723,717,672,644,593,524],"ymouse":[496,496,496,496,496,496,496,496,496,496,496,496,496,496,496,495,487,481,474,465,453,433,428,422,415,406,399,391,384,379,366,361,355,349,347,341,336,335,333,330,325,311,296,276,245,235,174,147,114,78],"timestamp_mouse":[8,34,40,60,82,102,120,141,160,182,200,220,240,261,282,301,321,340,361,380,401,420,440,461,480,501,520,540,560,582,602,621,641,660,680,701,720,740,762,782,801,820,840,861,880,900,920,941,962,980],"xSR":741.5,"ySR":449.15000000000003,"xT1":424.9,"yT1":0,"xT2":1058.1,"yT2":0,"toosoon":0,"cond_shown":"Incongruent","ratio_trial":300,"L_num":13,"L_den":26,"R_num":12,"R_den":15,"correct_side":2,"subjID":"AndresFernandez28","gender":"0","school":"6","age":"13"},{"start_time":1551800753155,"click_time":1551800753604,"finger_time":1551800753242,"fix_duration":711.170125741979,"trial":42,"RT":87,"MT":362,"sideResp":2,"stimulus":[],"xmouse":[782,782,782,782,782,782,782,782,782,782,783,791,800,810,813,815,815,816,833,855,895,954,1089],"ymouse":[475,470,470,451,442,424,403,378,300,261,214,160,105,64,56,55,54,54,51,48,45,45,47],"timestamp_mouse":[9,39,47,68,87,107,129,148,168,187,208,227,247,267,287,309,327,347,367,388,408,428,449],"xSR":741.5,"ySR":449.15000000000003,"xT1":424.9,"yT1":0,"xT2":1058.1,"yT2":0,"toosoon":0,"cond_shown":"Incongruent","ratio_trial":300,"L_num":1,"L_den":2,"R_num":2,"R_den":10,"correct_side":1,"subjID":"AndresFernandez28","gender":"0","school":"6","age":"13"},{"start_time":1551800756154,"click_time":1551800757384,"finger_time":1551800756682,"fix_duration":250.3919114682064,"trial":43,"RT":528,"MT":702,"sideResp":1,"stimulus":[],"xmouse":[821,821,821,821,821,821,821,821,821,821,821,821,821,821,821,821,821,821,821,821,821,819,817,814,812,809,804,801,796,792,788,783,778,766,764,761,755,751,741,737,733,730,727,718,715,708,699,687,659,647,628,612,594,562,552,545,541,536,532,528,525,522],"ymouse":[486,486,486,486,486,486,486,486,486,486,486,486,486,486,486,486,486,486,486,486,482,480,474,464,458,450,440,432,410,396,382,367,349,305,286,267,249,232,205,197,191,187,184,179,178,176,171,166,150,139,115,95,75,39,29,26,26,26,26,26,26,26],"timestamp_mouse":[11,40,49,69,88,109,129,149,168,188,208,228,248,269,288,308,329,349,370,389,408,429,448,468,489,508,528,548,568,589,609,629,649,668,689,708,728,749,769,789,809,828,849,868,888,908,928,948,969,988,1009,1029,1049,1069,1089,1108,1128,1150,1168,1189,1210,1230],"xSR":741.5,"ySR":449.15000000000003,"xT1":424.9,"yT1":0,"xT2":1058.1,"yT2":0,"toosoon":0,"cond_shown":"Incongruent","ratio_trial":100,"L_num":10,"L_den":25,"R_num":8,"R_den":16,"correct_side":2,"subjID":"AndresFernandez28","gender":"0","school":"6","age":"13"},{"start_time":1551800758775,"click_time":1551800760023,"finger_time":1551800759262,"fix_duration":250,"trial":44,"RT":487,"MT":761,"sideResp":2,"stimulus":[],"xmouse":[778,778,778,778,778,778,778,778,778,778,778,778,778,778,778,778,778,778,778,781,785,787,795,799,801,804,806,809,810,810,810,810,810,810,810,810,810,810,810,810,808,802,793,793,793,794,799,806,810,811,812,813,815,822,831,845,866,926,961,999,1024,1049,1087],"ymouse":[509,509,509,509,509,509,509,509,509,509,509,509,509,509,509,509,509,509,509,507,500,497,468,455,440,424,411,392,387,384,383,383,383,383,383,383,383,383,382,379,374,355,314,290,264,240,221,194,187,184,182,181,179,176,172,166,158,135,121,104,92,81,62],"timestamp_mouse":[9,36,48,67,87,107,127,148,168,188,209,227,247,267,287,308,329,347,367,387,408,428,447,468,487,508,528,547,567,587,607,628,647,669,687,707,728,747,768,789,809,828,848,868,888,907,927,947,967,988,1008,1027,1048,1068,1087,1107,1129,1148,1167,1189,1208,1228,1248],"xSR":741.5,"ySR":449.15000000000003,"xT1":424.9,"yT1":0,"xT2":1058.1,"yT2":0,"toosoon":0,"cond_shown":"Incongruent","ratio_trial":100,"L_num":6,"L_den":10,"R_num":11,"R_den":22,"correct_side":1,"subjID":"AndresFernandez28","gender":"0","school":"6","age":"13"},{"start_time":1551800761071,"click_time":1551800762562,"finger_time":1551800761622,"fix_duration":328.34244823511204,"trial":45,"RT":551,"MT":940,"sideResp":1,"stimulus":[],"xmouse":[821,821,821,821,821,821,821,821,821,821,821,821,819,817,816,815,814,813,813,813,813,813,813,813,813,808,801,777,758,744,731,715,696,688,682,680,679,679,679,679,679,679,678,676,675,675,675,675,673,671,670,666,645,628,614,605,599,599,595,590,580,575,574,572,567,557,548,548,548,548,547,545,539,528,517],"ymouse":[511,511,511,511,511,511,511,510,508,507,505,504,502,502,502,502,502,502,502,502,502,502,502,502,502,497,485,439,404,376,351,322,278,260,247,241,238,236,232,227,221,215,204,199,197,195,195,195,192,190,188,183,165,156,147,144,142,142,141,136,127,116,82,67,54,42,36,36,36,36,36,36,36,36,37],"timestamp_mouse":[11,34,52,72,91,112,132,151,171,192,211,231,251,271,291,312,331,351,371,391,412,432,452,472,491,512,532,551,571,591,612,632,651,672,691,711,731,751,772,791,812,832,851,872,891,911,931,952,972,991,1011,1031,1051,1072,1091,1111,1131,1152,1172,1191,1211,1232,1251,1271,1291,1311,1332,1352,1371,1391,1412,1432,1451,1472,1491],"xSR":741.5,"ySR":449.15000000000003,"xT1":424.9,"yT1":0,"xT2":1058.1,"yT2":0,"toosoon":0,"cond_shown":"Congruent","ratio_trial":200,"L_num":9,"L_den":20,"R_num":4,"R_den":16,"correct_side":1,"subjID":"AndresFernandez28","gender":"0","school":"6","age":"13"},{"start_time":1551800764075,"click_time":1551800765923,"finger_time":1551800764843,"fix_duration":250,"trial":46,"RT":768,"MT":1080,"sideResp":2,"stimulus":[],"xmouse":[790,790,790,790,790,790,790,790,790,790,790,790,790,790,790,790,790,790,790,790,790,790,790,790,790,790,790,790,790,790,790,790,790,790,790,790,790,790,790,786,784,782,779,778,778,778,778,778,778,778,778,778,778,778,778,778,778,778,778,778,779,783,786,789,792,795,797,807,810,817,824,836,866,880,902,909,929,955,967,979,993,1005,1026,1032,1035,1037,1039,1041,1044,1047,1050,1053,1061],"ymouse":[496,496,496,496,496,496,496,496,496,496,496,496,496,496,496,496,496,496,496,496,496,496,496,496,496,496,496,496,496,496,496,496,496,496,496,494,485,452,432,413,396,383,369,368,367,367,365,353,343,330,314,300,274,264,258,253,247,246,245,243,241,232,226,222,216,210,206,196,193,189,185,179,167,161,154,152,144,132,125,117,106,99,88,85,82,82,81,81,80,80,80,80,79],"timestamp_mouse":[14,27,47,68,89,107,127,147,168,187,208,229,247,268,287,307,328,347,367,388,407,427,448,468,489,508,529,547,567,588,608,628,647,667,687,708,728,747,768,788,808,828,847,867,888,909,928,948,968,987,1007,1028,1047,1068,1088,1107,1128,1147,1167,1188,1209,1228,1247,1267,1287,1308,1328,1347,1368,1388,1408,1427,1448,1467,1487,1507,1528,1549,1568,1587,1607,1627,1647,1668,1687,1708,1728,1749,1768,1789,1807,1827,1847],"xSR":741.5,"ySR":449.15000000000003,"xT1":424.9,"yT1":0,"xT2":1058.1,"yT2":0,"toosoon":0,"cond_shown":"Incongruent","ratio_trial":200,"L_num":7,"L_den":10,"R_num":14,"R_den":28,"correct_side":1,"subjID":"AndresFernandez28","gender":"0","school":"6","age":"13"},{"start_time":1551800770795,"click_time":1551800772823,"finger_time":1551800771763,"fix_duration":729.1072933996516,"trial":47,"RT":968,"MT":1060,"sideResp":1,"stimulus":[],"xmouse":[787,787,787,787,787,787,787,787,787,787,787,787,787,787,787,787,787,787,787,787,787,787,787,787,787,787,787,787,787,787,787,787,787,788,788,788,788,789,789,789,789,789,789,789,789,789,789,789,789,789,789,789,789,790,791,793,794,794,794,793,791,783,778,770,761,752,732,720,716,707,698,675,661,644,623,608,584,576,572,570,569,564,560,554,550,547,545,545,545,544,544,544,543,543,543,543,543,541,540,536,531,524],"ymouse":[509,509,509,509,509,509,509,509,509,509,509,509,509,509,509,509,509,509,509,509,509,509,509,509,509,509,509,509,509,509,509,509,509,507,506,505,505,504,503,500,500,500,500,500,498,494,470,452,436,419,399,375,362,350,338,327,305,298,293,290,287,277,270,262,252,240,215,202,197,186,177,147,130,114,95,80,54,46,41,39,39,38,37,37,36,36,35,35,35,35,35,35,35,35,35,35,35,35,35,35,35,36],"timestamp_mouse":[10,40,47,67,87,108,128,147,167,187,208,228,248,268,289,307,327,347,368,388,408,428,448,467,487,507,528,548,567,587,608,628,647,668,687,708,728,749,767,788,807,828,847,867,887,908,928,947,968,987,1008,1027,1048,1067,1088,1108,1127,1148,1169,1189,1207,1229,1248,1267,1288,1308,1328,1348,1368,1387,1409,1428,1448,1468,1488,1508,1528,1547,1567,1587,1608,1629,1648,1668,1687,1709,1729,1748,1767,1788,1808,1828,1848,1867,1887,1907,1927,1947,1967,1988,2007,2028],"xSR":741.5,"ySR":449.15000000000003,"xT1":424.9,"yT1":0,"xT2":1058.1,"yT2":0,"toosoon":0,"cond_shown":"Incongruent","ratio_trial":200,"L_num":7,"L_den":10,"R_num":12,"R_den":24,"correct_side":1,"subjID":"AndresFernandez28","gender":"0","school":"6","age":"13"},{"start_time":1551800774772,"click_time":1551800776322,"finger_time":1551800775582,"fix_duration":988.3792071932506,"trial":48,"RT":810,"MT":740,"sideResp":2,"stimulus":[],"xmouse":[814,814,811,811,811,811,811,811,811,811,811,811,811,809,809,809,809,809,809,811,812,812,812,812,812,812,812,812,812,812,812,812,812,812,812,812,812,812,812,812,812,812,809,807,805,803,802,802,800,792,780,771,763,762,762,762,763,773,784,796,816,848,885,904,920,938,957,990,998,1006,1011,1011,1011,1012,1017,1030,1042,1059],"ymouse":[526,534,543,543,543,543,532,498,488,487,487,487,487,491,512,522,524,524,524,510,503,496,492,492,492,492,492,492,492,492,492,492,492,492,492,492,490,484,473,453,394,379,320,298,283,277,273,271,266,255,242,225,207,201,195,189,180,159,146,133,120,106,97,95,92,90,87,81,79,77,76,76,76,76,74,72,68,66],"timestamp_mouse":[11,35,50,70,90,110,130,151,170,191,212,230,251,270,290,311,330,351,371,390,410,430,451,470,490,511,531,550,571,590,612,630,650,672,691,711,731,751,770,792,810,831,850,871,890,910,930,950,971,991,1011,1030,1051,1070,1090,1110,1130,1150,1170,1190,1211,1230,1250,1271,1291,1310,1331,1350,1370,1392,1410,1431,1451,1470,1491,1510,1531,1550],"xSR":741.5,"ySR":449.15000000000003,"xT1":424.9,"yT1":0,"xT2":1058.1,"yT2":0,"toosoon":0,"cond_shown":"Congruent","ratio_trial":100,"L_num":7,"L_den":14,"R_num":15,"R_den":25,"correct_side":2,"subjID":"AndresFernandez28","gender":"0","school":"6","age":"13"},{"start_time":1551800777415,"click_time":1551800778962,"finger_time":1551800778123,"fix_duration":250,"trial":49,"RT":708,"MT":839,"sideResp":2,"stimulus":[],"xmouse":[770,770,770,771,771,771,771,771,771,771,771,771,771,771,771,771,771,771,771,771,771,771,771,771,772,772,772,772,772,772,772,772,772,772,772,772,772,772,772,772,772,772,772,772,774,778,783,787,792,795,804,808,813,819,830,861,872,884,898,910,955,983,1010,1030,1044,1053,1054,1054,1054,1054,1054,1054,1055,1055,1056,1056,1058,1059],"ymouse":[490,490,490,491,491,491,491,491,491,491,491,491,491,491,491,491,491,491,491,491,491,491,491,491,491,487,484,482,478,476,475,475,474,470,463,440,424,403,381,350,312,294,275,256,215,196,178,162,152,143,129,126,123,120,118,112,108,106,101,97,87,84,80,76,73,71,71,71,71,71,71,71,71,71,70,70,70,69],"timestamp_mouse":[13,35,48,68,87,107,128,147,168,188,207,227,248,267,287,307,327,348,367,389,408,428,448,467,487,508,528,547,569,587,607,627,647,669,687,708,727,748,769,788,808,827,848,867,889,908,927,947,967,987,1007,1028,1047,1068,1088,1107,1127,1147,1168,1188,1208,1228,1248,1268,1288,1307,1328,1347,1368,1387,1408,1428,1448,1467,1487,1507,1527,1547],"xSR":741.5,"ySR":449.15000000000003,"xT1":424.9,"yT1":0,"xT2":1058.1,"yT2":0,"toosoon":0,"cond_shown":"Incongruent","ratio_