[{"start_time":1551892835292,"click_time":1551892845539,"finger_time":1551892835299,"fix_duration":449.3083688624675,"trial":0,"RT":7,"MT":10240,"sideResp":2,"stimulus":"img/900/equaldotanddens/R/7_Ratio_900_L_9_R_10.png","xmouse":[785,785,785,785,785,785,785,785,785,785,785,785,785,785,785,785,785,785,785,785,785,785,785,785,785,785,785,785,785,785,785,785,785,785,785,785,785,785,785,785,785,785,785,785,785,785,785,785,785,785,785,785,785,785,785,785,785,785,785,785,785,785,785,785,785,785,785,785,785,785,785,785,785,785,785,785,785,785,785,785,785,785,785,785,785,785,785,785,785,785,785,785,785,785,785,785,785,785,785,785,785,785,785,785,785,785,785,785,785,785,785,785,785,785,785,785,785,785,785,785,785,785,785,785,785,785,785,785,785,785,785,785,785,785,785,785,785,785,785,785,785,785,785,785,785,785,785,785,785,785,785,785,785,785,785,785,785,785,785,785,785,785,785,785,785,785,785,785,785,785,785,785,785,785,785,785,785,785,785,785,785,785,785,785,785,785,785,785,785,785,785,785,785,785,785,785,785,786,787,787,787,788,789,789,789,789,789,789,789,789,789,789,789,789,789,789,789,789,789,789,789,789,789,789,789,789,789,789,789,789,789,789,789,789,789,789,789,789,789,789,789,789,789,789,789,789,789,789,789,789,789,789,789,789,789,789,789,789,789,789,789,789,789,789,789,789,789,789,789,789,789,789,789,789,789,789,789,789,789,789,789,789,789,789,789,789,789,789,789,789,789,789,789,789,789,789,789,789,789,789,789,789,789,789,789,789,789,789,789,789,789,789,789,789,789,789,789,789,789,789,789,789,789,789,789,789,789,789,789,789,789,789,789,789,789,789,789,789,789,789,789,789,789,789,789,789,789,789,789,789,789,789,789,789,789,789,789,789,789,789,789,789,789,789,789,789,789,789,789,789,789,789,789,789,789,789,789,789,789,789,789,789,789,789,789,789,789,789,789,789,789,789,789,789,789,789,789,789,789,789,789,789,789,789,789,789,789,789,789,789,789,789,789,789,789,789,789,789,789,789,789,789,789,789,789,789,789,789,789,789,789,789,789,789,789,789,789,789,789,789,789,789,789,789,789,789,789,789,789,789,789,789,789,789,789,789,789,789,789,789,789,789,789,789,789,789,789,789,789,789,789,789,789,789,789,789,789,789,789,789,789,789,789,789,789,789,789,798,838,846,860,866,869,876,891,919,1007,1023,1026,1031,1054,1170,1213,1229,1232,1232,1228,1228,1226,1223,1214,1169,1142],"ymouse":[538,538,538,538,538,538,538,538,538,538,538,538,538,538,538,538,538,538,538,538,538,538,538,538,538,538,538,538,538,538,538,538,538,538,538,538,538,538,538,538,538,538,538,538,538,538,538,538,538,538,538,538,538,538,538,538,538,538,538,538,538,538,538,538,538,538,538,538,538,538,538,538,538,538,538,538,538,538,538,538,538,538,538,538,538,538,538,538,538,538,538,538,538,538,538,538,538,538,538,538,538,538,538,538,538,538,538,538,538,538,538,538,538,538,538,538,538,538,538,538,538,538,538,538,538,538,538,538,538,538,538,538,538,538,538,538,538,538,538,538,538,538,538,538,538,538,538,538,538,538,538,538,538,538,538,538,538,538,538,538,538,538,538,538,538,538,538,538,538,538,538,538,538,538,538,538,538,538,538,538,538,538,538,538,538,538,538,538,538,546,553,562,569,577,588,595,607,612,614,616,617,619,620,622,622,622,622,622,622,622,622,622,622,622,622,622,622,622,622,622,622,622,622,622,622,622,622,622,622,622,622,622,622,622,622,622,622,622,622,622,622,622,622,622,622,622,622,622,622,622,622,622,622,622,622,622,622,622,622,622,622,622,622,622,622,622,622,622,622,622,622,622,622,622,622,622,622,622,622,622,622,622,622,622,622,622,622,622,622,622,622,622,622,622,622,622,622,622,622,622,622,622,622,622,622,622,622,622,622,622,622,622,622,622,622,622,622,622,622,622,622,622,622,622,622,622,622,622,622,622,622,622,622,622,622,622,622,622,622,622,622,622,622,622,622,622,622,622,622,622,622,622,622,622,622,622,622,622,622,622,622,622,622,622,622,622,622,622,622,622,622,622,622,622,622,622,622,622,622,622,622,622,622,622,622,622,622,622,622,622,622,622,622,622,622,622,622,622,622,622,622,622,622,622,622,622,622,622,622,622,622,622,622,622,622,622,622,622,622,622,622,622,622,622,622,622,622,622,622,622,622,622,622,622,622,622,622,622,622,622,622,622,622,622,622,622,622,622,622,622,622,622,622,622,622,622,622,622,622,622,622,622,622,622,622,622,622,622,622,622,622,622,622,622,622,622,622,622,622,622,622,622,622,622,622,610,472,399,325,311,274,233,223,201,145,68,0,0,0,5,28,59,51,39,25,17,14,14,14,14,14,14,14],"timestamp_mouse":[7,27,47,67,87,107,127,148,167,187,207,228,247,267,287,307,327,347,367,387,407,427,447,467,487,508,527,547,567,588,607,628,647,667,686,707,727,747,768,787,807,827,847,867,887,908,928,947,967,987,1007,1028,1047,1069,1087,1108,1127,1147,1167,1187,1207,1227,1247,1267,1287,1307,1327,1347,1367,1387,1407,1427,1447,1468,1487,1507,1527,1547,1567,1587,1607,1627,1647,1667,1687,1707,1728,1747,1767,1787,1807,1828,1847,1867,1887,1907,1927,1947,1967,1987,2007,2027,2047,2067,2087,2107,2128,2147,2167,2187,2208,2227,2248,2267,2287,2307,2327,2348,2367,2387,2407,2427,2447,2467,2487,2507,2528,2547,2567,2587,2608,2627,2647,2667,2688,2707,2727,2747,2767,2787,2807,2827,2847,2867,2887,2907,2927,2947,2967,2987,3007,3027,3047,3067,3088,3108,3127,3147,3167,3188,3206,3227,3247,3268,3288,3308,3328,3347,3367,3387,3407,3427,3447,3467,3487,3508,3527,3548,3567,3587,3607,3627,3648,3667,3687,3707,3727,3747,3767,3787,3807,3827,3847,3867,3887,3907,3926,3947,3967,3987,4008,4027,4047,4067,4088,4107,4127,4147,4167,4187,4206,4227,4247,4267,4287,4307,4327,4347,4367,4387,4407,4427,4447,4467,4487,4507,4527,4547,4568,4587,4607,4627,4647,4667,4687,4707,4727,4747,4767,4787,4807,4827,4847,4867,4887,4907,4927,4947,4967,4987,5007,5027,5047,5068,5087,5107,5127,5147,5167,5187,5208,5228,5247,5267,5288,5307,5328,5347,5367,5387,5408,5427,5447,5467,5487,5508,5527,5547,5568,5587,5607,5628,5647,5667,5687,5707,5728,5747,5767,5787,5807,5827,5847,5867,5888,5907,5927,5947,5967,5987,6007,6027,6047,6067,6087,6107,6127,6147,6167,6187,6207,6227,6247,6267,6287,6307,6327,6347,6367,6387,6407,6427,6447,6468,6487,6507,6527,6547,6567,6586,6607,6628,6647,6667,6687,6707,6727,6747,6767,6787,6807,6827,6848,6867,6887,6908,6927,6947,6967,6987,7007,7028,7047,7067,7087,7107,7127,7147,7167,7187,7208,7227,7247,7267,7287,7307,7327,7347,7367,7387,7407,7427,7447,7467,7487,7507,7527,7547,7567,7587,7607,7627,7647,7667,7687,7707,7727,7747,7767,7787,7807,7827,7847,7867,7887,7908,7927,7947,7967,7987,8007,8028,8047,8067,8087,8107,8127,8147,8167,8187,8207,8227,8247,8267,8287,8307,8328,8347,8367,8388,8408,8427,8447,8467,8487,8507,8527,8547,8567,8588,8607,8628,8647,8667,8687,8707,8728,8747,8767,8787,8807,8827,8847,8867,8887,8908,8927,8947,8967,8987,9007,9028,9047,9067,9087,9107,9127,9147,9167,9187,9208,9227,9247,9267,9287,9307,9327,9347,9367,9387,9407,9427,9447,9467,9487,9507,9527,9547,9567,9588,9607,9628,9647,9668,9687,9707,9727,9747,9767,9787,9807,9827,9848,9867,9887,9908,9927,9947,9967,9988,10008,10027,10047,10067,10088,10108,10127,10147,10167,10187,10206,10227,10247],"xSR":741.5,"ySR":494.65000000000003,"xT1":424.9,"yT1":0,"xT2":1058.1,"yT2":0,"toosoon":0,"cond_shown":"equaldotanddens","ratio_trial":900,"smaller_num":"9","larger_num":"10","correct_side":2,"subjID":"RobertoAndresSalhuanaLeiton18","gender":"0","age":"11","school":"6","test":{"fix_dur":[250,1500],"timestim":300,"targets_dim":[100,100],"targets_relative_coord":[0.3,0.7],"size_stim":[880,420],"start_dim":[100,100],"size_start":[300,300],"size_fix":60,"samplingrate":20,"img_types":["equaldotsize","equaldotanddens","randomdotsizeEA"],"ratios":[250,500,750,900],"rep_conds":9,"nTrials":120,"trials_to_rest":500,"Trials_order":[106,20,116,92,82,25,96,107,63,57,74,47,111,9,113,53,2,12,30,94,33,37,64,24,49,112,70,3,5,83,80,51,36,58,101,66,108,55,114,23,17,115,26,99,85,46,42,87,117,22,13,79,69,0,89,118,90,40,105,39,88,32,35,1,50,7,77,100,18,61,73,67,38,109,78,59,76,6,95,16,21,84,14,41,10,86,119,44,54,104,15,71,62,60,97,72,52,8,102,28,48,103,27,56,68,110,4,19,34,75,93,43,91,65,29,11,31,45,81,98],"cond_shown":["equaldotanddens","randomdotsizeEA","randomdotsizeEA","randomdotsizeEA","equaldotanddens","equaldotanddens","equaldotsize","randomdotsizeEA","equaldotsize","equaldotsize","randomdotsizeEA","randomdotsizeEA","equaldotsize","equaldotsize","randomdotsizeEA","randomdotsizeEA","randomdotsizeEA","equaldotsize","equaldotsize","equaldotanddens","equaldotsize","equaldotanddens","equaldotanddens","equaldotsize","equaldotanddens","equaldotanddens","equaldotanddens","equaldotsize","randomdotsizeEA","randomdotsizeEA","randomdotsizeEA","equaldotsize","equaldotsize","equaldotanddens","randomdotsizeEA","equaldotsize","equaldotsize","equaldotanddens","equaldotsize","randomdotsizeEA","randomdotsizeEA","equaldotanddens","randomdotsizeEA","equaldotsize","equaldotanddens","equaldotanddens","equaldotsize","equaldotsize","equaldotsize","equaldotanddens","equaldotanddens","equaldotanddens","equaldotsize","equaldotsize","randomdotsizeEA","equaldotanddens","equaldotsize","equaldotanddens","equaldotsize","equaldotsize","equaldotanddens","randomdotsizeEA","randomdotsizeEA","equaldotanddens","randomdotsizeEA","equaldotanddens","randomdotsizeEA","equaldotanddens","equaldotsize","equaldotanddens","equaldotanddens","equaldotanddens","randomdotsizeEA","equaldotanddens","equaldotsize","randomdotsizeEA","equaldotanddens","equaldotsize","randomdotsizeEA","equaldotanddens","equaldotsize","equaldotsize","randomdotsizeEA","randomdotsizeEA","equaldotanddens","randomdotsizeEA","randomdotsizeEA","randomdotsizeEA","equaldotsize","randomdotsizeEA","equaldotsize","randomdotsizeEA","randomdotsizeEA","equaldotsize","equaldotanddens","equaldotsize","equaldotanddens","randomdotsizeEA","equaldotsize","equaldotanddens","equaldotsize","equaldotanddens","equaldotsize","randomdotsizeEA","randomdotsizeEA","randomdotsizeEA","equaldotanddens","equaldotanddens","equaldotanddens","equaldotsize","equaldotsize","equaldotanddens","equaldotanddens","randomdotsizeEA","randomdotsizeEA","randomdotsizeEA","equaldotanddens","equaldotsize","equaldotsize","randomdotsizeEA"],"ratio_trial":[900,750,750,750,900,250,250,900,500,900,250,900,500,900,500,500,250,250,750,900,900,250,500,250,250,500,900,500,500,900,750,500,250,900,500,750,250,750,750,900,500,750,250,500,250,900,750,500,900,900,250,750,900,250,500,900,750,500,900,500,500,750,900,250,250,750,500,500,750,250,250,750,250,250,750,900,500,750,900,500,900,250,250,500,900,250,900,750,750,750,500,900,250,250,250,250,500,750,750,500,250,750,500,750,750,250,500,750,900,500,900,750,750,500,500,900,750,900,900,250],"smaller_num":["9","3","3","6","18","4","3","9","3","18","4","18","10","18","5","6","2","6","9","18","9","2","2","6","2","4","18","9","2","18","3","6","2","18","2","12","2","3","3","18","1","9","2","3","3","9","18","9","9","18","5","6","18","3","9","9","18","1","18","9","9","9","18","3","3","3","4","2","6","4","6","3","2","4","15","9","3","12","18","9","18","3","5","5","18","3","9","3","15","15","6","18","2","3","2","6","5","3","6","10","3","15","5","15","9","5","3","6","18","9","9","15","15","4","6","18","15","18","18","2"],"larger_num":["10","4","4","8","20","16","12","10","6","20","16","20","20","20","10","12","8","24","12","20","10","8","4","24","8","8","20","18","4","20","4","12","8","20","4","16","8","4","4","20","2","12","8","6","12","10","24","18","10","20","20","8","20","12","18","10","24","2","20","18","18","12","20","12","12","4","8","4","8","16","24","4","8","16","20","10","6","16","20","18","20","12","20","10","20","12","10","4","20","20","12","20","8","12","8","24","10","4","8","20","12","20","10","20","12","20","6","8","20","18","10","20","20","8","12","20","20","20","20","8"],"correct_side":[2,2,2,1,1,2,2,2,2,2,2,2,2,2,2,1,2,1,2,1,1,1,1,2,2,1,1,2,1,1,1,1,1,1,1,2,1,1,1,1,2,2,1,2,2,1,1,1,2,1,2,1,1,1,1,2,1,2,2,2,2,2,2,1,1,1,1,1,2,2,1,1,1,2,2,1,2,2,1,2,2,1,2,2,2,2,1,1,2,2,1,2,1,1,1,1,2,1,1,2,1,2,1,2,2,2,2,1,1,2,1,2,2,1,1,1,1,2,2,2],"img_shown":["img/900/equaldotanddens/R/7_Ratio_900_L_9_R_10.png","img/750/randomdotsizeEA/R/7_Ratio_750_L_3_R_4.png","img/750/randomdotsizeEA/R/7_Ratio_750_L_3_R_4.png","img/750/randomdotsizeEA/L/14_Ratio_750_L_8_R_6.png","img/900/equaldotanddens/L/10_Ratio_900_L_20_R_18.png","img/250/equaldotanddens/R/10_Ratio_250_L_4_R_16.png","img/250/equaldotsize/R/9_Ratio_250_L_3_R_12.png","img/900/randomdotsizeEA/R/3_Ratio_900_L_9_R_10.png","img/500/equaldotsize/R/2_Ratio_500_L_3_R_6.png","img/900/equaldotsize/R/13_Ratio_900_L_18_R_20.png","img/250/randomdotsizeEA/R/10_Ratio_250_L_4_R_16.png","img/900/randomdotsizeEA/R/14_Ratio_900_L_18_R_20.png","img/500/equaldotsize/R/3_Ratio_500_L_10_R_20.png","img/900/equaldotsize/R/12_Ratio_900_L_18_R_20.png","img/500/randomdotsizeEA/R/14_Ratio_500_L_5_R_10.png","img/500/randomdotsizeEA/L/11_Ratio_500_L_12_R_6.png","img/250/randomdotsizeEA/R/13_Ratio_250_L_2_R_8.png","img/250/equaldotsize/L/5_Ratio_250_L_24_R_6.png","img/750/equaldotsize/R/15_Ratio_750_L_9_R_12.png","img/900/equaldotanddens/L/2_Ratio_900_L_20_R_18.png","img/900/equaldotsize/L/1_Ratio_900_L_10_R_9.png","img/250/equaldotanddens/L/7_Ratio_250_L_8_R_2.png","img/500/equaldotanddens/L/10_Ratio_500_L_4_R_2.png","img/250/equaldotsize/R/6_Ratio_250_L_6_R_24.png","img/250/equaldotanddens/R/13_Ratio_250_L_2_R_8.png","img/500/equaldotanddens/L/8_Ratio_500_L_8_R_4.png","img/900/equaldotanddens/L/2_Ratio_900_L_20_R_18.png","img/500/equaldotsize/R/6_Ratio_500_L_9_R_18.png","img/500/randomdotsizeEA/L/10_Ratio_500_L_4_R_2.png","img/900/randomdotsizeEA/L/8_Ratio_900_L_20_R_18.png","img/750/randomdotsizeEA/L/8_Ratio_750_L_4_R_3.png","img/500/equaldotsize/L/13_Ratio_500_L_12_R_6.png","img/250/equaldotsize/L/7_Ratio_250_L_8_R_2.png","img/900/equaldotanddens/L/4_Ratio_900_L_20_R_18.png","img/500/randomdotsizeEA/L/10_Ratio_500_L_4_R_2.png","img/750/equaldotsize/R/11_Ratio_750_L_12_R_16.png","img/250/equaldotsize/L/1_Ratio_250_L_8_R_2.png","img/750/equaldotanddens/L/9_Ratio_750_L_4_R_3.png","img/750/equaldotsize/L/8_Ratio_750_L_4_R_3.png","img/900/randomdotsizeEA/L/2_Ratio_900_L_20_R_18.png","img/500/randomdotsizeEA/R/12_Ratio_500_L_1_R_2.png","img/750/equaldotanddens/R/15_Ratio_750_L_9_R_12.png","img/250/randomdotsizeEA/L/1_Ratio_250_L_8_R_2.png","img/500/equaldotsize/R/2_Ratio_500_L_3_R_6.png","img/250/equaldotanddens/R/11_Ratio_250_L_3_R_12.png","img/900/equaldotanddens/L/1_Ratio_900_L_10_R_9.png","img/750/equaldotsize/L/6_Ratio_750_L_24_R_18.png","img/500/equaldotsize/L/4_Ratio_500_L_18_R_9.png","img/900/equaldotsize/R/6_Ratio_900_L_9_R_10.png","img/900/equaldotanddens/L/2_Ratio_900_L_20_R_18.png","img/250/equaldotanddens/R/12_Ratio_250_L_5_R_20.png","img/750/equaldotanddens/L/13_Ratio_750_L_8_R_6.png","img/900/equaldotsize/L/10_Ratio_900_L_20_R_18.png","img/250/equaldotsize/L/14_Ratio_250_L_12_R_3.png","img/500/randomdotsizeEA/L/4_Ratio_500_L_18_R_9.png","img/900/equaldotanddens/R/15_Ratio_900_L_9_R_10.png","img/750/equaldotsize/L/6_Ratio_750_L_24_R_18.png","img/500/equaldotanddens/R/12_Ratio_500_L_1_R_2.png","img/900/equaldotsize/R/11_Ratio_900_L_18_R_20.png","img/500/equaldotsize/R/6_Ratio_500_L_9_R_18.png","img/500/equaldotanddens/R/6_Ratio_500_L_9_R_18.png","img/750/randomdotsizeEA/R/15_Ratio_750_L_9_R_12.png","img/900/randomdotsizeEA/R/11_Ratio_900_L_18_R_20.png","img/250/equaldotanddens/L/14_Ratio_250_L_12_R_3.png","img/250/randomdotsizeEA/L/15_Ratio_250_L_12_R_3.png","img/750/equaldotanddens/L/9_Ratio_750_L_4_R_3.png","img/500/randomdotsizeEA/L/8_Ratio_500_L_8_R_4.png","img/500/equaldotanddens/L/5_Ratio_500_L_4_R_2.png","img/750/equaldotsize/R/2_Ratio_750_L_6_R_8.png","img/250/equaldotanddens/R/10_Ratio_250_L_4_R_16.png","img/250/equaldotanddens/L/5_Ratio_250_L_24_R_6.png","img/750/equaldotanddens/L/8_Ratio_750_L_4_R_3.png","img/250/randomdotsizeEA/L/1_Ratio_250_L_8_R_2.png","img/250/equaldotanddens/R/10_Ratio_250_L_4_R_16.png","img/750/equaldotsize/R/5_Ratio_750_L_15_R_20.png","img/900/randomdotsizeEA/L/1_Ratio_900_L_10_R_9.png","img/500/equaldotanddens/R/2_Ratio_500_L_3_R_6.png","img/750/equaldotsize/R/11_Ratio_750_L_12_R_16.png","img/900/randomdotsizeEA/L/4_Ratio_900_L_20_R_18.png","img/500/equaldotanddens/R/6_Ratio_500_L_9_R_18.png","img/900/equaldotsize/R/11_Ratio_900_L_18_R_20.png","img/250/equaldotsize/L/14_Ratio_250_L_12_R_3.png","img/250/randomdotsizeEA/R/12_Ratio_250_L_5_R_20.png","img/500/randomdotsizeEA/R/14_Ratio_500_L_5_R_10.png","img/900/equaldotanddens/R/11_Ratio_900_L_18_R_20.png","img/250/randomdotsizeEA/R/11_Ratio_250_L_3_R_12.png","img/900/randomdotsizeEA/L/1_Ratio_900_L_10_R_9.png","img/750/randomdotsizeEA/L/8_Ratio_750_L_4_R_3.png","img/750/equaldotsize/R/4_Ratio_750_L_15_R_20.png","img/750/randomdotsizeEA/R/5_Ratio_750_L_15_R_20.png","img/500/equaldotsize/L/11_Ratio_500_L_12_R_6.png","img/900/randomdotsizeEA/R/9_Ratio_900_L_18_R_20.png","img/250/randomdotsizeEA/L/3_Ratio_250_L_8_R_2.png","img/250/equaldotsize/L/14_Ratio_250_L_12_R_3.png","img/250/equaldotanddens/L/3_Ratio_250_L_8_R_2.png","img/250/equaldotsize/L/5_Ratio_250_L_24_R_6.png","img/500/equaldotanddens/R/14_Ratio_500_L_5_R_10.png","img/750/randomdotsizeEA/L/8_Ratio_750_L_4_R_3.png","img/750/equaldotsize/L/13_Ratio_750_L_8_R_6.png","img/500/equaldotanddens/R/3_Ratio_500_L_10_R_20.png","img/250/equaldotsize/L/15_Ratio_250_L_12_R_3.png","img/750/equaldotanddens/R/5_Ratio_750_L_15_R_20.png","img/500/equaldotsize/L/7_Ratio_500_L_10_R_5.png","img/750/randomdotsizeEA/R/5_Ratio_750_L_15_R_20.png","img/750/randomdotsizeEA/R/15_Ratio_750_L_9_R_12.png","img/250/randomdotsizeEA/R/12_Ratio_250_L_5_R_20.png","img/500/equaldotanddens/R/2_Ratio_500_L_3_R_6.png","img/750/equaldotanddens/L/13_Ratio_750_L_8_R_6.png","img/900/equaldotanddens/L/2_Ratio_900_L_20_R_18.png","img/500/equaldotsize/R/6_Ratio_500_L_9_R_18.png","img/900/equaldotsize/L/1_Ratio_900_L_10_R_9.png","img/750/equaldotanddens/R/5_Ratio_750_L_15_R_20.png","img/750/equaldotanddens/R/5_Ratio_750_L_15_R_20.png","img/500/randomdotsizeEA/L/8_Ratio_500_L_8_R_4.png","img/500/randomdotsizeEA/L/13_Ratio_500_L_12_R_6.png","img/900/randomdotsizeEA/L/8_Ratio_900_L_20_R_18.png","img/750/equaldotanddens/L/1_Ratio_750_L_20_R_15.png","img/900/equaldotsize/R/12_Ratio_900_L_18_R_20.png","img/900/equaldotsize/R/12_Ratio_900_L_18_R_20.png","img/250/randomdotsizeEA/R/13_Ratio_250_L_2_R_8.png"],"Rat0":[["12_Ratio_0_L_9_R_0.png","13_Ratio_0_L_6_R_0.png","5_Ratio_0_L_2_R_0.png","6_Ratio_0_L_4_R_0.png","8_Ratio_0_L_6_R_0.png"],["1_Ratio_0_L_0_R_17.png","10_Ratio_0_L_0_R_22.png","11_Ratio_0_L_0_R_1.png","14_Ratio_0_L_0_R_24.png","15_Ratio_0_L_0_R_4.png","2_Ratio_0_L_0_R_5.png","3_Ratio_0_L_0_R_17.png","4_Ratio_0_L_0_R_7.png","7_Ratio_0_L_0_R_19.png","9_Ratio_0_L_0_R_15.png"]],"Rat250":[["1_Ratio_250_L_8_R_2.png","14_Ratio_250_L_12_R_3.png","15_Ratio_250_L_12_R_3.png","2_Ratio_250_L_16_R_4.png","3_Ratio_250_L_8_R_2.png","5_Ratio_250_L_24_R_6.png","7_Ratio_250_L_8_R_2.png"],["10_Ratio_250_L_4_R_16.png","11_Ratio_250_L_3_R_12.png","12_Ratio_250_L_5_R_20.png","13_Ratio_250_L_2_R_8.png","4_Ratio_250_L_3_R_12.png","6_Ratio_250_L_6_R_24.png","8_Ratio_250_L_1_R_4.png","9_Ratio_250_L_3_R_12.png"]],"Rat500":[["10_Ratio_500_L_4_R_2.png","11_Ratio_500_L_12_R_6.png","13_Ratio_500_L_12_R_6.png","4_Ratio_500_L_18_R_9.png","5_Ratio_500_L_4_R_2.png","7_Ratio_500_L_10_R_5.png","8_Ratio_500_L_8_R_4.png"],["1_Ratio_500_L_9_R_18.png","12_Ratio_500_L_1_R_2.png","14_Ratio_500_L_5_R_10.png","15_Ratio_500_L_1_R_2.png","2_Ratio_500_L_3_R_6.png","3_Ratio_500_L_10_R_20.png","6_Ratio_500_L_9_R_18.png","9_Ratio_500_L_2_R_4.png"]],"Rat750":[["1_Ratio_750_L_20_R_15.png","10_Ratio_750_L_4_R_3.png","13_Ratio_750_L_8_R_6.png","14_Ratio_750_L_8_R_6.png","6_Ratio_750_L_24_R_18.png","8_Ratio_750_L_4_R_3.png","9_Ratio_750_L_4_R_3.png"],["11_Ratio_750_L_12_R_16.png","12_Ratio_750_L_3_R_4.png","15_Ratio_750_L_9_R_12.png","2_Ratio_750_L_6_R_8.png","3_Ratio_750_L_15_R_20.png","4_Ratio_750_L_15_R_20.png","5_Ratio_750_L_15_R_20.png","7_Ratio_750_L_3_R_4.png"]],"Rat900":[["1_Ratio_900_L_10_R_9.png","10_Ratio_900_L_20_R_18.png","2_Ratio_900_L_20_R_18.png","4_Ratio_900_L_20_R_18.png","8_Ratio_900_L_20_R_18.png"],["11_Ratio_900_L_18_R_20.png","12_Ratio_900_L_18_R_20.png","13_Ratio_900_L_18_R_20.png","14_Ratio_900_L_18_R_20.png","15_Ratio_900_L_9_R_10.png","3_Ratio_900_L_9_R_10.png","5_Ratio_900_L_9_R_10.png","6_Ratio_900_L_9_R_10.png","7_Ratio_900_L_9_R_10.png","9_Ratio_900_L_18_R_20.png"]],"Rat1000":[["10_Ratio_1000_L_16_R_16.png","11_Ratio_1000_L_6_R_6.png","12_Ratio_1000_L_14_R_14.png","13_Ratio_1000_L_20_R_20.png","15_Ratio_1000_L_15_R_15.png","2_Ratio_1000_L_17_R_17.png","4_Ratio_1000_L_9_R_9.png","5_Ratio_1000_L_6_R_6.png","6_Ratio_1000_L_19_R_19.png","8_Ratio_1000_L_14_R_14.png","9_Ratio_1000_L_25_R_25.png"],["1_Ratio_1000_L_1_R_1.png","14_Ratio_1000_L_17_R_17.png","3_Ratio_1000_L_17_R_17.png","7_Ratio_1000_L_6_R_6.png"]]}},{"start_time":1551892848850,"click_time":1551892851179,"finger_time":1551892850519,"fix_duration":250,"trial":1,"RT":1669,"MT":660,"sideResp":2,"stimulus":"img/750/randomdotsizeEA/R/7_Ratio_750_L_3_R_4.png","xmouse":[778,778,778,778,778,778,778,778,778,778,778,778,778,778,778,778,778,778,778,778,778,778,778,778,778,778,778,778,778,778,778,778,778,778,778,778,778,778,778,778,778,778,778,778,778,778,778,778,778,778,778,778,778,778,778,778,778,778,778,778,778,778,778,778,778,778,778,778,778,778,778,778,778,778,778,778,778,778,778,778,778,778,780,902,983,1042,1080,1101,1122,1133,1148,1188,1204,1257,1262,1262,1258,1252,1240,1237,1236,1236,1236,1234,1233,1233,1233,1233,1231,1227,1218,1203,1192,1182,1175,1164,1153],"ymouse":[615,615,615,615,615,615,615,615,615,615,615,615,615,615,615,615,615,615,615,615,615,615,615,615,615,615,615,615,615,615,615,615,615,615,615,615,615,615,615,615,615,615,615,615,615,615,615,615,615,615,615,615,615,615,615,615,615,615,615,615,615,615,615,615,615,615,615,615,615,615,615,615,615,615,615,615,615,615,615,615,615,615,614,557,521,500,481,473,457,447,434,404,395,351,340,327,310,295,265,252,239,215,197,170,160,152,147,140,132,123,111,91,80,72,69,62,57],"timestamp_mouse":[12,32,49,69,89,109,129,149,169,190,209,229,249,268,290,309,329,349,369,389,409,429,449,470,489,509,530,549,569,589,609,629,649,669,689,708,730,749,770,789,809,829,849,869,890,909,929,949,969,989,1009,1030,1049,1069,1089,1110,1129,1149,1169,1190,1209,1230,1250,1269,1289,1309,1329,1349,1369,1389,1409,1429,1449,1469,1489,1509,1529,1549,1569,1589,1609,1629,1649,1669,1689,1709,1729,1749,1769,1790,1809,1829,1850,1869,1889,1909,1929,1950,1969,1989,2009,2029,2049,2069,2089,2109,2129,2149,2169,2190,2209,2230,2249,2269,2289,2309,2329],"xSR":741.5,"ySR":573.95,"xT1":424.9,"yT1":0,"xT2":1058.1,"yT2":0,"toosoon":0,"cond_shown":"randomdotsizeEA","ratio_trial":750,"smaller_num":"3","larger_num":"4","correct_side":2,"subjID":"RobertoAndresSalhuanaLeiton18","gender":"0","age":"11","school":"6"},{"start_time":1551892852985,"click_time":1551892854439,"finger_time":1551892853819,"fix_duration":564.6553397127817,"trial":2,"RT":834,"MT":620,"sideResp":2,"stimulus":"img/750/randomdotsizeEA/R/7_Ratio_750_L_3_R_4.png","xmouse":[764,764,764,764,764,764,764,764,764,764,764,764,764,764,764,764,764,764,764,764,764,764,764,764,764,764,764,764,764,764,764,764,764,764,769,775,785,790,797,806,814,835,845,857,875,889,921,942,968,991,1011,1050,1065,1077,1092,1101,1114,1116,1119,1121,1123,1128,1130,1132,1133,1134,1134,1129,1126,1126,1125,1124,1122],"ymouse":[637,637,637,637,637,637,637,637,637,637,637,637,637,637,637,637,637,637,637,637,637,637,637,637,637,637,637,637,637,637,637,637,637,637,638,632,622,615,607,596,587,566,556,544,522,506,469,451,431,413,395,363,348,334,316,304,278,263,246,228,215,195,182,171,157,146,126,117,109,108,107,102,98],"timestamp_mouse":[14,34,54,74,95,114,134,154,174,194,215,234,254,274,294,315,335,354,374,394,414,434,454,474,494,514,534,554,574,595,614,634,654,674,694,714,734,754,774,794,814,834,854,875,895,914,934,954,974,994,1014,1034,1054,1075,1094,1114,1134,1154,1174,1194,1214,1234,1254,1274,1294,1314,1334,1354,1374,1394,1415,1434,1454],"xSR":741.5,"ySR":573.95,"xT1":424.9,"yT1":0,"xT2":1058.1,"yT2":0,"toosoon":0,"cond_shown":"randomdotsizeEA","ratio_trial":750,"smaller_num":"3","larger_num":"4","correct_side":2,"subjID":"RobertoAndresSalhuanaLeiton18","gender":"0","age":"11","school":"6"},{"start_time":1551892855933,"click_time":1551892857119,"finger_time":1551892856619,"fix_duration":511.4211155816751,"trial":3,"RT":686,"MT":500,"sideResp":2,"stimulus":"img/750/randomdotsizeEA/L/14_Ratio_750_L_8_R_6.png","xmouse":[800,806,811,816,816,816,816,816,816,816,816,816,816,816,816,816,816,816,816,816,816,816,816,816,816,816,816,816,816,816,817,819,824,830,846,857,870,882,915,966,988,1009,1027,1042,1062,1072,1084,1094,1101,1116,1122,1127,1131,1135,1141,1141,1141,1141,1141,1141],"ymouse":[658,660,660,661,661,661,661,661,661,661,661,661,661,661,661,661,661,661,661,661,661,661,661,661,661,661,661,661,661,661,657,651,643,634,615,602,589,575,549,509,491,473,456,439,398,378,346,324,306,267,249,232,215,200,171,156,144,123,109,90],"timestamp_mouse":[9,26,46,66,87,107,126,146,166,186,206,226,246,266,287,306,326,346,366,386,406,426,446,467,486,506,526,546,566,586,606,626,646,666,686,706,726,746,766,786,806,827,846,866,886,906,926,946,966,986,1006,1026,1046,1066,1086,1106,1126,1146,1166,1186],"xSR":741.5,"ySR":573.95,"xT1":424.9,"yT1":0,"xT2":1058.1,"yT2":0,"toosoon":0,"cond_shown":"randomdotsizeEA","ratio_trial":750,"smaller_num":"6","larger_num":"8","correct_side":1,"subjID":"RobertoAndresSalhuanaLeiton18","gender":"0","age":"11","school":"6"},{"start_time":1551892859867,"click_time":1551892861459,"finger_time":1551892860819,"fix_duration":1447.9820877563582,"trial":4,"RT":952,"MT":640,"sideResp":2,"stimulus":"img/900/equaldotanddens/L/10_Ratio_900_L_20_R_18.png","xmouse":[772,772,772,772,772,772,772,772,772,772,772,772,772,772,772,772,772,772,772,772,772,772,772,772,772,772,772,772,772,772,772,772,772,772,772,772,772,772,772,772,770,763,758,758,758,758,770,820,863,933,955,995,1016,1024,1035,1047,1061,1101,1136,1180,1245,1267,1281,1281,1281,1279,1277,1278,1282,1283,1280,1278,1272,1266,1258,1249,1236,1194,1161,1138],"ymouse":[616,616,616,616,616,616,616,616,616,616,616,616,616,616,616,616,616,616,616,616,616,616,616,616,616,616,616,616,616,616,616,616,616,616,616,616,616,616,616,616,618,619,619,619,614,608,588,551,533,515,509,493,471,459,443,419,384,300,257,215,160,135,97,82,69,55,37,0,0,0,0,0,0,2,10,22,36,63,73,80],"timestamp_mouse":[12,32,53,72,92,112,132,151,172,192,212,232,252,272,293,312,332,352,372,393,412,432,452,472,492,512,532,552,572,592,612,632,652,672,692,712,732,752,772,792,812,832,852,872,893,912,932,952,972,992,1013,1032,1052,1072,1092,1112,1132,1152,1172,1192,1213,1232,1252,1272,1292,1312,1332,1352,1372,1393,1412,1432,1452,1472,1493,1512,1532,1551,1573,1592],"xSR":741.5,"ySR":573.95,"xT1":424.9,"yT1":0,"xT2":1058.1,"yT2":0,"toosoon":0,"cond_shown":"equaldotanddens","ratio_trial":900,"smaller_num":"18","larger_num":"20","correct_side":1,"subjID":"RobertoAndresSalhuanaLeiton18","gender":"0","age":"11","school":"6"},{"start_time":1551892863370,"click_time":1551892864619,"finger_time":1551892864099,"fix_duration":250,"trial":5,"RT":729,"MT":520,"sideResp":2,"stimulus":"img/250/equaldotanddens/R/10_Ratio_250_L_4_R_16.png","xmouse":[778,778,778,778,778,778,778,778,778,778,778,778,778,778,778,778,778,778,778,778,778,778,778,778,778,778,778,778,778,778,778,779,779,783,793,801,810,825,832,841,854,874,927,966,1011,1077,1117,1173,1196,1213,1226,1230,1231,1231,1231,1231,1231,1231,1231,1224,1207,1185,1109],"ymouse":[647,647,647,647,647,647,647,647,647,647,647,647,647,647,647,647,647,647,647,647,647,647,647,647,647,647,647,647,647,647,647,645,638,626,602,584,569,543,529,509,482,448,369,323,269,186,135,53,29,13,4,0,0,0,0,0,0,0,0,0,2,10,38],"timestamp_mouse":[18,29,49,69,89,109,129,149,169,189,209,230,249,269,289,309,329,350,369,389,409,429,449,469,489,509,529,549,569,589,609,629,649,669,689,709,729,749,769,789,809,830,849,870,889,909,930,949,969,989,1009,1029,1049,1069,1089,1109,1129,1149,1169,1189,1210,1230,1249],"xSR":741.5,"ySR":573.95,"xT1":424.9,"yT1":0,"xT2":1058.1,"yT2":0,"toosoon":0,"cond_shown":"equaldotanddens","ratio_trial":250,"smaller_num":"4","larger_num":"16","correct_side":2,"subjID":"RobertoAndresSalhuanaLeiton18","gender":"0","age":"11","school":"6"},{"start_time":1551892866605,"click_time":1551892868119,"finger_time":1551892867279,"fix_duration":344.39723088300366,"trial":6,"RT":674,"MT":840,"sideResp":2,"stimulus":"img/250/equaldotsize/R/9_Ratio_250_L_3_R_12.png","xmouse":[769,769,769,769,769,769,769,769,769,769,769,769,769,769,769,769,769,769,769,769,769,769,769,769,769,771,773,773,776,779,788,794,803,817,825,845,860,875,891,907,924,927,931,938,943,951,953,956,958,959,959,962,965,973,976,982,985,992,1001,1013,1041,1050,1053,1054,1054,1054,1054,1054,1054,1054,1054,1054,1054,1059,1066,1077],"ymouse":[661,661,661,661,661,661,661,661,661,661,661,661,661,661,661,661,661,661,661,661,661,661,661,660,658,651,648,644,640,634,615,606,589,568,552,517,497,476,456,438,422,417,409,396,387,369,361,350,340,329,302,287,272,254,247,239,236,225,209,192,151,135,128,127,127,127,127,127,127,127,127,127,126,113,102,82],"timestamp_mouse":[25,34,54,75,94,114,134,154,174,194,215,234,254,274,294,314,334,354,374,394,415,435,454,474,494,514,534,554,574,595,614,634,654,674,694,714,734,754,774,794,814,835,854,874,894,914,934,954,974,994,1014,1034,1054,1074,1094,1114,1134,1154,1174,1194,1214,1234,1254,1274,1294,1314,1334,1354,1374,1395,1414,1435,1454,1474,1494,1514],"xSR":741.5,"ySR":573.95,"xT1":424.9,"yT1":0,"xT2":1058.1,"yT2":0,"toosoon":0,"cond_shown":"equaldotsize","ratio_trial":250,"smaller_num":"3","larger_num":"12","correct_side":2,"subjID":"RobertoAndresSalhuanaLeiton18","gender":"0","age":"11","school":"6"},{"start_time":1551892869850,"click_time":1551892871079,"finger_time":1551892870219,"fix_duration":250,"trial":7,"RT":369,"MT":860,"sideResp":2,"stimulus":"img/900/randomdotsizeEA/R/3_Ratio_900_L_9_R_10.png","xmouse":[807,807,807,807,807,807,807,807,807,807,807,807,807,807,807,807,806,790,747,745,745,745,745,745,745,744,742,741,741,741,741,741,744,751,756,763,773,790,855,906,947,987,1004,1061,1106,1152,1191,1210,1218,1218,1218,1218,1218,1218,1217,1213,1208,1203,1192,1185,1173,1155],"ymouse":[618,618,618,618,618,618,618,618,618,618,618,618,618,618,618,618,618,602,558,556,556,556,556,556,556,553,540,529,513,506,500,491,484,463,450,435,418,399,355,334,315,287,269,214,181,149,122,106,96,96,96,96,95,89,84,79,73,69,61,57,51,44],"timestamp_mouse":[12,30,48,69,89,109,129,149,169,189,209,230,249,269,291,309,329,350,369,389,409,429,449,470,489,509,529,550,569,589,609,629,649,669,689,709,730,749,769,789,809,829,849,869,889,909,930,949,970,990,1009,1029,1049,1069,1089,1109,1129,1150,1169,1190,1210,1229],"xSR":741.5,"ySR":573.95,"xT1":424.9,"yT1":0,"xT2":1058.1,"yT2":0,"toosoon":0,"cond_shown":"randomdotsizeEA","ratio_trial":900,"smaller_num":"9","larger_num":"10","correct_side":2,"subjID":"RobertoAndresSalhuanaLeiton18","gender":"0","age":"11","school":"6"},{"start_time":1551892873182,"click_time":1551892874260,"finger_time":1551892873799,"fix_duration":762.9010030763459,"trial":8,"RT":617,"MT":461,"sideResp":2,"stimulus":"img/500/equaldotsize/R/2_Ratio_500_L_3_R_6.png","xmouse":[771,771,771,771,771,771,771,771,771,771,771,771,771,771,771,771,771,771,771,771,771,771,771,771,771,771,771,771,772,774,780,802,822,844,859,874,913,944,972,994,1008,1021,1025,1031,1034,1036,1037,1037,1037,1038,1042,1055,1057,1060],"ymouse":[591,591,591,591,591,591,591,591,591,591,591,591,591,591,591,591,591,591,591,591,591,591,591,591,591,591,591,591,591,587,573,525,490,451,416,359,236,173,123,88,69,48,37,24,19,17,17,17,17,17,18,29,32,35],"timestamp_mouse":[18,37,58,77,97,117,136,157,177,197,217,237,257,277,297,318,337,357,377,397,417,438,458,477,497,517,537,557,577,597,617,637,657,678,698,717,737,757,777,797,818,837,858,877,897,917,937,957,977,998,1017,1037,1057,1078],"xSR":741.5,"ySR":573.95,"xT1":424.9,"yT1":0,"xT2":1058.1,"yT2":0,"toosoon":0,"cond_shown":"equaldotsize","ratio_trial":500,"smaller_num":"3","larger_num":"6","correct_side":2,"subjID":"RobertoAndresSalhuanaLeiton18","gender":"0","age":"11","school":"6"},{"start_time":1551892876501,"click_time":1551892877579,"finger_time":1551892876919,"fix_duration":1400.9348387471048,"trial":9,"RT":418,"MT":660,"sideResp":2,"stimulus":"img/900/equaldotsize/R/13_Ratio_900_L_18_R_20.png","xmouse":[807,807,807,807,807,807,807,807,807,807,807,807,807,807,807,807,807,807,809,813,830,837,847,857,866,884,892,897,904,920,952,971,987,1003,1022,1059,1072,1079,1084,1084,1076,1068,1062,1060,1058,1058,1058,1058,1058,1058,1058,1058,1058,1059],"ymouse":[640,640,640,640,640,640,640,640,640,640,640,640,640,640,640,636,627,619,607,593,555,538,520,503,487,460,448,439,427,402,367,351,334,318,302,267,251,237,218,206,183,170,154,137,120,93,84,75,70,69,69,69,69,68],"timestamp_mouse":[29,37,58,78,98,118,138,158,178,199,219,238,259,278,298,318,339,358,378,398,418,438,458,478,498,518,538,559,578,598,618,638,659,678,698,718,738,758,778,798,819,838,858,878,898,918,938,958,978,998,1018,1038,1058,1078],"xSR":741.5,"ySR":573.95,"xT1":424.9,"yT1":0,"xT2":1058.1,"yT2":0,"toosoon":0,"cond_shown":"equaldotsize","ratio_trial":900,"smaller_num":"18","larger_num":"20","correct_side":2,"subjID":"RobertoAndresSalhuanaLeiton18","gender":"0","age":"11","school":"6"},{"start_time":1551892879438,"click_time":1551892880619,"finger_time":1551892880139,"fix_duration":718.5405657087126,"trial":10,"RT":701,"MT":480,"sideResp":1,"stimulus":"img/250/randomdotsizeEA/R/10_Ratio_250_L_4_R_16.png","xmouse":[767,767,767,767,767,767,767,767,767,767,767,767,767,767,767,767,767,767,767,767,767,767,767,767,767,767,767,767,767,767,767,767,766,763,754,748,742,737,731,707,674,646,615,605,595,593,592,590,587,578,577,577,577,576,565,557,549,545,540,519],"ymouse":[615,615,615,615,615,615,615,615,615,615,615,615,615,615,615,615,615,615,615,615,615,615,615,615,615,615,615,615,615,615,615,614,610,606,589,571,546,511,479,385,312,247,161,126,92,84,80,76,68,44,32,25,19,18,17,17,17,17,17,22],"timestamp_mouse":[7,27,41,61,81,101,121,141,161,181,201,221,241,261,281,301,321,341,361,381,401,421,441,461,481,502,521,541,561,581,601,621,641,661,681,701,721,742,761,781,801,821,841,861,881,901,922,942,961,981,1001,1021,1041,1061,1081,1101,1121,1141,1161,1181],"xSR":741.5,"ySR":573.95,"xT1":424.9,"yT1":0,"xT2":1058.1,"yT2":0,"toosoon":0,"cond_shown":"randomdotsizeEA","ratio_trial":250,"smaller_num":"4","larger_num":"16","correct_side":2,"subjID":"RobertoAndresSalhuanaLeiton18","gender":"0","age":"11","school":"6"},{"start_time":1551892882191,"click_time":1551892883199,"finger_time":1551892882259,"fix_duration":250,"trial":11,"RT":68,"MT":940,"sideResp":2,"stimulus":"img/900/randomdotsizeEA/R/14_Ratio_900_L_18_R_20.png","xmouse":[800,817,836,846,861,867,870,870,870,870,870,870,870,871,870,867,856,852,848,845,843,840,838,835,833,830,829,829,829,829,830,836,842,853,867,893,931,944,953,961,971,988,996,1003,1008,1015,1023,1032,1045,1058,1074],"ymouse":[605,597,587,583,578,578,578,578,578,578,578,578,578,580,583,588,595,598,599,601,602,604,605,606,608,611,611,611,611,605,599,574,557,535,512,474,415,388,362,331,298,244,222,202,184,150,109,90,74,60,50],"timestamp_mouse":[10,30,48,68,89,108,128,148,168,189,209,228,248,268,288,308,328,348,368,388,409,428,448,468,488,509,528,548,568,588,608,628,648,668,688,708,728,748,768,788,808,828,848,868,888,908,928,948,968,988,1008],"xSR":741.5,"ySR":573.95,"xT1":424.9,"yT1":0,"xT2":1058.1,"yT2":0,"toosoon":0,"cond_shown":"randomdotsizeEA","ratio_trial":900,"smaller_num":"18","larger_num":"20","correct_side":2,"subjID":"RobertoAndresSalhuanaLeiton18","gender":"0","age":"11","school":"6"},{"start_time":1551892884890,"click_time":1551892886039,"finger_time":1551892885419,"fix_duration":250,"trial":12,"RT":529,"MT":620,"sideResp":2,"stimulus":"img/500/equaldotsize/R/3_Ratio_500_L_10_R_20.png","xmouse":[770,770,770,770,770,770,770,770,770,770,770,770,770,770,770,770,770,770,770,772,776,786,791,795,800,806,819,825,835,838,846,856,860,865,870,879,909,932,952,965,977,984,988,990,991,993,1001,1005,1010,1015,1021,1029,1031,1034,1037,1042,1054,1060],"ymouse":[648,648,648,648,648,648,648,648,648,648,648,648,648,648,648,648,648,648,648,646,642,632,625,616,603,587,553,539,516,509,486,458,441,427,412,392,344,315,292,277,261,254,252,249,246,238,214,200,183,168,150,136,131,126,121,114,100,94],"timestamp_mouse":[10,29,49,69,89,110,129,149,169,190,211,229,249,269,289,310,329,349,369,389,409,429,449,469,489,509,529,549,569,590,609,629,649,669,689,709,729,749,769,790,809,829,849,869,889,909,929,949,969,991,1009,1029,1049,1069,1089,1109,1129,1149],"xSR":741.5,"ySR":573.95,"xT1":424.9,"yT1":0,"xT2":1058.1,"yT2":0,"toosoon":0,"cond_shown":"equaldotsize","ratio_trial":500,"smaller_num":"10","larger_num":"20","correct_side":2,"subjID":"RobertoAndresSalhuanaLeiton18","gender":"0","age":"11","school":"6"},{"start_time":1551892888010,"click_time":1551892890499,"finger_time":1551892890039,"fix_duration":250,"trial":13,"RT":2029,"MT":460,"sideResp":2,"stimulus":"img/900/equaldotsize/R/12_Ratio_900_L_18_R_20.png","xmouse":[748,748,748,748,748,748,748,748,748,748,748,748,748,748,748,748,748,748,748,748,748,748,748,748,748,748,748,748,748,748,748,748,748,748,748,748,748,748,748,748,748,748,748,748,748,748,748,748,748,748,748,748,748,748,748,748,748,748,748,748,748,748,748,748,748,748,748,748,748,748,748,748,748,748,748,748,748,748,748,748,748,748,748,748,748,748,748,748,748,748,748,748,748,748,748,748,748,748,758,768,830,859,878,892,909,1024,1093,1157,1194,1225,1228,1228,1228,1228,1228,1228,1228,1225,1212,1197,1182,1178,1172,1161,1146],"ymouse":[636,636,636,636,636,636,636,636,636,636,636,636,636,636,636,636,636,636,636,636,636,636,636,636,636,636,636,636,636,636,636,636,636,636,636,636,636,636,636,636,636,636,636,636,636,636,636,636,636,636,636,636,636,636,636,636,636,636,636,636,636,636,636,636,636,636,636,636,636,636,636,636,636,636,636,636,636,636,636,636,636,636,636,636,636,636,636,636,636,636,636,636,636,636,636,636,636,636,629,617,574,563,557,552,542,472,434,406,384,357,345,337,329,323,311,277,255,231,201,164,112,94,80,65,47],"timestamp_mouse":[17,35,49,69,89,109,129,149,169,189,209,229,249,269,289,309,329,349,370,389,409,429,449,469,489,510,529,549,569,589,609,629,649,669,690,709,729,749,769,789,809,829,849,869,889,909,929,949,969,989,1009,1029,1049,1069,1089,1109,1129,1149,1169,1189,1209,1229,1249,1269,1290,1309,1330,1349,1369,1389,1409,1429,1450,1469,1489,1509,1529,1549,1569,1589,1609,1629,1649,1669,1690,1709,1729,1749,1769,1790,1810,1829,1849,1870,1889,1909,1929,1949,1969,1990,2009,2029,2049,2069,2089,2109,2129,2149,2170,2190,2209,2229,2250,2269,2289,2310,2329,2349,2369,2389,2409,2429,2449,2470,2489],"xSR":741.5,"ySR":573.95,"xT1":424.9,"yT1":0,"xT2":1058.1,"yT2":0,"toosoon":0,"cond_shown":"equaldotsize","ratio_trial":900,"smaller_num":"18","larger_num":"20","correct_side":2,"subjID":"RobertoAndresSalhuanaLeiton18","gender":"0","age":"11","school":"6"},{"start_time":1551892891780,"click_time":1551892893620,"finger_time":1551892893060,"fix_duration":360.5441814195518,"trial":14,"RT":1280,"MT":560,"sideResp":2,"stimulus":"img/500/randomdotsizeEA/R/14_Ratio_500_L_5_R_10.png","xmouse":[805,805,805,805,805,805,805,805,805,805,805,805,805,805,805,805,805,805,805,805,805,805,805,805,805,805,805,805,805,805,805,805,805,805,805,805,805,805,805,805,805,805,805,805,806,807,808,808,808,808,808,808,808,808,808,808,808,808,815,823,831,835,841,850,864,895,958,988,1008,1021,1033,1056,1069,1080,1090,1101,1114,1119,1123,1123,1123,1124,1127,1130,1132,1133,1135,1136,1137,1138,1138,1138],"ymouse":[615,615,615,615,615,615,615,615,615,615,615,615,615,615,615,615,615,615,615,615,615,615,615,615,615,615,615,615,615,615,615,615,615,615,615,615,615,615,615,615,615,615,615,615,616,620,621,621,621,621,621,621,621,621,621,621,621,621,620,614,605,596,585,573,556,529,485,464,448,433,417,386,372,358,348,329,293,266,234,203,177,145,137,133,129,122,111,107,102,100,100,99],"timestamp_mouse":[20,39,59,79,99,119,139,159,179,200,219,239,259,280,299,319,339,359,379,399,418,439,459,479,499,519,539,559,579,598,619,639,659,679,698,719,739,759,780,799,819,839,860,880,900,920,940,960,980,1000,1020,1040,1060,1080,1100,1120,1139,1160,1180,1199,1221,1240,1261,1280,1299,1319,1340,1360,1379,1401,1420,1440,1460,1480,1500,1520,1541,1560,1580,1601,1620,1639,1660,1680,1700,1719,1740,1759,1780,1801,1820,1840],"xSR":741.5,"ySR":573.95,"xT1":424.9,"yT1":0,"xT2":1058.1,"yT2":0,"toosoon":0,"cond_shown":"randomdotsizeEA","ratio_trial":500,"smaller_num":"5","larger_num":"10","correct_side":2,"subjID":"RobertoAndresSalhuanaLeiton18","gender":"0","age":"11","school":"6"},{"start_time":1551892895863,"click_time":1551892896920,"finger_time":1551892896260,"fix_duration":963.1826184521858,"trial":15,"RT":397,"MT":660,"sideResp":1,"stimulus":"img/500/randomdotsizeEA/L/11_Ratio_500_L_12_R_6.png","xmouse":[799,799,799,799,799,799,799,799,799,799,799,799,799,799,800,803,807,817,823,831,839,853,867,876,883,888,890,894,894,894,894,893,890,885,879,870,858,826,806,783,756,722,644,621,597,576,556,525,517,513,512,510,502],"ymouse":[622,622,622,622,622,622,622,622,622,622,622,622,622,621,616,612,605,594,585,573,561,538,514,503,496,489,485,479,476,474,470,457,450,443,435,425,417,402,396,386,373,353,295,273,250,226,202,163,151,140,130,111,84],"timestamp_mouse":[17,37,57,77,98,116,137,157,177,197,216,236,256,276,297,317,337,356,377,397,417,437,457,477,497,517,537,556,577,597,616,638,656,676,697,717,736,757,777,797,817,837,857,876,897,917,937,957,977,998,1017,1036,1056],"xSR":741.5,"ySR":573.95,"xT1":424.9,"yT1":0,"xT2":1058.1,"yT2":0,"toosoon":0,"cond_shown":"randomdotsizeEA","ratio_trial":500,"smaller_num":"6","larger_num":"12","correct_side":1,"subjID":"RobertoAndresSalhuanaLeiton18","gender":"0","age":"11","school":"6"},{"start_time":1551892898571,"click_time":1551892900560,"finger_time":1551892899779,"fix_duration":250,"trial":16,"RT":1208,"MT":781,"sideResp":2,"stimulus":"img/250/randomdotsizeEA/R/13_Ratio_250_L_2_R_8.png","xmouse":[773,773,773,773,773,773,773,773,773,773,773,773,773,773,773,773,773,773,773,773,773,773,773,773,773,773,773,773,773,773,773,773,773,773,773,773,773,773,773,773,773,773,773,773,773,773,773,773,773,773,773,773,773,773,773,773,773,773,777,790,800,806,816,819,822,825,829,856,872,891,913,925,946,959,972,988,1032,1057,1081,1098,1106,1109,1116,1122,1129,1134,1139,1133,1126,1121,1118,1115,1113,1113,1112,1111,1109,1109,1109,1108],"ymouse":[643,643,643,643,643,643,643,643,643,643,643,643,643,643,643,643,643,643,643,643,643,643,643,643,643,643,643,643,643,643,643,643,643,643,643,643,643,643,643,643,643,643,643,643,643,643,643,643,643,643,643,643,643,643,643,643,643,643,627,595,573,558,539,535,531,526,518,464,436,408,379,357,321,302,284,264,223,214,209,207,206,205,199,193,186,178,170,151,139,129,119,109,108,108,108,108,108,108,106,98],"timestamp_mouse":[9,30,48,70,89,109,129,149,169,188,209,229,249,269,290,309,328,349,369,389,409,429,449,468,488,509,529,549,568,588,609,629,649,670,690,709,729,748,769,789,809,828,849,869,889,909,929,949,968,988,1008,1029,1049,1069,1089,1108,1128,1149,1169,1189,1208,1230,1249,1269,1289,1309,1328,1349,1368,1389,1408,1429,1449,1468,1489,1509,1530,1548,1569,1588,1608,1628,1648,1669,1690,1709,1729,1749,1768,1789,1808,1830,1848,1869,1889,1909,1930,1949,1969,1989],"xSR":741.5,"ySR":573.95,"xT1":424.9,"yT1":0,"xT2":1058.1,"yT2":0,"toosoon":0,"cond_shown":"randomdotsizeEA","ratio_trial":250,"smaller_num":"2","larger_num":"8","correct_side":2,"subjID":"RobertoAndresSalhuanaLeiton18","gender":"0","age":"11","school":"6"},{"start_time":1551892903708,"click_time":1551892905120,"finger_time":1551892904419,"fix_duration":586.8774779143492,"trial":17,"RT":711,"MT":701,"sideResp":1,"stimulus":"img/250/equaldotsize/L/5_Ratio_250_L_24_R_6.png","xmouse":[774,774,774,774,774,774,774,774,774,774,774,774,774,774,774,774,774,774,774,774,774,774,774,774,774,774,774,774,773,772,768,766,764,762,761,760,756,748,733,719,694,688,685,683,679,662,644,625,612,599,579,570,555,535,511,472,467,465,463,463,463,463,463,463,463,466,472,482,489,490,495],"ymouse":[623,623,623,623,623,623,623,623,623,623,623,623,623,623,623,623,623,623,623,623,623,625,625,625,625,625,625,625,621,616,604,600,597,594,589,573,555,530,495,463,407,394,385,379,371,350,334,318,308,296,266,254,242,227,212,182,172,164,156,155,149,145,143,140,139,134,130,125,117,113,89],"timestamp_mouse":[25,33,51,71,92,112,132,152,173,191,211,232,252,272,292,312,332,352,371,392,412,432,452,472,491,511,532,552,572,592,611,632,652,671,692,711,732,751,772,791,812,832,851,871,893,912,931,953,973,992,1012,1031,1052,1072,1092,1112,1131,1152,1172,1191,1211,1232,1252,1271,1292,1312,1331,1352,1371,1391,1412],"xSR":741.5,"ySR":573.95,"xT1":424.9,"yT1":0,"xT2":1058.1,"yT2":0,"toosoon":0,"cond_shown":"equaldotsize","ratio_trial":250,"smaller_num":"6","larger_num":"24","correct_side":1,"subjID":"RobertoAndresSalhuanaLeiton18","gender":"0","age":"11","school":"6"},{"start_time":1551892906526,"click_time":1551892907640,"finger_time":1551892907061,"fix_duration":605.0217658709919,"trial":18,"RT":535,"MT":579,"sideResp":2,"stimulus":"img/750/equaldotsize/R/15_Ratio_750_L_9_R_12.png","xmouse":[762,762,762,762,762,762,762,762,762,762,762,763,765,767,770,771,772,773,773,775,777,781,787,795,812,822,830,836,846,853,860,865,872,878,893,900,908,919,961,979,994,1005,1013,1020,1027,1029,1032,1033,1035,1038,1040,1043,1046,1054,1060,1068],"ymouse":[657,657,657,657,657,657,657,657,657,657,657,657,656,654,651,648,647,645,644,641,637,632,622,610,587,574,560,550,528,509,495,482,466,448,416,397,379,359,311,294,276,258,242,228,212,206,201,196,192,175,166,157,145,119,107,96],"timestamp_mouse":[15,36,54,73,95,114,134,154,173,194,214,234,254,274,293,314,334,353,373,393,413,433,453,473,494,514,535,555,574,594,614,633,653,674,694,714,734,754,774,793,814,833,853,874,893,915,933,955,973,994,1014,1034,1054,1074,1094,1113],"xSR":741.5,"ySR":573.95,"xT1":424.9,"yT1":0,"xT2":1058.1,"yT2":0,"toosoon":0,"cond_shown":"equaldotsize","ratio_trial":750,"smaller_num":"9","larger_num":"12","correct_side":2,"subjID":"RobertoAndresSalhuanaLeiton18","gender":"0","age":"11","school":"6"},{"start_time":1551892909332,"click_time":1551892910160,"finger_time":1551892909720,"fix_duration":711.1105580376504,"trial":19,"RT":388,"MT":440,"sideResp":2,"stimulus":"img/900/equaldotanddens/L/2_Ratio_900_L_20_R_18.png","xmouse":[763,763,763,763,763,763,763,763,763,763,763,763,763,763,763,763,763,763,763,760,758,756,756,755,755,754,754,754,754,755,757,761,770,786,846,900,958,1008,1045,1089,1100,1110],"ymouse":[605,605,605,605,605,605,605,605,605,605,605,605,605,605,605,605,604,600,590,561,551,542,537,529,526,523,521,521,520,517,515,510,503,491,436,376,309,250,198,122,107,93],"timestamp_mouse":[8,30,47,68,88,108,128,148,168,188,207,229,248,268,287,308,328,348,368,388,408,427,447,468,487,508,527,548,569,589,608,628,647,667,687,707,727,749,767,787,807,827],"xSR":741.5,"ySR":573.95,"xT1":424.9,"yT1":0,"xT2":1058.1,"yT2":0,"toosoon":0,"cond_shown":"equaldotanddens","ratio_trial":900,"smaller_num":"18","larger_num":"20","correct_side":1,"subjID":"RobertoAndresSalhuanaLeiton18","gender":"0","age":"11","school":"6"},{"start_time":1551892913452,"click_time":1551892914800,"finger_time":1551892914081,"fix_duration":250,"trial":20,"RT":629,"MT":719,"sideResp":1,"stimulus":"img/900/equaldotsize/L/1_Ratio_900_L_10_R_9.png","xmouse":[819,819,819,819,819,819,819,819,819,819,819,819,818,817,817,817,817,817,817,817,817,817,817,817,815,814,813,810,798,789,780,772,758,736,723,712,702,696,691,688,682,671,620,602,590,582,578,576,573,570,564,557,548,546,539,531,520,494,489,488,488,487,486,478,475,472,469,465],"ymouse":[625,625,625,625,625,625,625,625,625,625,625,625,625,624,622,621,620,619,619,619,619,619,619,619,617,615,612,608,594,586,577,569,553,526,509,492,478,467,450,443,434,423,378,363,347,335,327,322,317,316,313,308,293,285,276,266,254,223,209,194,183,174,167,143,132,119,108,98],"timestamp_mouse":[11,30,49,68,88,108,128,147,168,188,208,228,248,267,288,307,327,348,368,388,408,428,448,468,488,507,527,547,567,588,608,629,648,668,687,707,727,748,768,787,808,828,848,868,887,907,927,947,968,988,1008,1028,1048,1068,1088,1107,1127,1148,1167,1188,1207,1228,1247,1268,1288,1307,1327,1347],"xSR":741.5,"ySR":573.95,"xT1":424.9,"yT1":0,"xT2":1058.1,"yT2":0,"toosoon":0,"cond_shown":"equaldotsize","ratio_trial":900,"smaller_num":"9","larger_num":"10","correct_side":1,"subjID":"RobertoAndresSalhuanaLeiton18","gender":"0","age":"11","school":"6"},{"start_time":1551892916651,"click_time":1551892917920,"finger_time":1551892917321,"fix_duration":250,"trial":21,"RT":670,"MT":599,"sideResp":1,"stimulus":"img/250/equaldotanddens/L/7_Ratio_250_L_8_R_2.png","xmouse":[759,759,759,759,759,759,759,759,759,759,759,759,759,759,759,759,759,759,759,759,759,759,759,759,759,759,759,759,762,766,772,778,781,787,787,786,781,773,771,769,766,760,747,731,712,680,646,630,620,616,612,606,588,579,577,575,572,567,558,547,536,526,516,511],"ymouse":[630,630,630,630,630,630,630,630,630,630,630,630,630,630,630,630,630,630,630,630,630,630,630,630,630,630,630,624,617,609,598,589,581,554,537,520,504,478,472,465,458,447,424,398,368,328,288,267,245,239,234,228,213,201,194,187,180,173,157,144,131,120,110,99],"timestamp_mouse":[10,29,49,69,89,109,128,149,170,190,209,228,249,269,289,308,329,349,368,388,409,429,449,469,489,508,528,549,569,589,609,628,648,670,689,708,728,749,768,788,809,829,849,868,889,909,928,949,969,988,1008,1029,1049,1068,1089,1109,1129,1149,1169,1189,1209,1228,1248,1269],"xSR":741.5,"ySR":573.95,"xT1":424.9,"yT1":0,"xT2":1058.1,"yT2":0,"toosoon":0,"cond_shown":"equaldotanddens","ratio_trial":250,"smaller_num":"2","larger_num":"8","correct_side":1,"subjID":"RobertoAndresSalhuanaLeiton18","gender":"0","age":"11","school":"6"},{"start_time":1551892919789,"click_time":1551892921200,"finger_time":1551892920239,"fix_duration":788.4297407061622,"trial":22,"RT":450,"MT":961,"sideResp":1,"stimulus":"img/500/equaldotanddens/L/10_Ratio_500_L_4_R_2.png","xmouse":[754,754,754,754,754,754,754,754,754,754,754,754,754,754,756,759,771,777,782,787,806,816,824,834,840,844,846,846,846,846,846,846,845,844,844,845,847,847,845,838,792,742,691,634,569,472,428,411,404,398,394,384,378,375,373,373,376,378,381,385,393,397,401,412,428,475,483,486,487,491,491],"ymouse":[632,632,632,632,632,632,632,632,632,632,632,632,632,631,629,626,614,609,604,599,586,577,570,562,557,553,549,548,548,547,544,541,536,531,525,499,484,470,451,431,383,354,326,299,271,244,232,224,218,211,205,188,181,177,172,170,165,163,162,159,152,147,141,135,129,121,117,114,109,100,81],"timestamp_mouse":[13,31,51,71,90,111,131,151,171,191,211,231,251,270,292,310,331,350,370,390,411,430,450,471,491,510,530,551,570,591,611,630,650,672,691,711,731,750,770,791,811,830,851,871,891,911,930,951,972,990,1011,1031,1050,1070,1091,1110,1130,1150,1170,1190,1210,1230,1251,1272,1291,1311,1331,1350,1370,1391,1411],"xSR":741.5,"ySR":573.95,"xT1":424.9,"yT1":0,"xT2":1058.1,"yT2":0,"toosoon":0,"cond_shown":"equaldotanddens","ratio_trial":500,"smaller_num":"2","larger_num":"4","correct_side":1,"subjID":"RobertoAndresSalhuanaLeiton18","gender":"0","age":"11","school":"6"},{"start_time":1551892924178,"click_time":1551892925000,"finger_time":1551892924799,"fix_duration":677.0819520003539,"trial":23,"RT":621,"MT":201,"sideResp":2,"stimulus":"img/250/equaldotsize/R/6_Ratio_250_L_6_R_24.png","xmouse":[793,793,793,793,793,793,793,793,793,793,793,793,793,793,793,793,793,793,793,793,793,793,793,793,793,793,793,793,793,793,799,831,870,884,894,902,927,949,975,1007,1032,1065],"ymouse":[632,632,632,632,632,632,632,632,632,632,632,632,632,632,632,632,632,632,632,632,632,632,632,632,632,632,632,632,632,631,619,560,524,521,520,514,431,377,329,280,221,87],"timestamp_mouse":[7,33,42,62,81,102,122,142,161,181,203,222,242,261,282,302,323,342,362,383,401,422,442,462,482,502,522,542,562,581,601,621,641,662,681,703,722,741,762,781,802,822],"xSR":741.5,"ySR":573.95,"xT1":424.9,"yT1":0,"xT2":1058.1,"yT2":0,"toosoon":0,"cond_shown":"equaldotsize","ratio_trial":250,"smaller_num":"6","larger_num":"24","correct_side":2,"subjID":"RobertoAndresSalhuanaLeiton18","gender":"0","age":"11","school":"6"},{"start_time":1551892927371,"click_time":1551892940640,"finger_time":1551892939999,"fix_duration":1390.6740238651103,"trial":24,"RT":12628,"MT":641,"sideResp":2,"stimulus":"img/250/equaldotanddens/R/13_Ratio_250_L_2_R_8.png","xmouse":[794,794,794,794,794,794,794,794,794,794,794,794,794,794,794,794,794,794,794,794,794,794,794,794,794,794,794,794,794,794,794,794,794,794,794,794,794,794,794,794,794,794,794,794,794,794,794,794,794,794,794,794,794,794,794,794,794,794,794,794,794,794,794,794,794,794,794,794,794,794,794,794,794,794,794,794,794,794,794,794,794,794,794,794,794,794,794,794,794,794,794,794,794,794,794,794,794,794,794,794,794,794,794,794,794,794,794,794,794,794,794,794,794,794,794,794,794,794,794,794,794,794,794,794,794,794,794,794,794,794,794,794,794,794,794,794,794,794,794,794,794,794,794,794,794,794,794,794,794,794,794,794,794,794,794,794,794,794,794,794,794,794,794,794,794,794,794,794,794,794,794,794,794,794,794,794,794,794,794,794,794,794,794,794,794,794,794,794,794,794,794,794,794,794,794,794,794,794,794,794,794,794,794,794,794,794,794,794,794,794,794,794,794,794,794,794,794,794,794,794,794,794,794,794,794,794,794,794,794,794,794,794,794,794,794,794,794,794,794,794,794,794,794,794,794,794,794,794,794,794,794,794,794,794,794,794,794,794,794,794,794,794,794,794,794,794,794,794,794,794,794,794,794,794,794,794,794,794,794,794,794,794,794,794,794,794,794,794,794,794,794,794,794,794,794,794,794,794,794,794,794,794,794,794,794,794,794,794,794,794,794,794,794,794,794,794,794,794,794,794,794,794,794,794,794,794,794,794,794,794,794,794,794,794,794,794,794,794,794,794,794,794,794,794,794,794,794,794,794,794,794,794,794,794,794,794,794,794,794,794,794,794,794,794,794,794,794,794,794,794,794,794,794,794,794,794,794,794,794,794,794,794,794,794,794,794,794,794,794,794,794,794,794,794,794,794,794,794,794,794,794,794,794,794,794,794,794,794,794,794,794,794,794,794,794,794,794,794,794,794,794,794,794,794,794,794,794,794,794,794,794,794,794,794,794,794,794,794,794,794,794,794,794,794,794,794,794,794,794,794,794,794,794,794,794,794,794,794,794,794,794,794,794,794,794,794,794,794,794,794,794,794,794,794,794,794,794,794,794,794,794,794,794,794,794,794,794,794,794,794,794,794,794,794,794,794,794,794,794,794,794,794,794,794,794,794,794,794,794,794,794,794,794,794,794,794,794,794,794,794,794,794,794,794,794,794,794,794,794,794,794,794,794,794,794,794,794,794,794,794,794,794,794,794,794,794,794,794,794,794,794,794,794,794,794,794,794,794,794,794,794,794,794,794,794,794,794,794,794,794,794,794,794,794,794,794,794,794,794,794,794,794,794,794,794,794,794,794,794,794,794,794,794,794,794,794,794,794,794,794,794,794,794,794,794,794,794,794,794,794,794,794,794,794,794,794,794,794,794,794,794,794,794,794,794,794,794,795,797,804,816,826,851,866,881,886,894,897,904,918,942,982,994,1003,1010,1026,1050,1058,1058,1056,1055,1052,1050,1050,1050,1050,1050,1050,1050,1051,1052,1054,1057,1061],"ymouse":[649,649,649,649,649,649,649,649,649,649,649,649,649,649,649,649,649,649,649,649,649,649,649,649,649,649,649,649,649,649,649,649,649,649,649,649,649,649,649,649,649,649,649,649,649,649,649,649,649,649,649,649,649,649,649,649,649,649,649,649,649,649,649,649,649,649,649,649,649,649,649,649,649,649,649,649,649,649,649,649,649,649,649,649,649,649,649,649,649,649,649,649,649,649,649,649,649,649,649,649,649,649,649,649,649,649,649,649,649,649,649,649,649,649,649,649,649,649,649,649,649,649,649,649,649,649,649,649,649,649,649,649,649,649,649,649,649,649,649,649,649,649,649,649,649,649,649,649,649,649,649,649,649,649,649,649,649,649,649,649,649,649,649,649,649,649,649,649,649,649,649,649,649,649,649,649,649,649,649,649,649,649,649,649,649,649,649,649,649,649,649,649,649,649,649,649,649,649,649,649,649,649,649,649,649,649,649,649,649,649,649,649,649,649,649,649,649,649,649,649,649,649,649,649,649,649,649,649,649,649,649,649,649,649,649,649,649,649,649,649,649,649,649,649,649,649,649,649,649,649,649,649,649,649,649,649,649,649,649,649,649,649,649,649,649,649,649,649,649,649,649,649,649,649,649,649,649,649,649,649,649,649,649,649,649,649,649,649,649,649,649,649,649,649,649,649,649,649,649,649,649,649,649,649,649,649,649,649,649,649,649,649,649,649,649,649,649,649,649,649,649,649,649,649,649,649,649,649,649,649,649,649,649,649,649,649,649,649,649,649,649,649,649,649,649,649,649,649,649,649,649,649,649,649,649,649,649,649,649,649,649,649,649,649,649,649,649,649,649,649,649,649,649,649,649,649,649,649,649,649,649,649,649,649,649,649,649,649,649,649,649,649,649,649,649,649,649,649,649,649,649,649,649,649,649,649,649,649,649,649,649,649,649,649,649,649,649,649,649,649,649,649,649,649,649,649,649,649,649,649,649,649,649,649,649,649,649,649,649,649,649,649,649,649,649,649,649,649,649,649,649,649,649,649,649,649,649,649,649,649,649,649,649,649,649,649,649,649,649,649,649,649,649,649,649,649,649,649,649,649,649,649,649,649,649,649,649,649,649,649,649,649,649,649,649,649,649,649,649,649,649,649,649,649,649,649,649,649,649,649,649,649,649,649,649,649,649,649,649,649,649,649,649,649,649,649,649,649,649,649,649,649,649,649,649,649,649,649,649,649,649,649,649,649,649,649,649,649,649,649,649,649,649,649,649,649,649,649,649,649,649,649,649,649,649,649,649,649,649,649,649,649,649,649,649,649,649,649,649,649,649,649,649,649,649,649,649,649,649,649,649,649,649,649,649,649,649,649,649,649,649,649,649,649,649,649,649,649,649,649,649,649,649,649,649,649,649,649,649,649,649,649,649,649,649,649,649,648,645,629,600,569,491,459,427,418,403,395,383,362,337,300,282,258,229,190,145,129,127,127,125,122,117,115,113,113,113,113,108,103,95,88,75,69],"timestamp_mouse":[10,30,50,69,89,109,129,149,169,189,209,229,249,268,289,309,328,349,368,389,410,438,449,468,489,510,529,548,569,589,609,629,648,669,688,709,729,749,769,788,809,829,848,869,889,909,929,949,969,988,1009,1029,1049,1068,1089,1109,1128,1148,1169,1188,1209,1230,1249,1269,1288,1308,1329,1349,1369,1389,1409,1428,1449,1468,1488,1509,1529,1549,1568,1588,1608,1628,1649,1669,1689,1708,1728,1749,1769,1789,1809,1829,1849,1869,1889,1909,1929,1949,1968,1989,2010,2029,2048,2068,2088,2109,2129,2148,2169,2189,2209,2230,2248,2268,2290,2310,2329,2349,2369,2389,2408,2429,2449,2468,2488,2509,2529,2549,2569,2589,2609,2629,2648,2668,2689,2708,2730,2749,2769,2788,2809,2829,2848,2868,2889,2910,2929,2949,2969,2988,3009,3029,3049,3068,3088,3109,3129,3149,3169,3189,3209,3230,3249,3270,3289,3309,3328,3348,3369,3389,3409,3428,3449,3469,3489,3509,3528,3550,3569,3589,3609,3629,3649,3669,3689,3708,3729,3749,3769,3789,3809,3828,3848,3869,3890,3909,3929,3949,3969,3989,4009,4030,4049,4069,4089,4109,4129,4148,4169,4188,4208,4230,4249,4269,4288,4309,4329,4349,4369,4389,4409,4429,4448,4470,4489,4509,4529,4549,4569,4588,4608,4629,4648,4669,4689,4708,4728,4749,4769,4789,4809,4829,4849,4869,4889,4909,4930,4948,4969,4989,5009,5030,5049,5070,5089,5109,5129,5148,5168,5189,5208,5229,5249,5268,5288,5309,5329,5349,5369,5389,5409,5429,5448,5469,5489,5509,5530,5548,5569,5589,5609,5629,5649,5668,5690,5708,5729,5750,5769,5788,5809,5829,5849,5869,5889,5908,5929,5948,5969,5989,6009,6029,6048,6069,6089,6109,6129,6148,6169,6189,6209,6230,6249,6268,6290,6308,6328,6355,6368,6389,6408,6429,6448,6469,6489,6509,6528,6549,6568,6588,6609,6630,6649,6669,6689,6708,6729,6749,6769,6790,6809,6828,6849,6869,6889,6909,6928,6948,6970,6989,7008,7029,7049,7070,7089,7109,7129,7149,7169,7190,7208,7229,7249,7269,7289,7309,7328,7349,7369,7389,7408,7429,7450,7469,7489,7510,7528,7549,7569,7588,7608,7629,7649,7669,7688,7709,7730,7749,7769,7789,7809,7829,7848,7868,7889,7910,7929,7949,7968,7988,8009,8030,8049,8069,8089,8109,8129,8148,8168,8188,8209,8228,8250,8269,8289,8308,8328,8350,8369,8388,8408,8428,8449,8470,8488,8508,8529,8549,8569,8589,8608,8628,8649,8668,8688,8709,8730,8749,8769,8788,8810,8829,8848,8868,8889,8909,8929,8950,8969,8989,9008,9028,9049,9069,9089,9109,9129,9148,9169,9190,9209,9228,9250,9268,9289,9308,9329,9349,9368,9389,9408,9429,9449,9468,9489,9508,9530,9549,9569,9589,9608,9629,9650,9669,9688,9709,9729,9748,9768,9790,9809,9828,9848,9869,9888,9908,9929,9949,9969,9988,10009,10029,10050,10069,10088,10108,10130,10149,10169,10189,10208,10229,10249,10269,10288,10308,10329,10348,10369,10389,10409,10429,10448,10469,10489,10509,10529,10549,10569,10589,10608,10628,10649,10668,10690,10709,10729,10749,10768,10788,10809,10829,10849,10869,10888,10908,10929,10949,10969,10989,11008,11028,11049,11069,11089,11109,11129,11149,11168,11190,11209,11228,11249,11269,11290,11309,11328,11349,11368,11389,11409,11429,11449,11469,11488,11509,11529,11550,11569,11590,11609,11629,11649,11670,11688,11709,11730,11749,11769,11788,11809,11829,11849,11869,11888,11910,11929,11949,11969,11988,12008,12030,12049,12069,12089,12109,12129,12149,12168,12190,12209,12230,12250,12268,12289,12308,12329,12349,12368,12389,12408,12429,12449,12468,12489,12509,12529,12548,12568,12589,12609,12628,12648,12668,12688,12708,12728,12749,12769,12788,12809,12830,12849,12868,12889,12908,12928,12949,12969,12988,13009,13030,13049,13069,13088,13108,13129,13149,13169,13189,13209,13229,13248,13268],"xSR":741.5,"ySR":573.95,"xT1":424.9,"yT1":0,"xT2":1058.1,"yT2":0,"toosoon":0,"cond_shown":"equaldotanddens","ratio_trial":250,"smaller_num":"2","larger_num":"8","correct_side":2,"subjID":"RobertoAndresSalhuanaLeiton18","gender":"0","age":"11","school":"6"},{"start_time":1551892943142,"click_time":1551892943979,"finger_time":1551892943300,"fix_duration":1420.568601688146,"trial":25,"RT":158,"MT":679,"sideResp":1,"stimulus":"img/500/equaldotanddens/L/8_Ratio_500_L_8_R_4.png","xmouse":[766,766,766,766,766,766,774,801,815,815,815,815,815,815,815,815,815,815,804,786,771,752,669,604,529,420,391,350,352,365,379,395,414,429,430,430,430,430,435,435,433,431],"ymouse":[605,605,605,605,605,605,597,573,557,557,557,557,557,557,557,557,557,557,551,544,540,532,507,488,470,423,410,383,360,344,329,316,307,293,280,256,210,175,117,107,101,95],"timestamp_mouse":[17,37,57,78,98,118,137,158,178,198,219,238,259,277,297,318,338,359,377,397,418,437,459,477,498,518,537,558,577,597,617,637,657,677,698,718,738,758,778,797,817,837],"xSR":741.5,"ySR":573.95,"xT1":424.9,"yT1":0,"xT2":1058.1,"yT2":0,"toosoon":0,"cond_shown":"equaldotanddens","ratio_trial":500,"smaller_num":"4","larger_num":"8","correct_side":1,"subjID":"RobertoAndresSalhuanaLeiton18","gender":"0","age":"11","school":"6"},{"start_time":1551892946654,"click_time":1551892947319,"finger_time":1551892946939,"fix_duration":873.2601177317365,"trial":26,"RT":285,"MT":380,"sideResp":2,"stimulus":"img/900/equaldotanddens/L/2_Ratio_900_L_20_R_18.png","xmouse":[805,805,805,805,805,805,805,806,807,807,807,807,807,807,806,802,800,797,791,789,788,788,788,790,795,801,813,832,901,944,992,1038,1086,1123],"ymouse":[604,604,604,604,604,604,604,602,599,597,593,590,586,577,570,558,546,532,513,506,497,495,486,476,466,452,432,405,320,276,235,192,136,88],"timestamp_mouse":[11,30,46,66,86,106,125,145,165,186,205,226,246,266,285,305,326,345,365,386,406,425,445,465,485,506,526,546,566,586,605,625,646,665],"xSR":741.5,"ySR":573.95,"xT1":424.9,"yT1":0,"xT2":1058.1,"yT2":0,"toosoon":0,"cond_shown":"equaldotanddens","ratio_trial":900,"smaller_num":"18","larger_num":"20","correct_side":1,"subjID":"RobertoAndresSalhuanaLeiton18","gender":"0","age":"11","school":"6"},{"start_time":1551892949092,"click_time":1551892950179,"finger_time":1551892949399,"fix_duration":872.9656847550269,"trial":27,"RT":307,"MT":780,"sideResp":2,"stimulus":"img/500/equaldotsize/R/6_Ratio_500_L_9_R_18.png","xmouse":[772,772,772,772,771,770,770,770,770,770,770,770,766,757,745,734,705,692,684,678,673,669,668,667,667,668,675,684,707,750,831,946,1008,1076,1121,1149,1183,1188,1190,1190,1182,1177,1177,1177,1177,1177,1177,1177,1177,1177,1177,1177,1177,1171,1158],"ymouse":[630,630,630,628,623,621,621,621,621,621,621,621,614,602,586,569,521,495,473,455,431,410,402,394,388,384,380,379,377,370,359,323,297,274,259,252,238,232,217,193,139,79,64,59,58,58,58,57,53,51,50,49,49,48,48],"timestamp_mouse":[8,28,47,67,87,109,128,147,168,189,208,228,247,269,288,307,327,347,368,387,408,428,447,468,487,508,528,547,568,588,608,627,647,667,687,707,727,747,767,787,808,828,848,868,888,908,928,947,967,988,1008,1028,1047,1067,1087],"xSR":741.5,"ySR":573.95,"xT1":424.9,"yT1":0,"xT2":1058.1,"yT2":0,"toosoon":0,"cond_shown":"equaldotsize","ratio_trial":500,"smaller_num":"9","larger_num":"18","correct_side":2,"subjID":"RobertoAndresSalhuanaLeiton18","gender":"0","age":"11","school":"6"},{"start_time":1551892952052,"click_time":1551892953081,"finger_time":1551892952659,"fix_duration":831.5921808369693,"trial":28,"RT":607,"MT":422,"sideResp":1,"stimulus":"img/500/randomdotsizeEA/L/10_Ratio_500_L_4_R_2.png","xmouse":[804,804,804,804,804,804,804,804,804,804,804,804,804,805,805,805,805,805,805,805,805,805,805,805,805,805,803,801,792,783,770,756,743,741,743,747,747,747,747,747,745,736,710,696,682,664,645,625,572,545,527,512],"ymouse":[627,627,627,627,627,624,623,622,622,622,622,622,622,617,615,614,614,613,613,613,613,613,613,613,613,613,608,607,594,581,562,537,505,478,469,462,462,462,454,446,432,412,382,364,344,322,295,263,179,143,118,96],"timestamp_mouse":[11,28,47,69,88,108,127,147,167,187,209,228,247,268,287,307,328,348,368,387,407,428,448,467,487,509,527,548,568,588,607,628,648,668,688,707,727,748,767,788,807,828,849,867,888,908,928,947,968,988,1009,1029],"xSR":741.5,"ySR":573.95,"xT1":424.9,"yT1":0,"xT2":1058.1,"yT2":0,"toosoon":0,"cond_shown":"randomdotsizeEA","ratio_trial":500,"smaller_num":"2","larger_num":"4","correct_side":1,"subjID":"RobertoAndresSalhuanaLeiton18","gender":"0","age":"11","school":"6"},{"start_time":1551892955456,"click_time":1551892956381,"finger_time":1551892955641,"fix_duration":1334.3887887958306,"trial":29,"RT":185,"MT":740,"sideResp":2,"stimulus":"img/900/randomdotsizeEA/L/8_Ratio_900_L_20_R_18.png","xmouse":[772,772,773,773,774,774,774,775,778,785,792,799,802,803,803,803,803,803,792,792,792,793,797,803,807,813,823,839,883,910,936,967,985,1005,1008,1010,1012,1014,1021,1027,1034,1046,1055,1056,1057,1057,1060],"ymouse":[606,606,607,607,607,606,602,598,584,572,561,549,543,535,533,531,531,528,524,524,524,521,518,507,495,481,460,439,393,372,352,325,306,275,264,257,251,243,219,201,178,142,105,91,78,68,59],"timestamp_mouse":[7,25,44,64,84,103,124,143,164,185,204,224,244,265,284,304,324,345,364,384,404,425,444,464,484,504,523,544,564,584,604,624,644,664,683,704,724,744,764,785,804,824,845,864,883,904,924],"xSR":741.5,"ySR":573.95,"xT1":424.9,"yT1":0,"xT2":1058.1,"yT2":0,"toosoon":0,"cond_shown":"randomdotsizeEA","ratio_trial":900,"smaller_num":"18","larger_num":"20","correct_side":1,"subjID":"RobertoAndresSalhuanaLeiton18","gender":"0","age":"11","school":"6"},{"start_time":1551892958949,"click_time":1551892959940,"finger_time":1551892959199,"fix_duration":367.4539296671072,"trial":30,"RT":250,"MT":741,"sideResp":1,"stimulus":"img/750/randomdotsizeEA/L/8_Ratio_750_L_4_R_3.png","xmouse":[766,766,766,766,766,766,766,765,758,753,750,745,739,729,726,723,721,721,719,719,719,719,719,719,719,719,719,719,718,718,718,718,716,704,694,684,676,676,675,672,667,657,638,560,523,499,483,468,443,427],"ymouse":[640,640,639,639,639,639,639,637,624,618,615,612,608,595,587,579,578,578,578,578,578,578,578,578,578,578,578,578,576,568,556,536,503,400,360,330,302,298,293,288,276,258,236,183,162,149,139,127,108,96],"timestamp_mouse":[11,32,52,71,91,111,131,151,171,191,210,231,250,271,292,312,331,351,371,391,412,431,452,471,491,511,532,550,572,591,611,631,651,671,691,711,731,751,771,791,810,830,851,871,891,912,931,951,971,990],"xSR":741.5,"ySR":573.95,"xT1":424.9,"yT1":0,"xT2":1058.1,"yT2":0,"toosoon":0,"cond_shown":"randomdotsizeEA","ratio_trial":750,"smaller_num":"3","larger_num":"4","correct_side":1,"subjID":"RobertoAndresSalhuanaLeiton18","gender":"0","age":"11","school":"6"},{"start_time":1551892962926,"click_time":1551892964180,"finger_time":1551892963500,"fix_duration":684.7189977299411,"trial":31,"RT":574,"MT":680,"sideResp":1,"stimulus":"img/500/equaldotsize/L/13_Ratio_500_L_12_R_6.png","xmouse":[786,786,786,786,786,786,786,786,786,786,786,786,786,786,786,786,786,786,786,786,786,786,786,786,786,785,780,775,769,755,747,737,728,721,704,696,687,671,664,652,647,640,627,606,553,528,508,493,481,440,414,396,394,394,394,395,398,400,404,409,415,422,429],"ymouse":[619,619,619,619,619,619,619,619,619,619,619,619,619,619,619,619,619,618,616,608,604,600,596,595,592,590,584,578,570,548,536,522,506,490,450,429,405,368,343,305,289,274,255,232,183,165,151,139,131,117,109,105,104,104,104,104,103,102,100,97,94,90,85],"timestamp_mouse":[24,34,54,74,94,114,133,154,174,194,214,234,253,274,295,315,334,355,374,394,414,433,454,474,494,513,534,554,574,594,614,634,654,674,693,714,734,755,774,794,814,834,854,874,895,914,934,954,974,994,1014,1034,1054,1075,1094,1114,1134,1154,1174,1194,1214,1234,1253],"xSR":741.5,"ySR":573.95,"xT1":424.9,"yT1":0,"xT2":1058.1,"yT2":0,"toosoon":0,"cond_shown":"equaldotsize","ratio_trial":500,"smaller_num":"6","larger_num":"12","correct_side":1,"subjID":"RobertoAndresSalhuanaLeiton18","gender":"0","age":"11","school":"6"},{"start_time":1551892965854,"click_time":1551892966900,"finger_time":1551892966220,"fix_duration":613.1033562247632,"trial":32,"RT":366,"MT":680,"sideResp":1,"stimulus":"img/250/equaldotsize/L/7_Ratio_250_L_8_R_2.png","xmouse":[792,792,792,792,792,792,792,792,792,792,792,792,792,792,792,792,793,793,794,794,794,794,794,790,788,783,779,768,761,754,745,736,721,682,654,634,623,607,599,595,590,581,577,575,573,570,563,551,517,501,491,489,488],"ymouse":[584,584,584,584,584,584,584,584,584,584,584,584,584,584,584,584,583,577,572,567,563,560,550,536,529,522,516,499,486,466,444,423,395,340,303,273,250,217,207,202,197,191,187,177,171,164,157,146,122,112,103,101,99],"timestamp_mouse":[8,26,46,67,86,106,127,146,167,186,205,226,246,266,287,305,326,347,366,387,407,426,447,466,487,507,526,547,565,586,606,625,646,666,685,706,726,747,765,786,806,826,846,866,886,906,926,946,965,986,1007,1026,1046],"xSR":741.5,"ySR":573.95,"xT1":424.9,"yT1":0,"xT2":1058.1,"yT2":0,"toosoon":0,"cond_shown":"equaldotsize","ratio_trial":250,"smaller_num":"2","larger_num":"8","correct_side":1,"subjID":"RobertoAndresSalhuanaLeiton18","gender":"0","age":"11","school":"6"},{"start_time":1551892969267,"click_time":1551892970000,"finger_time":1551892969620,"fix_duration":1446.3572352872945,"trial":33,"RT":353,"MT":380,"sideResp":2,"stimulus":"img/900/equaldotanddens/L/4_Ratio_900_L_20_R_18.png","xmouse":[785,785,785,785,785,785,785,785,785,785,785,785,785,785,786,783,774,758,751,744,738,736,736,736,736,737,742,763,779,799,821,875,979,1031,1077,1113,1135],"ymouse":[625,625,625,625,625,625,625,625,625,625,625,625,625,625,622,615,599,569,557,546,535,530,524,520,516,512,504,487,475,462,446,399,269,205,153,117,99],"timestamp_mouse":[13,33,53,73,93,113,133,153,173,193,213,233,253,273,294,313,334,353,373,393,413,433,453,473,493,513,533,553,573,593,613,633,653,673,694,713,733],"xSR":741.5,"ySR":573.95,"xT1":424.9,"yT1":0,"xT2":1058.1,"yT2":0,"toosoon":0,"cond_shown":"equaldotanddens","ratio_trial":900,"smaller_num":"18","larger_num":"20","correct_side":1,"subjID":"RobertoAndresSalhuanaLeiton18","gender":"0","age":"11","school":"6"},{"start_time":1551892971984,"click_time":1551892972601,"finger_time":1551892972201,"fix_duration":982.0433067236995,"trial":34,"RT":217,"MT":400,"sideResp":1,"stimulus":"img/500/randomdotsizeEA/L/10_Ratio_500_L_4_R_2.png","xmouse":[793,790,788,787,786,782,779,777,774,771,764,762,758,754,752,749,739,736,734,729,717,706,696,686,678,664,622,595,568,541,500],"ymouse":[605,601,599,598,597,592,588,584,581,575,565,558,550,535,528,515,477,456,440,422,391,373,354,332,309,264,181,147,119,94,45],"timestamp_mouse":[16,36,56,75,96,116,136,155,176,196,217,235,255,275,296,316,336,356,376,396,417,436,456,476,496,516,536,556,576,596,617],"xSR":741.5,"ySR":573.95,"xT1":424.9,"yT1":0,"xT2":1058.1,"yT2":0,"toosoon":0,"cond_shown":"randomdotsizeEA","ratio_trial":500,"smaller_num":"2","larger_num":"4","correct_side":1,"subjID":"RobertoAndresSalhuanaLeiton18","gender":"0","age":"11","school":"6"},{"start_time":1551892974646,"click_time":1551892977901,"finger_time":1551892977419,"fix_duration":843.4179192642534,"trial":35,"RT":2773,"MT":482,"sideResp":1,"stimulus":"img/750/equaldotsize/R/11_Ratio_750_L_12_R_16.png","xmouse":[771,771,771,771,771,771,771,771,771,771,771,771,771,771,771,771,771,771,771,771,771,771,771,771,771,771,771,771,771,771,771,771,771,771,771,771,771,771,771,771,771,771,771,771,771,771,771,771,771,771,771,771,771,771,771,771,771,771,771,771,771,771,771,771,771,771,771,771,771,771,771,771,771,771,771,771,771,771,771,771,771,771,771,771,771,771,771,771,771,771,771,771,771,771,771,771,771,771,771,771,771,771,771,771,771,771,771,771,771,771,771,771,771,771,771,771,771,771,771,771,771,771,771,771,771,771,771,771,771,771,771,771,771,771,771,771,771,780,791,794,794,791,779,758,746,736,721,651,604,566,537,520,509,507,507,507,509,509,509,508,508,507,506],"ymouse":[614,614,614,614,614,614,614,614,614,614,614,614,614,614,614,614,614,614,614,614,614,614,614,614,614,614,614,614,614,614,614,614,614,614,614,614,614,614,614,614,614,614,614,614,614,614,614,614,614,614,614,614,614,614,614,614,614,614,614,614,614,614,614,614,614,614,614,614,614,614,614,614,614,614,614,614,614,614,614,614,614,614,614,614,614,614,614,614,614,614,614,614,614,614,614,614,614,614,614,614,614,614,614,614,614,614,614,614,614,614,614,614,614,614,614,614,614,614,614,614,614,614,614,614,614,614,614,614,614,614,614,614,614,614,614,614,614,585,561,547,537,527,508,474,454,435,412,339,305,280,265,255,249,241,232,217,202,184,148,133,121,109,65],"timestamp_mouse":[14,34,54,74,94,114,134,154,174,194,214,234,254,274,293,314,334,354,375,395,414,434,454,474,494,514,534,554,574,595,614,634,654,674,694,713,734,754,774,794,814,833,854,875,895,914,934,954,974,994,1014,1034,1054,1074,1095,1115,1134,1153,1174,1194,1214,1234,1254,1274,1294,1315,1333,1354,1375,1395,1414,1434,1454,1473,1493,1514,1534,1553,1574,1595,1615,1634,1654,1674,1694,1714,1734,1754,1774,1794,1814,1834,1854,1874,1894,1914,1934,1954,1974,1994,2014,2034,2055,2074,2094,2114,2134,2154,2174,2193,2215,2234,2253,2274,2294,2314,2334,2354,2374,2395,2414,2435,2454,2474,2494,2514,2534,2554,2574,2594,2614,2634,2653,2675,2694,2714,2733,2755,2773,2794,2814,2834,2854,2874,2894,2914,2933,2955,2974,2993,3014,3034,3054,3075,3094,3115,3134,3154,3173,3194,3214,3233,3254],"xSR":741.5,"ySR":573.95,"xT1":424.9,"yT1":0,"xT2":1058.1,"yT2":0,"toosoon":0,"cond_shown":"equaldotsize","ratio_trial":750,"smaller_num":"12","larger_num":"16","correct_side":2,"subjID":"RobertoAndresSalhuanaLeiton18","gender":"0","age":"11","school":"6"},{"start_time":1551892980025,"click_time":1551892980660,"finger_time":1551892980500,"fix_duration":563.7801795000636,"trial":36,"RT":475,"MT":160,"sideResp":1,"stimulus":"img/250/equaldotsize/L/1_Ratio_250_L_8_R_2.png","xmouse":[796,796,796,796,796,796,796,796,796,796,796,796,796,796,796,796,796,796,796,796,796,795,791,786,771,761,745,722,647,594,547,481],"ymouse":[606,606,606,606,606,606,606,606,606,606,606,606,606,606,606,606,606,606,606,606,601,592,577,561,521,497,463,425,316,240,164,50],"timestamp_mouse":[25,35,55,75,95,115,135,155,175,195,215,235,255,276,295,316,335,355,375,395,415,434,456,475,495,515,536,554,576,594,615,635],"xSR":741.5,"ySR":573.95,"xT1":424.9,"yT1":0,"xT2":1058.1,"yT2":0,"toosoon":0,"cond_shown":"equaldotsize","ratio_trial":250,"smaller_num":"2","larger_num":"8","correct_side":1,"subjID":"RobertoAndresSalhuanaLeiton18","gender":"0","age":"11","school":"6"},{"start_time":1551892982215,"click_time":1551892983081,"finger_time":1551892982659,"fix_duration":493.5480477222458,"trial":37,"RT":444,"MT":422,"sideResp":2,"stimulus":"img/750/equaldotanddens/L/9_Ratio_750_L_4_R_3.png","xmouse":[778,778,778,779,779,779,779,779,779,779,779,779,779,779,779,779,779,779,779,779,779,767,754,743,740,740,748,762,782,820,832,842,857,876,903,959,970,973,973,973,985,1008,1041,1088],"ymouse":[600,600,600,598,597,597,597,597,597,597,597,597,597,597,597,597,597,597,597,597,591,575,560,548,540,534,528,519,506,473,458,442,404,336,247,127,109,106,106,106,94,69,39,7],"timestamp_mouse":[7,31,45,66,85,105,125,145,165,185,205,225,245,265,285,306,325,345,365,385,405,424,444,466,484,505,525,546,566,586,605,625,645,665,685,705,724,744,765,785,805,826,845,866],"xSR":741.5,"ySR":573.95,"xT1":424.9,"yT1":0,"xT2":1058.1,"yT2":0,"toosoon":0,"cond_shown":"equaldotanddens","ratio_trial":750,"smaller_num":"3","larger_num":"4","correct_side":1,"subjID":"RobertoAndresSalhuanaLeiton18","gender":"0","age":"11","school":"6"},{"start_time":1551892984419,"click_time":1551892986801,"finger_time":1551892986361,"fix_duration":258.9715888556343,"trial":38,"RT":1942,"MT":440,"sideResp":1,"stimulus":"img/750/equaldotsize/L/8_Ratio_750_L_4_R_3.png","xmouse":[765,765,765,765,765,765,765,765,765,765,765,765,765,765,765,765,765,765,765,765,765,765,765,765,765,765,765,765,765,765,765,765,765,765,765,765,765,765,765,765,765,765,765,765,765,765,765,765,765,765,765,765,765,765,765,765,765,765,765,765,765,765,765,765,765,765,765,765,765,765,765,765,765,765,765,765,765,765,765,765,765,765,765,765,765,765,765,765,765,765,765,765,765,765,765,765,763,740,692,628,516,498,495,486,480,460,448,441,436,433,433,433,433,433,434,434,434,435,435,434],"ymouse":[649,649,649,649,649,649,649,649,649,649,649,649,649,649,649,649,649,649,649,649,649,649,649,649,649,649,649,649,649,649,649,649,649,649,649,649,649,649,649,649,649,649,649,649,649,649,649,649,649,649,649,649,649,649,649,649,649,649,649,649,649,649,649,649,649,649,649,649,649,649,649,649,649,649,649,649,649,649,649,649,649,649,649,649,649,649,649,649,649,649,649,649,649,649,649,649,649,618,557,492,385,357,338,315,305,291,278,259,230,182,129,124,123,123,123,122,122,119,100,80],"timestamp_mouse":[7,28,41,61,81,102,121,141,161,181,201,221,241,261,281,302,322,341,361,381,401,421,441,461,481,501,521,542,562,581,602,621,641,661,681,701,721,741,761,781,802,821,841,861,881,901,921,941,961,981,1001,1020,1041,1061,1081,1101,1121,1141,1161,1181,1201,1221,1241,1261,1280,1301,1321,1341,1361,1381,1401,1421,1441,1461,1481,1501,1521,1541,1561,1581,1601,1621,1641,1661,1682,1701,1721,1742,1761,1782,1801,1821,1841,1861,1881,1901,1920,1942,1960,1981,2001,2021,2041,2061,2080,2101,2121,2142,2161,2182,2201,2222,2241,2260,2280,2301,2320,2341,2362,2382],"xSR":741.5,"ySR":573.95,"xT1":424.9,"yT1":0,"xT2":1058.1,"yT2":0,"toosoon":0,"cond_shown":"equaldotsize","ratio_trial":750,"smaller_num":"3","larger_num":"4","correct_side":1,"subjID":"RobertoAndresSalhuanaLeiton18","gender":"0","age":"11","school":"6"},{"start_time":1551892989372,"click_time":1551892990721,"finger_time":1551892990001,"fix_duration":950.9092305675924,"trial":39,"RT":629,"MT":720,"sideResp":2,"stimulus":"img/900/randomdotsizeEA/L/2_Ratio_900_L_20_R_18.png","xmouse":[799,799,799,799,799,799,799,798,795,795,794,792,792,792,792,792,792,792,792,792,791,786,763,757,756,755,755,755,755,755,758,769,791,801,808,814,818,827,830,834,839,844,863,873,883,896,906,930,944,958,973,985,1016,1037,1062,1079,1080,1080,1080,1080,1080,1080,1080,1080,1080,1080,1080,1076],"ymouse":[635,635,635,635,635,635,635,633,628,624,620,616,615,615,615,615,615,615,615,615,614,612,592,587,587,586,586,586,586,581,574,556,511,489,471,448,435,407,395,382,369,355,311,285,262,234,222,211,207,201,190,179,155,147,141,139,139,139,135,126,118,115,114,114,114,114,111,98],"timestamp_mouse":[8,29,48,68,88,108,129,149,167,188,208,229,249,268,288,308,328,349,368,388,407,428,448,467,488,508,528,549,569,589,608,629,648,669,688,708,728,748,768,788,808,828,847,868,888,908,928,949,968,988,1008,1028,1048,1068,1088,1109,1129,1148,1167,1188,1207,1228,1248,1268,1288,1309,1328,1348],"xSR":741.5,"ySR":573.95,"xT1":424.9,"yT1":0,"xT2":1058.1,"yT2":0,"toosoon":0,"cond_shown":"randomdotsizeEA","ratio_trial":900,"smaller_num":"18","larger_num":"20","correct_side":1,"subjID":"RobertoAndresSalhuanaLeiton18","gender":"0","age":"11","school":"6"},{"start_time":1551892994389,"click_time":1551892996720,"finger_time":1551892995080,"fix_duration":1168.0270546249349,"trial":40,"RT":691,"MT":1640,"sideResp":2,"stimulus":"img/500/randomdotsizeEA/R/12_Ratio_500_L_1_R_2.png","xmouse":[775,775,775,775,775,775,775,775,775,775,775,775,775,775,774,774,774,774,777,784,787,787,787,787,787,787,787,787,787,787,786,784,778,761,702,645,544,525,520,520,520,521,522,522,522,522,522,523,523,523,523,514,504,439,408,334,308,308,308,308,308,309,309,310,310,315,316,318,319,319,320,322,323,323,323,323,331,340,354,367,400,427,479,580,648,705,773,802,838,879,912,940,942,944,945,953,958,963,967,971,973,979,980,983,985,986,989,993,997,1001,1001,1003,1006,1018,1035,1057,1068],"ymouse":[636,636,636,636,636,636,636,636,636,636,636,636,635,634,632,632,632,626,615,601,593,593,593,593,593,593,593,593,593,592,592,592,592,586,563,546,517,510,507,502,495,485,479,473,466,455,441,434,427,420,412,385,365,295,270,219,205,204,202,199,190,167,160,154,152,144,142,141,139,138,137,135,135,135,135,135,139,145,155,162,172,176,177,178,178,178,178,180,181,181,181,177,175,171,169,159,153,148,145,142,139,132,130,127,124,124,123,122,121,120,120,119,117,112,105,92,85],"timestamp_mouse":[11,32,51,71,91,111,131,151,171,191,211,231,252,271,290,311,331,350,372,391,412,431,451,471,491,511,531,551,571,592,611,631,651,671,691,711,731,751,771,791,811,831,851,872,891,911,931,951,971,991,1011,1031,1051,1071,1091,1111,1131,1151,1171,1191,1210,1232,1251,1272,1291,1312,1331,1351,1371,1391,1412,1430,1451,1471,1491,1511,1531,1551,1571,1591,1612,1631,1651,1671,1691,1710,1731,1750,1771,1791,1811,1831,1851,1871,1891,1912,1930,1951,1970,1991,2011,2031,2051,2071,2092,2110,2131,2150,2171,2191,2211,2231,2251,2271,2291,2310,2331],"xSR":741.5,"ySR":573.95,"xT1":424.9,"yT1":0,"xT2":1058.1,"yT2":0,"toosoon":0,"cond_shown":"randomdotsizeEA","ratio_trial":500,"smaller_num":"1","larger_num":"2","correct_side":2,"subjID":"RobertoAndresSalhuanaLeiton18","gender":"0","age":"11","school":"6"},{"start_time":1551892999456,"click_time":1551893000520,"finger_time":1551893000120,"fix_duration":1395.731800239896,"trial":41,"RT":664,"MT":400,"sideResp":2,"stimulus":"img/750/equaldotanddens/R/15_Ratio_750_L_9_R_12.png","xmouse":[798,798,798,798,798,798,798,798,798,798,798,798,798,798,798,798,798,798,798,798,798,798,798,798,798,798,798,800,803,808,814,822,841,877,893,906,918,926,945,954,962,969,979,991,995,1000,1003,1005,1011,1019,1028,1037,1051,1078],"ymouse":[624,624,624,624,624,624,624,624,624,624,624,624,624,624,624,624,624,624,624,624,624,624,624,624,624,624,624,624,618,612,605,597,581,555,542,529,512,491,437,415,396,379,353,317,300,284,268,253,224,209,185,163,138,98],"timestamp_mouse":[7,24,45,64,84,104,125,144,164,184,204,224,244,263,284,305,324,344,364,383,404,424,443,464,484,504,524,545,563,585,605,625,644,664,684,704,724,744,764,784,804,824,844,864,884,903,924,944,964,984,1004,1024,1044,1064],"xSR":741.5,"ySR":573.95,"xT1":424.9,"yT1":0,"xT2":1058.1,"yT2":0,"toosoon":0,"cond_shown":"equaldotanddens","ratio_trial":750,"smaller_num":"9","larger_num":"12","correct_side":2,"subjID":"RobertoAndresSalhuanaLeiton18","gender":"0","age":"11","school":"6"},{"start_time":1551893001853,"click_time":1551893004961,"finger_time":1551893003980,"fix_duration":250,"trial":42,"RT":2127,"MT":981,"sideResp":2,"stimulus":"img/250/randomdotsizeEA/L/1_Ratio_250_L_8_R_2.png","xmouse":[774,774,774,774,774,774,774,774,774,774,774,774,774,774,774,774,774,774,774,774,774,774,774,774,774,774,774,774,774,774,774,774,774,774,774,774,774,774,774,774,774,774,774,774,774,774,774,774,774,774,774,774,774,774,774,774,774,774,774,774,774,774,774,774,774,774,774,774,774,774,774,774,774,774,773,773,773,773,773,773,773,773,773,773,773,773,773,773,773,773,773,773,773,773,773,773,773,773,773,773,773,775,787,817,831,837,842,848,859,867,879,892,902,905,905,906,907,909,927,941,960,977,1001,1038,1054,1064,1071,1073,1067,1059,1050,1043,1034,1031,1030,1030,1030,1030,1029,1028,1028,1028,1028,1028,1031,1036,1043,1049,1056,1057,1057,1057,1057,1057,1058,1060],"ymouse":[641,641,641,641,641,641,641,641,641,641,641,641,641,641,641,641,641,641,641,641,641,641,641,641,641,641,641,641,641,641,641,641,641,641,641,641,641,641,641,641,641,641,641,641,641,641,641,641,641,641,641,641,641,641,641,641,641,641,641,641,641,641,641,641,641,641,641,641,641,641,641,641,641,641,641,641,641,641,641,641,641,641,641,641,641,641,641,641,641,641,641,641,641,641,641,640,633,625,624,624,624,626,635,649,652,652,649,639,600,577,558,545,538,538,538,538,538,537,519,499,470,439,388,338,320,309,299,292,260,232,197,148,114,110,110,110,109,101,93,89,86,85,81,73,64,53,40,30,9,5,2,2,2,2,2,4],"timestamp_mouse":[7,27,47,66,87,106,127,147,167,187,206,227,247,267,287,307,327,347,367,387,407,427,446,467,488,507,527,547,567,587,608,627,647,666,687,707,727,747,767,787,807,827,847,867,888,907,927,947,967,987,1007,1028,1047,1068,1087,1107,1127,1147,1167,1187,1207,1228,1247,1267,1287,1307,1327,1347,1366,1388,1407,1427,1447,1466,1487,1507,1527,1547,1567,1587,1607,1627,1646,1667,1687,1707,1727,1747,1766,1787,1807,1827,1847,1867,1887,1907,1927,1947,1967,1987,2007,2027,2047,2067,2087,2107,2127,2146,2167,2187,2207,2227,2248,2267,2287,2307,2327,2347,2367,2387,2407,2427,2447,2467,2486,2507,2527,2548,2567,2587,2607,2628,2648,2667,2687,2707,2727,2747,2767,2787,2807,2827,2847,2867,2887,2907,2927,2947,2967,2986,3007,3028,3047,3067,3086,3108],"xSR":741.5,"ySR":573.95,"xT1":424.9,"yT1":0,"xT2":1058.1,"yT2":0,"toosoon":0,"cond_shown":"randomdotsizeEA","ratio_trial":250,"smaller_num":"2","larger_num":"8","correct_side":1,"subjID":"RobertoAndresSalhuanaLeiton18","gender":"0","age":"11","school":"6"},{"start_time":1551893005991,"click_time":1551893007219,"finger_time":1551893006660,"fix_duration":250,"trial":43,"RT":669,"MT":559,"sideResp":2,"stimulus":"img/500/equaldotsize/R/2_Ratio_500_L_3_R_6.png","xmouse":[819,819,819,818,812,809,807,807,807,806,805,805,805,805,805,805,805,805,805,805,805,805,805,803,802,802,801,801,801,801,801,804,811,823,846,861,888,901,912,921,930,953,959,961,962,963,966,969,975,983,990,1001,1004,1005,1006,1007,1009,1011,1015,1027,1051,1100],"ymouse":[612,612,612,615,626,632,635,635,635,636,636,636,636,636,636,636,636,636,636,636,636,636,636,636,635,634,633,631,630,628,625,603,580,547,482,441,345,304,263,232,200,147,132,127,125,123,112,105,98,93,91,88,87,86,85,84,78,72,66,51,33,5],"timestamp_mouse":[10,29,49,69,89,109,129,148,169,189,209,230,248,269,289,309,329,348,369,389,409,429,449,469,490,509,529,549,569,589,609,629,649,669,690,709,729,749,769,789,809,829,849,870,890,909,929,949,969,989,1010,1029,1049,1070,1090,1110,1130,1150,1169,1190,1210,1228],"xSR":741.5,"ySR":573.95,"xT1":424.9,"yT1":0,"xT2":1058.1,"yT2":0,"toosoon":0,"cond_shown":"equaldotsize","ratio_trial":500,"smaller_num":"3","larger_num":"6","correct_side":2,"subjID":"RobertoAndresSalhuanaLeiton18","gender":"0","age":"11","school":"6"},{"start_time":1551893010272,"click_time":1551893013780,"finger_time":1551893010700,"fix_duration":250,"trial":44,"RT":428,"MT":3080,"sideResp":2,"stimulus":"img/250/equaldotanddens/R/11_Ratio_250_L_3_R_12.png","xmouse":[806,806,806,806,806,806,806,806,806,806,806,806,806,806,806,806,807,813,820,823,838,859,920,941,952,962,965,966,970,977,982,986,991,992,992,992,992,992,992,992,992,985,972,964,953,944,925,919,913,909,907,906,906,906,909,914,920,931,936,938,940,941,943,945,945,945,949,958,962,970,975,975,975,975,975,975,975,975,975,975,975,975,975,975,975,975,975,975,975,975,975,975,975,975,975,975,975,975,975,975,975,975,975,975,975,975,975,975,975,975,975,975,975,975,975,975,975,975,975,975,975,975,975,975,975,975,975,975,975,975,975,975,975,975,975,975,975,975,975,975,975,975,978,979,979,978,974,974,973,973,973,973,973,973,973,973,973,975,977,980,981,981,981,981,981,982,985,989,989,989,989,990,1002,1019,1045,1077],"ymouse":[636,636,636,636,636,636,636,636,636,636,636,636,636,636,635,634,629,617,608,604,585,564,483,453,433,416,406,388,376,359,347,336,314,304,296,291,282,276,260,253,231,212,163,134,97,59,0,0,0,0,0,0,0,0,1,6,14,39,50,53,55,55,56,58,58,58,61,62,65,74,81,81,81,81,81,81,81,81,81,81,81,81,81,81,81,81,81,81,81,81,81,81,81,81,81,81,81,81,81,81,81,81,81,81,81,81,81,81,81,81,81,81,81,81,81,81,81,81,81,81,81,81,81,81,81,81,81,81,81,81,81,81,81,81,81,81,81,81,81,81,81,81,80,78,79,91,110,114,117,119,120,120,120,120,120,121,121,123,124,125,126,126,126,126,126,126,125,122,122,122,122,122,113,103,90,77],"timestamp_mouse":[11,30,48,68,88,108,128,148,168,188,208,228,248,268,288,308,328,348,368,388,408,428,448,468,488,508,528,547,568,588,609,628,648,668,688,708,729,748,768,788,808,828,848,868,888,908,929,948,968,988,1008,1030,1048,1068,1089,1108,1129,1149,1168,1188,1209,1229,1249,1268,1289,1308,1328,1348,1368,1388,1408,1428,1448,1468,1488,1508,1528,1548,1568,1588,1609,1628,1648,1668,1688,1709,1729,1748,1768,1788,1808,1828,1848,1868,1888,1908,1929,1947,1969,1988,2008,2028,2048,2068,2088,2108,2128,2148,2168,2188,2208,2228,2248,2268,2288,2308,2328,2348,2369,2389,2408,2430,2448,2469,2488,2508,2529,2548,2568,2588,2608,2629,2648,2668,2688,2708,2728,2748,2769,2788,2808,2828,2849,2868,2888,2908,2929,2948,2968,2988,3008,3029,3049,3068,3088,3109,3128,3148,3168,3188,3208,3229,3248,3268,3288,3308,3329,3348,3368,3388,3410,3428,3448,3469,3488,3508],"xSR":741.5,"ySR":573.95,"xT1":424.9,"yT1":0,"xT2":1058.1,"yT2":0,"toosoon":0,"cond_shown":"equaldotanddens","ratio_trial":250,"smaller_num":"3","larger_num":"12","correct_side":2,"subjID":"RobertoAndresSalhuanaLeiton18","gender":"0","age":"11","school":"6"},{"start_time":1551893015957,"click_time":1551893016880,"finger_time":1551893016540,"fix_duration":275.71717963037025,"trial":45,"RT":583,"MT":340,"sideResp":2,"stimulus":"img/900/equaldotanddens/L/1_Ratio_900_L_10_R_9.png","xmouse":[799,799,799,799,799,799,799,799,799,799,799,799,799,799,799,799,799,799,799,799,799,799,799,799,799,799,799,799,800,805,814,825,838,864,874,884,901,919,960,973,983,988,990,994,1004,1042,1094],"ymouse":[589,589,589,589,589,589,589,589,589,589,589,589,589,589,589,589,589,589,589,589,589,589,589,589,589,589,589,589,575,557,537,516,496,449,423,389,327,281,205,186,175,171,169,164,154,123,87],"timestamp_mouse":[7,24,43,63,83,103,123,143,163,183,203,223,244,263,284,303,323,343,364,383,403,423,443,463,483,503,523,543,563,583,603,623,643,663,683,703,723,743,763,783,804,823,843,863,883,902,923],"xSR":741.5,"ySR":573.95,"xT1":424.9,"yT1":0,"xT2":1058.1,"yT2":0,"toosoon":0,"cond_shown":"equaldotanddens","ratio_trial":900,"smaller_num":"9","larger_num":"10","correct_side":1,"subjID":"RobertoAndresSalhuanaLeiton18","gender":"0","age":"11","school":"6"},{"start_time":1551893019782,"click_time":1551893021220,"finger_time":1551893020300,"fix_duration":1259.9175961692488,"trial":46,"RT":518,"MT":920,"sideResp":1,"stimulus":"img/750/equaldotsize/L/6_Ratio_750_L_24_R_18.png","xmouse":[794,794,794,794,794,794,794,794,794,794,794,794,794,794,794,794,794,794,794,794,794,794,794,795,795,795,797,800,801,801,796,787,773,758,729,708,667,657,653,650,650,650,650,650,650,648,644,642,641,641,641,641,641,641,639,626,577,539,510,488,480,480,480,479,479,479,479,480,481,485,488,491],"ymouse":[610,610,610,610,610,610,610,610,610,610,610,610,610,610,610,610,610,610,610,610,610,610,608,595,580,564,534,520,510,501,477,457,430,395,326,268,171,147,134,126,124,123,123,123,121,118,106,102,99,99,99,99,99,99,99,99,101,107,111,111,111,111,111,111,111,111,111,110,109,105,101,86],"timestamp_mouse":[32,38,58,78,99,118,138,158,178,198,218,238,258,278,299,319,338,358,378,398,418,438,458,478,498,518,539,558,578,598,619,638,659,678,698,718,739,758,778,798,819,838,858,878,899,918,938,958,978,998,1018,1038,1058,1078,1098,1118,1138,1158,1178,1198,1219,1238,1258,1278,1298,1318,1338,1358,1379,1398,1418,1438],"xSR":741.5,"ySR":573.95,"xT1":424.9,"yT1":0,"xT2":1058.1,"yT2":0,"toosoon":0,"cond_shown":"equaldotsize","ratio_trial":750,"smaller_num":"18","larger_num":"24","correct_side":1,"subjID":"RobertoAndresSalhuanaLeiton18","gender":"0","age":"11","school":"6"},{"start_time":1551893023586,"click_time":1551893025300,"finger_time":1551893024140,"fix_duration":1384.5600627376093,"trial":47,"RT":554,"MT":1160,"sideResp":1,"stimulus":"img/500/equaldotsize/L/4_Ratio_500_L_18_R_9.png","xmouse":[787,788,789,789,789,789,789,789,789,789,789,789,789,789,789,789,789,789,789,789,789,789,789,789,788,784,773,766,757,742,721,678,660,647,631,623,602,593,588,586,586,586,586,586,586,583,564,553,545,537,531,531,531,531,531,531,531,531,531,531,528,526,526,526,526,526,526,526,526,526,526,526,526,526,526,526,526,526,526,526,526,525,525,525,525,524],"ymouse":[655,659,663,663,663,663,663,663,663,663,663,663,663,663,663,663,663,663,663,663,663,663,663,660,655,637,591,569,547,521,493,434,407,381,351,331,293,280,272,270,270,270,270,269,269,257,221,202,183,164,145,145,145,145,145,145,145,145,144,142,135,111,101,93,85,81,66,61,60,60,60,60,60,60,60,60,60,60,60,60,59,59,59,59,59,59],"timestamp_mouse":[14,34,54,74,94,114,134,154,174,194,214,234,254,274,294,315,335,354,374,394,414,434,454,474,495,514,534,554,574,594,616,634,654,674,694,714,734,754,774,794,815,834,854,874,894,914,934,954,976,994,1015,1033,1055,1074,1094,1114,1134,1155,1174,1194,1215,1234,1254,1274,1295,1314,1334,1354,1374,1394,1415,1434,1454,1474,1494,1515,1534,1554,1574,1594,1614,1634,1654,1674,1694,1714],"xSR":741.5,"ySR":573.95,"xT1":424.9,"yT1":0,"xT2":1058.1,"yT2":0,"toosoon":0,"cond_shown":"equaldotsize","ratio_trial":500,"smaller_num":"9","larger_num":"18","correct_side":1,"subjID":"RobertoAndresSalhuanaLeiton18","gender":"0","age":"11","school":"6"},{"start_time":1551893027592,"click_time":1551893028741,"finger_time":1551893028380,"fix_duration":1050.7104155354202,"trial":48,"RT":788,"MT":361,"sideResp":2,"stimulus":"img/900/equaldotsize/R/6_Ratio_900_L_9_R_10.png","xmouse":[781,781,781,781,781,781,781,781,781,781,781,781,781,781,781,781,781,781,781,781,781,781,781,781,781,781,781,781,782,782,782,782,782,782,782,783,783,783,784,789,799,807,816,828,847,864,911,938,965,987,1001,1025,1034,1040,1044,1048,1058,1061],"ymouse":[621,621,621,621,621,621,621,621,621,621,621,621,621,621,621,621,621,621,621,621,621,621,621,621,621,621,621,621,621,620,617,606,600,592,583,580,579,579,575,567,543,530,516,502,480,459,407,383,358,334,310,249,217,186,143,116,76,65],"timestamp_mouse":[9,38,48,68,88,108,128,148,170,188,208,228,248,269,288,309,328,348,368,388,408,428,448,468,488,508,528,550,568,588,608,628,648,668,688,708,729,749,768,788,809,828,848,868,888,908,929,948,968,988,1009,1027,1048,1068,1089,1108,1128,1149],"xSR":741.5,"ySR":573.95,"xT1":424.9,"yT1":0,"xT2":1058.1,"yT2":0,"toosoon":0,"cond_shown":"equaldotsize","ratio_trial":900,"smaller_num":"9","larger_num":"10","correct_side":2,"subjID":"RobertoAndresSalhuanaLeiton18","gender":"0","age":"11","school":"6"},{"start_time":1551893031499,"click_time":1551893032321,"finger_time":1551893031760,"fix_duration":1198.807342579063,"trial":49,"RT":261,"MT":561,"sideResp":2,"stimulus":"img/900/equaldotanddens/L/2_Ratio_900_L_20_R_18.png","xmouse":[814,814,814,814,814,814,814,814,814,814,814,799,779,757,748,744,744,744,744,744,744,744,744,746,756,773,832,869,907,963,989,1034,1052,1064,1077,1091,1117,1127,1135,1139,1139,1128],"ymouse":[596,596,596,596,596,596,596,596,596,596,596,587,576,565,558,554,554,554,554,554,554,554,552,545,531,513,462,429,397,348,325,294,279,263,248,229,198,188,177,160,139,62],"timestamp_mouse":[7,30,41,61,81,101,121,141,161,181,201,221,241,261,281,302,321,342,361,381,401,421,441,461,481,501,521,541,561,582,601,621,641,662,681,701,721,742,761,781,801,822],"xSR":741.5,"ySR":573.95,"xT1":424.9,"yT1":0,"xT2":1058.1,"yT2":0,"toosoon":0,"cond_shown":"equaldotanddens","ratio_trial":900,"smaller_num":"18","larger_num":"20","correct_side":1,"subjID":"RobertoAndresSalhuanaLeiton18","gender":"0","age":"11","school":"6"},{"start_time":1551893034660,"click_time":1551893036600,"finger_time":1551893035300,"fix_duration":1278.8255178876823,"trial":50,"RT":640,"MT":1300,"sideResp":2,"stimulus":"img/250/equaldotanddens/R/12_Ratio_250_L_5_R_20.png","xmouse":[748,748,748,748,748,748,748,748,748,748,748,748,748,748,748,748,748,748,748,748,748,748,748,748,748,748,748,748,748,748,748,745,726,722,722,722,722,722,722,722,723,726,731,763,825,854,905,974,1092,1133,1158,1179,1186,1196,1201,1207,1212,1216,1217,1217,1216,1206,1198,1194,1198,1203,1205,1205,1205,1204,1201,1197,1197,1197,1197,1197,1196,1194,1191,1187,1183,1171,1158,1128,1117,1114,1113,1112,1111,1111,1111,1111,1111,1111,1111,1111,1111,1111],"ymouse":[633,633,633,633,633,633,633,633,633,633,633,633,633,633,633,633,633,633,633,633,633,633,633,633,633,633,633,633,633,633,633,633,583,581,581,581,581,581,581,581,581,581,581,569,534,510,481,454,424,413,404,387,374,350,341,331,325,321,315,310,302,269,238,156,123,101,89,83,77,74,67,58,55,55,55,55,55,55,65,76,83,98,107,120,125,127,128,129,135,135,135,135,134,130,125,118,109,98],"timestamp_mouse":[6,20,40,60,80,100,120,140,160,180,200,220,240,260,280,301,320,340,360,380,400,420,441,460,480,500,520,540,560,580,600,620,640,660,680,700,720,742,760,781,801,820,840,860,880,900,920,940,959,980,1000,1020,1040,1060,1080,1100,1120,1140,1160,1180,1200,1220,1240,1260,1280,1300,1320,1340,1360,1381,1401,1420,1440,1460,1480,1500,1520,1540,1560,1580,1600,1620,1640,1661,1680,1700,1720,1742,1760,1781,1800,1820,1841,1860,1880,1900,1920,1940],"xSR":741.5,"ySR":573.95,"xT1":424.9,"yT1":0,"xT2":1058.1,"yT2":0,"toosoon":0,"cond_shown":"equaldotanddens","ratio_trial":250,"smaller_num":"5","larger_num":"20","correct_side":2,"subjID":"RobertoAndresSalhuanaLeiton18","gender":"0","age":"11","school":"6"},{"start_time":1551893040644,"click_time":1551893041620,"finger_time":1551893041280,"fix_duration":963.3959214711222,"trial":51,"RT":636,"MT":340,"sideResp":1,"stimulus":"img/750/equaldotanddens/L/13_Ratio_750_L_8_R_6.png","xmouse":[762,762,762,762,762,762,762,762,762,762,762,762,762,762,762,762,762,762,762,762,762,762,762,762,762,762,761,759,752,751,742,726,705,656,638,626,609,593,562,551,539,528,521,517,517,516,509,496,462],"ymouse":[645,645,645,645,645,645,645,645,645,645,645,645,645,645,645,645,645,645,645,645,645,645,645,645,645,645,642,641,636,634,624,606,580,513,483,454,416,380,315,288,262,233,216,201,198,191,176,151,91],"timestamp_mouse":[17,36,56,76,96,116,136,156,176,196,216,236,256,277,296,316,336,356,376,396,417,436,456,476,496,516,536,556,576,597,616,636,656,676,696,716,736,756,776,796,816,836,856,877,896,916,936,956,976],"xSR":741.5,"ySR":573.95,"xT1":424.9,"yT1":0,"xT2":1058.1,"yT2":0,"toosoon":0,"cond_shown":"equaldotanddens","ratio_trial":750,"smaller_num":"6","larger_num":"8","correct_side":1,"subjID":"RobertoAndresSalhuanaLeiton18","gender":"0","age":"11","school":"6"},{"start_time":1551893046683,"click_time":1551893048860,"finger_time":1551893047720,"fix_duration":1080.757462041826,"trial":52,"RT":1037,"MT":1140,"sideResp":2,"stimulus":"img/900/equaldotsize/L/10_Ratio_900_L_20_R_18.png","xmouse":[768,768,768,768,768,768,768,768,768,768,768,768,768,768,768,768,768,768,768,768,768,768,768,768,768,768,768,768,768,768,768,768,768,768,768,768,768,768,768,768,768,768,768,768,768,768,768,768,768,768,768,770,781,791,794,800,817,830,859,871,910,959,984,1022,1091,1162,1247,1256,1259,1273,1294,1337,1345,1347,1347,1347,1347,1343,1333,1322,1286,1261,1235,1211,1194,1184,1180,1180,1180,1180,1179,1174,1170,1168,1167,1167,1167,1167,1167,1167,1167,1167,1167,1166,1166,1166,1163,1159,1155],"ymouse":[619,619,619,619,619,619,619,619,619,619,619,619,619,619,619,619,619,619,619,619,619,619,619,619,619,619,619,619,619,619,619,619,619,619,619,619,619,619,619,619,619,619,619,619,619,619,619,619,619,619,616,570,542,523,515,506,484,472,460,459,458,458,453,433,395,346,247,212,172,108,55,0,0,0,0,0,0,1,7,14,36,50,65,76,83,87,89,89,89,89,89,88,86,84,83,83,83,83,83,83,83,83,83,83,83,83,83,82,81],"timestamp_mouse":[18,37,57,77,98,117,138,157,177,198,217,237,257,277,297,318,337,357,377,397,417,437,457,