[{"start_time":1551891514855,"click_time":1551891519627,"finger_time":1551891514884,"fix_duration":624.2239899122783,"trial":0,"RT":29,"MT":4743,"sideResp":2,"stimulus":[],"xmouse":[844,844,844,844,844,844,844,844,844,844,844,844,844,844,844,844,844,844,844,844,844,844,844,844,844,844,844,844,844,844,844,844,844,844,844,844,844,844,844,844,844,844,844,844,844,844,844,844,844,844,844,844,844,844,844,844,844,844,844,844,844,844,844,844,844,844,844,844,844,844,881,925,1036,1089,1088,1088,1088,1087,1087,1087,1085,1084,1084,1084,1080,1031,1009,1002,1002,1001,998,994,988,985,984,982,979,971,957,942,921,917,901,883,863,838,836,835,835,835,835,835,835,836,845,846,846,846,846,846,846,847,847,848,849,852,853,853,853,853,853,853,853,848,844,842,842,842,842,842,842,842,842,842,842,829,822,816,811,809,810,810,810,810,804,787,784,784,784,784,784,784,784,784,784,784,784,784,784,784,784,785,788,790,793,793,793,790,771,754,739,744,763,833,900,1095,1239,1398,1539,1539,1539,1539,1539,1539,1539,1539,1539,1539,1539,1573,1541,1534,1533,1532,1529,1524,1521,1517,1513,1511,1503,1496,1487,1477,1463,1425,1396,1367,1341,1318,1288,1271,1246,1234,1227,1224,1223,1221,1220,1220,1216,1214,1211,1207,1200,1181,1170,1161,1154],"ymouse":[559,559,559,559,559,559,559,559,559,559,559,559,559,559,559,559,559,559,559,559,559,559,559,559,559,559,559,559,559,559,559,559,559,559,559,559,559,559,559,559,559,559,559,559,559,559,559,559,559,559,559,559,559,559,559,559,559,559,559,559,559,559,559,559,559,559,559,559,559,559,546,532,500,495,495,495,495,497,515,529,535,535,535,535,535,532,543,545,545,545,543,539,537,537,537,536,532,523,513,503,497,497,497,497,497,507,508,508,508,508,508,508,508,508,508,508,508,508,508,508,508,508,507,505,505,507,511,511,511,511,511,511,513,514,514,514,514,514,514,514,514,514,514,514,514,536,551,569,591,611,622,623,623,623,631,659,664,664,664,663,661,661,661,661,661,659,653,649,647,645,639,636,631,629,628,628,627,624,611,597,580,568,547,491,436,273,199,133,88,88,88,88,88,88,88,88,88,88,88,6,14,14,14,15,17,26,31,36,40,42,46,49,52,56,62,78,84,88,88,88,86,80,73,66,60,48,42,36,34,33,34,35,42,50,61,73,75,75,75],"timestamp_mouse":[29,33,53,71,91,111,132,152,172,192,211,232,252,272,293,312,332,352,373,393,413,432,452,472,492,512,532,552,571,593,612,633,651,672,692,713,732,751,771,792,812,831,853,872,892,912,931,952,972,992,1012,1032,1052,1071,1092,1112,1132,1152,1172,1192,1212,1232,1252,1272,1292,1312,1332,1351,1372,1393,1411,1432,1452,1472,1493,1512,1532,1552,1572,1591,1611,1632,1652,1672,1692,1712,1732,1752,1772,1793,1812,1832,1852,1872,1893,1913,1931,1951,1971,1991,2011,2032,2052,2072,2092,2113,2132,2152,2172,2192,2211,2232,2252,2273,2293,2312,2332,2352,2372,2393,2412,2432,2452,2472,2492,2513,2531,2552,2571,2591,2611,2632,2652,2672,2692,2713,2732,2751,2772,2792,2813,2832,2852,2872,2891,2911,2932,2952,2972,2993,3012,3032,3052,3072,3092,3112,3132,3152,3172,3192,3212,3232,3252,3273,3292,3312,3332,3352,3371,3391,3412,3432,3452,3472,3492,3512,3532,3552,3571,3591,3612,3632,3652,3672,3692,3713,3732,3752,3771,3791,3811,3832,3852,3872,3892,3912,3932,3952,3972,3992,4011,4034,4053,4072,4093,4113,4132,4152,4172,4193,4212,4232,4252,4273,4292,4311,4332,4351,4372,4393,4412,4432,4451,4472,4492,4512,4532,4553,4571,4592,4612,4633,4652,4672,4692,4712,4733,4752,4772],"xSR":741.5,"ySR":494.65000000000003,"xT1":424.9,"yT1":0,"xT2":1058.1,"yT2":0,"toosoon":0,"cond_shown":"Congruent","ratio_trial":100,"L_num":10,"L_den":25,"R_num":3,"R_den":10,"correct_side":1,"subjID":"RobertoAndresSalhuanaLiton18","gender":"0","age":"11","school":"6","test":{"fix_dur":[250,1500],"timestim":1000,"targets_dim":[100,100],"targets_relative_coord":[0.3,0.7],"size_stim":[880,420],"start_dim":[100,100],"size_start":[300,300],"size_fix":60,"samplingrate":20,"img_types":["Congruent","Incongruent"],"ratios":[100,200,300],"rep_conds":19,"nTrials":120,"trials_to_rest":500,"Trials_order":[18,38,95,46,30,56,54,108,118,94,9,11,89,96,71,13,86,36,78,97,98,57,25,37,26,21,39,90,106,91,14,47,69,16,74,80,5,44,72,115,83,12,50,41,45,24,32,3,48,82,79,93,40,66,113,35,76,8,64,29,75,110,6,2,33,101,111,84,107,10,87,73,104,49,55,22,4,65,7,42,119,27,63,59,0,52,70,100,68,28,20,103,77,81,92,23,117,99,109,19,15,116,88,53,43,1,102,67,58,34,85,31,112,51,60,62,114,105,61,17],"cond_shown":["Congruent","Congruent","Incongruent","Congruent","Congruent","Congruent","Congruent","Congruent","Congruent","Congruent","Incongruent","Incongruent","Incongruent","Congruent","Incongruent","Incongruent","Congruent","Congruent","Congruent","Incongruent","Congruent","Incongruent","Incongruent","Incongruent","Congruent","Incongruent","Incongruent","Congruent","Congruent","Incongruent","Congruent","Incongruent","Incongruent","Congruent","Congruent","Congruent","Incongruent","Congruent","Congruent","Incongruent","Incongruent","Congruent","Congruent","Incongruent","Incongruent","Congruent","Congruent","Incongruent","Congruent","Congruent","Incongruent","Incongruent","Congruent","Congruent","Incongruent","Incongruent","Congruent","Congruent","Congruent","Incongruent","Incongruent","Congruent","Congruent","Congruent","Incongruent","Incongruent","Incongruent","Congruent","Incongruent","Congruent","Incongruent","Incongruent","Congruent","Incongruent","Incongruent","Congruent","Congruent","Incongruent","Incongruent","Congruent","Incongruent","Incongruent","Incongruent","Incongruent","Congruent","Congruent","Congruent","Congruent","Congruent","Congruent","Congruent","Incongruent","Incongruent","Incongruent","Congruent","Incongruent","Incongruent","Incongruent","Incongruent","Incongruent","Incongruent","Congruent","Congruent","Incongruent","Incongruent","Incongruent","Congruent","Incongruent","Congruent","Congruent","Incongruent","Incongruent","Congruent","Incongruent","Congruent","Congruent","Congruent","Incongruent","Incongruent","Incongruent"],"ratio_trial":[100,200,300,300,100,200,100,100,300,300,200,300,300,100,300,100,200,100,100,100,200,200,100,100,200,200,200,100,300,100,200,300,200,300,200,200,300,200,100,100,300,100,200,300,200,100,200,200,100,300,100,200,300,100,300,300,300,200,300,300,200,200,100,200,200,300,200,100,300,300,200,100,200,100,100,300,300,300,100,100,300,200,200,300,100,300,300,300,200,300,200,100,300,200,200,300,200,200,100,100,200,200,300,300,100,100,100,100,300,300,100,100,300,200,100,200,100,200,100,300],"left_num":[10,8,13,1,1,13,7,6,12,3,7,8,4,8,4,11,15,6,3,8,6,3,13,6,15,6,14,8,5,8,20,4,14,3,7,9,4,4,3,1,13,8,15,4,4,11,3,14,2,24,10,6,1,4,13,3,2,6,8,3,4,8,7,5,6,1,3,7,1,1,7,8,13,17,10,8,24,13,3,6,8,7,4,13,3,1,8,20,3,3,6,6,4,1,3,13,7,7,3,13,4,7,24,1,6,3,7,9,3,4,2,12,11,4,6,8,8,14,6,8],"right_num":[3,7,12,19,3,14,15,5,2,11,6,9,2,2,2,9,4,15,2,6,3,11,12,13,4,3,12,2,7,6,9,2,6,11,2,13,6,3,2,8,12,2,4,2,6,4,7,12,11,8,9,3,19,15,12,4,10,7,10,4,6,3,9,14,3,2,1,9,2,7,4,1,14,10,8,10,8,12,7,5,9,4,1,12,2,7,1,13,7,4,7,3,8,3,14,12,14,12,7,12,1,18,8,3,3,4,9,20,11,1,6,2,1,6,15,2,2,12,3,14],"left_den":[25,15,26,3,2,26,14,20,24,12,15,10,20,16,20,22,25,12,6,16,15,4,26,10,25,20,30,16,25,16,25,20,30,12,21,30,5,10,6,2,26,16,25,20,5,22,10,30,5,30,25,20,3,10,26,6,20,12,15,6,5,15,14,10,20,2,10,14,2,20,15,20,26,30,25,15,30,26,9,20,10,15,30,26,6,20,16,25,10,6,12,12,5,2,6,26,10,10,9,26,30,15,30,2,12,6,14,10,12,10,4,30,22,5,12,15,16,30,12,10],"right_den":[10,21,15,30,5,20,25,25,10,20,9,18,4,5,4,15,10,25,5,10,15,20,20,26,10,6,18,5,14,10,15,4,9,20,15,26,12,15,5,20,15,5,10,4,10,10,14,18,22,16,18,6,30,30,15,20,25,10,12,20,10,9,15,20,6,10,2,15,10,20,6,2,20,15,16,12,16,15,30,25,18,6,3,15,5,20,5,26,14,5,10,5,16,10,20,15,28,24,30,20,3,27,16,15,5,10,15,25,20,10,15,4,5,10,25,6,5,18,5,28],"correct_side":[1,1,2,2,2,2,2,1,1,2,2,1,2,1,2,2,1,2,1,2,1,1,2,1,1,2,2,1,2,2,1,2,2,2,1,2,1,1,1,1,2,1,1,2,1,1,2,2,2,1,2,2,2,2,2,1,2,2,2,1,1,1,2,2,2,1,2,2,1,2,2,2,2,2,2,2,1,2,1,1,1,2,2,2,1,2,1,1,2,2,2,2,1,1,2,2,1,1,1,2,2,2,1,1,2,1,2,1,2,1,1,2,1,1,2,1,1,2,2,1],"img_shown":["img2/100/Congruent/L/C_Dist_100_LN_10_LD_25_RN_3_RD_10_0.png","img2/200/Congruent/L/C_Dist_200_LN_8_LD_15_RN_7_RD_21_0.png","img2/300/Incongruent/R/I_Dist_300_LN_13_LD_26_RN_12_RD_15_1.png","img2/300/Congruent/R/C_Dist_300_LN_1_LD_3_RN_19_RD_30_1.png","img2/100/Congruent/R/C_Dist_100_LN_1_LD_2_RN_3_RD_5_1.png","img2/200/Congruent/R/C_Dist_200_LN_13_LD_26_RN_14_RD_20_1.png","img2/100/Congruent/R/C_Dist_100_LN_7_LD_14_RN_15_RD_25_1.png","img2/100/Congruent/L/C_Dist_100_LN_6_LD_20_RN_5_RD_25_0.png","img2/300/Congruent/L/C_Dist_300_LN_12_LD_24_RN_2_RD_10_0.png","img2/300/Congruent/R/C_Dist_300_LN_3_LD_12_RN_11_RD_20_1.png","img2/200/Incongruent/R/I_Dist_200_LN_7_LD_15_RN_6_RD_9_1.png","img2/300/Incongruent/L/I_Dist_300_LN_8_LD_10_RN_9_RD_18_0.png","img2/300/Incongruent/R/I_Dist_300_LN_4_LD_20_RN_2_RD_4_1.png","img2/100/Congruent/L/C_Dist_100_LN_8_LD_16_RN_2_RD_5_0.png","img2/300/Incongruent/R/I_Dist_300_LN_4_LD_20_RN_2_RD_4_1.png","img2/100/Incongruent/R/I_Dist_100_LN_11_LD_22_RN_9_RD_15_1.png","img2/200/Congruent/L/C_Dist_200_LN_15_LD_25_RN_4_RD_10_0.png","img2/100/Congruent/R/C_Dist_100_LN_6_LD_12_RN_15_RD_25_1.png","img2/100/Congruent/L/C_Dist_100_LN_3_LD_6_RN_2_RD_5_0.png","img2/100/Incongruent/R/I_Dist_100_LN_8_LD_16_RN_6_RD_10_1.png","img2/200/Congruent/L/C_Dist_200_LN_6_LD_15_RN_3_RD_15_0.png","img2/200/Incongruent/L/I_Dist_200_LN_3_LD_4_RN_11_RD_20_0.png","img2/100/Incongruent/R/I_Dist_100_LN_13_LD_26_RN_12_RD_20_1.png","img2/100/Incongruent/L/I_Dist_100_LN_6_LD_10_RN_13_RD_26_0.png","img2/200/Congruent/L/C_Dist_200_LN_15_LD_25_RN_4_RD_10_0.png","img2/200/Incongruent/R/I_Dist_200_LN_6_LD_20_RN_3_RD_6_1.png","img2/200/Incongruent/R/I_Dist_200_LN_14_LD_30_RN_12_RD_18_1.png","img2/100/Congruent/L/C_Dist_100_LN_8_LD_16_RN_2_RD_5_0.png","img2/300/Congruent/R/C_Dist_300_LN_5_LD_25_RN_7_RD_14_1.png","img2/100/Incongruent/R/I_Dist_100_LN_8_LD_16_RN_6_RD_10_1.png","img2/200/Congruent/L/C_Dist_200_LN_20_LD_25_RN_9_RD_15_0.png","img2/300/Incongruent/R/I_Dist_300_LN_4_LD_20_RN_2_RD_4_1.png","img2/200/Incongruent/R/I_Dist_200_LN_14_LD_30_RN_6_RD_9_1.png","img2/300/Congruent/R/C_Dist_300_LN_3_LD_12_RN_11_RD_20_1.png","img2/200/Congruent/L/C_Dist_200_LN_7_LD_21_RN_2_RD_15_0.png","img2/200/Congruent/R/C_Dist_200_LN_9_LD_30_RN_13_RD_26_1.png","img2/300/Incongruent/L/I_Dist_300_LN_4_LD_5_RN_6_RD_12_0.png","img2/200/Congruent/L/C_Dist_200_LN_4_LD_10_RN_3_RD_15_0.png","img2/100/Congruent/L/C_Dist_100_LN_3_LD_6_RN_2_RD_5_0.png","img2/100/Incongruent/L/I_Dist_100_LN_1_LD_2_RN_8_RD_20_0.png","img2/300/Incongruent/R/I_Dist_300_LN_13_LD_26_RN_12_RD_15_1.png","img2/100/Congruent/L/C_Dist_100_LN_8_LD_16_RN_2_RD_5_0.png","img2/200/Congruent/L/C_Dist_200_LN_15_LD_25_RN_4_RD_10_0.png","img2/300/Incongruent/R/I_Dist_300_LN_4_LD_20_RN_2_RD_4_1.png","img2/200/Incongruent/L/I_Dist_200_LN_4_LD_5_RN_6_RD_10_0.png","img2/100/Congruent/L/C_Dist_100_LN_11_LD_22_RN_4_RD_10_0.png","img2/200/Congruent/R/C_Dist_200_LN_3_LD_10_RN_7_RD_14_1.png","img2/200/Incongruent/R/I_Dist_200_LN_14_LD_30_RN_12_RD_18_1.png","img2/100/Congruent/R/C_Dist_100_LN_2_LD_5_RN_11_RD_22_1.png","img2/300/Congruent/L/C_Dist_300_LN_24_LD_30_RN_8_RD_16_0.png","img2/100/Incongruent/R/I_Dist_100_LN_10_LD_25_RN_9_RD_18_1.png","img2/200/Incongruent/R/I_Dist_200_LN_6_LD_20_RN_3_RD_6_1.png","img2/300/Congruent/R/C_Dist_300_LN_1_LD_3_RN_19_RD_30_1.png","img2/100/Congruent/R/C_Dist_100_LN_4_LD_10_RN_15_RD_30_1.png","img2/300/Incongruent/R/I_Dist_300_LN_13_LD_26_RN_12_RD_15_1.png","img2/300/Incongruent/L/I_Dist_300_LN_3_LD_6_RN_4_RD_20_0.png","img2/300/Congruent/R/C_Dist_300_LN_2_LD_20_RN_10_RD_25_1.png","img2/200/Congruent/R/C_Dist_200_LN_6_LD_12_RN_7_RD_10_1.png","img2/300/Congruent/R/C_Dist_300_LN_8_LD_15_RN_10_RD_12_1.png","img2/300/Incongruent/L/I_Dist_300_LN_3_LD_6_RN_4_RD_20_0.png","img2/200/Incongruent/L/I_Dist_200_LN_4_LD_5_RN_6_RD_10_0.png","img2/200/Congruent/L/C_Dist_200_LN_8_LD_15_RN_3_RD_9_0.png","img2/100/Congruent/R/C_Dist_100_LN_7_LD_14_RN_9_RD_15_1.png","img2/200/Congruent/R/C_Dist_200_LN_5_LD_10_RN_14_RD_20_1.png","img2/200/Incongruent/R/I_Dist_200_LN_6_LD_20_RN_3_RD_6_1.png","img2/300/Incongruent/L/I_Dist_300_LN_1_LD_2_RN_2_RD_10_0.png","img2/200/Incongruent/R/I_Dist_200_LN_3_LD_10_RN_1_RD_2_1.png","img2/100/Congruent/R/C_Dist_100_LN_7_LD_14_RN_9_RD_15_1.png","img2/300/Incongruent/L/I_Dist_300_LN_1_LD_2_RN_2_RD_10_0.png","img2/300/Congruent/R/C_Dist_300_LN_1_LD_20_RN_7_RD_20_1.png","img2/200/Incongruent/R/I_Dist_200_LN_7_LD_15_RN_4_RD_6_1.png","img2/100/Incongruent/R/I_Dist_100_LN_8_LD_20_RN_1_RD_2_1.png","img2/200/Congruent/R/C_Dist_200_LN_13_LD_26_RN_14_RD_20_1.png","img2/100/Incongruent/R/I_Dist_100_LN_17_LD_30_RN_10_RD_15_1.png","img2/100/Incongruent/R/I_Dist_100_LN_10_LD_25_RN_8_RD_16_1.png","img2/300/Congruent/R/C_Dist_300_LN_8_LD_15_RN_10_RD_12_1.png","img2/300/Congruent/L/C_Dist_300_LN_24_LD_30_RN_8_RD_16_0.png","img2/300/Incongruent/R/I_Dist_300_LN_13_LD_26_RN_12_RD_15_1.png","img2/100/Incongruent/L/I_Dist_100_LN_3_LD_9_RN_7_RD_30_0.png","img2/100/Congruent/L/C_Dist_100_LN_6_LD_20_RN_5_RD_25_0.png","img2/300/Incongruent/L/I_Dist_300_LN_8_LD_10_RN_9_RD_18_0.png","img2/200/Incongruent/R/I_Dist_200_LN_7_LD_15_RN_4_RD_6_1.png","img2/200/Incongruent/R/I_Dist_200_LN_4_LD_30_RN_1_RD_3_1.png","img2/300/Incongruent/R/I_Dist_300_LN_13_LD_26_RN_12_RD_15_1.png","img2/100/Congruent/L/C_Dist_100_LN_3_LD_6_RN_2_RD_5_0.png","img2/300/Congruent/R/C_Dist_300_LN_1_LD_20_RN_7_RD_20_1.png","img2/300/Congruent/L/C_Dist_300_LN_8_LD_16_RN_1_RD_5_0.png","img2/300/Congruent/L/C_Dist_300_LN_20_LD_25_RN_13_RD_26_0.png","img2/200/Congruent/R/C_Dist_200_LN_3_LD_10_RN_7_RD_14_1.png","img2/300/Congruent/R/C_Dist_300_LN_3_LD_6_RN_4_RD_5_1.png","img2/200/Congruent/R/C_Dist_200_LN_6_LD_12_RN_7_RD_10_1.png","img2/100/Incongruent/R/I_Dist_100_LN_6_LD_12_RN_3_RD_5_1.png","img2/300/Incongruent/L/I_Dist_300_LN_4_LD_5_RN_8_RD_16_0.png","img2/200/Incongruent/L/I_Dist_200_LN_1_LD_2_RN_3_RD_10_0.png","img2/200/Congruent/R/C_Dist_200_LN_3_LD_6_RN_14_RD_20_1.png","img2/300/Incongruent/R/I_Dist_300_LN_13_LD_26_RN_12_RD_15_1.png","img2/200/Incongruent/L/I_Dist_200_LN_7_LD_10_RN_14_RD_28_0.png","img2/200/Incongruent/L/I_Dist_200_LN_7_LD_10_RN_12_RD_24_0.png","img2/100/Incongruent/L/I_Dist_100_LN_3_LD_9_RN_7_RD_30_0.png","img2/100/Incongruent/R/I_Dist_100_LN_13_LD_26_RN_12_RD_20_1.png","img2/200/Incongruent/R/I_Dist_200_LN_4_LD_30_RN_1_RD_3_1.png","img2/200/Congruent/R/C_Dist_200_LN_7_LD_15_RN_18_RD_27_1.png","img2/300/Congruent/L/C_Dist_300_LN_24_LD_30_RN_8_RD_16_0.png","img2/300/Incongruent/L/I_Dist_300_LN_1_LD_2_RN_3_RD_15_0.png","img2/100/Incongruent/R/I_Dist_100_LN_6_LD_12_RN_3_RD_5_1.png","img2/100/Incongruent/L/I_Dist_100_LN_3_LD_6_RN_4_RD_10_0.png","img2/100/Congruent/R/C_Dist_100_LN_7_LD_14_RN_9_RD_15_1.png","img2/100/Incongruent/L/I_Dist_100_LN_9_LD_10_RN_20_RD_25_0.png","img2/300/Congruent/R/C_Dist_300_LN_3_LD_12_RN_11_RD_20_1.png","img2/300/Congruent/L/C_Dist_300_LN_4_LD_10_RN_1_RD_10_0.png","img2/100/Incongruent/L/I_Dist_100_LN_2_LD_4_RN_6_RD_15_0.png","img2/100/Incongruent/R/I_Dist_100_LN_12_LD_30_RN_2_RD_4_1.png","img2/300/Congruent/L/C_Dist_300_LN_11_LD_22_RN_1_RD_5_0.png","img2/200/Incongruent/L/I_Dist_200_LN_4_LD_5_RN_6_RD_10_0.png","img2/100/Congruent/R/C_Dist_100_LN_6_LD_12_RN_15_RD_25_1.png","img2/200/Congruent/L/C_Dist_200_LN_8_LD_15_RN_2_RD_6_0.png","img2/100/Congruent/L/C_Dist_100_LN_8_LD_16_RN_2_RD_5_0.png","img2/200/Incongruent/R/I_Dist_200_LN_14_LD_30_RN_12_RD_18_1.png","img2/100/Incongruent/R/I_Dist_100_LN_6_LD_12_RN_3_RD_5_1.png","img2/300/Incongruent/L/I_Dist_300_LN_8_LD_10_RN_14_RD_28_0.png"],"dist100_C":[["C_Dist_100_LN_10_LD_25_RN_3_RD_10_0.png","C_Dist_100_LN_11_LD_22_RN_4_RD_10_0.png","C_Dist_100_LN_11_LD_22_RN_6_RD_15_0.png","C_Dist_100_LN_15_LD_25_RN_13_RD_26_0.png","C_Dist_100_LN_3_LD_6_RN_2_RD_5_0.png","C_Dist_100_LN_6_LD_20_RN_5_RD_25_0.png","C_Dist_100_LN_8_LD_16_RN_2_RD_5_0.png","C_Dist_100_LN_9_LD_15_RN_8_RD_16_0.png"],["C_Dist_100_LN_1_LD_2_RN_18_RD_30_1.png","C_Dist_100_LN_1_LD_2_RN_3_RD_5_1.png","C_Dist_100_LN_12_LD_30_RN_13_RD_26_1.png","C_Dist_100_LN_2_LD_5_RN_11_RD_22_1.png","C_Dist_100_LN_2_LD_5_RN_6_RD_12_1.png","C_Dist_100_LN_3_LD_20_RN_4_RD_16_1.png","C_Dist_100_LN_4_LD_10_RN_15_RD_30_1.png","C_Dist_100_LN_4_LD_8_RN_6_RD_10_1.png","C_Dist_100_LN_6_LD_12_RN_15_RD_25_1.png","C_Dist_100_LN_7_LD_14_RN_15_RD_25_1.png","C_Dist_100_LN_7_LD_14_RN_9_RD_15_1.png"]],"dist100_I":[["I_Dist_100_LN_1_LD_2_RN_8_RD_20_0.png","I_Dist_100_LN_2_LD_4_RN_6_RD_15_0.png","I_Dist_100_LN_2_LD_4_RN_8_RD_20_0.png","I_Dist_100_LN_3_LD_5_RN_11_RD_22_0.png","I_Dist_100_LN_3_LD_5_RN_8_RD_16_0.png","I_Dist_100_LN_3_LD_6_RN_4_RD_10_0.png","I_Dist_100_LN_3_LD_9_RN_7_RD_30_0.png","I_Dist_100_LN_4_LD_8_RN_8_RD_20_0.png","I_Dist_100_LN_6_LD_10_RN_11_RD_22_0.png","I_Dist_100_LN_6_LD_10_RN_13_RD_26_0.png","I_Dist_100_LN_6_LD_10_RN_7_RD_14_0.png","I_Dist_100_LN_9_LD_10_RN_20_RD_25_0.png","I_Dist_100_LN_9_LD_15_RN_13_RD_26_0.png","I_Dist_100_LN_9_LD_15_RN_14_RD_28_0.png"],["I_Dist_100_LN_10_LD_25_RN_8_RD_16_1.png","I_Dist_100_LN_10_LD_25_RN_9_RD_18_1.png","I_Dist_100_LN_11_LD_22_RN_9_RD_15_1.png","I_Dist_100_LN_12_LD_24_RN_9_RD_15_1.png","I_Dist_100_LN_12_LD_30_RN_2_RD_4_1.png","I_Dist_100_LN_13_LD_26_RN_12_RD_20_1.png","I_Dist_100_LN_13_LD_26_RN_6_RD_10_1.png","I_Dist_100_LN_17_LD_30_RN_10_RD_15_1.png","I_Dist_100_LN_6_LD_12_RN_3_RD_5_1.png","I_Dist_100_LN_8_LD_16_RN_6_RD_10_1.png","I_Dist_100_LN_8_LD_20_RN_1_RD_2_1.png","I_Dist_100_LN_9_LD_18_RN_6_RD_10_1.png"]],"dist100_S":[["E_Dist_100_LN_2_LD_12_RN_2_RD_30_0.png","E_Dist_100_LN_6_LD_10_RN_6_RD_12_0.png"],["E_Dist_100_LN_6_LD_12_RN_6_RD_10_1.png"]],"dist200_C":[["C_Dist_200_LN_11_LD_22_RN_3_RD_10_0.png","C_Dist_200_LN_12_LD_15_RN_6_RD_10_0.png","C_Dist_200_LN_12_LD_20_RN_6_RD_15_0.png","C_Dist_200_LN_14_LD_28_RN_6_RD_20_0.png","C_Dist_200_LN_15_LD_25_RN_4_RD_10_0.png","C_Dist_200_LN_16_LD_20_RN_12_RD_20_0.png","C_Dist_200_LN_16_LD_30_RN_9_RD_27_0.png","C_Dist_200_LN_20_LD_25_RN_9_RD_15_0.png","C_Dist_200_LN_21_LD_30_RN_2_RD_4_0.png","C_Dist_200_LN_4_LD_10_RN_3_RD_15_0.png","C_Dist_200_LN_4_LD_8_RN_3_RD_10_0.png","C_Dist_200_LN_6_LD_15_RN_3_RD_15_0.png","C_Dist_200_LN_7_LD_21_RN_2_RD_15_0.png","C_Dist_200_LN_8_LD_15_RN_2_RD_6_0.png","C_Dist_200_LN_8_LD_15_RN_3_RD_9_0.png","C_Dist_200_LN_8_LD_15_RN_7_RD_21_0.png","C_Dist_200_LN_9_LD_20_RN_4_RD_16_0.png"],["C_Dist_200_LN_1_LD_2_RN_21_RD_30_1.png","C_Dist_200_LN_13_LD_26_RN_14_RD_20_1.png","C_Dist_200_LN_3_LD_10_RN_11_RD_22_1.png","C_Dist_200_LN_3_LD_10_RN_14_RD_28_1.png","C_Dist_200_LN_3_LD_10_RN_7_RD_14_1.png","C_Dist_200_LN_3_LD_12_RN_9_RD_20_1.png","C_Dist_200_LN_3_LD_6_RN_14_RD_20_1.png","C_Dist_200_LN_5_LD_10_RN_14_RD_20_1.png","C_Dist_200_LN_6_LD_12_RN_7_RD_10_1.png","C_Dist_200_LN_6_LD_20_RN_11_RD_22_1.png","C_Dist_200_LN_7_LD_15_RN_18_RD_27_1.png","C_Dist_200_LN_9_LD_30_RN_13_RD_26_1.png"]],"dist200_I":[["I_Dist_200_LN_1_LD_2_RN_3_RD_10_0.png","I_Dist_200_LN_1_LD_3_RN_2_RD_15_0.png","I_Dist_200_LN_3_LD_4_RN_11_RD_20_0.png","I_Dist_200_LN_4_LD_5_RN_6_RD_10_0.png","I_Dist_200_LN_4_LD_6_RN_14_RD_30_0.png","I_Dist_200_LN_7_LD_10_RN_12_RD_24_0.png","I_Dist_200_LN_7_LD_10_RN_14_RD_28_0.png","I_Dist_200_LN_7_LD_10_RN_8_RD_16_0.png"],["I_Dist_200_LN_11_LD_20_RN_3_RD_4_1.png","I_Dist_200_LN_14_LD_30_RN_12_RD_18_1.png","I_Dist_200_LN_14_LD_30_RN_6_RD_9_1.png","I_Dist_200_LN_3_LD_10_RN_1_RD_2_1.png","I_Dist_200_LN_4_LD_30_RN_1_RD_3_1.png","I_Dist_200_LN_6_LD_20_RN_3_RD_6_1.png","I_Dist_200_LN_7_LD_15_RN_4_RD_6_1.png","I_Dist_200_LN_7_LD_15_RN_6_RD_9_1.png","I_Dist_200_LN_9_LD_15_RN_8_RD_10_1.png"]],"dist200_S":[["E_Dist_200_LN_3_LD_6_RN_3_RD_10_0.png"],["E_Dist_200_LN_3_LD_10_RN_3_RD_6_1.png"]],"dist300_C":[["C_Dist_300_LN_11_LD_22_RN_1_RD_5_0.png","C_Dist_300_LN_11_LD_22_RN_2_RD_10_0.png","C_Dist_300_LN_11_LD_22_RN_4_RD_20_0.png","C_Dist_300_LN_12_LD_24_RN_2_RD_10_0.png","C_Dist_300_LN_18_LD_20_RN_9_RD_15_0.png","C_Dist_300_LN_20_LD_25_RN_13_RD_26_0.png","C_Dist_300_LN_20_LD_25_RN_14_RD_28_0.png","C_Dist_300_LN_20_LD_25_RN_5_RD_10_0.png","C_Dist_300_LN_20_LD_25_RN_8_RD_16_0.png","C_Dist_300_LN_20_LD_25_RN_9_RD_18_0.png","C_Dist_300_LN_24_LD_30_RN_2_RD_4_0.png","C_Dist_300_LN_24_LD_30_RN_8_RD_16_0.png","C_Dist_300_LN_3_LD_6_RN_2_RD_10_0.png","C_Dist_300_LN_4_LD_10_RN_1_RD_10_0.png","C_Dist_300_LN_4_LD_5_RN_2_RD_4_0.png","C_Dist_300_LN_8_LD_16_RN_1_RD_5_0.png","C_Dist_300_LN_9_LD_10_RN_3_RD_5_0.png"],["C_Dist_300_LN_1_LD_20_RN_7_RD_20_1.png","C_Dist_300_LN_1_LD_3_RN_19_RD_30_1.png","C_Dist_300_LN_1_LD_30_RN_8_RD_24_1.png","C_Dist_300_LN_1_LD_5_RN_11_RD_22_1.png","C_Dist_300_LN_1_LD_5_RN_3_RD_6_1.png","C_Dist_300_LN_1_LD_5_RN_6_RD_12_1.png","C_Dist_300_LN_2_LD_10_RN_12_RD_24_1.png","C_Dist_300_LN_2_LD_20_RN_10_RD_25_1.png","C_Dist_300_LN_3_LD_12_RN_11_RD_20_1.png","C_Dist_300_LN_3_LD_6_RN_4_RD_5_1.png","C_Dist_300_LN_4_LD_20_RN_13_RD_26_1.png","C_Dist_300_LN_5_LD_25_RN_6_RD_12_1.png","C_Dist_300_LN_5_LD_25_RN_7_RD_14_1.png","C_Dist_300_LN_7_LD_14_RN_20_RD_25_1.png","C_Dist_300_LN_8_LD_15_RN_10_RD_12_1.png"]],"dist300_I":[["I_Dist_300_LN_1_LD_2_RN_2_RD_10_0.png","I_Dist_300_LN_1_LD_2_RN_3_RD_15_0.png","I_Dist_300_LN_2_LD_4_RN_6_RD_30_0.png","I_Dist_300_LN_3_LD_6_RN_4_RD_20_0.png","I_Dist_300_LN_4_LD_5_RN_6_RD_12_0.png","I_Dist_300_LN_4_LD_5_RN_8_RD_16_0.png","I_Dist_300_LN_7_LD_10_RN_8_RD_20_0.png","I_Dist_300_LN_8_LD_10_RN_14_RD_28_0.png","I_Dist_300_LN_8_LD_10_RN_9_RD_18_0.png"],["I_Dist_300_LN_13_LD_26_RN_12_RD_15_1.png","I_Dist_300_LN_4_LD_20_RN_2_RD_4_1.png"]],"dist300_S":[["E_Dist_300_LN_9_LD_12_RN_9_RD_20_0.png"],["E_Dist_300_LN_18_LD_30_RN_18_RD_20_1.png","E_Dist_300_LN_3_LD_10_RN_3_RD_5_1.png","E_Dist_300_LN_9_LD_20_RN_9_RD_12_1.png"]],"dist500_C":[["C_Dist_500_LN_10_LD_13_RN_7_RD_26_0.png","C_Dist_500_LN_10_LD_15_RN_4_RD_24_0.png","C_Dist_500_LN_12_LD_16_RN_3_RD_12_0.png","C_Dist_500_LN_12_LD_18_RN_4_RD_24_0.png","C_Dist_500_LN_15_LD_18_RN_5_RD_15_0.png","C_Dist_500_LN_15_LD_20_RN_1_RD_4_0.png","C_Dist_500_LN_18_LD_27_RN_1_RD_6_0.png","C_Dist_500_LN_20_LD_24_RN_1_RD_3_0.png","C_Dist_500_LN_20_LD_24_RN_3_RD_9_0.png","C_Dist_500_LN_20_LD_24_RN_7_RD_21_0.png","C_Dist_500_LN_20_LD_28_RN_3_RD_14_0.png","C_Dist_500_LN_21_LD_28_RN_6_RD_24_0.png","C_Dist_500_LN_22_LD_28_RN_2_RD_7_0.png","C_Dist_500_LN_25_LD_30_RN_9_RD_27_0.png","C_Dist_500_LN_4_LD_6_RN_1_RD_6_0.png","C_Dist_500_LN_5_LD_6_RN_2_RD_6_0.png","C_Dist_500_LN_6_LD_9_RN_1_RD_6_0.png","C_Dist_500_LN_7_LD_10_RN_1_RD_5_0.png","C_Dist_500_LN_8_LD_12_RN_1_RD_6_0.png","C_Dist_500_LN_8_LD_12_RN_4_RD_24_0.png"],["C_Dist_500_LN_1_LD_4_RN_12_RD_16_1.png","C_Dist_500_LN_1_LD_4_RN_9_RD_12_1.png","C_Dist_500_LN_1_LD_9_RN_11_RD_18_1.png","C_Dist_500_LN_10_LD_24_RN_22_RD_24_1.png","C_Dist_500_LN_2_LD_12_RN_10_RD_15_1.png","C_Dist_500_LN_2_LD_12_RN_12_RD_18_1.png","C_Dist_500_LN_2_LD_12_RN_4_RD_6_1.png","C_Dist_500_LN_2_LD_24_RN_7_RD_12_1.png","C_Dist_500_LN_2_LD_5_RN_18_RD_20_1.png","C_Dist_500_LN_2_LD_5_RN_9_RD_10_1.png","C_Dist_500_LN_2_LD_8_RN_12_RD_16_1.png","C_Dist_500_LN_2_LD_8_RN_21_RD_28_1.png","C_Dist_500_LN_3_LD_10_RN_4_RD_5_1.png","C_Dist_500_LN_3_LD_12_RN_15_RD_20_1.png","C_Dist_500_LN_3_LD_30_RN_6_RD_10_1.png","C_Dist_500_LN_3_LD_8_RN_14_RD_16_1.png","C_Dist_500_LN_4_LD_16_RN_15_RD_20_1.png","C_Dist_500_LN_4_LD_24_RN_12_RD_18_1.png","C_Dist_500_LN_5_LD_14_RN_6_RD_7_1.png","C_Dist_500_LN_7_LD_21_RN_20_RD_24_1.png","C_Dist_500_LN_7_LD_28_RN_12_RD_16_1.png","C_Dist_500_LN_7_LD_28_RN_9_RD_12_1.png","C_Dist_500_LN_9_LD_27_RN_20_RD_24_1.png"]],"dist500_I":[["I_Dist_500_LN_2_LD_3_RN_4_RD_24_0.png","I_Dist_500_LN_5_LD_6_RN_6_RD_18_0.png","I_Dist_500_LN_7_LD_8_RN_9_RD_24_0.png"],["I_Dist_500_LN_7_LD_21_RN_5_RD_6_1.png"]],"dist500_S":[["E_Dist_500_LN_6_LD_8_RN_6_RD_24_0.png"],["E_Dist_500_LN_2_LD_12_RN_2_RD_3_1.png","E_Dist_500_LN_6_LD_24_RN_6_RD_8_1.png"]]}},{"start_time":1551891522445,"click_time":1551891524947,"finger_time":1551891524067,"fix_duration":756.9894099996369,"trial":1,"RT":1622,"MT":880,"sideResp":2,"stimulus":[],"xmouse":[777,777,777,777,777,777,777,777,777,777,777,777,777,777,777,777,777,777,777,777,777,777,777,777,777,777,777,777,777,777,777,777,777,777,777,777,777,777,777,777,777,777,777,777,777,777,777,777,777,777,777,777,777,777,777,777,777,777,777,777,777,777,777,777,777,777,777,777,777,777,777,777,777,777,777,777,778,780,784,789,796,818,854,892,936,979,1036,1053,1066,1074,1078,1083,1084,1083,1080,1079,1077,1077,1077,1077,1077,1073,1073,1073,1077,1080,1083,1085,1086,1090,1093,1104,1105,1107,1109,1110,1110,1110,1110,1110,1110,1109,1108,1104,1090,1083],"ymouse":[627,627,627,627,627,627,627,627,627,627,627,627,627,627,627,627,627,627,627,627,627,627,627,627,627,627,627,627,627,627,627,627,627,627,627,627,627,627,627,627,627,627,627,627,627,627,627,627,627,627,627,627,627,627,627,627,627,627,627,627,627,627,627,627,627,627,627,627,627,627,627,627,627,627,627,627,623,619,613,604,591,560,528,505,484,464,436,425,416,409,401,381,367,358,352,346,340,336,333,330,322,290,264,259,251,246,234,228,223,217,210,190,188,182,178,172,151,138,132,132,132,130,128,117,102,95],"timestamp_mouse":[8,32,43,62,81,102,122,142,162,182,203,222,242,263,282,302,322,342,362,381,402,422,442,462,482,502,523,542,562,583,602,623,641,662,682,702,722,743,762,782,801,822,842,862,882,902,922,942,962,982,1002,1022,1042,1062,1083,1103,1121,1142,1162,1182,1202,1223,1242,1262,1282,1302,1322,1342,1361,1382,1402,1421,1442,1462,1482,1502,1522,1542,1562,1582,1602,1622,1641,1662,1682,1702,1722,1742,1762,1782,1802,1822,1842,1862,1882,1902,1922,1942,1962,1982,2001,2021,2042,2063,2082,2102,2122,2142,2162,2182,2203,2222,2242,2263,2282,2302,2322,2342,2363,2381,2402,2422,2442,2462,2481,2502],"xSR":741.5,"ySR":573.95,"xT1":424.9,"yT1":0,"xT2":1058.1,"yT2":0,"toosoon":0,"cond_shown":"Congruent","ratio_trial":200,"L_num":8,"L_den":15,"R_num":7,"R_den":21,"correct_side":1,"subjID":"RobertoAndresSalhuanaLiton18","gender":"0","school":"6","age":"11"},{"start_time":1551891526379,"click_time":1551891528388,"finger_time":1551891527947,"fix_duration":250,"trial":2,"RT":1568,"MT":441,"sideResp":2,"stimulus":[],"xmouse":[778,778,778,778,778,778,778,778,778,778,778,778,778,778,778,778,778,778,778,778,778,778,778,778,778,778,778,778,778,804,808,808,808,809,811,811,811,811,811,816,820,822,822,822,822,822,822,822,822,809,804,802,801,801,801,801,801,801,801,801,802,803,804,804,804,804,804,804,804,804,804,804,805,805,806,808,810,813,820,839,852,867,889,904,930,942,964,977,996,1002,1008,1014,1017,1022,1025,1026,1027,1030,1034,1049,1060],"ymouse":[646,646,646,646,646,646,646,646,646,646,646,646,646,646,646,646,646,646,646,646,646,646,646,646,646,646,646,646,647,653,653,653,653,653,646,644,644,644,644,644,646,647,647,647,647,647,647,647,646,624,612,606,606,606,606,606,606,606,606,606,608,611,615,615,615,615,615,615,615,615,615,615,613,611,606,602,598,583,562,495,449,404,356,325,281,260,221,197,156,139,126,114,106,97,93,92,89,85,80,60,48],"timestamp_mouse":[8,33,49,68,88,107,128,148,168,188,208,228,248,268,288,308,328,347,367,388,408,428,448,467,487,508,528,548,568,588,608,628,648,668,688,708,728,748,768,788,808,829,848,868,888,908,928,948,967,987,1008,1028,1048,1069,1087,1108,1128,1148,1168,1188,1208,1227,1248,1268,1288,1308,1328,1348,1367,1387,1408,1428,1448,1468,1488,1508,1528,1548,1568,1588,1609,1628,1648,1669,1687,1708,1728,1748,1769,1788,1808,1829,1848,1869,1888,1908,1928,1948,1968,1988,2008],"xSR":741.5,"ySR":573.95,"xT1":424.9,"yT1":0,"xT2":1058.1,"yT2":0,"toosoon":0,"cond_shown":"Incongruent","ratio_trial":300,"L_num":13,"L_den":26,"R_num":12,"R_den":15,"correct_side":2,"subjID":"RobertoAndresSalhuanaLiton18","gender":"0","school":"6","age":"11"},{"start_time":1551891531921,"click_time":1551891533867,"finger_time":1551891533247,"fix_duration":833.4129609379837,"trial":3,"RT":1326,"MT":620,"sideResp":2,"stimulus":[],"xmouse":[759,759,759,759,759,759,759,759,759,759,759,759,759,759,759,759,759,759,759,759,759,759,759,759,759,759,759,759,759,759,759,759,759,759,759,759,759,759,759,759,759,759,759,759,759,759,759,759,759,759,759,759,759,759,759,759,759,760,761,767,769,773,777,780,787,801,821,884,919,962,990,1014,1068,1099,1126,1148,1164,1184,1186,1193,1197,1199,1200,1200,1200,1200,1200,1200,1199,1195,1192,1188,1178,1173,1168,1163,1160,1155],"ymouse":[642,642,642,642,642,642,642,646,650,653,653,653,653,653,653,653,653,653,653,653,653,653,653,653,653,653,653,653,653,653,653,653,653,653,653,653,653,653,653,653,653,653,653,653,653,653,653,653,653,653,653,653,653,653,653,653,653,650,647,640,637,632,621,615,603,583,559,491,453,400,360,315,235,198,164,131,100,27,0,0,0,0,0,0,0,0,0,0,1,6,10,18,34,41,49,55,59,64],"timestamp_mouse":[17,28,46,66,85,106,126,146,166,186,206,226,246,266,286,306,326,345,366,386,406,426,446,466,486,506,527,546,566,587,605,626,646,666,686,706,726,746,765,786,806,826,846,866,886,906,925,946,966,986,1007,1026,1046,1066,1086,1107,1126,1146,1165,1186,1206,1226,1246,1266,1286,1306,1326,1346,1366,1385,1406,1426,1446,1466,1486,1506,1526,1547,1565,1586,1607,1626,1646,1667,1686,1706,1726,1746,1766,1785,1805,1825,1846,1866,1887,1905,1927,1946],"xSR":741.5,"ySR":573.95,"xT1":424.9,"yT1":0,"xT2":1058.1,"yT2":0,"toosoon":0,"cond_shown":"Congruent","ratio_trial":300,"L_num":1,"L_den":3,"R_num":19,"R_den":30,"correct_side":2,"subjID":"RobertoAndresSalhuanaLiton18","gender":"0","school":"6","age":"11"},{"start_time":1551891538031,"click_time":1551891539867,"finger_time":1551891539387,"fix_duration":1482.5521053390123,"trial":4,"RT":1356,"MT":480,"sideResp":2,"stimulus":[],"xmouse":[785,785,785,785,785,785,785,785,785,785,785,785,785,785,785,785,785,785,785,785,785,785,785,785,785,785,785,785,785,785,785,785,785,785,785,785,785,785,785,785,785,785,785,785,785,785,785,785,785,785,785,785,785,785,785,785,785,785,785,785,785,786,787,789,794,800,812,817,824,832,843,867,884,895,905,916,936,945,952,961,978,988,996,1011,1021,1031,1046,1052,1054,1055,1056,1059],"ymouse":[650,650,650,650,650,650,650,650,650,650,650,650,650,650,650,650,650,650,650,650,650,650,650,650,650,650,650,650,650,650,650,650,650,650,650,650,650,650,650,650,650,650,650,650,650,650,650,650,650,650,650,650,650,650,650,650,650,650,650,650,651,650,649,643,634,620,581,561,540,517,493,451,422,401,377,358,318,299,281,260,211,185,160,123,101,82,57,49,45,44,42,40],"timestamp_mouse":[16,36,56,76,95,116,136,156,176,195,217,236,256,276,296,316,337,356,377,396,415,436,456,475,496,516,536,556,576,597,616,636,656,676,697,716,736,756,776,796,816,836,857,876,896,916,937,956,977,996,1016,1036,1056,1076,1096,1116,1136,1157,1176,1196,1216,1235,1256,1276,1296,1316,1337,1356,1377,1396,1417,1436,1456,1475,1496,1516,1536,1557,1577,1596,1617,1636,1656,1676,1696,1716,1736,1756,1777,1795,1817,1836],"xSR":741.5,"ySR":573.95,"xT1":424.9,"yT1":0,"xT2":1058.1,"yT2":0,"toosoon":0,"cond_shown":"Congruent","ratio_trial":100,"L_num":1,"L_den":2,"R_num":3,"R_den":5,"correct_side":2,"subjID":"RobertoAndresSalhuanaLiton18","gender":"0","school":"6","age":"11"},{"start_time":1551891542135,"click_time":1551891546727,"finger_time":1551891546046,"fix_duration":787.4578125981892,"trial":5,"RT":3911,"MT":681,"sideResp":2,"stimulus":[],"xmouse":[816,816,816,816,816,816,816,816,816,816,816,816,816,816,816,816,816,816,816,816,816,816,816,816,816,816,816,816,816,816,816,816,816,816,816,816,816,816,816,816,816,816,816,816,816,816,816,816,816,816,816,816,816,816,816,816,816,816,816,816,816,816,816,816,816,816,816,816,816,816,816,816,816,816,816,816,816,816,816,816,816,817,817,817,817,817,817,817,817,817,817,817,817,817,817,817,817,817,817,817,817,810,807,807,807,807,810,813,813,813,813,813,813,813,814,814,814,814,814,814,814,814,814,814,814,814,814,814,814,814,814,814,814,814,814,814,814,814,814,814,814,814,814,814,814,814,814,814,814,814,814,814,814,814,814,814,814,814,814,814,814,814,814,814,814,814,814,814,814,814,814,814,814,814,814,814,814,814,814,814,814,814,814,814,820,827,837,837,837,837,837,837,837,838,839,843,848,848,848,848,847,828,815,798,781,773,772,772,772,776,793,864,892,908,915,921,935,945,966,986,1006,1038,1043,1058,1067,1074,1074,1074,1075,1075],"ymouse":[651,651,651,651,651,651,651,651,651,651,651,651,651,651,651,651,651,651,651,651,651,651,651,651,651,651,651,651,651,651,651,651,651,651,651,651,651,651,651,651,651,651,651,651,651,651,651,651,651,651,651,651,651,651,651,651,651,651,651,651,651,651,651,651,651,651,651,651,651,651,651,651,651,651,651,651,651,651,650,648,645,640,640,638,638,637,635,634,632,631,630,630,630,630,630,630,630,630,630,630,629,622,620,620,620,622,637,648,648,648,648,648,648,648,648,648,648,648,648,648,648,648,648,648,648,648,648,648,648,648,648,648,648,648,648,648,648,648,648,648,648,648,648,648,648,648,648,648,648,648,648,648,648,648,648,648,648,648,648,648,648,648,648,648,648,648,648,648,648,648,648,648,648,648,648,648,648,648,648,648,648,648,648,648,628,614,596,596,596,596,596,596,596,596,595,592,586,586,586,586,585,560,526,483,453,439,437,435,422,398,360,275,247,227,212,195,159,139,107,83,57,20,11,0,0,0,0,0,0,5],"timestamp_mouse":[12,33,53,73,92,111,132,152,172,193,212,232,252,272,292,312,332,352,372,391,412,432,452,471,492,512,532,553,572,592,611,632,652,672,692,712,733,752,772,792,812,832,851,872,891,912,932,952,973,992,1012,1033,1052,1072,1092,1113,1131,1153,1172,1192,1212,1232,1252,1272,1292,1313,1332,1352,1371,1393,1412,1431,1452,1472,1492,1512,1532,1553,1571,1592,1612,1633,1652,1672,1692,1712,1732,1751,1772,1792,1813,1832,1851,1871,1892,1912,1933,1952,1972,1991,2012,2032,2052,2072,2092,2113,2132,2152,2172,2192,2212,2232,2252,2272,2292,2312,2333,2352,2371,2392,2412,2432,2452,2472,2493,2512,2532,2552,2572,2592,2612,2632,2652,2672,2692,2712,2732,2751,2771,2792,2812,2833,2851,2872,2893,2911,2932,2953,2972,2991,3012,3032,3052,3072,3092,3112,3132,3152,3173,3191,3212,3232,3252,3272,3293,3312,3332,3352,3372,3392,3412,3432,3453,3472,3492,3512,3532,3553,3572,3592,3611,3632,3652,3673,3692,3712,3732,3752,3772,3792,3813,3832,3852,3872,3892,3911,3932,3952,3972,3992,4012,4032,4052,4072,4092,4112,4132,4152,4172,4192,4212,4233,4253,4272,4292,4311,4332,4352,4372,4392,4412,4432,4452,4473,4492,4512,4533,4552,4572,4592],"xSR":741.5,"ySR":573.95,"xT1":424.9,"yT1":0,"xT2":1058.1,"yT2":0,"toosoon":0,"cond_shown":"Congruent","ratio_trial":200,"L_num":13,"L_den":26,"R_num":14,"R_den":20,"correct_side":2,"subjID":"RobertoAndresSalhuanaLiton18","gender":"0","school":"6","age":"11"},{"start_time":1551891551414,"click_time":1551891553287,"finger_time":1551891552827,"fix_duration":566.8966810246643,"trial":6,"RT":1413,"MT":460,"sideResp":2,"stimulus":[],"xmouse":[784,784,784,784,784,784,784,784,784,784,784,784,784,784,784,784,784,784,784,784,784,784,784,784,784,784,784,784,784,784,784,784,784,784,784,784,784,784,784,784,784,784,784,784,784,784,784,784,784,784,784,784,784,784,784,784,784,784,784,784,784,784,784,784,786,788,793,808,819,836,855,875,912,923,929,936,949,987,1007,1028,1039,1043,1048,1050,1053,1053,1053,1053,1053,1053,1053,1053,1058,1066],"ymouse":[658,658,658,658,658,658,658,658,658,658,658,658,658,658,658,658,658,658,658,658,658,658,658,658,658,658,658,658,658,658,658,658,658,658,658,658,658,658,658,658,658,658,658,658,658,658,658,658,658,658,658,658,658,658,658,658,658,658,658,658,658,658,658,658,656,652,642,618,601,581,559,529,459,388,347,303,249,149,107,59,25,0,0,0,0,0,0,0,0,0,0,0,5,24],"timestamp_mouse":[13,33,53,73,93,113,133,152,173,193,213,233,253,274,292,312,332,352,372,392,412,432,452,473,494,513,533,553,573,593,613,633,653,673,692,713,733,753,774,792,813,833,853,874,893,913,932,953,973,992,1013,1032,1053,1073,1093,1114,1132,1153,1173,1193,1213,1233,1253,1273,1293,1312,1333,1353,1373,1393,1413,1433,1453,1474,1492,1513,1533,1554,1573,1593,1612,1633,1653,1673,1693,1713,1734,1754,1772,1793,1813,1833,1852,1872],"xSR":741.5,"ySR":573.95,"xT1":424.9,"yT1":0,"xT2":1058.1,"yT2":0,"toosoon":0,"cond_shown":"Congruent","ratio_trial":100,"L_num":7,"L_den":14,"R_num":15,"R_den":25,"correct_side":2,"subjID":"RobertoAndresSalhuanaLiton18","gender":"0","school":"6","age":"11"},{"start_time":1551891554963,"click_time":1551891560867,"finger_time":1551891560147,"fix_duration":495.6913305832349,"trial":7,"RT":5184,"MT":720,"sideResp":1,"stimulus":[],"xmouse":[791,791,791,791,791,791,791,791,791,791,791,791,791,791,791,791,791,791,791,791,791,791,791,791,791,791,791,791,791,791,791,791,791,791,791,791,791,791,791,791,791,791,791,791,791,791,791,791,791,791,791,791,791,791,791,791,791,791,791,791,791,791,791,791,791,791,791,791,791,791,791,791,791,791,791,791,791,791,791,791,791,791,791,791,791,791,791,791,791,791,791,791,791,791,791,791,791,791,791,791,791,791,791,791,791,791,791,791,791,791,791,791,791,791,791,791,791,791,791,791,791,791,791,791,791,791,791,791,791,791,791,791,791,791,791,791,791,791,791,791,791,791,791,791,791,791,791,791,791,791,791,791,791,791,791,791,791,791,791,791,791,791,791,791,791,791,791,791,791,791,791,791,791,791,791,791,791,791,791,791,791,791,791,791,791,791,791,791,791,791,791,791,791,791,791,791,791,791,791,791,791,791,790,787,784,784,784,784,784,784,784,784,784,784,784,784,782,781,781,781,780,780,779,779,779,779,779,779,779,779,779,779,779,779,779,779,779,779,779,779,779,779,779,779,779,779,779,779,779,779,779,779,779,778,776,759,756,755,753,752,744,738,733,728,711,698,688,679,674,665,661,657,652,649,643,641,638,632,630,626,614,609,603,598,590,584,579,573,567,561,555,551,543,529,516,491],"ymouse":[631,631,631,631,631,631,631,631,631,631,631,631,631,631,631,631,631,631,631,631,631,631,631,631,631,631,631,631,631,631,631,631,631,631,631,631,631,631,631,631,631,631,631,631,631,631,631,631,631,631,631,631,631,631,631,631,631,631,631,631,631,631,631,631,631,631,631,631,631,631,631,631,631,631,631,631,631,631,631,631,631,631,631,631,631,631,631,631,631,631,631,631,631,631,631,631,631,631,631,631,631,631,631,631,631,631,631,631,631,631,631,631,631,631,631,631,631,631,631,631,631,631,631,631,631,631,631,631,631,631,631,631,631,631,631,631,631,631,631,631,631,631,631,631,631,631,631,631,631,631,631,631,631,631,631,631,631,631,631,631,631,631,631,631,631,631,631,631,631,631,631,631,631,631,631,631,631,631,631,631,631,631,631,631,631,631,631,631,631,631,631,631,631,631,631,631,631,631,631,631,631,631,628,625,622,622,622,622,622,622,622,622,622,622,622,622,621,619,617,616,616,615,614,613,613,613,613,613,613,613,613,613,613,613,613,613,613,613,613,613,613,613,613,613,613,613,613,613,613,613,613,613,613,612,611,602,595,586,579,571,552,543,535,528,510,498,491,482,477,467,459,451,444,438,426,423,416,403,397,386,360,349,335,323,300,287,276,258,243,227,202,189,172,149,130,96],"timestamp_mouse":[16,27,44,64,84,105,123,145,164,184,204,224,243,263,283,304,324,344,364,384,403,424,444,464,483,503,524,544,564,584,603,625,644,663,684,705,724,744,764,784,804,824,844,865,885,904,924,944,964,984,1004,1024,1044,1064,1084,1104,1124,1144,1164,1184,1203,1224,1245,1264,1284,1304,1325,1345,1364,1385,1405,1424,1443,1465,1483,1504,1524,1544,1565,1583,1604,1625,1644,1663,1683,1704,1723,1744,1764,1784,1804,1823,1845,1863,1884,1905,1925,1945,1964,1984,2004,2024,2044,2064,2084,2104,2124,2144,2164,2184,2204,2224,2244,2264,2284,2304,2324,2345,2364,2383,2404,2425,2444,2464,2485,2504,2524,2544,2565,2584,2604,2624,2644,2664,2684,2704,2724,2744,2764,2784,2805,2824,2844,2864,2884,2904,2923,2944,2964,2984,3004,3024,3044,3064,3084,3104,3124,3144,3164,3184,3204,3224,3244,3264,3284,3305,3323,3344,3365,3383,3405,3425,3443,3464,3483,3504,3524,3544,3564,3583,3604,3625,3643,3664,3685,3704,3725,3745,3763,3784,3805,3824,3845,3864,3884,3904,3924,3944,3964,3984,4004,4024,4044,4063,4084,4105,4124,4144,4163,4184,4204,4224,4245,4263,4284,4304,4324,4344,4365,4384,4405,4424,4444,4464,4485,4505,4524,4544,4564,4585,4604,4624,4644,4664,4683,4704,4724,4744,4764,4783,4805,4824,4843,4864,4884,4905,4924,4945,4964,4984,5004,5023,5044,5064,5083,5104,5124,5144,5164,5184,5204,5225,5244,5263,5285,5304,5324,5344,5364,5385,5404,5423,5444,5463,5485,5503,5524,5543,5564,5584,5603,5624,5643,5663,5685,5703,5724,5745,5764,5783,5803,5824,5844,5863,5884,5904],"xSR":741.5,"ySR":573.95,"xT1":424.9,"yT1":0,"xT2":1058.1,"yT2":0,"toosoon":0,"cond_shown":"Congruent","ratio_trial":100,"L_num":6,"L_den":20,"R_num":5,"R_den":25,"correct_side":1,"subjID":"RobertoAndresSalhuanaLiton18","gender":"0","school":"6","age":"11"},{"start_time":1551891564736,"click_time":1551891567227,"finger_time":1551891566288,"fix_duration":1186.53302576403,"trial":8,"RT":1552,"MT":939,"sideResp":1,"stimulus":[],"xmouse":[792,792,792,792,792,792,792,792,792,792,792,792,792,792,792,792,792,792,792,792,792,792,792,792,792,792,792,792,792,792,792,792,792,792,792,792,792,792,792,792,792,792,792,792,792,792,792,792,792,792,792,792,792,792,792,792,792,792,792,792,792,792,792,792,792,792,790,785,769,761,758,755,755,755,754,753,743,730,713,702,696,693,693,693,692,689,677,667,654,649,646,640,637,630,618,610,597,593,589,587,581,563,551,542,535,526,522,521,515,506,493,493,493,493,493,493,493,493,493,493,493,494,496,499,504],"ymouse":[633,633,633,633,633,633,633,633,633,633,633,633,633,633,633,633,633,633,633,633,633,633,633,633,633,633,633,633,633,633,633,633,633,633,633,633,633,633,633,633,633,633,633,633,633,633,633,633,633,633,633,633,633,633,633,633,633,633,633,633,633,633,633,633,633,633,630,623,609,603,600,597,596,595,594,592,575,558,536,523,515,509,509,509,507,503,481,463,440,427,419,399,392,379,362,352,334,329,323,319,310,280,267,255,244,227,218,210,193,177,146,139,137,137,137,137,137,137,137,136,133,127,118,105,92],"timestamp_mouse":[25,31,51,71,90,111,131,151,172,191,211,231,251,271,291,311,331,351,371,390,411,431,452,471,491,510,531,551,571,591,611,630,651,671,691,711,731,751,771,791,812,832,851,870,891,911,931,952,970,991,1012,1030,1051,1071,1091,1111,1131,1151,1171,1191,1210,1231,1252,1271,1291,1311,1331,1351,1370,1391,1411,1431,1452,1471,1491,1512,1531,1552,1572,1591,1611,1631,1652,1671,1690,1712,1730,1751,1771,1790,1811,1831,1850,1872,1892,1912,1931,1951,1971,1990,2011,2030,2050,2071,2091,2112,2131,2152,2171,2192,2212,2230,2251,2271,2291,2312,2331,2351,2371,2391,2410,2430,2451,2471,2491],"xSR":741.5,"ySR":573.95,"xT1":424.9,"yT1":0,"xT2":1058.1,"yT2":0,"toosoon":0,"cond_shown":"Congruent","ratio_trial":300,"L_num":12,"L_den":24,"R_num":2,"R_den":10,"correct_side":1,"subjID":"RobertoAndresSalhuanaLiton18","gender":"0","school":"6","age":"11"},{"start_time":1551891569744,"click_time":1551891571486,"finger_time":1551891570886,"fix_duration":1337.1636604874373,"trial":9,"RT":1142,"MT":600,"sideResp":2,"stimulus":[],"xmouse":[763,763,763,763,763,763,763,763,763,763,763,763,763,763,763,763,763,763,763,763,763,763,763,763,763,763,763,763,763,763,763,763,763,763,763,763,763,763,763,763,763,763,763,763,763,763,763,763,763,763,763,763,763,765,774,791,839,872,887,895,902,913,918,925,930,936,944,947,947,948,948,958,970,981,993,1004,1023,1032,1042,1058,1068,1089,1097,1103,1107,1110,1113,1115],"ymouse":[643,643,643,643,643,643,643,643,643,643,643,643,643,643,643,643,643,643,643,643,643,643,643,643,643,643,643,643,643,643,643,643,643,643,643,643,643,643,643,643,643,643,643,643,643,643,643,643,643,643,643,643,643,641,633,620,598,578,567,560,554,539,532,522,515,505,485,477,476,473,468,446,429,413,397,382,344,322,299,263,237,188,169,154,145,139,115,94],"timestamp_mouse":[8,32,42,62,83,102,122,142,163,182,202,222,242,263,282,302,323,342,362,382,402,422,442,462,482,502,522,543,562,582,603,623,642,662,683,703,722,742,762,784,802,822,842,862,883,902,922,942,962,983,1002,1022,1042,1062,1082,1102,1122,1142,1163,1182,1202,1222,1242,1262,1282,1302,1322,1342,1362,1382,1402,1422,1442,1462,1482,1502,1524,1542,1562,1582,1602,1622,1642,1662,1682,1703,1722,1742],"xSR":741.5,"ySR":573.95,"xT1":424.9,"yT1":0,"xT2":1058.1,"yT2":0,"toosoon":0,"cond_shown":"Congruent","ratio_trial":300,"L_num":3,"L_den":12,"R_num":11,"R_den":20,"correct_side":2,"subjID":"RobertoAndresSalhuanaLiton18","gender":"0","school":"6","age":"11"},{"start_time":1551891575545,"click_time":1551891578166,"finger_time":1551891577786,"fix_duration":1058.792604953933,"trial":10,"RT":2241,"MT":380,"sideResp":2,"stimulus":[],"xmouse":[800,800,800,800,800,800,800,800,800,800,800,800,800,800,800,800,800,800,800,800,800,800,800,800,800,800,800,800,800,800,800,800,800,800,800,800,800,800,800,800,800,800,800,800,800,800,800,800,800,800,800,800,800,800,800,800,800,800,800,800,800,800,800,800,800,800,800,800,800,800,800,800,800,800,800,800,800,800,800,800,800,800,800,800,800,800,800,800,800,800,800,800,800,800,800,800,800,800,800,800,800,800,800,800,800,800,800,800,800,799,798,798,798,802,804,808,808,810,815,832,874,892,911,926,945,987,1014,1038,1060,1087,1100,1117],"ymouse":[618,618,618,618,618,618,618,618,618,618,618,618,618,618,618,618,618,618,618,618,618,618,618,618,618,618,618,618,618,618,618,618,618,618,618,618,618,618,618,618,618,618,618,618,618,618,618,618,618,618,618,618,618,618,618,618,618,618,618,618,618,618,618,618,618,618,618,618,618,618,618,618,618,618,618,618,618,618,618,618,618,618,618,618,618,618,618,618,618,618,618,618,618,618,618,618,618,618,618,618,618,618,618,618,618,618,618,618,616,612,590,576,559,539,519,490,478,464,446,413,366,350,337,324,309,272,250,229,207,169,146,89],"timestamp_mouse":[6,31,41,61,81,102,121,141,161,182,201,221,241,263,281,301,321,341,361,381,401,422,442,461,482,501,522,541,561,582,601,621,642,662,681,701,721,741,761,782,801,821,841,862,882,902,922,941,961,981,1001,1021,1041,1061,1082,1101,1121,1141,1162,1183,1202,1222,1242,1261,1281,1302,1321,1341,1361,1381,1401,1421,1442,1462,1482,1501,1523,1541,1561,1581,1601,1621,1641,1661,1682,1701,1721,1742,1761,1782,1802,1822,1841,1861,1881,1901,1921,1941,1961,1981,2001,2022,2041,2061,2081,2101,2121,2141,2161,2181,2202,2222,2241,2261,2281,2302,2321,2342,2362,2381,2402,2421,2442,2462,2483,2502,2521,2542,2561,2581,2601,2621],"xSR":741.5,"ySR":573.95,"xT1":424.9,"yT1":0,"xT2":1058.1,"yT2":0,"toosoon":0,"cond_shown":"Incongruent","ratio_trial":200,"L_num":7,"L_den":15,"R_num":6,"R_den":9,"correct_side":2,"subjID":"RobertoAndresSalhuanaLiton18","gender":"0","school":"6","age":"11"},{"start_time":1551891580112,"click_time":1551891583206,"finger_time":1551891582307,"fix_duration":844.4763624757923,"trial":11,"RT":2195,"MT":899,"sideResp":1,"stimulus":[],"xmouse":[769,769,769,769,769,769,769,769,769,769,769,769,769,769,769,769,769,769,769,769,769,769,769,769,769,769,769,769,769,769,769,769,769,769,769,769,769,769,769,769,769,769,769,769,769,769,769,769,769,769,769,769,769,769,769,769,769,769,769,769,769,769,769,769,769,769,769,769,769,769,769,769,769,769,769,769,769,769,769,769,769,769,769,769,769,769,769,769,769,769,769,769,769,769,769,769,769,769,769,769,769,769,769,769,769,769,768,754,743,726,694,663,615,603,598,595,593,593,596,598,600,600,598,595,589,583,569,565,565,565,561,559,553,553,553,552,551,549,546,542,539,538,536,535,535,534,533,533,533,533,533,533,532,526,515],"ymouse":[629,629,629,629,629,629,629,629,629,629,629,629,629,629,629,629,629,629,629,629,629,629,629,629,629,629,629,629,629,629,629,629,629,629,629,629,629,629,629,629,629,629,629,629,629,629,629,629,629,629,629,629,629,629,629,629,629,629,629,629,629,629,629,629,629,629,629,629,629,629,629,629,629,629,629,629,629,629,629,629,629,629,629,629,629,629,629,629,629,629,629,629,629,629,629,629,629,629,629,629,629,629,629,629,629,629,629,615,607,595,573,550,513,500,486,466,445,396,368,336,304,264,233,223,214,204,187,180,176,173,164,157,143,140,138,136,129,116,100,67,59,43,40,39,38,38,38,38,38,38,38,38,38,40,44],"timestamp_mouse":[14,35,55,75,94,114,135,154,174,196,216,234,256,274,294,316,334,354,376,394,414,434,454,475,494,514,534,554,574,594,615,634,654,674,694,714,734,756,775,794,815,834,854,874,894,914,934,954,974,994,1014,1035,1054,1075,1094,1114,1134,1154,1175,1194,1215,1236,1254,1275,1295,1314,1335,1355,1375,1395,1414,1435,1454,1474,1494,1514,1534,1555,1576,1594,1614,1635,1654,1676,1694,1715,1734,1754,1774,1795,1814,1834,1854,1874,1894,1915,1935,1954,1974,1994,2014,2034,2055,2075,2094,2114,2134,2154,2175,2195,2214,2234,2254,2274,2294,2314,2334,2354,2375,2395,2414,2434,2454,2474,2494,2514,2535,2554,2574,2594,2614,2634,2655,2674,2694,2715,2735,2754,2775,2794,2815,2834,2854,2875,2895,2914,2935,2955,2974,2995,3014,3035,3054,3076,3094],"xSR":741.5,"ySR":573.95,"xT1":424.9,"yT1":0,"xT2":1058.1,"yT2":0,"toosoon":0,"cond_shown":"Incongruent","ratio_trial":300,"L_num":8,"L_den":10,"R_num":9,"R_den":18,"correct_side":1,"subjID":"RobertoAndresSalhuanaLiton18","gender":"0","school":"6","age":"11"},{"start_time":1551891585479,"click_time":1551891587887,"finger_time":1551891587208,"fix_duration":1391.8679569524284,"trial":12,"RT":1729,"MT":679,"sideResp":1,"stimulus":[],"xmouse":[784,784,784,784,784,784,784,784,784,784,784,784,784,784,784,784,784,784,784,784,784,784,784,784,784,784,784,784,784,784,784,784,784,784,784,784,784,784,784,784,784,784,784,784,784,784,784,784,784,784,784,784,784,784,784,784,784,784,784,784,784,784,784,784,784,784,784,784,784,784,784,784,784,784,784,784,784,784,784,784,784,784,784,784,778,742,698,667,611,587,563,537,530,506,485,479,472,465,459,448,443,432,428,413,395,391,388,386,380,379,379,379,379,381,385,389,394,402,410,424,430],"ymouse":[638,638,638,638,638,638,638,638,638,638,638,638,638,638,638,638,638,638,638,638,638,638,638,638,638,638,638,638,638,638,638,638,638,638,638,638,638,638,638,638,638,638,638,638,638,638,638,638,638,638,638,638,638,638,638,638,638,638,638,638,638,638,638,638,638,638,638,638,638,638,638,638,638,638,638,638,638,638,638,638,638,638,638,638,632,612,590,575,540,526,511,492,486,459,424,409,395,380,365,331,310,279,268,234,193,177,164,152,142,141,141,141,141,138,132,127,120,112,105,95,90],"timestamp_mouse":[7,30,49,68,87,107,127,147,169,187,207,227,247,267,289,307,328,348,369,387,407,428,447,467,489,509,527,548,568,587,608,627,647,668,687,707,728,747,767,787,807,827,847,867,889,908,927,947,967,987,1007,1027,1048,1067,1087,1107,1127,1147,1167,1188,1207,1227,1247,1267,1287,1308,1329,1347,1367,1387,1407,1427,1447,1468,1487,1507,1527,1547,1567,1587,1607,1627,1647,1667,1687,1709,1729,1748,1768,1787,1807,1829,1847,1867,1888,1908,1927,1949,1968,1987,2007,2029,2047,2067,2087,2108,2127,2147,2167,2187,2207,2227,2247,2267,2288,2308,2328,2348,2368,2387,2408],"xSR":741.5,"ySR":573.95,"xT1":424.9,"yT1":0,"xT2":1058.1,"yT2":0,"toosoon":0,"cond_shown":"Incongruent","ratio_trial":300,"L_num":4,"L_den":20,"R_num":2,"R_den":4,"correct_side":2,"subjID":"RobertoAndresSalhuanaLiton18","gender":"0","school":"6","age":"11"},{"start_time":1551891591300,"click_time":1551891593986,"finger_time":1551891592846,"fix_duration":713.6163742059265,"trial":13,"RT":1546,"MT":1140,"sideResp":1,"stimulus":[],"xmouse":[828,828,828,828,828,828,828,828,828,828,828,828,828,828,828,828,828,828,828,828,828,828,828,828,828,828,828,828,828,828,828,827,825,819,815,810,809,809,809,809,809,809,809,809,809,809,809,809,809,809,809,809,809,808,806,805,805,804,803,802,801,800,800,800,800,800,800,800,800,800,800,800,797,793,789,780,770,758,721,702,690,678,674,670,668,667,665,658,653,650,645,640,619,609,606,606,606,605,605,605,605,605,591,582,570,557,545,526,520,514,512,510,510,513,523,533,539,543,546,546,546,546,545,545,545,545,543,542,542,541,540,538,535,531,516],"ymouse":[621,621,621,621,621,621,621,621,621,621,621,621,621,621,621,621,621,621,621,621,621,621,621,621,621,621,621,621,621,621,621,622,624,628,630,632,632,632,632,632,632,632,632,632,632,632,632,632,632,632,632,632,632,632,630,628,628,627,628,630,634,635,635,635,635,635,635,635,635,635,635,635,634,626,615,598,578,553,484,450,428,404,395,383,378,372,364,339,324,311,298,289,273,271,270,270,270,270,270,270,270,270,250,237,224,209,191,163,154,143,137,134,132,131,138,144,147,147,141,131,121,112,105,104,103,103,101,100,100,100,100,100,98,94,85],"timestamp_mouse":[10,28,46,67,87,107,126,147,166,186,207,226,246,268,286,307,327,346,367,386,406,426,446,467,486,506,527,546,566,586,607,626,646,667,688,706,726,747,767,786,806,826,846,867,886,906,927,946,966,986,1006,1026,1046,1066,1087,1106,1126,1146,1166,1186,1206,1226,1247,1267,1286,1306,1326,1346,1366,1386,1406,1426,1446,1466,1488,1506,1527,1546,1566,1586,1606,1627,1646,1666,1686,1706,1726,1746,1766,1787,1808,1827,1847,1866,1887,1906,1927,1947,1966,1986,2006,2026,2046,2067,2087,2106,2126,2146,2166,2186,2206,2226,2246,2266,2287,2306,2328,2347,2367,2386,2408,2427,2446,2466,2487,2506,2526,2547,2567,2586,2606,2626,2647,2666,2686],"xSR":741.5,"ySR":573.95,"xT1":424.9,"yT1":0,"xT2":1058.1,"yT2":0,"toosoon":0,"cond_shown":"Congruent","ratio_trial":100,"L_num":8,"L_den":16,"R_num":2,"R_den":5,"correct_side":1,"subjID":"RobertoAndresSalhuanaLiton18","gender":"0","school":"6","age":"11"},{"start_time":1551891597452,"click_time":1551891600147,"finger_time":1551891599747,"fix_duration":843.2648922499056,"trial":14,"RT":2295,"MT":400,"sideResp":2,"stimulus":[],"xmouse":[819,819,819,819,819,819,819,819,819,819,819,819,819,819,819,819,817,815,814,813,813,813,813,813,813,813,813,813,813,813,813,813,813,813,813,813,813,813,813,813,813,813,813,813,813,813,813,813,813,813,813,813,813,813,813,813,813,813,813,813,813,813,813,813,813,813,813,813,813,813,813,811,810,808,808,808,808,808,808,808,808,808,808,808,808,808,808,808,808,808,808,808,808,808,808,808,808,808,808,808,808,808,808,808,808,808,807,807,807,811,813,815,817,822,842,844,842,829,821,818,818,823,837,861,968,1003,1019,1023,1026,1034,1042,1049,1054,1056,1059],"ymouse":[642,642,642,642,642,642,642,642,642,642,642,642,642,642,642,641,641,641,641,641,641,641,641,641,641,641,641,641,641,641,641,641,641,641,641,641,641,641,641,641,641,641,641,641,641,641,641,641,641,641,641,641,641,641,641,641,641,641,641,641,641,641,641,641,641,641,641,641,641,641,641,641,641,641,641,641,641,641,641,641,641,641,641,641,641,641,641,641,641,641,641,641,641,641,641,641,641,641,641,641,641,641,641,641,641,641,640,637,633,625,622,616,611,600,556,535,506,467,439,379,354,328,304,275,221,205,190,170,151,120,108,99,92,87,61],"timestamp_mouse":[25,34,54,74,95,114,134,154,174,194,214,235,254,274,294,315,335,354,374,395,414,434,454,475,494,514,536,554,574,594,614,635,654,674,694,715,734,755,774,794,814,834,855,874,894,914,934,954,974,994,1014,1034,1055,1075,1094,1114,1134,1154,1174,1194,1216,1234,1254,1275,1295,1314,1334,1354,1374,1394,1414,1435,1456,1474,1495,1514,1534,1554,1574,1595,1614,1634,1654,1674,1694,1714,1734,1754,1774,1795,1814,1834,1855,1874,1894,1914,1934,1954,1974,1994,2014,2034,2054,2075,2094,2114,2136,2154,2175,2194,2214,2235,2256,2274,2295,2316,2335,2354,2375,2394,2415,2434,2455,2475,2494,2516,2535,2555,2576,2594,2615,2634,2655,2674,2695],"xSR":741.5,"ySR":573.95,"xT1":424.9,"yT1":0,"xT2":1058.1,"yT2":0,"toosoon":0,"cond_shown":"Incongruent","ratio_trial":300,"L_num":4,"L_den":20,"R_num":2,"R_den":4,"correct_side":2,"subjID":"RobertoAndresSalhuanaLiton18","gender":"0","school":"6","age":"11"},{"start_time":1551891607202,"click_time":1551891609528,"finger_time":1551891608806,"fix_duration":975.3534882147799,"trial":15,"RT":1604,"MT":722,"sideResp":1,"stimulus":[],"xmouse":[781,781,781,781,781,781,781,781,781,781,781,781,781,781,781,781,781,781,781,781,781,781,781,781,781,781,781,781,781,781,781,781,781,781,781,781,781,781,781,781,781,781,781,781,781,781,781,781,781,781,781,781,781,781,781,781,781,781,781,781,781,781,781,781,781,781,781,781,781,781,781,781,781,781,781,781,781,778,774,766,757,747,738,726,721,712,704,690,687,685,682,678,668,661,655,649,641,617,601,585,568,552,528,518,508,499,495,494,492,492,491,490,488,486,486,484,482],"ymouse":[610,610,610,610,610,610,610,610,610,610,610,610,610,610,610,610,610,610,610,610,610,610,610,610,610,610,610,610,610,610,610,610,610,610,610,610,610,610,610,610,610,610,610,610,610,610,610,610,610,610,610,610,610,610,610,610,610,610,610,610,610,610,610,610,610,610,610,610,610,610,610,610,610,610,610,610,610,608,597,579,556,532,507,467,448,428,410,375,363,355,350,344,329,319,306,293,277,244,222,206,194,185,172,168,164,163,162,162,160,157,150,144,131,121,112,102,92],"timestamp_mouse":[10,30,44,65,84,104,124,145,164,184,204,224,244,264,284,304,324,344,364,385,404,424,444,464,484,505,524,544,564,584,604,625,645,666,684,704,726,744,764,784,805,824,844,864,884,904,924,944,964,984,1005,1024,1044,1064,1085,1104,1124,1144,1164,1185,1204,1224,1244,1264,1285,1305,1324,1344,1364,1384,1406,1424,1444,1464,1486,1504,1524,1544,1566,1586,1604,1624,1644,1665,1686,1706,1725,1744,1765,1785,1804,1824,1845,1866,1885,1906,1924,1944,1965,1984,2004,2026,2044,2064,2084,2105,2125,2145,2164,2185,2204,2224,2244,2264,2284,2305,2325],"xSR":741.5,"ySR":573.95,"xT1":424.9,"yT1":0,"xT2":1058.1,"yT2":0,"toosoon":0,"cond_shown":"Incongruent","ratio_trial":100,"L_num":11,"L_den":22,"R_num":9,"R_den":15,"correct_side":2,"subjID":"RobertoAndresSalhuanaLiton18","gender":"0","school":"6","age":"11"},{"start_time":1551891613662,"click_time":1551891616308,"finger_time":1551891615288,"fix_duration":874.8349562612232,"trial":16,"RT":1626,"MT":1020,"sideResp":1,"stimulus":[],"xmouse":[776,776,776,776,776,776,776,776,776,776,776,776,776,776,776,776,776,776,776,776,776,776,776,776,776,776,776,776,776,776,776,776,776,776,776,776,776,776,776,776,776,776,776,776,776,776,776,776,776,776,776,776,776,776,776,776,776,776,776,776,776,776,776,776,776,776,776,776,776,776,776,776,776,776,776,776,776,776,772,762,753,748,741,730,724,718,709,699,689,671,668,665,664,662,653,649,644,640,633,619,617,616,615,614,609,606,602,598,595,585,581,576,566,558,542,538,536,535,535,535,535,535,535,535,535,535,535,535,535,535,530,523,514],"ymouse":[626,626,626,626,626,626,626,626,626,626,626,626,626,626,626,626,626,626,626,626,626,626,626,626,626,626,626,626,626,626,626,626,626,626,626,626,626,626,626,626,626,626,626,626,626,626,626,626,626,626,626,626,626,626,626,626,626,626,626,626,626,626,626,626,626,626,626,626,626,626,626,626,626,626,626,626,626,626,621,598,576,554,532,478,459,443,423,399,374,309,280,258,238,225,205,193,183,173,158,134,128,124,121,120,116,115,114,114,114,114,113,113,112,112,112,112,112,112,112,112,112,112,112,112,112,112,112,112,112,112,111,105,98],"timestamp_mouse":[8,30,44,64,84,104,124,144,164,184,204,224,244,266,285,304,324,344,364,384,404,424,445,464,484,504,524,545,564,585,604,624,644,664,684,704,724,744,765,785,805,824,846,865,884,904,924,944,964,984,1005,1024,1044,1064,1084,1104,1124,1144,1164,1184,1205,1224,1245,1264,1284,1304,1325,1344,1364,1384,1404,1424,1444,1464,1486,1504,1524,1544,1564,1585,1605,1626,1646,1668,1685,1704,1725,1745,1765,1784,1805,1824,1844,1864,1884,1905,1925,1945,1965,1984,2005,2025,2044,2064,2084,2105,2125,2144,2165,2184,2205,2225,2245,2264,2284,2305,2324,2344,2364,2384,2404,2425,2444,2464,2484,2504,2525,2544,2564,2585,2604,2624,2646],"xSR":741.5,"ySR":573.95,"xT1":424.9,"yT1":0,"xT2":1058.1,"yT2":0,"toosoon":0,"cond_shown":"Congruent","ratio_trial":200,"L_num":15,"L_den":25,"R_num":4,"R_den":10,"correct_side":1,"subjID":"RobertoAndresSalhuanaLiton18","gender":"0","school":"6","age":"11"},{"start_time":1551891619012,"click_time":1551891620746,"finger_time":1551891620347,"fix_duration":1283.2874928249723,"trial":17,"RT":1335,"MT":399,"sideResp":2,"stimulus":[],"xmouse":[777,777,777,777,777,777,777,777,777,777,777,777,777,777,777,777,777,777,777,777,777,777,777,777,777,777,777,777,777,777,777,777,777,777,777,777,777,777,777,777,777,777,777,777,777,777,777,777,777,777,777,777,777,777,777,777,777,777,777,777,777,777,777,778,783,795,834,851,871,897,928,983,1005,1025,1040,1054,1069,1082,1090,1101,1112,1129,1133,1134,1134,1134,1139],"ymouse":[632,632,632,632,632,632,632,632,632,632,632,632,632,632,632,632,632,632,632,632,632,632,632,632,632,632,632,632,632,632,632,632,632,632,632,632,632,632,632,632,632,632,632,632,632,632,632,632,632,632,632,632,632,632,632,632,632,632,632,632,632,632,632,627,618,600,546,526,502,474,447,404,387,370,356,343,318,296,279,259,238,198,175,148,122,102,71],"timestamp_mouse":[15,34,54,74,94,115,136,156,176,194,214,234,254,274,294,315,334,354,374,394,415,435,454,474,494,514,534,554,574,594,614,634,655,674,694,714,734,754,774,794,815,836,854,874,895,914,936,954,975,994,1014,1035,1054,1074,1094,1114,1134,1154,1174,1195,1214,1234,1254,1274,1295,1314,1335,1356,1374,1395,1414,1434,1454,1476,1494,1515,1535,1556,1574,1594,1615,1634,1654,1675,1694,1714,1734],"xSR":741.5,"ySR":573.95,"xT1":424.9,"yT1":0,"xT2":1058.1,"yT2":0,"toosoon":0,"cond_shown":"Congruent","ratio_trial":100,"L_num":6,"L_den":12,"R_num":15,"R_den":25,"correct_side":2,"subjID":"RobertoAndresSalhuanaLiton18","gender":"0","school":"6","age":"11"},{"start_time":1551891622919,"click_time":1551891625647,"finger_time":1551891625147,"fix_duration":250,"trial":18,"RT":2228,"MT":500,"sideResp":1,"stimulus":[],"xmouse":[804,804,804,804,804,804,804,804,804,804,804,804,804,804,804,804,804,804,804,804,804,804,804,804,804,804,804,804,804,804,804,804,804,804,804,804,804,804,804,804,804,804,804,804,804,804,804,804,804,804,804,804,804,804,804,804,804,804,804,804,804,804,804,804,804,804,804,804,804,804,804,804,804,804,804,804,804,804,804,804,804,804,804,802,790,782,769,765,764,764,764,764,764,764,764,764,764,764,762,761,759,755,754,754,754,754,754,754,754,754,753,747,744,736,728,722,722,724,725,725,721,716,716,716,716,716,709,702,692,678,664,625,587,563,544,528,507],"ymouse":[618,618,618,618,618,618,618,618,618,618,618,618,618,618,618,618,618,618,618,618,618,618,618,618,618,618,618,618,618,618,618,618,618,618,618,618,618,618,618,618,618,618,618,618,618,618,618,618,618,618,618,618,618,618,618,618,618,618,618,618,618,618,618,618,618,618,618,618,618,618,618,618,618,618,618,618,618,618,618,618,618,618,618,618,615,613,609,609,609,609,609,609,609,609,609,609,609,609,608,607,605,600,599,598,597,597,597,597,597,593,591,560,533,481,421,365,296,266,245,225,208,172,158,140,123,107,83,73,64,59,56,51,46,42,40,39,38],"timestamp_mouse":[10,38,47,67,87,107,127,147,167,187,207,228,247,267,287,307,327,348,368,387,407,427,448,467,488,507,529,549,567,588,607,627,647,667,687,708,727,748,767,787,807,827,847,867,887,907,928,948,967,987,1007,1028,1047,1067,1087,1107,1127,1147,1167,1187,1207,1228,1248,1267,1287,1307,1327,1347,1368,1387,1407,1427,1448,1467,1487,1507,1527,1547,1568,1588,1607,1627,1647,1668,1688,1708,1728,1748,1769,1787,1807,1827,1847,1867,1887,1907,1927,1947,1967,1987,2008,2028,2048,2067,2088,2107,2127,2147,2168,2188,2207,2228,2249,2267,2288,2307,2327,2347,2367,2387,2407,2428,2447,2467,2488,2508,2528,2549,2567,2588,2607,2627,2647,2667,2689,2708,2727],"xSR":741.5,"ySR":573.95,"xT1":424.9,"yT1":0,"xT2":1058.1,"yT2":0,"toosoon":0,"cond_shown":"Congruent","ratio_trial":100,"L_num":3,"L_den":6,"R_num":2,"R_den":5,"correct_side":1,"subjID":"RobertoAndresSalhuanaLiton18","gender":"0","school":"6","age":"11"},{"start_time":1551891628840,"click_time":1551891630748,"finger_time":1551891630368,"fix_duration":1292.7628818252874,"trial":19,"RT":1528,"MT":380,"sideResp":1,"stimulus":[],"xmouse":[767,767,767,767,767,767,767,767,767,767,767,767,767,767,767,767,767,767,767,767,767,767,767,767,767,767,767,767,767,767,767,767,767,767,767,767,767,767,767,767,767,767,767,767,767,767,767,767,767,767,767,767,767,767,767,767,767,767,767,767,767,767,767,767,767,767,767,767,767,767,767,767,767,764,760,751,750,745,736,720,674,651,636,627,620,601,587,567,548,534,529,529,529,529,529,524],"ymouse":[627,627,627,627,627,627,627,627,627,627,627,627,627,627,627,627,627,627,627,627,627,627,627,627,627,627,627,627,627,627,627,627,627,627,627,627,627,627,627,627,627,627,627,627,627,627,627,627,627,627,627,627,627,627,627,627,627,627,627,627,627,627,627,627,627,627,627,627,627,627,627,627,627,623,616,575,556,535,512,482,400,355,320,290,261,198,174,152,133,117,104,102,102,102,101,97],"timestamp_mouse":[6,26,47,66,86,106,126,146,166,188,206,226,246,267,286,306,327,346,367,386,406,426,447,466,486,506,527,546,566,586,606,626,646,666,687,706,728,746,766,786,806,826,847,867,887,908,928,947,967,987,1008,1027,1047,1067,1088,1109,1128,1149,1169,1187,1208,1227,1248,1268,1288,1309,1327,1348,1368,1388,1409,1428,1447,1469,1488,1508,1528,1548,1569,1589,1608,1627,1647,1669,1688,1708,1728,1748,1768,1789,1807,1828,1848,1869,1888,1908],"xSR":741.5,"ySR":573.95,"xT1":424.9,"yT1":0,"xT2":1058.1,"yT2":0,"toosoon":0,"cond_shown":"Incongruent","ratio_trial":100,"L_num":8,"L_den":16,"R_num":6,"R_den":10,"correct_side":2,"subjID":"RobertoAndresSalhuanaLiton18","gender":"0","school":"6","age":"11"},{"start_time":1551891634665,"click_time":1551891636467,"finger_time":1551891636049,"fix_duration":1055.200947395721,"trial":20,"RT":1384,"MT":418,"sideResp":1,"stimulus":[],"xmouse":[772,772,772,772,773,773,773,773,775,777,778,779,779,779,780,780,780,780,780,780,780,780,780,780,780,780,780,783,790,794,794,794,794,794,794,794,794,794,794,794,794,793,792,791,787,786,786,785,785,785,785,784,783,783,783,783,783,783,783,783,783,783,783,783,783,783,781,778,774,741,702,642,576,528,518,523,525,524,522,520,519,519,518,518,518,518,518,518,517,516,512],"ymouse":[620,620,620,620,620,620,620,620,620,620,620,620,620,620,620,620,620,620,620,620,620,620,620,620,620,620,619,618,614,609,609,609,609,609,609,609,609,609,609,609,611,612,613,614,618,619,620,620,620,620,620,620,620,621,621,621,621,621,621,621,621,621,621,621,621,621,620,613,597,512,425,316,206,111,0,0,0,0,0,0,0,0,0,0,0,0,0,0,0,0,15],"timestamp_mouse":[7,28,43,63,82,102,122,143,163,184,204,224,242,263,283,303,323,343,363,383,403,422,442,463,483,502,524,543,564,583,602,622,643,662,682,703,722,743,763,784,802,823,844,862,883,902,924,943,962,982,1002,1023,1043,1063,1084,1102,1122,1142,1163,1184,1203,1224,1244,1263,1282,1303,1324,1344,1364,1384,1403,1423,1443,1464,1483,1502,1523,1543,1562,1584,1603,1623,1643,1662,1682,1703,1722,1742,1764,1783,1802],"xSR":741.5,"ySR":573.95,"xT1":424.9,"yT1":0,"xT2":1058.1,"yT2":0,"toosoon":0,"cond_shown":"Congruent","ratio_trial":200,"L_num":6,"L_den":15,"R_num":3,"R_den":15,"correct_side":1,"subjID":"RobertoAndresSalhuanaLiton18","gender":"0","school":"6","age":"11"},{"start_time":1551891638642,"click_time":1551891640108,"finger_time":1551891639468,"fix_duration":833.2346499757368,"trial":21,"RT":826,"MT":640,"sideResp":2,"stimulus":[],"xmouse":[754,754,754,754,754,754,754,754,754,754,754,754,754,754,754,754,754,754,754,754,754,754,754,754,754,754,754,754,754,754,754,754,754,754,754,755,761,766,773,778,783,801,809,820,832,856,872,887,900,915,928,950,963,978,989,1016,1029,1039,1054,1066,1089,1096,1101,1101,1101,1103,1107,1107,1107,1107,1107,1107,1105,1104],"ymouse":[613,613,613,613,613,613,613,613,613,613,613,613,613,613,613,613,613,613,613,613,613,613,613,613,613,613,613,613,613,613,613,613,613,613,613,612,608,604,597,592,586,563,552,536,518,488,473,456,443,429,417,395,383,365,351,320,305,287,269,249,211,193,167,151,138,130,118,118,118,118,116,112,101,95],"timestamp_mouse":[8,35,46,66,86,105,126,145,165,186,206,226,245,265,285,307,326,346,366,386,406,426,446,465,485,505,526,546,565,586,606,626,645,666,687,705,726,746,766,786,806,826,846,867,886,907,925,946,966,986,1005,1025,1046,1066,1087,1107,1125,1147,1166,1187,1207,1225,1246,1267,1285,1307,1327,1346,1366,1386,1407,1425,1446,1466],"xSR":741.5,"ySR":573.95,"xT1":424.9,"yT1":0,"xT2":1058.1,"yT2":0,"toosoon":0,"cond_shown":"Incongruent","ratio_trial":200,"L_num":3,"L_den":4,"R_num":11,"R_den":20,"correct_side":1,"subjID":"RobertoAndresSalhuanaLiton18","gender":"0","school":"6","age":"11"},{"start_time":1551891643091,"click_time":1551891645368,"finger_time":1551891644348,"fix_duration":582.8253058868551,"trial":22,"RT":1257,"MT":1020,"sideResp":1,"stimulus":[],"xmouse":[770,770,770,770,770,770,770,770,770,770,770,770,770,770,770,770,770,770,770,770,770,770,770,770,770,770,770,770,770,770,770,770,770,770,770,770,770,770,770,770,770,770,770,770,770,770,770,770,770,770,770,770,770,770,770,770,770,770,770,771,771,771,764,687,636,615,613,618,619,619,611,595,588,588,588,588,588,588,580,575,572,570,568,565,561,553,546,542,540,540,540,540,540,540,540,540,539,536,530,525,522,522,522,522,522,522,522,522,522,522,522,522,522,522],"ymouse":[613,613,613,613,613,613,613,613,613,613,613,613,613,613,613,613,613,613,613,613,613,613,613,613,613,613,613,613,613,613,613,613,613,613,613,613,613,613,613,613,613,613,613,613,613,613,613,613,613,613,613,613,613,613,613,613,613,613,613,614,613,600,572,419,348,302,282,259,254,251,243,228,214,211,205,202,199,198,183,173,160,150,141,136,133,126,122,119,109,108,107,107,107,106,106,106,106,106,106,106,106,106,106,106,106,106,106,106,106,106,106,106,105,97],"timestamp_mouse":[16,37,57,77,97,117,136,156,176,196,217,237,257,277,297,317,336,358,377,396,418,437,458,477,496,516,536,556,577,597,617,636,656,676,697,717,737,756,776,796,818,837,856,878,897,918,937,958,976,996,1017,1037,1057,1076,1097,1116,1136,1157,1177,1198,1218,1237,1257,1278,1297,1316,1338,1358,1376,1397,1417,1437,1458,1476,1497,1517,1538,1557,1576,1598,1618,1637,1658,1676,1697,1716,1737,1757,1778,1798,1817,1837,1858,1877,1897,1916,1937,1958,1976,1997,2017,2037,2056,2077,2097,2117,2136,2156,2176,2196,2217,2237,2257,2277],"xSR":741.5,"ySR":573.95,"xT1":424.9,"yT1":0,"xT2":1058.1,"yT2":0,"toosoon":0,"cond_shown":"Incongruent","ratio_trial":100,"L_num":13,"L_den":26,"R_num":12,"R_den":20,"correct_side":2,"subjID":"RobertoAndresSalhuanaLiton18","gender":"0","school":"6","age":"11"},{"start_time":1551891649360,"click_time":1551891651167,"finger_time":1551891650728,"fix_duration":1071.3344260176225,"trial":23,"RT":1368,"MT":439,"sideResp":2,"stimulus":[],"xmouse":[768,768,768,768,768,768,768,768,768,768,768,768,768,768,768,768,768,768,768,768,768,768,768,768,768,768,768,768,768,768,768,768,768,768,768,768,768,768,768,768,768,768,768,768,768,768,768,768,768,768,768,768,768,768,767,759,758,758,756,756,756,756,754,754,753,751,750,749,749,754,762,769,777,789,819,838,856,871,890,900,919,934,952,975,1003,1055,1071,1089,1093,1105,1112],"ymouse":[624,624,624,624,624,624,624,624,624,624,624,624,624,624,624,624,624,624,624,624,624,624,624,624,624,624,624,624,624,624,624,624,624,624,624,624,624,624,624,624,624,624,624,624,624,624,624,624,624,624,624,624,624,624,624,615,614,613,612,611,611,611,606,605,601,590,585,577,572,560,551,542,535,524,500,485,467,447,418,398,360,339,316,289,262,211,188,158,138,108,95],"timestamp_mouse":[8,35,47,68,89,108,127,147,167,188,208,228,248,267,287,308,328,348,368,388,407,428,447,467,487,508,527,547,567,587,607,628,649,667,687,708,729,747,767,788,809,827,848,867,888,908,927,947,969,987,1008,1027,1047,1068,1088,1108,1129,1149,1167,1188,1207,1229,1248,1269,1289,1308,1328,1349,1368,1389,1407,1429,1449,1468,1489,1508,1528,1548,1568,1587,1609,1629,1647,1668,1689,1708,1729,1749,1769,1789,1807],"xSR":741.5,"ySR":573.95,"xT1":424.9,"yT1":0,"xT2":1058.1,"yT2":0,"toosoon":0,"cond_shown":"Incongruent","ratio_trial":100,"L_num":6,"L_den":10,"R_num":13,"R_den":26,"correct_side":1,"subjID":"RobertoAndresSalhuanaLiton18","gender":"0","school":"6","age":"11"},{"start_time":1551891654379,"click_time":1551891655847,"finger_time":1551891655589,"fix_duration":250,"trial":24,"RT":1210,"MT":258,"sideResp":2,"stimulus":[],"xmouse":[787,787,787,787,787,787,787,787,787,787,787,787,787,787,787,787,787,787,787,787,787,787,787,787,787,787,787,787,787,787,787,787,787,787,787,787,787,787,787,787,787,787,787,787,787,787,787,787,787,787,787,787,787,787,785,785,785,786,789,794,799,809,821,851,864,885,894,914,957,992,1030,1066,1097,1120],"ymouse":[641,641,641,641,641,641,641,641,641,641,641,641,641,641,641,641,641,641,641,641,641,641,641,641,641,641,641,641,641,641,641,641,641,641,641,641,641,641,641,641,641,641,641,641,641,641,641,641,641,641,641,641,641,641,636,629,619,606,590,579,561,545,524,481,462,432,421,391,312,267,220,172,131,96],"timestamp_mouse":[11,32,49,68,88,109,129,149,169,188,208,229,248,268,288,309,329,349,370,389,408,428,449,469,489,509,529,549,568,589,610,629,649,669,689,708,728,748,769,789,809,829,849,869,889,908,928,949,968,990,1009,1029,1048,1069,1088,1108,1129,1149,1170,1189,1210,1229,1248,1269,1289,1309,1330,1348,1370,1388,1409,1429,1450,1468],"xSR":741.5,"ySR":573.95,"xT1":424.9,"yT1":0,"xT2":1058.1,"yT2":0,"toosoon":0,"cond_shown":"Congruent","ratio_trial":200,"L_num":15,"L_den":25,"R_num":4,"R_den":10,"correct_side":1,"subjID":"RobertoAndresSalhuanaLiton18","gender":"0","school":"6","age":"11"},{"start_time":1551891661118,"click_time":1551891663048,"finger_time":1551891662488,"fix_duration":1348.5304943639837,"trial":25,"RT":1370,"MT":560,"sideResp":1,"stimulus":[],"xmouse":[765,765,765,765,765,765,765,765,765,765,765,765,765,765,765,765,765,765,765,765,765,765,765,765,765,765,765,765,765,765,765,765,765,765,765,765,765,765,765,765,765,765,765,765,765,765,765,765,765,765,765,765,765,765,765,765,765,765,765,765,765,765,765,765,765,765,764,747,727,707,696,669,654,637,616,591,544,529,524,524,534,538,544,544,544,544,543,540,535,526,515,499,493,485,478,469,452],"ymouse":[606,606,606,606,606,606,606,606,606,606,606,606,606,606,606,606,606,606,606,606,606,606,606,606,606,606,606,606,606,606,606,606,606,606,606,606,606,606,606,606,606,606,606,606,606,606,606,606,606,606,606,606,606,606,606,606,606,606,606,606,606,606,606,606,606,606,603,592,581,567,558,534,521,505,485,466,434,420,414,408,390,377,343,324,305,289,263,252,239,225,209,184,171,155,135,117,81],"timestamp_mouse":[10,30,49,69,89,110,130,150,170,189,210,230,250,270,289,311,329,350,369,389,409,430,450,470,489,509,529,550,569,589,609,631,650,670,690,710,730,750,770,790,810,830,850,869,889,909,929,949,969,990,1009,1031,1050,1070,1090,1109,1130,1149,1169,1190,1210,1230,1250,1269,1289,1309,1331,1349,1370,1389,1410,1430,1449,1471,1490,1510,1530,1550,1570,1590,1610,1630,1650,1671,1690,1710,1730,1750,1770,1790,1810,1830,1849,1870,1890,1909,1930],"xSR":741.5,"ySR":573.95,"xT1":424.9,"yT1":0,"xT2":1058.1,"yT2":0,"toosoon":0,"cond_shown":"Incongruent","ratio_trial":200,"L_num":6,"L_den":20,"R_num":3,"R_den":6,"correct_side":2,"subjID":"RobertoAndresSalhuanaLiton18","gender":"0","school":"6","age":"11"},{"start_time":1551891666119,"click_time":1551891673807,"finger_time":1551891667249,"fix_duration":510.4199945361801,"trial":26,"RT":1130,"MT":6558,"sideResp":1,"stimulus":[],"xmouse":[804,804,804,804,804,804,804,804,804,804,804,804,804,804,804,804,804,804,804,804,804,804,804,804,804,804,804,804,804,804,804,804,804,804,804,804,804,804,804,804,804,804,804,804,807,810,821,825,827,829,830,830,830,830,830,831,832,833,834,834,834,835,835,835,835,836,837,837,837,838,839,843,847,850,852,857,866,870,877,882,887,891,893,894,896,899,908,913,922,927,934,941,946,946,946,942,934,933,933,932,931,931,930,929,928,926,922,920,918,917,917,915,915,914,914,912,902,886,853,795,720,689,632,622,622,622,622,621,630,654,662,760,796,842,899,968,1136,1222,1280,1302,1303,1298,1285,1266,1245,1228,1194,1047,944,837,685,481,390,319,277,256,245,245,244,248,271,445,549,646,734,802,864,932,945,949,947,924,892,829,760,678,554,501,430,273,205,196,228,308,460,647,960,1042,1056,1056,1047,1039,1027,968,823,592,340,0,0,1,70,456,766,1078,1352,1549,1549,1549,1529,1381,1154,330,10,0,0,0,0,18,89,233,554,797,1275,1424,1468,1468,1295,1081,833,582,389,300,300,300,300,300,285,274,271,270,272,293,326,396,495,611,911,1027,1098,1116,1116,1095,1022,898,714,497,67,0,0,0,61,283,452,673,924,1223,1522,1522,1522,1522,1522,1352,1108,842,559,269,0,0,0,0,0,28,107,258,485,727,1213,1394,1486,1496,1496,1302,1123,897,654,412,0,0,0,0,0,0,0,0,0,4,125,268,441,761,875,1485,1485,1485,1485,1485,1485,1485,1485,1485,1485,1485,1485,1572,1548,1487,1243,1033,787,563,385,0,0,0,0,0,0,0,0,0,1,6,23,35,53,86,221,306,393,525,564,722,746,755,761,764,767,767,758,745,716,648,605,586,543,514,456,440,432,417,411,409,408,407,407,406,406,406,407,408,410,410,413,419,431],"ymouse":[606,606,606,606,606,606,606,606,606,606,606,606,606,606,606,606,606,606,606,606,606,606,606,606,606,606,606,606,606,606,606,606,606,606,606,606,606,606,606,606,606,606,606,606,607,604,592,586,583,580,578,578,578,577,576,574,571,568,567,566,564,563,561,560,559,558,556,555,553,551,548,537,530,522,516,508,494,488,480,470,460,451,445,439,434,427,408,396,384,377,365,343,326,306,282,259,228,219,213,208,208,207,205,203,200,197,190,188,187,186,186,185,183,182,179,176,161,147,133,113,95,88,84,82,82,82,82,84,91,108,114,171,183,194,211,223,247,256,259,259,260,266,274,283,292,305,323,366,384,393,393,399,407,417,425,433,441,441,441,435,415,341,322,310,306,306,306,318,327,333,342,358,363,363,361,346,304,283,264,234,224,223,233,267,321,384,471,497,508,513,520,524,524,513,475,422,373,334,340,348,374,420,422,422,404,375,375,375,355,355,355,355,355,355,353,352,352,352,352,355,380,394,403,403,408,409,410,400,360,323,287,260,260,260,260,260,269,280,287,291,294,304,309,318,323,337,380,396,406,408,409,409,409,409,409,399,356,335,327,327,335,365,378,380,380,380,380,380,380,380,380,338,358,389,427,450,459,459,459,459,459,454,453,453,453,453,453,448,435,432,432,451,458,458,458,458,458,458,458,458,458,445,431,425,425,423,422,442,468,513,522,566,566,566,566,566,566,566,566,566,566,566,566,521,510,492,439,407,366,336,310,275,274,274,274,274,274,274,274,274,274,272,266,264,259,256,251,249,245,238,234,218,215,212,208,201,178,160,136,109,71,29,9,4,0,0,0,0,0,5,7,9,14,19,21,23,24,25,25,25,25,25,25,29,34],"timestamp_mouse":[8,28,48,69,88,108,129,149,169,189,209,229,250,269,288,309,330,348,368,389,408,429,449,469,489,509,528,548,569,590,609,628,648,670,688,708,729,749,768,788,808,828,848,868,889,910,929,948,969,989,1008,1030,1049,1069,1088,1110,1130,1148,1169,1189,1208,1228,1248,1270,1288,1309,1329,1348,1368,1390,1409,1429,1448,1469,1489,1509,1528,1549,1569,1589,1609,1629,1648,1669,1689,1709,1729,1748,1769,1790,1809,1829,1848,1869,1889,1910,1929,1948,1969,1990,2009,2030,2049,2068,2090,2110,2129,2149,2168,2189,2209,2229,2248,2269,2290,2309,2329,2348,2369,2390,2409,2428,2450,2469,2488,2509,2530,2549,2570,2590,2609,2629,2648,2669,2689,2709,2729,2748,2769,2789,2809,2829,2848,2869,2889,2910,2929,2949,2969,2990,3009,3029,3048,3069,3088,3110,3129,3148,3169,3188,3208,3229,3248,3268,3290,3309,3328,3348,3369,3389,3409,3429,3448,3469,3489,3509,3528,3548,3569,3590,3609,3629,3649,3668,3689,3709,3729,3749,3768,3789,3809,3829,3848,3869,3890,3910,3928,3949,3968,3990,4009,4029,4048,4068,4089,4110,4129,4149,4169,4189,4209,4229,4248,4269,4289,4310,4329,4348,4369,4389,4409,4428,4448,4469,4489,4509,4529,4549,4569,4590,4609,4629,4648,4668,4689,4709,4729,4748,4769,4790,4809,4828,4849,4868,4888,4909,4928,4948,4968,4990,5008,5029,5048,5069,5089,5109,5129,5148,5169,5190,5208,5229,5248,5269,5289,5309,5330,5348,5369,5389,5409,5429,5448,5468,5489,5509,5528,5549,5569,5588,5609,5629,5648,5669,5689,5709,5729,5749,5769,5789,5808,5828,5848,5868,5889,5910,5928,5948,5969,5988,6008,6028,6048,6069,6089,6109,6129,6148,6169,6190,6210,6229,6249,6269,6288,6309,6329,6349,6369,6389,6410,6428,6448,6469,6488,6509,6529,6548,6569,6590,6608,6629,6648,6668,6689,6709,6730,6749,6769,6790,6809,6828,6849,6869,6889,6910,6928,6948,6969,6989,7009,7029,7048,7069,7089,7110,7129,7149,7169,7190,7209,7229,7248,7270,7289,7309,7330,7349,7370,7389,7409,7428,7449,7469,7489,7509,7529,7549,7570,7590,7608,7629,7649,7669,7688],"xSR":741.5,"ySR":573.95,"xT1":424.9,"yT1":0,"xT2":1058.1,"yT2":0,"toosoon":0,"cond_shown":"Incongruent","ratio_trial":200,"L_num":14,"L_den":30,"R_num":12,"R_den":18,"correct_side":2,"subjID":"RobertoAndresSalhuanaLiton18","gender":"0","school":"6","age":"11"},{"start_time":1551891678423,"click_time":1551891681149,"finger_time":1551891680069,"fix_duration":914.454860600016,"trial":27,"RT":1646,"MT":1080,"sideResp":1,"stimulus":[],"xmouse":[806,806,806,806,806,806,806,806,806,806,806,806,806,806,806,806,806,806,806,806,806,806,806,806,806,806,806,806,806,806,806,806,806,806,806,806,806,806,806,806,806,806,806,806,806,806,806,806,806,806,806,806,806,806,806,806,806,806,806,806,806,806,806,806,806,806,805,805,805,805,805,805,805,804,802,800,797,786,774,757,747,743,738,719,687,668,657,648,646,644,640,636,614,595,568,560,556,551,547,543,537,523,520,514,507,503,493,490,489,487,486,484,481,481,480,479,479,479,478,478,478,477,477,477,477,477,477,477,477,477,477,477,477,477,478,479,480],"ymouse":[630,630,630,630,630,630,630,630,630,630,630,630,630,630,630,630,630,630,630,630,630,630,630,630,630,630,630,630,630,630,630,630,630,630,630,630,630,630,630,630,630,630,630,630,630,630,630,630,630,630,630,630,629,629,629,629,629,629,629,629,629,629,629,629,629,629,628,628,628,628,628,628,628,627,624,624,622,616,611,604,598,594,583,566,537,513,488,443,424,407,391,377,347,330,308,297,288,277,271,264,258,245,239,229,217,211,201,198,196,193,190,186,179,176,171,167,160,154,150,145,141,139,136,136,136,136,136,136,135,133,131,129,124,123,115,107,88],"timestamp_mouse":[18,37,45,65,85,104,124,144,164,185,205,224,244,266,284,304,325,345,365,384,404,425,445,465,485,504,524,544,564,585,604,624,644,664,685,705,725,745,764,784,805,826,846,864,886,905,925,945,965,985,1004,1026,1045,1065,1084,1104,1125,1145,1164,1185,1205,1226,1244,1266,1285,1304,1324,1344,1364,1384,1404,1424,1445,1465,1485,1505,1526,1545,1565,1585,1606,1624,1646,1665,1686,1706,1726,1746,1765,1785,1805,1825,1846,1866,1885,1906,1926,1945,1966,1985,2004,2025,2044,2065,2086,2104,2126,2144,2165,2184,2205,2225,2246,2266,2286,2304,2326,2344,2364,2385,2404,2425,2446,2465,2486,2506,2525,2545,2565,2585,2605,2625,2645,2665,2685,2706,2726],"xSR":741.5,"ySR":573.95,"xT1":424.9,"yT1":0,"xT2":1058.1,"yT2":0,"toosoon":0,"cond_shown":"Congruent","ratio_trial":100,"L_num":8,"L_den":16,"R_num":2,"R_den":5,"correct_side":1,"subjID":"RobertoAndresSalhuanaLiton18","gender":"0","school":"6","age":"11"},{"start_time":1551891683243,"click_time":1551891685587,"finger_time":1551891684648,"fix_duration":614.0239852446421,"trial":28,"RT":1405,"MT":939,"sideResp":2,"stimulus":[],"xmouse":[775,775,775,775,775,775,775,775,775,775,775,775,775,775,775,775,775,775,775,775,775,775,775,775,775,775,775,775,775,775,775,775,775,775,775,775,775,775,775,775,775,775,774,773,773,773,773,773,773,773,773,773,773,773,773,773,773,773,773,774,774,780,782,785,788,790,793,797,804,815,827,857,873,893,898,939,952,959,965,970,976,983,987,991,994,1001,1004,1006,1009,1009,1010,1011,1013,1014,1014,1016,1016,1018,1019,1021,1023,1025,1026,1028,1028,1036,1040,1047,1052,1056,1061,1063,1064,1065,1066,1066,1067,1067],"ymouse":[625,625,625,625,625,625,626,628,630,631,632,632,632,632,632,632,632,632,632,632,632,632,632,632,632,632,632,632,633,635,635,635,635,635,635,635,635,635,635,635,635,636,637,640,640,640,641,641,641,641,641,641,641,641,641,641,641,641,641,640,638,629,625,619,615,610,601,593,585,575,562,523,503,473,463,405,386,372,359,347,337,316,303,286,275,249,239,230,224,221,217,211,207,204,202,197,194,189,186,181,175,172,170,164,161,145,138,130,122,116,111,108,106,103,103,101,101,99],"timestamp_mouse":[5,27,45,65,85,105,126,145,165,185,206,224,244,265,285,305,326,345,365,384,404,424,444,464,485,505,525,544,566,586,605,624,645,665,684,706,724,745,764,785,805,825,844,865,885,905,925,945,964,984,1004,1025,1044,1064,1084,1104,1126,1145,1165,1185,1205,1226,1245,1265,1286,1305,1326,1345,1365,1385,1405,1425,1446,1466,1486,1506,1525,1544,1565,1586,1606,1625,1645,1666,1685,1706,1724,1745,1766,1785,1804,1826,1845,1865,1886,1905,1924,1944,1965,1986,2006,2024,2045,2064,2085,2106,2125,2144,2165,2186,2205,2224,2245,2265,2285,2305,2326,2344],"xSR":741.5,"ySR":573.95,"xT1":424.9,"yT1":0,"xT2":1058.1,"yT2":0,"toosoon":0,"cond_shown":"Congruent","ratio_trial":300,"L_num":5,"L_den":25,"R_num":7,"R_den":14,"correct_side":2,"subjID":"RobertoAndresSalhuanaLiton18","gender":"0","school":"6","age":"11"},{"start_time":1551891688385,"click_time":1551891690290,"finger_time":1551891689528,"fix_duration":1055.5869794835842,"trial":29,"RT":1143,"MT":762,"sideResp":1,"stimulus":[],"xmouse":[773,773,773,773,773,773,773,773,773,773,773,773,773,773,773,773,773,773,773,773,773,773,773,773,773,773,773,773,773,773,773,773,773,773,773,773,773,773,773,773,773,773,773,773,773,773,773,773,773,773,769,767,764,761,755,749,746,741,731,723,717,710,705,700,690,684,675,665,654,579,535,505,488,480,473,471,470,470,469,469,469,471,473,474,477,477,479,480,481,479,477,476,476,475,475,473],"ymouse":[644,644,644,644,644,644,644,644,644,644,644,644,644,644,644,644,644,644,644,644,644,644,644,644,644,644,644,644,644,644,644,644,644,644,644,644,644,644,644,644,644,644,644,644,644,644,644,644,644,644,643,642,640,638,628,621,614,606,590,580,571,560,550,539,517,504,483,464,445,368,325,293,268,250,231,229,229,229,226,220,214,208,205,200,190,185,173,166,148,139,130,123,116,106,101,94],"timestamp_mouse":[7,25,43,62,82,102,123,143,163,183,202,222,243,263,283,302,322,343,363,383,403,422,442,463,483,502,522,543,563,584,603,623,642,662,682,703,724,743,763,783,802,823,842,862,882,903,923,943,962,982,1003,1022,1043,1063,1084,1103,1123,1143,1163,1182,1203,1224,1243,1262,1283,1304,1323,1344,1362,1384,1405,1426,1444,1464,1484,1505,1524,1546,1565,1584,1604,1624,1645,1664,1685,1705,1725,1744,1765,1784,1804,1824,1845,1865,1884,1905],"xSR":741.5,"ySR":573.95,"xT1":424.9,"yT1":0,"xT2":1058.1,"yT2":0,"toosoon":0,"cond_shown":"Incongruent","ratio_trial":100,"L_num":8,"L_den":16,"R_num":6,"R_den":10,"correct_side":2,"subjID":"RobertoAndresSalhuanaLiton18","gender":"0","school":"6","age":"11"},{"start_time":1551891695309,"click_time":1551891697250,"finger_time":1551891696550,"fix_duration":1238.314991281656,"trial":30,"RT":1241,"MT":700,"sideResp":1,"stimulus":[],"xmouse":[783,783,783,783,783,783,783,783,783,783,783,783,783,783,783,783,783,783,783,783,783,783,783,783,783,783,783,783,783,783,783,783,783,783,783,783,783,783,783,783,783,783,783,783,783,783,783,783,783,783,783,783,783,783,783,783,783,783,783,782,781,779,769,764,755,742,724,647,591,518,505,476,467,464,462,459,458,455,454,454,454,453,453,453,453,453,451,447,447,447,447,448,448,448,448,449,450,451],"ymouse":[602,602,602,602,602,602,602,602,602,602,602,602,602,602,602,602,602,602,602,602,602,602,602,602,602,602,602,602,602,602,602,602,602,602,602,602,602,602,602,602,602,602,602,602,602,602,602,602,602,602,602,602,602,602,602,602,602,602,598,595,591,585,569,561,548,533,518,475,445,407,400,379,361,354,349,343,338,317,304,285,277,256,225,211,195,179,167,141,132,121,118,112,108,107,106,104,101,97],"timestamp_mouse":[8,21,40,61,80,100,120,140,160,180,200,221,240,260,280,300,321,340,360,380,400,420,441,461,480,500,520,540,561,581,600,620,640,660,680,701,721,740,760,780,800,821,841,860,882,901,920,940,960,981,1000,1021,1041,1060,1080,1101,1121,1141,1160,1180,1201,1220,1241,1260,1280,1300,1321,1341,1360,1381,1401,1420,1441,1460,1480,1500,1521,1541,1560,1581,1600,1620,1640,1660,1681,1700,1721,1740,1760,1781,1800,1820,1841,1861,1881,1901,1921,1940],"xSR":741.5,"ySR":573.95,"xT1":424.9,"yT1":0,"xT2":1058.1,"yT2":0,"toosoon":0,"cond_shown":"Congruent","ratio_trial":200,"L_num":20,"L_den":25,"R_num":9,"R_den":15,"correct_side":1,"subjID":"RobertoAndresSalhuanaLiton18","gender":"0","school":"6","age":"11"},{"start_time":1551891698900,"click_time":1551891700489,"finger_time":1551891699750,"fix_duration":250,"trial":31,"RT":850,"MT":739,"sideResp":1,"stimulus":[],"xmouse":[768,768,768,768,768,768,768,768,768,768,768,768,768,768,768,768,768,769,769,769,769,769,769,769,769,769,769,769,769,769,769,768,767,765,763,761,758,752,750,747,746,745,741,739,736,731,727,720,709,702,697,694,690,672,657,647,635,615,603,591,577,556,538,531,527,523,521,519,519,519,519,519,518,515,513,511,509,496,487,477],"ymouse":[633,633,633,633,633,633,633,633,633,633,633,633,633,633,633,633,633,633,633,633,633,633,633,633,633,633,633,633,633,633,633,631,630,627,625,622,617,607,602,596,591,586,576,570,563,552,545,533,507,492,480,475,468,454,445,438,430,410,396,383,369,349,327,319,311,303,295,282,275,265,254,234,203,188,176,165,154,120,100,78],"timestamp_mouse":[9,29,51,69,89,109,129,150,170,191,210,229,249,269,289,309,330,350,369,389,410,431,449,469,490,509,529,551,570,590,609,629,649,670,690,710,730,750,769,790,810,829,850,869,890,909,929,949,970,989,1010,1029,1049,1069,1089,1109,1130,1149,1169,1190,1209,1229,1249,1269,1289,1309,1329,1350,1369,1390,1409,1429,1450,1469,1489,1509,1529,1549,1569,1589],"xSR":741.5,"ySR":573.95,"xT1":424.9,"yT1":0,"xT2":1058.1,"yT2":0,"toosoon":0,"cond_shown":"Incongruent","ratio_trial":300,"L_num":4,"L_den":20,"R_num":2,"R_den":4,"correct_side":2,"subjID":"RobertoAndresSalhuanaLiton18","gender":"0","school":"6","age":"11"},{"start_time":1551891702563,"click_time":1551891705031,"finger_time":1551891703309,"fix_duration":250,"trial":32,"RT":746,"MT":1722,"sideResp":1,"stimulus":[],"xmouse":[771,771,771,771,771,771,771,771,771,771,771,771,771,771,771,771,771,771,771,771,771,771,771,771,771,771,771,771,771,771,771,771,771,771,771,780,793,808,830,853,865,874,877,879,879,878,878,880,884,887,891,893,896,900,912,921,935,953,990,1029,1036,1036,1036,1036,1036,1036,1036,1036,1036,1033,1022,1005,979,932,787,703,605,503,353,275,202,184,172,166,164,163,162,161,159,159,160,160,160,160,171,179,186,193,208,233,250,269,286,299,314,319,323,326,333,355,368,381,387,387,387,390,398,408,420,421,421,421,422,425],"ymouse":[611,611,611,611,611,611,611,611,611,611,611,611,611,611,611,611,611,611,611,611,611,611,611,611,611,611,611,611,611,611,611,611,611,611,611,601,584,566,535,493,468,442,417,392,333,312,296,283,270,263,254,250,246,240,220,209,194,179,157,139,136,136,136,136,136,136,136,136,136,136,137,142,154,167,202,213,229,242,271,291,313,318,319,319,318,317,313,306,286,248,233,221,212,201,178,168,160,156,153,146,140,135,128,120,110,107,104,100,88,63,53,47,45,45,45,44,44,42,40,40,40,40,40,39],"timestamp_mouse":[12,33,47,66,86,106,127,146,167,187,207,226,246,268,286,306,326,347,366,387,407,426,447,466,487,507,526,546,566,586,606,626,646,666,687,707,727,746,767,787,806,826,847,867,886,906,926,947,966,986,1006,1026,1046,1067,1087,1106,1126,1146,1166,1187,1206,1227,1247,1266,1286,1306,1326,1346,1366,1386,1406,1427,1447,1468,1487,1506,1526,1547,1568,1586,1606,1627,1646,1666,1687,1706,1726,1746,1766,1787,1807,1827,1846,1866,1887,1906,1926,1947,1966,1986,2006,2026,2046,2066,2087,2106,2126,2147,2166,2186,2206,2226,2246,2267,2287,2307,2326,2346,2367,2388,2406,2426,2447,2468],"xSR":741.5,"ySR":573.95,"xT1":424.9,"yT1":0,"xT2":1058.1,"yT2":0,"toosoon":0,"cond_shown":"Incongruent","ratio_trial":200,"L_num":14,"L_den":30,"R_num":6,"R_den":9,"correct_side":2,"subjID":"RobertoAndresSalhuanaLiton18","gender":"0","school":"6","age":"11"},{"start_time":1551891707818,"click_time":1551891709510,"finger_time":1551891708829,"fix_duration":307.54945603934556,"trial":33,"RT":1011,"MT":681,"sideResp":2,"stimulus":[],"xmouse":[818,817,816,816,816,816,816,816,814,814,814,814,814,814,814,814,814,814,814,814,814,814,814,814,814,814,814,814,814,814,814,814,814,814,814,814,814,814,814,814,813,812,811,810,808,806,805,808,815,821,825,827,828,829,829,829,831,833,835,836,836,837,838,839,839,839,842,845,848,852,855,862,869,878,889,913,944,958,970,980,990,1017,1031,1047,1065],"ymouse":[647,646,644,644,644,644,644,643,640,638,637,637,637,637,637,637,637,637,637,637,637,636,636,636,636,636,636,636,636,636,636,636,636,636,636,636,636,636,636,636,634,632,630,629,624,621,609,596,585,576,569,562,559,554,550,539,519,507,496,486,479,466,461,455,451,446,431,421,407,393,379,350,335,318,300,271,237,220,203,186,170,136,122,108,94],"timestamp_mouse":[12,32,51,72,91,112,131,151,172,193,211,231,251,271,292,312,332,351,371,391,412,432,451,471,492,512,531,552,572,592,611,631,651,672,691,711,732,752,772,792,811,831,851,871,892,911,932,951,971,991,1011,1033,1051,1072,1091,1111,1131,1151,1171,1192,1211,1231,1252,1272,1291,1311,1331,1351,1372,1391,1411,1431,1451,1471,1492,1511,1531,1551,1571,1591,1611,1631,1651,1671,1692],"xSR":741.5,"ySR":573.95,"xT1":424.9,"yT1":0,"xT2":1058.1,"yT2":0,"toosoon":0,"cond_shown":"Congruent","ratio_trial":300,"L_num":3,"L_den":12,"R_num":11,"R_den":20,"correct_side":2,"subjID":"RobertoAndresSalhuanaLiton18","gender":"0","school":"6","age":"11"},{"start_time":1551891710943,"click_time":1551891713790,"finger_time":1551891712209,"fix_duration":250,"trial":34,"RT":1266,"MT":1581,"sideResp":1,"stimulus":[],"xmouse":[760,760,760,761,765,774,779,782,784,784,784,784,784,784,784,784,784,784,784,784,784,784,784,783,781,780,779,779,778,777,777,777,777,777,777,777,777,777,777,777,777,776,773,771,770,768,768,768,768,768,766,760,756,753,752,751,750,748,747,746,744,742,742,740,736,720,710,695,676,653,608,595,585,576,567,557,556,555,553,551,546,545,544,542,539,537,536,535,534,533,531,531,531,531,531,534,546,558,567,572,580,583,583,583,583,583,583,574,563,557,550,549,549,549,549,549,550,550,550,550,550,550,551,555,559,564,564,561,551,544,531,527,525,525,525,525,525,525,525,525,525,525,520],"ymouse":[658,658,657,655,649,635,627,622,618,618,618,618,618,618,618,618,618,618,618,618,618,618,618,619,619,621,622,622,623,623,623,623,623,623,623,623,623,623,623,623,623,625,628,631,634,636,636,636,636,636,637,636,635,635,634,634,633,632,631,627,615,610,606,602,597,578,562,543,518,493,454,437,421,407,394,371,361,350,335,329,308,304,300,296,291,288,286,282,278,268,260,259,258,258,258,273,301,331,354,373,400,409,415,418,419,419,415,394,361,344,323,319,319,319,319,314,312,311,311,311,311,307,290,264,236,182,160,139,121,110,93,90,87,87,87,87,87,87,87,87,87,86,85],"timestamp_mouse":[7,36,46,66,86,108,128,146,166,186,206,226,247,268,286,306,326,351,367,386,406,426,446,467,487,507,526,546,567,588,608,627,647,666,686,706,726,746,767,787,807,826,847,867,887,906,926,947,966,986,1007,1026,1046,1066,1086,1107,1127,1146,1166,1186,1206,1226,1246,1266,1287,1306,1326,1347,1367,1386,1406,1426,1447,1466,1486,1506,1526,1546,1567,1587,1607,1626,1646,1666,1687,1706,1726,1747,1767,1786,1806,1826,1847,1867,1887,1908,1926,1946,1966,1987,2006,2026,2047,2066,2087,2107,2127,2146,2167,2186,2206,2226,2246,2267,2287,2306,2326,2346,2366,2387,2407,2426,2446,2467,2486,2506,2526,2546,2567,2586,2607,2626,2646,2667,2687,2707,2726,2746,2767,2787,2808,2826,2847],"xSR":741.5,"ySR":573.95,"xT1":424.9,"yT1":0,"xT2":1058.1,"yT2":0,"toosoon":0,"cond_shown":"Congruent","ratio_trial":200,"L_num":7,"L_den":21,"R_num":2,"R_den":15,"correct_side":1,"subjID":"RobertoAndresSalhuanaLiton18","gender":"0","school":"6","age":"11"},{"start_time":1551891716991,"click_time":1551891719290,"finger_time":1551891718349,"fix_duration":621.5665321223519,"trial":35,"RT":1358,"MT":941,"sideResp":2,"stimulus":[],"xmouse":[768,768,768,768,768,768,768,768,768,768,768,768,768,768,768,768,768,768,768,768,768,768,768,768,768,768,768,768,768,768,768,768,768,768,768,768,768,768,768,768,768,768,768,768,768,768,768,768,768,768,768,768,768,768,768,768,768,768,768,768,768,769,772,779,790,806,823,864,878,895,915,934,957,959,959,961,962,971,975,978,979,981,982,984,984,987,989,993,994,996,998,999,1002,1002,1002,1002,1002,1006,1009,1016,1025,1036,1055,1062,1065,1065,1065,1065,1065,1065,1065,1065,1065,1066,1068],"ymouse":[641,641,641,641,641,641,641,641,641,641,641,641,641,641,641,641,641,641,641,641,641,641,641,641,641,641,641,641,641,641,641,641,641,641,641,641,641,641,641,641,641,641,641,641,641,641,641,641,641,641,641,641,641,641,641,641,641,641,641,641,641,641,640,631,616,597,576,522,502,483,465,452,432,426,420,413,402,368,354,344,338,333,326,323,319,313,300,273,257,244,234,228,220,218,217,216,215,207,197,182,166,152,120,109,105,104,104,104,104,104,104,104,104,102,99],"timestamp_mouse":[18,38,59,78,99,119,138,158,180,198,218,238,258,278,299,320,338,358,378,398,418,439,459,479,498,518,538,558,578,598,618,639,659,679,698,719,739,759,780,798,819,839,858,878,898,918,939,960,979,998,1019,1039,1058,1079,1098,1118,1139,1158,1178,1199,1218,1238,1259,1278,1298,1318,1339,1358,1378,1399,1418,1438,1459,1479,1498,1518,1539,1559,1578,1598,1618,1638,1658,1678,1699,1718,1738,1759,1778,1799,1818,1838,1858,1879,1898,1919,1940,1959,1979,1998,2018,2039,2059,2079,2098,2118,2138,2159,2179,2199,2218,2238,2259,2279,2299],"xSR":741.5,"ySR":573.95,"xT1":424.9,"yT1":0,"xT2":1058.1,"yT2":0,"toosoon":0,"cond_shown":"Congruent","ratio_trial":200,"L_num":9,"L_den":30,"R_num":13,"R_den":26,"correct_side":2,"subjID":"RobertoAndresSalhuanaLiton18","gender":"0","school":"6","age":"11"},{"start_time":1551891720973,"click_time":1551891722650,"finger_time":1551891722370,"fix_duration":361.8124347809684,"trial":36,"RT":1397,"MT":280,"sideResp":1,"stimulus":[],"xmouse":[779,779,781,782,782,782,782,782,782,782,782,782,782,782,782,782,782,782,782,782,782,782,782,782,782,782,782,782,782,782,782,782,782,782,782,782,782,782,782,782,782,782,782,782,782,782,782,782,782,782,782,782,782,782,782,782,782,782,782,782,782,782,782,782,782,782,780,774,763,757,744,722,701,680,677,671,664,649,573,534,510,500,494,492],"ymouse":[637,637,637,635,634,634,634,634,634,634,634,634,634,634,634,634,634,634,634,634,634,634,634,634,634,634,634,633,632,632,632,632,632,632,632,632,632,632,632,632,632,632,632,632,632,632,632,632,632,632,632,632,632,632,632,632,632,632,632,632,632,632,632,632,630,626,621,605,584,570,549,517,476,380,327,265,206,144,11,0,0,0,0,1],"timestamp_mouse":[25,36,56,77,97,116,138,156,177,196,217,236,256,276,296,316,336,357,377,398,416,436,456,477,496,516,536,556,576,597,617,638,657,676,696,716,736,757,777,796,816,836,857,876,896,917,937,956,976,996,1016,1036,1058,1077,1097,1117,1137,1156,1176,1197,1216,1236,1257,1277,1296,1316,1337,1356,1376,1397,1416,1436,1456,1476,1496,1516,1538,1556,1576,1597,1616,1636,1657,1677],"xSR":741.5,"ySR":573.95,"xT1":424.9,"yT1":0,"xT2":1058.1,"yT2":0,"toosoon":0,"cond_shown":"Incongruent","ratio_trial":300,"L_num":4,"L_den":5,"R_num":6,"R_den":12,"correct_side":1,"subjID":"RobertoAndresSalhuanaLiton18","gender":"0","school":"6","age":"11"},{"start_time":1551891725295,"click_time":1551891727169,"finger_time":1551891726950,"fix_duration":1484.4520690055797,"trial":37,"RT":1655,"MT":219,"sideResp":2,"stimulus":[],"xmouse":[784,784,784,784,784,784,784,784,784,784,784,784,784,784,784,784,784,784,784,784,784,784,784,784,784,784,784,784,784,784,784,784,784,784,784,784,784,784,784,784,784,784,784,784,784,784,784,784,784,784,784,784,784,784,784,784,784,784,784,782,781,781,781,781,780,780,778,778,776,776,773,772,772,772,772,772,770,770,768,768,768,770,786,794,809,831,857,912,948,987,1028,1042,1057,1068],"ymouse":[634,634,634,634,634,634,634,634,634,634,634,634,634,634,634,634,634,634,634,634,634,634,634,634,634,634,634,634,634,634,634,634,634,634,634,634,634,634,634,634,634,634,634,634,634,634,634,634,634,634,634,634,634,634,634,634,634,634,634,634,635,635,635,635,635,635,634,633,631,631,629,628,628,628,628,628,625,624,615,608,592,574,526,497,452,404,351,242,183,130,72,45,27,8],"timestamp_mouse":[14,34,55,75,94,114,134,155,174,195,214,235,254,274,294,314,334,354,375,394,415,434,455,475,494,514,534,554,575,596,614,634,654,674,695,715,734,754,774,795,814,834,854,875,895,914,934,956,974,994,1014,1035,1056,1074,1094,1114,1134,1156,1174,1194,1214,1234,1255,1274,1294,1314,1334,1354,1374,1395,1414,1435,1455,1474,1494,1515,1535,1554,1574,1594,1615,1634,1655,1675,1695,1715,1734,1755,1774,1794,1815,1835,1855,1874],"xSR":741.5,"ySR":573.95,"xT1":424.9,"yT1":0,"xT2":1058.1,"yT2":0,"toosoon":0,"cond_shown":"Congruent","ratio_trial":200,"L_num":4,"L_den":10,"R_num":3,"R_den":15,"correct_side":1,"subjID":"RobertoAndresSalhuanaLiton18","gender":"0","school":"6","age":"11"},{"start_time":1551891730661,"click_time":1551891732790,"finger_time":1551891732190,"fix_duration":388.9052282184326,"trial":38,"RT":1529,"MT":600,"sideResp":1,"stimulus":[],"xmouse":[790,790,790,790,790,790,790,790,790,790,790,790,790,790,790,790,790,790,790,790,790,790,790,790,790,790,790,790,790,790,790,790,790,790,790,790,790,790,790,790,790,790,790,790,790,790,790,790,790,790,790,790,790,790,790,790,790,790,790,790,790,790,790,790,790,790,790,790,790,784,781,778,777,775,773,766,760,753,731,656,636,629,629,627,627,622,617,613,606,600,589,588,588,586,579,576,574,574,573,573,573,573,567,557,538,527,518],"ymouse":[647,647,647,647,647,647,647,647,647,647,647,647,647,647,647,647,647,647,647,647,647,647,647,647,647,647,647,647,647,647,647,647,647,647,647,647,647,647,647,647,647,647,647,647,647,647,647,647,647,647,647,647,647,647,647,647,647,647,647,647,647,647,647,647,647,647,647,645,644,633,626,617,615,606,599,576,558,536,486,341,280,236,190,167,151,128,119,111,103,93,76,73,71,69,67,67,66,66,65,65,65,65,65,65,65,65,65],"timestamp_mouse":[8,34,48,68,88,108,129,148,168,189,209,229,249,268,289,308,329,350,369,389,408,428,448,468,489,508,528,548,569,589,608,630,648,670,688,710,730,748,768,790,808,828,849,868,889,909,929,949,969,988,1008