[{"start_time":1551886967080,"click_time":1551886971073,"finger_time":1551886967094,"fix_duration":1000.2284150649205,"trial":0,"RT":14,"MT":3979,"sideResp":1,"stimulus":[],"xmouse":[1266,1453,1553,1553,1553,1553,1553,1553,1567,1547,1547,1531,1531,1531,1531,1531,1531,1527,1515,1504,1491,1486,1480,1477,1475,1474,1471,1470,1469,1469,1469,1469,1469,1469,1469,1469,1469,1469,1469,1469,1469,1469,1469,1469,1469,1469,1469,1469,1469,1469,1469,1469,1469,1469,1469,1469,1469,1469,1469,1469,1469,1469,1469,1469,1469,1469,1469,1469,1469,1469,1469,1468,1468,1468,1468,1468,1468,1468,1468,1468,1468,1468,1468,1468,1468,1468,1468,1468,1468,1468,1468,1468,1468,1468,1468,1468,1468,1468,1468,1468,1468,1468,1468,1468,1468,1468,1468,1468,1468,1468,1468,1468,1468,1468,1468,1468,1468,1468,1468,1468,1468,1468,1468,1468,1468,1467,1458,1458,1458,1458,1451,1451,1451,1451,1451,1451,1451,1451,1451,1451,1451,1450,1438,1394,1360,1333,1313,1310,1310,1309,1304,1283,1267,1239,1216,1146,1095,1058,1028,1008,997,986,968,950,926,897,855,853,852,849,846,842,842,842,842,842,842,842,842,839,833,807,788,786,785,785,785,785,784,782,780,761,745,702,670,642,587,558,526,503],"ymouse":[513,513,513,513,513,513,513,513,489,487,487,487,487,487,487,487,487,487,487,487,488,490,492,494,495,495,497,497,498,498,498,498,498,498,498,498,498,498,498,498,498,498,498,498,498,498,498,498,498,498,498,498,498,498,498,498,498,498,498,498,498,498,498,498,498,498,498,498,498,498,498,497,497,497,497,497,497,497,497,497,497,497,497,497,497,497,497,497,497,497,497,497,497,497,497,497,497,497,497,497,497,497,497,497,497,497,497,497,497,497,497,497,497,497,497,497,497,497,497,497,497,497,497,497,497,497,497,497,497,497,601,601,601,601,601,601,601,601,601,601,601,601,597,572,553,537,522,521,521,521,519,519,519,519,519,515,504,496,491,489,489,491,495,499,499,499,500,500,501,502,503,504,504,504,504,504,504,504,504,504,504,501,496,495,494,494,494,494,492,488,483,456,433,376,332,284,167,114,70,37],"timestamp_mouse":[14,32,54,73,92,114,132,153,173,192,212,232,253,272,292,312,332,352,373,392,413,432,453,472,493,514,533,552,572,592,614,632,653,673,694,713,733,753,774,792,813,832,852,873,893,912,932,953,973,992,1013,1033,1052,1073,1092,1112,1132,1153,1173,1192,1212,1232,1253,1273,1292,1314,1333,1353,1372,1393,1413,1432,1452,1473,1492,1513,1534,1553,1572,1592,1613,1633,1652,1673,1694,1714,1733,1753,1772,1792,1813,1832,1852,1873,1893,1912,1932,1953,1972,1993,2012,2033,2053,2073,2092,2113,2132,2152,2173,2193,2213,2233,2252,2272,2292,2314,2332,2353,2372,2392,2412,2432,2453,2472,2492,2512,2533,2553,2575,2594,2612,2633,2653,2672,2694,2713,2733,2753,2774,2792,2813,2832,2853,2873,2893,2912,2933,2953,2972,2993,3012,3033,3052,3072,3092,3113,3133,3152,3173,3193,3212,3233,3253,3273,3293,3313,3332,3352,3372,3392,3413,3432,3452,3473,3493,3514,3534,3554,3574,3592,3613,3632,3654,3672,3692,3714,3732,3752,3773,3792,3812,3832,3853,3872,3892,3912,3933,3952,3972,3992],"xSR":741.5,"ySR":449.15000000000003,"xT1":424.9,"yT1":0,"xT2":1058.1,"yT2":0,"toosoon":0,"cond_shown":"Congruent","ratio_trial":200,"L_num":3,"L_den":12,"R_num":9,"R_den":20,"correct_side":2,"subjID":"SalomeOlivaresCalderon16","gender":"1","age":"6","school":"","test":{"fix_dur":[250,1500],"timestim":1000,"targets_dim":[100,100],"targets_relative_coord":[0.3,0.7],"size_stim":[880,420],"start_dim":[100,100],"size_start":[300,300],"size_fix":60,"samplingrate":20,"img_types":["Congruent","Incongruent"],"ratios":[100,200,300],"rep_conds":19,"nTrials":120,"trials_to_rest":500,"Trials_order":[38,98,111,115,88,58,32,112,46,116,14,41,36,107,86,114,24,96,100,28,39,95,71,10,33,62,63,55,73,25,17,84,40,108,16,30,85,99,59,82,77,91,106,94,34,50,102,13,90,72,35,31,3,53,22,74,69,47,81,1,119,117,66,104,103,7,75,51,11,93,44,61,89,52,110,83,4,64,78,80,60,54,113,42,118,109,0,70,12,19,49,8,65,45,5,15,27,97,101,37,43,105,48,21,87,92,67,18,26,23,76,2,20,68,79,9,6,56,57,29],"cond_shown":["Congruent","Congruent","Incongruent","Incongruent","Congruent","Congruent","Congruent","Congruent","Congruent","Congruent","Congruent","Incongruent","Congruent","Incongruent","Congruent","Congruent","Congruent","Congruent","Congruent","Congruent","Incongruent","Incongruent","Incongruent","Congruent","Incongruent","Congruent","Incongruent","Incongruent","Incongruent","Incongruent","Incongruent","Congruent","Congruent","Congruent","Congruent","Congruent","Incongruent","Incongruent","Incongruent","Congruent","Incongruent","Incongruent","Congruent","Congruent","Congruent","Congruent","Congruent","Incongruent","Congruent","Congruent","Incongruent","Incongruent","Incongruent","Incongruent","Congruent","Congruent","Incongruent","Incongruent","Incongruent","Incongruent","Incongruent","Incongruent","Congruent","Congruent","Incongruent","Incongruent","Incongruent","Incongruent","Incongruent","Incongruent","Congruent","Incongruent","Incongruent","Congruent","Congruent","Incongruent","Congruent","Congruent","Congruent","Congruent","Congruent","Congruent","Incongruent","Congruent","Congruent","Incongruent","Congruent","Congruent","Congruent","Incongruent","Incongruent","Congruent","Incongruent","Incongruent","Incongruent","Incongruent","Incongruent","Incongruent","Incongruent","Incongruent","Incongruent","Incongruent","Congruent","Incongruent","Incongruent","Congruent","Incongruent","Congruent","Congruent","Incongruent","Congruent","Congruent","Congruent","Congruent","Incongruent","Incongruent","Congruent","Congruent","Incongruent","Incongruent"],"ratio_trial":[200,200,200,100,300,300,200,300,300,200,200,300,100,300,200,100,100,100,300,300,200,300,300,300,200,200,200,100,100,100,300,100,300,100,300,100,100,200,300,300,300,100,300,300,300,200,100,100,100,100,300,100,200,300,300,200,200,300,200,100,300,200,100,200,100,100,200,200,300,200,200,100,300,300,200,300,300,300,100,200,100,100,300,100,300,100,100,300,100,100,100,200,300,200,300,200,200,100,300,100,100,200,100,200,200,200,100,100,200,300,300,200,200,200,100,200,100,200,200,300],"left_num":[3,3,7,2,1,8,8,11,20,6,21,13,10,2,9,4,2,11,4,4,7,3,13,11,11,14,14,12,4,3,13,3,20,2,20,2,13,4,13,24,4,2,1,20,1,6,7,13,2,12,8,9,7,8,5,3,11,4,14,9,4,3,2,6,3,8,7,14,4,7,7,6,4,1,9,2,5,2,4,3,1,15,8,11,2,12,7,2,1,9,13,9,4,7,4,7,4,2,7,3,3,1,2,3,7,1,9,8,3,4,1,1,6,3,17,11,4,3,7,8],"right_num":[9,11,6,8,7,10,7,1,13,7,2,12,3,6,4,15,6,6,1,13,14,4,12,2,3,6,6,2,8,11,12,2,9,11,5,6,6,6,12,2,2,6,8,8,3,7,15,12,11,13,14,6,12,9,7,9,3,2,12,20,2,11,6,11,11,1,14,6,2,4,18,7,2,3,13,6,7,10,15,14,18,13,14,6,12,9,15,12,18,20,12,13,2,8,6,4,14,8,8,11,4,2,11,1,8,21,6,2,14,8,11,21,7,14,10,3,15,7,4,9],"left_den":[12,10,15,4,20,15,15,22,25,12,30,26,25,4,20,10,5,22,10,20,10,6,26,22,20,28,30,30,8,5,26,6,25,5,25,5,26,5,26,30,20,4,30,25,5,12,14,26,5,30,10,18,10,10,25,12,20,20,30,10,20,4,5,20,5,20,10,30,20,15,15,10,20,5,30,4,25,20,10,6,2,25,10,22,10,24,14,10,2,10,26,30,20,10,5,15,6,4,10,5,6,3,5,10,10,2,18,16,6,5,5,2,12,6,30,20,10,10,15,10],"right_den":[20,22,9,20,20,12,21,5,26,10,4,15,10,30,16,30,12,15,10,26,28,20,15,10,4,20,9,4,20,22,15,5,18,22,10,12,10,10,15,4,4,15,24,16,6,10,25,20,22,26,28,10,24,18,14,20,4,4,18,25,4,20,12,22,22,2,28,9,4,6,27,14,4,6,26,30,14,25,30,20,30,26,28,15,24,15,25,24,30,25,20,26,4,16,12,6,30,20,20,22,10,15,22,2,16,30,10,5,20,16,22,30,10,20,15,4,30,14,6,18],"correct_side":[2,2,2,1,2,2,1,1,1,2,1,2,1,1,1,2,2,1,1,2,1,1,2,1,2,1,2,2,1,1,2,1,1,2,1,2,2,1,2,1,2,1,2,1,2,2,2,2,2,2,1,2,1,1,2,2,2,2,2,1,2,1,2,2,1,2,1,2,2,2,2,1,2,2,2,1,2,2,2,2,2,1,1,1,2,2,2,2,2,1,2,2,2,1,1,2,1,1,1,1,1,1,2,2,1,2,2,1,2,1,2,2,2,2,2,2,2,2,2,1],"img_shown":["img2/200/Congruent/R/C_Dist_200_LN_3_LD_12_RN_9_RD_20_1.png","img2/200/Congruent/R/C_Dist_200_LN_3_LD_10_RN_11_RD_22_1.png","img2/200/Incongruent/R/I_Dist_200_LN_7_LD_15_RN_6_RD_9_1.png","img2/100/Incongruent/L/I_Dist_100_LN_2_LD_4_RN_8_RD_20_0.png","img2/300/Congruent/R/C_Dist_300_LN_1_LD_20_RN_7_RD_20_1.png","img2/300/Congruent/R/C_Dist_300_LN_8_LD_15_RN_10_RD_12_1.png","img2/200/Congruent/L/C_Dist_200_LN_8_LD_15_RN_7_RD_21_0.png","img2/300/Congruent/L/C_Dist_300_LN_11_LD_22_RN_1_RD_5_0.png","img2/300/Congruent/L/C_Dist_300_LN_20_LD_25_RN_13_RD_26_0.png","img2/200/Congruent/R/C_Dist_200_LN_6_LD_12_RN_7_RD_10_1.png","img2/200/Congruent/L/C_Dist_200_LN_21_LD_30_RN_2_RD_4_0.png","img2/300/Incongruent/R/I_Dist_300_LN_13_LD_26_RN_12_RD_15_1.png","img2/100/Congruent/L/C_Dist_100_LN_10_LD_25_RN_3_RD_10_0.png","img2/300/Incongruent/L/I_Dist_300_LN_2_LD_4_RN_6_RD_30_0.png","img2/200/Congruent/L/C_Dist_200_LN_9_LD_20_RN_4_RD_16_0.png","img2/100/Congruent/R/C_Dist_100_LN_4_LD_10_RN_15_RD_30_1.png","img2/100/Congruent/R/C_Dist_100_LN_2_LD_5_RN_6_RD_12_1.png","img2/100/Congruent/L/C_Dist_100_LN_11_LD_22_RN_6_RD_15_0.png","img2/300/Congruent/L/C_Dist_300_LN_4_LD_10_RN_1_RD_10_0.png","img2/300/Congruent/R/C_Dist_300_LN_4_LD_20_RN_13_RD_26_1.png","img2/200/Incongruent/L/I_Dist_200_LN_7_LD_10_RN_14_RD_28_0.png","img2/300/Incongruent/L/I_Dist_300_LN_3_LD_6_RN_4_RD_20_0.png","img2/300/Incongruent/R/I_Dist_300_LN_13_LD_26_RN_12_RD_15_1.png","img2/300/Congruent/L/C_Dist_300_LN_11_LD_22_RN_2_RD_10_0.png","img2/200/Incongruent/R/I_Dist_200_LN_11_LD_20_RN_3_RD_4_1.png","img2/200/Congruent/L/C_Dist_200_LN_14_LD_28_RN_6_RD_20_0.png","img2/200/Incongruent/R/I_Dist_200_LN_14_LD_30_RN_6_RD_9_1.png","img2/100/Incongruent/R/I_Dist_100_LN_12_LD_30_RN_2_RD_4_1.png","img2/100/Incongruent/L/I_Dist_100_LN_4_LD_8_RN_8_RD_20_0.png","img2/100/Incongruent/L/I_Dist_100_LN_3_LD_5_RN_11_RD_22_0.png","img2/300/Incongruent/R/I_Dist_300_LN_13_LD_26_RN_12_RD_15_1.png","img2/100/Congruent/L/C_Dist_100_LN_3_LD_6_RN_2_RD_5_0.png","img2/300/Congruent/L/C_Dist_300_LN_20_LD_25_RN_9_RD_18_0.png","img2/100/Congruent/R/C_Dist_100_LN_2_LD_5_RN_11_RD_22_1.png","img2/300/Congruent/L/C_Dist_300_LN_20_LD_25_RN_5_RD_10_0.png","img2/100/Congruent/R/C_Dist_100_LN_2_LD_5_RN_6_RD_12_1.png","img2/100/Incongruent/R/I_Dist_100_LN_13_LD_26_RN_6_RD_10_1.png","img2/200/Incongruent/L/I_Dist_200_LN_4_LD_5_RN_6_RD_10_0.png","img2/300/Incongruent/R/I_Dist_300_LN_13_LD_26_RN_12_RD_15_1.png","img2/300/Congruent/L/C_Dist_300_LN_24_LD_30_RN_2_RD_4_0.png","img2/300/Incongruent/R/I_Dist_300_LN_4_LD_20_RN_2_RD_4_1.png","img2/100/Incongruent/L/I_Dist_100_LN_2_LD_4_RN_6_RD_15_0.png","img2/300/Congruent/R/C_Dist_300_LN_1_LD_30_RN_8_RD_24_1.png","img2/300/Congruent/L/C_Dist_300_LN_20_LD_25_RN_8_RD_16_0.png","img2/300/Congruent/R/C_Dist_300_LN_1_LD_5_RN_3_RD_6_1.png","img2/200/Congruent/R/C_Dist_200_LN_6_LD_12_RN_7_RD_10_1.png","img2/100/Congruent/R/C_Dist_100_LN_7_LD_14_RN_15_RD_25_1.png","img2/100/Incongruent/R/I_Dist_100_LN_13_LD_26_RN_12_RD_20_1.png","img2/100/Congruent/R/C_Dist_100_LN_2_LD_5_RN_11_RD_22_1.png","img2/100/Congruent/R/C_Dist_100_LN_12_LD_30_RN_13_RD_26_1.png","img2/300/Incongruent/L/I_Dist_300_LN_8_LD_10_RN_14_RD_28_0.png","img2/100/Incongruent/R/I_Dist_100_LN_9_LD_18_RN_6_RD_10_1.png","img2/200/Incongruent/L/I_Dist_200_LN_7_LD_10_RN_12_RD_24_0.png","img2/300/Incongruent/L/I_Dist_300_LN_8_LD_10_RN_9_RD_18_0.png","img2/300/Congruent/R/C_Dist_300_LN_5_LD_25_RN_7_RD_14_1.png","img2/200/Congruent/R/C_Dist_200_LN_3_LD_12_RN_9_RD_20_1.png","img2/200/Incongruent/R/I_Dist_200_LN_11_LD_20_RN_3_RD_4_1.png","img2/300/Incongruent/R/I_Dist_300_LN_4_LD_20_RN_2_RD_4_1.png","img2/200/Incongruent/R/I_Dist_200_LN_14_LD_30_RN_12_RD_18_1.png","img2/100/Incongruent/L/I_Dist_100_LN_9_LD_10_RN_20_RD_25_0.png","img2/300/Incongruent/R/I_Dist_300_LN_4_LD_20_RN_2_RD_4_1.png","img2/200/Incongruent/L/I_Dist_200_LN_3_LD_4_RN_11_RD_20_0.png","img2/100/Congruent/R/C_Dist_100_LN_2_LD_5_RN_6_RD_12_1.png","img2/200/Congruent/R/C_Dist_200_LN_6_LD_20_RN_11_RD_22_1.png","img2/100/Incongruent/L/I_Dist_100_LN_3_LD_5_RN_11_RD_22_0.png","img2/100/Incongruent/R/I_Dist_100_LN_8_LD_20_RN_1_RD_2_1.png","img2/200/Incongruent/L/I_Dist_200_LN_7_LD_10_RN_14_RD_28_0.png","img2/200/Incongruent/R/I_Dist_200_LN_14_LD_30_RN_6_RD_9_1.png","img2/300/Incongruent/R/I_Dist_300_LN_4_LD_20_RN_2_RD_4_1.png","img2/200/Incongruent/R/I_Dist_200_LN_7_LD_15_RN_4_RD_6_1.png","img2/200/Congruent/R/C_Dist_200_LN_7_LD_15_RN_18_RD_27_1.png","img2/100/Incongruent/L/I_Dist_100_LN_6_LD_10_RN_7_RD_14_0.png","img2/300/Incongruent/R/I_Dist_300_LN_4_LD_20_RN_2_RD_4_1.png","img2/300/Congruent/R/C_Dist_300_LN_1_LD_5_RN_3_RD_6_1.png","img2/200/Congruent/R/C_Dist_200_LN_9_LD_30_RN_13_RD_26_1.png","img2/300/Incongruent/L/I_Dist_300_LN_2_LD_4_RN_6_RD_30_0.png","img2/300/Congruent/R/C_Dist_300_LN_5_LD_25_RN_7_RD_14_1.png","img2/300/Congruent/R/C_Dist_300_LN_2_LD_20_RN_10_RD_25_1.png","img2/100/Congruent/R/C_Dist_100_LN_4_LD_10_RN_15_RD_30_1.png","img2/200/Congruent/R/C_Dist_200_LN_3_LD_6_RN_14_RD_20_1.png","img2/100/Congruent/R/C_Dist_100_LN_1_LD_2_RN_18_RD_30_1.png","img2/100/Congruent/L/C_Dist_100_LN_15_LD_25_RN_13_RD_26_0.png","img2/300/Incongruent/L/I_Dist_300_LN_8_LD_10_RN_14_RD_28_0.png","img2/100/Congruent/L/C_Dist_100_LN_11_LD_22_RN_6_RD_15_0.png","img2/300/Congruent/R/C_Dist_300_LN_2_LD_10_RN_12_RD_24_1.png","img2/100/Incongruent/R/I_Dist_100_LN_12_LD_24_RN_9_RD_15_1.png","img2/100/Congruent/R/C_Dist_100_LN_7_LD_14_RN_15_RD_25_1.png","img2/300/Congruent/R/C_Dist_300_LN_2_LD_10_RN_12_RD_24_1.png","img2/100/Congruent/R/C_Dist_100_LN_1_LD_2_RN_18_RD_30_1.png","img2/100/Incongruent/L/I_Dist_100_LN_9_LD_10_RN_20_RD_25_0.png","img2/100/Incongruent/R/I_Dist_100_LN_13_LD_26_RN_12_RD_20_1.png","img2/200/Congruent/R/C_Dist_200_LN_9_LD_30_RN_13_RD_26_1.png","img2/300/Incongruent/R/I_Dist_300_LN_4_LD_20_RN_2_RD_4_1.png","img2/200/Incongruent/L/I_Dist_200_LN_7_LD_10_RN_8_RD_16_0.png","img2/300/Incongruent/L/I_Dist_300_LN_4_LD_5_RN_6_RD_12_0.png","img2/200/Incongruent/R/I_Dist_200_LN_7_LD_15_RN_4_RD_6_1.png","img2/200/Incongruent/L/I_Dist_200_LN_4_LD_6_RN_14_RD_30_0.png","img2/100/Incongruent/L/I_Dist_100_LN_2_LD_4_RN_8_RD_20_0.png","img2/300/Incongruent/L/I_Dist_300_LN_7_LD_10_RN_8_RD_20_0.png","img2/100/Incongruent/L/I_Dist_100_LN_3_LD_5_RN_11_RD_22_0.png","img2/100/Incongruent/L/I_Dist_100_LN_3_LD_6_RN_4_RD_10_0.png","img2/200/Incongruent/L/I_Dist_200_LN_1_LD_3_RN_2_RD_15_0.png","img2/100/Congruent/R/C_Dist_100_LN_2_LD_5_RN_11_RD_22_1.png","img2/200/Incongruent/R/I_Dist_200_LN_3_LD_10_RN_1_RD_2_1.png","img2/200/Incongruent/L/I_Dist_200_LN_7_LD_10_RN_8_RD_16_0.png","img2/200/Congruent/R/C_Dist_200_LN_1_LD_2_RN_21_RD_30_1.png","img2/100/Incongruent/R/I_Dist_100_LN_9_LD_18_RN_6_RD_10_1.png","img2/100/Congruent/L/C_Dist_100_LN_8_LD_16_RN_2_RD_5_0.png","img2/200/Congruent/R/C_Dist_200_LN_3_LD_6_RN_14_RD_20_1.png","img2/300/Incongruent/L/I_Dist_300_LN_4_LD_5_RN_8_RD_16_0.png","img2/300/Congruent/R/C_Dist_300_LN_1_LD_5_RN_11_RD_22_1.png","img2/200/Congruent/R/C_Dist_200_LN_1_LD_2_RN_21_RD_30_1.png","img2/200/Congruent/R/C_Dist_200_LN_6_LD_12_RN_7_RD_10_1.png","img2/200/Congruent/R/C_Dist_200_LN_3_LD_6_RN_14_RD_20_1.png","img2/100/Incongruent/R/I_Dist_100_LN_17_LD_30_RN_10_RD_15_1.png","img2/200/Incongruent/R/I_Dist_200_LN_11_LD_20_RN_3_RD_4_1.png","img2/100/Congruent/R/C_Dist_100_LN_4_LD_10_RN_15_RD_30_1.png","img2/200/Congruent/R/C_Dist_200_LN_3_LD_10_RN_7_RD_14_1.png","img2/200/Incongruent/R/I_Dist_200_LN_7_LD_15_RN_4_RD_6_1.png","img2/300/Incongruent/L/I_Dist_300_LN_8_LD_10_RN_9_RD_18_0.png"],"dist100_C":[["C_Dist_100_LN_10_LD_25_RN_3_RD_10_0.png","C_Dist_100_LN_11_LD_22_RN_4_RD_10_0.png","C_Dist_100_LN_11_LD_22_RN_6_RD_15_0.png","C_Dist_100_LN_15_LD_25_RN_13_RD_26_0.png","C_Dist_100_LN_3_LD_6_RN_2_RD_5_0.png","C_Dist_100_LN_6_LD_20_RN_5_RD_25_0.png","C_Dist_100_LN_8_LD_16_RN_2_RD_5_0.png","C_Dist_100_LN_9_LD_15_RN_8_RD_16_0.png"],["C_Dist_100_LN_1_LD_2_RN_18_RD_30_1.png","C_Dist_100_LN_1_LD_2_RN_3_RD_5_1.png","C_Dist_100_LN_12_LD_30_RN_13_RD_26_1.png","C_Dist_100_LN_2_LD_5_RN_11_RD_22_1.png","C_Dist_100_LN_2_LD_5_RN_6_RD_12_1.png","C_Dist_100_LN_3_LD_20_RN_4_RD_16_1.png","C_Dist_100_LN_4_LD_10_RN_15_RD_30_1.png","C_Dist_100_LN_4_LD_8_RN_6_RD_10_1.png","C_Dist_100_LN_6_LD_12_RN_15_RD_25_1.png","C_Dist_100_LN_7_LD_14_RN_15_RD_25_1.png","C_Dist_100_LN_7_LD_14_RN_9_RD_15_1.png"]],"dist100_I":[["I_Dist_100_LN_1_LD_2_RN_8_RD_20_0.png","I_Dist_100_LN_2_LD_4_RN_6_RD_15_0.png","I_Dist_100_LN_2_LD_4_RN_8_RD_20_0.png","I_Dist_100_LN_3_LD_5_RN_11_RD_22_0.png","I_Dist_100_LN_3_LD_5_RN_8_RD_16_0.png","I_Dist_100_LN_3_LD_6_RN_4_RD_10_0.png","I_Dist_100_LN_3_LD_9_RN_7_RD_30_0.png","I_Dist_100_LN_4_LD_8_RN_8_RD_20_0.png","I_Dist_100_LN_6_LD_10_RN_11_RD_22_0.png","I_Dist_100_LN_6_LD_10_RN_13_RD_26_0.png","I_Dist_100_LN_6_LD_10_RN_7_RD_14_0.png","I_Dist_100_LN_9_LD_10_RN_20_RD_25_0.png","I_Dist_100_LN_9_LD_15_RN_13_RD_26_0.png","I_Dist_100_LN_9_LD_15_RN_14_RD_28_0.png"],["I_Dist_100_LN_10_LD_25_RN_8_RD_16_1.png","I_Dist_100_LN_10_LD_25_RN_9_RD_18_1.png","I_Dist_100_LN_11_LD_22_RN_9_RD_15_1.png","I_Dist_100_LN_12_LD_24_RN_9_RD_15_1.png","I_Dist_100_LN_12_LD_30_RN_2_RD_4_1.png","I_Dist_100_LN_13_LD_26_RN_12_RD_20_1.png","I_Dist_100_LN_13_LD_26_RN_6_RD_10_1.png","I_Dist_100_LN_17_LD_30_RN_10_RD_15_1.png","I_Dist_100_LN_6_LD_12_RN_3_RD_5_1.png","I_Dist_100_LN_8_LD_16_RN_6_RD_10_1.png","I_Dist_100_LN_8_LD_20_RN_1_RD_2_1.png","I_Dist_100_LN_9_LD_18_RN_6_RD_10_1.png"]],"dist100_S":[["E_Dist_100_LN_2_LD_12_RN_2_RD_30_0.png","E_Dist_100_LN_6_LD_10_RN_6_RD_12_0.png"],["E_Dist_100_LN_6_LD_12_RN_6_RD_10_1.png"]],"dist200_C":[["C_Dist_200_LN_11_LD_22_RN_3_RD_10_0.png","C_Dist_200_LN_12_LD_15_RN_6_RD_10_0.png","C_Dist_200_LN_12_LD_20_RN_6_RD_15_0.png","C_Dist_200_LN_14_LD_28_RN_6_RD_20_0.png","C_Dist_200_LN_15_LD_25_RN_4_RD_10_0.png","C_Dist_200_LN_16_LD_20_RN_12_RD_20_0.png","C_Dist_200_LN_16_LD_30_RN_9_RD_27_0.png","C_Dist_200_LN_20_LD_25_RN_9_RD_15_0.png","C_Dist_200_LN_21_LD_30_RN_2_RD_4_0.png","C_Dist_200_LN_4_LD_10_RN_3_RD_15_0.png","C_Dist_200_LN_4_LD_8_RN_3_RD_10_0.png","C_Dist_200_LN_6_LD_15_RN_3_RD_15_0.png","C_Dist_200_LN_7_LD_21_RN_2_RD_15_0.png","C_Dist_200_LN_8_LD_15_RN_2_RD_6_0.png","C_Dist_200_LN_8_LD_15_RN_3_RD_9_0.png","C_Dist_200_LN_8_LD_15_RN_7_RD_21_0.png","C_Dist_200_LN_9_LD_20_RN_4_RD_16_0.png"],["C_Dist_200_LN_1_LD_2_RN_21_RD_30_1.png","C_Dist_200_LN_13_LD_26_RN_14_RD_20_1.png","C_Dist_200_LN_3_LD_10_RN_11_RD_22_1.png","C_Dist_200_LN_3_LD_10_RN_14_RD_28_1.png","C_Dist_200_LN_3_LD_10_RN_7_RD_14_1.png","C_Dist_200_LN_3_LD_12_RN_9_RD_20_1.png","C_Dist_200_LN_3_LD_6_RN_14_RD_20_1.png","C_Dist_200_LN_5_LD_10_RN_14_RD_20_1.png","C_Dist_200_LN_6_LD_12_RN_7_RD_10_1.png","C_Dist_200_LN_6_LD_20_RN_11_RD_22_1.png","C_Dist_200_LN_7_LD_15_RN_18_RD_27_1.png","C_Dist_200_LN_9_LD_30_RN_13_RD_26_1.png"]],"dist200_I":[["I_Dist_200_LN_1_LD_2_RN_3_RD_10_0.png","I_Dist_200_LN_1_LD_3_RN_2_RD_15_0.png","I_Dist_200_LN_3_LD_4_RN_11_RD_20_0.png","I_Dist_200_LN_4_LD_5_RN_6_RD_10_0.png","I_Dist_200_LN_4_LD_6_RN_14_RD_30_0.png","I_Dist_200_LN_7_LD_10_RN_12_RD_24_0.png","I_Dist_200_LN_7_LD_10_RN_14_RD_28_0.png","I_Dist_200_LN_7_LD_10_RN_8_RD_16_0.png"],["I_Dist_200_LN_11_LD_20_RN_3_RD_4_1.png","I_Dist_200_LN_14_LD_30_RN_12_RD_18_1.png","I_Dist_200_LN_14_LD_30_RN_6_RD_9_1.png","I_Dist_200_LN_3_LD_10_RN_1_RD_2_1.png","I_Dist_200_LN_4_LD_30_RN_1_RD_3_1.png","I_Dist_200_LN_6_LD_20_RN_3_RD_6_1.png","I_Dist_200_LN_7_LD_15_RN_4_RD_6_1.png","I_Dist_200_LN_7_LD_15_RN_6_RD_9_1.png","I_Dist_200_LN_9_LD_15_RN_8_RD_10_1.png"]],"dist200_S":[["E_Dist_200_LN_3_LD_6_RN_3_RD_10_0.png"],["E_Dist_200_LN_3_LD_10_RN_3_RD_6_1.png"]],"dist300_C":[["C_Dist_300_LN_11_LD_22_RN_1_RD_5_0.png","C_Dist_300_LN_11_LD_22_RN_2_RD_10_0.png","C_Dist_300_LN_11_LD_22_RN_4_RD_20_0.png","C_Dist_300_LN_12_LD_24_RN_2_RD_10_0.png","C_Dist_300_LN_18_LD_20_RN_9_RD_15_0.png","C_Dist_300_LN_20_LD_25_RN_13_RD_26_0.png","C_Dist_300_LN_20_LD_25_RN_14_RD_28_0.png","C_Dist_300_LN_20_LD_25_RN_5_RD_10_0.png","C_Dist_300_LN_20_LD_25_RN_8_RD_16_0.png","C_Dist_300_LN_20_LD_25_RN_9_RD_18_0.png","C_Dist_300_LN_24_LD_30_RN_2_RD_4_0.png","C_Dist_300_LN_24_LD_30_RN_8_RD_16_0.png","C_Dist_300_LN_3_LD_6_RN_2_RD_10_0.png","C_Dist_300_LN_4_LD_10_RN_1_RD_10_0.png","C_Dist_300_LN_4_LD_5_RN_2_RD_4_0.png","C_Dist_300_LN_8_LD_16_RN_1_RD_5_0.png","C_Dist_300_LN_9_LD_10_RN_3_RD_5_0.png"],["C_Dist_300_LN_1_LD_20_RN_7_RD_20_1.png","C_Dist_300_LN_1_LD_3_RN_19_RD_30_1.png","C_Dist_300_LN_1_LD_30_RN_8_RD_24_1.png","C_Dist_300_LN_1_LD_5_RN_11_RD_22_1.png","C_Dist_300_LN_1_LD_5_RN_3_RD_6_1.png","C_Dist_300_LN_1_LD_5_RN_6_RD_12_1.png","C_Dist_300_LN_2_LD_10_RN_12_RD_24_1.png","C_Dist_300_LN_2_LD_20_RN_10_RD_25_1.png","C_Dist_300_LN_3_LD_12_RN_11_RD_20_1.png","C_Dist_300_LN_3_LD_6_RN_4_RD_5_1.png","C_Dist_300_LN_4_LD_20_RN_13_RD_26_1.png","C_Dist_300_LN_5_LD_25_RN_6_RD_12_1.png","C_Dist_300_LN_5_LD_25_RN_7_RD_14_1.png","C_Dist_300_LN_7_LD_14_RN_20_RD_25_1.png","C_Dist_300_LN_8_LD_15_RN_10_RD_12_1.png"]],"dist300_I":[["I_Dist_300_LN_1_LD_2_RN_2_RD_10_0.png","I_Dist_300_LN_1_LD_2_RN_3_RD_15_0.png","I_Dist_300_LN_2_LD_4_RN_6_RD_30_0.png","I_Dist_300_LN_3_LD_6_RN_4_RD_20_0.png","I_Dist_300_LN_4_LD_5_RN_6_RD_12_0.png","I_Dist_300_LN_4_LD_5_RN_8_RD_16_0.png","I_Dist_300_LN_7_LD_10_RN_8_RD_20_0.png","I_Dist_300_LN_8_LD_10_RN_14_RD_28_0.png","I_Dist_300_LN_8_LD_10_RN_9_RD_18_0.png"],["I_Dist_300_LN_13_LD_26_RN_12_RD_15_1.png","I_Dist_300_LN_4_LD_20_RN_2_RD_4_1.png"]],"dist300_S":[["E_Dist_300_LN_9_LD_12_RN_9_RD_20_0.png"],["E_Dist_300_LN_18_LD_30_RN_18_RD_20_1.png","E_Dist_300_LN_3_LD_10_RN_3_RD_5_1.png","E_Dist_300_LN_9_LD_20_RN_9_RD_12_1.png"]],"dist500_C":[["C_Dist_500_LN_10_LD_13_RN_7_RD_26_0.png","C_Dist_500_LN_10_LD_15_RN_4_RD_24_0.png","C_Dist_500_LN_12_LD_16_RN_3_RD_12_0.png","C_Dist_500_LN_12_LD_18_RN_4_RD_24_0.png","C_Dist_500_LN_15_LD_18_RN_5_RD_15_0.png","C_Dist_500_LN_15_LD_20_RN_1_RD_4_0.png","C_Dist_500_LN_18_LD_27_RN_1_RD_6_0.png","C_Dist_500_LN_20_LD_24_RN_1_RD_3_0.png","C_Dist_500_LN_20_LD_24_RN_3_RD_9_0.png","C_Dist_500_LN_20_LD_24_RN_7_RD_21_0.png","C_Dist_500_LN_20_LD_28_RN_3_RD_14_0.png","C_Dist_500_LN_21_LD_28_RN_6_RD_24_0.png","C_Dist_500_LN_22_LD_28_RN_2_RD_7_0.png","C_Dist_500_LN_25_LD_30_RN_9_RD_27_0.png","C_Dist_500_LN_4_LD_6_RN_1_RD_6_0.png","C_Dist_500_LN_5_LD_6_RN_2_RD_6_0.png","C_Dist_500_LN_6_LD_9_RN_1_RD_6_0.png","C_Dist_500_LN_7_LD_10_RN_1_RD_5_0.png","C_Dist_500_LN_8_LD_12_RN_1_RD_6_0.png","C_Dist_500_LN_8_LD_12_RN_4_RD_24_0.png"],["C_Dist_500_LN_1_LD_4_RN_12_RD_16_1.png","C_Dist_500_LN_1_LD_4_RN_9_RD_12_1.png","C_Dist_500_LN_1_LD_9_RN_11_RD_18_1.png","C_Dist_500_LN_10_LD_24_RN_22_RD_24_1.png","C_Dist_500_LN_2_LD_12_RN_10_RD_15_1.png","C_Dist_500_LN_2_LD_12_RN_12_RD_18_1.png","C_Dist_500_LN_2_LD_12_RN_4_RD_6_1.png","C_Dist_500_LN_2_LD_24_RN_7_RD_12_1.png","C_Dist_500_LN_2_LD_5_RN_18_RD_20_1.png","C_Dist_500_LN_2_LD_5_RN_9_RD_10_1.png","C_Dist_500_LN_2_LD_8_RN_12_RD_16_1.png","C_Dist_500_LN_2_LD_8_RN_21_RD_28_1.png","C_Dist_500_LN_3_LD_10_RN_4_RD_5_1.png","C_Dist_500_LN_3_LD_12_RN_15_RD_20_1.png","C_Dist_500_LN_3_LD_30_RN_6_RD_10_1.png","C_Dist_500_LN_3_LD_8_RN_14_RD_16_1.png","C_Dist_500_LN_4_LD_16_RN_15_RD_20_1.png","C_Dist_500_LN_4_LD_24_RN_12_RD_18_1.png","C_Dist_500_LN_5_LD_14_RN_6_RD_7_1.png","C_Dist_500_LN_7_LD_21_RN_20_RD_24_1.png","C_Dist_500_LN_7_LD_28_RN_12_RD_16_1.png","C_Dist_500_LN_7_LD_28_RN_9_RD_12_1.png","C_Dist_500_LN_9_LD_27_RN_20_RD_24_1.png"]],"dist500_I":[["I_Dist_500_LN_2_LD_3_RN_4_RD_24_0.png","I_Dist_500_LN_5_LD_6_RN_6_RD_18_0.png","I_Dist_500_LN_7_LD_8_RN_9_RD_24_0.png"],["I_Dist_500_LN_7_LD_21_RN_5_RD_6_1.png"]],"dist500_S":[["E_Dist_500_LN_6_LD_8_RN_6_RD_24_0.png"],["E_Dist_500_LN_2_LD_12_RN_2_RD_3_1.png","E_Dist_500_LN_6_LD_24_RN_6_RD_8_1.png"]]}},{"start_time":1551886972659,"click_time":1551886980614,"finger_time":1551886980032,"fix_duration":363.8496963910952,"trial":1,"RT":7373,"MT":582,"sideResp":2,"stimulus":[],"xmouse":[794,794,794,794,794,794,794,794,794,794,794,794,794,794,794,794,794,794,794,794,794,794,794,794,794,794,794,794,794,794,794,794,794,794,794,794,794,794,794,794,794,794,794,794,794,794,794,794,794,794,794,794,794,794,794,794,794,794,794,794,794,794,794,794,794,794,794,794,794,794,794,794,794,794,794,794,794,794,794,794,794,794,794,794,794,794,794,794,794,794,794,794,794,794,794,794,794,794,794,794,794,794,794,794,794,794,794,794,794,794,794,794,794,794,794,794,794,794,794,794,794,794,794,794,794,794,794,794,794,794,794,794,794,794,794,794,794,794,794,794,794,794,794,794,794,794,794,794,794,794,794,794,794,794,794,794,794,794,794,794,794,794,794,794,794,794,794,794,794,794,794,794,794,794,794,794,794,794,794,794,794,794,794,794,794,794,794,794,794,794,794,794,794,794,794,794,794,794,794,794,794,792,789,786,784,784,784,784,784,784,784,784,784,784,784,784,784,784,784,784,784,784,783,781,778,776,776,776,776,776,776,776,776,776,776,776,776,776,776,776,776,776,776,776,776,776,776,776,776,776,776,776,776,776,776,776,776,776,776,776,776,776,776,776,776,776,776,776,776,776,776,776,776,776,776,776,776,776,776,776,776,776,776,776,776,776,776,776,776,776,776,776,776,776,776,776,776,776,776,776,776,776,776,776,776,776,776,776,776,776,776,776,776,776,776,776,776,776,776,776,776,776,776,776,776,776,776,776,776,776,776,776,776,776,776,776,776,776,776,776,776,776,776,776,776,776,776,776,776,776,776,776,776,776,776,776,776,776,776,776,776,776,776,776,776,776,778,788,797,804,813,821,847,863,887,899,925,933,941,948,957,970,1002,1012,1020,1023,1024,1034,1045,1059,1070,1082,1083,1083,1083,1083,1083,1084],"ymouse":[615,615,615,615,615,615,615,615,615,615,615,615,615,615,615,615,615,615,615,615,615,615,615,615,615,615,615,615,615,615,615,615,615,615,615,615,615,615,615,615,615,615,615,615,615,615,615,615,615,615,615,615,615,615,615,615,615,615,615,615,615,615,615,615,615,615,615,615,615,615,615,615,615,615,615,615,615,615,615,615,615,615,615,615,615,615,615,615,615,615,615,615,615,615,615,615,615,615,615,615,615,615,615,615,615,615,615,615,615,615,615,615,615,615,615,615,615,615,615,615,615,615,615,615,615,615,615,615,615,615,615,615,615,615,615,615,615,615,615,615,615,615,615,615,615,615,615,615,615,615,615,615,615,615,615,615,615,615,615,615,615,615,615,615,615,615,615,615,615,615,615,615,615,615,615,615,615,615,615,615,615,615,615,615,615,615,615,615,615,615,615,615,615,615,615,615,615,615,615,615,615,615,615,616,616,616,616,616,616,616,616,616,616,616,616,616,616,616,616,616,616,616,616,616,615,614,614,614,614,614,614,614,614,614,614,614,614,614,614,614,614,614,614,614,614,614,614,614,614,614,614,614,614,614,614,614,614,614,614,614,614,614,614,614,614,614,614,614,614,614,614,614,614,614,614,614,614,614,614,614,614,614,614,614,614,614,614,614,614,614,614,614,614,614,614,614,614,614,614,614,614,614,614,614,614,614,614,614,614,614,614,614,614,614,614,614,614,614,614,614,614,614,614,614,614,614,614,614,614,614,614,614,614,614,614,614,614,614,614,614,614,614,614,614,614,614,614,614,614,614,614,614,614,614,614,614,614,614,614,614,614,614,614,614,614,612,608,586,571,557,537,516,456,423,381,360,314,293,275,257,236,213,159,137,115,108,106,106,106,108,109,109,109,109,109,109,109,97],"timestamp_mouse":[14,37,53,75,94,114,133,155,174,193,213,234,253,275,294,313,334,353,374,393,415,433,454,473,494,513,533,553,574,593,613,634,653,674,695,714,733,754,773,793,813,834,854,873,895,914,934,954,974,995,1014,1033,1054,1074,1094,1114,1133,1153,1173,1193,1214,1235,1253,1273,1293,1315,1333,1354,1373,1393,1414,1434,1453,1474,1493,1513,1533,1554,1574,1593,1614,1634,1653,1673,1693,1714,1735,1753,1773,1793,1814,1834,1855,1875,1893,1913,1934,1953,1973,1993,2013,2034,2053,2075,2093,2113,2133,2154,2173,2193,2213,2234,2254,2274,2293,2314,2334,2353,2374,2393,2414,2435,2453,2474,2494,2513,2533,2555,2573,2594,2614,2633,2653,2673,2693,2714,2733,2753,2774,2795,2815,2834,2853,2874,2893,2915,2933,2953,2974,2994,3014,3034,3053,3073,3093,3113,3133,3153,3173,3194,3214,3234,3253,3273,3293,3313,3333,3353,3373,3393,3413,3433,3453,3473,3493,3513,3534,3554,3573,3593,3613,3633,3653,3673,3693,3713,3733,3754,3774,3795,3813,3833,3853,3875,3893,3913,3933,3953,3975,3993,4015,4034,4054,4073,4094,4113,4134,4153,4173,4194,4213,4234,4253,4274,4293,4313,4334,4354,4375,4393,4414,4433,4454,4474,4494,4513,4533,4554,4574,4595,4613,4633,4654,4673,4694,4714,4733,4754,4773,4794,4814,4835,4853,4873,4893,4913,4933,4954,4975,4993,5013,5035,5053,5073,5093,5113,5133,5154,5173,5194,5213,5233,5253,5275,5293,5313,5333,5353,5373,5394,5413,5433,5453,5473,5493,5513,5534,5554,5573,5593,5614,5635,5654,5673,5695,5713,5735,5754,5775,5795,5813,5834,5853,5874,5893,5914,5935,5953,5973,5993,6015,6033,6054,6073,6093,6114,6133,6154,6173,6194,6213,6234,6253,6274,6294,6313,6334,6353,6373,6394,6414,6433,6453,6473,6495,6514,6533,6553,6573,6594,6613,6633,6654,6674,6695,6713,6733,6754,6773,6793,6813,6834,6854,6874,6895,6913,6934,6954,6973,6993,7013,7033,7054,7073,7094,7114,7134,7153,7173,7195,7214,7234,7253,7273,7295,7314,7333,7353,7373,7394,7413,7433,7453,7474,7493,7514,7535,7553,7573,7593,7613,7633,7654,7673,7693,7713,7733,7753,7773,7793,7813,7835,7853,7873,7894,7913,7933,7955],"xSR":741.5,"ySR":573.95,"xT1":424.9,"yT1":0,"xT2":1058.1,"yT2":0,"toosoon":0,"cond_shown":"Congruent","ratio_trial":200,"L_num":3,"L_den":10,"R_num":11,"R_den":22,"correct_side":2,"subjID":"SalomeOlivaresCalderon16","gender":"1","school":"","age":"6"},{"start_time":1551886982805,"click_time":1551886984632,"finger_time":1551886984413,"fix_duration":1272.593254417049,"trial":2,"RT":1608,"MT":219,"sideResp":2,"stimulus":[],"xmouse":[795,795,795,795,795,795,795,795,795,795,795,795,795,795,795,795,795,795,795,795,795,795,795,795,795,795,795,795,795,795,795,795,795,795,795,795,795,795,795,795,795,795,795,795,795,795,795,795,795,795,795,795,795,795,795,795,795,795,795,795,795,795,795,795,795,795,795,795,795,795,795,795,795,795,795,795,795,796,799,805,836,870,919,967,1009,1060,1071,1072,1075,1078,1089,1100],"ymouse":[628,628,628,628,628,628,628,628,628,628,628,628,628,628,628,628,628,628,628,628,628,628,628,628,628,628,628,628,628,628,628,628,628,628,628,628,628,628,628,628,628,628,628,628,628,628,628,628,628,628,628,628,628,628,628,628,628,628,628,628,628,628,628,628,628,628,628,628,628,628,628,628,628,628,628,628,628,628,622,610,555,496,425,355,297,231,211,208,198,181,111,76],"timestamp_mouse":[10,36,47,68,89,107,127,147,169,188,207,228,248,267,289,307,328,348,369,388,408,428,449,467,487,508,527,549,568,588,607,628,649,667,688,707,729,747,767,787,809,827,847,867,888,908,928,947,967,987,1008,1028,1047,1068,1087,1108,1127,1148,1169,1187,1207,1228,1248,1267,1287,1308,1327,1347,1368,1389,1408,1428,1448,1468,1488,1508,1527,1547,1568,1587,1608,1627,1647,1667,1688,1707,1727,1748,1769,1787,1807,1827],"xSR":741.5,"ySR":573.95,"xT1":424.9,"yT1":0,"xT2":1058.1,"yT2":0,"toosoon":0,"cond_shown":"Incongruent","ratio_trial":200,"L_num":7,"L_den":15,"R_num":6,"R_den":9,"correct_side":2,"subjID":"SalomeOlivaresCalderon16","gender":"1","school":"","age":"6"},{"start_time":1551886987616,"click_time":1551886989592,"finger_time":1551886989412,"fix_duration":442.5684359536306,"trial":3,"RT":1796,"MT":180,"sideResp":2,"stimulus":[],"xmouse":[801,801,801,801,801,801,801,801,801,801,801,801,801,801,801,801,801,801,801,801,801,801,801,801,801,801,801,801,801,801,801,801,801,801,801,801,801,801,801,801,801,801,801,801,801,801,801,801,801,801,801,801,801,801,801,801,801,801,801,801,801,801,801,801,801,801,801,801,801,801,801,801,801,801,801,801,801,801,801,801,801,801,801,801,801,801,801,802,806,855,898,947,989,1021,1056,1065,1074,1078,1088],"ymouse":[595,595,595,595,595,595,595,595,595,595,595,595,595,595,595,595,595,595,595,595,595,595,595,595,595,595,595,595,595,595,595,595,595,595,595,595,595,595,595,595,595,595,595,595,595,595,595,595,595,595,595,595,595,595,595,595,595,595,595,595,595,595,595,595,595,595,595,595,595,595,595,595,595,595,595,595,595,595,595,595,595,595,595,595,595,595,595,592,583,500,437,376,316,262,172,143,111,101,72],"timestamp_mouse":[24,43,56,77,97,116,137,157,177,196,217,236,256,277,296,318,336,356,378,396,417,437,457,477,497,517,536,557,576,596,617,636,656,676,697,716,737,756,777,796,818,837,857,877,897,917,938,957,976,996,1016,1037,1056,1077,1097,1116,1138,1157,1176,1197,1216,1236,1257,1278,1297,1317,1337,1357,1377,1396,1417,1436,1456,1478,1496,1516,1537,1556,1576,1596,1616,1637,1657,1676,1697,1717,1736,1757,1776,1796,1816,1837,1856,1876,1896,1917,1937,1957,1976],"xSR":741.5,"ySR":573.95,"xT1":424.9,"yT1":0,"xT2":1058.1,"yT2":0,"toosoon":0,"cond_shown":"Incongruent","ratio_trial":100,"L_num":2,"L_den":4,"R_num":8,"R_den":20,"correct_side":1,"subjID":"SalomeOlivaresCalderon16","gender":"1","school":"","age":"6"},{"start_time":1551886992147,"click_time":1551886993774,"finger_time":1551886993553,"fix_duration":1474.8543284831308,"trial":4,"RT":1406,"MT":221,"sideResp":2,"stimulus":[],"xmouse":[794,794,794,794,794,794,794,794,794,794,794,794,794,794,794,794,794,794,794,794,794,794,794,794,794,794,794,794,794,794,794,794,794,794,794,794,794,794,794,794,794,794,794,794,794,794,794,794,794,794,794,794,794,794,794,794,794,794,794,794,794,794,794,794,794,794,794,794,795,800,813,845,876,943,975,1008,1026,1040,1062,1073,1083,1091],"ymouse":[592,592,592,592,592,592,592,592,592,592,592,592,592,592,592,592,592,592,592,592,592,592,592,592,592,592,592,592,592,592,592,592,592,592,592,592,592,592,592,592,592,592,592,592,592,592,592,592,592,592,592,592,592,592,592,592,592,592,592,592,592,592,592,592,592,592,592,592,588,580,563,526,489,393,335,276,233,201,158,137,107,81],"timestamp_mouse":[8,35,46,67,87,106,125,145,166,186,205,225,245,266,286,306,325,347,366,386,405,427,446,465,487,505,527,545,566,585,605,626,645,665,686,707,726,746,766,785,807,825,845,865,885,906,926,947,966,985,1005,1025,1045,1067,1086,1106,1126,1145,1165,1186,1205,1226,1246,1265,1287,1306,1326,1347,1365,1386,1406,1426,1445,1466,1485,1507,1525,1545,1565,1585,1605,1627],"xSR":741.5,"ySR":573.95,"xT1":424.9,"yT1":0,"xT2":1058.1,"yT2":0,"toosoon":0,"cond_shown":"Congruent","ratio_trial":300,"L_num":1,"L_den":20,"R_num":7,"R_den":20,"correct_side":2,"subjID":"SalomeOlivaresCalderon16","gender":"1","school":"","age":"6"},{"start_time":1551886995544,"click_time":1551886997093,"finger_time":1551886996673,"fix_duration":250,"trial":5,"RT":1129,"MT":420,"sideResp":2,"stimulus":[],"xmouse":[786,786,786,785,784,782,781,780,779,779,779,779,779,779,779,779,779,779,779,779,779,779,779,779,779,779,779,779,779,779,779,779,779,779,779,779,779,779,779,779,779,779,779,779,779,779,779,779,779,779,779,779,779,779,782,789,798,825,845,866,888,906,929,950,958,967,976,987,991,993,995,995,995,1010,1029,1053,1080,1108],"ymouse":[591,592,593,595,595,596,597,597,597,597,597,597,597,597,597,597,597,597,597,597,597,597,597,597,597,597,597,597,597,597,597,597,597,597,597,597,597,597,597,597,597,597,597,597,597,597,597,597,597,597,597,597,597,596,589,579,563,519,487,443,406,368,315,268,247,225,206,173,163,157,153,153,153,145,138,127,112,97],"timestamp_mouse":[10,28,48,68,88,109,128,148,168,189,208,229,249,270,288,309,330,348,368,389,408,430,450,470,488,509,529,548,569,588,608,629,648,670,688,708,729,749,769,788,808,829,849,870,888,909,928,948,968,988,1009,1028,1048,1069,1089,1108,1129,1149,1168,1188,1208,1229,1248,1268,1289,1308,1328,1349,1369,1390,1408,1428,1448,1468,1488,1508,1528,1549],"xSR":741.5,"ySR":573.95,"xT1":424.9,"yT1":0,"xT2":1058.1,"yT2":0,"toosoon":0,"cond_shown":"Congruent","ratio_trial":300,"L_num":8,"L_den":15,"R_num":10,"R_den":12,"correct_side":2,"subjID":"SalomeOlivaresCalderon16","gender":"1","school":"","age":"6"},{"start_time":1551887000908,"click_time":1551887003012,"finger_time":1551887002712,"fix_duration":1434.1702623004448,"trial":6,"RT":1804,"MT":300,"sideResp":1,"stimulus":[],"xmouse":[787,787,787,787,787,787,787,787,787,787,787,787,787,787,787,787,787,787,787,787,787,787,787,787,787,787,787,787,787,787,787,787,787,787,787,787,787,787,787,787,787,787,787,787,787,787,787,787,787,787,787,787,787,787,787,787,787,787,787,787,787,787,787,787,787,787,787,787,787,787,787,787,787,787,787,787,787,787,787,787,787,787,787,787,787,787,787,787,785,783,762,744,729,715,697,686,680,672,661,649,636,629,619,585,542,453],"ymouse":[646,646,646,646,646,646,646,646,646,646,646,646,646,646,646,646,646,646,646,646,646,646,646,646,646,646,646,646,646,646,646,646,646,646,646,646,646,646,646,646,646,646,646,646,646,646,646,646,646,646,646,646,646,646,646,646,646,646,646,646,646,646,646,646,646,646,646,646,646,646,646,646,646,646,646,646,646,646,646,646,646,646,646,646,646,646,646,646,634,621,468,388,331,299,267,247,237,221,204,183,158,147,137,123,103,66],"timestamp_mouse":[8,35,45,65,84,104,125,144,165,185,204,225,244,264,284,306,324,345,366,385,404,424,444,466,484,504,524,544,565,585,605,624,645,665,684,706,724,744,766,785,804,826,845,865,885,904,925,946,964,984,1004,1024,1046,1065,1085,1104,1125,1144,1165,1186,1204,1225,1244,1264,1285,1304,1325,1346,1364,1384,1406,1424,1445,1466,1485,1504,1526,1544,1565,1584,1604,1624,1644,1665,1686,1705,1724,1744,1766,1784,1804,1824,1844,1865,1884,1904,1924,1944,1964,1984,2004,2026,2045,2064,2084,2104],"xSR":741.5,"ySR":573.95,"xT1":424.9,"yT1":0,"xT2":1058.1,"yT2":0,"toosoon":0,"cond_shown":"Congruent","ratio_trial":200,"L_num":8,"L_den":15,"R_num":7,"R_den":21,"correct_side":1,"subjID":"SalomeOlivaresCalderon16","gender":"1","school":"","age":"6"},{"start_time":1551887006864,"click_time":1551887008512,"finger_time":1551887008414,"fix_duration":250,"trial":7,"RT":1550,"MT":98,"sideResp":1,"stimulus":[],"xmouse":[805,805,805,805,805,805,805,805,805,805,805,805,805,805,805,805,805,805,805,805,805,805,805,805,805,805,805,805,805,805,805,805,805,805,805,805,805,805,805,805,805,805,805,805,805,805,805,805,805,805,805,805,805,805,805,805,805,805,805,805,805,805,805,805,805,805,805,805,805,805,805,805,805,805,805,805,769,723,673,634,598,540,516],"ymouse":[614,614,614,614,614,614,614,614,614,614,614,614,614,614,614,614,614,614,614,614,614,614,614,614,614,614,614,614,614,614,614,614,614,614,614,614,614,614,614,614,614,614,614,614,614,614,614,614,614,614,614,614,614,614,614,614,614,614,614,614,614,614,614,614,614,614,614,614,614,614,614,614,614,614,614,614,595,565,530,490,424,200,88],"timestamp_mouse":[8,34,48,68,88,108,129,148,169,188,210,228,249,268,289,308,329,349,368,389,410,429,449,470,489,509,528,549,568,588,609,628,650,668,689,708,728,750,770,789,809,828,848,870,889,908,930,949,969,988,1008,1029,1050,1068,1089,1108,1129,1149,1170,1190,1208,1228,1250,1270,1289,1309,1329,1349,1369,1389,1409,1429,1450,1469,1488,1509,1529,1550,1568,1588,1608,1628,1648],"xSR":741.5,"ySR":573.95,"xT1":424.9,"yT1":0,"xT2":1058.1,"yT2":0,"toosoon":0,"cond_shown":"Congruent","ratio_trial":300,"L_num":11,"L_den":22,"R_num":1,"R_den":5,"correct_side":1,"subjID":"SalomeOlivaresCalderon16","gender":"1","school":"","age":"6"},{"start_time":1551887010247,"click_time":1551887011472,"finger_time":1551887011112,"fix_duration":533.8651095748454,"trial":8,"RT":865,"MT":360,"sideResp":1,"stimulus":[],"xmouse":[773,773,773,773,773,773,773,773,773,773,773,773,773,773,773,773,773,773,773,773,773,773,773,773,773,773,773,773,773,773,773,773,773,773,773,773,773,773,773,773,768,764,753,730,711,691,664,616,581,556,544,538,538,537,537,537,537,537,537,536,527,517],"ymouse":[642,642,642,642,642,642,642,642,642,642,642,642,642,642,642,642,642,642,642,642,642,642,642,642,642,642,642,642,642,642,642,642,642,642,642,642,642,642,642,642,632,626,612,572,537,489,411,195,83,4,0,0,0,0,0,0,0,0,0,0,18,51],"timestamp_mouse":[20,27,45,66,85,105,127,145,166,185,205,226,245,266,285,305,325,346,365,386,406,427,445,465,486,505,525,545,566,585,606,625,645,665,685,706,726,747,766,786,805,825,846,865,885,906,925,947,965,985,1005,1025,1046,1066,1085,1106,1127,1146,1165,1186,1206,1225],"xSR":741.5,"ySR":573.95,"xT1":424.9,"yT1":0,"xT2":1058.1,"yT2":0,"toosoon":0,"cond_shown":"Congruent","ratio_trial":300,"L_num":20,"L_den":25,"R_num":13,"R_den":26,"correct_side":1,"subjID":"SalomeOlivaresCalderon16","gender":"1","school":"","age":"6"},{"start_time":1551887012908,"click_time":1551887014754,"finger_time":1551887014472,"fix_duration":334.2846493193072,"trial":9,"RT":1564,"MT":282,"sideResp":2,"stimulus":[],"xmouse":[817,817,817,817,817,817,817,817,817,817,817,817,817,817,817,817,817,817,817,817,817,817,817,817,817,817,817,817,817,817,817,817,817,817,817,817,817,817,817,817,817,817,817,817,817,817,817,817,817,817,817,817,817,817,817,817,817,817,817,817,817,817,817,817,817,817,817,817,817,817,817,817,817,817,818,819,823,828,836,842,864,884,909,960,992,1039,1047,1049,1051,1055,1077,1099,1114],"ymouse":[624,624,624,624,624,624,624,624,624,624,624,624,624,624,624,624,624,624,624,624,624,624,624,624,624,624,624,624,624,624,624,624,624,624,624,624,624,624,624,624,624,624,624,624,624,624,624,624,624,624,624,624,624,624,624,624,624,624,624,624,624,624,624,624,624,624,624,624,624,624,624,624,624,624,624,614,599,581,557,532,478,446,408,345,313,285,281,279,277,269,211,140,73],"timestamp_mouse":[8,34,45,64,85,106,124,144,164,185,206,224,245,266,285,306,324,346,365,384,404,425,444,464,485,504,525,546,564,584,604,624,646,664,684,706,725,745,764,784,804,825,844,866,884,905,924,945,966,986,1005,1025,1046,1065,1086,1104,1126,1145,1164,1185,1204,1224,1244,1266,1284,1304,1324,1346,1364,1384,1406,1424,1445,1464,1484,1504,1524,1545,1564,1584,1604,1625,1644,1665,1684,1705,1724,1744,1764,1784,1804,1825,1846],"xSR":741.5,"ySR":573.95,"xT1":424.9,"yT1":0,"xT2":1058.1,"yT2":0,"toosoon":0,"cond_shown":"Congruent","ratio_trial":200,"L_num":6,"L_den":12,"R_num":7,"R_den":10,"correct_side":2,"subjID":"SalomeOlivaresCalderon16","gender":"1","school":"","age":"6"},{"start_time":1551887016169,"click_time":1551887017552,"finger_time":1551887016994,"fix_duration":416.43729411140254,"trial":10,"RT":825,"MT":558,"sideResp":1,"stimulus":[],"xmouse":[804,804,804,804,804,804,804,804,804,804,804,804,804,804,804,804,804,804,804,804,804,804,804,804,804,804,804,804,804,804,804,804,804,804,804,804,804,804,796,786,777,756,749,746,742,734,716,702,685,662,644,628,618,617,614,610,588,572,564,563,563,563,563,534,517,517,519,519,519,519],"ymouse":[618,618,618,618,618,618,618,618,618,618,618,618,618,618,618,618,618,618,618,618,618,618,618,618,618,618,618,618,618,618,618,618,618,618,618,618,618,618,607,593,580,553,545,540,535,526,503,482,462,445,437,430,425,423,418,404,324,252,198,174,152,140,43,0,0,0,0,0,0,1],"timestamp_mouse":[12,23,45,64,85,103,123,143,163,184,203,224,244,264,285,303,324,343,364,383,404,424,444,464,485,503,523,544,564,583,603,624,644,664,683,704,723,744,765,783,805,825,843,863,884,903,924,943,964,983,1003,1023,1044,1063,1084,1103,1125,1143,1163,1183,1205,1223,1243,1263,1283,1303,1324,1343,1363,1383],"xSR":741.5,"ySR":573.95,"xT1":424.9,"yT1":0,"xT2":1058.1,"yT2":0,"toosoon":0,"cond_shown":"Congruent","ratio_trial":200,"L_num":21,"L_den":30,"R_num":2,"R_den":4,"correct_side":1,"subjID":"SalomeOlivaresCalderon16","gender":"1","school":"","age":"6"},{"start_time":1551887019688,"click_time":1551887021312,"finger_time":1551887021093,"fix_duration":814.3680018048324,"trial":11,"RT":1405,"MT":219,"sideResp":2,"stimulus":[],"xmouse":[800,800,800,800,800,800,800,800,800,800,800,800,800,800,800,800,800,800,801,801,801,801,801,801,801,801,801,801,801,801,801,801,801,801,801,801,801,801,801,801,801,801,801,801,801,801,801,801,801,801,801,801,801,801,801,801,801,801,801,801,801,801,801,801,801,801,801,805,810,817,836,848,867,884,905,926,963,976,987,1009,1048,1084],"ymouse":[605,605,605,605,605,605,605,605,605,605,605,605,605,605,605,605,605,605,605,605,605,605,605,605,605,605,605,605,605,605,605,605,605,605,605,605,605,605,605,605,605,605,605,605,605,605,605,605,605,605,605,605,605,605,605,605,605,605,605,605,605,605,605,605,605,605,605,598,588,575,544,522,488,460,423,388,342,326,310,271,174,88],"timestamp_mouse":[10,40,45,65,84,104,126,144,164,186,204,224,246,264,284,304,324,344,364,384,404,425,445,464,484,504,525,545,565,586,605,625,645,665,685,705,724,746,764,785,804,826,844,864,885,905,926,944,965,984,1005,1025,1046,1064,1084,1105,1124,1145,1166,1185,1205,1225,1245,1264,1284,1304,1325,1344,1364,1384,1405,1424,1445,1464,1485,1504,1525,1544,1564,1584,1604,1624],"xSR":741.5,"ySR":573.95,"xT1":424.9,"yT1":0,"xT2":1058.1,"yT2":0,"toosoon":0,"cond_shown":"Incongruent","ratio_trial":300,"L_num":13,"L_den":26,"R_num":12,"R_den":15,"correct_side":2,"subjID":"SalomeOlivaresCalderon16","gender":"1","school":"","age":"6"},{"start_time":1551887022603,"click_time":1551887025133,"finger_time":1551887023973,"fix_duration":268.2836429353943,"trial":12,"RT":1370,"MT":1160,"sideResp":1,"stimulus":[],"xmouse":[812,812,812,812,812,812,811,810,809,808,808,807,807,807,807,807,807,807,807,807,807,807,807,807,807,807,807,807,807,807,807,807,807,807,807,807,807,807,807,807,807,807,807,807,807,807,807,807,807,807,807,807,807,807,807,807,807,807,807,807,807,807,807,807,807,807,804,789,720,661,590,573,560,552,545,537,534,533,531,530,527,522,514,502,480,426,414,403,393,392,391,391,391,391,391,391,384,384,384,387,389,389,389,391,396,396,396,398,401,408,415,421,426,431,434,436,438,438,439,441,442,443,444,447,450,453,454],"ymouse":[613,613,613,613,613,613,613,613,613,613,613,613,613,613,613,613,613,613,613,613,613,613,613,613,613,613,613,613,613,613,613,613,613,613,613,613,613,613,613,613,613,613,613,613,613,613,613,613,613,613,613,613,613,613,613,613,613,613,613,613,613,613,613,613,613,613,611,601,553,517,472,459,448,441,433,420,415,411,404,389,375,359,338,312,271,166,20,0,0,0,0,0,0,2,15,170,261,320,322,318,303,284,260,244,224,217,213,208,205,198,191,185,180,176,171,168,161,159,155,152,146,138,131,121,112,100,93],"timestamp_mouse":[12,39,50,69,89,110,130,149,169,190,210,230,250,270,289,310,331,350,370,391,410,430,451,471,489,509,529,550,569,589,611,631,650,669,689,710,729,750,770,790,809,831,849,871,890,910,929,949,969,991,1009,1030,1049,1071,1089,1111,1130,1149,1169,1190,1211,1230,1250,1269,1290,1309,1330,1349,1370,1389,1410,1429,1451,1471,1489,1509,1530,1550,1570,1591,1610,1630,1649,1669,1690,1710,1730,1750,1770,1791,1810,1830,1850,1870,1890,1910,1930,1950,1969,1991,2010,2031,2051,2070,2091,2109,2131,2150,2170,2191,2210,2230,2250,2269,2290,2310,2331,2351,2369,2389,2410,2431,2450,2469,2489,2510,2530],"xSR":741.5,"ySR":573.95,"xT1":424.9,"yT1":0,"xT2":1058.1,"yT2":0,"toosoon":0,"cond_shown":"Congruent","ratio_trial":100,"L_num":10,"L_den":25,"R_num":3,"R_den":10,"correct_side":1,"subjID":"SalomeOlivaresCalderon16","gender":"1","school":"","age":"6"},{"start_time":1551887027467,"click_time":1551887029434,"finger_time":1551887028872,"fix_duration":1373.4528962444917,"trial":13,"RT":1405,"MT":562,"sideResp":1,"stimulus":[],"xmouse":[788,788,788,788,788,788,788,788,788,788,788,788,788,788,788,788,788,788,788,788,788,788,788,788,788,788,788,788,788,788,788,788,788,788,788,788,788,788,788,788,788,788,788,788,788,788,788,788,788,788,788,788,788,788,788,788,788,788,788,788,788,788,788,788,788,788,788,777,758,742,720,699,666,659,656,652,647,631,623,613,599,578,545,531,521,514,511,503,496,491,489,488,488,488,488,488,486,476,469],"ymouse":[633,633,633,633,633,633,633,633,633,633,633,633,633,633,633,633,633,633,633,633,633,633,633,633,633,633,633,633,633,633,633,633,633,633,633,633,633,633,633,633,633,633,633,633,633,633,633,633,633,633,633,633,633,633,633,633,633,633,633,633,633,633,633,633,633,633,633,626,612,599,577,553,516,504,496,484,471,443,426,404,378,343,288,269,257,243,233,204,186,167,159,155,155,155,155,152,142,113,93],"timestamp_mouse":[9,43,46,66,87,106,127,145,166,186,206,227,246,266,285,305,326,346,365,386,405,427,446,465,486,507,525,546,566,586,606,627,646,665,686,705,727,745,766,787,805,826,845,867,885,906,926,946,967,987,1006,1027,1047,1067,1086,1106,1125,1147,1167,1185,1206,1225,1246,1266,1287,1307,1326,1346,1366,1385,1405,1426,1446,1465,1485,1507,1526,1546,1565,1585,1605,1626,1646,1666,1686,1707,1726,1747,1766,1786,1806,1827,1847,1866,1887,1906,1925,1945,1967],"xSR":741.5,"ySR":573.95,"xT1":424.9,"yT1":0,"xT2":1058.1,"yT2":0,"toosoon":0,"cond_shown":"Incongruent","ratio_trial":300,"L_num":2,"L_den":4,"R_num":6,"R_den":30,"correct_side":1,"subjID":"SalomeOlivaresCalderon16","gender":"1","school":"","age":"6"},{"start_time":1551887031285,"click_time":1551887033233,"finger_time":1551887032753,"fix_duration":851.8417487926381,"trial":14,"RT":1468,"MT":480,"sideResp":1,"stimulus":[],"xmouse":[823,823,823,823,823,823,823,823,823,823,823,823,823,823,823,823,823,823,823,823,823,823,823,823,823,823,823,823,823,823,823,823,823,823,823,823,823,823,823,823,823,823,823,823,823,823,823,823,823,823,823,823,823,823,823,823,823,823,823,823,823,823,823,823,823,823,823,823,823,823,823,819,802,754,653,513,487,479,478,478,476,471,465,459,457,457,463,465,466,466,466,463,460,458,457,455,455,453],"ymouse":[627,627,627,627,627,627,627,627,627,627,627,627,627,627,627,627,627,627,627,627,627,627,627,627,627,627,627,627,627,627,627,627,627,627,627,627,627,627,627,627,627,627,627,627,627,627,627,627,627,627,627,627,627,627,627,627,627,627,627,627,627,627,627,627,627,627,627,627,627,627,627,623,607,567,479,375,351,342,340,339,326,308,290,259,240,228,210,204,195,187,160,145,135,129,125,120,106,98],"timestamp_mouse":[8,39,47,67,88,109,127,148,167,187,209,229,248,269,288,309,327,349,367,387,407,428,449,467,488,507,529,549,567,587,608,628,648,669,687,707,727,748,768,788,808,828,849,869,889,909,940,948,967,988,1008,1027,1048,1068,1087,1107,1127,1147,1168,1188,1208,1228,1247,1267,1288,1308,1329,1348,1368,1388,1408,1428,1447,1468,1488,1509,1528,1547,1567,1587,1609,1628,1647,1667,1688,1708,1729,1748,1768,1788,1809,1828,1847,1867,1889,1907,1928,1948],"xSR":741.5,"ySR":573.95,"xT1":424.9,"yT1":0,"xT2":1058.1,"yT2":0,"toosoon":0,"cond_shown":"Congruent","ratio_trial":200,"L_num":9,"L_den":20,"R_num":4,"R_den":16,"correct_side":1,"subjID":"SalomeOlivaresCalderon16","gender":"1","school":"","age":"6"},{"start_time":1551887035494,"click_time":1551887037593,"finger_time":1551887037013,"fix_duration":959.7885930872905,"trial":15,"RT":1519,"MT":580,"sideResp":2,"stimulus":[],"xmouse":[763,763,763,763,763,763,763,763,763,763,763,763,763,763,763,763,763,763,763,763,763,763,763,763,763,763,763,763,763,763,763,763,763,763,763,763,763,763,763,763,763,763,763,763,763,763,763,763,763,763,763,763,763,763,763,763,763,763,763,763,763,763,763,763,763,763,763,763,763,763,763,763,763,763,763,768,774,785,795,805,827,829,830,845,856,881,895,909,918,934,941,947,953,961,981,1010,1019,1023,1024,1024,1025,1031,1046,1058,1067],"ymouse":[592,592,592,592,592,592,592,592,592,592,592,592,592,592,592,592,592,592,592,592,592,592,592,592,592,592,592,592,592,592,592,592,592,592,592,592,592,592,592,592,592,592,592,592,592,592,592,592,592,592,592,592,592,592,592,592,592,592,592,592,592,592,592,592,592,592,592,592,592,592,592,589,587,581,574,540,519,495,467,436,342,300,253,203,170,134,124,118,114,107,103,103,103,103,103,103,102,101,101,101,100,98,91,84,80],"timestamp_mouse":[34,40,58,79,99,120,139,159,179,200,218,239,258,279,299,319,338,359,380,399,418,438,460,478,499,520,539,559,579,600,620,638,658,680,699,719,739,760,779,800,820,839,858,879,899,918,938,959,978,1000,1019,1038,1060,1078,1099,1119,1138,1159,1178,1198,1220,1239,1259,1279,1299,1319,1338,1359,1380,1398,1420,1439,1458,1479,1498,1519,1539,1559,1578,1598,1618,1638,1658,1679,1699,1719,1739,1760,1780,1799,1818,1839,1859,1879,1898,1919,1939,1959,1979,1999,2019,2039,2059,2078,2098],"xSR":741.5,"ySR":573.95,"xT1":424.9,"yT1":0,"xT2":1058.1,"yT2":0,"toosoon":0,"cond_shown":"Congruent","ratio_trial":100,"L_num":4,"L_den":10,"R_num":15,"R_den":30,"correct_side":2,"subjID":"SalomeOlivaresCalderon16","gender":"1","school":"","age":"6"},{"start_time":1551887040465,"click_time":1551887042732,"finger_time":1551887042012,"fix_duration":250,"trial":16,"RT":1547,"MT":720,"sideResp":1,"stimulus":[],"xmouse":[744,744,744,744,744,744,744,744,744,744,744,744,744,744,744,744,744,744,744,744,744,744,744,744,744,744,744,744,744,744,744,744,744,744,744,744,744,744,744,744,744,744,744,744,744,744,744,744,744,744,744,744,744,744,744,744,744,744,744,744,744,744,744,744,744,744,744,744,744,744,744,744,744,744,744,744,744,762,781,809,838,869,915,929,934,937,937,937,937,936,917,885,751,653,601,566,543,526,519,510,495,485,477,476,475,475,474,474,470,467,464,462,457,454],"ymouse":[630,630,630,630,630,630,630,630,630,630,630,630,630,630,630,630,630,630,630,630,630,630,630,630,630,630,630,630,630,630,630,630,630,630,630,630,630,630,630,630,630,630,630,630,630,630,630,630,630,630,630,630,630,630,630,630,630,630,630,630,630,630,630,630,630,630,630,626,622,619,617,616,613,612,609,601,593,560,538,506,475,444,390,370,360,353,353,353,353,352,350,345,335,335,335,332,328,320,311,296,276,258,231,222,211,205,198,175,160,145,132,121,103,94],"timestamp_mouse":[8,34,49,68,87,109,128,148,168,187,208,228,249,267,289,309,327,349,368,387,409,429,447,469,488,507,529,547,569,588,608,627,648,669,687,709,729,747,768,789,807,828,848,868,889,908,927,949,968,987,1007,1028,1049,1067,1087,1109,1128,1148,1168,1188,1208,1227,1247,1269,1287,1308,1327,1347,1367,1388,1407,1427,1447,1469,1488,1508,1527,1547,1568,1587,1607,1627,1647,1667,1687,1708,1729,1748,1767,1788,1807,1827,1848,1869,1888,1907,1927,1949,1968,1989,2008,2028,2047,2067,2087,2107,2128,2148,2167,2187,2208,2228,2249,2267],"xSR":741.5,"ySR":573.95,"xT1":424.9,"yT1":0,"xT2":1058.1,"yT2":0,"toosoon":0,"cond_shown":"Congruent","ratio_trial":100,"L_num":2,"L_den":5,"R_num":6,"R_den":12,"correct_side":2,"subjID":"SalomeOlivaresCalderon16","gender":"1","school":"","age":"6"},{"start_time":1551887050011,"click_time":1551887052053,"finger_time":1551887051412,"fix_duration":437.63640142185625,"trial":17,"RT":1401,"MT":641,"sideResp":1,"stimulus":[],"xmouse":[799,799,799,799,799,799,799,799,799,799,799,799,799,799,799,799,799,799,799,799,799,799,799,799,799,799,799,799,799,799,799,799,799,799,799,799,799,799,799,799,799,799,799,799,799,799,799,799,799,799,799,799,799,799,799,799,799,799,799,799,799,799,799,799,799,799,799,801,788,768,722,694,672,656,645,645,645,645,645,635,618,587,553,529,515,509,508,506,498,492,489,489,489,489,489,489,489,489,489,489,489,489,488],"ymouse":[621,621,621,621,621,621,621,621,621,621,621,621,621,621,621,621,621,621,621,621,621,621,621,621,621,621,621,621,621,621,621,621,621,621,621,621,621,621,621,621,621,621,621,621,621,621,621,621,621,621,621,621,621,621,621,621,621,621,621,621,621,621,621,621,621,621,621,622,612,591,515,463,416,387,367,367,367,367,367,342,300,242,193,163,151,145,141,134,116,108,103,103,103,103,103,103,103,103,103,103,103,101,98],"timestamp_mouse":[9,34,41,61,82,101,122,143,161,181,203,221,241,262,282,301,322,341,361,383,401,423,441,461,482,501,521,541,562,582,601,623,642,662,682,701,721,743,761,782,802,821,843,862,881,903,921,941,962,981,1003,1022,1041,1062,1081,1101,1121,1142,1162,1183,1201,1222,1242,1262,1282,1302,1321,1341,1361,1381,1401,1422,1442,1461,1483,1502,1522,1542,1563,1583,1601,1623,1641,1661,1682,1702,1721,1742,1761,1783,1802,1821,1842,1863,1883,1901,1922,1943,1962,1981,2002,2021,2042],"xSR":741.5,"ySR":573.95,"xT1":424.9,"yT1":0,"xT2":1058.1,"yT2":0,"toosoon":0,"cond_shown":"Congruent","ratio_trial":100,"L_num":11,"L_den":22,"R_num":6,"R_den":15,"correct_side":1,"subjID":"SalomeOlivaresCalderon16","gender":"1","school":"","age":"6"},{"start_time":1551887053379,"click_time":1551887054912,"finger_time":1551887054733,"fix_duration":444.3998247816602,"trial":18,"RT":1354,"MT":179,"sideResp":1,"stimulus":[],"xmouse":[814,814,814,814,814,814,814,814,814,814,814,814,814,814,814,814,814,814,814,814,814,814,814,814,814,814,814,814,814,814,814,814,814,814,814,814,814,814,814,814,814,814,814,814,814,814,814,814,814,814,814,814,814,814,814,814,814,814,814,814,814,814,814,814,814,814,814,794,776,753,715,639,612,587,549,534,501],"ymouse":[608,608,608,608,608,608,608,608,608,608,608,608,608,608,608,608,608,608,608,608,608,608,608,608,608,608,608,608,608,608,608,608,608,608,608,608,608,608,608,608,608,608,608,608,608,608,608,608,608,608,608,608,608,608,608,608,608,608,608,608,608,608,608,608,608,608,600,567,538,494,427,294,232,178,104,85,49],"timestamp_mouse":[13,33,53,74,95,113,134,154,174,195,214,234,254,275,295,314,334,354,373,395,414,434,455,474,493,515,533,554,574,594,614,633,654,673,695,713,733,754,773,795,813,834,854,875,893,913,934,954,973,994,1015,1034,1055,1075,1094,1114,1133,1154,1175,1193,1213,1234,1254,1273,1293,1314,1334,1354,1373,1393,1413,1435,1454,1474,1493,1513,1533],"xSR":741.5,"ySR":573.95,"xT1":424.9,"yT1":0,"xT2":1058.1,"yT2":0,"toosoon":0,"cond_shown":"Congruent","ratio_trial":300,"L_num":4,"L_den":10,"R_num":1,"R_den":10,"correct_side":1,"subjID":"SalomeOlivaresCalderon16","gender":"1","school":"","age":"6"},{"start_time":1551887056025,"click_time":1551887057573,"finger_time":1551887057112,"fix_duration":250,"trial":19,"RT":1087,"MT":461,"sideResp":2,"stimulus":[],"xmouse":[821,821,821,821,821,821,821,821,821,821,821,821,821,821,821,821,821,821,821,821,821,821,821,821,821,821,821,821,821,821,821,821,821,821,821,821,821,821,821,821,821,821,821,821,821,821,821,821,821,821,821,820,820,820,826,835,842,854,860,877,886,894,903,925,938,949,965,969,981,992,998,1005,1013,1021,1050,1066,1077,1091],"ymouse":[611,611,611,611,611,611,611,611,611,611,611,611,611,611,611,611,611,611,611,611,611,611,611,611,611,611,611,611,611,611,611,611,611,611,611,611,611,611,611,611,611,611,611,611,611,611,611,611,611,611,611,611,605,596,550,521,495,455,432,393,377,364,348,308,281,254,220,211,192,175,163,149,139,129,116,111,106,98],"timestamp_mouse":[9,41,47,69,88,107,129,147,167,188,209,228,249,269,288,309,328,347,368,387,409,428,447,468,488,507,527,547,568,587,609,628,648,667,688,709,728,748,769,787,807,827,849,868,889,908,927,948,969,988,1008,1028,1047,1067,1087,1108,1127,1148,1167,1187,1207,1228,1249,1268,1287,1308,1328,1348,1369,1388,1407,1428,1447,1467,1488,1508,1527,1547],"xSR":741.5,"ySR":573.95,"xT1":424.9,"yT1":0,"xT2":1058.1,"yT2":0,"toosoon":0,"cond_shown":"Congruent","ratio_trial":300,"L_num":4,"L_den":20,"R_num":13,"R_den":26,"correct_side":2,"subjID":"SalomeOlivaresCalderon16","gender":"1","school":"","age":"6"},{"start_time":1551887059862,"click_time":1551887061492,"finger_time":1551887061193,"fix_duration":1407.0505012228296,"trial":20,"RT":1331,"MT":299,"sideResp":1,"stimulus":[],"xmouse":[810,810,810,810,810,810,810,810,810,810,810,810,810,810,810,810,810,810,810,810,810,810,810,810,810,810,810,810,810,810,810,810,810,810,810,810,810,810,810,810,810,810,810,810,810,810,810,810,810,810,810,810,810,810,810,810,810,810,810,810,810,810,810,810,809,802,755,710,662,603,551,480,458,438,426,414,410,410,413,422,431,441],"ymouse":[609,609,609,609,609,609,609,609,609,609,609,609,609,609,609,609,609,609,609,609,609,609,609,609,609,609,609,609,609,609,609,609,609,609,609,609,609,609,609,609,609,609,609,609,609,609,609,609,609,609,609,609,609,609,609,609,609,609,609,609,609,609,609,609,609,601,554,518,479,431,380,281,232,189,160,132,123,121,118,113,106,96],"timestamp_mouse":[17,40,50,71,91,112,130,151,172,192,212,232,252,271,290,311,332,351,370,390,412,432,450,470,492,512,530,551,570,592,612,632,651,671,692,710,731,751,771,790,811,831,850,871,892,911,930,950,971,991,1011,1030,1051,1070,1090,1111,1130,1150,1172,1192,1211,1231,1252,1271,1291,1312,1331,1351,1371,1390,1412,1431,1451,1471,1490,1510,1531,1551,1571,1590,1610,1630],"xSR":741.5,"ySR":573.95,"xT1":424.9,"yT1":0,"xT2":1058.1,"yT2":0,"toosoon":0,"cond_shown":"Incongruent","ratio_trial":200,"L_num":7,"L_den":10,"R_num":14,"R_den":28,"correct_side":1,"subjID":"SalomeOlivaresCalderon16","gender":"1","school":"","age":"6"},{"start_time":1551887062897,"click_time":1551887064512,"finger_time":1551887064412,"fix_duration":543.8024419042002,"trial":21,"RT":1515,"MT":100,"sideResp":1,"stimulus":[],"xmouse":[807,807,808,809,809,809,809,810,810,810,810,810,810,810,810,810,810,810,810,810,810,810,810,810,810,810,810,810,810,810,810,810,810,810,810,810,810,810,810,810,810,810,810,810,810,810,810,810,810,810,810,810,810,810,810,810,810,810,810,810,810,810,810,810,810,810,810,810,810,810,810,810,810,810,810,766,723,667,598,476,437],"ymouse":[621,621,620,619,619,619,619,618,618,618,618,618,618,618,618,618,618,618,618,618,618,618,618,618,618,618,618,618,618,618,618,618,618,618,618,618,618,618,618,618,618,618,618,618,618,618,618,618,618,618,618,618,618,618,618,618,618,618,618,618,618,618,618,618,618,618,618,618,618,618,618,618,618,618,615,561,496,417,322,136,74],"timestamp_mouse":[15,36,56,75,95,117,136,155,177,195,216,235,255,277,297,315,336,357,376,395,415,435,455,476,497,516,535,556,577,596,615,636,656,676,697,715,736,755,776,797,816,836,856,877,897,916,936,956,975,996,1017,1036,1056,1076,1097,1116,1136,1156,1176,1197,1215,1235,1256,1276,1295,1317,1336,1355,1376,1396,1417,1435,1455,1476,1495,1515,1535,1555,1575,1596,1615],"xSR":741.5,"ySR":573.95,"xT1":424.9,"yT1":0,"xT2":1058.1,"yT2":0,"toosoon":0,"cond_shown":"Incongruent","ratio_trial":300,"L_num":3,"L_den":6,"R_num":4,"R_den":20,"correct_side":1,"subjID":"SalomeOlivaresCalderon16","gender":"1","school":"","age":"6"},{"start_time":1551887067968,"click_time":1551887069612,"finger_time":1551887068973,"fix_duration":1154.608928860461,"trial":22,"RT":1005,"MT":639,"sideResp":2,"stimulus":[],"xmouse":[776,776,776,776,776,776,776,776,776,776,776,776,776,776,776,776,776,776,776,776,776,776,776,776,776,776,776,776,776,776,776,776,776,776,776,776,776,776,776,776,776,776,776,776,776,776,776,776,778,779,789,799,844,867,890,905,918,934,939,943,949,955,975,987,999,1009,1016,1017,1017,1019,1023,1030,1042,1047,1050,1054,1054,1056,1058,1058,1058,1058,1060],"ymouse":[609,609,609,609,609,609,609,609,609,609,609,609,609,609,609,609,609,609,609,609,609,609,609,609,609,609,609,609,609,609,609,609,609,609,609,609,609,609,609,609,609,609,609,609,609,609,609,609,597,591,557,520,418,371,333,309,289,260,249,240,231,225,208,193,178,167,159,159,158,155,149,140,126,121,117,113,95,84,80,80,80,80,78],"timestamp_mouse":[9,25,46,64,85,106,124,144,166,184,206,224,244,265,284,305,324,345,365,386,405,426,445,464,486,504,526,545,564,585,604,625,645,664,685,704,725,744,765,784,806,825,846,866,886,906,924,946,964,985,1005,1025,1044,1065,1084,1105,1125,1146,1164,1184,1205,1225,1244,1264,1286,1305,1325,1344,1365,1385,1404,1424,1445,1466,1484,1504,1525,1544,1566,1585,1605,1625,1644],"xSR":741.5,"ySR":573.95,"xT1":424.9,"yT1":0,"xT2":1058.1,"yT2":0,"toosoon":0,"cond_shown":"Incongruent","ratio_trial":300,"L_num":13,"L_den":26,"R_num":12,"R_den":15,"correct_side":2,"subjID":"SalomeOlivaresCalderon16","gender":"1","school":"","age":"6"},{"start_time":1551887071238,"click_time":1551887073113,"finger_time":1551887072394,"fix_duration":725.0105785957171,"trial":23,"RT":1156,"MT":719,"sideResp":1,"stimulus":[],"xmouse":[750,750,750,750,750,750,750,750,750,750,750,750,750,750,750,750,750,750,750,750,750,750,750,750,750,750,750,750,750,750,750,750,750,750,750,750,750,750,750,750,750,750,750,750,750,750,750,750,750,750,750,750,750,750,750,750,751,708,689,672,658,645,623,612,598,579,560,556,554,554,553,552,548,533,529,527,525,520,516,509,504,504,504,504,504,504,504,504,502,501,501,498,496,490],"ymouse":[627,627,627,627,627,627,627,627,627,627,627,627,627,627,627,627,627,627,627,627,627,627,627,627,627,627,627,627,627,627,627,627,627,627,627,627,627,627,627,627,627,627,627,627,627,627,627,627,627,627,627,627,627,627,627,627,627,590,573,555,538,516,469,443,409,368,325,311,303,301,298,288,273,234,216,207,199,179,168,154,145,143,142,141,140,140,140,139,133,127,120,112,107,97],"timestamp_mouse":[15,39,55,74,94,116,135,156,175,195,216,234,255,275,295,315,334,356,376,394,415,434,456,475,494,516,534,554,575,595,615,634,655,676,694,716,734,754,776,794,816,834,854,876,895,916,936,955,975,994,1015,1035,1055,1074,1094,1115,1135,1156,1174,1195,1214,1234,1256,1274,1294,1316,1334,1355,1374,1394,1415,1435,1455,1475,1494,1515,1534,1556,1575,1594,1614,1634,1655,1674,1695,1715,1735,1756,1775,1794,1814,1834,1856,1875],"xSR":741.5,"ySR":573.95,"xT1":424.9,"yT1":0,"xT2":1058.1,"yT2":0,"toosoon":0,"cond_shown":"Congruent","ratio_trial":300,"L_num":11,"L_den":22,"R_num":2,"R_den":10,"correct_side":1,"subjID":"SalomeOlivaresCalderon16","gender":"1","school":"","age":"6"},{"start_time":1551887077547,"click_time":1551887079052,"finger_time":1551887078853,"fix_duration":912.3527169052549,"trial":24,"RT":1306,"MT":199,"sideResp":2,"stimulus":[],"xmouse":[776,776,776,776,776,776,776,776,776,776,776,776,776,776,776,776,776,776,776,776,776,776,776,776,776,776,776,776,776,776,776,776,776,776,776,776,776,776,776,776,776,776,776,776,776,776,776,776,776,776,776,776,776,776,776,776,776,776,777,778,780,783,784,792,800,812,830,881,910,933,959,984,1035,1050,1064,1069],"ymouse":[634,634,634,634,634,634,634,634,634,634,634,634,634,634,634,634,634,634,634,634,634,634,634,634,634,634,634,634,634,634,634,634,634,634,634,634,634,634,634,634,634,634,634,634,634,634,634,634,634,634,634,634,634,634,634,634,634,634,634,630,626,620,616,601,586,568,543,478,445,414,369,324,207,160,111,67],"timestamp_mouse":[10,31,46,66,87,107,126,145,166,185,206,227,245,267,287,306,326,345,367,386,405,427,446,467,486,506,526,547,566,587,606,626,647,665,686,706,726,745,765,786,807,826,847,867,886,905,926,946,965,986,1006,1025,1046,1066,1086,1107,1127,1146,1165,1187,1206,1226,1246,1266,1285,1306,1326,1346,1365,1387,1406,1426,1447,1466,1485,1505],"xSR":741.5,"ySR":573.95,"xT1":424.9,"yT1":0,"xT2":1058.1,"yT2":0,"toosoon":0,"cond_shown":"Incongruent","ratio_trial":200,"L_num":11,"L_den":20,"R_num":3,"R_den":4,"correct_side":2,"subjID":"SalomeOlivaresCalderon16","gender":"1","school":"","age":"6"},{"start_time":1551887082722,"click_time":1551887084432,"finger_time":1551887084012,"fix_duration":1088.0535010240744,"trial":25,"RT":1290,"MT":420,"sideResp":1,"stimulus":[],"xmouse":[779,779,779,779,779,779,779,779,779,779,779,779,779,779,779,779,779,779,779,779,779,779,779,779,779,779,779,779,779,779,779,779,779,779,779,779,779,779,779,779,779,779,779,779,779,779,779,779,779,779,779,779,779,779,779,779,779,779,779,773,772,766,753,742,705,672,623,574,539,484,468,456,454,454,454,454,454,455,463,467,474,482,492,498,503,506],"ymouse":[645,645,645,645,645,645,645,645,645,645,645,645,645,645,645,645,645,645,645,645,645,645,645,645,645,645,645,645,645,645,645,645,645,645,645,645,645,645,645,645,645,645,645,645,645,645,645,645,645,645,645,645,645,645,645,645,645,645,645,638,637,630,615,602,558,523,479,442,412,364,348,330,326,320,306,295,280,265,242,234,222,205,176,154,116,99],"timestamp_mouse":[11,38,51,71,90,111,131,150,171,190,210,230,251,270,290,311,332,350,372,391,411,430,450,471,492,510,532,552,570,592,611,631,652,670,691,710,731,752,772,791,811,832,852,871,890,911,930,951,970,991,1010,1030,1052,1071,1091,1110,1131,1152,1170,1190,1211,1231,1252,1270,1290,1310,1332,1351,1371,1390,1411,1430,1451,1470,1490,1510,1531,1551,1572,1590,1612,1631,1650,1671,1691,1710],"xSR":741.5,"ySR":573.95,"xT1":424.9,"yT1":0,"xT2":1058.1,"yT2":0,"toosoon":0,"cond_shown":"Congruent","ratio_trial":200,"L_num":14,"L_den":28,"R_num":6,"R_den":20,"correct_side":1,"subjID":"SalomeOlivaresCalderon16","gender":"1","school":"","age":"6"},{"start_time":1551887086851,"click_time":1551887088593,"finger_time":1551887088214,"fix_duration":317.08694744950094,"trial":26,"RT":1363,"MT":379,"sideResp":2,"stimulus":[],"xmouse":[776,776,776,776,776,776,776,776,776,776,776,776,776,776,776,776,776,776,776,776,776,776,776,776,776,776,776,776,776,776,776,776,776,776,776,776,776,776,776,776,776,776,776,776,776,776,776,776,776,776,776,776,776,776,776,776,776,776,776,776,776,776,776,776,776,778,781,790,826,852,875,900,920,956,972,985,1001,1010,1022,1028,1034,1044,1064,1072,1076,1083,1093,1101],"ymouse":[620,620,620,620,620,620,620,620,620,620,620,620,620,620,620,620,620,620,620,620,620,620,620,620,620,620,620,620,620,620,620,620,620,620,620,620,620,620,620,620,620,620,620,620,620,620,620,620,620,620,620,620,620,620,620,620,620,620,620,620,620,620,620,620,620,619,613,599,547,511,478,442,410,355,331,309,283,270,237,216,196,174,151,142,138,131,117,98],"timestamp_mouse":[11,22,41,63,82,101,122,141,161,182,201,222,243,262,281,301,323,341,363,382,401,422,443,461,481,501,522,541,563,581,603,621,643,662,682,703,721,743,761,783,802,821,841,862,882,902,921,942,961,983,1002,1022,1043,1061,1082,1102,1122,1143,1161,1182,1202,1222,1242,1262,1282,1302,1322,1341,1363,1383,1402,1421,1442,1461,1483,1502,1523,1542,1562,1583,1601,1621,1643,1661,1683,1703,1721,1742],"xSR":741.5,"ySR":573.95,"xT1":424.9,"yT1":0,"xT2":1058.1,"yT2":0,"toosoon":0,"cond_shown":"Incongruent","ratio_trial":200,"L_num":14,"L_den":30,"R_num":6,"R_den":9,"correct_side":2,"subjID":"SalomeOlivaresCalderon16","gender":"1","school":"","age":"6"},{"start_time":1551887095477,"click_time":1551887097233,"finger_time":1551887096854,"fix_duration":1383.1219243683247,"trial":27,"RT":1377,"MT":379,"sideResp":2,"stimulus":[],"xmouse":[791,791,791,791,791,791,791,791,791,791,791,791,791,791,791,791,791,791,791,791,791,791,791,791,791,791,791,791,791,791,791,791,791,791,791,791,791,791,791,791,791,791,791,791,791,791,791,791,791,791,791,791,791,791,791,791,791,791,791,791,791,791,791,791,791,791,791,796,811,836,870,953,990,1016,1029,1031,1031,1032,1038,1048,1057,1071,1072,1072,1072,1072,1072,1073],"ymouse":[616,616,616,616,616,616,616,616,616,616,616,616,616,616,616,616,616,616,616,616,616,616,616,616,616,616,616,616,616,616,616,616,616,616,616,616,616,616,616,616,616,616,616,616,616,616,616,616,616,616,616,616,616,616,616,616,616,616,616,616,616,616,616,616,616,616,615,600,566,504,439,297,233,190,162,157,157,156,154,146,133,106,103,102,102,102,101,99],"timestamp_mouse":[16,38,55,77,95,120,136,156,177,196,215,236,255,277,295,317,335,355,376,395,416,436,456,477,496,515,536,557,577,597,616,635,655,677,696,717,735,755,777,797,815,836,856,877,895,916,936,955,977,996,1016,1036,1056,1076,1096,1116,1137,1157,1175,1196,1217,1236,1256,1277,1296,1316,1336,1356,1377,1397,1415,1435,1456,1475,1496,1517,1536,1555,1576,1596,1615,1636,1655,1676,1696,1716,1736,1755],"xSR":741.5,"ySR":573.95,"xT1":424.9,"yT1":0,"xT2":1058.1,"yT2":0,"toosoon":0,"cond_shown":"Incongruent","ratio_trial":100,"L_num":12,"L_den":30,"R_num":2,"R_den":4,"correct_side":2,"subjID":"SalomeOlivaresCalderon16","gender":"1","school":"","age":"6"},{"start_time":1551887099266,"click_time":1551887100893,"finger_time":1551887100613,"fix_duration":571.488346956381,"trial":28,"RT":1347,"MT":280,"sideResp":1,"stimulus":[],"xmouse":[770,770,770,770,770,770,770,770,770,770,770,770,770,770,770,770,770,770,770,770,770,770,770,770,770,770,770,770,770,770,770,770,770,770,770,770,770,770,770,770,770,770,770,770,770,770,770,770,770,770,770,770,770,770,770,770,770,770,770,770,770,770,770,770,770,770,770,740,711,679,652,612,602,593,580,571,560,537,526,517,509,498],"ymouse":[639,639,639,639,639,639,639,639,639,639,639,639,639,639,639,639,639,639,639,639,639,639,639,639,639,639,639,639,639,639,639,639,639,639,639,639,639,639,639,639,639,639,639,639,639,639,639,639,639,639,639,639,639,639,639,639,639,639,639,639,639,639,639,639,639,638,632,593,558,518,484,422,400,375,334,299,258,186,150,125,107,89],"timestamp_mouse":[8,26,58,67,88,106,128,146,168,187,208,226,246,268,288,306,328,346,367,386,408,427,448,466,486,507,526,547,568,586,607,627,648,666,688,706,728,748,766,788,806,827,847,866,888,906,927,948,968,987,1007,1028,1047,1066,1087,1107,1126,1147,1167,1186,1206,1227,1246,1267,1287,1306,1327,1347,1367,1387,1407,1427,1446,1467,1487,1506,1526,1546,1567,1588,1607,1627],"xSR":741.5,"ySR":573.95,"xT1":424.9,"yT1":0,"xT2":1058.1,"yT2":0,"toosoon":0,"cond_shown":"Incongruent","ratio_trial":100,"L_num":4,"L_den":8,"R_num":8,"R_den":20,"correct_side":1,"subjID":"SalomeOlivaresCalderon16","gender":"1","school":"","age":"6"},{"start_time":1551887102633,"click_time":1551887103913,"finger_time":1551887103494,"fix_duration":798.8771836882297,"trial":29,"RT":861,"MT":419,"sideResp":1,"stimulus":[],"xmouse":[773,773,773,773,773,773,773,773,773,773,773,773,773,773,773,773,773,773,773,773,773,773,773,773,773,773,773,773,773,773,773,773,773,773,773,773,773,772,770,756,749,745,742,741,739,734,723,697,671,613,582,552,520,503,489,489,486,486,483,482,482,481,480,480,478],"ymouse":[606,606,606,606,606,606,606,606,606,606,606,606,606,606,606,606,606,606,606,606,606,606,606,606,606,606,606,606,606,606,606,606,606,606,606,606,606,605,605,600,597,594,592,590,589,584,575,552,522,414,354,289,235,208,186,183,178,171,144,131,121,112,104,101,94],"timestamp_mouse":[3,22,43,59,81,101,119,140,161,180,200,219,241,260,280,299,320,339,361,380,401,421,440,460,481,501,519,541,561,580,600,620,641,660,679,699,719,741,759,781,800,820,841,861,880,899,920,941,959,980,1001,1020,1040,1060,1079,1100,1120,1139,1161,1180,1199,1219,1240,1259,1280],"xSR":741.5,"ySR":573.95,"xT1":424.9,"yT1":0,"xT2":1058.1,"yT2":0,"toosoon":0,"cond_shown":"Incongruent","ratio_trial":100,"L_num":3,"L_den":5,"R_num":11,"R_den":22,"correct_side":1,"subjID":"SalomeOlivaresCalderon16","gender":"1","school":"","age":"6"},{"start_time":1551887104973,"click_time":1551887106673,"finger_time":1551887106054,"fix_duration":359.48124471432686,"trial":30,"RT":1081,"MT":619,"sideResp":2,"stimulus":[],"xmouse":[804,804,804,804,804,804,804,804,804,804,804,804,804,804,804,804,804,804,804,804,804,804,804,804,804,804,804,804,804,804,804,804,804,804,804,804,804,804,804,804,804,804,804,804,804,804,804,804,804,805,806,811,823,831,838,846,854,884,900,917,937,947,965,974,985,997,1009,1025,1031,1038,1045,1053,1069,1076,1081,1085,1088,1089,1090,1092,1095,1099,1102,1102,1103,1107],"ymouse":[637,637,637,637,637,637,637,637,637,637,637,637,637,637,637,637,637,637,637,637,637,637,637,637,637,637,637,637,637,637,637,637,637,637,637,637,637,637,637,637,637,637,637,637,637,637,637,637,637,635,631,620,591,574,555,531,504,430,391,367,345,336,311,295,275,262,250,241,236,230,222,210,180,164,153,144,140,139,137,132,127,122,117,113,106,98],"timestamp_mouse":[1,20,41,59,81,99,120,140,160,179,201,220,241,259,279,300,319,341,360,379,400,419,441,459,479,501,520,539,559,580,600,620,641,659,680,701,719,740,759,780,801,820,840,860,880,900,920,941,961,979,1001,1021,1039,1060,1081,1101,1121,1139,1160,1180,1200,1221,1240,1260,1279,1299,1320,1340,1360,1380,1399,1419,1439,1461,1480,1500,1519,1540,1560,1581,1600,1619,1639,1660,1681,1700],"xSR":741.5,"ySR":573.95,"xT1":424.9,"yT1":0,"xT2":1058.1,"yT2":0,"toosoon":0,"cond_shown":"Incongruent","ratio_trial":300,"L_num":13,"L_den":26,"R_num":12,"R_den":15,"correct_side":2,"subjID":"SalomeOlivaresCalderon16","gender":"1","school":"","age":"6"},{"start_time":1551887108407,"click_time":1551887110174,"finger_time":1551887109794,"fix_duration":531.5869932885022,"trial":31,"RT":1387,"MT":380,"sideResp":1,"stimulus":[],"xmouse":[822,822,822,822,822,822,822,822,822,822,822,822,822,822,822,822,821,821,821,821,821,821,821,821,821,821,821,821,821,821,821,821,821,821,821,821,821,821,821,821,821,821,821,821,821,821,821,821,821,821,821,821,821,821,821,821,821,821,821,821,821,821,821,821,821,821,821,818,801,752,733,719,709,697,680,672,664,656,645,639,637,634,627,616,602,563,544,529,522],"ymouse":[614,614,614,614,614,614,614,614,614,614,614,614,614,614,614,614,613,613,613,613,610,609,609,609,609,609,609,609,609,609,609,609,609,609,609,609,609,609,609,609,609,609,609,609,609,609,609,608,608,608,608,608,608,608,608,608,608,608,608,608,608,608,608,608,608,608,608,596,576,518,491,465,439,410,354,325,297,267,238,219,210,196,180,157,139,93,74,59,49],"timestamp_mouse":[13,40,46,67,85,107,126,146,165,186,206,226,246,267,285,305,326,346,365,385,406,425,447,466,486,506,525,547,567,585,605,626,646,665,687,705,726,747,765,787,805,826,847,865,885,905,926,946,966,985,1006,1027,1047,1067,1087,1106,1126,1146,1165,1187,1206,1226,1246,1265,1287,1306,1327,1345,1366,1387,1405,1425,1446,1466,1486,1505,1525,1546,1566,1586,1605,1625,1646,1666,1685,1705,1726,1747,1767],"xSR":741.5,"ySR":573.95,"xT1":424.9,"yT1":0,"xT2":1058.1,"yT2":0,"toosoon":0,"cond_shown":"Congruent","ratio_trial":100,"L_num":3,"L_den":6,"R_num":2,"R_den":5,"correct_side":1,"subjID":"SalomeOlivaresCalderon16","gender":"1","school":"","age":"6"},{"start_time":1551887111614,"click_time":1551887112913,"finger_time":1551887112373,"fix_duration":319.4640251309251,"trial":32,"RT":759,"MT":540,"sideResp":1,"stimulus":[],"xmouse":[774,774,774,774,774,774,774,774,775,777,777,777,778,778,779,779,779,779,779,779,779,779,779,779,779,779,779,779,779,779,779,779,779,779,778,766,749,724,685,665,648,624,609,599,596,594,592,587,577,570,558,543,529,507,500,496,495,493,491,486,483,482,481,480,480],"ymouse":[622,623,623,623,623,623,623,623,623,623,623,623,623,623,623,623,623,623,623,623,623,623,623,623,623,623,623,623,623,623,623,623,623,623,620,613,603,582,537,509,478,438,403,350,329,311,300,284,260,243,223,200,181,153,146,142,140,135,131,121,116,113,112,104,99],"timestamp_mouse":[23,44,59,79,100,119,140,158,178,199,219,239,259,278,298,319,339,360,378,399,419,440,458,478,500,518,538,559,579,599,620,638,659,678,698,720,738,759,779,799,819,838,858,879,899,919,939,958,979,999,1018,1040,1059,1079,1098,1118,1139,1159,1179,1199,1218,1238,1260,1279,1298],"xSR":741.5,"ySR":573.95,"xT1":424.9,"yT1":0,"xT2":1058.1,"yT2":0,"toosoon":0,"cond_shown":"Congruent","ratio_trial":300,"L_num":20,"L_den":25,"R_num":9,"R_den":18,"correct_side":1,"subjID":"SalomeOlivaresCalderon16","gender":"1","school":"","age":"6"},{"start_time":1551887114877,"click_time":1551887118413,"finger_time":1551887117532,"fix_duration":742.2850857750868,"trial":33,"RT":2655,"MT":881,"sideResp":1,"stimulus":[],"xmouse":[759,759,759,759,759,759,759,759,759,759,759,759,759,759,759,759,759,759,759,759,759,759,759,759,759,759,759,759,759,759,759,759,759,759,759,759,759,759,759,759,759,759,759,759,759,759,759,759,759,759,759,759,759,759,759,759,759,759,759,759,759,759,759,759,759,759,759,759,759,759,759,759,759,759,759,759,759,759,759,759,759,759,759,759,759,759,759,759,759,759,759,759,759,759,759,759,759,759,759,759,759,759,759,759,759,759,759,759,759,759,759,759,759,759,759,759,759,759,759,759,759,759,759,759,759,759,759,759,759,763,769,803,829,870,899,922,965,983,997,1010,1018,1020,1020,1021,1021,1019,1008,996,981,965,946,886,837,739,666,597,500,466,439,417,393,357,350,348,350,358,373,378,383,389,395,403,405,406,408,417,425],"ymouse":[643,643,643,643,643,643,643,643,643,643,643,643,643,643,643,643,643,643,643,643,643,643,643,643,643,643,643,643,643,643,643,643,643,643,643,643,643,643,643,643,643,643,643,643,643,643,643,643,643,643,643,643,643,643,643,643,643,643,643,643,643,643,643,643,643,643,643,643,643,643,643,643,643,643,643,643,643,643,643,643,643,643,643,643,643,643,643,643,643,643,643,643,643,643,643,643,643,643,643,643,643,643,643,643,643,643,643,643,643,643,643,643,643,643,643,643,643,643,643,643,643,643,643,643,643,643,643,643,643,636,630,593,561,501,466,433,385,368,358,346,336,332,330,329,329,328,328,328,328,329,334,342,343,343,336,325,298,286,273,260,239,189,175,166,162,159,156,155,154,154,151,146,144,137,128,104,89],"timestamp_mouse":[22,40,55,75,97,116,136,156,176,196,216,236,256,275,296,316,337,357,376,397,415,436,456,476,497,515,535,556,575,597,615,636,655,677,695,717,736,756,775,797,815,836,855,875,895,916,937,955,975,996,1016,1037,1057,1077,1096,1117,1136,1157,1177,1195,1216,1235,1256,1276,1295,1316,1336,1357,1377,1395,1416,1435,1455,1477,1496,1516,1536,1556,1577,1595,1617,1635,1657,1677,1695,1717,1737,1755,1777,1797,1816,1837,1857,1876,1897,1915,1935,1957,1976,1995,2015,2036,2055,2076,2097,2116,2137,2156,2175,2196,2215,2236,2255,2275,2296,2316,2336,2355,2376,2396,2416,2436,2457,2475,2496,2516,2536,2556,2576,2597,2616,2636,2655,2676,2695,2715,2735,2755,2775,2796,2817,2835,2857,2877,2895,2917,2936,2956,2976,2996,3015,3036,3057,3076,3097,3115,3135,3156,3177,3196,3217,3236,3257,3276,3295,3315,3335,3356,3377,3396,3415,3436,3456,3475,3497,3517,3536],"xSR":741.5,"ySR":573.95,"xT1":424.9,"yT1":0,"xT2":1058.1,"yT2":0,"toosoon":0,"cond_shown":"Congruent","ratio_trial":100,"L_num":2,"L_den":5,"R_num":11,"R_den":22,"correct_side":2,"subjID":"SalomeOlivaresCalderon16","gender":"1","school":"","age":"6"},{"start_time":1551887123401,"click_time":1551887124952,"finger_time":1551887124374,"fix_duration":606.3704706963655,"trial":34,"RT":973,"MT":578,"sideResp":1,"stimulus":[],"xmouse":[760,760,761,765,784,792,795,798,798,798,798,798,798,798,798,798,798,798,798,798,798,798,798,798,798,798,798,798,798,798,798,798,798,798,798,798,798,798,798,798,798,798,798,798,798,795,784,762,711,674,626,613,607,602,593,556,536,519,500,483,479,476,471,466,462,458,457,457,457,457,457,457,457,457,457,457,458,459],"ymouse":[618,618,620,621,627,628,630,630,630,630,630,630,630,630,630,630,630,630,630,630,630,630,630,630,630,630,630,630,630,630,630,630,630,630,630,630,630,630,630,630,630,630,630,630,630,627,617,591,547,524,493,483,479,474,457,369,323,285,250,217,205,192,177,162,147,133,128,126,126,126,126,125,124,120,118,110,104,99],"timestamp_mouse":[12,40,51,71,93,112,131,152,171,191,211,233,252,273,293,311,332,351,372,391,411,432,452,471,491,511,532,552,572,591,612,632,652,672,691,712,732,751,772,791,812,832,853,872,893,911,933,951,973,993,1011,1032,1052,1073,1091,1111,1131,1153,1172,1192,1212,1231,1252,1272,1291,1312,1332,1352,1373,1393,1412,1432,1453,1473,1491,1512,1532,1551],"xSR":741.5,"ySR":573.95,"xT1":424.9,"yT1":0,"xT2":1058.1,"yT2":0,"toosoon":0,"cond_shown":"Congruent","ratio_trial":300,"L_num":20,"L_den":25,"R_num":5,"R_den":10,"correct_side":1,"subjID":"SalomeOlivaresCalderon16","gender":"1","school":"","age":"6"},{"start_time":1551887127272,"click_time":1551887129074,"finger_time":1551887128712,"fix_duration":1158.94135401572,"trial":35,"RT":1440,"MT":362,"sideResp":1,"stimulus":[],"xmouse":[761,761,761,761,761,761,761,761,761,761,761,761,761,761,761,761,761,761,761,761,761,761,761,761,761,761,761,761,761,761,761,761,761,761,761,761,761,761,761,761,761,761,761,761,761,761,761,761,761,761,761,761,761,761,761,761,761,761,761,761,761,761,761,761,761,761,761,761,761,761,758,749,713,688,647,623,607,603,607,634,636,633,620,607,586,571,553,516,506,504,503],"ymouse":[617,617,617,617,617,617,617,617,617,617,617,617,617,617,617,617,617,617,617,617,617,617,617,617,617,617,617,617,617,617,617,617,617,617,617,617,617,617,617,617,617,617,617,617,617,617,617,617,617,617,617,617,617,617,617,617,617,617,617,617,617,617,617,617,617,617,617,617,617,607,599,578,509,466,404,361,324,285,253,150,39,0,0,0,0,0,0,0,0,0,7],"timestamp_mouse":[8,21,41,61,82,101,120,141,161,182,201,222,240,260,281,301,320,340,360,382,400,421,441,461,481,502,521,542,561,580,602,620,642,662,680,701,720,742,760,780,801,821,841,862,882,901,922,940,960,980,1001,1022,1041,1061,1082,1102,1120,1141,1161,1181,1201,1222,1242,1261,1281,1302,1321,1341,1362,1382,1401,1420,1440,1462,1481,1502,1520,1540,1560,1580,1600,1622,1640,1661,1680,1701,1721,1741,1761,1781,1802],"xSR":741.5,"ySR":573.95,"xT1":424.9,"yT1":0,"xT2":1058.1,"yT2":0,"toosoon":0,"cond_shown":"Congruent","ratio_trial":100,"L_num":2,"L_den":5,"R_num":6,"R_den":12,"correct_side":2,"subjID":"SalomeOlivaresCalderon16","gender":"1","school":"","age":"6"},{"start_time":1551887130265,"click_time":1551887135313,"finger_time":1551887130292,"fix_duration":250,"trial":36,"RT":27,"MT":5021,"sideResp":1,"stimulus":[],"xmouse":[755,736,716,714,714,714,714,714,714,714,718,726,753,755,755,755,755,755,755,755,755,755,758,758,761,762,763,763,763,763,763,763,763,764,765,766,766,766,766,766,766,766,766,766,767,768,769,770,771,772,773,774,775,775,775,775,775,775,775,775,775,775,775,775,775,775,775,775,775,775,775,775,775,775,775,775,775,775,775,775,775,775,775,775,775,775,775,775,775,775,777,777,780,786,806,827,898,923,930,930,930,929,902,886,863,849,838,835,835,835,835,835,835,835,835,834,831,801,786,774,772,772,780,805,846,869,877,877,866,832,799,769,730,729,729,729,729,739,749,757,758,758,758,758,760,761,761,761,761,761,761,761,758,750,733,732,729,729,729,729,737,751,751,751,751,751,751,751,751,751,753,777,787,794,794,794,785,762,722,678,640,617,609,613,631,661,685,744,768,783,787,787,785,781,780,775,772,762,762,762,762,762,762,762,764,764,764,765,767,767,768,768,768,768,768,768,768,768,768,768,768,768,768,768,768,768,768,768,768,767,765,755,725,715,706,702,698,690,686,677,665,620,584,550,508,491,479,478,478,478,480,482,484],"ymouse":[631,625,623,623,623,623,623,623,623,623,624,627,633,633,633,633,633,633,633,633,633,633,633,634,637,638,638,638,638,638,638,638,638,640,641,641,641,641,641,641,641,641,641,641,642,643,644,647,649,652,654,660,660,661,661,661,661,661,661,661,661,661,661,661,661,661,661,661,661,661,661,661,661,661,661,661,661,661,661,661,661,661,661,661,661,661,661,661,661,661,661,660,656,649,633,618,574,561,558,558,558,558,567,575,588,594,598,598,598,598,598,598,598,598,598,599,601,610,614,618,619,619,619,614,601,598,598,598,598,605,614,622,627,627,627,627,627,626,625,623,623,623,623,623,623,623,623,623,623,623,623,623,623,625,627,627,630,630,630,630,626,620,620,620,620,620,620,620,620,620,620,610,598,594,593,592,592,592,592,592,592,592,591,588,583,577,573,565,561,559,558,558,558,558,558,558,558,559,559,559,559,559,559,558,556,556,555,553,551,548,544,540,540,540,539,539,539,539,539,539,539,539,539,539,539,539,539,539,539,538,531,516,454,421,394,377,363,348,343,335,322,288,271,254,230,219,205,199,193,185,174,155,97],"timestamp_mouse":[10,27,48,68,87,108,128,149,167,187,209,228,247,268,287,307,327,348,369,388,408,428,447,468,488,507,528,548,567,587,609,627,647,667,688,709,728,748,767,788,809,829,848,868,889,908,929,948,968,989,1008,1029,1048,1067,1089,1108,1127,1149,1167,1187,1208,1227,1248,1268,1288,1307,1329,1348,1367,1389,1408,1427,1448,1469,1487,1509,1527,1548,1569,1588,1608,1627,1647,1669,1687,1707,1728,1747,1769,1789,1807,1828,1848,1867,1887,1909,1929,1947,1967,1988,2008,2029,2047,2067,2087,2108,2128,2148,2168,2189,2208,2228,2248,2268,2288,2309,2327,2347,2367,2388,2408,2428,2448,2469,2488,2509,2527,2548,2569,2589,2609,2628,2647,2668,2689,2708,2727,2749,2768,2788,2807,2829,2847,2869,2887,2908,2927,2947,2968,2989,3008,3029,3047,3069,3088,3108,3129,3147,3168,3189,3209,3228,3248,3268,3288,3308,3327,3349,3367,3388,3407,3429,3449,3468,3487,3509,3529,3547,3567,3588,3609,3628,3648,3667,3687,3709,3729,3747,3768,3788,3807,3829,3848,3868,3887,3908,3928,3949,3968,3988,4009,4028,4048,4067,4088,4109,4128,4148,4168,4188,4209,4228,4249,4269,4287,4308,4328,4348,4367,4388,4408,4429,4448,4468,4487,4508,4529,4548,4568,4589,4609,4628,4649,4668,4688,4708,4728,4748,4768,4788,4807,4828,4847,4868,4888,4909,4928,4947,4967,4988,5008,5028,5048],"xSR":741.5,"ySR":573.95,"xT1":424.9,"yT1":0,"xT2":1058.1,"yT2":0,"toosoon":0,"cond_shown":"Incongruent","ratio_trial":100,"L_num":13,"L_den":26,"R_num":6,"R_den":10,"correct_side":2,"subjID":"SalomeOlivaresCalderon16","gender":"1","school":"","age":"6"},{"start_time":1551887137106,"click_time":1551887138493,"finger_time":1551887137954,"fix_duration":731.1323716907727,"trial":37,"RT":848,"MT":539,"sideResp":1,"stimulus":[],"xmouse":[817,817,817,817,817,817,817,817,817,817,817,817,817,817,817,817,817,817,817,817,817,817,817,817,817,817,817,817,817,817,817,817,817,817,817,817,817,817,817,817,814,788,693,631,578,495,456,428,406,384,378,375,375,375,378,381,387,396,408,419,442,453,456,460,462,462,462,462,462,463],"ymouse":[624,624,624,624,624,624,623,621,618,613,611,610,610,610,610,610,610,610,610,610,610,610,610,610,610,610,610,610,610,610,610,610,610,610,610,610,610,610,610,610,603,592,567,550,533,482,451,427,404,361,337,317,293,283,269,265,257,247,237,227,198,177,170,154,142,122,114,109,104,96],"timestamp_mouse":[9,35,47,66,87,108,126,147,167,188,206,226,246,266,286,306,328,347,366,387,407,427,447,467,486,507,528,547,568,587,607,627,648,666,687,707,727,747,767,787,807,827,848,867,887,906,927,948,967,987,1006,1026,1046,1067,1087,1107,1126,1147,1167,1187,1207,1227,1247,1267,1287,1307,1328,1348,1367,1387],"xSR":741.5,"ySR":573.95,"xT1":424.9,"yT1":0,"xT2":1058.1,"yT2":0,"toosoon":0,"cond_shown":"Incongruent","ratio_trial":200,"L_num":4,"L_den":5,"R_num":6,"R_den":10,"correct_side":1,"subjID":"SalomeOlivaresCalderon16","gender":"1","school":"","age":"6"},{"start_time":1551887139526,"click_time":1551887142613,"finger_time":1551887141094,"fix_duration":250,"trial":38,"RT":1568,"MT":1519,"sideResp":2,"stimulus":[],"xmouse":[791,791,791,791,791,791,791,791,791,791,791,791,791,791,791,791,791,791,791,791,791,791,791,791,791,791,791,791,791,791,791,791,791,791,791,791,791,791,791,791,791,791,791,791,791,791,791,791,791,791,791,791,791,791,791,791,791,791,791,791,791,791,791,791,791,791,791,791,791,792,792,793,794,795,801,804,808,813,821,826,838,843,863,915,947,979,1008,1024,1038,1040,1041,1041,1041,1040,1031,1026,1024,1024,1026,1031,1035,1041,1046,1051,1055,1061,1066,1069,1072,1072,1072,1073,1074,1075,1075,1078,1082,1082,1082,1082,1082,1082,1082,1082,1082,1082,1082,1082,1082,1082,1082,1082,1082,1082,1082,1082,1082,1082,1082,1083,1083,1083,1083,1083,1083,1083,1083,1083,1083,1083,1083,1083,1083,1083,1084],"ymouse":[635,635,635,634,634,634,634,634,634,634,634,634,634,634,634,634,634,634,634,634,634,634,634,634,634,634,634,634,634,634,634,634,634,634,634,634,634,634,634,634,634,634,634,634,634,634,634,634,634,634,634,634,634,634,634,634,634,634,634,634,634,634,634,634,634,634,634,634,634,633,632,631,629,625,613,604,594,586,566,558,545,540,515,454,414,374,344,326,307,302,299,293,286,275,238,220,211,206,200,193,188,182,178,171,167,161,155,151,146,143,141,139,137,136,136,136,137,138,138,138,138,138,138,138,138,138,138,138,138,138,138,138,138,138,138,138,138,138,138,136,130,122,114,112,112,112,112,112,112,112,112,112,112,109,97],"timestamp_mouse":[11,35,46,68,87,106,128,146,168,187,206,228,248,266,287,308,326,348,367,388,406,428,448,468,487,508,527,546,567,586,607,627,648,666,686,706,728,746,766,787,807,827,847,868,886,907,927,948,967,987,1007,1027,1047,1067,1086,1107,1127,1146,1166,1187,1206,1226,1248,1266,1286,1307,1326,1348,1366,1386,1406,1427,1448,1466,1488,1508,1526,1546,1568,1586,1607,1627,1648,1667,1687,1707,1728,1747,1767,1787,1807,1828,1847,1866,1886,1906,1928,1948,1967,1986,2006,2028,2047,2068,2087,2107,2126,2147,2167,2186,2206,2228,2248,2267,2286,2307,2327,2347,2367,2388,2407,2428,2447,2468,2486,2506,2528,2548,2567,2586,2608,2628,2647,2668,2687,2706,2726,2748,2767,2787,2806,2826,2846,2867,2888,2907,2927,2946,2968,2986,3006,3027,3048,3066,3086],"xSR":741.5,"ySR":573.95,"xT1":424.9,"yT1":0,"xT2":1058.1,"yT2":0,"toosoon":0,"cond_shown":"Incongruent","ratio_trial":300,"L_num":13,"L_den":26,"R_num":12,"R_den":15,"correct_side":2,"subjID":"SalomeOlivaresCalderon16","gender":"1","school":"","age":"6"},{"start_time":1551887147917,"click_time":1551887149013,"finger_time":1551887148693,"fix_duration":683.1400599137762,"trial":39,"RT":776,"MT":320,"sideResp":1,"stimulus":[],"xmouse":[805,805,805,805,805,804,804,804,804,803,802,802,802,802,802,802,802,802,802,802,802,802,802,802,802,802,802,802,802,802,802,802,802,802,802,799,797,788,772,708,688,673,653,643,633,629,626,622,612,611,609,603,584,565,502],"ymouse":[633,633,633,633,632,630,628,626,623,618,616,616,616,616,616,616,615,615,615,614,614,614,614,614,614,614,614,614,614,614,614,614,614,614,614,609,605,589,560,453,407,367,318,293,262,255,252,248,245,245,243,234,193,152,38],"timestamp_mouse":[16,40,55,75,97,116,137,156,175,195,217,236,256,275,297,315,336,357,377,396,415,436,457,476,496,517,536,556,576,595,615,636,656,676,696,715,736,755,776,796,816,836,857,875,896,916,936,956,977,996,1017,1037,1056,1075,1096],"xSR":741.5,"ySR":573.95,"xT1":424.9,"yT1":0,"xT2":1058.1,"yT2":0,"toosoon":0,"cond_shown":"Congruent","ratio_trial":300,"L_num":24,"L_den":30,"R_num":2,"R_den":4,"correct_side":1,"subjID":"SalomeOlivaresCalderon16","gender":"1","school":"","age":"6"},{"start_time":1551887150284,"click_time":1551887152053,"finger_time":1551887151613,"fix_duration":250,"trial":40,"RT":1329,"MT":440,"sideResp":2,"stimulus":[],"xmouse":[761,761,761,761,761,761,761,761,761,761,761,761,761,761,761,761,761,761,761,761,761,761,761,761,761,761,761,761,761,761,761,761,761,761,761,761,761,761,761,761,761,761,761,761,761,761,761,761,761,761,761,761,761,761,761,761,761,761,761,761,761,761,761,761,761,761,773,789,810,836,868,934,967,1009,1018,1023,1023,1022,1022,1022,1022,1022,1022,1023,1026,1035,1044,1052,1061],"ymouse":[601,601,601,601,601,601,601,601,601,601,601,601,601,601,599,597,591,591,591,591,591,591,591,591,591,591,591,591,591,591,591,591,591,591,591,591,591,591,591,591,591,591,591,591,591,591,591,591,591,591,591,591,591,591,591,591,591,591,591,591,591,591,591,591,591,587,562,540,511,475,428,332,283,209,171,144,120,117,117,117,116,115,114,111,104,81,63,43,24],"timestamp_mouse":[10,44,49,68,90,110,129,149,168,189,210,228,250,269,288,308,329,349,369,389,410,429,449,470,490,508,529,548,569,588,609,629,648,669,690,708,728,749,768,790,809,829,849,869,889,909,929,949,969,989,1009,1030,1049,1069,1089,1109,1129,1149,1169,1189,1210,1229,1249,1269,1289,1308,1329,1348,1369,1388,1409,1430,1449,1469,1489,1508,1530,1550,1570,1588,1610,1629,1649,1669,1689,1710,1728,1749,1769],"xSR":741.5,"ySR":573.95,"xT1":424.9,"yT1":0,"xT2":1058.1,"yT2":0,"toosoon":0,"cond_shown":"Incongruent","ratio_trial":300,"L_num":4,"L_den":20,"R_num":2,"R_den":4,"correct_side":2,"subjID":"SalomeOlivaresCalderon16","gender":"1","school":"","age":"6"},{"start_time":1551887153262,"click_time":1551887156594,"finger_time":1551887156294,"fix_duration":367.5737417686712,"trial":41,"RT":3032,"MT":300,"sideResp":1,"stimulus":[],"xmouse":[793,793,793,793,794,795,796,796,796,796,797,797,798,799,799,800,800,800,800,800,800,800,800,800,800,800,800,800,800,800,800,800,800,801,801,801,801,801,801,801,801,801,802,802,802,802,802,802,802,802,802,802,802,802,802,802,802,802,802,802,802,802,802,802,802,802,802,802,802,802,802,802,802,802,802,802,802,802,802,802,802,802,802,802,802,802,802,803,804,804,804,805,805,805,805,805,805,805,805,805,805,805,805,805,805,805,805,805,805,805,805,805,805,805,805,805,805,805,805,805,805,805,805,805,805,805,805,805,805,805,805,805,805,805,805,805,805,805,805,805,805,805,805,805,805,805,805,805,805,805,806,806,806,802,796,792,789,763,707,628,541,476,430,430,430,430,431],"ymouse":[615,615,615,615,615,615,616,616,616,616,617,617,617,617,617,618,618,618,618,618,618,618,618,618,618,618,618,618,618,618,618,618,618,618,617,617,617,617,617,616,616,616,616,616,616,616,616,616,616,616,616,616,616,616,616,616,616,616,616,616,616,616,616,616,616,616,616,616,616,616,616,616,616,616,616,616,616,616,616,616,616,616,616,616,616,616,616,616,615,613,612,611,611,611,611,611,611,611,611,611,611,611,611,611,611,611,611,611,611,611,611,611,611,611,611,611,611,611,611,611,611,611,611,611,611,611,611,611,611,611,611,611,611,611,611,611,611,611,611,611,611,611,611,611,611,611,611,611,609,606,595,567,552,539,529,522,522,506,439,305,119,0,0,0,0,0,11],"timestamp_mouse":[11,32,52,70,91,111,130,151,172,192,211,231,251,272,291,312,331,350,371,391,410,432,451,472,490,511,531,550,572,590,611,632,650,672,692,710,731,751,772,791,812,831,851,871,891,912,930,952,972,990,1011,1032,1051,1072,1091,1110,1132,1151,1172,1191,1212,1230,1250,1271,1290,1311,1332,1351,1372,1392,1410,1432,1452,1470,1490,1512,1531,1550,1571,1591,1612,1631,1651,1672,1691,1710,1732,1752,1772,1791,1812,1830,1850,1872,1890,1912,1930,1952,1971,1991,2012,2031,2051,2071,2090,2112,2131,2150,2172,2191,2212,2232,2251,2272,2291,2311,2332,2350,2371,2392,2411,2432,2451,2472,2492,2510,2532,2551,2572,2591,2611,2632,2651,2671,2690,2710,2732,2751,2772,2792,2811,2831,2851,2870,2892,2911,2931,2951,2970,2992,3012,3032,3051,3070,3092,3112,3131,3152,3170,3191,3212,3232,3252,3272,3291,3311,3332],"xSR":741.5,"ySR":573.95,"xT1":424.9,"yT1":0,"xT2":1058.1,"yT2":0,"toosoon":0,"cond_shown":"Incongruent","ratio_trial":100,"L_num":2,"L_den":4,"R_num":6,"R_den":15,"correct_side":1,"subjID":"SalomeOlivaresCalderon16","gender":"1","school":"","age":"6"},{"start_time":1551887158259,"click_time":1551887160153,"finger_time":1551887159474,"fix_duration":464.64843393731593,"trial":42,"RT":1215,"MT":679,"sideResp":2,"stimulus":[],"xmouse":[795,795,795,795,795,795,795,795,795,795,795,795,795,795,795,795,795,795,795,795,795,795,795,795,795,795,795,795,795,795,795,795,795,795,795,795,795,795,795,795,795,795,795,795,795,795,795,795,795,795,795,795,795,795,795,795,795,800,809,819,829,839,859,861,869,874,878,881,882,884,887,892,898,906,918,938,952,981,997,1014,1030,1044,1054,1054,1054,1054,1054,1054,1054,1054,1054,1054,1054,1056,1071],"ymouse":[642,641,641,641,641,641,641,641,641,641,641,641,641,641,641,641,641,641,641,641,641,641,641,641,641,641,641,641,641,641,641,641,641,641,641,641,641,641,641,641,641,641,641,641,641,641,641,641,641,641,641,641,641,641,641,641,640,619,600,574,539,500,438,429,407,397,381,373,369,365,360,337,318,300,279,251,233,200,182,161,143,126,115,115,115,115,115,115,115,115,115,115,115,113,96],"timestamp_mouse":[14,53,53,74,93,114,134,153,173,193,215,235,254,274,294,313,335,353,374,394,414,435,453,474,493,513,534,554,574,594,614,634,654,674,695,714,734,755,774,794,814,835,855,873,895,915,935,955,974,995,1013,1035,1054,1074,1094,1113,1133,1154,1174,1194,1215,1234,1254,1274,1294,1313,1335,1354,1374,1394,1413,1435,1454,1474,1494,1514,1534,1554,1574,1594,1615,1634,1653,1675,1695,1714,1734,1755,1775,1795,1813,1835,1854,1874,1894],"xSR":741.5,"ySR":573.95,"xT1":424.9,"yT1":0,"xT2":1058.1,"yT2":0,"toosoon":0,"cond_shown":"Congruent","ratio_trial":300,"L_num":1,"L_den":30,"R_num":8,"R_den":24,"correct_side":2,"subjID":"SalomeOlivaresCalderon16","gender":"1","school":"","age":"6"},{"start_time":1551887163204,"click_time":1551887164453,"finger_time":1551887163994,"fix_duration":489.3180555955714,"trial":43,"RT":790,"MT":459,"sideResp":1,"stimulus":[],"xmouse":[760,760,760,760,760,760,760,760,760,760,760,760,760,760,760,760,760,760,760,760,760,760,760,760,760,760,760,760,760,760,760,760,760,760,760,760,759,754,747,735,699,682,664,645,609,588,555,542,531,525,522,522,524,525,526,526,527,527,527,526,521,513,509],"ymouse":[634,633,632,632,632,632,632,632,632,632,632,632,632,632,632,632,632,632,632,632,632,632,632,632,632,632,632,632,632,632,632,632,632,632,632,626,622,610,595,576,519,492,462,427,355,318,269,245,224,202,173,166,161,157,156,147,145,143,140,128,115,101,90],"timestamp_mouse":[18,34,50,70,88,108,130,150,168,188,209,228,250,270,288,309,330,350,369,389,408,428,450,468,489,508,530,550,570,588,610,630,648,670,688,708,730,749,769,790,809,829,849,869,889,908,928,949,969,989,1009,1029,1048,1070,1088,1109,1129,1149,1168,1189,1209,1229,1249],"xSR":741.5,"ySR":573.95,"xT1":424.9,"yT1":0,"xT2":1058.1,"yT2":0,"toosoon":0,"cond_shown":"Congruent","ratio_trial":300,"L_num":20,"L_den":25,"R_num":8,"R_den":16,"correct_side":1,"subjID":"SalomeOlivaresCalderon16","gender":"1","school":"","age":"6"},{"start_time":1551887165805,"click_time":1551887167533,"finger_time":1551887167173,"fix_duration":250,"trial":44,"RT":1368,"MT":360,"sideResp":2,"stimulus":[],"xmouse":[788,788,788,788,788,788,788,788,788,788,788,788,788,788,788,788,788,788,788,788,788,788,788,788,788,788,788,788,788,788,788,788,788,788,788,788,788,788,788,788,788,788,788,788,788,788,788,788,788,788,788,788,788,788,788,788,788,788,788,788,788,788,788,788,788,788,790,795,803,822,832,844,858,869,879,895,912,926,942,960,992,1003,1015,1026,1051,1063,1081],"ymouse":[604,604,604,604,604,604,604,604,604,604,604,604,604,604,604,604,604,604,604,604,604,604,604,604,604,604,604,604,604,604,604,604,604,604,604,604,604,604,604,604,604,604,604,604,604,604,604,604,604,604,604,604,604,604,604,604,604,604,604,604,604,604,604,604,604,604,598,582,561,517,493,468,444,423,404,366,331,305,276,247,202,187,173,160,129,113,92],"timestamp_mouse":[8,38,48,67,89,109,127,148,168,189,208,228,248,269,287,307,329,349,368,388,409,428,447,468,488,509,528,548,568,588,607,628,648,669,688,707,727,749,767,788,808,827,849,869,888,909,927,947,968,987,1008,1028,1048,1069,1088,1108,1128,1147,1168,1188,1207,1229,1247,1267,1287,1308,1328,1347,1368,1389,1408,1428,1448,1468,1488,1508,1527,1549,1568,1589,1609,1629,1647,1667,1689,1708,1728],"xSR":741.5,"ySR":573.95,"xT1":424.9,"yT1":0,"xT2":1058.1,"yT2":0,"toosoon":0,"cond_shown":"Congruent","ratio_trial":300,"L_num":1,"L_den":5,"R_num":3,"R_den":6,"correct_side":2,"subjID":"SalomeOlivaresCalderon16","gender":"1","school":"","age":"6"},{"start_time":1551887169366,"click_time":1551887170893,"finger_time":1551887170693,"fix_duration":910.0255745388697,"trial":45,"RT":1327,"MT":200,"sideResp":2,"stimulus":[],"xmouse":[780,780,780,780,780,780,780,780,780,780,780,780,780,780