[{"start_time":1551901061483,"click_time":1551901070650,"finger_time":1551901061492,"fix_duration":250,"trial":0,"RT":9,"MT":9158,"sideResp":1,"stimulus":"img/750/randomdotsizeEA/R/12_Ratio_750_L_3_R_4.png","xmouse":[782,782,782,782,782,782,782,782,782,782,782,782,782,782,782,782,782,782,782,782,782,782,782,782,782,782,782,782,782,782,782,782,782,782,782,782,782,782,782,782,782,782,782,782,782,782,782,782,782,782,782,782,782,782,782,782,782,782,782,782,782,782,782,782,782,782,782,782,782,782,782,782,782,782,782,782,782,782,782,782,782,782,782,782,782,782,782,782,782,782,782,782,782,782,782,782,782,782,782,782,782,782,782,782,782,782,782,782,782,782,782,782,782,782,782,782,782,782,782,782,782,782,782,782,782,782,782,782,782,782,782,782,782,782,782,782,782,782,782,782,782,782,782,782,782,782,782,782,782,782,782,782,782,782,782,782,782,782,782,782,782,782,782,782,782,782,782,782,782,782,782,782,782,782,782,782,782,782,782,782,782,782,782,782,782,782,782,782,782,782,782,782,782,782,782,782,782,782,782,782,782,782,782,782,782,782,782,782,782,782,782,782,782,782,782,782,782,782,782,782,782,782,782,782,782,782,782,782,782,782,782,782,782,782,782,782,782,782,782,782,782,782,782,782,782,782,782,782,782,782,782,782,782,782,782,782,782,782,782,782,782,782,782,782,782,782,782,782,782,782,782,782,782,782,782,782,782,782,782,782,782,782,782,782,782,782,782,782,782,782,782,782,782,782,782,782,782,782,782,782,782,782,782,782,782,782,782,782,782,782,782,782,782,782,782,782,782,782,782,782,782,782,782,782,782,782,782,782,782,782,782,782,782,782,782,782,782,782,782,782,782,782,782,782,782,782,782,782,782,782,782,782,782,782,782,782,782,782,782,782,782,782,782,782,782,782,782,782,782,782,782,782,782,782,782,782,782,782,782,782,782,782,782,782,782,782,782,782,782,782,782,782,782,782,782,782,782,782,782,782,782,782,782,782,781,773,778,787,787,787,787,787,787,787,787,787,787,787,787,787,787,787,787,782,781,781,781,781,779,775,769,763,762,766,791,805,819,829,833,833,826,809,784,728,696,663,633,615,598,576,558,550,541,536,532,529,527,523,510],"ymouse":[525,525,525,525,525,525,525,525,525,525,525,525,525,525,525,525,525,525,525,525,525,525,525,525,525,525,525,525,525,525,525,525,525,525,525,525,525,525,525,525,525,525,525,525,525,525,525,525,525,525,525,525,525,525,525,525,525,525,525,525,525,525,525,525,525,525,525,525,525,525,525,525,525,525,525,525,525,525,525,525,525,525,525,525,525,525,525,525,525,525,525,525,525,525,525,525,525,525,525,525,525,525,525,525,525,525,525,525,525,525,525,525,525,525,525,525,525,525,525,525,525,525,525,525,525,525,525,525,525,525,525,525,525,525,525,525,525,525,525,525,525,525,525,525,525,525,525,525,525,525,525,525,525,525,525,525,525,525,525,525,525,525,525,525,525,525,525,525,525,525,525,525,525,525,525,525,525,525,525,525,525,525,525,525,525,525,525,525,525,525,525,525,525,525,525,525,525,525,525,525,525,525,525,525,525,525,525,525,525,525,525,525,525,525,525,525,525,525,525,525,525,525,525,525,525,525,525,525,525,525,525,525,525,525,525,525,525,525,525,525,525,525,525,525,525,525,525,525,525,525,525,525,525,525,525,525,525,525,525,525,525,525,525,525,525,525,525,525,525,525,525,525,525,525,525,525,525,525,525,525,525,525,525,525,525,525,525,525,525,525,525,525,525,525,525,525,525,525,525,525,525,525,525,525,525,525,525,525,525,525,525,525,525,525,525,525,525,525,525,525,525,525,525,525,525,525,525,525,525,525,525,525,525,525,525,525,525,525,525,525,525,525,525,525,525,525,525,525,525,525,525,525,525,525,525,525,525,525,525,525,525,525,525,525,525,525,525,525,525,525,525,525,525,525,525,525,525,525,525,525,525,525,525,525,525,525,525,525,525,525,525,525,525,525,525,525,525,525,525,525,525,525,525,525,518,462,413,398,398,398,398,398,398,398,398,398,398,398,398,398,398,398,398,399,399,399,399,400,454,486,517,551,593,626,674,693,714,729,736,737,719,657,560,347,244,166,126,109,94,59,25,9,0,0,0,0,0,0,6],"timestamp_mouse":[9,26,46,66,86,105,126,146,167,186,206,225,246,266,286,306,326,345,366,386,406,425,446,466,485,506,526,546,566,586,606,626,646,666,685,705,725,745,765,786,807,826,846,866,885,906,926,947,967,986,1005,1026,1046,1065,1087,1106,1127,1146,1166,1186,1205,1226,1246,1266,1286,1305,1326,1346,1366,1386,1406,1425,1445,1466,1486,1506,1526,1547,1566,1586,1607,1625,1645,1667,1686,1705,1727,1745,1767,1787,1805,1825,1845,1866,1885,1906,1925,1947,1966,1986,2005,2025,2046,2066,2086,2106,2126,2146,2166,2186,2207,2226,2247,2266,2285,2306,2326,2346,2366,2386,2405,2426,2446,2466,2485,2505,2526,2546,2566,2586,2606,2626,2646,2666,2686,2705,2726,2745,2766,2786,2806,2826,2847,2866,2886,2905,2925,2945,2966,2986,3007,3026,3046,3065,3086,3105,3125,3146,3166,3185,3205,3225,3246,3267,3286,3307,3326,3346,3366,3387,3406,3427,3446,3466,3486,3507,3526,3546,3565,3586,3606,3627,3646,3667,3686,3705,3725,3746,3766,3785,3806,3825,3846,3865,3887,3906,3926,3945,3965,3986,4006,4026,4046,4066,4085,4107,4126,4147,4167,4186,4206,4225,4247,4266,4285,4305,4325,4345,4366,4387,4407,4426,4445,4465,4485,4505,4527,4546,4566,4587,4606,4626,4645,4667,4686,4707,4726,4746,4766,4787,4806,4827,4846,4866,4885,4906,4926,4947,4966,4986,5005,5026,5046,5066,5086,5105,5127,5146,5166,5186,5206,5225,5246,5267,5286,5307,5325,5345,5366,5386,5405,5426,5446,5467,5486,5506,5526,5546,5567,5586,5607,5625,5646,5665,5685,5705,5726,5746,5766,5786,5807,5825,5847,5867,5885,5905,5925,5945,5967,5987,6006,6026,6046,6066,6085,6106,6126,6146,6166,6185,6206,6225,6246,6267,6286,6306,6326,6346,6366,6386,6406,6426,6446,6467,6486,6506,6526,6546,6566,6585,6607,6626,6646,6667,6686,6706,6725,6745,6766,6787,6807,6826,6846,6866,6885,6906,6926,6947,6966,6986,7005,7026,7047,7065,7086,7105,7126,7146,7166,7186,7205,7226,7247,7266,7286,7306,7325,7346,7366,7386,7407,7426,7446,7466,7486,7505,7526,7545,7566,7586,7605,7625,7645,7667,7687,7705,7726,7745,7766,7787,7806,7826,7846,7867,7886,7905,7925,7945,7966,7985,8006,8026,8045,8066,8085,8106,8127,8146,8165,8186,8206,8226,8246,8267,8287,8306,8326,8346,8366,8386,8406,8426,8446,8465,8486,8507,8525,8547,8566,8586,8605,8627,8647,8666,8685,8705,8725,8746,8765,8787,8805,8825,8846,8865,8885,8906,8925,8946,8965,8985,9006,9026,9046,9067,9085,9106,9126,9146,9167],"xSR":741.5,"ySR":469.95,"xT1":424.9,"yT1":0,"xT2":1058.1,"yT2":0,"toosoon":0,"cond_shown":"randomdotsizeEA","ratio_trial":750,"smaller_num":"3","larger_num":"4","correct_side":2,"subjID":"SAMUELAGUILERA7","gender":"0","age":"11","school":"6","test":{"fix_dur":[250,1500],"timestim":300,"targets_dim":[100,100],"targets_relative_coord":[0.3,0.7],"size_stim":[880,420],"start_dim":[100,100],"size_start":[300,300],"size_fix":60,"samplingrate":20,"img_types":["equaldotsize","equaldotanddens","randomdotsizeEA"],"ratios":[250,500,750,900],"rep_conds":9,"nTrials":120,"trials_to_rest":500,"Trials_order":[68,76,71,7,100,50,83,99,105,86,61,47,94,110,18,34,102,101,45,65,39,74,6,43,111,58,30,46,36,14,37,20,19,119,42,3,26,15,10,17,5,52,85,84,12,75,90,9,44,97,78,31,28,91,49,21,96,60,107,38,56,35,40,80,16,63,73,114,66,88,41,67,103,29,113,72,109,93,33,27,116,81,112,13,98,69,82,54,8,108,32,24,117,115,1,23,11,64,95,104,53,55,57,0,2,59,89,87,106,48,25,51,22,4,79,118,70,92,77,62],"cond_shown":["randomdotsizeEA","equaldotanddens","randomdotsizeEA","equaldotanddens","equaldotanddens","randomdotsizeEA","randomdotsizeEA","equaldotsize","equaldotsize","randomdotsizeEA","equaldotanddens","randomdotsizeEA","equaldotanddens","randomdotsizeEA","equaldotsize","equaldotanddens","equaldotsize","randomdotsizeEA","equaldotsize","randomdotsizeEA","equaldotsize","randomdotsizeEA","equaldotsize","equaldotanddens","equaldotsize","equaldotanddens","equaldotsize","equaldotanddens","equaldotsize","randomdotsizeEA","equaldotanddens","randomdotsizeEA","equaldotanddens","randomdotsizeEA","equaldotsize","equaldotsize","randomdotsizeEA","equaldotsize","equaldotanddens","randomdotsizeEA","randomdotsizeEA","equaldotanddens","equaldotanddens","equaldotsize","equaldotsize","equaldotsize","equaldotsize","equaldotsize","randomdotsizeEA","equaldotanddens","equaldotsize","equaldotanddens","equaldotanddens","equaldotanddens","equaldotanddens","equaldotsize","equaldotsize","equaldotsize","randomdotsizeEA","randomdotsizeEA","randomdotsizeEA","randomdotsizeEA","equaldotanddens","randomdotsizeEA","equaldotanddens","equaldotsize","equaldotanddens","equaldotsize","equaldotsize","equaldotanddens","randomdotsizeEA","equaldotanddens","equaldotanddens","randomdotsizeEA","randomdotsizeEA","equaldotsize","equaldotanddens","equaldotsize","equaldotsize","equaldotsize","randomdotsizeEA","equaldotsize","equaldotanddens","equaldotanddens","randomdotsizeEA","equaldotsize","equaldotanddens","equaldotsize","randomdotsizeEA","equaldotsize","randomdotsizeEA","equaldotsize","equaldotsize","equaldotanddens","equaldotanddens","randomdotsizeEA","randomdotsizeEA","equaldotanddens","randomdotsizeEA","randomdotsizeEA","randomdotsizeEA","equaldotanddens","equaldotsize","equaldotsize","randomdotsizeEA","randomdotsizeEA","randomdotsizeEA","equaldotsize","equaldotanddens","equaldotsize","equaldotanddens","equaldotsize","equaldotanddens","equaldotanddens","equaldotanddens","equaldotanddens","equaldotanddens","randomdotsizeEA","randomdotsizeEA","randomdotsizeEA"],"ratio_trial":[750,500,900,750,500,250,900,500,900,250,250,900,900,250,750,900,750,500,900,500,500,250,750,750,500,900,750,900,250,250,250,750,750,900,750,500,250,500,900,500,500,500,250,250,250,500,750,900,750,250,750,750,500,750,250,900,250,250,900,250,750,900,500,750,500,500,250,750,750,500,500,750,750,500,500,250,250,900,900,500,750,900,500,250,250,900,900,750,750,250,750,250,900,750,250,900,900,500,900,750,500,750,900,250,250,900,500,500,900,250,250,500,900,500,750,900,900,750,500,250],"smaller_num":["3","9","18","3","6","2","9","10","18","4","6","9","18","2","15","18","6","1","18","6","5","2","6","3","2","9","3","9","1","3","6","12","12","18","15","9","2","10","9","6","4","9","3","5","3","9","15","9","3","4","15","15","9","3","2","9","3","3","18","3","6","9","2","15","2","3","2","15","3","9","2","6","3","6","6","3","2","18","18","5","3","18","9","5","2","9","18","12","15","5","15","2","9","3","3","18","18","5","18","6","4","15","18","3","5","18","5","9","18","4","3","9","9","2","15","18","9","15","2","4"],"larger_num":["4","18","20","4","12","8","10","20","20","16","24","10","20","8","20","20","8","2","20","12","10","8","8","4","4","10","4","10","4","12","24","16","16","20","20","18","8","20","10","12","8","18","12","20","12","18","20","10","4","16","20","20","18","4","8","10","12","12","20","12","8","10","4","20","4","6","8","20","4","18","4","8","4","12","12","12","8","20","20","10","4","20","18","20","8","10","20","16","20","20","20","8","10","4","12","20","20","10","20","8","8","20","20","12","20","20","10","18","20","16","12","18","10","4","20","20","10","20","4","16"],"correct_side":[2,2,1,1,1,1,2,2,1,1,1,2,1,1,2,2,1,2,1,1,2,1,2,1,1,2,1,2,2,2,1,2,2,1,2,2,1,2,2,1,1,2,2,2,2,2,2,1,2,1,2,2,2,2,2,2,2,1,1,1,2,2,1,2,2,2,1,2,2,1,1,1,1,1,1,2,2,2,1,2,2,2,2,2,1,2,2,2,2,2,2,1,2,1,1,1,2,2,2,1,1,2,2,1,2,2,2,1,1,2,1,1,2,1,2,1,2,1,1,1],"img_shown":["img/750/randomdotsizeEA/R/12_Ratio_750_L_3_R_4.png","img/500/equaldotanddens/R/6_Ratio_500_L_9_R_18.png","img/900/randomdotsizeEA/L/10_Ratio_900_L_20_R_18.png","img/750/equaldotanddens/L/9_Ratio_750_L_4_R_3.png","img/500/equaldotanddens/L/11_Ratio_500_L_12_R_6.png","img/250/randomdotsizeEA/L/7_Ratio_250_L_8_R_2.png","img/900/randomdotsizeEA/R/7_Ratio_900_L_9_R_10.png","img/500/equaldotsize/R/3_Ratio_500_L_10_R_20.png","img/900/equaldotsize/L/8_Ratio_900_L_20_R_18.png","img/250/randomdotsizeEA/L/2_Ratio_250_L_16_R_4.png","img/250/equaldotanddens/L/5_Ratio_250_L_24_R_6.png","img/900/randomdotsizeEA/R/7_Ratio_900_L_9_R_10.png","img/900/equaldotanddens/L/8_Ratio_900_L_20_R_18.png","img/250/randomdotsizeEA/L/1_Ratio_250_L_8_R_2.png","img/750/equaldotsize/R/5_Ratio_750_L_15_R_20.png","img/900/equaldotanddens/R/11_Ratio_900_L_18_R_20.png","img/750/equaldotsize/L/13_Ratio_750_L_8_R_6.png","img/500/randomdotsizeEA/R/12_Ratio_500_L_1_R_2.png","img/900/equaldotsize/L/2_Ratio_900_L_20_R_18.png","img/500/randomdotsizeEA/L/13_Ratio_500_L_12_R_6.png","img/500/equaldotsize/R/14_Ratio_500_L_5_R_10.png","img/250/randomdotsizeEA/L/7_Ratio_250_L_8_R_2.png","img/750/equaldotsize/R/2_Ratio_750_L_6_R_8.png","img/750/equaldotanddens/L/8_Ratio_750_L_4_R_3.png","img/500/equaldotsize/L/10_Ratio_500_L_4_R_2.png","img/900/equaldotanddens/R/7_Ratio_900_L_9_R_10.png","img/750/equaldotsize/L/8_Ratio_750_L_4_R_3.png","img/900/equaldotanddens/R/5_Ratio_900_L_9_R_10.png","img/250/equaldotsize/R/8_Ratio_250_L_1_R_4.png","img/250/randomdotsizeEA/R/4_Ratio_250_L_3_R_12.png","img/250/equaldotanddens/L/5_Ratio_250_L_24_R_6.png","img/750/randomdotsizeEA/R/11_Ratio_750_L_12_R_16.png","img/750/equaldotanddens/R/11_Ratio_750_L_12_R_16.png","img/900/randomdotsizeEA/L/10_Ratio_900_L_20_R_18.png","img/750/equaldotsize/R/5_Ratio_750_L_15_R_20.png","img/500/equaldotsize/R/6_Ratio_500_L_9_R_18.png","img/250/randomdotsizeEA/L/1_Ratio_250_L_8_R_2.png","img/500/equaldotsize/R/3_Ratio_500_L_10_R_20.png","img/900/equaldotanddens/R/15_Ratio_900_L_9_R_10.png","img/500/randomdotsizeEA/L/11_Ratio_500_L_12_R_6.png","img/500/randomdotsizeEA/L/8_Ratio_500_L_8_R_4.png","img/500/equaldotanddens/R/6_Ratio_500_L_9_R_18.png","img/250/equaldotanddens/R/4_Ratio_250_L_3_R_12.png","img/250/equaldotsize/R/12_Ratio_250_L_5_R_20.png","img/250/equaldotsize/R/11_Ratio_250_L_3_R_12.png","img/500/equaldotsize/R/1_Ratio_500_L_9_R_18.png","img/750/equaldotsize/R/4_Ratio_750_L_15_R_20.png","img/900/equaldotsize/L/1_Ratio_900_L_10_R_9.png","img/750/randomdotsizeEA/R/7_Ratio_750_L_3_R_4.png","img/250/equaldotanddens/L/2_Ratio_250_L_16_R_4.png","img/750/equaldotsize/R/3_Ratio_750_L_15_R_20.png","img/750/equaldotanddens/R/5_Ratio_750_L_15_R_20.png","img/500/equaldotanddens/R/6_Ratio_500_L_9_R_18.png","img/750/equaldotanddens/R/12_Ratio_750_L_3_R_4.png","img/250/equaldotanddens/R/13_Ratio_250_L_2_R_8.png","img/900/equaldotsize/R/7_Ratio_900_L_9_R_10.png","img/250/equaldotsize/R/9_Ratio_250_L_3_R_12.png","img/250/equaldotsize/L/14_Ratio_250_L_12_R_3.png","img/900/randomdotsizeEA/L/8_Ratio_900_L_20_R_18.png","img/250/randomdotsizeEA/L/15_Ratio_250_L_12_R_3.png","img/750/randomdotsizeEA/R/2_Ratio_750_L_6_R_8.png","img/900/randomdotsizeEA/R/5_Ratio_900_L_9_R_10.png","img/500/equaldotanddens/L/10_Ratio_500_L_4_R_2.png","img/750/randomdotsizeEA/R/3_Ratio_750_L_15_R_20.png","img/500/equaldotanddens/R/9_Ratio_500_L_2_R_4.png","img/500/equaldotsize/R/2_Ratio_500_L_3_R_6.png","img/250/equaldotanddens/L/3_Ratio_250_L_8_R_2.png","img/750/equaldotsize/R/4_Ratio_750_L_15_R_20.png","img/750/equaldotsize/R/12_Ratio_750_L_3_R_4.png","img/500/equaldotanddens/L/4_Ratio_500_L_18_R_9.png","img/500/randomdotsizeEA/L/10_Ratio_500_L_4_R_2.png","img/750/equaldotanddens/L/14_Ratio_750_L_8_R_6.png","img/750/equaldotanddens/L/9_Ratio_750_L_4_R_3.png","img/500/randomdotsizeEA/L/13_Ratio_500_L_12_R_6.png","img/500/randomdotsizeEA/L/11_Ratio_500_L_12_R_6.png","img/250/equaldotsize/R/4_Ratio_250_L_3_R_12.png","img/250/equaldotanddens/R/13_Ratio_250_L_2_R_8.png","img/900/equaldotsize/R/9_Ratio_900_L_18_R_20.png","img/900/equaldotsize/L/2_Ratio_900_L_20_R_18.png","img/500/equaldotsize/R/14_Ratio_500_L_5_R_10.png","img/750/randomdotsizeEA/R/7_Ratio_750_L_3_R_4.png","img/900/equaldotsize/R/9_Ratio_900_L_18_R_20.png","img/500/equaldotanddens/R/6_Ratio_500_L_9_R_18.png","img/250/equaldotanddens/R/12_Ratio_250_L_5_R_20.png","img/250/randomdotsizeEA/L/7_Ratio_250_L_8_R_2.png","img/900/equaldotsize/R/15_Ratio_900_L_9_R_10.png","img/900/equaldotanddens/R/13_Ratio_900_L_18_R_20.png","img/750/equaldotsize/R/11_Ratio_750_L_12_R_16.png","img/750/randomdotsizeEA/R/4_Ratio_750_L_15_R_20.png","img/250/equaldotsize/R/12_Ratio_250_L_5_R_20.png","img/750/randomdotsizeEA/R/4_Ratio_750_L_15_R_20.png","img/250/equaldotsize/L/7_Ratio_250_L_8_R_2.png","img/900/equaldotsize/R/6_Ratio_900_L_9_R_10.png","img/750/equaldotanddens/L/9_Ratio_750_L_4_R_3.png","img/250/equaldotanddens/L/15_Ratio_250_L_12_R_3.png","img/900/randomdotsizeEA/L/10_Ratio_900_L_20_R_18.png","img/900/randomdotsizeEA/R/12_Ratio_900_L_18_R_20.png","img/500/equaldotanddens/R/14_Ratio_500_L_5_R_10.png","img/900/randomdotsizeEA/R/13_Ratio_900_L_18_R_20.png","img/750/randomdotsizeEA/L/14_Ratio_750_L_8_R_6.png","img/500/randomdotsizeEA/L/8_Ratio_500_L_8_R_4.png","img/750/equaldotanddens/R/4_Ratio_750_L_15_R_20.png","img/900/equaldotsize/R/13_Ratio_900_L_18_R_20.png","img/250/equaldotsize/L/14_Ratio_250_L_12_R_3.png","img/250/randomdotsizeEA/R/12_Ratio_250_L_5_R_20.png","img/900/randomdotsizeEA/R/13_Ratio_900_L_18_R_20.png","img/500/randomdotsizeEA/R/14_Ratio_500_L_5_R_10.png","img/500/equaldotsize/L/4_Ratio_500_L_18_R_9.png","img/900/equaldotanddens/L/8_Ratio_900_L_20_R_18.png","img/250/equaldotsize/R/10_Ratio_250_L_4_R_16.png","img/250/equaldotanddens/L/15_Ratio_250_L_12_R_3.png","img/500/equaldotsize/L/4_Ratio_500_L_18_R_9.png","img/900/equaldotanddens/R/5_Ratio_900_L_9_R_10.png","img/500/equaldotanddens/L/5_Ratio_500_L_4_R_2.png","img/750/equaldotanddens/R/5_Ratio_750_L_15_R_20.png","img/900/equaldotanddens/L/2_Ratio_900_L_20_R_18.png","img/900/equaldotanddens/R/7_Ratio_900_L_9_R_10.png","img/750/randomdotsizeEA/L/1_Ratio_750_L_20_R_15.png","img/500/randomdotsizeEA/L/10_Ratio_500_L_4_R_2.png","img/250/randomdotsizeEA/L/2_Ratio_250_L_16_R_4.png"],"Rat0":[["12_Ratio_0_L_9_R_0.png","13_Ratio_0_L_6_R_0.png","5_Ratio_0_L_2_R_0.png","6_Ratio_0_L_4_R_0.png","8_Ratio_0_L_6_R_0.png"],["1_Ratio_0_L_0_R_17.png","10_Ratio_0_L_0_R_22.png","11_Ratio_0_L_0_R_1.png","14_Ratio_0_L_0_R_24.png","15_Ratio_0_L_0_R_4.png","2_Ratio_0_L_0_R_5.png","3_Ratio_0_L_0_R_17.png","4_Ratio_0_L_0_R_7.png","7_Ratio_0_L_0_R_19.png","9_Ratio_0_L_0_R_15.png"]],"Rat250":[["1_Ratio_250_L_8_R_2.png","14_Ratio_250_L_12_R_3.png","15_Ratio_250_L_12_R_3.png","2_Ratio_250_L_16_R_4.png","3_Ratio_250_L_8_R_2.png","5_Ratio_250_L_24_R_6.png","7_Ratio_250_L_8_R_2.png"],["10_Ratio_250_L_4_R_16.png","11_Ratio_250_L_3_R_12.png","12_Ratio_250_L_5_R_20.png","13_Ratio_250_L_2_R_8.png","4_Ratio_250_L_3_R_12.png","6_Ratio_250_L_6_R_24.png","8_Ratio_250_L_1_R_4.png","9_Ratio_250_L_3_R_12.png"]],"Rat500":[["10_Ratio_500_L_4_R_2.png","11_Ratio_500_L_12_R_6.png","13_Ratio_500_L_12_R_6.png","4_Ratio_500_L_18_R_9.png","5_Ratio_500_L_4_R_2.png","7_Ratio_500_L_10_R_5.png","8_Ratio_500_L_8_R_4.png"],["1_Ratio_500_L_9_R_18.png","12_Ratio_500_L_1_R_2.png","14_Ratio_500_L_5_R_10.png","15_Ratio_500_L_1_R_2.png","2_Ratio_500_L_3_R_6.png","3_Ratio_500_L_10_R_20.png","6_Ratio_500_L_9_R_18.png","9_Ratio_500_L_2_R_4.png"]],"Rat750":[["1_Ratio_750_L_20_R_15.png","10_Ratio_750_L_4_R_3.png","13_Ratio_750_L_8_R_6.png","14_Ratio_750_L_8_R_6.png","6_Ratio_750_L_24_R_18.png","8_Ratio_750_L_4_R_3.png","9_Ratio_750_L_4_R_3.png"],["11_Ratio_750_L_12_R_16.png","12_Ratio_750_L_3_R_4.png","15_Ratio_750_L_9_R_12.png","2_Ratio_750_L_6_R_8.png","3_Ratio_750_L_15_R_20.png","4_Ratio_750_L_15_R_20.png","5_Ratio_750_L_15_R_20.png","7_Ratio_750_L_3_R_4.png"]],"Rat900":[["1_Ratio_900_L_10_R_9.png","10_Ratio_900_L_20_R_18.png","2_Ratio_900_L_20_R_18.png","4_Ratio_900_L_20_R_18.png","8_Ratio_900_L_20_R_18.png"],["11_Ratio_900_L_18_R_20.png","12_Ratio_900_L_18_R_20.png","13_Ratio_900_L_18_R_20.png","14_Ratio_900_L_18_R_20.png","15_Ratio_900_L_9_R_10.png","3_Ratio_900_L_9_R_10.png","5_Ratio_900_L_9_R_10.png","6_Ratio_900_L_9_R_10.png","7_Ratio_900_L_9_R_10.png","9_Ratio_900_L_18_R_20.png"]],"Rat1000":[["10_Ratio_1000_L_16_R_16.png","11_Ratio_1000_L_6_R_6.png","12_Ratio_1000_L_14_R_14.png","13_Ratio_1000_L_20_R_20.png","15_Ratio_1000_L_15_R_15.png","2_Ratio_1000_L_17_R_17.png","4_Ratio_1000_L_9_R_9.png","5_Ratio_1000_L_6_R_6.png","6_Ratio_1000_L_19_R_19.png","8_Ratio_1000_L_14_R_14.png","9_Ratio_1000_L_25_R_25.png"],["1_Ratio_1000_L_1_R_1.png","14_Ratio_1000_L_17_R_17.png","3_Ratio_1000_L_17_R_17.png","7_Ratio_1000_L_6_R_6.png"]]}},{"start_time":1551901071822,"click_time":1551901073690,"finger_time":1551901073169,"fix_duration":271.10977234952736,"trial":1,"RT":1347,"MT":521,"sideResp":1,"stimulus":"img/500/equaldotanddens/R/6_Ratio_500_L_9_R_18.png","xmouse":[794,794,794,794,794,794,794,794,794,794,794,794,794,794,794,794,794,794,794,794,794,794,794,794,794,794,794,794,794,794,794,794,794,794,794,794,794,794,794,794,794,794,794,794,794,794,794,794,794,794,794,794,794,794,794,794,794,794,794,794,794,794,794,794,794,794,794,794,789,772,743,710,653,642,636,633,630,630,630,630,630,630,630,630,625,617,612,610,607,600,589,575,526,517],"ymouse":[612,612,612,612,612,612,612,612,612,612,612,612,612,612,612,612,612,612,612,612,612,612,612,612,612,612,612,612,612,612,612,612,612,612,612,612,612,612,612,612,612,612,612,612,612,612,612,612,612,612,612,612,612,612,612,612,612,612,612,612,612,612,612,612,612,612,583,531,497,452,392,338,229,203,185,174,162,162,161,161,161,161,161,161,158,153,150,149,138,120,99,77,45,42],"timestamp_mouse":[11,27,53,67,88,107,127,146,167,187,206,227,247,267,287,306,326,348,367,388,407,427,447,467,487,507,526,547,567,586,606,627,648,666,687,707,727,747,768,786,806,827,847,866,887,908,926,947,967,987,1007,1026,1046,1067,1088,1108,1127,1147,1167,1186,1207,1227,1246,1268,1287,1307,1327,1347,1366,1388,1406,1426,1447,1466,1486,1508,1527,1546,1566,1587,1607,1628,1648,1667,1687,1707,1727,1747,1767,1787,1807,1826,1847,1867],"xSR":741.5,"ySR":573.95,"xT1":424.9,"yT1":0,"xT2":1058.1,"yT2":0,"toosoon":0,"cond_shown":"equaldotanddens","ratio_trial":500,"smaller_num":"9","larger_num":"18","correct_side":2,"subjID":"SAMUELAGUILERA7","gender":"0","age":"11","school":"6"},{"start_time":1551901076573,"click_time":1551901078049,"finger_time":1551901077369,"fix_duration":1102.4720386580063,"trial":2,"RT":796,"MT":680,"sideResp":2,"stimulus":"img/900/randomdotsizeEA/L/10_Ratio_900_L_20_R_18.png","xmouse":[788,788,788,788,788,788,788,788,788,788,788,788,788,788,788,788,788,788,788,788,788,788,788,788,789,789,789,789,789,789,789,789,789,789,789,789,790,790,798,810,823,835,848,908,932,950,964,974,982,992,994,994,994,996,999,1002,1006,1009,1012,1024,1031,1036,1040,1046,1049,1052,1054,1056,1060,1064,1070,1077,1085,1111],"ymouse":[611,611,611,611,611,611,611,611,611,611,611,611,611,611,611,611,611,611,611,611,611,611,611,611,610,610,610,610,610,610,610,610,610,610,610,610,606,602,585,570,555,541,522,437,404,375,355,339,324,307,304,304,303,294,285,275,263,252,240,210,193,183,177,168,163,158,154,152,145,140,132,121,106,67],"timestamp_mouse":[16,40,57,77,96,116,137,156,176,197,216,237,257,277,296,316,337,356,376,397,416,437,457,476,496,517,537,556,576,596,617,636,656,676,696,716,736,756,777,796,817,836,858,877,897,916,936,956,976,996,1016,1036,1056,1077,1096,1116,1137,1156,1176,1196,1216,1237,1257,1277,1296,1316,1337,1357,1376,1396,1416,1437,1456,1476],"xSR":741.5,"ySR":573.95,"xT1":424.9,"yT1":0,"xT2":1058.1,"yT2":0,"toosoon":0,"cond_shown":"randomdotsizeEA","ratio_trial":900,"smaller_num":"18","larger_num":"20","correct_side":1,"subjID":"SAMUELAGUILERA7","gender":"0","age":"11","school":"6"},{"start_time":1551901079978,"click_time":1551901081289,"finger_time":1551901080889,"fix_duration":1207.2154929057303,"trial":3,"RT":911,"MT":400,"sideResp":1,"stimulus":"img/750/equaldotanddens/L/9_Ratio_750_L_4_R_3.png","xmouse":[820,820,820,820,820,820,820,820,820,820,820,820,820,820,820,820,820,820,820,820,820,820,820,820,820,820,820,820,820,820,820,820,820,820,820,820,820,820,815,812,812,812,812,812,808,803,795,782,762,735,726,718,710,699,674,666,657,647,636,613,601,589,578,559,535,524],"ymouse":[606,606,606,606,606,606,606,606,606,606,606,606,606,606,606,606,606,606,606,606,606,606,606,606,606,606,606,606,606,606,606,606,606,606,606,606,606,606,598,592,591,590,590,590,577,561,533,489,443,381,360,340,317,291,253,242,232,220,206,178,164,153,143,122,97,89],"timestamp_mouse":[11,35,50,72,91,111,131,152,171,191,212,231,251,271,291,312,331,351,372,392,412,432,451,472,491,511,531,552,570,591,611,631,652,671,691,712,731,751,772,791,811,831,851,871,892,911,931,952,971,991,1011,1031,1051,1072,1091,1111,1131,1151,1171,1191,1211,1231,1252,1271,1292,1311],"xSR":741.5,"ySR":573.95,"xT1":424.9,"yT1":0,"xT2":1058.1,"yT2":0,"toosoon":0,"cond_shown":"equaldotanddens","ratio_trial":750,"smaller_num":"3","larger_num":"4","correct_side":1,"subjID":"SAMUELAGUILERA7","gender":"0","age":"11","school":"6"},{"start_time":1551901082621,"click_time":1551901083650,"finger_time":1551901083309,"fix_duration":510.7231994798995,"trial":4,"RT":688,"MT":341,"sideResp":1,"stimulus":"img/500/equaldotanddens/L/11_Ratio_500_L_12_R_6.png","xmouse":[789,789,789,789,789,789,789,789,789,789,789,789,789,789,789,789,789,789,789,789,789,789,789,789,789,789,789,789,789,789,789,789,789,789,789,789,748,697,643,602,578,547,540,535,529,524,521,521,521,520,520,490],"ymouse":[584,584,584,584,584,584,584,584,584,584,584,584,584,584,584,584,584,584,584,584,584,584,584,584,584,584,584,584,584,584,584,584,584,584,571,541,380,287,208,143,99,24,0,0,0,0,0,0,0,0,0,38],"timestamp_mouse":[11,31,48,69,88,108,128,148,168,189,209,228,249,268,288,308,328,348,368,388,408,428,448,468,488,508,528,548,568,588,608,629,648,668,688,708,729,747,768,788,807,828,848,868,889,909,929,949,968,988,1009,1029],"xSR":741.5,"ySR":573.95,"xT1":424.9,"yT1":0,"xT2":1058.1,"yT2":0,"toosoon":0,"cond_shown":"equaldotanddens","ratio_trial":500,"smaller_num":"6","larger_num":"12","correct_side":1,"subjID":"SAMUELAGUILERA7","gender":"0","age":"11","school":"6"},{"start_time":1551901087171,"click_time":1551901088469,"finger_time":1551901088169,"fix_duration":1400.0955821546474,"trial":5,"RT":998,"MT":300,"sideResp":1,"stimulus":"img/250/randomdotsizeEA/L/7_Ratio_250_L_8_R_2.png","xmouse":[776,776,776,777,777,777,777,778,778,778,778,778,778,778,778,778,778,778,778,778,778,778,778,778,778,778,778,778,778,778,778,778,778,778,778,778,778,778,778,778,778,778,778,778,778,775,771,766,758,726,713,709,707,703,693,685,673,663,652,633,616,598,581,563,523],"ymouse":[622,622,622,621,621,621,621,621,621,621,621,621,621,621,621,621,621,621,621,621,621,621,621,621,621,621,621,621,621,621,621,621,621,621,621,621,621,621,621,621,621,621,621,621,620,615,608,596,575,501,462,448,438,416,385,358,329,307,282,230,192,156,129,106,50],"timestamp_mouse":[18,41,58,79,98,118,138,159,179,198,218,239,258,278,298,318,339,358,378,399,418,438,459,478,498,518,539,558,578,598,619,638,659,678,698,718,738,758,778,798,818,838,859,878,898,918,938,958,978,998,1018,1038,1058,1078,1098,1118,1139,1159,1178,1198,1219,1238,1259,1278,1298],"xSR":741.5,"ySR":573.95,"xT1":424.9,"yT1":0,"xT2":1058.1,"yT2":0,"toosoon":0,"cond_shown":"randomdotsizeEA","ratio_trial":250,"smaller_num":"2","larger_num":"8","correct_side":1,"subjID":"SAMUELAGUILERA7","gender":"0","age":"11","school":"6"},{"start_time":1551901089817,"click_time":1551901090850,"finger_time":1551901090529,"fix_duration":546.8646955804446,"trial":6,"RT":712,"MT":321,"sideResp":2,"stimulus":"img/900/randomdotsizeEA/R/7_Ratio_900_L_9_R_10.png","xmouse":[802,802,802,802,802,802,802,802,802,802,802,802,802,802,802,802,802,802,802,802,802,802,802,802,802,802,802,802,802,802,802,802,802,802,802,851,1002,1103,1188,1235,1256,1273,1278,1278,1274,1271,1266,1243,1224,1200,1172,1132],"ymouse":[618,618,618,618,618,618,618,618,618,618,618,618,618,618,618,618,618,618,618,618,618,618,618,618,618,618,618,618,618,618,618,618,618,618,618,595,473,372,282,219,187,155,137,128,119,110,100,81,74,68,60,44],"timestamp_mouse":[12,32,52,72,92,112,132,152,173,193,212,232,252,273,292,313,333,352,372,393,412,432,453,472,492,513,533,552,573,592,612,633,652,673,693,712,733,752,773,793,812,832,852,872,892,912,932,952,972,993,1012,1032],"xSR":741.5,"ySR":573.95,"xT1":424.9,"yT1":0,"xT2":1058.1,"yT2":0,"toosoon":0,"cond_shown":"randomdotsizeEA","ratio_trial":900,"smaller_num":"9","larger_num":"10","correct_side":2,"subjID":"SAMUELAGUILERA7","gender":"0","age":"11","school":"6"},{"start_time":1551901092000,"click_time":1551901093369,"finger_time":1551901092850,"fix_duration":250,"trial":7,"RT":850,"MT":519,"sideResp":2,"stimulus":"img/500/equaldotsize/R/3_Ratio_500_L_10_R_20.png","xmouse":[792,792,792,792,792,792,792,792,792,792,792,792,792,792,792,792,792,792,792,792,792,792,792,792,792,792,792,792,792,792,792,792,792,792,792,792,792,792,792,792,792,792,945,1111,1188,1204,1230,1268,1276,1279,1282,1288,1296,1291,1281,1261,1242,1203,1191,1186,1182,1178,1173,1163,1163,1163,1163,1160,1146],"ymouse":[642,642,642,642,642,642,642,642,642,642,642,642,642,642,642,642,642,642,642,642,642,642,642,642,642,642,642,642,642,642,642,642,642,642,642,642,642,642,642,642,642,642,638,600,573,561,536,493,472,449,412,363,319,249,232,210,186,131,105,87,75,67,61,58,58,58,58,58,64],"timestamp_mouse":[14,38,50,69,89,110,130,150,169,190,210,230,250,269,290,309,329,349,369,390,409,429,449,470,489,509,529,549,569,589,609,629,649,670,689,710,730,749,769,789,810,830,850,869,890,909,929,949,969,990,1010,1029,1049,1069,1089,1109,1129,1150,1168,1189,1209,1229,1249,1269,1289,1309,1329,1349,1369],"xSR":741.5,"ySR":573.95,"xT1":424.9,"yT1":0,"xT2":1058.1,"yT2":0,"toosoon":0,"cond_shown":"equaldotsize","ratio_trial":500,"smaller_num":"10","larger_num":"20","correct_side":2,"subjID":"SAMUELAGUILERA7","gender":"0","age":"11","school":"6"},{"start_time":1551901095370,"click_time":1551901096309,"finger_time":1551901095969,"fix_duration":1200.0708671488153,"trial":8,"RT":599,"MT":340,"sideResp":2,"stimulus":"img/900/equaldotsize/L/8_Ratio_900_L_20_R_18.png","xmouse":[797,797,797,797,797,797,797,797,797,797,797,797,797,797,797,797,797,797,797,797,797,797,797,797,797,797,797,797,797,829,867,896,919,943,947,951,951,953,956,956,956,958,960,995,1027,1053,1071],"ymouse":[628,628,628,628,628,628,628,628,628,628,628,628,628,628,628,628,628,628,628,628,628,628,628,628,628,628,628,628,622,559,490,442,402,346,296,261,235,213,181,168,156,150,146,122,104,90,81],"timestamp_mouse":[31,39,60,80,99,119,140,159,179,199,220,240,259,279,299,320,339,360,379,400,419,439,459,479,499,520,539,559,579,599,619,639,659,679,699,719,738,759,779,799,819,840,859,880,899,919,939],"xSR":741.5,"ySR":573.95,"xT1":424.9,"yT1":0,"xT2":1058.1,"yT2":0,"toosoon":0,"cond_shown":"equaldotsize","ratio_trial":900,"smaller_num":"18","larger_num":"20","correct_side":1,"subjID":"SAMUELAGUILERA7","gender":"0","age":"11","school":"6"},{"start_time":1551901097282,"click_time":1551901098249,"finger_time":1551901097949,"fix_duration":250,"trial":9,"RT":667,"MT":300,"sideResp":1,"stimulus":"img/250/randomdotsizeEA/L/2_Ratio_250_L_16_R_4.png","xmouse":[770,770,770,770,770,770,770,770,770,770,770,770,770,770,770,770,770,770,770,770,770,770,770,770,770,770,770,770,770,770,770,770,765,710,648,604,557,514,490,484,480,476,470,463,463,462,464,467,476],"ymouse":[586,586,586,586,586,586,586,586,586,586,586,586,586,586,586,586,586,586,586,586,586,586,586,586,586,586,586,586,586,586,586,586,581,540,488,439,380,310,219,181,160,151,143,134,130,127,120,111,79],"timestamp_mouse":[10,32,47,67,88,107,127,147,167,187,207,227,247,267,287,307,328,347,367,388,407,427,448,467,487,508,527,548,567,587,607,628,647,667,687,708,728,747,767,788,807,828,847,867,887,907,927,947,967],"xSR":741.5,"ySR":573.95,"xT1":424.9,"yT1":0,"xT2":1058.1,"yT2":0,"toosoon":0,"cond_shown":"randomdotsizeEA","ratio_trial":250,"smaller_num":"4","larger_num":"16","correct_side":1,"subjID":"SAMUELAGUILERA7","gender":"0","age":"11","school":"6"},{"start_time":1551901100674,"click_time":1551901101509,"finger_time":1551901101190,"fix_duration":1463.7013240506774,"trial":10,"RT":516,"MT":319,"sideResp":1,"stimulus":"img/250/equaldotanddens/L/5_Ratio_250_L_24_R_6.png","xmouse":[770,770,770,770,770,770,770,770,770,770,770,770,770,770,770,770,770,770,770,770,770,770,770,770,770,743,704,671,646,561,533,523,520,506,500,498,495,491,483,473,467,463],"ymouse":[598,598,598,598,598,598,598,598,598,598,598,598,598,598,598,598,598,598,598,598,598,598,598,598,593,535,463,409,378,305,278,264,254,230,222,219,210,195,154,119,102,93],"timestamp_mouse":[16,39,56,75,95,115,136,156,175,196,215,236,256,275,295,316,335,356,375,395,416,436,456,475,495,516,535,555,575,595,615,635,655,675,695,715,735,755,775,795,815,835],"xSR":741.5,"ySR":573.95,"xT1":424.9,"yT1":0,"xT2":1058.1,"yT2":0,"toosoon":0,"cond_shown":"equaldotanddens","ratio_trial":250,"smaller_num":"6","larger_num":"24","correct_side":1,"subjID":"SAMUELAGUILERA7","gender":"0","age":"11","school":"6"},{"start_time":1551901102341,"click_time":1551901103329,"finger_time":1551901102949,"fix_duration":250,"trial":11,"RT":608,"MT":380,"sideResp":2,"stimulus":"img/900/randomdotsizeEA/R/7_Ratio_900_L_9_R_10.png","xmouse":[809,809,809,809,809,809,809,809,809,809,809,809,809,809,809,809,809,809,809,809,809,809,809,809,809,809,809,809,809,809,848,959,1029,1050,1062,1075,1075,1075,1074,1074,1074,1074,1072,1070,1070,1070,1084,1091,1097,1099],"ymouse":[621,621,621,621,621,621,621,621,621,621,621,621,621,621,621,621,621,621,621,621,621,621,621,621,621,621,621,621,621,621,600,522,464,440,422,382,355,339,324,305,272,260,249,235,223,211,160,138,117,98],"timestamp_mouse":[10,34,48,69,89,108,128,149,168,188,208,229,248,269,289,308,329,349,368,388,408,428,448,468,488,509,528,548,569,588,608,628,648,669,688,708,728,748,769,788,808,828,848,869,888,908,928,948,968,988],"xSR":741.5,"ySR":573.95,"xT1":424.9,"yT1":0,"xT2":1058.1,"yT2":0,"toosoon":0,"cond_shown":"randomdotsizeEA","ratio_trial":900,"smaller_num":"9","larger_num":"10","correct_side":2,"subjID":"SAMUELAGUILERA7","gender":"0","age":"11","school":"6"},{"start_time":1551901106643,"click_time":1551901107649,"finger_time":1551901107349,"fix_duration":1173.8862492907563,"trial":12,"RT":706,"MT":300,"sideResp":1,"stimulus":"img/900/equaldotanddens/L/8_Ratio_900_L_20_R_18.png","xmouse":[792,792,792,792,792,792,792,792,792,792,792,792,792,792,792,792,792,792,792,792,792,792,792,792,792,792,792,792,792,792,792,792,792,790,757,653,592,543,515,502,479,466,464,464,464,460,458,455,452,451,451],"ymouse":[621,621,621,621,621,621,621,621,621,621,621,621,621,621,621,621,621,621,621,621,621,621,621,621,621,621,621,621,621,621,621,621,621,618,579,451,401,359,327,306,260,232,224,218,205,169,154,141,127,116,93],"timestamp_mouse":[10,36,47,65,87,106,126,146,167,187,206,226,246,267,286,307,326,346,366,386,407,427,446,467,487,506,526,547,566,586,607,627,646,667,686,706,726,746,767,786,805,826,846,866,886,905,926,946,966,986,1006],"xSR":741.5,"ySR":573.95,"xT1":424.9,"yT1":0,"xT2":1058.1,"yT2":0,"toosoon":0,"cond_shown":"equaldotanddens","ratio_trial":900,"smaller_num":"18","larger_num":"20","correct_side":1,"subjID":"SAMUELAGUILERA7","gender":"0","age":"11","school":"6"},{"start_time":1551901109093,"click_time":1551901109969,"finger_time":1551901109749,"fix_duration":542.7832456332662,"trial":13,"RT":656,"MT":220,"sideResp":1,"stimulus":"img/250/randomdotsizeEA/L/1_Ratio_250_L_8_R_2.png","xmouse":[760,760,760,760,760,760,760,760,760,760,760,760,760,760,760,760,760,760,760,760,760,760,760,760,760,760,760,760,760,760,760,755,730,710,682,646,605,522,505,497,497,497,497,495],"ymouse":[605,605,605,605,605,605,605,605,605,605,605,605,605,605,605,605,605,605,605,605,605,605,605,605,605,605,605,605,605,605,605,583,508,448,383,312,250,154,134,124,123,121,102,90],"timestamp_mouse":[16,38,56,76,96,116,137,157,176,197,217,237,256,276,296,317,335,357,377,396,416,437,456,475,497,517,537,557,577,597,616,636,656,676,696,716,736,756,777,796,816,836,856,876],"xSR":741.5,"ySR":573.95,"xT1":424.9,"yT1":0,"xT2":1058.1,"yT2":0,"toosoon":0,"cond_shown":"randomdotsizeEA","ratio_trial":250,"smaller_num":"2","larger_num":"8","correct_side":1,"subjID":"SAMUELAGUILERA7","gender":"0","age":"11","school":"6"},{"start_time":1551901111927,"click_time":1551901113149,"finger_time":1551901112649,"fix_duration":1016.9697804805301,"trial":14,"RT":722,"MT":500,"sideResp":2,"stimulus":"img/750/equaldotsize/R/5_Ratio_750_L_15_R_20.png","xmouse":[763,763,763,763,763,763,763,763,763,763,763,763,763,763,763,763,763,763,763,763,763,763,763,763,763,763,763,763,763,763,763,763,763,763,763,793,904,983,1042,1059,1074,1086,1089,1092,1093,1093,1093,1091,1085,1078,1071,1058,1055,1055,1055,1059,1069,1070,1070,1070,1071,1076],"ymouse":[612,612,612,612,612,612,612,612,612,612,612,612,612,612,612,612,612,612,612,612,612,612,612,612,612,612,612,612,612,612,612,612,612,612,612,597,505,450,416,401,386,361,350,334,319,305,284,276,265,251,233,193,176,163,149,135,116,113,107,102,100,88],"timestamp_mouse":[9,34,42,62,82,103,122,142,162,183,203,222,242,263,283,302,322,343,362,383,402,423,443,463,482,503,523,543,563,584,603,623,643,662,682,702,722,742,762,782,802,822,841,862,882,903,922,942,962,982,1002,1022,1041,1062,1082,1102,1122,1143,1162,1182,1203,1222],"xSR":741.5,"ySR":573.95,"xT1":424.9,"yT1":0,"xT2":1058.1,"yT2":0,"toosoon":0,"cond_shown":"equaldotsize","ratio_trial":750,"smaller_num":"15","larger_num":"20","correct_side":2,"subjID":"SAMUELAGUILERA7","gender":"0","age":"11","school":"6"},{"start_time":1551901115083,"click_time":1551901116129,"finger_time":1551901115749,"fix_duration":1033.8083366145506,"trial":15,"RT":666,"MT":380,"sideResp":2,"stimulus":"img/900/equaldotanddens/R/11_Ratio_900_L_18_R_20.png","xmouse":[775,775,775,775,775,775,775,775,775,775,775,775,775,775,775,775,775,775,775,775,775,775,775,775,775,775,775,775,775,775,776,789,805,835,854,882,922,971,1073,1106,1150,1165,1175,1186,1191,1193,1194,1194,1191,1183,1170,1164,1156],"ymouse":[598,598,598,598,598,598,598,598,598,598,598,598,598,598,598,598,598,598,598,598,598,598,598,598,598,598,598,598,598,598,599,599,598,568,527,475,424,380,307,277,233,214,198,174,163,156,148,141,125,110,93,86,79],"timestamp_mouse":[10,34,47,66,87,107,126,146,166,186,206,226,247,265,286,306,326,347,366,386,406,426,447,466,486,506,526,547,567,586,606,627,647,666,686,706,727,746,766,787,806,827,847,866,885,906,926,946,966,986,1006,1026,1046],"xSR":741.5,"ySR":573.95,"xT1":424.9,"yT1":0,"xT2":1058.1,"yT2":0,"toosoon":0,"cond_shown":"equaldotanddens","ratio_trial":900,"smaller_num":"18","larger_num":"20","correct_side":2,"subjID":"SAMUELAGUILERA7","gender":"0","age":"11","school":"6"},{"start_time":1551901117716,"click_time":1551901118709,"finger_time":1551901118349,"fix_duration":765.421382641141,"trial":16,"RT":633,"MT":360,"sideResp":1,"stimulus":"img/750/equaldotsize/L/13_Ratio_750_L_8_R_6.png","xmouse":[790,790,790,790,790,790,790,790,790,790,790,790,790,790,790,790,790,790,790,790,790,790,790,790,790,790,790,790,790,789,786,748,707,665,625,588,550,546,542,536,531,524,521,518,516,511,493,482,480,479],"ymouse":[621,621,621,621,621,621,621,621,621,621,621,621,621,621,621,621,621,621,621,621,621,621,621,621,621,621,621,621,621,621,619,549,487,432,381,338,277,250,206,184,173,168,165,158,151,141,118,104,100,95],"timestamp_mouse":[12,35,54,74,94,113,133,153,173,193,213,234,254,273,294,314,333,354,373,393,413,434,453,474,494,514,534,553,574,594,613,633,653,673,693,713,733,753,773,793,813,834,853,873,894,913,933,954,973,993],"xSR":741.5,"ySR":573.95,"xT1":424.9,"yT1":0,"xT2":1058.1,"yT2":0,"toosoon":0,"cond_shown":"equaldotsize","ratio_trial":750,"smaller_num":"6","larger_num":"8","correct_side":1,"subjID":"SAMUELAGUILERA7","gender":"0","age":"11","school":"6"},{"start_time":1551901119540,"click_time":1551901120710,"finger_time":1551901120249,"fix_duration":268.6872699411547,"trial":17,"RT":709,"MT":461,"sideResp":2,"stimulus":"img/500/randomdotsizeEA/R/12_Ratio_500_L_1_R_2.png","xmouse":[802,802,802,802,802,802,802,802,802,802,802,802,802,802,802,802,802,802,802,802,802,802,802,802,802,802,802,802,802,802,802,802,802,814,824,909,970,1047,1090,1124,1181,1201,1212,1218,1221,1221,1221,1220,1219,1218,1214,1208,1199,1191,1184,1173,1167,1160,1158],"ymouse":[623,623,623,623,623,623,623,623,623,623,623,623,623,623,623,623,623,623,623,623,623,623,623,623,623,623,623,623,623,623,623,623,623,618,609,535,472,375,324,265,171,141,122,109,100,84,74,70,65,62,59,59,59,59,59,59,59,60,61],"timestamp_mouse":[9,29,49,69,89,109,129,150,169,189,209,230,249,270,290,309,330,350,370,390,410,429,450,469,489,510,529,549,570,590,609,630,649,669,689,709,728,749,770,789,809,828,849,870,890,909,929,949,969,990,1009,1029,1049,1070,1089,1109,1129,1149,1169],"xSR":741.5,"ySR":573.95,"xT1":424.9,"yT1":0,"xT2":1058.1,"yT2":0,"toosoon":0,"cond_shown":"randomdotsizeEA","ratio_trial":500,"smaller_num":"1","larger_num":"2","correct_side":2,"subjID":"SAMUELAGUILERA7","gender":"0","age":"11","school":"6"},{"start_time":1551901125033,"click_time":1551901126049,"finger_time":1551901125629,"fix_duration":1023.8977631767295,"trial":18,"RT":596,"MT":420,"sideResp":1,"stimulus":"img/900/equaldotsize/L/2_Ratio_900_L_20_R_18.png","xmouse":[789,789,789,789,789,789,789,789,789,789,789,789,789,789,789,789,789,789,789,789,789,792,805,817,819,820,817,807,798,793,793,793,784,768,756,725,701,660,604,547,461,439,421,412,407,403,403,403,403,410,439],"ymouse":[642,642,642,642,642,642,642,642,642,642,642,642,642,642,642,642,642,642,642,642,642,644,648,650,650,650,636,616,593,568,475,418,368,322,300,265,249,230,207,182,132,114,96,84,76,68,68,68,67,59,40],"timestamp_mouse":[33,37,57,76,96,116,136,156,177,196,217,236,256,276,297,316,336,356,376,396,417,436,456,476,496,516,536,556,577,596,616,636,657,677,696,716,736,756,777,796,816,836,856,876,897,916,937,956,976,996,1016],"xSR":741.5,"ySR":573.95,"xT1":424.9,"yT1":0,"xT2":1058.1,"yT2":0,"toosoon":0,"cond_shown":"equaldotsize","ratio_trial":900,"smaller_num":"18","larger_num":"20","correct_side":1,"subjID":"SAMUELAGUILERA7","gender":"0","age":"11","school":"6"},{"start_time":1551901127161,"click_time":1551901127889,"finger_time":1551901127789,"fix_duration":250,"trial":19,"RT":628,"MT":100,"sideResp":1,"stimulus":"img/500/randomdotsizeEA/L/13_Ratio_500_L_12_R_6.png","xmouse":[777,777,777,777,777,777,777,777,777,777,777,777,777,777,777,777,777,777,777,777,777,777,777,777,777,777,777,777,777,777,777,753,717,667,573,543,512],"ymouse":[617,617,617,617,617,617,617,617,617,617,617,617,617,617,617,617,617,617,617,617,617,617,617,617,617,617,617,617,617,617,614,558,474,381,219,153,55],"timestamp_mouse":[10,35,49,68,88,108,129,148,168,188,208,228,249,268,288,308,328,349,368,388,409,428,448,468,488,508,528,549,568,588,608,628,649,668,688,708,728],"xSR":741.5,"ySR":573.95,"xT1":424.9,"yT1":0,"xT2":1058.1,"yT2":0,"toosoon":0,"cond_shown":"randomdotsizeEA","ratio_trial":500,"smaller_num":"6","larger_num":"12","correct_side":1,"subjID":"SAMUELAGUILERA7","gender":"0","age":"11","school":"6"},{"start_time":1551901129020,"click_time":1551901130169,"finger_time":1551901129429,"fix_duration":250,"trial":20,"RT":409,"MT":740,"sideResp":2,"stimulus":"img/500/equaldotsize/R/14_Ratio_500_L_5_R_10.png","xmouse":[775,775,775,775,775,775,775,775,775,775,775,775,775,775,775,775,775,769,760,749,734,689,669,656,641,624,612,608,603,599,596,596,596,596,598,602,611,617,629,640,656,707,772,822,869,913,954,1015,1033,1048,1056,1061,1070,1074,1078,1081,1091,1098],"ymouse":[626,626,626,626,626,626,626,626,626,626,626,626,626,626,626,626,626,620,606,590,567,485,442,410,383,354,332,320,309,298,291,289,289,289,289,292,299,303,309,314,318,321,321,312,297,275,248,206,190,177,168,163,150,143,139,133,113,98],"timestamp_mouse":[11,30,49,69,89,110,130,149,169,189,209,230,250,269,289,309,328,349,369,390,409,430,449,470,490,509,529,549,569,590,609,629,649,669,690,709,730,749,769,790,809,829,849,869,889,909,929,949,970,990,1009,1029,1049,1069,1089,1110,1129,1149],"xSR":741.5,"ySR":573.95,"xT1":424.9,"yT1":0,"xT2":1058.1,"yT2":0,"toosoon":0,"cond_shown":"equaldotsize","ratio_trial":500,"smaller_num":"5","larger_num":"10","correct_side":2,"subjID":"SAMUELAGUILERA7","gender":"0","age":"11","school":"6"},{"start_time":1551901132129,"click_time":1551901133450,"finger_time":1551901132749,"fix_duration":1258.9201535132795,"trial":21,"RT":620,"MT":701,"sideResp":1,"stimulus":"img/250/randomdotsizeEA/L/7_Ratio_250_L_8_R_2.png","xmouse":[774,774,774,774,774,774,774,774,774,774,774,774,774,774,774,774,774,774,774,774,774,774,774,774,774,774,774,774,774,774,771,733,712,694,675,660,642,631,625,620,619,617,608,602,598,596,595,595,593,588,573,556,534,531,531,531,531,531,531,531,531,531,531,531,531,527,523],"ymouse":[615,615,615,615,615,615,615,615,615,615,615,615,615,615,615,615,615,615,615,615,615,615,615,615,615,615,615,615,615,614,601,488,412,337,251,184,121,87,70,60,56,52,41,35,32,31,31,31,31,32,36,41,49,50,50,50,50,50,50,50,50,50,50,50,50,50,50],"timestamp_mouse":[8,36,40,59,80,100,120,140,160,180,200,220,240,261,281,301,320,340,361,381,400,420,440,460,480,500,520,540,560,580,600,620,640,660,680,700,720,741,760,780,800,820,840,860,880,901,931,941,960,980,1001,1020,1040,1061,1080,1100,1120,1140,1160,1181,1200,1221,1240,1260,1280,1301,1320],"xSR":741.5,"ySR":573.95,"xT1":424.9,"yT1":0,"xT2":1058.1,"yT2":0,"toosoon":0,"cond_shown":"randomdotsizeEA","ratio_trial":250,"smaller_num":"2","larger_num":"8","correct_side":1,"subjID":"SAMUELAGUILERA7","gender":"0","age":"11","school":"6"},{"start_time":1551901136220,"click_time":1551901137569,"finger_time":1551901137149,"fix_duration":250,"trial":22,"RT":929,"MT":420,"sideResp":2,"stimulus":"img/750/equaldotsize/R/2_Ratio_750_L_6_R_8.png","xmouse":[767,767,767,767,767,767,767,767,767,767,767,767,767,767,767,767,767,767,767,767,767,767,767,767,767,767,767,767,767,767,767,767,767,767,767,767,767,767,767,767,767,767,767,767,767,773,789,794,798,801,803,810,829,848,862,875,908,927,950,976,997,1024,1045,1057,1069,1076,1087,1089],"ymouse":[601,601,601,601,601,601,601,601,601,601,601,601,601,601,601,601,601,601,601,601,601,601,601,601,601,601,601,601,601,601,601,601,601,601,601,601,601,601,601,601,601,601,601,601,601,594,535,494,465,449,440,429,407,384,365,347,317,302,283,263,242,198,168,153,141,131,109,95],"timestamp_mouse":[10,31,49,69,90,109,129,150,170,190,209,229,249,269,290,309,328,349,369,389,409,428,450,469,490,510,529,550,569,589,609,630,648,670,689,710,728,750,769,789,809,830,850,869,889,909,929,949,969,990,1008,1029,1049,1068,1088,1110,1129,1149,1169,1189,1209,1229,1249,1269,1290,1309,1329,1349],"xSR":741.5,"ySR":573.95,"xT1":424.9,"yT1":0,"xT2":1058.1,"yT2":0,"toosoon":0,"cond_shown":"equaldotsize","ratio_trial":750,"smaller_num":"6","larger_num":"8","correct_side":2,"subjID":"SAMUELAGUILERA7","gender":"0","age":"11","school":"6"},{"start_time":1551901139321,"click_time":1551901140449,"finger_time":1551901140149,"fix_duration":930.2609003763996,"trial":23,"RT":828,"MT":300,"sideResp":1,"stimulus":"img/750/equaldotanddens/L/8_Ratio_750_L_4_R_3.png","xmouse":[808,808,808,808,808,808,808,808,808,808,808,808,808,808,808,808,808,808,808,808,808,808,808,808,808,808,808,808,808,808,808,808,808,808,808,808,808,808,808,808,790,691,636,598,562,527,461,434,424,419,412,404,404,404,404,409,434],"ymouse":[622,622,622,622,622,622,622,622,622,622,622,622,622,622,622,622,622,622,622,622,622,622,622,622,622,622,622,622,622,622,622,622,622,622,622,622,622,622,622,622,606,535,493,460,419,368,274,228,204,184,162,131,126,120,113,105,84],"timestamp_mouse":[9,30,49,69,88,109,128,149,168,188,209,228,248,269,288,308,329,348,368,387,408,428,447,469,489,508,529,549,567,589,608,629,649,668,689,708,729,748,769,789,808,828,847,869,888,909,928,947,968,988,1008,1028,1048,1068,1088,1108,1128],"xSR":741.5,"ySR":573.95,"xT1":424.9,"yT1":0,"xT2":1058.1,"yT2":0,"toosoon":0,"cond_shown":"equaldotanddens","ratio_trial":750,"smaller_num":"3","larger_num":"4","correct_side":1,"subjID":"SAMUELAGUILERA7","gender":"0","age":"11","school":"6"},{"start_time":1551901143933,"click_time":1551901144889,"finger_time":1551901144449,"fix_duration":1283.5207652171453,"trial":24,"RT":516,"MT":440,"sideResp":1,"stimulus":"img/500/equaldotsize/L/10_Ratio_500_L_4_R_2.png","xmouse":[768,768,768,768,768,768,768,768,768,768,768,768,768,768,768,768,768,768,768,768,768,768,768,768,766,745,680,628,569,526,472,455,449,448,449,459,462,459,455,455,454,454,454,454,454,454,455,459],"ymouse":[608,608,608,608,608,608,608,608,608,608,608,608,608,608,608,608,608,608,608,608,608,608,608,608,602,559,447,378,316,277,240,230,226,225,224,207,184,166,157,152,142,135,125,120,117,110,102,91],"timestamp_mouse":[16,36,57,75,96,116,136,157,177,196,216,235,257,276,296,316,337,356,377,396,415,436,456,476,496,516,537,556,576,596,616,636,655,676,696,716,737,756,776,796,817,836,857,876,897,916,936,955],"xSR":741.5,"ySR":573.95,"xT1":424.9,"yT1":0,"xT2":1058.1,"yT2":0,"toosoon":0,"cond_shown":"equaldotsize","ratio_trial":500,"smaller_num":"2","larger_num":"4","correct_side":1,"subjID":"SAMUELAGUILERA7","gender":"0","age":"11","school":"6"},{"start_time":1551901147976,"click_time":1551901149789,"finger_time":1551901148749,"fix_duration":1005.4041588127667,"trial":25,"RT":773,"MT":1040,"sideResp":2,"stimulus":"img/900/equaldotanddens/R/7_Ratio_900_L_9_R_10.png","xmouse":[779,779,779,779,779,779,779,779,779,779,779,779,779,779,779,779,779,779,779,779,779,779,779,779,779,779,779,779,779,779,779,779,779,778,756,754,751,749,740,740,740,740,740,740,740,743,752,767,828,866,895,922,940,957,980,984,989,995,997,1004,1006,1007,1008,1008,1008,1008,1008,1008,1008,1008,1008,1008,1008,1009,1009,1009,1011,1014,1032,1040,1044,1048,1049,1051,1051,1051,1051,1051,1053,1057,1061],"ymouse":[627,627,627,627,627,627,627,627,627,627,627,627,627,627,627,627,627,627,627,627,627,627,627,627,627,627,627,627,627,627,627,627,627,625,601,596,591,580,535,515,496,480,471,459,447,438,424,405,356,324,299,276,256,238,200,195,187,178,175,165,163,162,161,161,161,161,161,161,161,161,161,161,161,159,153,150,146,140,117,105,96,90,86,81,81,81,81,81,79,73,69],"timestamp_mouse":[14,38,53,73,94,113,134,152,173,193,214,232,254,274,293,313,333,353,374,393,413,433,452,474,494,513,535,553,573,593,613,633,654,673,692,713,734,753,773,793,813,833,853,873,893,913,934,953,973,993,1013,1033,1053,1073,1093,1113,1133,1153,1173,1192,1213,1233,1254,1274,1293,1313,1333,1353,1373,1394,1412,1434,1453,1473,1492,1513,1533,1553,1573,1593,1613,1633,1653,1673,1694,1713,1734,1754,1773,1793,1813],"xSR":741.5,"ySR":573.95,"xT1":424.9,"yT1":0,"xT2":1058.1,"yT2":0,"toosoon":0,"cond_shown":"equaldotanddens","ratio_trial":900,"smaller_num":"9","larger_num":"10","correct_side":2,"subjID":"SAMUELAGUILERA7","gender":"0","age":"11","school":"6"},{"start_time":1551901151285,"click_time":1551901152129,"finger_time":1551901151849,"fix_duration":634.2358835601873,"trial":26,"RT":564,"MT":280,"sideResp":1,"stimulus":"img/750/equaldotsize/L/8_Ratio_750_L_4_R_3.png","xmouse":[787,787,787,787,787,787,787,787,787,787,787,787,787,787,787,787,787,787,787,787,787,787,787,787,787,787,782,775,721,696,684,664,636,586,565,545,522,506,484,471,459,449,439],"ymouse":[630,630,630,630,630,630,630,630,630,630,630,630,630,630,630,630,630,630,630,630,630,630,630,630,630,630,625,615,538,507,492,470,433,350,316,277,239,210,172,146,126,105,85],"timestamp_mouse":[9,31,44,65,85,103,124,144,164,185,204,224,243,264,285,304,324,345,365,384,404,424,444,464,484,505,524,544,564,584,604,624,644,664,684,704,724,744,764,785,804,824,844],"xSR":741.5,"ySR":573.95,"xT1":424.9,"yT1":0,"xT2":1058.1,"yT2":0,"toosoon":0,"cond_shown":"equaldotsize","ratio_trial":750,"smaller_num":"3","larger_num":"4","correct_side":1,"subjID":"SAMUELAGUILERA7","gender":"0","age":"11","school":"6"},{"start_time":1551901154486,"click_time":1551901155310,"finger_time":1551901155089,"fix_duration":1336.2366806109826,"trial":27,"RT":603,"MT":221,"sideResp":2,"stimulus":"img/900/equaldotanddens/R/5_Ratio_900_L_9_R_10.png","xmouse":[768,768,768,768,768,768,768,768,768,768,768,768,768,768,768,768,768,768,768,768,768,768,768,768,768,768,768,768,768,783,837,883,897,947,987,1037,1068,1083,1091,1114,1122,1123],"ymouse":[602,602,602,602,602,602,602,602,602,602,602,602,602,602,602,602,602,602,602,602,602,602,602,602,602,602,602,602,602,589,526,467,437,345,295,245,214,191,173,125,104,87],"timestamp_mouse":[13,36,44,63,83,103,123,142,163,183,203,224,243,263,282,303,323,343,363,384,403,423,443,463,483,504,522,544,564,582,603,622,643,662,682,704,723,744,763,783,803,824],"xSR":741.5,"ySR":573.95,"xT1":424.9,"yT1":0,"xT2":1058.1,"yT2":0,"toosoon":0,"cond_shown":"equaldotanddens","ratio_trial":900,"smaller_num":"9","larger_num":"10","correct_side":2,"subjID":"SAMUELAGUILERA7","gender":"0","age":"11","school":"6"},{"start_time":1551901157409,"click_time":1551901158689,"finger_time":1551901158249,"fix_duration":1079.2513825062456,"trial":28,"RT":840,"MT":440,"sideResp":2,"stimulus":"img/250/equaldotsize/R/8_Ratio_250_L_1_R_4.png","xmouse":[786,786,786,786,786,786,786,786,786,786,786,786,786,786,786,786,786,786,786,786,786,786,786,786,786,786,786,786,786,786,786,786,786,786,786,786,786,786,786,786,786,784,733,715,703,698,698,698,698,698,702,712,761,848,910,969,1011,1048,1054,1059,1063,1069,1094,1116,1129],"ymouse":[626,626,626,626,626,626,626,626,626,626,626,626,626,626,626,626,626,626,626,626,626,626,626,626,626,626,626,626,626,626,626,626,626,626,626,626,626,626,626,626,626,626,541,511,493,484,482,482,482,482,479,474,453,408,367,317,275,222,210,201,191,176,139,108,89],"timestamp_mouse":[8,20,41,60,80,100,121,140,159,180,200,220,240,260,281,301,320,339,360,381,400,420,440,460,480,500,520,541,561,580,600,620,641,660,680,700,720,740,760,781,800,821,840,860,880,900,920,940,960,980,1000,1021,1040,1060,1079,1101,1120,1140,1160,1180,1201,1221,1240,1259,1280],"xSR":741.5,"ySR":573.95,"xT1":424.9,"yT1":0,"xT2":1058.1,"yT2":0,"toosoon":0,"cond_shown":"equaldotsize","ratio_trial":250,"smaller_num":"1","larger_num":"4","correct_side":2,"subjID":"SAMUELAGUILERA7","gender":"0","age":"11","school":"6"},{"start_time":1551901160563,"click_time":1551901161849,"finger_time":1551901161289,"fix_duration":813.3258532835766,"trial":29,"RT":726,"MT":560,"sideResp":2,"stimulus":"img/250/randomdotsizeEA/R/4_Ratio_250_L_3_R_12.png","xmouse":[818,818,818,818,818,818,818,818,818,818,818,818,818,818,818,818,818,818,818,818,818,818,818,818,818,818,818,818,818,818,818,818,818,818,818,829,840,842,842,869,897,913,920,924,929,929,929,934,941,957,966,976,983,989,999,1003,1015,1024,1031,1040,1045,1045,1048,1053,1077],"ymouse":[603,603,603,603,603,603,603,603,603,603,603,603,603,603,603,603,603,603,603,603,603,603,603,603,603,603,603,603,603,603,603,603,603,603,603,576,528,502,473,361,299,259,231,209,172,153,144,134,124,103,93,80,73,68,62,60,53,48,46,45,43,42,41,38,25],"timestamp_mouse":[8,44,52,66,87,107,126,147,166,186,207,227,247,266,286,306,326,346,366,387,406,427,445,467,487,505,527,547,566,586,607,627,646,667,686,706,726,746,766,786,806,826,846,867,886,905,926,946,966,986,1006,1026,1046,1066,1086,1106,1126,1146,1166,1186,1207,1226,1247,1267,1286],"xSR":741.5,"ySR":573.95,"xT1":424.9,"yT1":0,"xT2":1058.1,"yT2":0,"toosoon":0,"cond_shown":"randomdotsizeEA","ratio_trial":250,"smaller_num":"3","larger_num":"12","correct_side":2,"subjID":"SAMUELAGUILERA7","gender":"0","age":"11","school":"6"},{"start_time":1551901163338,"click_time":1551901164330,"finger_time":1551901163849,"fix_duration":648.9435482635687,"trial":30,"RT":511,"MT":481,"sideResp":1,"stimulus":"img/250/equaldotanddens/L/5_Ratio_250_L_24_R_6.png","xmouse":[790,790,790,790,790,790,790,790,790,790,790,790,790,790,790,790,790,790,790,790,790,790,790,790,784,721,663,565,494,447,406,406,406,404,400,390,386,385,385,386,392,393,396,400,403,410,414,418,424,429],"ymouse":[614,614,614,614,614,614,614,614,614,614,614,614,614,614,614,614,614,614,614,614,614,614,614,614,586,474,392,270,203,177,156,152,146,132,107,69,59,54,50,48,42,40,39,38,36,35,35,35,35,38],"timestamp_mouse":[10,41,51,71,91,111,131,152,172,192,212,231,251,272,291,312,332,351,372,390,412,431,451,471,491,511,531,551,571,591,611,630,651,671,692,711,732,751,771,791,810,831,850,871,892,911,932,951,971,991],"xSR":741.5,"ySR":573.95,"xT1":424.9,"yT1":0,"xT2":1058.1,"yT2":0,"toosoon":0,"cond_shown":"equaldotanddens","ratio_trial":250,"smaller_num":"6","larger_num":"24","correct_side":1,"subjID":"SAMUELAGUILERA7","gender":"0","age":"11","school":"6"},{"start_time":1551901166691,"click_time":1551901167630,"finger_time":1551901167190,"fix_duration":1359.0819267480294,"trial":31,"RT":499,"MT":440,"sideResp":2,"stimulus":"img/750/randomdotsizeEA/R/11_Ratio_750_L_12_R_16.png","xmouse":[799,799,799,799,799,799,799,799,799,799,799,799,799,799,799,799,799,799,799,799,799,804,826,838,853,869,897,946,1054,1110,1129,1148,1166,1170,1172,1174,1177,1183,1186,1186,1186,1186,1183,1178,1171,1162,1155],"ymouse":[620,620,620,620,620,620,620,620,620,620,620,620,620,620,620,620,620,620,620,620,619,609,586,578,567,555,528,482,358,284,252,220,186,178,174,170,164,148,134,127,121,119,113,107,98,90,84],"timestamp_mouse":[21,40,58,79,99,118,139,159,179,199,219,237,258,279,298,317,339,358,379,399,418,439,458,478,499,518,537,558,579,598,618,638,658,678,698,718,738,758,778,797,818,838,857,878,898,918,939],"xSR":741.5,"ySR":573.95,"xT1":424.9,"yT1":0,"xT2":1058.1,"yT2":0,"toosoon":0,"cond_shown":"randomdotsizeEA","ratio_trial":750,"smaller_num":"12","larger_num":"16","correct_side":2,"subjID":"SAMUELAGUILERA7","gender":"0","age":"11","school":"6"},{"start_time":1551901169623,"click_time":1551901170669,"finger_time":1551901170270,"fix_duration":1133.9720399381988,"trial":32,"RT":647,"MT":399,"sideResp":2,"stimulus":"img/750/equaldotanddens/R/11_Ratio_750_L_12_R_16.png","xmouse":[793,793,793,793,793,793,793,793,793,793,793,793,793,793,793,793,793,793,793,793,793,793,793,793,793,793,793,793,793,793,793,822,868,942,995,1043,1105,1127,1139,1146,1154,1159,1160,1160,1160,1159,1156,1150,1146,1143,1140,1134,1131],"ymouse":[598,598,598,598,598,598,598,598,598,598,598,598,598,598,598,598,598,598,598,598,598,598,598,598,598,598,598,598,598,598,598,574,533,469,430,388,328,299,274,252,236,217,208,188,173,162,141,126,117,112,108,101,95],"timestamp_mouse":[10,39,47,66,86,106,126,147,166,186,206,226,246,266,286,306,327,346,367,386,407,426,447,467,487,506,526,546,566,587,606,626,647,666,687,706,726,746,765,785,806,826,846,866,886,906,926,946,966,987,1006,1026,1046],"xSR":741.5,"ySR":573.95,"xT1":424.9,"yT1":0,"xT2":1058.1,"yT2":0,"toosoon":0,"cond_shown":"equaldotanddens","ratio_trial":750,"smaller_num":"12","larger_num":"16","correct_side":2,"subjID":"SAMUELAGUILERA7","gender":"0","age":"11","school":"6"},{"start_time":1551901171774,"click_time":1551901173029,"finger_time":1551901172269,"fix_duration":484.71888117665543,"trial":33,"RT":495,"MT":760,"sideResp":1,"stimulus":"img/900/randomdotsizeEA/L/10_Ratio_900_L_20_R_18.png","xmouse":[793,793,793,793,793,793,793,793,793,793,793,793,793,793,793,793,793,793,793,793,793,793,791,768,732,680,648,621,593,585,579,576,573,565,560,560,559,559,559,559,559,559,559,559,559,554,540,532,528,528,527,527,527,527,527,527,527,527,527,527,527,527,515],"ymouse":[647,647,647,647,647,647,647,647,647,647,647,647,647,647,647,647,647,647,647,647,647,647,644,592,511,410,357,307,240,210,182,159,137,94,80,79,79,79,79,79,79,79,79,79,79,77,76,76,76,76,75,75,74,74,74,74,74,74,74,74,74,74,65],"timestamp_mouse":[17,41,56,75,96,116,135,155,174,196,215,235,256,275,295,315,335,355,375,395,416,436,456,474,495,514,535,555,575,595,615,635,656,674,696,715,735,755,775,796,816,835,856,876,895,915,934,956,975,995,1015,1035,1055,1075,1095,1115,1135,1155,1175,1195,1216,1235,1255],"xSR":741.5,"ySR":573.95,"xT1":424.9,"yT1":0,"xT2":1058.1,"yT2":0,"toosoon":0,"cond_shown":"randomdotsizeEA","ratio_trial":900,"smaller_num":"18","larger_num":"20","correct_side":1,"subjID":"SAMUELAGUILERA7","gender":"0","age":"11","school":"6"},{"start_time":1551901175407,"click_time":1551901176369,"finger_time":1551901176048,"fix_duration":1418.470569773268,"trial":34,"RT":641,"MT":321,"sideResp":2,"stimulus":"img/750/equaldotsize/R/5_Ratio_750_L_15_R_20.png","xmouse":[770,770,770,770,770,770,770,770,770,770,770,770,770,770,770,770,770,770,770,770,770,770,770,770,770,770,770,770,770,770,775,788,877,912,960,989,1016,1061,1075,1084,1090,1097,1104,1107,1110,1114,1117,1136,1151],"ymouse":[631,631,631,631,631,631,631,631,631,631,631,631,631,631,631,631,631,631,631,631,631,631,631,631,631,631,631,631,631,631,630,622,568,537,498,477,456,412,394,375,354,331,294,279,256,237,211,129,65],"timestamp_mouse":[9,22,42,63,83,102,123,142,162,182,202,223,242,262,283,302,323,342,363,382,403,423,442,462,483,503,523,542,563,582,602,622,641,662,682,701,723,742,762,782,802,823,842,862,881,903,923,942,962],"xSR":741.5,"ySR":573.95,"xT1":424.9,"yT1":0,"xT2":1058.1,"yT2":0,"toosoon":0,"cond_shown":"equaldotsize","ratio_trial":750,"smaller_num":"15","larger_num":"20","correct_side":2,"subjID":"SAMUELAGUILERA7","gender":"0","age":"11","school":"6"},{"start_time":1551901177453,"click_time":1551901178709,"finger_time":1551901178410,"fix_duration":421.21462289422806,"trial":35,"RT":957,"MT":299,"sideResp":2,"stimulus":"img/500/equaldotsize/R/6_Ratio_500_L_9_R_18.png","xmouse":[763,763,763,763,763,763,763,763,763,763,763,763,763,763,763,763,763,763,763,763,763,763,763,763,763,763,763,763,763,763,763,763,763,763,763,763,763,763,763,763,763,763,763,763,763,764,798,858,923,1045,1099,1119,1135,1144,1158,1166,1175,1179,1179,1175,1169,1160,1148],"ymouse":[608,608,608,608,608,608,608,608,608,608,608,608,608,608,608,608,608,608,608,608,608,608,608,608,608,608,608,608,608,608,608,608,608,608,608,608,608,608,608,608,608,608,608,608,608,609,584,528,468,375,316,280,240,202,148,132,120,114,113,106,101,94,89],"timestamp_mouse":[32,36,57,75,96,116,136,155,176,196,216,236,256,277,295,316,336,356,376,396,417,436,456,476,496,516,536,556,576,596,616,636,656,676,696,717,735,756,777,796,816,836,857,876,897,916,936,957,976,996,1016,1036,1055,1076,1096,1115,1135,1156,1176,1197,1216,1236,1255],"xSR":741.5,"ySR":573.95,"xT1":424.9,"yT1":0,"xT2":1058.1,"yT2":0,"toosoon":0,"cond_shown":"equaldotsize","ratio_trial":500,"smaller_num":"9","larger_num":"18","correct_side":2,"subjID":"SAMUELAGUILERA7","gender":"0","age":"11","school":"6"},{"start_time":1551901180379,"click_time":1551901181470,"finger_time":1551901180989,"fix_duration":810.626193658318,"trial":36,"RT":610,"MT":481,"sideResp":1,"stimulus":"img/250/randomdotsizeEA/L/1_Ratio_250_L_8_R_2.png","xmouse":[791,791,791,791,791,791,791,791,791,791,791,791,791,791,791,791,791,791,791,791,791,791,791,791,791,791,791,791,791,788,774,750,721,680,670,660,655,651,651,651,650,650,646,634,624,620,614,606,566,515,483,467,461,451,442],"ymouse":[609,609,609,609,609,609,609,609,609,609,609,609,609,609,609,609,609,609,609,609,609,609,609,609,609,609,609,609,609,600,568,521,480,416,398,383,371,365,355,350,344,337,326,299,284,277,271,260,223,191,173,162,153,104,78],"timestamp_mouse":[11,33,50,70,90,111,130,150,170,191,210,231,250,269,290,310,330,350,370,390,410,431,450,470,491,509,530,550,571,589,610,630,651,670,690,710,731,750,770,790,810,831,850,870,890,910,931,951,970,989,1010,1030,1049,1070,1091],"xSR":741.5,"ySR":573.95,"xT1":424.9,"yT1":0,"xT2":1058.1,"yT2":0,"toosoon":0,"cond_shown":"randomdotsizeEA","ratio_trial":250,"smaller_num":"2","larger_num":"8","correct_side":1,"subjID":"SAMUELAGUILERA7","gender":"0","age":"11","school":"6"},{"start_time":1551901183071,"click_time":1551901183969,"finger_time":1551901183669,"fix_duration":680.121253474186,"trial":37,"RT":598,"MT":300,"sideResp":2,"stimulus":"img/500/equaldotsize/R/3_Ratio_500_L_10_R_20.png","xmouse":[770,770,770,770,770,770,770,770,770,770,770,770,770,770,770,770,770,770,770,770,770,770,770,770,770,770,770,770,794,831,960,1028,1072,1098,1102,1103,1103,1103,1103,1103,1103,1103,1103,1103,1103],"ymouse":[623,623,623,623,623,623,623,623,623,623,623,623,623,623,623,623,623,623,623,623,623,623,623,623,623,623,623,623,600,556,402,314,254,197,178,164,152,148,146,146,143,135,127,104,96],"timestamp_mouse":[37,38,58,78,98,119,138,159,179,199,219,239,259,279,298,318,338,358,378,399,418,438,458,479,499,518,538,558,578,598,617,639,658,678,697,719,738,758,778,798,818,838,859,878,897],"xSR":741.5,"ySR":573.95,"xT1":424.9,"yT1":0,"xT2":1058.1,"yT2":0,"toosoon":0,"cond_shown":"equaldotsize","ratio_trial":500,"smaller_num":"10","larger_num":"20","correct_side":2,"subjID":"SAMUELAGUILERA7","gender":"0","age":"11","school":"6"},{"start_time":1551901185726,"click_time":1551901186769,"finger_time":1551901186390,"fix_duration":775.0154394125923,"trial":38,"RT":664,"MT":379,"sideResp":2,"stimulus":"img/900/equaldotanddens/R/15_Ratio_900_L_9_R_10.png","xmouse":[766,766,766,766,766,766,766,766,766,766,767,772,792,795,795,795,795,795,795,795,795,795,795,795,795,795,795,795,795,795,795,798,807,827,847,871,939,958,986,1002,1009,1011,1011,1011,1011,1011,1020,1027,1030,1036,1041,1056,1069],"ymouse":[648,648,648,648,648,648,648,648,648,648,648,644,624,622,622,622,622,622,622,622,622,622,622,622,622,622,622,622,622,622,622,618,577,509,461,416,271,206,141,86,61,42,41,41,41,41,25,17,14,12,11,11,14],"timestamp_mouse":[10,23,43,64,83,104,123,143,163,183,204,223,243,263,284,303,323,344,364,382,403,423,444,463,484,503,524,543,563,583,602,623,643,664,683,703,723,743,763,784,804,823,844,863,883,903,923,943,963,983,1003,1023,1042],"xSR":741.5,"ySR":573.95,"xT1":424.9,"yT1":0,"xT2":1058.1,"yT2":0,"toosoon":0,"cond_shown":"equaldotanddens","ratio_trial":900,"smaller_num":"9","larger_num":"10","correct_side":2,"subjID":"SAMUELAGUILERA7","gender":"0","age":"11","school":"6"},{"start_time":1551901189110,"click_time":1551901190089,"finger_time":1551901189869,"fix_duration":1378.0812812525098,"trial":39,"RT":759,"MT":220,"sideResp":1,"stimulus":"img/500/randomdotsizeEA/L/11_Ratio_500_L_12_R_6.png","xmouse":[808,808,808,808,808,808,808,808,808,808,808,808,808,808,808,808,808,808,808,808,808,808,808,808,808,808,808,808,808,808,808,808,808,808,808,808,808,808,770,666,607,565,545,543,539,532,520,495,491,486],"ymouse":[629,629,629,629,629,629,629,629,629,629,629,629,629,629,629,629,629,629,629,629,629,629,629,629,629,629,629,629,629,629,629,629,629,629,629,629,629,629,558,426,361,315,285,277,265,244,215,148,127,99],"timestamp_mouse":[1,19,39,59,79,99,120,140,160,179,199,219,239,259,279,298,319,339,359,379,399,420,440,458,480,498,519,539,560,578,600,620,640,660,679,699,719,739,759,779,800,819,839,858,880,899,919,939,959,979],"xSR":741.5,"ySR":573.95,"xT1":424.9,"yT1":0,"xT2":1058.1,"yT2":0,"toosoon":0,"cond_shown":"randomdotsizeEA","ratio_trial":500,"smaller_num":"6","larger_num":"12","correct_side":1,"subjID":"SAMUELAGUILERA7","gender":"0","age":"11","school":"6"},{"start_time":1551901191987,"click_time":1551901193209,"finger_time":1551901192670,"fix_duration":817.5421168220169,"trial":40,"RT":683,"MT":539,"sideResp":2,"stimulus":"img/500/randomdotsizeEA/L/8_Ratio_500_L_8_R_4.png","xmouse":[796,796,796,796,796,796,796,796,796,796,796,796,796,796,796,796,796,796,796,796,796,796,796,796,796,796,796,796,796,796,796,796,797,806,829,843,859,879,898,905,916,924,932,949,962,970,979,988,1005,1014,1020,1027,1032,1040,1045,1052,1057,1062,1067,1070,1073,1079],"ymouse":[622,622,622,622,622,622,622,622,622,622,622,622,622,622,622,622,622,622,622,622,622,622,622,622,622,622,622,622,622,622,622,622,622,602,549,527,502,463,417,403,388,377,366,346,331,321,310,298,268,253,237,220,204,174,158,147,139,132,116,110,105,98],"timestamp_mouse":[9,30,43,63,82,103,122,142,162,181,202,222,242,262,282,302,322,342,362,381,403,422,442,462,482,503,523,543,563,582,602,623,643,662,683,702,723,743,762,783,803,822,842,861,883,901,922,942,962,981,1001,1022,1042,1062,1081,1101,1122,1142,1161,1182,1202,1222],"xSR":741.5,"ySR":573.95,"xT1":424.9,"yT1":0,"xT2":1058.1,"yT2":0,"toosoon":0,"cond_shown":"randomdotsizeEA","ratio_trial":500,"smaller_num":"4","larger_num":"8","correct_side":1,"subjID":"SAMUELAGUILERA7","gender":"0","age":"11","school":"6"},{"start_time":1551901195026,"click_time":1551901195849,"finger_time":1551901195469,"fix_duration":976.9185972774113,"trial":41,"RT":443,"MT":380,"sideResp":2,"stimulus":"img/500/equaldotanddens/R/6_Ratio_500_L_9_R_18.png","xmouse":[770,770,770,770,770,770,770,770,770,770,770,770,770,770,770,770,770,770,770,770,780,788,845,898,926,945,981,1001,1030,1068,1101,1147,1148,1145,1143,1141,1137,1133,1126,1118,1111,1103],"ymouse":[607,607,607,607,607,607,607,607,607,607,607,607,607,607,607,607,607,607,607,607,597,584,506,429,397,369,325,296,262,218,189,143,135,126,123,123,123,122,119,115,110,98],"timestamp_mouse":[16,40,44,63,83,103,123,142,164,184,203,224,244,263,283,303,323,343,363,382,404,422,443,463,483,503,522,542,562,583,603,623,644,663,683,703,723,742,763,783,804,823],"xSR":741.5,"ySR":573.95,"xT1":424.9,"yT1":0,"xT2":1058.1,"yT2":0,"toosoon":0,"cond_shown":"equaldotanddens","ratio_trial":500,"smaller_num":"9","larger_num":"18","correct_side":2,"subjID":"SAMUELAGUILERA7","gender":"0","age":"11","school":"6"},{"start_time":1551901197884,"click_time":1551901198910,"finger_time":1551901198489,"fix_duration":1193.720322935518,"trial":42,"RT":605,"MT":421,"sideResp":2,"stimulus":"img/250/equaldotanddens/R/4_Ratio_250_L_3_R_12.png","xmouse":[805,805,805,805,805,805,805,805,805,805,805,805,805,805,805,805,805,805,805,805,805,805,805,805,805,805,805,805,805,835,942,969,977,986,995,1004,1012,1019,1023,1029,1032,1034,1035,1040,1046,1052,1058,1060,1063,1066,1068,1068],"ymouse":[607,607,607,607,607,607,607,607,607,607,607,607,607,607,607,607,607,607,607,607,607,607,607,607,607,607,607,607,607,582,469,435,420,397,378,357,331,305,285,249,231,226,219,201,188,171,157,149,138,130,108,89],"timestamp_mouse":[10,29,46,65,85,105,125,145,165,185,206,225,245,265,285,306,325,345,365,385,405,426,446,465,485,505,525,545,565,585,605,625,645,664,686,706,725,745,765,785,805,825,845,865,885,905,925,946,965,986,1004,1026],"xSR":741.5,"ySR":573.95,"xT1":424.9,"yT1":0,"xT2":1058.1,"yT2":0,"toosoon":0,"cond_shown":"equaldotanddens","ratio_trial":250,"smaller_num":"3","larger_num":"12","correct_side":2,"subjID":"SAMUELAGUILERA7","gender":"0","age":"11","school":"6"},{"start_time":1551901200001,"click_time":1551901201289,"finger_time":1551901200689,"fix_duration":250,"trial":43,"RT":688,"MT":600,"sideResp":2,"stimulus":"img/250/equaldotsize/R/12_Ratio_250_L_5_R_20.png","xmouse":[806,806,806,806,806,806,806,806,806,806,806,806,806,806,806,806,806,806,806,806,806,806,806,806,806,806,806,806,806,806,806,806,806,810,826,839,846,859,870,882,895,903,916,919,921,923,926,939,953,968,981,988,998,1000,1003,1007,1010,1017,1020,1024,1028,1034,1052,1056,1062],"ymouse":[619,619,619,619,619,619,619,619,619,619,619,619,619,619,619,619,619,619,619,619,619,619,619,619,619,619,619,619,619,619,619,619,619,599,542,501,476,440,421,397,368,339,292,284,280,276,273,254,234,213,196,188,175,170,161,152,146,135,131,125,120,114,93,88,81],"timestamp_mouse":[17,40,47,68,88,109,128,148,168,188,209,228,248,269,288,309,328,348,368,389,408,428,448,468,489,509,528,549,568,588,608,628,648,668,688,708,728,748,767,788,808,828,848,868,888,908,928,948,967,988,1007,1028,1048,1068,1088,1109,1128,1148,1167,1189,1209,1228,1249,1268,1288],"xSR":741.5,"ySR":573.95,"xT1":424.9,"yT1":0,"xT2":1058.1,"yT2":0,"toosoon":0,"cond_shown":"equaldotsize","ratio_trial":250,"smaller_num":"5","larger_num":"20","correct_side":2,"subjID":"SAMUELAGUILERA7","gender":"0","age":"11","school":"6"},{"start_time":1551901203112,"click_time":1551901204169,"finger_time":1551901203849,"fix_duration":1021.8308743062094,"trial":44,"RT":737,"MT":320,"sideResp":2,"stimulus":"img/250/equaldotsize/R/11_Ratio_250_L_3_R_12.png","xmouse":[809,809,809,809,809,809,809,809,809,809,809,809,809,809,809,809,809,809,809,809,809,809,809,809,809,809,809,809,809,809,809,809,809,809,816,833,893,900,904,910,919,943,956,968,979,988,1002,1008,1014,1025,1035,1056,1063],"ymouse":[638,638,638,638,638,638,638,638,638,638,638,638,638,638,638,638,638,638,638,638,638,638,638,638,638,638,638,638,638,638,638,638,638,638,629,600,485,468,455,439,419,362,330,304,279,258,216,197,179,154,133,98,86],"timestamp_mouse":[17,38,57,78,98,118,137,157,178,197,218,237,258,278,297,318,337,357,377,398,418,438,457,478,497,518,538,557,577,598,617,637,658,678,697,717,737,757,777,798,818,837,857,877,897,917,937,958,977,998,1017,1037,1057],"xSR":741.5,"ySR":573.95,"xT1":424.9,"yT1":0,"xT2":1058.1,"yT2":0,"toosoon":0,"cond_shown":"equaldotsize","ratio_trial":250,"smaller_num":"3","larger_num":"12","correct_side":2,"subjID":"SAMUELAGUILERA7","gender":"0","age":"11","school":"6"},{"start_time":1551901205921,"click_time":1551901207409,"finger_time":1551901206589,"fix_duration":250,"trial":45,"RT":668,"MT":820,"sideResp":2,"stimulus":"img/500/equaldotsize/R/1_Ratio_500_L_9_R_18.png","xmouse":[799,799,799,799,799,799,799,799,799,799,799,799,799,799,799,799,799,799,799,799,799,799,799,799,799,799,799,799,799,799,799,800,833,885,948,1015,1081,1164,1172,1177,1178,1180,1179,1174,1167,1158,1130,1123,1121,1120,1118,1114,1109,1105,1098,1088,1080,1080,1079,1079,1079,1079,1079,1079,1079,1079,1081,1084,1086,1087,1087,1088,1089,1091,1093],"ymouse":[628,628,628,628,628,628,628,628,628,628,628,628,628,628,628,628,628,628,628,628,628,628,628,628,628,628,628,628,628,628,628,626,601,564,521,481,442,381,367,358,352,339,334,326,319,310,294,288,285,277,265,232,211,193,177,159,149,149,146,144,142,140,138,136,133,130,125,120,116,115,114,111,109,104,99],"timestamp_mouse":[14,37,48,68,88,109,128,149,168,188,209,229,248,269,288,308,328,349,368,388,408,428,449,468,488,508,529,548,568,589,609,629,648,668,688,709,728,748,768,788,808,828,849,869,888,908,928,948,968,988,1008,1028,1050,1068,1089,1109,1128,1148,1168,1188,1209,1228,1248,1269,1288,1308,1328,1348,1368,1389,1408,1428,1448,1468,1488],"xSR":741.5,"ySR":573.95,"xT1":424.9,"yT1":0,"xT2":1058.1,"yT2":0,"toosoon":0,"cond_shown":"equaldotsize","ratio_trial":500,"smaller_num":"9","larger_num":"18","correct_side":2,"subjID":"SAMUELAGUILERA7","gender":"0","age":"11","school":"6"},{"start_time":1551901209946,"click_time":1551901211249,"finger_time":1551901210689,"fix_duration":295.0654508942219,"trial":46,"RT":743,"MT":560,"sideResp":2,"stimulus":"img/750/equaldotsize/R/4_Ratio_750_L_15_R_20.png","xmouse":[788,788,788,788,788,788,788,788,788,788,788,788,788,788,788,788,788,788,788,788,788,788,788,788,788,788,788,788,788,788,788,788,788,788,788,788,793,805,824,851,925,956,977,989,996,999,1002,1003,1005,1007,1009,1009,1009,1009,1009,1009,1014,1017,1019,1020,1023,1024,1027,1033,1045,1086],"ymouse":[600,600,600,600,600,600,600,600,600,600,600,600,600,600,600,600,600,600,600,600,600,600,600,600,600,600,600,600,600,600,600,600,600,600,600,600,589,526,461,389,222,149,93,56,33,24,15,13,9,5,1,1,1,1,1,1,5,8,10,11,12,14,15,19,26,53],"timestamp_mouse":[8,23,48,64,83,103,123,143,163,183,203,223,243,263,283,305,324,343,364,383,404,424,444,464,484,504,524,543,564,584,603,623,643,663,683,702,723,743,762,783,803,823,843,863,883,903,923,943,964,984,1003,1023,1044,1063,1083,1104,1124,1142,1162,1183,1203,1223,1243,1264,1283,1303],"xSR":741.5,"ySR":573.95,"xT1":424.9,"yT1":0,"xT2":1058.1,"yT2":0,"toosoon":0,"cond_shown":"equaldotsize","ratio_trial":750,"smaller_num":"15","larger_num":"20","correct_side":2,"subjID":"SAMUELAGUILERA7","gender":"0","age":"11","school":"6"},{"start_time":1551901213005,"click_time":1551901214249,"finger_time":1551901213589,"fix_duration":414.5113424476464,"trial":47,"RT":584,"MT":660,"sideResp":2,"stimulus":"img/900/equaldotsize/L/1_Ratio_900_L_10_R_9.png","xmouse":[746,746,746,746,746,746,746,746,746,746,746,746,746,746,746,746,746,746,746,746,746,746,746,746,746,746,746,746,746,740,729,708,678,670,662,660,660,660,660,660,660,660,660,662,671,685,707,785,837,882,902,912,929,949,973,1007,1029,1046,1047,1048,1048,1048,1063],"ymouse":[627,627,627,627,627,627,627,627,627,627,627,627,627,627,627,627,627,627,627,627,627,627,627,627,627,627,627,627,627,588,550,499,436,415,396,386,384,383,382,382,382,382,382,380,368,350,333,280,245,220,208,201,187,174,156,133,116,102,98,97,97,95,75],"timestamp_mouse":[15,25,44,64,84,104,125,144,165,184,205,224,245,265,285,305,325,345,364,385,405,425,444,465,485,504,525,544,564,584,604,624,644,664,684,704,724,743,765,784,804,824,844,865,884,905,924,944,964,984,1004,1025,1044,1064,1084,1105,1124,1144,1165,1185,1203,1224,1244],"xSR":741.5,"ySR":573.95,"xT1":424.9,"yT1":0,"xT2":1058.1,"yT2":0,"toosoon":0,"cond_shown":"equaldotsize","ratio_trial":900,"smaller_num":"9","larger_num":"10","correct_side":1,"subjID":"SAMUELAGUILERA7","gender":"0","age":"11","school":"6"},{"start_time":1551901216793,"click_time":1551901217829,"finger_time":1551901217449,"fix_duration":263.96940137514036,"trial":48,"RT":656,"MT":380,"sideResp":1,"stimulus":"img/750/randomdotsizeEA/R/7_Ratio_750_L_3_R_4.png","xmouse":[812,812,812,812,812,812,812,812,812,812,812,812,812,812,812,812,812,812,812,812,812,812,812,812,812,812,812,812,812,812,812,803,715,667,631,609,592,578,557,554,554,554,554,554,552,546,543,536,533,529,525,523],"ymouse":[620,620,620,620,620,620,620,620,620,620,620,620,620,620,620,620,620,620,620,620,620,620,620,620,620,620,620,620,620,620,620,591,431,363,304,258,217,183,138,134,134,134,134,134,127,119,114,106,102,99,96,95],"timestamp_mouse":[17,36,57,76,96,116,136,157,177,196,216,236,257,277,297,317,336,356,376,397,416,437,456,477,496,516,536,557,577,596,615,637,656,676,696,716,736,756,776,796,817,836,856,876,896,916,936,956,977,996,1016,1036],"xSR":741.5,"ySR":573.95,"xT1":424.9,"yT1":0,"xT2":1058.1,"yT2":0,"toosoon":0,"cond_shown":"randomdotsizeEA","ratio_trial":750,"smaller_num":"3","larger_num":"4","correct_side":2,"subjID":"SAMUELAGUILERA7","gender":"0","age":"11","school":"6"},{"start_time":1551901218866,"click_time":1551901220049,"finger_time":1551901219589,"fix_duration":314.0724714553742,"trial":49,"RT":723,"MT":460,"sideResp":1,"stimulus":"img/250/equaldotanddens/L/2_Ratio_250_L_16_R_4.png","xmouse":[826,826,826,826,826,826,826,826,826,826,826,826,826,826,826,826,826,826,826,826,826,826,826,826,826,826,826,826,826,826,826,826,826,826,824,818,807,796,780,748,734,719,704,687,627,589,553,521,498,482,479,477,474,469,457,455,454,453,453,453],"ymouse":[619,619,619,619,619,619,619,619,619,619,619,619,619,619,619,619,619,619,619,619,619,619,619,619,619,619,619,619,619,619,619,619,619,619,618,595,564,524,474,383,349,320,299,280,236,217,206,198,191,182,179,177,171,160,133,123,117,114,108,93],"timestamp_mouse":[10,33,44,63,83,104,124,143,163,183,202,224,244,264,284,304,323,343,363,383,404,423,443,463,483,504,523,543,563,583,603,623,643,663,683,702,723,743,764,783,804,823,844,863,883,903,923,943,964,983,1003,1023,1044,1064,1084,1103,1123,1144,1164,1183],"xSR":741.5,"ySR":573.95,"xT1":424.9,"yT1":0,"xT2":1058.1,"yT2":0,"toosoon":0,"cond_shown":"equaldotanddens","ratio_trial":250,"smaller_num":"4","larger_num":"16","correct_side":1,"subjID":"SAMUELAGUILERA7","gender":"0","age":"11","school":"6"},{"start_time":1551901221950,"click_time":1551901223349,"finger_time":1551901222810,"fix_duration":1180.6677848257757,"trial":50,"RT":860,"MT":539,"sideResp":2,"stimulus":"img/750/equaldotsize/R/3_Ratio_750_L_15_R_20.png","xmouse":[820,820,820,820,820,820,820,820,820,820,820,820,820,820,820,820,820,820,820,820,820,820,820,820,820,820,820,820,820,820,820,820,820,820,820,820,820,820,820,820,821,839,862,907,987,1051,1084,1114,1135,1156,1202,1227,1244,1250,1251,1249,1244,1239,1234,1216,1208,1201,1193,1185,1174,1169,1167,1164,1161,1157],"ymouse":[636,636,636,636,636,636,636,636,636,636,636,636,636,636,636,636,636,636,636,636,636,636,636,636,636,636,636,636,636,636,636,636,636,636,636,636,636,636,636,636,636,624,605,565,501,465,447,429,413,394,339,301,269,249,203,192,185,179,173,154,144,136,126,117,104,97,96,94,92,89],"timestamp_mouse":[31,40,60,80,99,120,140,159,180,199,220,239,259,280,300,320,340,359,379,399,419,439,459,479,499,519,539,559,579,600,619,639,659,679,700,720,739,759,780,800,820,839,860,879,899,919,939,959,979,999,1020,1039,1059,1079,1099,1119,1139,1160,1179,1198,1220,1239,1259,1279,1299,1319,1339,1359,1379,1399],"xSR":741.5,"ySR":573.95,"xT1":424.9,"yT1":0,"xT2":1058.1,"yT2":0,"toosoon":0,"cond_shown":"equaldotsize","ratio_trial":750,"smaller_num":"15","larger_num":"20","correct_side":2,"subjID":"SAMUELAGUILERA7","gender":"0","age":"11","school":"6"},{"start_time":1551901225712,"click_time":1551901226749,"finger_time":1551901226409,"fix_duration":1462.559227034305,"trial":51,"RT":697,"MT":340,"sideResp":2,"stimulus":"img/750/equaldotanddens/R/5_Ratio_750_L_15_R_20.png","xmouse":[788,788,788,788,788,788,788,788,788,788,788,788,788,788,788,788,788,788,788,788,788,788,788,788,788,788,788,788,788,788,788,788,803,818,850,874,906,929,948,969,990,1015,1020,1024,1026,1032,1036,1039,1039,1042,1048,1060],"ymouse":[644,644,644,644,644,644,644,644,644,644,644,644,644,644,644,644,644,644,644,644,644,644,644,644,644,644,644,644,644,644,644,644,625,603,557,517,420,311,245,180,126,69,60,56,55,55,55,55,55,53,53,53],"timestamp_mouse":[17,37,58,77,97,117,138,157,177,197,217,238,258,277,297,317,337,358,377,398,417,437,457,478,497,518,537,557,577,597,618,638,657,677,697,718,737,757,777,798,817,837,858,878,897,917,937,958,977,997,1017,1037],"xSR":741.5,"ySR":573.95,"xT1":424.9,"yT1":0,"xT2":1058.1,"yT2":0,"toosoon":0,"cond_shown":"equaldotanddens","ratio_trial":750,"smaller_num":"15","larger_num":"20","correct_side":2,"subjID":"SAMUELAGUILERA7","gender":"0","age":"11","school":"6"},{"start_time":1551901228040,"click_time":1551901229109,"finger_time":1551901228688,"fix_duration":250,"trial":52,"RT":648,"MT":421,"sideResp":2,"stimulus":"img/500/equaldotanddens/R/6_Ratio_500_L_9_R_18.png","xmouse":[766,766,766,766,766,766,766,766,766,766,766,766,766,766,766,766,766,766,766,766,766,766,766,766,766,766,766,766,766,766,766,779,814,847,893,1001,1027,1042,1050,1051,1051,1051,1051,1051,1051,1051,1051,1055,1060,1069,1100,1109,1117,1121],"ymouse":[586,586,586,586,586,586,586,586,586,586,586,586,586,586,586,586,586,586,586,586,586,586,586,586,586,586,586,586,586,586,586,579,550,512,460,367,339,317,297,281,250,233,222,211,203,190,182,174,166,155,123,114,102,90],"timestamp_mouse":[10,38,49,71,89,109,129,150,169,190,209,229,249,270,290,309,329,349,369,389,409,430,449,469,489,510,530,550,570,589,610,630,648,670,689,709,729,749,770,790,809,830,849,871,889,909,929,948,969,989,1009,1030,1049,1069],"xSR":741.5,"ySR":573.95,"xT1":424.9,"yT1":0,"xT2":1058.1,"yT2":0,"toosoon":0,"cond_shown":"equaldotanddens","ratio_trial":500,"smaller_num":"9","larger_num":"18","correct_side":2,"subjID":"SAMUELAGUILERA7","gender":"0","age":"11","school":"6"},{"start_time":1551901231275,"click_time":1551901232689,"finger_time":1551901232190,"fix_duration":1164.5611873429211,"trial":53,"RT":915,"MT":499,"sideResp":1,"stimulus":"img/750/equaldotanddens/R/12_Ratio_750_L_3_R_4.png","xmouse":[800,800,800,800,800,800,800,800,800,800,800,800,800,800,800,800,800,800,800,800,800,800,800,800,800,800,800,800,800,800,800,800,800,800,800,800,800,800,800,800,800,800,800,807,817,824,830,833,834,821,811,806,806,799,793,781,765,746,719,633,608,590,577,555,533,507,492,481,467,463,458],"ymouse":[634,634,634,634,634,634,634,634,634,634,634,634,634,634,634,634,634,634,634,634,634,634,634,634,634,634,634,634,634,634,634,634,634,634,634,634,634,634,634,634,634,634,634,606,574,552,534,514,469,438,424,420,419,419,419,419,418,413,398,340,321,306,294,264,236,207,183,168,145,121,96],"timestamp_mouse":[15,39,54,75,94,114,134,154,174,194,215,234,255,275,294,314,334,354,374,394,414,434,454,474,494,514,534,555,574,595,615,634,654,675,695,714,734,754,774,795,815,834,854,874,894,915,934,955,974,995,1014,1034,1054,1074,1095,1114,1134,1154,1174,1194,1214,1234,1254,1274,1295,1314,1334,1354,1374,1394,1414],"xSR":741.5,"ySR":573.95,"xT1":424.9,"yT1":0,"xT2":1058.1,"yT2":0,"toosoon":0,"cond_shown":"equaldotanddens","ratio_trial":750,"smaller_num":"3","larger_num":"4","correct_side":2,"subjID":"SAMUELAGUILERA7","gender":"0","age":"11","school":"6"},{"start_time":1551901234449,"click_time":1551901236029,"finger_time":1551901235409,"fix_duration":779.7083799870403,"trial":54,"RT":960,"MT":620,"sideResp":2,"stimulus":"img/250/equaldotanddens/R/13_Ratio_250_L_2_R_8.png","xmouse":[796,796,796,796,796,796,796,796,796,796,796,796,796,796,796,796,796,796,796,796,796,796,796,796,796,796,796,796,796,796,796,796,796,796,796,796,796,796,796,796,796,796,796,796,796,796,796,829,867,942,1083,1202,1273,1314,1338,1371,1382,1391,1396,1398,1399,1397,1391,1378,1359,1322,1309,1303,1301,1301,1295,1286,1274,1261,1248,1240,1233,1211,1173,1131],"ymouse":[620,620,620,620,620,620,620,620,620,620,620,620,620,620,620,620,620,620,620,620,620,620,620,620,620,620,620,620,620,620,620,620,620,620,620,620,620,620,620,620,620,620,620,620,620,620,620,592,565,504,395,310,260,226,198,152,133,119,108,101,90,87,85,85,85,95,100,101,101,101,101,98,96,94,92,90,88,85,85,87],"timestamp_mouse":[8,31,40,60,80,100,120,140,160,180,200,220,240,260,280,300,320,340,360,380,400,420,440,461,480,500,520,540,560,580,600,620,640,660,680,700,720,740,760,780,800,820,840,860,880,901,920,941,960,980,1000,1020,1039,1061,1080,1100,1120,1140,1160,1180,1200,1220,1240,1261,1280,1300,1321,1340,1361,1380,1399,1420,1440,1460,1480,1500,1520,1540,1560,1580],"xSR":741.5,"ySR":573.95,"xT1":424.9,"yT1":0,"xT2":1058.1,"yT2":0,"toosoon":0,"cond_shown":"equaldotanddens","ratio_trial":250,"smaller_num":"2","larger_num":"8","correct_side":2,"subjID":"SAMUELAGUILERA7","gender":"0","age":"11","school":"6"},{"start_time":1551901239236,"click_time":1551901240189,"finger_time":1551901239869,"fix_duration":1346.604224770045,"trial":55,"RT":633,"MT":320,"sideResp":2,"stimulus":"img/900/equaldotsize/R/7_Ratio_900_L_9_R_10.png","xmouse":[756,756,756,756,756,756,756,756,756,756,756,756,756,756,756,756,756,756,756,756,756,756,767,776,778,778,778,779,780,784,810,856,902,944,983,1024,1038,1047,1053,1055,1059,1060,1061,1061,1061,1061,1061,1061],"ymouse":[614,614,614,614,614,614,614,614,614,614,614,614,614,614,614,614,614,614,614,614,614,613,616,619,620,620,620,620,620,620,597,519,449,382,322,253,229,205,185,168,138,123,107,104,103,103,102,99],"timestamp_mouse":[14,35,54,73,93,113,133,153,173,193,213,233,253,273,293,314,333,353,373,393,413,433,453,473,494,513,534,553,573,593,613,633,653,673,693,712,733,753,773,793,813,833,853,873,893,914,933,953],"xSR":741.5,"ySR":573.95,"xT1":424.9,"yT1":0,"xT2":1058.1,"yT2":0,"toosoon":0,"cond_shown":"equaldotsize","ratio_trial":900,"smaller_num":"9","larger_num":"10","correct_side":2,"subjID":"SAMUELAGUILERA7","gender":"0","age":"11","school":"6"},{"start_time":1551901241890,"click_time":1551901242750,"finger_time":1551901242450,"fix_duration":759.7662592855515,"trial":56,"RT":560,"MT":300,"sideResp":2,"stimulus":"img/250/equaldotsize/R/9_Ratio_250_L_3_R_12.png","xmouse":[800,800,800,800,800,800,800,800,800,800,800,800,800,800,800,800,800,800,800,800,800,800,800,800,800,798,797,800,858,916,946,962,975,996,1007,1017,1026,1032,1050,1055,1056,1056,1057,1066],"ymouse":[639,639,639,639,639,639,639,639,639,639,639,639,639,639,639,639,639,639,639,639,639,639,639,639,639,628,613,579,471,372,307,250,186,95,69,46,29,10,0,0,0,0,0,10],"timestamp_mouse":[1,19,39,59,79,99,119,139,159,179,199,219,239,259,279,300,320,339,359,380,400,419,440,459,480,500,519,539,560,580,599,619,639,659,680,699,720,739,758,779,799,819,840,860],"xSR":741.5,"ySR":573.95,"xT1":424.9,"yT1":0,"xT2":1058.1,"yT2":0,"toosoon":0,"cond_shown":"equaldotsize","ratio_trial":250,"smaller_num":"3","larger_num":"12","correct_side":2,"subjID":"SAMUELAGUILERA7","gender":"0","age":"11","school":"6"},{"start_time":1551901245321,"click_time":1551901246950,"finger_time":1551901246529,"fix_duration":250,"trial":57,"RT":1208,"MT":421,"sideResp":2,"stimulus":"img/250/equaldotsize/L/14_Ratio_250_L_12_R_3.png","xmouse":[757,757,757,757,757,757,757,757,757,757,757,757,757,757,757,757,757,757,757,757,757,757,757,757,757,757,757,757,757,757,757,757,757,757,757,757,757,757,757,757,757,757,757,757,757,757,757,757,757,757,757,757,757,757,757,757,757,757,757,743,723,668,654,650,650,649,649,649,649,650,654,666,716,762,822,890,1037,1070,1090,1095,1097,1106],"ymouse":[628,628,628,628,628,628,628,628,628,628,628,628,628,628,628,628,628,628,628,628,628,628,628,628,628,628,628,628,628,628,628,628,628,628,628,628,628,628,628,628,628,628,628,628,628,628,628,628,628,628,628,628,628,628,628,628,628,628,628,593,560,492,481,478,477,475,471,468,465,457,439,399,261,181,89,0,0,0,0,0,0,13],"timestamp_mouse":[10,34,48,68,88,108,128,148,169,188,209,228,248,268,288,308,328,349,368,388,409,428,449,468,488,508,529,548,568,588,608,629,648,669,689,708,729,748,768,789,809,828,848,868,889,908,928,948,968,988,1009,1029,1048,1069,1088,1109,1128,1149,1167,1188,1208,1228,1247,1268,1289,1308,1328,1348,1368,1388,1409,1428,1448,1468,1489,1508,1529,1548,1569,1589,1608,1628],"xSR":741.5,"ySR":573.95,"xT1":424.9,"yT1":0,"xT2":1058.1,"yT2":0,"toosoon":0,"cond_shown":"equaldotsize","ratio_trial":250,"smaller_num":"3","larger_num":"12","correct_side":1,"subjID":"SAMUELAGUILERA7","gender":"0","age":"11","school":"6"},{"start_time":1551901248462,"click_time":1551901249349,"finger_time":1551901249230,"fix_duration":612.6560992185823,"trial":58,"RT":768,"MT":119,"sideResp":1,"stimulus":"img/900/randomdotsizeEA/L/8_Ratio_900_L_20_R_18.png","xmouse":[774,774,774,774,774,774,774,774,774,774,774,774,774,774,774,774,774,774,774,774,774,774,774,774,774,774,774,774,774,774,774,774,774,774,774,774,774,771,754,680,631,604,586,564,496],"ymouse":[606,606,606,606,606,606,606,606,606,606,606,606,606,606,606,606,606,606,606,606,606,606,606,606,606,606,606,606,606,606,606,606,606,606,606,606,606,593,531,330,223,177,151,123,40],"timestamp_mouse":[14,33,47,68,87,108,128,147,168,188,207,228,248,268,287,307,328,347,367,387,408,428,447,467,487,507,528,547,568,588,607,627,647,668,688,708,728,747,768,787,807,827,848,867,887],"xSR":741.5,"ySR":573.95,"xT1":424.9,"yT1":0,"xT2":1058.1,"yT2":0,"toosoon":0,"cond_shown":"randomdotsizeEA","ratio_trial":900,"smaller_num":"18","larger_num":"20","correct_side":1,"subjID":"SAMUELAGUILERA7","gender":"0","age":"11","school":"6"},{"start_time":1551901251569,"click_time":1551901252589,"finger_time":1551901252349,"fix_duration":1418.3059434224083,"trial":59,"RT":780,"MT":240,"sideResp":1,"stimulus":"img/250/randomdotsizeEA/L/15_Ratio_250_L_12_R_3.png","xmouse":[785,785,785,785,785,785,785,785,785,785,785,785,785,785,785,785,785,785,785,785,785,785,785,785,785,785,785,785,785,785,785,785,785,785,785,785,785,785,783,724,662,594,541,512,500,493,493,492,492,492,491,491],"ymouse":[645,645,645,645,645,645,645,645,645,645,645,645,645,645,645,645,645,645,645,645,645,645,645,645,645,645,645,645,645,645,645,645,645,645,645,645,645,645,626,459,365,277,213,167,139,112,107,104,103,102,100,97],"timestamp_mouse":[8,34,40,61,80,101,121,141,160,180,200,221,241,261,280,301,320,340,360,381,400,421,441,460,480,500,520,540,560,581,600,621,640,660,680,701,720,740,760,780,801,820,840,860,880,900,920,940,961,980,1000,1020],"xSR":741.5,"ySR":573.95,"xT1":424.9,"yT1":0,"xT2":1058.1,"yT2":0,"toosoon":0,"cond_shown":"randomdotsizeEA","ratio_trial":250,"smaller_num":"3","larger_num":"12","correct_side":1,"subjID":"SAMUELAGUILERA7","gender":"0","age":"11","school":"6"},{"start_time":1551901255000,"click_time":1551901256449,"finger_time":1551901255809,"fix_duration":250,"trial":60,"RT":809,"MT":640,"sideResp":1,"stimulus":"img/750/randomdotsizeEA/R/2_Ratio_750_L_6_R_8.png","xmouse":[825,825,825,825,825,825,825,825,825,825,825,825,825,825,825,825,825,825,825,825,825,825,825,825,825,825,825,825,825,825,825,825,825,825,825,825,825,825,825,829,858,895,962,981,985,985,985,985,982,982,979,968,893,840,790,750,697,565,541,538,534,534,534,534,533,531,530,529,529,529,527,527,517],"ymouse":[655,655,655,655,655,655,655,655,655,655,655,655,655,655,655,655,655,655,655,655,655,655,655,655,655,655,655,655,655,655,655,655,655,655,655,655,655,655,655,628,550,479,396,371,363,357,352,348,342,341,339,334,294,249,203,160,121,51,46,48,57,58,58,58,61,68,73,76,76,76,76,76,70],"timestamp_mouse":[9,35,50,69,89,109,130,149,170,190,209,229,249,269,289,309,330,350,369,390,410,429,449,470,489,510,530,549,569,589,609,629,650,670,689,709,730,749,769,789,809,830,848,869,889,909,929,949,969,989,1009,1029,1049,1069,1089,1110,1129,1149,1170,1189,1209,1230,1250,1269,1288,1309,1329,1350,1370,1388,1409,1429,1449],"xSR":741.5,"ySR":573.95,"xT1":424.9,"yT1":0,"xT2":1058.1,"yT2":0,"toosoon":0,"cond_shown":"randomdotsizeEA","ratio_trial":750,"smaller_num":"6","larger_num":"8","correct_side":2,"subjID":"SAMUELAGUILERA7","gender":"0","age":"11","school":"6"},{"start_time":1551901258271,"click_time":1551901259168,"finger_time":1551901258849,"fix_duration":741.855200649857,"trial":61,"RT":578,"MT":319,"sideResp":1,"stimulus":"img/900/randomdotsizeEA/R/5_Ratio_900_L_9_R_10.png","xmouse":[774,774,774,774,774,774,774,774,774,774,774,774,774,774,774,774,774,774,774,775,777,781,784,784,784,784,784,784,784,763,722,657,613,555,545,540,538,538,538,538,538,537,537,528,519],"ymouse":[590,590,590,590,590,590,590,590,590,590,590,590,590,590,590,590,590,590,590,590,588,584,581,580,580,580,580,580,573,519,427,289,187,88,67,57,54,54,54,54,54,54,54,54,54],"timestamp_mouse":[18,39,58,77,99,119,138,157,178,198,219,238,258,278,299,318,339,358,378,399,418,438,459,478,498,519,537,559,578,598,618,638,658,678,698,718,738,759,778,798,818,837,858,878,897],"xSR":741.5,"ySR":573.95,"xT1":424.9,"yT1":0,"xT2":1058.1,"yT2":0,"toosoon":0,"cond_shown":"randomdotsizeEA","ratio_trial":900,"smaller_num":"9","larger_num":"10","correct_side":2,"subjID":"SAMUELAGUILERA7","gender":"0","age":"11","school":"6"},{"start_time":1551901260140,"click_time":1551901261009,"finger_time":1551901260648,"fix_duration":250,"trial":62,"RT":508,"MT":361,"sideResp":1,"stimulus":"img/500/equaldotanddens/L/10_Ratio_500_L_4_R_2.png","xmouse":[786,786,788,788,788,788,788,788,788,788,788,788,788,788,788,788,788,788,788,788,788,789,789,789,788,780,776,772,761,730,607,568,557,556,556,556,552,550,548,546,538,529,515,502],"ymouse":[635,635,635,635,635,635,635,635,635,635,635,635,635,635,635,635,635,635,635,635,635,634,630,612,592,541,513,491,463,402,238,192,181,181,181,179,170,167,162,157,136,123,108,97],"timestamp_mouse":[9,29,49,69,90,110,129,150,169,190,210,229,249,268,290,310,329,350,369,389,409,429,450,469,490,508,529,549,569,589,609,629,649,669,690,708,728,749,770,789,809,830,849,869],"xSR":741.5,"ySR":573.95,"xT1":424.9,"yT1":0,"xT2":1058.1,"yT2":0,"toosoon":0,"cond_shown":"equaldotanddens","ratio_trial":500,"smaller_num":"2","larger_num":"4","correct_side":1,"subjID":"SAMUELAGUILERA7","gender":"0","age":"11","school":"6"},{"start_time":1551901263549,"click_time":1551901264389,"finger_time":1551901264049,"fix_duration":1477.4053652698062,"trial":63,"RT":500,"MT":340,"sideResp":2,"stimulus":"img/750/randomdotsizeEA/R/3_Ratio_750_L_15_R_20.png","xmouse":[784,784,784,784,784,784,784,784,784,784,784,784,784,784,784,784,784,784,784,784,784,784,784,796,809,858,879,896,911,926,969,984,993,999,1003,1014,1030,1043,1051,1054,1054,1057,1062],"ymouse":[611,611,611,611,611,611,611,611,611,611,611,611,611,611,611,611,611,611,611,611,611,611,611,603,595,561,544,524,504,478,404,377,361,350,340,277,167,131,121,120,120,113,95],"timestamp_mouse":[8,32,40,60,80,100,120,140,161,179,201,220,239,261,281,300,319,340,361,381,401,420,441,460,480,500,521,540,560,580,600,620,640,660,681,699,719,739,760,781,799,820,840],"xSR":741.5,"ySR":573.95,"xT1":424.9,"yT1":0,"xT2":1058.1,"yT2":0,"toosoon":0,"cond_shown":"randomdotsizeEA","ratio_trial":750,"smaller_num":"15","larger_num":"20","correct_side":2,"subjID":"SAMUELAGUILERA7","gender":"0","age":"11","school":"6"},{"start_time":1551901265434,"click_time":1551901266289,"finger_time":1551901265989,"fix_duration":264.9784623314395,"trial":64,"RT":555,"MT":300,"sideResp":2,"stimulus":"img/500/equaldotanddens/R/9_Ratio_500_L_2_R_4.png","xmouse":[817,817,817,817,817,817,817,817,817,817,817,817,817,817,817,817,817,817,817,817,817,817,817,817,817,818,841,866,895,934,1058,1114,1129,1136,1138,1139,1139,1138,1135,1132,1126,1121,1120],"ymouse":[603,603,603,603,603,603,603,603,603,603,603,603,603,603,603,603,603,603,603,603,603,603,603,603,603,600,579,550,511,458,313,254,235,220,208,195,190,185,179,167,132,108,99],"timestamp_mouse":[28,36,56,76,95,115,134,156,176,195,215,235,255,275,295,315,336,355,375,395,415,435,455,475,495,516,535,555,575,596,614,636,654,675,695,715,735,755,775,795,814,835,854],"xSR":741.5,"ySR":573.95,"xT1":424.9,"yT1":0,"xT2":1058.1,"yT2":0,"toosoon":0,"cond_shown":"equaldotanddens","ratio_trial":500,"smaller_num":"2","larger_num":"4","correct_side":2,"subjID":"SAMUELAGUILERA7","gender":"0","age":"11","school":"6"},{"start_time":1551901268107,"click_time":1551901269109,"finger_time":1551901268629,"fix_duration":737.113000464953,"trial":65,"RT":522,"MT":480,"sideResp":2,"stimulus":"img/500/equaldotsize/R/2_Ratio_500_L_3_R_6.png","xmouse":[793,793,793,793,793,793,793,793,793,793,793,793,793,793,793,793,793,793,793,793,793,793,793,793,804,816,839,876,917,948,979,999,1024,1035,1043,1049,1050,1056,1064,1077,1093,1102,1109,1111,1111,1113,1114,1119,1121,1122,1122],"ymouse":[629,629,629,629,629,629,629,629,629,629,629,629,629,629,629,629,629,629,629,629,629,629,629,629,611,592,561,507,423,350,280,234,178,161,149,143,142,139,135,129,125,125,124,122,121,118,116,110,106,101,94],"timestamp_mouse":[10,22,42,62,83,102,121,143,162,182,202,222,241,262,282,302,323,341,362,383,402,423,441,462,482,502,522,542,562,582,602,622,642,662,682,702,723,742,762,782,802,822,842,863,882,902,922,941,962,981,1002],"xSR":741.5,"ySR":573.95,"xT1":424.9,"yT1":0,"xT2":1058.1,"yT2":0,"toosoon":0,"cond_shown":"equaldotsize","ratio_trial":500,"smaller_num":"3","larger_num":"6","correct_side":2,"subjID":"SAMUELAGUILERA7","gender":"0","age":"11","school":"6"},{"start_time":1551901270021,"click_time":1551901270649,"finger_time":1551901270510,"fix_duration":250,"trial":66,"RT":489,"MT":139,"sideResp":1,"stimulus":"img/250/equaldotanddens/L/3_Ratio_250_L_8_R_2.png","xmouse":[799,799,799,799,799,799,799,799,799,799,799,799,799,799,799,799,799,799,799,799,799,799,784,772,759,732,621,568,538,522,513,511],"ymouse":[626,626,626,626,626,626,626,626,626,626,626,626,626,626,626,626,626,626,626,626,626,626,602,582,564,533,392,308,236,171,114,77],"timestamp_mouse":[8,27,48,68,88,109,128,148,168,188,208,228,248,268,288,308,328,348,368,388,408,428,448,468,489,508,529,548,568,588,609,628],"xSR":741.5,"ySR":573.95,"xT1":424.9,"yT1":0,"xT2":1058.1,"yT2":0,"toosoon":0,"cond_shown":"equaldotanddens","ratio_trial":250,"smaller_num":"2","larger_num":"8","correct_side":1,"subjID":"SAMUELAGUILERA7","gender":"0","age":"11","school":"6"},{"start_time":1551901273965,"click_time":1551901274649,"finger_time":1551901274329,"fix_duration":1114.7267419422851,"trial":67,"RT":364,"MT":320,"sideResp":2,"stimulus":"img/750/equaldotsize/R/4_Ratio_750_L_15_R_20.png","xmouse":[799,799,799,799,799,799,799,799,799,799,799,799,799,799,799,799,800,818,866,942,983,1041,1102,1133,1150,1150,1151,1156,1160,1162,1161,1152,1138,1131,1122],"ymouse":[647,647,647,647,647,647,647,647,647,647,647,647,647,647,647,647,640,625,582,477,424,357,294,255,207,192,176,161,153,145,140,130,119,107,78],"timestamp_mouse":[13,32,45,64,84,104,124,145,164,184,205,224,243,265,285,304,324,345,364,384,404,424,444,464,484,504,523,544,564,584,604,624,644,663,684],"xSR":741.5,"ySR":573.95,"xT1":424.9,"yT1":0,"xT2":1058.1,"yT2":0,"toosoon":0,"cond_shown":"equaldotsize","ratio_trial":750,"smaller_num":"15","larger_num":"20","correct_side":2,"subjID":"SAMUELAGUILERA7","gender":"0","age":"11","school":"6"},{"start_time":1551901276414,"click_time":1551901277509,"finger_time":1551901277009,"fix_duration":1022.5345186682238,"trial":68,"RT":595,"MT":500,"sideResp":2,"stimulus":"img/750/equaldotsize/R/12_Ratio_750_L_3_R_4.png","xmouse":[805,805,805,805,805,805,805,805,805,805,805,805,805,805,805,805,805,805,805,805,805,805,805,805,805,805,805,805,812,845,916,968,982,995,996,992,983,982,982,982,985,1003,1014,1030,1039,1049,1064,1073,1081,1088,1091,1093,1094,1096,1100],"ymouse":[600,600,600,600,600,600,600,600,600,600,600,600,600,600,600,600,600,600,600,600,600,600,600,600,600,600,600,600,596,571,508,436,411,380,364,347,319,306,296,290,280,253,242,233,225,215,186,170,156,145,137,133,126,115,98],"timestamp_mouse":[15,35,56,75,95,115,134,155,176,196,216,235,255,276,295,315,336,355,375,396,415,435,455,475,495,515,535,556,575,595,616,634,655,674,696,715,735