[{"start_time":1551899904147,"click_time":1551899905094,"finger_time":1551899904156,"fix_duration":890.283564503551,"trial":0,"RT":9,"MT":938,"sideResp":2,"stimulus":[],"xmouse":[790,790,790,790,790,790,790,790,790,790,790,790,790,790,790,790,790,790,790,790,790,790,790,790,790,790,790,790,790,790,790,790,790,790,790,806,842,902,1009,1078,1143,1148,1148,1146,1142,1142,1146,1152],"ymouse":[503,503,503,503,503,503,503,503,503,503,503,503,503,503,503,503,503,503,503,503,503,503,503,503,503,503,503,503,503,503,503,503,503,503,503,508,529,537,482,402,234,190,163,146,132,114,102,92],"timestamp_mouse":[9,26,45,66,87,107,127,146,166,187,207,226,247,267,286,306,326,346,366,386,406,426,446,466,486,507,525,546,566,585,606,626,646,666,687,705,725,746,767,786,806,825,846,866,887,906,926,947],"xSR":741.5,"ySR":469.95,"xT1":424.9,"yT1":0,"xT2":1058.1,"yT2":0,"toosoon":0,"cond_shown":"Incongruent","ratio_trial":100,"L_num":9,"L_den":15,"R_num":14,"R_den":28,"correct_side":1,"subjID":"SAMUELAGUILERA7","gender":"0","age":"11","school":"6","test":{"fix_dur":[250,1500],"timestim":1000,"targets_dim":[100,100],"targets_relative_coord":[0.3,0.7],"size_stim":[880,420],"start_dim":[100,100],"size_start":[300,300],"size_fix":60,"samplingrate":20,"img_types":["Congruent","Incongruent"],"ratios":[100,200,300],"rep_conds":19,"nTrials":120,"trials_to_rest":500,"Trials_order":[1,44,78,91,102,8,97,15,109,3,35,31,77,32,61,16,54,48,55,107,47,20,71,12,111,117,73,113,84,81,2,104,18,29,94,26,80,30,75,11,112,88,0,43,108,60,46,4,62,53,42,83,101,59,45,95,93,28,67,110,19,17,76,116,24,90,114,34,63,10,65,87,115,14,69,58,74,22,89,37,66,98,118,39,33,72,40,57,25,41,52,49,6,7,96,38,86,5,79,21,36,56,106,82,13,99,119,92,23,85,103,9,27,100,51,50,105,64,68,70],"cond_shown":["Incongruent","Congruent","Congruent","Incongruent","Congruent","Congruent","Incongruent","Incongruent","Incongruent","Incongruent","Incongruent","Incongruent","Incongruent","Congruent","Incongruent","Congruent","Congruent","Congruent","Incongruent","Incongruent","Incongruent","Congruent","Incongruent","Congruent","Incongruent","Incongruent","Incongruent","Incongruent","Congruent","Incongruent","Congruent","Congruent","Congruent","Incongruent","Congruent","Congruent","Congruent","Congruent","Incongruent","Incongruent","Congruent","Congruent","Congruent","Incongruent","Congruent","Congruent","Congruent","Congruent","Congruent","Incongruent","Congruent","Incongruent","Incongruent","Incongruent","Incongruent","Incongruent","Incongruent","Congruent","Incongruent","Congruent","Incongruent","Incongruent","Congruent","Congruent","Congruent","Congruent","Congruent","Congruent","Incongruent","Congruent","Incongruent","Incongruent","Incongruent","Congruent","Incongruent","Congruent","Congruent","Congruent","Incongruent","Incongruent","Congruent","Congruent","Congruent","Incongruent","Incongruent","Congruent","Congruent","Incongruent","Incongruent","Incongruent","Congruent","Incongruent","Congruent","Incongruent","Congruent","Congruent","Congruent","Incongruent","Incongruent","Incongruent","Congruent","Congruent","Congruent","Congruent","Incongruent","Incongruent","Incongruent","Congruent","Incongruent","Incongruent","Incongruent","Incongruent","Incongruent","Congruent","Incongruent","Congruent","Incongruent","Congruent","Congruent","Congruent"],"ratio_trial":[100,200,100,100,100,200,100,200,100,200,300,100,300,200,100,300,100,100,100,300,300,200,300,100,200,200,100,300,100,200,200,200,100,300,300,200,200,100,200,300,300,300,100,100,100,100,300,300,200,300,100,300,300,300,200,300,200,300,100,200,100,300,300,200,100,100,100,300,200,300,300,200,100,200,200,300,200,300,300,100,100,200,300,200,200,100,300,200,100,300,300,100,100,100,100,200,200,300,100,200,100,200,300,300,100,200,300,200,300,100,100,200,200,300,200,200,200,300,200,300],"left_num":[9,4,8,3,11,14,13,7,9,6,4,9,4,3,9,3,6,8,8,13,4,16,4,2,7,1,9,8,11,7,6,3,7,13,20,12,6,6,7,4,20,11,6,11,9,2,1,8,3,4,7,13,4,4,7,2,4,1,3,15,6,4,2,3,8,3,12,7,3,18,2,14,6,14,1,2,6,8,4,4,9,21,24,4,1,9,1,9,1,3,24,3,9,6,2,16,12,13,6,4,15,21,11,12,17,6,4,9,3,3,2,3,14,1,3,14,9,20,5,1],"right_num":[14,3,2,11,4,6,6,12,6,3,2,6,2,11,6,11,15,2,6,12,2,9,8,6,6,2,13,9,4,14,3,9,9,12,8,6,11,5,14,8,8,2,15,9,8,11,6,1,14,6,15,12,8,2,12,6,1,8,7,4,11,2,10,11,2,4,13,20,11,9,6,12,3,6,2,12,7,1,2,8,8,2,8,1,2,8,11,8,8,4,2,8,8,11,11,9,6,12,3,6,13,2,2,2,10,3,6,13,4,7,8,1,6,11,11,6,8,5,14,6],"left_den":[15,10,16,5,22,28,26,10,18,20,20,18,20,10,18,12,12,16,16,26,20,30,5,5,15,3,15,10,22,10,15,12,14,26,25,20,20,20,10,5,25,22,12,22,15,5,5,16,10,5,14,26,5,20,10,4,30,30,9,25,10,20,20,10,16,20,30,14,4,20,4,30,12,28,3,10,12,16,20,8,15,30,30,30,3,15,5,15,2,6,30,5,15,10,5,30,20,26,12,5,25,30,22,24,30,20,5,30,6,9,4,10,30,5,4,28,15,25,10,5],"right_den":[28,15,5,22,10,20,10,24,10,6,4,10,4,22,10,20,25,5,10,15,4,27,16,12,9,15,26,18,10,28,15,20,15,15,16,15,22,25,28,16,16,10,25,15,16,22,12,5,28,12,25,15,16,4,24,30,3,24,30,10,22,4,25,22,5,16,26,25,20,15,30,18,5,20,15,24,10,5,4,20,16,4,16,3,15,16,22,10,20,20,4,16,16,22,22,27,15,15,5,10,26,4,10,10,15,6,12,26,20,30,20,2,9,22,20,20,10,10,20,12],"correct_side":[1,1,1,1,1,1,2,1,2,2,2,2,2,2,2,2,2,1,2,2,2,1,1,2,2,1,1,1,1,1,1,2,2,2,1,1,2,1,1,1,1,1,2,2,1,2,2,1,2,1,2,2,1,2,1,1,2,2,1,1,1,2,2,2,1,2,2,2,1,1,1,2,2,1,1,2,2,1,2,1,1,1,1,2,1,1,2,2,1,1,1,1,1,1,2,1,1,2,2,1,1,1,1,1,2,2,1,2,1,1,1,2,2,2,1,1,2,1,2,2],"img_shown":["img2/100/Incongruent/L/I_Dist_100_LN_9_LD_15_RN_14_RD_28_0.png","img2/200/Congruent/L/C_Dist_200_LN_4_LD_10_RN_3_RD_15_0.png","img2/100/Congruent/L/C_Dist_100_LN_8_LD_16_RN_2_RD_5_0.png","img2/100/Incongruent/L/I_Dist_100_LN_3_LD_5_RN_11_RD_22_0.png","img2/100/Congruent/L/C_Dist_100_LN_11_LD_22_RN_4_RD_10_0.png","img2/200/Congruent/L/C_Dist_200_LN_14_LD_28_RN_6_RD_20_0.png","img2/100/Incongruent/R/I_Dist_100_LN_13_LD_26_RN_6_RD_10_1.png","img2/200/Incongruent/L/I_Dist_200_LN_7_LD_10_RN_12_RD_24_0.png","img2/100/Incongruent/R/I_Dist_100_LN_9_LD_18_RN_6_RD_10_1.png","img2/200/Incongruent/R/I_Dist_200_LN_6_LD_20_RN_3_RD_6_1.png","img2/300/Incongruent/R/I_Dist_300_LN_4_LD_20_RN_2_RD_4_1.png","img2/100/Incongruent/R/I_Dist_100_LN_9_LD_18_RN_6_RD_10_1.png","img2/300/Incongruent/R/I_Dist_300_LN_4_LD_20_RN_2_RD_4_1.png","img2/200/Congruent/R/C_Dist_200_LN_3_LD_10_RN_11_RD_22_1.png","img2/100/Incongruent/R/I_Dist_100_LN_9_LD_18_RN_6_RD_10_1.png","img2/300/Congruent/R/C_Dist_300_LN_3_LD_12_RN_11_RD_20_1.png","img2/100/Congruent/R/C_Dist_100_LN_6_LD_12_RN_15_RD_25_1.png","img2/100/Congruent/L/C_Dist_100_LN_8_LD_16_RN_2_RD_5_0.png","img2/100/Incongruent/R/I_Dist_100_LN_8_LD_16_RN_6_RD_10_1.png","img2/300/Incongruent/R/I_Dist_300_LN_13_LD_26_RN_12_RD_15_1.png","img2/300/Incongruent/R/I_Dist_300_LN_4_LD_20_RN_2_RD_4_1.png","img2/200/Congruent/L/C_Dist_200_LN_16_LD_30_RN_9_RD_27_0.png","img2/300/Incongruent/L/I_Dist_300_LN_4_LD_5_RN_8_RD_16_0.png","img2/100/Congruent/R/C_Dist_100_LN_2_LD_5_RN_6_RD_12_1.png","img2/200/Incongruent/R/I_Dist_200_LN_7_LD_15_RN_6_RD_9_1.png","img2/200/Incongruent/L/I_Dist_200_LN_1_LD_3_RN_2_RD_15_0.png","img2/100/Incongruent/L/I_Dist_100_LN_9_LD_15_RN_13_RD_26_0.png","img2/300/Incongruent/L/I_Dist_300_LN_8_LD_10_RN_9_RD_18_0.png","img2/100/Congruent/L/C_Dist_100_LN_11_LD_22_RN_4_RD_10_0.png","img2/200/Incongruent/L/I_Dist_200_LN_7_LD_10_RN_14_RD_28_0.png","img2/200/Congruent/L/C_Dist_200_LN_6_LD_15_RN_3_RD_15_0.png","img2/200/Congruent/R/C_Dist_200_LN_3_LD_12_RN_9_RD_20_1.png","img2/100/Congruent/R/C_Dist_100_LN_7_LD_14_RN_9_RD_15_1.png","img2/300/Incongruent/R/I_Dist_300_LN_13_LD_26_RN_12_RD_15_1.png","img2/300/Congruent/L/C_Dist_300_LN_20_LD_25_RN_8_RD_16_0.png","img2/200/Congruent/L/C_Dist_200_LN_12_LD_20_RN_6_RD_15_0.png","img2/200/Congruent/R/C_Dist_200_LN_6_LD_20_RN_11_RD_22_1.png","img2/100/Congruent/L/C_Dist_100_LN_6_LD_20_RN_5_RD_25_0.png","img2/200/Incongruent/L/I_Dist_200_LN_7_LD_10_RN_14_RD_28_0.png","img2/300/Incongruent/L/I_Dist_300_LN_4_LD_5_RN_8_RD_16_0.png","img2/300/Congruent/L/C_Dist_300_LN_20_LD_25_RN_8_RD_16_0.png","img2/300/Congruent/L/C_Dist_300_LN_11_LD_22_RN_2_RD_10_0.png","img2/100/Congruent/R/C_Dist_100_LN_6_LD_12_RN_15_RD_25_1.png","img2/100/Incongruent/R/I_Dist_100_LN_11_LD_22_RN_9_RD_15_1.png","img2/100/Congruent/L/C_Dist_100_LN_9_LD_15_RN_8_RD_16_0.png","img2/100/Congruent/R/C_Dist_100_LN_2_LD_5_RN_11_RD_22_1.png","img2/300/Congruent/R/C_Dist_300_LN_1_LD_5_RN_6_RD_12_1.png","img2/300/Congruent/L/C_Dist_300_LN_8_LD_16_RN_1_RD_5_0.png","img2/200/Congruent/R/C_Dist_200_LN_3_LD_10_RN_14_RD_28_1.png","img2/300/Incongruent/L/I_Dist_300_LN_4_LD_5_RN_6_RD_12_0.png","img2/100/Congruent/R/C_Dist_100_LN_7_LD_14_RN_15_RD_25_1.png","img2/300/Incongruent/R/I_Dist_300_LN_13_LD_26_RN_12_RD_15_1.png","img2/300/Incongruent/L/I_Dist_300_LN_4_LD_5_RN_8_RD_16_0.png","img2/300/Incongruent/R/I_Dist_300_LN_4_LD_20_RN_2_RD_4_1.png","img2/200/Incongruent/L/I_Dist_200_LN_7_LD_10_RN_12_RD_24_0.png","img2/300/Incongruent/L/I_Dist_300_LN_2_LD_4_RN_6_RD_30_0.png","img2/200/Incongruent/R/I_Dist_200_LN_4_LD_30_RN_1_RD_3_1.png","img2/300/Congruent/R/C_Dist_300_LN_1_LD_30_RN_8_RD_24_1.png","img2/100/Incongruent/L/I_Dist_100_LN_3_LD_9_RN_7_RD_30_0.png","img2/200/Congruent/L/C_Dist_200_LN_15_LD_25_RN_4_RD_10_0.png","img2/100/Incongruent/L/I_Dist_100_LN_6_LD_10_RN_11_RD_22_0.png","img2/300/Incongruent/R/I_Dist_300_LN_4_LD_20_RN_2_RD_4_1.png","img2/300/Congruent/R/C_Dist_300_LN_2_LD_20_RN_10_RD_25_1.png","img2/200/Congruent/R/C_Dist_200_LN_3_LD_10_RN_11_RD_22_1.png","img2/100/Congruent/L/C_Dist_100_LN_8_LD_16_RN_2_RD_5_0.png","img2/100/Congruent/R/C_Dist_100_LN_3_LD_20_RN_4_RD_16_1.png","img2/100/Congruent/R/C_Dist_100_LN_12_LD_30_RN_13_RD_26_1.png","img2/300/Congruent/R/C_Dist_300_LN_7_LD_14_RN_20_RD_25_1.png","img2/200/Incongruent/L/I_Dist_200_LN_3_LD_4_RN_11_RD_20_0.png","img2/300/Congruent/L/C_Dist_300_LN_18_LD_20_RN_9_RD_15_0.png","img2/300/Incongruent/L/I_Dist_300_LN_2_LD_4_RN_6_RD_30_0.png","img2/200/Incongruent/R/I_Dist_200_LN_14_LD_30_RN_12_RD_18_1.png","img2/100/Incongruent/R/I_Dist_100_LN_6_LD_12_RN_3_RD_5_1.png","img2/200/Congruent/L/C_Dist_200_LN_14_LD_28_RN_6_RD_20_0.png","img2/200/Incongruent/L/I_Dist_200_LN_1_LD_3_RN_2_RD_15_0.png","img2/300/Congruent/R/C_Dist_300_LN_2_LD_10_RN_12_RD_24_1.png","img2/200/Congruent/R/C_Dist_200_LN_6_LD_12_RN_7_RD_10_1.png","img2/300/Congruent/L/C_Dist_300_LN_8_LD_16_RN_1_RD_5_0.png","img2/300/Incongruent/R/I_Dist_300_LN_4_LD_20_RN_2_RD_4_1.png","img2/100/Incongruent/L/I_Dist_100_LN_4_LD_8_RN_8_RD_20_0.png","img2/100/Congruent/L/C_Dist_100_LN_9_LD_15_RN_8_RD_16_0.png","img2/200/Congruent/L/C_Dist_200_LN_21_LD_30_RN_2_RD_4_0.png","img2/300/Congruent/L/C_Dist_300_LN_24_LD_30_RN_8_RD_16_0.png","img2/200/Incongruent/R/I_Dist_200_LN_4_LD_30_RN_1_RD_3_1.png","img2/200/Incongruent/L/I_Dist_200_LN_1_LD_3_RN_2_RD_15_0.png","img2/100/Congruent/L/C_Dist_100_LN_9_LD_15_RN_8_RD_16_0.png","img2/300/Congruent/R/C_Dist_300_LN_1_LD_5_RN_11_RD_22_1.png","img2/200/Incongruent/R/I_Dist_200_LN_9_LD_15_RN_8_RD_10_1.png","img2/100/Incongruent/L/I_Dist_100_LN_1_LD_2_RN_8_RD_20_0.png","img2/300/Incongruent/L/I_Dist_300_LN_3_LD_6_RN_4_RD_20_0.png","img2/300/Congruent/L/C_Dist_300_LN_24_LD_30_RN_2_RD_4_0.png","img2/100/Incongruent/L/I_Dist_100_LN_3_LD_5_RN_8_RD_16_0.png","img2/100/Congruent/L/C_Dist_100_LN_9_LD_15_RN_8_RD_16_0.png","img2/100/Incongruent/L/I_Dist_100_LN_6_LD_10_RN_11_RD_22_0.png","img2/100/Congruent/R/C_Dist_100_LN_2_LD_5_RN_11_RD_22_1.png","img2/200/Congruent/L/C_Dist_200_LN_16_LD_30_RN_9_RD_27_0.png","img2/200/Congruent/L/C_Dist_200_LN_12_LD_20_RN_6_RD_15_0.png","img2/300/Incongruent/R/I_Dist_300_LN_13_LD_26_RN_12_RD_15_1.png","img2/100/Incongruent/R/I_Dist_100_LN_6_LD_12_RN_3_RD_5_1.png","img2/200/Incongruent/L/I_Dist_200_LN_4_LD_5_RN_6_RD_10_0.png","img2/100/Congruent/L/C_Dist_100_LN_15_LD_25_RN_13_RD_26_0.png","img2/200/Congruent/L/C_Dist_200_LN_21_LD_30_RN_2_RD_4_0.png","img2/300/Congruent/L/C_Dist_300_LN_11_LD_22_RN_2_RD_10_0.png","img2/300/Congruent/L/C_Dist_300_LN_12_LD_24_RN_2_RD_10_0.png","img2/100/Incongruent/R/I_Dist_100_LN_17_LD_30_RN_10_RD_15_1.png","img2/200/Incongruent/R/I_Dist_200_LN_6_LD_20_RN_3_RD_6_1.png","img2/300/Incongruent/L/I_Dist_300_LN_4_LD_5_RN_6_RD_12_0.png","img2/200/Congruent/R/C_Dist_200_LN_9_LD_30_RN_13_RD_26_1.png","img2/300/Incongruent/L/I_Dist_300_LN_3_LD_6_RN_4_RD_20_0.png","img2/100/Incongruent/L/I_Dist_100_LN_3_LD_9_RN_7_RD_30_0.png","img2/100/Incongruent/L/I_Dist_100_LN_2_LD_4_RN_8_RD_20_0.png","img2/200/Incongruent/R/I_Dist_200_LN_3_LD_10_RN_1_RD_2_1.png","img2/200/Incongruent/R/I_Dist_200_LN_14_LD_30_RN_6_RD_9_1.png","img2/300/Congruent/R/C_Dist_300_LN_1_LD_5_RN_11_RD_22_1.png","img2/200/Incongruent/L/I_Dist_200_LN_3_LD_4_RN_11_RD_20_0.png","img2/200/Congruent/L/C_Dist_200_LN_14_LD_28_RN_6_RD_20_0.png","img2/200/Incongruent/R/I_Dist_200_LN_9_LD_15_RN_8_RD_10_1.png","img2/300/Congruent/L/C_Dist_300_LN_20_LD_25_RN_5_RD_10_0.png","img2/200/Congruent/R/C_Dist_200_LN_5_LD_10_RN_14_RD_20_1.png","img2/300/Congruent/R/C_Dist_300_LN_1_LD_5_RN_6_RD_12_1.png"],"dist100_C":[["C_Dist_100_LN_10_LD_25_RN_3_RD_10_0.png","C_Dist_100_LN_11_LD_22_RN_4_RD_10_0.png","C_Dist_100_LN_11_LD_22_RN_6_RD_15_0.png","C_Dist_100_LN_15_LD_25_RN_13_RD_26_0.png","C_Dist_100_LN_3_LD_6_RN_2_RD_5_0.png","C_Dist_100_LN_6_LD_20_RN_5_RD_25_0.png","C_Dist_100_LN_8_LD_16_RN_2_RD_5_0.png","C_Dist_100_LN_9_LD_15_RN_8_RD_16_0.png"],["C_Dist_100_LN_1_LD_2_RN_18_RD_30_1.png","C_Dist_100_LN_1_LD_2_RN_3_RD_5_1.png","C_Dist_100_LN_12_LD_30_RN_13_RD_26_1.png","C_Dist_100_LN_2_LD_5_RN_11_RD_22_1.png","C_Dist_100_LN_2_LD_5_RN_6_RD_12_1.png","C_Dist_100_LN_3_LD_20_RN_4_RD_16_1.png","C_Dist_100_LN_4_LD_10_RN_15_RD_30_1.png","C_Dist_100_LN_4_LD_8_RN_6_RD_10_1.png","C_Dist_100_LN_6_LD_12_RN_15_RD_25_1.png","C_Dist_100_LN_7_LD_14_RN_15_RD_25_1.png","C_Dist_100_LN_7_LD_14_RN_9_RD_15_1.png"]],"dist100_I":[["I_Dist_100_LN_1_LD_2_RN_8_RD_20_0.png","I_Dist_100_LN_2_LD_4_RN_6_RD_15_0.png","I_Dist_100_LN_2_LD_4_RN_8_RD_20_0.png","I_Dist_100_LN_3_LD_5_RN_11_RD_22_0.png","I_Dist_100_LN_3_LD_5_RN_8_RD_16_0.png","I_Dist_100_LN_3_LD_6_RN_4_RD_10_0.png","I_Dist_100_LN_3_LD_9_RN_7_RD_30_0.png","I_Dist_100_LN_4_LD_8_RN_8_RD_20_0.png","I_Dist_100_LN_6_LD_10_RN_11_RD_22_0.png","I_Dist_100_LN_6_LD_10_RN_13_RD_26_0.png","I_Dist_100_LN_6_LD_10_RN_7_RD_14_0.png","I_Dist_100_LN_9_LD_10_RN_20_RD_25_0.png","I_Dist_100_LN_9_LD_15_RN_13_RD_26_0.png","I_Dist_100_LN_9_LD_15_RN_14_RD_28_0.png"],["I_Dist_100_LN_10_LD_25_RN_8_RD_16_1.png","I_Dist_100_LN_10_LD_25_RN_9_RD_18_1.png","I_Dist_100_LN_11_LD_22_RN_9_RD_15_1.png","I_Dist_100_LN_12_LD_24_RN_9_RD_15_1.png","I_Dist_100_LN_12_LD_30_RN_2_RD_4_1.png","I_Dist_100_LN_13_LD_26_RN_12_RD_20_1.png","I_Dist_100_LN_13_LD_26_RN_6_RD_10_1.png","I_Dist_100_LN_17_LD_30_RN_10_RD_15_1.png","I_Dist_100_LN_6_LD_12_RN_3_RD_5_1.png","I_Dist_100_LN_8_LD_16_RN_6_RD_10_1.png","I_Dist_100_LN_8_LD_20_RN_1_RD_2_1.png","I_Dist_100_LN_9_LD_18_RN_6_RD_10_1.png"]],"dist100_S":[["E_Dist_100_LN_2_LD_12_RN_2_RD_30_0.png","E_Dist_100_LN_6_LD_10_RN_6_RD_12_0.png"],["E_Dist_100_LN_6_LD_12_RN_6_RD_10_1.png"]],"dist200_C":[["C_Dist_200_LN_11_LD_22_RN_3_RD_10_0.png","C_Dist_200_LN_12_LD_15_RN_6_RD_10_0.png","C_Dist_200_LN_12_LD_20_RN_6_RD_15_0.png","C_Dist_200_LN_14_LD_28_RN_6_RD_20_0.png","C_Dist_200_LN_15_LD_25_RN_4_RD_10_0.png","C_Dist_200_LN_16_LD_20_RN_12_RD_20_0.png","C_Dist_200_LN_16_LD_30_RN_9_RD_27_0.png","C_Dist_200_LN_20_LD_25_RN_9_RD_15_0.png","C_Dist_200_LN_21_LD_30_RN_2_RD_4_0.png","C_Dist_200_LN_4_LD_10_RN_3_RD_15_0.png","C_Dist_200_LN_4_LD_8_RN_3_RD_10_0.png","C_Dist_200_LN_6_LD_15_RN_3_RD_15_0.png","C_Dist_200_LN_7_LD_21_RN_2_RD_15_0.png","C_Dist_200_LN_8_LD_15_RN_2_RD_6_0.png","C_Dist_200_LN_8_LD_15_RN_3_RD_9_0.png","C_Dist_200_LN_8_LD_15_RN_7_RD_21_0.png","C_Dist_200_LN_9_LD_20_RN_4_RD_16_0.png"],["C_Dist_200_LN_1_LD_2_RN_21_RD_30_1.png","C_Dist_200_LN_13_LD_26_RN_14_RD_20_1.png","C_Dist_200_LN_3_LD_10_RN_11_RD_22_1.png","C_Dist_200_LN_3_LD_10_RN_14_RD_28_1.png","C_Dist_200_LN_3_LD_10_RN_7_RD_14_1.png","C_Dist_200_LN_3_LD_12_RN_9_RD_20_1.png","C_Dist_200_LN_3_LD_6_RN_14_RD_20_1.png","C_Dist_200_LN_5_LD_10_RN_14_RD_20_1.png","C_Dist_200_LN_6_LD_12_RN_7_RD_10_1.png","C_Dist_200_LN_6_LD_20_RN_11_RD_22_1.png","C_Dist_200_LN_7_LD_15_RN_18_RD_27_1.png","C_Dist_200_LN_9_LD_30_RN_13_RD_26_1.png"]],"dist200_I":[["I_Dist_200_LN_1_LD_2_RN_3_RD_10_0.png","I_Dist_200_LN_1_LD_3_RN_2_RD_15_0.png","I_Dist_200_LN_3_LD_4_RN_11_RD_20_0.png","I_Dist_200_LN_4_LD_5_RN_6_RD_10_0.png","I_Dist_200_LN_4_LD_6_RN_14_RD_30_0.png","I_Dist_200_LN_7_LD_10_RN_12_RD_24_0.png","I_Dist_200_LN_7_LD_10_RN_14_RD_28_0.png","I_Dist_200_LN_7_LD_10_RN_8_RD_16_0.png"],["I_Dist_200_LN_11_LD_20_RN_3_RD_4_1.png","I_Dist_200_LN_14_LD_30_RN_12_RD_18_1.png","I_Dist_200_LN_14_LD_30_RN_6_RD_9_1.png","I_Dist_200_LN_3_LD_10_RN_1_RD_2_1.png","I_Dist_200_LN_4_LD_30_RN_1_RD_3_1.png","I_Dist_200_LN_6_LD_20_RN_3_RD_6_1.png","I_Dist_200_LN_7_LD_15_RN_4_RD_6_1.png","I_Dist_200_LN_7_LD_15_RN_6_RD_9_1.png","I_Dist_200_LN_9_LD_15_RN_8_RD_10_1.png"]],"dist200_S":[["E_Dist_200_LN_3_LD_6_RN_3_RD_10_0.png"],["E_Dist_200_LN_3_LD_10_RN_3_RD_6_1.png"]],"dist300_C":[["C_Dist_300_LN_11_LD_22_RN_1_RD_5_0.png","C_Dist_300_LN_11_LD_22_RN_2_RD_10_0.png","C_Dist_300_LN_11_LD_22_RN_4_RD_20_0.png","C_Dist_300_LN_12_LD_24_RN_2_RD_10_0.png","C_Dist_300_LN_18_LD_20_RN_9_RD_15_0.png","C_Dist_300_LN_20_LD_25_RN_13_RD_26_0.png","C_Dist_300_LN_20_LD_25_RN_14_RD_28_0.png","C_Dist_300_LN_20_LD_25_RN_5_RD_10_0.png","C_Dist_300_LN_20_LD_25_RN_8_RD_16_0.png","C_Dist_300_LN_20_LD_25_RN_9_RD_18_0.png","C_Dist_300_LN_24_LD_30_RN_2_RD_4_0.png","C_Dist_300_LN_24_LD_30_RN_8_RD_16_0.png","C_Dist_300_LN_3_LD_6_RN_2_RD_10_0.png","C_Dist_300_LN_4_LD_10_RN_1_RD_10_0.png","C_Dist_300_LN_4_LD_5_RN_2_RD_4_0.png","C_Dist_300_LN_8_LD_16_RN_1_RD_5_0.png","C_Dist_300_LN_9_LD_10_RN_3_RD_5_0.png"],["C_Dist_300_LN_1_LD_20_RN_7_RD_20_1.png","C_Dist_300_LN_1_LD_3_RN_19_RD_30_1.png","C_Dist_300_LN_1_LD_30_RN_8_RD_24_1.png","C_Dist_300_LN_1_LD_5_RN_11_RD_22_1.png","C_Dist_300_LN_1_LD_5_RN_3_RD_6_1.png","C_Dist_300_LN_1_LD_5_RN_6_RD_12_1.png","C_Dist_300_LN_2_LD_10_RN_12_RD_24_1.png","C_Dist_300_LN_2_LD_20_RN_10_RD_25_1.png","C_Dist_300_LN_3_LD_12_RN_11_RD_20_1.png","C_Dist_300_LN_3_LD_6_RN_4_RD_5_1.png","C_Dist_300_LN_4_LD_20_RN_13_RD_26_1.png","C_Dist_300_LN_5_LD_25_RN_6_RD_12_1.png","C_Dist_300_LN_5_LD_25_RN_7_RD_14_1.png","C_Dist_300_LN_7_LD_14_RN_20_RD_25_1.png","C_Dist_300_LN_8_LD_15_RN_10_RD_12_1.png"]],"dist300_I":[["I_Dist_300_LN_1_LD_2_RN_2_RD_10_0.png","I_Dist_300_LN_1_LD_2_RN_3_RD_15_0.png","I_Dist_300_LN_2_LD_4_RN_6_RD_30_0.png","I_Dist_300_LN_3_LD_6_RN_4_RD_20_0.png","I_Dist_300_LN_4_LD_5_RN_6_RD_12_0.png","I_Dist_300_LN_4_LD_5_RN_8_RD_16_0.png","I_Dist_300_LN_7_LD_10_RN_8_RD_20_0.png","I_Dist_300_LN_8_LD_10_RN_14_RD_28_0.png","I_Dist_300_LN_8_LD_10_RN_9_RD_18_0.png"],["I_Dist_300_LN_13_LD_26_RN_12_RD_15_1.png","I_Dist_300_LN_4_LD_20_RN_2_RD_4_1.png"]],"dist300_S":[["E_Dist_300_LN_9_LD_12_RN_9_RD_20_0.png"],["E_Dist_300_LN_18_LD_30_RN_18_RD_20_1.png","E_Dist_300_LN_3_LD_10_RN_3_RD_5_1.png","E_Dist_300_LN_9_LD_20_RN_9_RD_12_1.png"]],"dist500_C":[["C_Dist_500_LN_10_LD_13_RN_7_RD_26_0.png","C_Dist_500_LN_10_LD_15_RN_4_RD_24_0.png","C_Dist_500_LN_12_LD_16_RN_3_RD_12_0.png","C_Dist_500_LN_12_LD_18_RN_4_RD_24_0.png","C_Dist_500_LN_15_LD_18_RN_5_RD_15_0.png","C_Dist_500_LN_15_LD_20_RN_1_RD_4_0.png","C_Dist_500_LN_18_LD_27_RN_1_RD_6_0.png","C_Dist_500_LN_20_LD_24_RN_1_RD_3_0.png","C_Dist_500_LN_20_LD_24_RN_3_RD_9_0.png","C_Dist_500_LN_20_LD_24_RN_7_RD_21_0.png","C_Dist_500_LN_20_LD_28_RN_3_RD_14_0.png","C_Dist_500_LN_21_LD_28_RN_6_RD_24_0.png","C_Dist_500_LN_22_LD_28_RN_2_RD_7_0.png","C_Dist_500_LN_25_LD_30_RN_9_RD_27_0.png","C_Dist_500_LN_4_LD_6_RN_1_RD_6_0.png","C_Dist_500_LN_5_LD_6_RN_2_RD_6_0.png","C_Dist_500_LN_6_LD_9_RN_1_RD_6_0.png","C_Dist_500_LN_7_LD_10_RN_1_RD_5_0.png","C_Dist_500_LN_8_LD_12_RN_1_RD_6_0.png","C_Dist_500_LN_8_LD_12_RN_4_RD_24_0.png"],["C_Dist_500_LN_1_LD_4_RN_12_RD_16_1.png","C_Dist_500_LN_1_LD_4_RN_9_RD_12_1.png","C_Dist_500_LN_1_LD_9_RN_11_RD_18_1.png","C_Dist_500_LN_10_LD_24_RN_22_RD_24_1.png","C_Dist_500_LN_2_LD_12_RN_10_RD_15_1.png","C_Dist_500_LN_2_LD_12_RN_12_RD_18_1.png","C_Dist_500_LN_2_LD_12_RN_4_RD_6_1.png","C_Dist_500_LN_2_LD_24_RN_7_RD_12_1.png","C_Dist_500_LN_2_LD_5_RN_18_RD_20_1.png","C_Dist_500_LN_2_LD_5_RN_9_RD_10_1.png","C_Dist_500_LN_2_LD_8_RN_12_RD_16_1.png","C_Dist_500_LN_2_LD_8_RN_21_RD_28_1.png","C_Dist_500_LN_3_LD_10_RN_4_RD_5_1.png","C_Dist_500_LN_3_LD_12_RN_15_RD_20_1.png","C_Dist_500_LN_3_LD_30_RN_6_RD_10_1.png","C_Dist_500_LN_3_LD_8_RN_14_RD_16_1.png","C_Dist_500_LN_4_LD_16_RN_15_RD_20_1.png","C_Dist_500_LN_4_LD_24_RN_12_RD_18_1.png","C_Dist_500_LN_5_LD_14_RN_6_RD_7_1.png","C_Dist_500_LN_7_LD_21_RN_20_RD_24_1.png","C_Dist_500_LN_7_LD_28_RN_12_RD_16_1.png","C_Dist_500_LN_7_LD_28_RN_9_RD_12_1.png","C_Dist_500_LN_9_LD_27_RN_20_RD_24_1.png"]],"dist500_I":[["I_Dist_500_LN_2_LD_3_RN_4_RD_24_0.png","I_Dist_500_LN_5_LD_6_RN_6_RD_18_0.png","I_Dist_500_LN_7_LD_8_RN_9_RD_24_0.png"],["I_Dist_500_LN_7_LD_21_RN_5_RD_6_1.png"]],"dist500_S":[["E_Dist_500_LN_6_LD_8_RN_6_RD_24_0.png"],["E_Dist_500_LN_2_LD_12_RN_2_RD_3_1.png","E_Dist_500_LN_6_LD_24_RN_6_RD_8_1.png"]]}},{"start_time":1551899907083,"click_time":1551899912614,"finger_time":1551899911553,"fix_duration":1009.3176916278547,"trial":1,"RT":4470,"MT":1061,"sideResp":1,"stimulus":[],"xmouse":[767,767,767,767,767,767,767,767,767,767,767,767,767,767,767,767,767,767,767,767,767,767,767,767,767,767,767,767,767,767,767,767,767,767,767,767,767,767,767,767,767,767,767,767,767,767,767,767,767,767,767,767,767,767,767,767,767,767,767,767,767,767,767,767,767,767,767,767,767,767,767,767,767,767,767,767,767,767,767,767,767,767,767,767,767,767,767,767,767,767,767,767,767,767,767,767,767,767,767,767,767,767,767,767,767,767,767,767,767,767,767,767,767,767,767,767,767,767,767,767,767,767,767,767,767,767,767,767,767,767,767,767,767,767,767,767,767,767,767,767,767,767,767,767,767,767,767,767,767,767,767,767,767,767,767,767,767,767,767,767,767,767,767,767,767,767,767,767,767,767,767,767,767,767,767,767,767,767,767,767,767,767,767,767,767,767,767,767,767,767,767,767,767,767,767,767,767,767,767,767,767,767,767,767,767,767,767,767,767,767,767,767,767,767,767,767,768,769,770,770,770,770,763,741,725,704,680,663,650,649,648,648,647,639,628,613,593,572,539,526,518,511,510,508,504,500,496,493,483,477,473,469,468,467,464,462,459,455,437,434,433,433,433,433,433,433,433,433,433,437,444,450,452,453,453,453,453],"ymouse":[619,619,619,619,619,619,619,619,619,619,619,619,619,619,619,619,619,619,619,619,619,619,619,619,619,619,619,619,619,619,619,619,619,619,619,619,619,619,619,619,619,619,619,619,619,619,619,619,619,619,619,619,619,619,619,619,619,619,619,619,619,619,619,619,619,619,619,619,619,619,619,619,619,619,619,619,619,619,619,619,619,619,619,619,619,619,619,619,619,619,619,619,619,619,619,619,619,619,619,619,619,619,619,619,619,619,619,619,619,619,619,619,619,619,619,619,619,619,619,619,619,619,619,619,619,619,619,619,619,619,619,619,619,619,619,619,619,619,619,619,619,619,619,619,619,619,619,619,619,619,619,619,619,619,619,619,619,619,619,619,619,619,619,619,619,619,619,619,619,619,619,619,619,619,619,619,619,619,619,619,619,619,619,619,619,619,619,619,619,619,619,619,619,619,619,619,619,619,619,619,619,619,619,619,619,619,619,619,619,619,619,619,619,619,619,619,614,610,597,596,595,590,578,547,526,502,481,470,465,465,465,465,465,463,457,448,435,419,394,386,380,375,373,370,366,360,355,347,326,314,307,302,301,300,296,292,286,280,255,251,249,249,249,249,249,249,249,249,249,236,224,211,203,180,158,133,99],"timestamp_mouse":[10,44,51,71,90,111,129,149,170,191,211,230,250,270,289,311,330,351,371,390,410,429,450,471,490,511,530,550,570,590,610,629,649,669,690,710,730,749,769,789,811,830,850,870,890,909,929,949,970,989,1009,1030,1050,1070,1091,1110,1129,1150,1170,1190,1210,1230,1250,1269,1290,1309,1330,1351,1370,1390,1409,1429,1450,1469,1491,1509,1530,1550,1570,1589,1610,1630,1649,1671,1690,1710,1730,1750,1769,1790,1811,1829,1849,1871,1890,1911,1930,1950,1970,1989,2011,2030,2051,2070,2090,2111,2129,2149,2171,2190,2210,2230,2251,2270,2289,2311,2330,2350,2369,2389,2411,2430,2450,2469,2490,2510,2530,2551,2569,2590,2610,2630,2651,2669,2690,2711,2730,2750,2770,2790,2809,2831,2850,2870,2890,2910,2931,2951,2970,2990,3009,3031,3049,3070,3090,3111,3129,3150,3170,3190,3209,3231,3251,3269,3290,3310,3331,3349,3370,3390,3411,3431,3451,3469,3490,3511,3531,3549,3569,3590,3610,3631,3651,3670,3690,3711,3730,3749,3771,3791,3809,3830,3851,3871,3889,3911,3931,3949,3970,3989,4010,4031,4050,4071,4090,4110,4131,4149,4171,4189,4211,4230,4250,4269,4290,4309,4329,4350,4369,4390,4410,4431,4451,4470,4490,4510,4530,4549,4569,4589,4610,4630,4651,4669,4689,4710,4730,4749,4769,4789,4810,4831,4851,4870,4889,4910,4931,4950,4969,4989,5011,5031,5050,5070,5089,5110,5130,5151,5170,5189,5210,5230,5249,5270,5290,5310,5330,5351,5371,5391,5410,5430,5451,5470,5490,5510,5530],"xSR":741.5,"ySR":573.95,"xT1":424.9,"yT1":0,"xT2":1058.1,"yT2":0,"toosoon":0,"cond_shown":"Congruent","ratio_trial":200,"L_num":4,"L_den":10,"R_num":3,"R_den":15,"correct_side":1,"subjID":"SAMUELAGUILERA7","gender":"0","school":"6","age":"11"},{"start_time":1551899923980,"click_time":1551899925793,"finger_time":1551899925274,"fix_duration":1283.057734882082,"trial":2,"RT":1294,"MT":519,"sideResp":1,"stimulus":[],"xmouse":[787,787,787,787,787,787,787,787,787,787,787,787,787,787,787,787,787,787,787,787,787,787,787,787,787,787,787,787,787,787,787,787,787,787,787,787,787,787,787,787,787,787,787,787,787,787,787,787,787,787,787,787,787,787,787,787,787,787,787,787,787,787,784,775,699,672,663,655,647,640,632,626,620,615,615,614,613,607,595,569,556,547,544,541,540,540,540,540,537,531,519],"ymouse":[631,631,631,631,631,631,631,631,631,631,631,631,631,631,631,631,631,631,631,631,631,631,631,631,631,631,631,631,631,631,631,631,631,631,631,631,631,631,631,631,631,631,631,631,631,631,631,631,631,631,631,631,631,631,631,631,631,631,631,631,631,631,628,611,441,305,230,170,102,77,59,44,32,24,24,23,22,22,22,28,32,35,36,37,37,37,37,37,40,44,52],"timestamp_mouse":[13,36,52,73,93,112,132,153,173,193,214,233,252,274,294,313,333,353,374,393,413,433,453,473,493,514,534,554,574,593,614,634,653,672,692,714,734,752,773,793,814,834,853,873,893,914,934,953,972,993,1012,1033,1054,1072,1092,1114,1134,1152,1174,1193,1213,1233,1252,1273,1294,1314,1333,1352,1373,1392,1413,1434,1453,1473,1493,1512,1533,1554,1573,1593,1614,1633,1653,1673,1693,1713,1732,1754,1773,1792,1813],"xSR":741.5,"ySR":573.95,"xT1":424.9,"yT1":0,"xT2":1058.1,"yT2":0,"toosoon":0,"cond_shown":"Congruent","ratio_trial":100,"L_num":8,"L_den":16,"R_num":2,"R_den":5,"correct_side":1,"subjID":"SAMUELAGUILERA7","gender":"0","school":"6","age":"11"},{"start_time":1551899928720,"click_time":1551899930913,"finger_time":1551899930012,"fix_duration":1046.2539027370183,"trial":3,"RT":1292,"MT":901,"sideResp":2,"stimulus":[],"xmouse":[808,808,808,808,808,808,808,808,808,808,808,808,808,808,808,808,808,808,808,808,808,808,808,808,808,808,808,808,808,808,808,808,808,808,808,808,808,808,808,808,808,808,808,808,808,808,808,808,808,808,808,808,808,808,808,808,808,808,808,808,808,808,809,823,850,898,1017,1067,1109,1160,1198,1242,1256,1267,1273,1275,1275,1275,1275,1276,1280,1292,1299,1304,1306,1306,1304,1303,1302,1298,1293,1275,1266,1262,1254,1244,1221,1204,1203,1203,1203,1203,1203,1203,1203,1203,1203,1195,1174,1136],"ymouse":[637,637,637,637,637,637,637,637,637,637,637,637,637,637,637,637,637,637,637,637,637,637,637,637,637,637,637,637,637,637,637,637,637,637,637,637,637,637,637,637,637,637,637,637,637,637,637,637,637,637,637,637,637,637,637,637,637,637,637,637,637,637,636,651,669,681,680,671,663,646,627,602,591,578,563,545,510,503,485,467,439,364,325,293,265,233,180,174,168,155,144,121,110,105,94,83,61,49,49,49,49,49,49,49,49,49,49,50,53,58],"timestamp_mouse":[13,33,53,72,93,112,133,152,172,194,212,234,252,273,292,312,333,352,374,394,414,432,453,473,494,512,533,553,574,593,612,633,653,672,693,714,732,753,774,792,814,834,853,874,893,913,933,953,974,994,1013,1033,1053,1072,1092,1114,1132,1153,1172,1192,1214,1232,1254,1273,1292,1313,1333,1352,1373,1393,1414,1433,1452,1473,1494,1514,1533,1552,1572,1594,1613,1633,1652,1673,1693,1713,1733,1752,1774,1793,1812,1833,1852,1873,1894,1914,1933,1952,1973,1992,2012,2034,2053,2074,2092,2113,2134,2153,2173,2192],"xSR":741.5,"ySR":573.95,"xT1":424.9,"yT1":0,"xT2":1058.1,"yT2":0,"toosoon":0,"cond_shown":"Incongruent","ratio_trial":100,"L_num":3,"L_den":5,"R_num":11,"R_den":22,"correct_side":1,"subjID":"SAMUELAGUILERA7","gender":"0","school":"6","age":"11"},{"start_time":1551899932579,"click_time":1551899934553,"finger_time":1551899934174,"fix_duration":864.343103924568,"trial":4,"RT":1595,"MT":379,"sideResp":1,"stimulus":[],"xmouse":[797,797,797,797,797,797,797,797,797,797,797,797,797,797,797,797,797,797,797,797,797,797,797,797,797,797,797,797,797,797,797,797,797,797,797,797,797,797,797,797,797,797,797,797,797,797,797,797,797,797,797,797,797,797,797,797,797,797,797,797,797,797,797,797,797,797,797,797,797,797,797,797,797,797,797,797,797,797,795,775,737,710,684,648,638,629,615,604,592,570,562,557,556,556,555,550,537,525,516],"ymouse":[601,601,601,601,601,601,601,601,601,601,601,601,601,601,601,601,601,601,601,601,601,601,601,601,601,601,601,601,601,601,601,601,601,601,601,601,601,601,601,601,601,601,601,601,601,601,601,601,601,601,601,601,601,601,601,601,601,601,601,601,601,601,601,601,601,601,601,601,601,601,601,601,601,601,601,601,601,601,601,562,495,445,396,326,304,283,249,224,197,154,140,131,129,129,127,118,104,91,84],"timestamp_mouse":[14,37,54,74,94,114,134,154,174,195,214,234,254,275,294,315,334,353,374,395,413,435,454,474,493,515,535,554,574,593,615,634,654,675,694,714,735,754,774,794,815,834,853,874,895,913,934,954,975,993,1015,1034,1054,1075,1094,1114,1133,1154,1173,1194,1213,1235,1253,1273,1293,1315,1335,1354,1374,1393,1413,1434,1454,1474,1494,1514,1534,1554,1573,1595,1614,1635,1654,1674,1693,1715,1734,1754,1774,1794,1814,1834,1854,1874,1894,1913,1934,1954,1974],"xSR":741.5,"ySR":573.95,"xT1":424.9,"yT1":0,"xT2":1058.1,"yT2":0,"toosoon":0,"cond_shown":"Congruent","ratio_trial":100,"L_num":11,"L_den":22,"R_num":4,"R_den":10,"correct_side":1,"subjID":"SAMUELAGUILERA7","gender":"0","school":"6","age":"11"},{"start_time":1551899937440,"click_time":1551899939452,"finger_time":1551899939073,"fix_duration":785.0031216804803,"trial":5,"RT":1633,"MT":379,"sideResp":1,"stimulus":[],"xmouse":[789,789,789,789,789,789,789,789,789,789,789,789,789,789,789,789,789,789,789,789,789,789,789,789,789,789,789,789,789,789,789,789,789,789,789,789,789,789,789,789,789,789,789,789,789,789,789,789,789,789,789,789,789,789,789,789,789,789,789,789,789,789,789,789,789,789,789,789,789,789,789,789,789,789,789,789,789,789,789,781,757,731,692,662,632,580,559,544,535,525,495,480,470,466,466,466,466,466,466,466,466],"ymouse":[634,634,634,634,634,634,634,634,634,634,634,634,634,634,634,634,634,634,634,634,634,634,634,634,634,634,634,634,634,634,634,634,634,634,634,634,634,634,634,634,634,634,634,634,634,634,634,634,634,634,634,634,634,634,634,634,634,634,634,634,634,634,634,634,634,634,634,634,634,634,634,634,634,634,634,634,634,634,634,635,643,648,648,647,637,615,603,593,583,566,465,383,307,258,225,185,167,144,125,112,94],"timestamp_mouse":[14,34,54,72,93,113,132,152,174,192,213,232,253,273,292,314,332,354,374,394,413,433,453,473,492,513,534,552,574,592,612,633,653,672,694,712,732,754,773,793,814,833,852,873,893,912,934,952,973,993,1013,1033,1054,1073,1093,1114,1132,1154,1172,1194,1213,1233,1254,1273,1293,1312,1333,1352,1374,1392,1413,1433,1452,1474,1493,1513,1532,1554,1572,1593,1613,1633,1652,1673,1693,1712,1732,1754,1773,1794,1812,1833,1854,1873,1894,1913,1934,1953,1973,1994,2012],"xSR":741.5,"ySR":573.95,"xT1":424.9,"yT1":0,"xT2":1058.1,"yT2":0,"toosoon":0,"cond_shown":"Congruent","ratio_trial":200,"L_num":14,"L_den":28,"R_num":6,"R_den":20,"correct_side":1,"subjID":"SAMUELAGUILERA7","gender":"0","school":"6","age":"11"},{"start_time":1551899941658,"click_time":1551899943053,"finger_time":1551899942672,"fix_duration":603.4171771061017,"trial":6,"RT":1014,"MT":381,"sideResp":1,"stimulus":[],"xmouse":[809,809,809,809,809,809,809,809,809,809,809,809,809,809,809,809,809,809,809,809,809,809,809,809,809,809,809,809,809,809,809,809,809,809,809,809,809,809,809,809,809,809,809,809,809,809,809,809,804,788,653,573,533,493,436,412,392,372,349,313,306,306,307,313,340,362,386,409,421,430],"ymouse":[630,630,630,630,630,630,630,630,630,630,630,630,630,630,630,630,630,630,630,630,630,630,630,630,630,630,630,630,630,630,630,630,630,630,630,630,630,630,630,630,630,630,630,630,630,630,630,630,626,613,527,491,474,457,427,412,395,376,344,292,275,273,266,252,209,185,147,107,90,78],"timestamp_mouse":[30,35,55,75,96,115,134,155,175,196,216,235,256,274,294,315,334,354,375,395,415,435,456,474,495,515,535,554,574,596,615,635,655,674,695,715,734,754,775,795,815,835,855,875,895,914,936,954,975,994,1014,1035,1056,1074,1095,1114,1136,1156,1175,1196,1214,1236,1255,1274,1295,1314,1336,1355,1374,1395],"xSR":741.5,"ySR":573.95,"xT1":424.9,"yT1":0,"xT2":1058.1,"yT2":0,"toosoon":0,"cond_shown":"Incongruent","ratio_trial":100,"L_num":13,"L_den":26,"R_num":6,"R_den":10,"correct_side":2,"subjID":"SAMUELAGUILERA7","gender":"0","school":"6","age":"11"},{"start_time":1551899948248,"click_time":1551899949952,"finger_time":1551899949674,"fix_duration":932.6957139471629,"trial":7,"RT":1426,"MT":278,"sideResp":2,"stimulus":[],"xmouse":[797,797,797,797,797,797,797,797,797,797,797,797,797,797,797,797,797,797,797,797,797,797,797,797,797,797,797,797,797,797,797,797,797,797,797,797,797,797,797,797,797,797,797,797,797,797,797,797,797,797,797,797,797,797,797,797,797,797,797,797,797,797,797,797,797,797,797,797,797,797,797,861,884,969,1029,1128,1149,1152,1152,1152,1152,1151,1151,1151,1148,1136],"ymouse":[630,630,630,630,630,630,630,630,630,630,630,630,630,630,630,630,630,630,630,630,630,630,630,630,630,630,630,630,630,630,630,630,630,630,630,630,630,630,630,630,630,630,630,630,630,630,630,630,630,630,630,630,630,630,630,630,630,630,630,630,630,630,630,630,630,630,630,630,630,630,625,524,491,376,309,234,217,214,214,214,211,187,159,135,111,80],"timestamp_mouse":[10,39,46,65,84,105,124,145,165,184,204,224,245,265,284,304,324,344,365,385,405,426,444,466,485,504,525,546,565,585,605,625,646,664,686,706,724,746,764,784,805,825,844,865,885,905,924,944,964,984,1004,1024,1045,1064,1084,1104,1125,1144,1165,1184,1204,1225,1245,1264,1285,1304,1324,1345,1364,1385,1406,1426,1444,1465,1484,1505,1524,1545,1565,1584,1604,1625,1645,1665,1685,1704],"xSR":741.5,"ySR":573.95,"xT1":424.9,"yT1":0,"xT2":1058.1,"yT2":0,"toosoon":0,"cond_shown":"Incongruent","ratio_trial":200,"L_num":7,"L_den":10,"R_num":12,"R_den":24,"correct_side":1,"subjID":"SAMUELAGUILERA7","gender":"0","school":"6","age":"11"},{"start_time":1551899976740,"click_time":1551899978933,"finger_time":1551899978453,"fix_duration":507.65377618089,"trial":8,"RT":1713,"MT":480,"sideResp":1,"stimulus":[],"xmouse":[816,816,816,816,816,816,816,816,816,816,816,816,816,816,816,816,816,816,816,816,816,816,816,816,816,816,816,816,816,816,816,816,816,816,816,816,816,816,816,816,816,816,816,816,816,816,816,816,816,816,816,816,816,816,816,816,816,816,816,816,816,816,816,816,816,816,816,816,816,816,816,816,816,816,816,816,816,816,816,816,816,816,803,787,744,667,626,558,524,499,477,408,376,350,338,327,327,327,329,332,340,345,352,361,373,411,433,469,487,506],"ymouse":[611,611,611,611,611,611,611,611,611,611,611,611,611,611,611,611,611,611,611,611,611,611,611,611,611,611,611,611,611,611,611,611,611,611,611,611,611,611,611,611,611,611,611,611,611,611,611,611,611,611,611,611,611,611,611,611,611,611,611,611,611,611,611,611,611,611,611,611,611,611,611,611,611,611,611,611,611,611,611,611,611,611,603,600,596,596,596,606,609,609,603,545,503,462,436,405,396,377,366,358,331,317,301,285,268,222,191,136,103,69],"timestamp_mouse":[13,32,54,72,93,113,132,154,173,193,214,232,252,273,293,314,332,353,374,394,412,434,452,473,494,512,532,552,574,593,613,634,653,673,693,712,734,754,773,793,812,833,852,873,894,912,932,952,974,994,1013,1033,1053,1073,1092,1113,1132,1154,1172,1193,1213,1232,1254,1272,1294,1313,1332,1352,1374,1392,1412,1432,1452,1472,1493,1514,1532,1552,1573,1593,1613,1634,1652,1673,1693,1713,1732,1753,1773,1793,1813,1833,1853,1873,1892,1913,1932,1952,1973,1993,2012,2032,2053,2073,2093,2113,2132,2153,2172,2193],"xSR":741.5,"ySR":573.95,"xT1":424.9,"yT1":0,"xT2":1058.1,"yT2":0,"toosoon":0,"cond_shown":"Incongruent","ratio_trial":100,"L_num":9,"L_den":18,"R_num":6,"R_den":10,"correct_side":2,"subjID":"SAMUELAGUILERA7","gender":"0","school":"6","age":"11"},{"start_time":1551899983941,"click_time":1551899990213,"finger_time":1551899989573,"fix_duration":1266.5308837303894,"trial":9,"RT":5632,"MT":640,"sideResp":1,"stimulus":[],"xmouse":[799,799,799,799,799,799,799,799,799,799,799,799,799,799,799,799,799,799,799,799,799,799,799,799,799,799,799,799,799,799,799,799,799,799,799,799,799,799,799,799,799,799,799,799,799,799,799,799,799,799,799,799,799,799,799,799,799,799,799,799,799,799,799,799,799,799,799,799,799,799,799,799,799,799,799,799,799,799,799,799,799,799,799,799,799,799,799,799,799,799,799,799,799,799,799,799,799,799,799,799,799,799,799,799,799,799,799,799,799,799,799,799,799,799,799,799,799,799,799,799,799,799,799,799,799,799,799,799,799,799,799,799,799,799,799,799,799,799,799,799,799,799,799,799,799,799,799,799,799,799,799,799,799,799,799,799,799,799,799,799,799,799,799,799,799,799,799,799,799,799,799,799,799,799,799,799,799,799,799,799,799,799,799,799,799,799,799,799,799,799,799,799,799,799,799,799,799,799,799,799,799,799,799,799,799,799,799,799,799,799,799,799,799,799,799,799,799,799,799,799,799,799,799,799,799,799,799,799,799,799,799,799,799,799,799,799,799,799,799,799,799,799,799,799,799,799,799,799,799,799,799,799,799,799,799,799,799,799,799,799,799,799,799,799,799,799,799,799,799,799,799,799,799,799,799,799,799,799,799,799,792,752,733,717,697,676,546,460,389,330,303,303,303,303,303,308,310,310,310,310,345,362,370,373,376,385,387,387,387,387,387,388,401,425],"ymouse":[640,640,640,640,640,640,640,640,640,640,640,640,640,640,640,640,640,640,640,640,640,640,640,640,640,640,640,640,640,640,640,640,640,640,640,640,640,640,640,640,640,640,640,640,640,640,640,640,640,640,640,640,640,640,640,640,640,640,640,640,640,640,640,640,640,640,640,640,640,640,640,640,640,640,640,640,640,640,640,640,640,640,640,640,640,640,640,640,640,640,640,640,640,640,640,640,640,640,640,640,640,640,640,640,640,640,640,640,640,640,640,640,640,640,640,640,640,640,640,640,640,640,640,640,640,640,640,640,640,640,640,640,640,640,640,640,640,640,640,640,640,640,640,640,640,640,640,640,640,640,640,640,640,640,640,640,640,640,640,640,640,640,640,640,640,640,640,640,640,640,640,640,640,640,640,640,640,640,640,640,640,640,640,640,640,640,640,640,640,640,640,640,640,640,640,640,640,640,640,640,640,640,640,640,640,640,640,640,640,640,640,640,640,640,640,640,640,640,640,640,640,640,640,640,640,640,640,640,640,640,640,640,640,640,640,640,640,640,640,640,640,640,640,640,640,640,640,640,640,640,640,640,640,640,640,640,640,640,640,640,640,640,640,640,640,640,640,640,640,640,640,640,640,640,640,640,640,640,640,640,595,504,479,462,444,430,347,271,190,120,84,84,83,68,46,15,10,9,9,9,24,33,35,35,35,30,29,29,29,29,29,29,29,26],"timestamp_mouse":[11,34,52,73,91,112,132,152,172,191,212,231,251,273,292,311,333,351,371,393,411,431,453,472,492,511,531,551,572,591,612,631,651,672,691,711,733,752,771,793,812,831,852,873,892,911,931,953,971,993,1012,1032,1052,1071,1091,1112,1131,1153,1173,1191,1211,1231,1251,1271,1292,1311,1331,1352,1372,1391,1413,1431,1452,1472,1491,1512,1531,1552,1572,1593,1611,1631,1653,1672,1692,1711,1732,1751,1771,1792,1811,1831,1853,1872,1891,1913,1932,1952,1972,1992,2012,2031,2052,2071,2093,2111,2131,2152,2171,2193,2211,2231,2252,2271,2293,2312,2331,2352,2372,2393,2412,2431,2452,2471,2493,2511,2533,2552,2572,2591,2612,2631,2652,2672,2692,2712,2731,2753,2772,2793,2811,2832,2851,2871,2891,2911,2933,2951,2971,2992,3012,3031,3053,3071,3092,3112,3132,3152,3171,3191,3212,3231,3252,3271,3292,3311,3332,3353,3372,3391,3413,3431,3452,3472,3492,3511,3531,3551,3572,3593,3612,3631,3653,3671,3691,3715,3731,3751,3772,3792,3811,3831,3852,3872,3892,3912,3931,3952,3971,3993,4011,4032,4052,4072,4092,4112,4132,4152,4172,4193,4212,4232,4252,4271,4292,4313,4333,4352,4373,4391,4412,4432,4451,4471,4492,4511,4531,4552,4572,4592,4612,4631,4652,4671,4691,4712,4731,4752,4773,4791,4812,4831,4852,4871,4893,4912,4931,4952,4973,4991,5011,5032,5053,5072,5091,5112,5133,5152,5171,5192,5212,5231,5252,5272,5292,5312,5333,5352,5373,5392,5413,5431,5452,5473,5491,5511,5533,5552,5571,5593,5612,5632,5651,5671,5692,5711,5731,5751,5771,5793,5812,5831,5851,5872,5891,5911,5933,5952,5972,5992,6011,6031,6051,6071,6092,6111,6131,6152,6172,6192,6212,6232,6251,6272],"xSR":741.5,"ySR":573.95,"xT1":424.9,"yT1":0,"xT2":1058.1,"yT2":0,"toosoon":0,"cond_shown":"Incongruent","ratio_trial":200,"L_num":6,"L_den":20,"R_num":3,"R_den":6,"correct_side":2,"subjID":"SAMUELAGUILERA7","gender":"0","school":"6","age":"11"},{"start_time":1551899994200,"click_time":1551899996393,"finger_time":1551899996014,"fix_duration":884.0022853259294,"trial":10,"RT":1814,"MT":379,"sideResp":1,"stimulus":[],"xmouse":[758,758,758,758,758,758,758,758,758,758,758,758,758,758,758,758,758,758,758,758,758,758,758,758,758,758,758,758,758,758,758,758,758,758,758,758,758,758,758,758,758,758,758,758,758,758,758,758,758,758,758,758,758,758,758,758,758,758,758,758,758,758,758,758,758,758,758,758,758,758,758,758,758,758,758,758,758,758,758,758,758,758,758,758,758,758,758,758,758,748,728,694,648,513,481,463,461,461,461,461,468,478,476,471,469,469,468,466,460,458],"ymouse":[627,627,627,627,627,627,627,627,627,627,627,627,627,627,627,627,627,627,627,627,627,627,627,627,627,627,627,627,627,627,627,627,627,627,627,627,627,627,627,627,627,627,627,627,627,627,627,627,627,627,627,627,627,627,627,627,627,627,627,627,627,627,627,627,627,627,627,627,627,627,627,627,627,627,627,627,627,627,627,627,627,627,627,627,627,627,627,627,627,595,561,520,471,370,356,349,347,347,347,343,310,275,232,194,172,156,142,129,103,97],"timestamp_mouse":[12,33,53,73,94,112,132,154,172,192,213,234,253,272,293,313,334,353,373,392,412,433,452,474,492,512,532,553,573,592,612,634,653,674,693,712,733,753,773,793,812,834,852,873,893,913,932,952,973,992,1012,1033,1054,1072,1093,1113,1132,1153,1174,1193,1213,1234,1253,1272,1292,1313,1333,1353,1372,1393,1413,1432,1452,1472,1493,1514,1532,1552,1572,1592,1612,1634,1653,1672,1693,1712,1733,1754,1772,1792,1814,1833,1853,1872,1892,1912,1933,1953,1973,1992,2012,2032,2052,2072,2092,2113,2132,2153,2173,2193],"xSR":741.5,"ySR":573.95,"xT1":424.9,"yT1":0,"xT2":1058.1,"yT2":0,"toosoon":0,"cond_shown":"Incongruent","ratio_trial":300,"L_num":4,"L_den":20,"R_num":2,"R_den":4,"correct_side":2,"subjID":"SAMUELAGUILERA7","gender":"0","school":"6","age":"11"},{"start_time":1551900011204,"click_time":1551900013073,"finger_time":1551900012613,"fix_duration":590.8711847258178,"trial":11,"RT":1409,"MT":460,"sideResp":1,"stimulus":[],"xmouse":[798,798,798,798,798,798,798,798,798,798,798,798,798,798,798,798,798,798,798,798,798,798,798,798,798,798,798,798,798,798,798,798,798,798,798,798,798,798,798,798,798,798,798,798,798,798,798,798,798,798,798,798,798,798,798,798,798,798,798,798,798,798,798,798,798,798,798,798,797,757,736,722,704,696,680,673,668,650,627,599,578,565,553,548,543,539,535,529,521,519,515,512,506,495],"ymouse":[646,646,646,646,646,646,646,646,646,646,646,646,646,646,646,646,646,646,646,646,646,646,646,646,646,646,646,646,646,646,646,646,646,646,646,646,646,646,646,646,646,646,646,646,646,646,646,646,646,646,646,646,646,646,646,646,646,646,646,646,646,646,646,646,646,646,646,646,633,574,543,520,487,475,455,447,440,397,343,295,267,249,229,219,210,201,188,175,153,145,133,122,109,73],"timestamp_mouse":[12,36,49,69,88,110,128,148,168,190,209,228,249,269,288,308,330,348,368,390,409,430,448,468,489,508,529,549,570,588,609,630,649,668,690,708,728,749,770,788,809,842,848,868,893,909,929,948,968,990,1009,1028,1048,1069,1089,1108,1128,1149,1169,1189,1209,1229,1248,1268,1288,1308,1328,1349,1369,1388,1409,1428,1448,1469,1488,1508,1529,1548,1568,1588,1609,1628,1648,1668,1689,1708,1728,1748,1768,1788,1809,1829,1849,1869],"xSR":741.5,"ySR":573.95,"xT1":424.9,"yT1":0,"xT2":1058.1,"yT2":0,"toosoon":0,"cond_shown":"Incongruent","ratio_trial":100,"L_num":9,"L_den":18,"R_num":6,"R_den":10,"correct_side":2,"subjID":"SAMUELAGUILERA7","gender":"0","school":"6","age":"11"},{"start_time":1551900022366,"click_time":1551900023973,"finger_time":1551900023553,"fix_duration":250,"trial":12,"RT":1187,"MT":420,"sideResp":1,"stimulus":[],"xmouse":[761,761,761,763,771,774,775,777,778,778,779,780,780,780,781,781,781,781,781,781,781,781,781,781,781,781,781,781,780,775,775,775,775,775,775,775,775,775,775,775,775,775,775,775,775,775,775,775,775,775,775,775,775,775,775,775,774,774,774,732,679,619,551,482,339,283,246,219,217,217,220,225,233,245,279,307,360,388,407,456,482],"ymouse":[658,658,657,650,622,614,608,603,595,591,589,587,585,584,582,582,582,582,582,582,582,582,582,582,582,582,582,582,582,596,597,597,597,597,597,597,597,597,597,597,597,597,597,597,597,597,597,597,597,597,597,597,597,597,597,597,598,598,599,613,625,633,633,633,594,561,530,481,471,466,459,450,437,421,373,334,273,245,222,146,85],"timestamp_mouse":[7,26,46,66,86,106,127,148,166,186,206,226,246,268,286,306,328,346,366,388,407,426,446,468,486,507,527,547,567,586,606,626,647,668,686,708,726,746,766,786,806,826,846,866,886,907,927,946,966,986,1006,1026,1046,1066,1087,1106,1127,1146,1166,1186,1207,1227,1246,1266,1286,1307,1327,1347,1366,1386,1407,1426,1446,1466,1486,1506,1527,1546,1566,1586,1607],"xSR":741.5,"ySR":573.95,"xT1":424.9,"yT1":0,"xT2":1058.1,"yT2":0,"toosoon":0,"cond_shown":"Incongruent","ratio_trial":300,"L_num":4,"L_den":20,"R_num":2,"R_den":4,"correct_side":2,"subjID":"SAMUELAGUILERA7","gender":"0","school":"6","age":"11"},{"start_time":1551900033905,"click_time":1551900034853,"finger_time":1551900034672,"fix_duration":250,"trial":13,"RT":767,"MT":181,"sideResp":2,"stimulus":[],"xmouse":[759,759,759,759,759,759,759,759,759,759,759,759,759,759,759,759,759,759,759,759,759,759,759,759,759,759,759,759,759,759,759,759,759,759,759,759,764,794,842,871,905,939,1004,1035,1059,1077,1089,1097],"ymouse":[632,632,632,632,632,632,632,632,632,632,632,632,632,632,632,632,632,632,632,632,632,632,632,632,632,632,632,632,632,632,632,632,632,632,632,632,628,599,539,491,428,359,250,203,159,129,103,83],"timestamp_mouse":[10,32,47,69,87,109,127,148,167,188,208,228,247,267,288,308,329,347,368,388,408,427,447,467,489,508,527,548,567,587,607,627,647,667,687,707,727,747,767,788,807,827,848,867,888,909,927,948],"xSR":741.5,"ySR":573.95,"xT1":424.9,"yT1":0,"xT2":1058.1,"yT2":0,"toosoon":0,"cond_shown":"Congruent","ratio_trial":200,"L_num":3,"L_den":10,"R_num":11,"R_den":22,"correct_side":2,"subjID":"SAMUELAGUILERA7","gender":"0","school":"6","age":"11"},{"start_time":1551900041923,"click_time":1551900043393,"finger_time":1551900043012,"fix_duration":250,"trial":14,"RT":1089,"MT":381,"sideResp":1,"stimulus":[],"xmouse":[789,789,789,789,789,789,789,789,789,789,789,789,789,789,789,789,789,789,789,789,789,789,789,789,789,789,789,789,789,789,789,789,789,789,789,789,789,789,789,789,789,789,789,789,789,789,789,789,789,789,789,789,778,752,733,720,705,700,699,699,698,691,687,683,679,675,661,650,626,611,596,561,542,520],"ymouse":[612,612,612,612,612,612,612,612,612,612,612,612,612,612,612,612,612,612,612,612,612,612,612,612,612,612,612,612,612,612,612,612,612,612,612,612,612,612,612,612,612,612,612,612,612,612,612,612,612,612,612,612,605,578,554,532,472,431,383,357,332,292,276,263,254,243,224,213,188,171,150,93,52,10],"timestamp_mouse":[10,34,50,71,89,111,130,149,171,190,211,231,249,270,290,309,330,349,369,390,410,429,449,470,490,510,529,551,569,589,610,629,649,670,690,710,730,749,769,790,810,830,851,871,889,910,929,949,970,989,1010,1031,1050,1070,1089,1109,1129,1149,1170,1189,1210,1229,1249,1269,1290,1310,1329,1349,1369,1390,1409,1429,1450,1470],"xSR":741.5,"ySR":573.95,"xT1":424.9,"yT1":0,"xT2":1058.1,"yT2":0,"toosoon":0,"cond_shown":"Incongruent","ratio_trial":100,"L_num":9,"L_den":18,"R_num":6,"R_den":10,"correct_side":2,"subjID":"SAMUELAGUILERA7","gender":"0","school":"6","age":"11"},{"start_time":1551900062851,"click_time":1551900064573,"finger_time":1551900064273,"fix_duration":357.90227747567394,"trial":15,"RT":1422,"MT":300,"sideResp":2,"stimulus":[],"xmouse":[791,791,791,791,791,791,791,791,791,791,791,791,791,791,791,791,791,791,791,791,791,791,791,791,791,791,791,791,791,791,791,791,791,791,791,791,791,791,791,791,791,791,791,791,791,791,791,791,791,791,791,791,791,791,791,791,791,791,791,791,791,791,791,791,791,791,791,791,791,796,828,868,904,945,975,1020,1039,1050,1056,1059,1065,1071,1072,1077,1078,1078,1078],"ymouse":[638,638,638,638,638,638,638,638,638,638,638,638,638,638,638,638,638,638,638,638,638,638,638,638,638,638,638,638,638,638,638,638,638,638,638,638,638,638,638,638,638,638,638,638,638,638,638,638,638,638,638,638,638,638,638,638,638,638,638,638,638,638,638,638,638,638,638,638,638,631,612,585,566,548,529,482,445,416,395,385,366,336,326,283,242,174,36],"timestamp_mouse":[9,32,41,61,81,101,123,141,163,183,201,223,241,261,281,301,322,341,361,383,401,423,441,461,482,501,522,542,561,581,603,621,641,662,681,701,721,741,761,782,802,821,842,863,882,901,923,942,962,981,1002,1021,1043,1063,1081,1101,1122,1143,1161,1183,1202,1221,1241,1262,1281,1303,1322,1341,1362,1381,1401,1422,1441,1462,1481,1501,1522,1543,1562,1581,1601,1621,1641,1662,1683,1702,1722],"xSR":741.5,"ySR":573.95,"xT1":424.9,"yT1":0,"xT2":1058.1,"yT2":0,"toosoon":0,"cond_shown":"Congruent","ratio_trial":300,"L_num":3,"L_den":12,"R_num":11,"R_den":20,"correct_side":2,"subjID":"SAMUELAGUILERA7","gender":"0","school":"6","age":"11"},{"start_time":1551900068172,"click_time":1551900070113,"finger_time":1551900069753,"fix_duration":338.27556773863967,"trial":16,"RT":1581,"MT":360,"sideResp":2,"stimulus":[],"xmouse":[783,783,783,783,783,783,783,783,783,783,783,783,783,783,783,783,783,783,783,783,783,783,783,783,783,783,783,783,783,783,783,783,783,783,783,783,783,783,783,783,783,783,783,783,783,783,783,783,783,783,783,783,783,783,783,783,783,783,783,783,783,783,783,783,783,783,783,783,783,783,783,783,783,783,783,783,783,783,784,812,825,839,854,868,899,917,938,954,967,979,983,988,993,1001,1020,1033,1050,1060],"ymouse":[616,616,616,616,616,616,616,616,616,616,616,616,616,616,616,616,616,616,616,616,616,616,616,616,616,616,616,616,616,616,616,616,616,616,616,616,616,616,616,616,616,616,616,616,616,616,616,616,616,616,616,616,616,616,616,616,616,616,616,616,616,616,616,616,616,616,616,616,616,616,616,616,616,616,616,616,616,615,612,560,530,495,460,434,387,363,325,298,270,225,204,186,170,153,119,97,65,46],"timestamp_mouse":[10,32,40,60,80,100,120,141,160,180,201,222,242,260,281,300,320,340,360,380,402,421,440,461,481,500,520,540,561,580,601,620,641,660,680,701,721,741,760,781,802,820,840,861,882,900,922,941,960,980,1000,1020,1041,1060,1080,1100,1120,1142,1161,1181,1200,1221,1242,1260,1281,1300,1321,1342,1361,1381,1400,1420,1441,1460,1481,1501,1521,1541,1561,1581,1601,1621,1641,1661,1680,1700,1720,1741,1761,1781,1800,1821,1840,1861,1880,1902,1921,1941],"xSR":741.5,"ySR":573.95,"xT1":424.9,"yT1":0,"xT2":1058.1,"yT2":0,"toosoon":0,"cond_shown":"Congruent","ratio_trial":100,"L_num":6,"L_den":12,"R_num":15,"R_den":25,"correct_side":2,"subjID":"SAMUELAGUILERA7","gender":"0","school":"6","age":"11"},{"start_time":1551900072863,"click_time":1551900074452,"finger_time":1551900073872,"fix_duration":250,"trial":17,"RT":1009,"MT":580,"sideResp":1,"stimulus":[],"xmouse":[757,757,757,757,757,757,757,757,757,757,757,757,757,757,757,757,757,757,757,757,757,757,757,757,757,757,757,757,757,757,757,757,757,757,757,757,757,757,757,757,757,757,757,757,757,757,757,752,749,744,716,687,671,662,656,656,656,656,656,656,656,652,636,606,512,481,466,460,460,460,460,457,455,454,453,454,456,460,461,454],"ymouse":[587,587,587,587,587,587,587,587,587,587,587,587,587,587,587,587,587,587,587,587,587,587,587,587,587,587,587,587,587,587,587,587,587,587,587,587,587,587,587,587,587,587,587,587,587,587,587,590,594,598,606,614,618,622,624,624,624,624,624,624,624,601,546,476,356,327,307,296,294,293,279,257,243,232,215,208,195,175,146,94],"timestamp_mouse":[10,36,49,69,89,110,130,149,169,189,209,229,249,269,289,310,330,350,369,390,411,430,450,469,491,509,530,551,570,590,611,630,650,671,689,709,731,749,769,789,810,829,850,870,891,909,929,950,970,990,1009,1029,1049,1070,1089,1109,1129,1151,1170,1190,1210,1230,1249,1269,1289,1310,1330,1350,1369,1389,1409,1430,1451,1470,1489,1509,1530,1551,1569,1589],"xSR":741.5,"ySR":573.95,"xT1":424.9,"yT1":0,"xT2":1058.1,"yT2":0,"toosoon":0,"cond_shown":"Congruent","ratio_trial":100,"L_num":8,"L_den":16,"R_num":2,"R_den":5,"correct_side":1,"subjID":"SAMUELAGUILERA7","gender":"0","school":"6","age":"11"},{"start_time":1551900135558,"click_time":1551900137953,"finger_time":1551900137652,"fix_duration":764.2196656617541,"trial":18,"RT":2094,"MT":301,"sideResp":2,"stimulus":[],"xmouse":[790,790,790,790,790,790,790,790,790,790,790,790,790,790,790,790,790,790,790,790,790,790,790,790,790,790,790,790,790,790,790,790,790,790,790,790,790,790,790,790,790,790,790,790,790,790,790,790,790,790,790,790,790,790,790,790,790,790,790,790,790,790,790,790,790,790,790,790,790,790,790,790,790,790,790,790,790,790,790,790,790,790,790,790,790,790,790,790,790,790,790,790,790,790,790,790,790,790,790,790,791,805,819,826,856,886,927,951,976,1014,1031,1046,1059,1070,1098,1111,1123,1133,1135,1138],"ymouse":[636,636,636,636,636,636,636,636,636,636,636,636,636,636,636,636,636,636,636,636,636,636,636,636,636,636,636,636,636,636,636,636,636,636,636,636,636,636,636,636,636,636,636,636,636,636,636,636,636,636,636,636,636,636,636,636,636,636,636,636,636,636,636,636,636,636,636,636,636,636,636,636,636,636,636,636,636,636,636,636,636,636,636,636,636,636,636,636,636,636,636,636,636,636,636,636,636,636,636,636,631,618,603,595,550,504,434,392,350,285,262,242,225,205,163,142,124,105,101,90],"timestamp_mouse":[15,42,54,75,95,114,135,155,174,195,215,235,255,276,295,315,334,355,375,394,414,435,455,474,495,515,534,555,575,595,615,634,655,674,694,715,735,754,774,795,815,835,854,875,894,915,934,954,974,994,1014,1035,1056,1074,1095,1114,1134,1154,1175,1194,1215,1234,1255,1274,1295,1315,1335,1354,1374,1394,1415,1434,1455,1475,1494,1515,1534,1555,1575,1596,1615,1635,1654,1674,1694,1714,1735,1755,1774,1794,1814,1835,1856,1875,1894,1914,1934,1955,1974,1994,2014,2034,2054,2075,2094,2115,2134,2154,2174,2194,2214,2234,2255,2276,2294,2314,2334,2355,2374,2394],"xSR":741.5,"ySR":573.95,"xT1":424.9,"yT1":0,"xT2":1058.1,"yT2":0,"toosoon":0,"cond_shown":"Incongruent","ratio_trial":100,"L_num":8,"L_den":16,"R_num":6,"R_den":10,"correct_side":2,"subjID":"SAMUELAGUILERA7","gender":"0","school":"6","age":"11"},{"start_time":1551900140204,"click_time":1551900141952,"finger_time":1551900141613,"fix_duration":250,"trial":19,"RT":1409,"MT":339,"sideResp":2,"stimulus":[],"xmouse":[812,812,812,812,812,812,812,812,812,812,812,812,812,812,812,812,812,812,812,812,812,812,812,812,812,812,812,812,812,812,812,812,812,812,812,812,812,812,812,812,812,812,812,812,812,812,812,812,812,812,812,812,812,812,812,812,812,812,812,812,812,812,812,812,812,812,812,812,812,818,860,925,1067,1127,1135,1159,1168,1176,1176,1176,1176,1176,1176,1176,1176,1164,1156,1136],"ymouse":[628,628,628,628,628,628,628,628,628,628,628,628,628,628,628,628,628,628,628,628,628,628,628,628,628,628,628,628,628,628,628,628,628,628,628,628,628,628,628,628,628,628,628,628,628,628,628,628,628,628,628,628,628,628,628,628,628,628,628,628,628,628,628,628,628,628,628,628,627,619,589,531,323,230,219,194,178,144,136,135,135,135,135,134,126,110,101,83],"timestamp_mouse":[22,33,48,68,88,108,128,148,169,188,209,228,248,268,288,309,328,348,368,389,409,428,449,468,489,509,529,548,568,589,608,628,648,669,688,708,728,748,768,788,808,829,848,869,888,908,929,950,968,988,1008,1029,1048,1068,1089,1108,1128,1148,1168,1188,1208,1228,1248,1268,1288,1308,1328,1348,1368,1388,1409,1428,1448,1468,1488,1508,1528,1548,1568,1588,1609,1628,1648,1668,1689,1708,1729,1748],"xSR":741.5,"ySR":573.95,"xT1":424.9,"yT1":0,"xT2":1058.1,"yT2":0,"toosoon":0,"cond_shown":"Incongruent","ratio_trial":300,"L_num":13,"L_den":26,"R_num":12,"R_den":15,"correct_side":2,"subjID":"SAMUELAGUILERA7","gender":"0","school":"6","age":"11"},{"start_time":1551900144499,"click_time":1551900146673,"finger_time":1551900146252,"fix_duration":965.1409122735463,"trial":20,"RT":1753,"MT":421,"sideResp":2,"stimulus":[],"xmouse":[808,808,808,808,808,808,808,808,808,808,808,808,808,808,808,808,808,808,808,808,808,808,808,808,808,808,808,808,808,808,808,808,808,808,808,808,808,808,808,808,808,808,808,808,808,808,808,808,808,808,808,808,808,808,808,808,808,808,808,808,808,808,808,808,808,808,808,808,808,808,808,808,808,808,808,808,808,808,808,808,808,808,808,808,808,808,811,880,938,978,1024,1058,1111,1125,1139,1147,1155,1182,1200,1215,1219,1219,1209,1200,1191,1181,1173,1157,1151],"ymouse":[621,621,621,621,621,621,621,621,621,621,621,621,621,621,621,621,621,621,621,621,621,621,621,621,621,621,621,621,621,621,621,621,621,621,621,621,621,621,621,621,621,621,621,621,621,621,621,621,621,621,621,621,621,621,621,621,621,621,621,621,621,621,621,621,621,621,621,621,621,621,621,621,621,621,621,621,621,621,621,621,621,621,621,621,621,619,612,561,537,529,523,515,488,470,441,411,385,314,271,236,205,194,168,149,129,113,105,100,98],"timestamp_mouse":[14,34,53,74,93,113,133,153,175,193,213,234,253,273,293,313,333,353,373,393,413,433,453,473,494,513,533,553,573,593,613,633,653,673,693,713,733,753,773,793,813,833,853,873,893,913,934,953,973,994,1013,1033,1053,1074,1093,1113,1133,1154,1173,1193,1213,1233,1254,1273,1294,1313,1333,1355,1373,1393,1414,1433,1453,1473,1493,1514,1533,1553,1573,1594,1614,1633,1653,1674,1693,1713,1733,1753,1773,1794,1813,1833,1853,1873,1893,1913,1934,1953,1974,1994,2013,2033,2053,2073,2093,2113,2133,2153,2174],"xSR":741.5,"ySR":573.95,"xT1":424.9,"yT1":0,"xT2":1058.1,"yT2":0,"toosoon":0,"cond_shown":"Incongruent","ratio_trial":300,"L_num":4,"L_den":20,"R_num":2,"R_den":4,"correct_side":2,"subjID":"SAMUELAGUILERA7","gender":"0","school":"6","age":"11"},{"start_time":1551900148485,"click_time":1551900150834,"finger_time":1551900150212,"fix_duration":250,"trial":21,"RT":1727,"MT":622,"sideResp":1,"stimulus":[],"xmouse":[783,783,783,783,783,783,783,783,783,783,783,783,783,783,783,783,783,783,783,783,783,783,783,783,783,783,783,783,783,783,783,783,783,783,783,783,783,783,783,783,783,783,783,783,783,783,783,783,783,783,783,783,783,783,783,783,783,783,783,783,783,783,783,783,783,783,783,783,783,783,783,783,783,783,783,783,783,783,783,783,783,783,783,783,783,757,707,673,620,604,586,570,546,508,496,492,491,491,493,495,496,496,495,490,487,483,475,464,439,433,431,431,430,430,429,429,429,429],"ymouse":[618,618,618,618,618,618,618,618,618,618,618,618,618,618,618,618,618,618,618,618,618,618,618,618,618,618,618,618,618,618,618,618,618,618,618,618,618,618,618,618,618,618,618,618,618,618,618,618,618,618,618,618,618,618,618,618,618,618,618,618,618,618,618,618,618,618,618,618,618,618,618,618,618,618,618,618,618,618,618,618,618,618,618,618,618,602,576,557,524,508,476,441,399,330,305,283,264,248,222,208,182,169,164,156,153,148,141,134,116,111,109,109,109,109,107,103,101,99],"timestamp_mouse":[8,28,47,67,88,109,127,147,167,187,207,227,247,267,287,307,328,347,368,387,409,428,447,468,488,508,528,547,567,587,608,627,647,667,687,708,727,748,768,787,807,827,847,868,888,908,928,947,968,988,1007,1028,1048,1067,1087,1108,1127,1147,1167,1187,1207,1228,1247,1268,1287,1307,1328,1347,1368,1388,1407,1427,1447,1467,1487,1507,1527,1547,1567,1587,1608,1627,1647,1667,1687,1707,1727,1747,1767,1787,1807,1827,1847,1867,1887,1908,1927,1947,1967,1988,2007,2027,2047,2067,2087,2107,2127,2147,2167,2187,2207,2228,2248,2267,2287,2308,2328,2349],"xSR":741.5,"ySR":573.95,"xT1":424.9,"yT1":0,"xT2":1058.1,"yT2":0,"toosoon":0,"cond_shown":"Congruent","ratio_trial":200,"L_num":16,"L_den":30,"R_num":9,"R_den":27,"correct_side":1,"subjID":"SAMUELAGUILERA7","gender":"0","school":"6","age":"11"},{"start_time":1551900152785,"click_time":1551900154233,"finger_time":1551900153692,"fix_duration":250,"trial":22,"RT":907,"MT":541,"sideResp":1,"stimulus":[],"xmouse":[794,794,794,794,794,794,794,794,794,794,794,794,794,794,794,794,794,794,794,794,794,794,794,794,794,794,794,794,794,794,794,794,794,794,794,794,794,794,794,794,794,794,794,794,794,741,709,640,597,586,579,575,566,553,546,537,514,490,457,452,447,445,443,442,442,442,441,441,440,440,440,439,439],"ymouse":[605,605,605,605,605,605,605,605,605,605,605,605,605,605,605,605,605,605,605,605,605,605,605,605,605,605,605,605,605,605,605,605,605,605,605,605,605,605,605,605,605,605,605,605,605,574,554,505,475,467,462,457,449,430,420,406,366,307,180,159,139,122,113,112,112,112,111,111,108,107,105,103,99],"timestamp_mouse":[9,32,48,68,87,108,128,148,167,188,207,228,247,267,288,307,327,347,367,387,408,427,447,467,487,508,527,547,567,588,607,627,648,668,688,707,728,748,768,787,807,828,848,867,887,907,927,947,967,987,1009,1028,1048,1067,1088,1108,1127,1147,1167,1187,1207,1227,1247,1267,1288,1307,1327,1348,1367,1387,1407,1427,1448],"xSR":741.5,"ySR":573.95,"xT1":424.9,"yT1":0,"xT2":1058.1,"yT2":0,"toosoon":0,"cond_shown":"Incongruent","ratio_trial":300,"L_num":4,"L_den":5,"R_num":8,"R_den":16,"correct_side":1,"subjID":"SAMUELAGUILERA7","gender":"0","school":"6","age":"11"},{"start_time":1551900156637,"click_time":1551900158852,"finger_time":1551900158232,"fix_duration":1464.409036370222,"trial":23,"RT":1595,"MT":620,"sideResp":1,"stimulus":[],"xmouse":[767,767,767,767,767,767,767,767,767,767,767,767,767,767,767,767,767,767,767,767,767,767,767,767,767,767,767,767,767,767,767,767,767,767,767,767,767,767,767,767,767,767,767,767,767,767,767,767,767,767,767,767,767,767,767,767,767,767,767,767,767,767,767,767,767,767,767,767,767,767,767,767,767,767,767,767,767,756,745,739,729,722,711,696,552,472,397,344,336,336,339,341,341,341,341,342,344,354,364,375,398,415,420,422,423,423,424,424,424,424,429],"ymouse":[595,595,595,595,595,595,595,595,595,595,595,595,595,595,595,595,595,595,595,595,595,595,595,595,595,595,595,595,595,595,595,595,595,595,595,595,595,595,595,595,595,595,595,595,595,595,595,595,595,595,595,595,595,595,595,595,595,595,595,595,595,595,595,595,595,595,595,595,595,595,595,595,595,595,595,595,595,595,595,595,595,596,597,597,487,389,242,111,62,43,8,0,0,0,0,0,0,4,11,20,40,50,51,51,51,51,51,51,51,51,51],"timestamp_mouse":[19,35,55,75,95,115,135,155,175,196,215,235,255,275,296,317,335,355,375,395,415,435,455,475,495,516,535,555,575,595,615,636,655,677,696,715,735,755,775,796,816,835,855,876,895,915,936,955,975,996,1015,1036,1056,1075,1095,1115,1135,1156,1176,1195,1217,1236,1256,1275,1296,1315,1335,1355,1375,1395,1415,1435,1456,1477,1496,1515,1535,1555,1575,1595,1615,1635,1655,1675,1696,1715,1735,1755,1775,1796,1816,1836,1856,1875,1895,1915,1935,1956,1976,1996,2015,2035,2055,2076,2095,2115,2135,2155,2175,2196,2215],"xSR":741.5,"ySR":573.95,"xT1":424.9,"yT1":0,"xT2":1058.1,"yT2":0,"toosoon":0,"cond_shown":"Congruent","ratio_trial":100,"L_num":2,"L_den":5,"R_num":6,"R_den":12,"correct_side":2,"subjID":"SAMUELAGUILERA7","gender":"0","school":"6","age":"11"},{"start_time":1551900161496,"click_time":1551900163632,"finger_time":1551900163072,"fix_duration":1061.93024402122,"trial":24,"RT":1576,"MT":560,"sideResp":2,"stimulus":[],"xmouse":[808,808,808,808,808,808,808,808,808,808,808,808,808,808,808,808,808,808,808,808,808,808,808,808,808,808,808,808,808,808,808,808,808,808,808,808,808,808,808,808,808,808,808,808,808,808,808,808,808,808,808,808,808,808,808,808,808,808,808,808,808,808,808,808,808,808,808,808,808,808,808,808,808,808,808,808,809,813,853,902,938,987,1087,1138,1174,1190,1193,1191,1183,1172,1165,1156,1139,1134,1132,1130,1128,1122,1118,1117,1111,1109,1105,1105,1105,1105,1105],"ymouse":[590,590,590,590,590,590,590,590,590,590,590,590,590,590,590,590,590,590,590,590,590,590,590,590,590,590,590,590,590,590,590,590,590,590,590,590,590,590,590,590,590,590,590,590,590,590,590,590,590,590,590,590,590,590,590,590,590,590,590,590,590,590,590,590,590,590,590,590,590,590,590,590,590,590,590,590,590,593,592,568,548,516,454,431,415,401,385,343,321,295,279,259,224,209,201,195,189,174,164,161,150,142,126,121,115,106,94],"timestamp_mouse":[17,38,57,76,98,116,137,156,177,197,216,237,256,276,296,316,336,357,376,396,416,436,457,477,496,516,537,557,576,597,616,636,656,677,696,717,736,756,776,796,817,836,857,877,897,917,936,956,976,996,1017,1037,1056,1077,1097,1116,1137,1157,1177,1197,1216,1236,1256,1276,1297,1316,1337,1357,1376,1397,1417,1436,1456,1477,1496,1516,1537,1556,1576,1597,1616,1637,1656,1676,1696,1717,1736,1756,1777,1796,1816,1836,1856,1876,1897,1917,1936,1956,1976,1996,2016,2036,2056,2076,2096,2116,2136],"xSR":741.5,"ySR":573.95,"xT1":424.9,"yT1":0,"xT2":1058.1,"yT2":0,"toosoon":0,"cond_shown":"Incongruent","ratio_trial":200,"L_num":7,"L_den":15,"R_num":6,"R_den":9,"correct_side":2,"subjID":"SAMUELAGUILERA7","gender":"0","school":"6","age":"11"},{"start_time":1551900165849,"click_time":1551900169372,"finger_time":1551900168772,"fix_duration":1056.5026350907951,"trial":25,"RT":2923,"MT":600,"sideResp":1,"stimulus":[],"xmouse":[822,822,822,822,818,816,811,810,809,809,809,809,809,809,809,809,809,809,809,809,809,809,809,809,809,809,809,809,809,809,809,809,809,809,809,809,809,809,809,809,809,809,809,809,809,809,809,809,809,809,809,809,809,809,809,809,809,809,809,809,809,809,809,809,809,809,809,809,809,809,809,809,809,809,809,809,809,809,809,809,809,809,809,809,809,809,809,809,809,809,809,809,809,809,809,809,809,809,809,809,809,809,809,809,809,809,809,809,809,809,809,809,809,809,809,809,809,809,809,809,809,809,809,809,809,809,809,809,809,809,809,809,809,809,809,809,809,809,809,809,809,809,809,804,793,759,732,691,623,550,476,462,462,464,471,479,479,473,468,464,454,450,449,446,439,425,422,422,422,422,430,432,433,433,433,433,431],"ymouse":[616,616,616,616,621,624,629,630,631,631,631,631,631,631,631,631,631,631,631,631,631,631,631,631,631,631,631,631,631,631,631,631,631,631,631,631,631,631,631,631,631,631,631,631,631,631,631,631,631,631,631,631,631,631,631,631,631,631,631,631,631,631,631,631,631,631,631,631,631,631,631,631,631,631,631,631,631,631,631,631,631,631,631,631,631,631,631,631,631,631,631,631,631,631,631,631,631,631,631,631,631,631,631,631,631,631,631,631,631,631,631,631,631,631,631,631,631,631,631,631,631,631,631,631,631,631,631,631,631,631,631,631,631,631,631,631,631,631,631,631,631,631,631,628,621,607,603,597,587,568,531,513,505,493,475,413,386,355,335,323,288,274,264,256,245,225,218,214,210,205,185,167,148,133,120,101,91],"timestamp_mouse":[10,33,44,63,83,103,123,143,163,183,203,223,244,263,283,304,323,343,364,384,403,423,443,463,484,503,523,543,563,583,603,623,644,663,683,704,723,743,763,783,804,824,843,863,883,903,924,943,964,983,1002,1023,1044,1063,1083,1103,1124,1143,1164,1184,1204,1223,1244,1264,1283,1303,1325,1343,1364,1383,1404,1424,1444,1463,1483,1504,1523,1544,1564,1585,1603,1624,1643,1663,1683,1703,1723,1743,1765,1783,1804,1824,1843,1863,1883,1903,1924,1944,1964,1983,2003,2023,2044,2063,2083,2103,2124,2143,2163,2183,2203,2224,2243,2263,2283,2303,2324,2344,2364,2384,2403,2424,2444,2464,2484,2503,2523,2543,2563,2583,2603,2623,2643,2663,2683,2703,2724,2743,2763,2783,2803,2823,2843,2864,2883,2903,2923,2943,2964,2983,3003,3022,3043,3064,3084,3103,3123,3143,3163,3183,3203,3224,3243,3263,3283,3304,3323,3344,3363,3383,3403,3423,3443,3463,3483,3503,3523],"xSR":741.5,"ySR":573.95,"xT1":424.9,"yT1":0,"xT2":1058.1,"yT2":0,"toosoon":0,"cond_shown":"Incongruent","ratio_trial":200,"L_num":1,"L_den":3,"R_num":2,"R_den":15,"correct_side":1,"subjID":"SAMUELAGUILERA7","gender":"0","school":"6","age":"11"},{"start_time":1551900171819,"click_time":1551900173712,"finger_time":1551900173232,"fix_duration":1066.6728109152148,"trial":26,"RT":1413,"MT":480,"sideResp":1,"stimulus":[],"xmouse":[784,784,784,784,784,784,784,784,784,784,784,784,784,784,784,784,784,784,784,784,784,784,784,784,784,784,784,784,784,784,784,784,784,784,784,784,784,784,784,784,784,784,784,784,784,784,784,784,784,784,784,784,784,784,784,784,784,784,784,784,784,784,784,784,784,784,784,784,784,765,732,523,405,282,233,217,218,220,221,222,224,234,240,242,250,264,294,308,323,334,340,347,364,397,467],"ymouse":[614,614,614,614,614,614,614,614,614,614,614,614,614,614,614,614,614,614,614,614,614,614,614,614,614,614,614,614,614,614,614,614,614,614,614,614,614,614,614,614,614,614,614,614,614,614,614,614,614,614,614,614,614,614,614,614,614,614,614,614,614,614,614,614,614,614,614,614,614,604,583,438,362,253,205,178,165,163,162,162,162,162,163,163,163,161,150,143,133,123,119,114,105,94,78],"timestamp_mouse":[14,34,53,74,94,113,134,153,174,194,213,234,254,273,294,313,333,354,374,393,413,434,453,474,493,513,533,553,573,593,613,633,653,673,693,713,735,753,774,793,813,833,853,874,893,915,934,953,973,993,1015,1033,1053,1074,1094,1113,1133,1154,1174,1193,1214,1233,1254,1274,1294,1314,1334,1353,1374,1393,1413,1433,1453,1473,1494,1513,1533,1553,1573,1594,1614,1633,1653,1673,1693,1713,1733,1753,1773,1794,1814,1833,1853,1874,1893],"xSR":741.5,"ySR":573.95,"xT1":424.9,"yT1":0,"xT2":1058.1,"yT2":0,"toosoon":0,"cond_shown":"Incongruent","ratio_trial":100,"L_num":9,"L_den":15,"R_num":13,"R_den":26,"correct_side":1,"subjID":"SAMUELAGUILERA7","gender":"0","school":"6","age":"11"},{"start_time":1551900175692,"click_time":1551900177932,"finger_time":1551900177132,"fix_duration":958.9114723882817,"trial":27,"RT":1440,"MT":800,"sideResp":1,"stimulus":[],"xmouse":[755,755,755,755,755,755,755,755,755,755,755,755,755,755,755,755,755,755,755,755,755,755,755,755,755,755,755,755,755,755,755,755,755,755,755,755,755,755,755,755,755,755,755,755,755,755,755,755,755,755,755,755,755,755,755,755,755,755,755,755,755,755,755,755,755,755,755,755,755,755,755,776,799,818,818,817,813,811,807,802,795,790,785,780,775,769,767,764,761,761,761,766,770,780,783,786,788,789,789,790,791,791,793,793,793,793,793,786,765,740,702,596,475],"ymouse":[624,624,624,624,624,624,624,624,624,624,624,624,624,624,624,624,624,624,624,624,624,624,624,624,624,624,624,624,624,624,624,624,624,624,624,624,624,624,624,624,624,624,624,624,624,624,624,624,624,624,624,624,624,624,624,624,624,624,624,624,624,624,624,624,624,624,624,624,624,624,622,586,542,464,431,400,370,349,317,292,270,254,239,210,194,174,163,154,141,130,126,112,103,95,91,88,87,87,87,87,86,86,85,85,85,85,85,84,82,79,79,79,79],"timestamp_mouse":[8,20,40,60,80,100,120,141,160,181,200,220,240,261,281,301,321,341,360,380,400,421,440,460,480,500,520,541,560,580,600,620,641,660,680,701,720,741,760,781,800,820,840,860,881,900,920,940,960,981,1001,1020,1040,1060,1081,1101,1120,1141,1161,1180,1201,1221,1240,1261,1281,1301,1320,1340,1360,1380,1400,1421,1440,1460,1480,1500,1520,1541,1561,1580,1600,1621,1640,1660,1680,1700,1721,1740,1760,1780,1801,1820,1840,1860,1880,1900,1921,1940,1960,1981,2000,2020,2041,2060,2080,2100,2120,2140,2160,2180,2200,2220,2240],"xSR":741.5,"ySR":573.95,"xT1":424.9,"yT1":0,"xT2":1058.1,"yT2":0,"toosoon":0,"cond_shown":"Incongruent","ratio_trial":300,"L_num":8,"L_den":10,"R_num":9,"R_den":18,"correct_side":1,"subjID":"SAMUELAGUILERA7","gender":"0","school":"6","age":"11"},{"start_time":1551900184330,"click_time":1551900186393,"finger_time":1551900185673,"fix_duration":536.2245686480089,"trial":28,"RT":1343,"MT":720,"sideResp":2,"stimulus":[],"xmouse":[777,777,777,777,777,777,777,777,777,777,777,777,777,777,777,777,777,777,777,777,777,777,777,777,777,777,777,777,777,777,777,777,777,777,777,777,777,777,777,777,777,777,777,777,777,777,777,777,777,777,777,777,777,777,777,777,777,777,777,777,777,777,777,777,777,777,779,792,823,862,897,941,954,966,982,991,998,998,998,998,998,1009,1025,1045,1068,1086,1092,1092,1092,1092,1092,1092,1092,1092,1092,1092,1092,1092,1092,1092,1092,1092,1092,1095],"ymouse":[618,618,618,618,618,618,618,618,618,618,618,618,618,618,618,618,618,618,618,618,618,618,618,618,618,618,618,618,618,618,618,618,618,618,618,618,618,618,618,618,618,618,618,618,618,618,618,618,618,618,618,618,618,618,618,618,618,618,618,618,618,618,618,618,618,618,603,569,471,379,291,152,67,0,0,0,0,0,0,0,0,0,0,0,0,0,0,0,0,0,0,0,0,0,0,0,0,0,0,0,0,0,0,2],"timestamp_mouse":[10,22,42,63,83,102,123,142,163,182,202,223,242,262,282,302,322,342,362,382,403,422,442,463,482,502,522,543,563,583,603,623,642,663,683,702,723,742,763,782,802,822,842,862,883,902,922,943,963,983,1002,1023,1043,1062,1082,1102,1122,1142,1162,1182,1202,1222,1242,1262,1282,1302,1322,1343,1362,1383,1402,1422,1442,1462,1482,1503,1522,1542,1562,1583,1602,1623,1642,1663,1682,1702,1722,1742,1762,1783,1802,1823,1843,1863,1882,1903,1922,1943,1962,1983,2002,2023,2043,2063],"xSR":741.5,"ySR":573.95,"xT1":424.9,"yT1":0,"xT2":1058.1,"yT2":0,"toosoon":0,"cond_shown":"Congruent","ratio_trial":100,"L_num":11,"L_den":22,"R_num":4,"R_den":10,"correct_side":1,"subjID":"SAMUELAGUILERA7","gender":"0","school":"6","age":"11"},{"start_time":1551900188838,"click_time":1551900190952,"finger_time":1551900190513,"fix_duration":865.5869798284281,"trial":29,"RT":1675,"MT":439,"sideResp":1,"stimulus":[],"xmouse":[809,809,809,809,809,809,809,809,809,809,809,809,809,809,809,809,809,809,809,809,809,809,809,809,809,809,809,809,809,809,809,809,809,809,809,809,809,809,809,809,809,809,809,809,809,809,809,809,809,809,809,809,809,809,809,809,809,809,809,809,809,809,809,809,809,809,809,809,809,809,809,809,809,809,809,809,809,809,809,808,800,773,748,713,680,643,633,621,602,583,553,550,537,523,509,471,459,452,451,451,451,451,451,451,451,454],"ymouse":[638,638,638,638,638,638,638,638,638,638,638,638,638,638,638,638,638,638,638,638,638,638,638,638,638,638,638,638,638,638,638,638,638,638,638,638,638,638,638,638,638,638,638,638,638,638,638,638,638,638,638,638,638,638,638,638,638,638,638,638,638,638,638,638,638,638,638,638,638,638,638,638,638,638,638,638,638,638,638,638,634,614,593,565,529,472,448,419,385,351,297,290,263,238,214,153,133,119,116,116,116,116,115,108,100,88],"timestamp_mouse":[15,35,54,74,95,114,134,156,174,194,214,234,255,274,294,314,335,355,374,395,414,435,455,475,495,515,534,555,575,595,614,635,654,675,695,714,735,755,774,794,814,834,855,875,894,915,934,955,974,994,1014,1034,1054,1074,1094,1115,1134,1154,1176,1194,1215,1235,1255,1276,1294,1315,1335,1354,1374,1394,1414,1434,1455,1474,1494,1514,1534,1554,1574,1594,1614,1635,1654,1675,1695,1714,1734,1754,1774,1795,1815,1834,1854,1874,1894,1914,1934,1954,1974,1994,2014,2034,2054,2074,2095,2114],"xSR":741.5,"ySR":573.95,"xT1":424.9,"yT1":0,"xT2":1058.1,"yT2":0,"toosoon":0,"cond_shown":"Incongruent","ratio_trial":200,"L_num":7,"L_den":10,"R_num":14,"R_den":28,"correct_side":1,"subjID":"SAMUELAGUILERA7","gender":"0","school":"6","age":"11"},{"start_time":1551900192186,"click_time":1551900194092,"finger_time":1551900193772,"fix_duration":250.14028876853178,"trial":30,"RT":1586,"MT":320,"sideResp":1,"stimulus":[],"xmouse":[753,753,753,753,753,753,753,753,753,753,753,753,753,753,753,753,753,753,753,753,753,753,753,753,753,753,753,753,753,753,753,753,753,753,753,753,753,753,753,753,753,753,753,753,753,753,753,753,753,753,753,753,753,753,753,753,753,753,753,753,753,753,753,753,753,753,753,753,753,753,753,753,753,753,753,753,753,753,753,733,684,638,623,617,612,592,582,575,567,563,557,550,542,537,527,511],"ymouse":[611,611,611,611,611,611,611,611,611,611,611,611,611,611,611,611,611,611,611,611,611,611,611,611,611,611,611,611,611,611,611,611,611,611,611,611,611,611,611,611,611,611,611,611,611,611,611,611,611,611,611,611,611,611,611,611,611,611,611,611,611,611,611,611,611,611,611,611,611,611,611,611,611,611,611,611,611,611,609,556,483,424,399,368,332,247,208,185,158,146,133,117,105,97,87,78],"timestamp_mouse":[10,33,47,66,86,106,127,146,166,187,207,227,246,266,286,306,326,347,367,386,406,427,446,467,487,507,526,546,567,587,607,627,646,667,686,706,727,747,767,786,806,827,847,866,886,906,926,946,966,986,1006,1026,1047,1066,1087,1106,1126,1147,1166,1186,1206,1226,1247,1266,1287,1307,1326,1347,1367,1387,1407,1427,1447,1466,1486,1507,1526,1546,1566,1586,1606,1627,1647,1666,1686,1706,1726,1747,1766,1786,1806,1827,1846,1866,1886,1906],"xSR":741.5,"ySR":573.95,"xT1":424.9,"yT1":0,"xT2":1058.1,"yT2":0,"toosoon":0,"cond_shown":"Congruent","ratio_trial":200,"L_num":6,"L_den":15,"R_num":3,"R_den":15,"correct_side":1,"subjID":"SAMUELAGUILERA7","gender":"0","school":"6","age":"11"},{"start_time":1551900195404,"click_time":1551900197193,"finger_time":1551900196853,"fix_duration":250,"trial":31,"RT":1449,"MT":340,"sideResp":2,"stimulus":[],"xmouse":[774,774,774,774,774,774,774,774,774,774,774,774,774,774,774,774,774,774,774,774,774,774,774,774,774,774,774,774,774,774,774,774,774,774,774,774,774,774,774,774,774,774,774,774,774,774,774,774,774,774,774,774,774,774,774,774,774,774,774,774,774,774,774,774,774,774,774,774,774,774,792,811,890,927,952,985,1007,1041,1056,1071,1083,1092,1099,1102,1103,1105,1106,1108,1109,1111],"ymouse":[601,601,601,601,601,601,601,601,601,601,601,601,601,601,601,601,601,601,601,601,601,601,601,601,601,601,601,601,601,601,601,601,601,601,601,601,601,601,601,601,601,601,601,601,601,601,601,601,601,601,601,601,601,601,601,601,601,601,601,601,601,601,601,601,601,601,601,601,601,601,591,578,493,441,391,335,298,237,211,188,170,154,137,132,130,128,125,115,105,97],"timestamp_mouse":[10,29,49,69,89,108,129,148,170,189,210,228,249,268,290,308,328,349,369,390,408,430,448,468,490,510,529,549,569,589,610,629,649,669,690,710,728,749,769,789,809,829,850,868,889,908,928,950,970,989,1009,1030,1049,1068,1089,1110,1128,1150,1170,1190,1210,1229,1250,1270,1290,1310,1329,1348,1370,1389,1409,1429,1449,1469,1490,1509,1529,1549,1569,1589,1609,1629,1649,1668,1689,1710,1729,1749,1769,1789],"xSR":741.5,"ySR":573.95,"xT1":424.9,"yT1":0,"xT2":1058.1,"yT2":0,"toosoon":0,"cond_shown":"Congruent","ratio_trial":200,"L_num":3,"L_den":12,"R_num":9,"R_den":20,"correct_side":2,"subjID":"SAMUELAGUILERA7","gender":"0","school":"6","age":"11"},{"start_time":1551900198529,"click_time":1551900200453,"finger_time":1551900200014,"fix_duration":295.0816330010101,"trial":32,"RT":1485,"MT":439,"sideResp":2,"stimulus":[],"xmouse":[788,788,788,788,788,788,788,788,788,788,788,788,788,788,788,788,788,788,788,788,788,788,788,788,788,788,788,788,788,788,788,788,788,788,788,788,788,788,788,788,788,788,788,788,788,788,788,788,788,788,788,788,788,788,788,788,788,788,788,788,788,788,788,788,788,788,788,788,788,788,788,788,799,817,827,835,859,891,898,924,950,1017,1042,1053,1061,1066,1079,1085,1086,1086,1086,1086,1086,1086,1086,1087,1093],"ymouse":[599,599,599,599,599,599,599,599,599,599,599,599,599,599,599,599,599,599,599,599,599,599,599,599,599,599,599,599,599,599,599,599,599,599,599,599,599,599,599,599,599,599,599,599,599,599,599,599,599,599,599,599,599,599,599,599,599,599,599,599,599,599,599,599,599,599,599,599,599,599,599,599,591,574,558,545,507,464,452,393,348,245,212,188,172,161,139,129,127,126,126,125,121,118,112,104,72],"timestamp_mouse":[10,39,44,63,84,103,125,144,165,183,204,225,245,265,285,303,324,344,364,384,405,423,444,464,485,503,524,545,564,584,604,624,643,664,684,703,724,745,764,784,803,825,845,863,885,904,923,945,965,983,1003,1024,1045,1065,1084,1104,1124,1143,1165,1185,1204,1225,1245,1264,1284,1304,1324,1344,1364,1384,1405,1424,1444,1463,1485,1504,1524,1543,1564,1583,1605,1624,1644,1664,1684,1705,1724,1743,1764,1783,1804,1823,1844,1865,1884,1905,1923],"xSR":741.5,"ySR":573.95,"xT1":424.9,"yT1":0,"xT2":1058.1,"yT2":0,"toosoon":0,"cond_shown":"Congruent","ratio_trial":100,"L_num":7,"L_den":14,"R_num":9,"R_den":15,"correct_side":2,"subjID":"SAMUELAGUILERA7","gender":"0","school":"6","age":"11"},{"start_time":1551900201864,"click_time":1551900203293,"finger_time":1551900202753,"fix_duration":329.1285119906948,"trial":33,"RT":889,"MT":540,"sideResp":2,"stimulus":[],"xmouse":[811,811,811,811,811,811,811,811,811,811,811,811,811,811,811,811,811,811,811,811,811,811,811,811,811,811,811,811,811,811,811,811,811,811,811,811,811,811,811,811,813,818,825,832,850,857,863,870,876,888,896,901,914,924,931,946,956,965,972,983,1022,1093,1138,1162,1170,1170,1170,1170,1170,1163,1159,1157],"ymouse":[636,636,636,636,636,636,636,636,636,636,636,636,636,636,636,636,636,636,636,636,636,636,636,636,636,636,636,636,636,636,636,636,636,636,636,636,636,636,636,636,628,619,607,594,556,537,514,491,466,426,407,397,373,356,343,317,305,295,286,274,229,167,132,112,104,101,99,99,98,88,83,81],"timestamp_mouse":[14,37,49,69,89,110,130,148,170,188,210,228,249,269,289,310,330,350,369,389,410,430,450,469,489,510,530,550,568,588,610,630,650,668,688,708,730,750,769,789,810,829,848,869,889,908,929,949,969,989,1008,1029,1048,1069,1089,1108,1128,1149,1169,1189,1209,1229,1249,1270,1288,1308,1328,1349,1369,1388,1408,1429],"xSR":741.5,"ySR":573.95,"xT1":424.9,"yT1":0,"xT2":1058.1,"yT2":0,"toosoon":0,"cond_shown":"Incongruent","ratio_trial":300,"L_num":13,"L_den":26,"R_num":12,"R_den":15,"correct_side":2,"subjID":"SAMUELAGUILERA7","gender":"0","school":"6","age":"11"},{"start_time":1551900205907,"click_time":1551900207653,"finger_time":1551900207013,"fix_duration":1173.858897385236,"trial":34,"RT":1106,"MT":640,"sideResp":1,"stimulus":[],"xmouse":[772,772,772,772,772,772,772,772,772,772,772,772,772,772,772,772,772,772,772,772,772,772,772,772,772,772,772,772,772,772,772,772,772,772,772,772,772,772,772,772,772,772,772,772,772,772,772,772,772,772,772,772,772,772,750,698,597,500,481,466,446,426,393,380,361,335,311,285,283,289,306,319,329,331,335,341,353,379,383,385,386,387,394,400,407,414,423,437],"ymouse":[623,623,623,623,623,623,623,623,623,623,623,623,623,623,623,623,623,623,623,623,623,623,623,623,623,623,623,623,623,623,623,623,623,623,623,623,623,623,623,623,623,623,623,623,623,623,623,623,623,623,623,623,623,623,620,616,616,627,628,628,621,611,582,552,499,422,330,167,74,15,0,0,0,0,0,0,0,0,0,0,0,0,0,0,0,0,0,1],"timestamp_mouse":[11,35,45,66,87,106,125,146,167,186,206,225,246,267,286,305,325,346,366,386,406,425,447,466,485,506,526,546,567,587,605,626,646,666,687,706,726,746,766,786,807,827,845,867,886,906,926,946,965,986,1006,1027,1045,1066,1086,1106,1127,1146,1166,1186,1206,1226,1246,1266,1286,1307,1327,1346,1366,1386,1405,1426,1445,1466,1486,1505,1527,1546,1566,1586,1606,1625,1645,1665,1686,1705,1726,1746],"xSR":741.5,"ySR":573.95,"xT1":424.9,"yT1":0,"xT2":1058.1,"yT2":0,"toosoon":0,"cond_shown":"Congruent","ratio_trial":300,"L_num":20,"L_den":25,"R_num":8,"R_den":16,"correct_side":1,"subjID":"SAMUELAGUILERA7","gender":"0","school":"6","age":"11"},{"start_time":1551900209024,"click_time":1551900211113,"finger_time":1551900210673,"fix_duration":250,"trial":35,"RT":1649,"MT":440,"sideResp":1,"stimulus":[],"xmouse":[809,809,809,809,809,809,809,809,809,809,809,809,809,809,809,809,809,809,809,809,809,809,809,809,809,809,809,809,809,809,809,809,809,809,809,809,809,809,809,809,809,809,809,809,809,809,809,809,809,809,809,809,809,809,809,809,809,809,809,809,809,809,809,809,809,809,809,809,809,809,809,809,809,809,809,809,809,809,809,811,811,812,783,729,664,593,462,414,379,362,355,354,354,354,354,354,356,358,360,361,363,373,383,406,425],"ymouse":[626,626,626,626,626,626,626,626,626,626,626,626,626,626,626,626,626,626,626,626,626,626,626,626,626,626,626,626,626,626,626,626,626,626,626,626,626,626,626,626,626,626,626,626,626,626,626,626,626,626,626,626,626,626,626,626,626,626,626,626,626,626,626,626,626,626,626,626,626,626,626,626,626,626,626,626,626,626,626,626,626,626,565,484,404,321,188,145,109,85,70,68,68,68,68,68,66,66,66,66,66,64,61,53,48],"timestamp_mouse":[11,43,49,69,88,109,130,149,170,189,208,228,250,268,290,309,330,348,368,390,409,429,449,470,489,509,529,550,570,590,608,630,650,668,690,710,730,750,770,788,810,828,850,869,890,910,928,950,969,989,1009,1028,1050,1068,1089,1109,1129,1150,1169,1190,1209,1229,1250,1268,1289,1309,1329,1349,1370,1389,1409,1428,1448,1470,1489,1508,1529,1548,1569,1589,1608,1629,1649,1668,1690,1710,1729,1749,1769,1789,1810,1829,1848,1869,1889,1908,1929,1950,1969,1989,2009,2029,2050,2069,2089],"xSR":741.5,"ySR":573.95,"xT1":424.9,"yT1":0,"xT2":1058.1,"yT2":0,"toosoon":0,"cond_shown":"Congruent","ratio_trial":200,"L_num":12,"L_den":20,"R_num":6,"R_den":15,"correct_side":1,"subjID":"SAMUELAGUILERA7","gender":"0","school":"6","age":"11"},{"start_time":1551900212445,"click_time":1551900214594,"finger_time":1551900214093,"fix_duration":271.16917962469125,"trial":36,"RT":1648,"MT":501,"sideResp":1,"stimulus":[],"xmouse":[772,772,772,772,772,772,772,772,772,772,772,772,772,772,772,772,772,772,772,772,772,772,772,772,772,772,772,772,772,772,772,772,772,772,772,772,772,772,772,772,772,772,772,772,772,772,772,772,772,772,772,772,772,772,772,772,772,772,772,772,772,772,772,772,772,772,772,772,772,772,772,772,772,772,772,772,772,772,772,772,772,771,771,774,784,812,824,831,832,829,801,791,782,774,769,756,748,738,728,713,670,644,626,610,594,553,529,507],"ymouse":[590,590,590,590,590,590,590,590,590,590,590,590,590,590,590,590,590,590,590,590,590,590,590,590,590,590,590,590,590,590,590,590,590,590,590,590,590,590,590,590,590,590,590,590,590,590,590,590,590,590,590,590,590,590,590,590,590,590,590,590,590,590,590,590,590,590,590,590,590,590,590,590,590,590,590,590,590,590,590,590,590,581,561,539,511,452,422,393,364,334,282,269,261,253,248,225,211,197,186,173,143,121,108,98,90,81,77,74],"timestamp_mouse":[10,41,49,67,89,108,129,149,168,189,209,227,248,268,287,308,329,349,368,389,409,429,448,468,489,507,529,548,567,588,608,627,649,668,688,707,729,749,767,787,808,828,849,868,888,907,929,948,968,987,1007,1029,1048,1069,1088,1108,1127,1149,1169,1188,1209,1228,1249,1268,1289,1308,1328,1348,1368,1389,1409,1429,1448,1469,1489,1508,1528,1548,1567,1589,1609,1629,1648,1668,1687,1707,1727,1748,1768,1787,1808,1829,1848,1868,1887,1908,1927,1947,1968,1988,2008,2028,2047,2068,2089,2108,2127,2149],"xSR":741.5,"ySR":573.95,"xT1":424.9,"yT1":0,"xT2":1058.1,"yT2":0,"toosoon":0,"cond_shown":"Congruent","ratio_trial":200,"L_num":6,"L_den":20,"R_num":11,"R_den":22,"correct_side":2,"subjID":"SAMUELAGUILERA7","gender":"0","school":"6","age":"11"},{"start_time":1551900216105,"click_time":1551900218493,"finger_time":1551900218074,"fix_duration":250,"trial":37,"RT":1969,"MT":419,"sideResp":1,"stimulus":[],"xmouse":[804,804,804,804,804,804,804,804,804,804,804,804,804,804,804,804,804,804,804,804,804,804,804,804,804,804,804,804,804,804,804,804,804,804,804,804,804,804,804,804,804,804,804,804,804,804,804,804,804,804,804,804,804,804,804,804,804,804,804,804,804,804,804,804,804,804,804,804,804,804,804,804,804,804,804,804,804,804,804,804,804,804,804,804,804,804,804,804,804,804,804,804,804,804,804,804,803,802,788,771,742,731,725,725,725,725,725,719,709,689,667,631,563,531,514,504,503,502,497,488],"ymouse":[591,591,591,591,591,591,591,591,591,591,591,591,591,591,591,591,591,591,591,591,591,591,591,591,591,591,591,591,591,591,591,591,591,591,591,591,591,591,591,591,591,591,591,591,591,591,591,591,591,591,591,591,591,591,591,591,591,591,591,591,591,591,591,591,591,591,591,591,591,591,591,591,591,591,591,591,591,591,591,591,591,591,591,591,591,591,591,591,591,591,591,591,591,591,591,591,591,575,537,504,474,466,463,463,463,463,463,447,429,399,369,315,218,174,145,131,128,126,111,87],"timestamp_mouse":[21,37,48,68,89,109,127,148,169,188,208,229,249,267,289,308,328,349,368,388,409,429,447,467,488,508,528,549,568,587,609,629,649,668,687,707,728,748,767,789,808,828,848,869,888,908,928,947,968,987,1008,1028,1048,1068,1087,1109,1128,1147,1168,1189,1208,1227,1248,1269,1288,1309,1329,1347,1369,1388,1408,1428,1449,1467,1489,1509,1528,1549,1568,1588,1608,1628,1648,1669,1688,1708,1728,1748,1769,1789,1807,1829,1848,1869,1887,1908,1927,1948,1969,1988,2008,2028,2048,2068,2088,2108,2128,2148,2168,2188,2208,2228,2248,2268,2288,2309,2329,2348,2367,2388],"xSR":741.5,"ySR":573.95,"xT1":424.9,"yT1":0,"xT2":1058.1,"yT2":0,"toosoon":0,"cond_shown":"Congruent","ratio_trial":100,"L_num":6,"L_den":20,"R_num":5,"R_den":25,"correct_side":1,"subjID":"SAMUELAGUILERA7","gender":"0","school":"6","age":"11"},{"start_time":1551900223237,"click_time":1551900224834,"finger_time":1551900224273,"fix_duration":743.3587743675253,"trial":38,"RT":1036,"MT":561,"sideResp":1,"stimulus":[],"xmouse":[812,812,812,812,812,812,812,812,812,812,812,812,812,812,812,812,812,812,812,812,812,812,812,812,812,812,812,812,812,812,812,812,812,812,812,812,812,812,812,812,812,812,812,812,812,812,812,812,817,826,748,637,478,304,149,126,119,115,115,115,115,115,118,125,130,138,157,194,243,281,319,319,319,320,335,359,388,423,458],"ymouse":[638,638,638,638,638,638,638,638,638,638,638,638,638,638,638,638,638,638,638,638,638,638,638,638,638,638,638,638,638,638,638,638,638,638,638,638,638,638,638,638,638,638,638,638,638,638,638,638,638,615,545,488,412,318,106,52,35,25,22,22,20,7,0,0,0,0,0,0,0,0,0,0,0,0,0,0,0,4,12],"timestamp_mouse":[39,56,75,97,116,135,155,176,197,216,236,256,276,295,316,336,357,376,396,416,437,457,477,496,515,536,555,576,596,617,635,656,677,696,717,737,756,776,797,816,835,857,876,895,916,935,957,976,995,1016,1036,1056,1077,1096,1116,1135,1155,1177,1196,1216,1236,1257,1275,1296,1315,1335,1356,1375,1397,1416,1435,1456,1476,1497,1515,1535,1556,1576,1597],"xSR":741.5,"ySR":573.95,"xT1":424.9,"yT1":0,"xT2":1058.1,"yT2":0,"toosoon":0,"cond_shown":"Incongruent","ratio_trial":200,"L_num":7,"L_den":10,"R_num":14,"R_den":28,"correct_side":1,"subjID":"SAMUELAGUILERA7","gender":"0","school":"6","age":"11"},{"start_time":1551900227143,"click_time":1551900229033,"finger_time":1551900228474,"fix_duration":1149.4066082348247,"trial":39,"RT":1331,"MT":559,"sideResp":1,"stimulus":[],"xmouse":[768,768,768,768,768,768,768,768,768,768,768,768,768,768,768,768,768,768,768,768,768,768,768,768,768,768,768,768,768,768,768,768,768,768,768,768,768,768,768,768,768,768,768,768,768,768,768,768,768,768,768,768,768,768,768,768,768,768,768,768,768,768,768,768,768,771,771,771,766,756,736,730,729,728,726,718,712,697,684,671,648,637,626,616,608,585,576,570,566,564,560,554,543,531,516],"ymouse":[583,583,583,583,583,583,583,583,583,583,583,583,583,583,583,583,583,583,583,583,583,583,583,583,583,583,583,583,583,583,583,583,583,583,583,583,583,583,583,583,583,583,583,583,583,583,583,583,583,583,583,583,583,583,583,583,583,583,583,583,583,583,583,583,583,576,548,501,432,356,252,232,224,214,203,186,177,157,140,126,101,93,85,77,72,62,60,60,60,60,60,61,61,61,61],"timestamp_mouse":[10,40,49,71,90,110,130,150,170,191,211,230,251,270,290,311,330,350,369,390,411,430,451,469,491,510,530,550,570,591,610,630,651,671,691,710,729,751,771,789,811,830,850,870,891,910,930,950,970,990,1010,1031,1050,1071,1091,1109,1131,1150,1171,1191,1210,1230,1249,1270,1291,1309,1331,1350,1371,1389,1409,1430,1451,1470,1490,1510,1531,1550,1570,1590,1609,1630,1651,1669,1690,1709,1730,1750,1770,1790,1810,1830,1850,1871,1890],"xSR":741.5,"ySR":573.95,"xT1":424.9,"yT1":0,"xT2":1058.1,"yT2":0,"toosoon":0,"cond_shown":"Incongruent","ratio_trial":300,"L_num":4,"L_den":5,"R_num":8,"R_den":16,"correct_side":1,"subjID":"SAMUELAGUILERA7","gender":"0","school":"6","age":"11"},{"start_time":1551900231325,"click_time":1551900233173,"finger_time":1551900232852,"fix_duration":1290.0083187520854,"trial":40,"RT":1527,"MT":321,"sideResp":1,"stimulus":[],"xmouse":[789,789,789,789,789,789,789,789,789,789,789,789,789,789,789,789,789,789,789,789,789,789,789,789,789,789,789,789,789,789,789,789,789,789,789,789,789,789,789,789,789,789,789,789,789,789,789,789,789,789,789,789,789,789,789,789,789,789,789,789,789,789,789,789,789,789,789,789,789,789,789,789,789,789,789,786,741,723,708,700,690,669,660,650,635,622,600,599,599,599,588,547,524],"ymouse":[637,637,637,637,637,637,637,637,637,637,637,637,637,637,637,637,637,637,637,637,637,637,637,637,637,637,637,637,637,637,637,637,637,637,637,637,637,637,637,637,637,637,637,637,637,637,637,637,637,637,637,637,637,637,637,637,637,637,637,637,637,637,637,637,637,637,637,637,637,637,637,637,637,637,623,579,399,360,337,321,304,255,228,195,139,95,53,53,53,52,52,47,46],"timestamp_mouse":[21,43,48,68,89,109,128,148,169,189,208,227,248,268,289,308,327,349,368,389,409,429,448,469,487,508,528,548,568,588,608,628,648,669,687,707,728,747,768,789,807,829,848,869,888,909,927,949,969,988,1009,1028,1048,1069,1087,1109,1128,1147,1168,1189,1207,1228,1249,1269,1287,1309,1329,1348,1368,1387,1409,1429,1448,1469,1488,1509,1527,1548,1568,1587,1607,1627,1647,1668,1687,1707,1728,1748,1768,1789,1808,1828,1847],"xSR":741.5,"ySR":573.95,"xT1":424.9,"yT1":0,"xT2":1058.1,"yT2":0,"toosoon":0,"cond_shown":"Congruent","ratio_trial":300,"L_num":20,"L_den":25,"R_num":8,"R_den":16,"correct_side":1,"subjID":"SAMUELAGUILERA7","gender":"0","school":"6","age":"11"},{"start_time":1551900235071,"click_time":1551900237953,"finger_time":1551900237213,"fix_duration":1055.4200421112039,"trial":41,"RT":2142,"MT":740,"sideResp":1,"stimulus":[],"xmouse":[808,808,808,808,808,808,808,808,808,808,808,808,808,808,808,808,808,808,808,808,808,808,808,808,808,808,808,808,808,808,808,808,808,808,808,808,808,808,808,808,808,808,808,808,808,808,808,808,808,808,808,808,808,808,808,808,808,808,808,808,808,808,808,808,808,808,808,808,808,808,808,808,808,808,808,808,808,808,808,808,808,808,808,808,808,808,808,808,808,808,808,808,808,808,808,808,808,808,808,808,808,808,808,808,808,808,808,808,804,746,721,634,610,607,602,599,594,593,593,593,592,578,550,506,415,374,342,314,291,281,283,292,328,353,381,390,393,395,396,401,405,409,414,418,430],"ymouse":[581,581,581,581,581,581,581,581,581,581,581,581,581,581,581,581,581,581,581,581,581,581,581,581,581,581,581,581,581,581,581,581,581,581,581,581,581,581,581,581,581,581,581,581,581,581,581,581,581,581,581,581,581,581,581,581,581,581,581,581,581,581,581,581,581,581,581,581,581,581,581,581,581,581,581,581,581,581,581,581,581,581,581,581,581,581,581,581,581,581,581,581,581,581,581,581,581,581,581,581,581,581,581,581,581,581,577,564,529,440,409,328,304,292,265,255,248,247,247,247,243,210,155,106,28,0,0,0,0,0,2,14,44,61,80,83,83,83,83,83,82,78,75,74,71],"timestamp_mouse":[10,31,42,62,81,101,123,141,162,183,202,222,242,262,281,301,323,343,362,382,403,423,441,462,482,503,522,542,561,582,602,622,643,661,682,701,722,743,761,783,803,821,841,862,883,902,922,942,961,982,1002,1021,1043,1062,1083,1102,1121,1142,1162,1182,1203,1222,1243,1263,1281,1303,1323,1342,1362,1381,1403,1423,1442,1462,1481,1503,1523,1542,1561,1582,1602,1621,1643,1662,1682,1703,1721,1742,1762,1781,1802,1822,1842,1862,1882,1901,1921,1942,1962,1981,2003,2023,2041,2062,2082,2102,2123,2142,2162,2182,2201,2221,2241,2261,2282,2301,2321,2342,2361,2382,2403,2422,2443,2462,2482,2502,2521,2541,2562,2582,2602,2623,2642,2661,2683,2703,2721,2741,2761,2782,2802,2822,2842,2863,2882],"xSR":741.5,"ySR":573.95,"xT1":424.9,"yT1":0,"xT2":1058.1,"yT2":0,"toosoon":0,"cond_shown":"Congruent","ratio_trial":300,"L_num":11,"L_den":22,"R_num":2,"R_den":10,"correct_side":1,"subjID":"SAMUELAGUILERA7","gender":"0","school":"6","age":"11"},{"start_time":1551900240195,"click_time":1551900241733,"finger_time":1551900241432,"fix_duration":999.9804068083644,"trial":42,"RT":1237,"MT":301,"sideResp":1,"stimulus":[],"xmouse":[754,754,754,754,754,754,754,754,754,754,754,754,754,758,765,768,769,769,769,769,769,769,769,769,769,769,769,769,769,769,769,769,769,769,769,769,769,769,769,769,769,769,769,769,769,769,769,769,769,769,769,769,769,769,769,769,769,769,769,768,758,719,564,499,459,458,458,458,461,468,476,483,494,500,504,506,507],"ymouse":[638,638,638,638,638,638,638,638,638,638,638,638,638,637,629,624,621,621,621,621,621,621,621,621,621,621,621,621,621,621,621,621,621,621,621,621,621,621,621,621,621,621,621,621,621,621,621,621,621,621,621,621,621,621,621,621,621,621,621,619,612,576,376,274,193,191,190,190,184,172,161,152,135,124,114,102,91],"timestamp_mouse":[18,41,58,78,99,118,139,158,178,198,218,237,258,277,297,318,338,358,378,398,417,437,458,478,498,518,538,558,578,598,617,637,659,679,698,717,739,759,779,798,818,838,858,878,898,918,939,958,978,999,1018,1039,1059,1078,1099,1118,1138,1159,1178,1198,1218,1237,1258,1278,1298,1317,1337,1359,1378,1399,1419,1438,1458,1478,1498,1518,1538],"xSR":741.5,"ySR":573.95,"xT1":424.9,"yT1":0,"xT2":1058.1,"yT2":0,"toosoon":0,"cond_shown":"Congruent","ratio_trial":100,"L_num":6,"L_den":12,"R_num":15,"R_den":25,"correct_side":2,"subjID":"SAMUELAGUILERA7","gender":"0","school":"6","age":"11"},{"start_time":1551900243380,"click_time":1551900245013,"finger_time":1551900244552,"fix_duration":366.7649254692897,"trial":43,"RT":1172,"MT":461,"sideResp":2,"stimulus":[],"xmouse":[786,786,786,786,786,786,786,786,786,786,786,786,786,786,786,786,786,786,786,786,786,786,786,786,786,786,786,786,786,786,786,786,786,786,786,786,786,786,786,786,786,786,786,786,786,786,786,786,786,786,786,786,786,786,786,786,786,786,887,977,1053,1090,1108,1161,1210,1261,1302,1325,1336,1336,1330,1323,1316,1293,1282,1269,1256,1244,1218,1200,1178,1152],"ymouse":[610,610,610,610,610,610,610,610,610,610,610,610,610,610,610,610,610,610,610,610,610,610,610,610,610,610,610,610,610,610,610,610,610,610,610,610,610,610,610,610,610,610,610,610,610,610,610,610,610,610,610,610,610,610,610,610,610,611,573,524,475,444,429,392,356,306,243,194,136,116,100,85,76,64,59,56,53,52,51,51,51,51],"timestamp_mouse":[14,33,53,72,94,113,133,153,174,194,213,233,253,273,293,313,333,352,374,392,412,433,453,473,494,513,533,554,573,593,613,633,653,673,693,712,734,752,772,793,814,833,853,873,893,912,934,952,972,993,1014,1033,1052,1074,1093,1114,1134,1153,1172,1193,1213,1233,1254,1273,1292,1313,1333,1354,1373,1393,1413,1433,1452,1473,1492,1513,1532,1553,1573,1593,1613,1633],"xSR":741.5,"ySR":573.95,"xT1":424.9,"yT1":0,"xT2":1058.1,"yT2":0,"toosoon":0,"cond_shown":"Incongruent","ratio_trial":100,"L_num":11,"L_den":22,"R_num":9,"R_den":15,"correct_side":2,"subjID":"SAMUELAGUILERA7","gender":"0","school":"6","age":"11"},{"start_time":1551900247069,"click_time":1551900249093,"finger_time":1551900248572,"fix_duration":934.6073351485389,"trial":44,"RT":1503,"MT":521,"sideResp":1,"stimulus":[],"xmouse":[777,777,777,777,777,777,777,777,777,777,777,777,777,777,777,777,777,777,777,777,777,777,777,777,777,777,777,777,777,777,777,777,777,777,777,777,777,777,777,777,777,777,777,777,777,777,777,777,777,777,777,777,777,777,777,777,777,777,777,777,777,777,777,777,777,777,777,777,777,777,777,777,777,777,777,724,649,628,625,608,576,495,466,459,459,462,463,463,463,463,463,463,464,466,473,476,479,481,481,481,478,478],"ymouse":[607,607,607,607,607,607,607,607,607,607,607,607,607,607,607,607,607,607,607,607,607,607,607,607,607,607,607,607,607,607,607,607,607,607,607,607,607,607,607,607,607,607,607,607,607,607,607,607,607,607,607,607,607,607,607,607,607,607,607,607,607,607,607,607,607,607,607,607,607,607,607,607,607,607,603,546,489,468,459,424,384,286,252,240,232,229,228,228,228,228,222,215,211,205,183,171,159,142,132,125,106,93],"timestamp_mouse":[10,34,45,63,85,103,124,144,164,184,204,223,244,265,285,305,323,345,364,384,403,425,444,463,484,505,525,544,564,583,605,625,644,664,685,704,725,744,765,784,803,824,844,865,884,904,923,945,964,985,1005,1024,1044,1064,1085,1103,1124,1145,1165,1185,1204,1224,1245,1265,1284,1304,1324,1344,1364,1384,1405,1423,1444,1464,1483,1503,1524,1544,1565,1584,1604,1623,1644,1664,1684,1704,1724,1744,1764,1784,1803,1824,1844,1864,1883,1904,1924,1944,1964,1983,2003,2024],"xSR":741.5,"ySR":573.95,"xT1":424.9,"yT1":0,"xT2":1058.1,"yT2":0,"toosoon":0,"cond_shown":"Congruent","ratio_trial":100,"L_num":9,"L_den":15,"R_num":8,"R_den":16,"correct_side":1,"subjID":"SAMUELAGUILERA7","gender":"0","school":"6","age":"11"},{"start_time":1551900252454,"click_time":1551900253753,"finger_time":1551900252773,"fix_duration":880.3880191619826,"trial":45,"RT":319,"MT":980,"sideResp":1,"stimulus":[],"xmouse":[774,774,774,774,774,774,774,774,774,774,774,774,774,7