[{"start_time":1551800560148,"click_time":1551800563427,"finger_time":1551800563046,"fix_duration":594.9664475355686,"trial":0,"RT":2898,"MT":381,"sideResp":1,"stimulus":[],"xmouse":[794,794,794,794,794,794,794,794,794,794,794,794,794,794,794,794,794,794,794,794,794,794,794,794,794,794,794,794,794,794,794,794,794,794,794,794,794,794,794,794,794,794,794,794,794,794,794,794,794,794,794,794,794,794,794,794,794,794,794,794,794,794,794,794,794,794,794,794,794,794,794,794,794,794,794,794,794,794,794,794,794,794,794,794,794,794,794,794,794,794,794,794,794,794,794,794,794,794,794,794,794,794,794,794,794,794,794,794,794,794,794,794,794,794,794,794,794,794,794,794,794,794,794,794,794,794,794,794,794,794,794,794,794,794,794,794,794,794,794,794,794,792,788,773,761,743,710,698,690,680,666,659,653,644,637,619,608,595,583,571,546,533,521,512,496],"ymouse":[490,490,490,490,490,490,490,490,490,490,490,490,490,490,490,490,490,490,490,490,490,490,490,490,490,490,490,490,490,490,490,490,490,490,490,490,490,490,490,490,490,490,490,490,490,490,490,490,490,490,490,490,490,490,490,490,490,490,490,490,490,490,490,490,490,490,490,490,490,490,490,490,490,490,490,490,490,490,490,490,490,490,490,490,490,490,490,490,490,490,490,490,490,490,490,490,490,490,490,490,490,490,490,490,490,490,490,490,490,490,490,490,490,490,490,490,490,490,490,490,490,490,490,490,490,490,490,490,490,490,490,490,490,490,490,490,490,490,490,490,490,490,485,467,453,435,399,381,368,354,328,315,304,288,275,242,225,207,191,174,145,132,119,111,97],"timestamp_mouse":[9,35,39,58,80,99,119,139,159,179,199,218,240,259,279,299,319,340,359,380,399,419,439,459,478,499,519,540,559,579,599,620,639,659,680,699,719,740,760,779,799,819,839,859,878,900,918,940,959,980,998,1020,1040,1059,1079,1100,1118,1139,1159,1179,1200,1218,1240,1259,1280,1299,1319,1339,1359,1379,1399,1420,1439,1459,1480,1499,1520,1540,1559,1579,1599,1620,1640,1659,1679,1700,1719,1739,1760,1780,1798,1820,1840,1859,1878,1899,1919,1939,1960,1979,1999,2019,2040,2058,2080,2099,2119,2139,2160,2179,2198,2220,2238,2259,2279,2298,2320,2340,2359,2379,2398,2419,2439,2460,2479,2499,2518,2540,2560,2579,2599,2620,2639,2659,2679,2700,2720,2738,2760,2780,2798,2819,2839,2860,2879,2898,2919,2939,2959,2980,2999,3019,3040,3059,3080,3099,3119,3139,3159,3179,3200,3218,3239,3260,3279],"xSR":741.5,"ySR":449.15000000000003,"xT1":424.9,"yT1":0,"xT2":1058.1,"yT2":0,"toosoon":0,"cond_shown":"Congruent","ratio_trial":300,"L_num":11,"L_den":22,"R_num":4,"R_den":20,"correct_side":1,"subjID":"samuelalejandromesaortiz14","gender":"0","age":"11","school":"6","test":{"fix_dur":[250,1500],"timestim":1000,"targets_dim":[100,100],"targets_relative_coord":[0.3,0.7],"size_stim":[880,420],"start_dim":[100,100],"size_start":[300,300],"size_fix":60,"samplingrate":20,"img_types":["Congruent","Incongruent"],"ratios":[100,200,300],"rep_conds":19,"nTrials":120,"trials_to_rest":500,"Trials_order":[22,3,82,6,1,29,68,108,25,73,48,75,47,34,17,33,96,74,40,49,80,100,7,18,45,63,65,10,36,92,116,72,99,27,71,77,21,44,88,115,76,53,32,64,54,90,19,70,93,89,56,84,91,5,114,52,102,46,28,9,66,95,15,41,61,98,55,26,43,57,8,16,11,51,31,119,113,104,101,118,94,2,78,24,86,112,103,35,39,14,69,87,58,12,97,67,62,60,117,81,0,85,109,106,13,107,50,79,20,37,110,30,4,38,59,23,105,42,111,83],"cond_shown":["Congruent","Incongruent","Congruent","Congruent","Incongruent","Incongruent","Congruent","Congruent","Incongruent","Incongruent","Congruent","Incongruent","Incongruent","Congruent","Incongruent","Incongruent","Congruent","Congruent","Congruent","Incongruent","Congruent","Congruent","Incongruent","Congruent","Incongruent","Incongruent","Incongruent","Congruent","Congruent","Congruent","Congruent","Congruent","Incongruent","Incongruent","Incongruent","Incongruent","Incongruent","Congruent","Congruent","Incongruent","Congruent","Incongruent","Congruent","Congruent","Congruent","Congruent","Incongruent","Congruent","Incongruent","Incongruent","Congruent","Congruent","Incongruent","Incongruent","Congruent","Congruent","Congruent","Congruent","Congruent","Incongruent","Congruent","Incongruent","Incongruent","Incongruent","Incongruent","Congruent","Incongruent","Congruent","Incongruent","Incongruent","Congruent","Congruent","Incongruent","Incongruent","Incongruent","Incongruent","Incongruent","Congruent","Incongruent","Congruent","Congruent","Congruent","Congruent","Congruent","Congruent","Congruent","Incongruent","Incongruent","Incongruent","Congruent","Incongruent","Incongruent","Congruent","Congruent","Incongruent","Incongruent","Congruent","Congruent","Incongruent","Incongruent","Congruent","Incongruent","Incongruent","Congruent","Incongruent","Incongruent","Congruent","Incongruent","Congruent","Incongruent","Congruent","Congruent","Congruent","Congruent","Incongruent","Incongruent","Incongruent","Congruent","Incongruent","Incongruent"],"ratio_trial":[300,200,300,100,100,300,200,100,100,100,100,200,300,300,300,200,100,200,300,100,200,300,100,100,200,200,300,300,100,200,200,100,200,200,300,300,200,200,300,100,300,300,200,300,100,100,100,300,200,300,200,100,100,300,100,300,100,300,300,200,100,300,200,300,100,200,100,200,100,200,200,300,300,200,100,300,300,200,300,300,300,200,100,100,200,300,100,300,200,200,200,200,300,100,100,100,200,100,200,200,100,100,100,300,100,300,200,100,200,100,200,100,300,200,300,300,200,100,200,300],"left_num":[11,4,1,10,12,1,7,3,6,3,8,14,7,1,1,4,10,4,1,8,16,5,10,6,1,7,13,1,11,6,12,11,4,4,4,13,7,9,1,12,20,4,21,2,11,1,2,7,7,4,1,4,12,13,10,20,11,11,1,1,8,1,7,2,3,9,3,11,10,14,7,20,8,4,17,2,13,6,2,12,20,6,15,11,11,11,3,8,6,6,7,14,4,7,17,13,7,6,11,7,1,8,10,24,6,13,9,6,3,11,7,1,11,16,4,8,6,6,9,8],"right_num":[4,14,8,3,9,3,2,2,13,4,2,12,8,19,2,1,3,3,11,6,9,7,9,5,2,12,12,3,4,11,6,6,6,6,2,12,4,4,3,9,14,2,2,10,4,18,6,20,12,2,21,15,2,12,3,9,4,4,8,2,2,2,6,6,7,13,7,3,8,12,2,14,14,14,10,6,12,11,6,2,5,7,13,6,3,2,8,9,3,11,6,12,13,15,10,12,18,5,3,12,18,6,8,8,7,12,13,13,14,9,2,3,2,12,8,14,3,15,8,14],"left_den":[22,6,30,25,24,2,21,6,10,6,16,30,10,3,2,30,25,10,5,16,30,25,25,20,3,10,26,5,22,20,20,22,5,5,20,26,15,20,5,24,25,20,30,20,22,2,4,14,10,20,2,10,30,26,25,25,22,22,30,3,16,2,15,4,9,30,9,22,25,30,21,25,10,6,30,4,26,20,4,24,25,12,25,22,22,22,5,10,20,20,15,30,20,14,30,26,15,20,20,10,2,16,25,30,10,26,30,10,6,22,21,2,22,20,5,10,20,12,15,10],"right_den":[20,30,24,10,15,15,15,5,26,10,5,18,20,30,10,3,10,15,22,10,27,14,18,25,15,24,15,6,10,22,15,15,10,10,4,15,6,16,6,15,28,4,4,25,10,30,15,25,24,4,30,30,4,15,10,18,10,20,24,15,5,10,9,30,30,26,30,10,16,18,15,28,28,30,15,30,15,22,30,10,10,10,26,15,10,10,16,18,6,22,9,18,26,25,15,20,27,25,4,24,30,10,16,16,14,15,26,26,20,15,15,5,10,20,16,28,6,25,10,28],"correct_side":[1,1,2,1,2,1,1,1,1,1,1,2,1,2,1,2,1,1,2,2,1,2,2,1,1,1,2,2,1,2,1,1,1,1,2,2,2,1,2,2,1,2,1,2,1,2,1,2,1,2,2,2,2,2,1,1,1,1,2,1,1,1,2,1,1,2,1,1,2,2,1,1,1,1,2,1,2,2,1,1,1,2,1,1,1,1,1,1,2,2,2,2,2,2,2,2,2,1,2,1,2,2,2,1,1,2,2,1,2,2,1,2,1,1,1,1,2,2,2,1],"img_shown":["img2/300/Congruent/L/C_Dist_300_LN_11_LD_22_RN_4_RD_20_0.png","img2/200/Incongruent/L/I_Dist_200_LN_4_LD_6_RN_14_RD_30_0.png","img2/300/Congruent/R/C_Dist_300_LN_1_LD_30_RN_8_RD_24_1.png","img2/100/Congruent/L/C_Dist_100_LN_10_LD_25_RN_3_RD_10_0.png","img2/100/Incongruent/R/I_Dist_100_LN_12_LD_24_RN_9_RD_15_1.png","img2/300/Incongruent/L/I_Dist_300_LN_1_LD_2_RN_3_RD_15_0.png","img2/200/Congruent/L/C_Dist_200_LN_7_LD_21_RN_2_RD_15_0.png","img2/100/Congruent/L/C_Dist_100_LN_3_LD_6_RN_2_RD_5_0.png","img2/100/Incongruent/L/I_Dist_100_LN_6_LD_10_RN_13_RD_26_0.png","img2/100/Incongruent/L/I_Dist_100_LN_3_LD_6_RN_4_RD_10_0.png","img2/100/Congruent/L/C_Dist_100_LN_8_LD_16_RN_2_RD_5_0.png","img2/200/Incongruent/R/I_Dist_200_LN_14_LD_30_RN_12_RD_18_1.png","img2/300/Incongruent/L/I_Dist_300_LN_7_LD_10_RN_8_RD_20_0.png","img2/300/Congruent/R/C_Dist_300_LN_1_LD_3_RN_19_RD_30_1.png","img2/300/Incongruent/L/I_Dist_300_LN_1_LD_2_RN_2_RD_10_0.png","img2/200/Incongruent/R/I_Dist_200_LN_4_LD_30_RN_1_RD_3_1.png","img2/100/Congruent/L/C_Dist_100_LN_10_LD_25_RN_3_RD_10_0.png","img2/200/Congruent/L/C_Dist_200_LN_4_LD_10_RN_3_RD_15_0.png","img2/300/Congruent/R/C_Dist_300_LN_1_LD_5_RN_11_RD_22_1.png","img2/100/Incongruent/R/I_Dist_100_LN_8_LD_16_RN_6_RD_10_1.png","img2/200/Congruent/L/C_Dist_200_LN_16_LD_30_RN_9_RD_27_0.png","img2/300/Congruent/R/C_Dist_300_LN_5_LD_25_RN_7_RD_14_1.png","img2/100/Incongruent/R/I_Dist_100_LN_10_LD_25_RN_9_RD_18_1.png","img2/100/Congruent/L/C_Dist_100_LN_6_LD_20_RN_5_RD_25_0.png","img2/200/Incongruent/L/I_Dist_200_LN_1_LD_3_RN_2_RD_15_0.png","img2/200/Incongruent/L/I_Dist_200_LN_7_LD_10_RN_12_RD_24_0.png","img2/300/Incongruent/R/I_Dist_300_LN_13_LD_26_RN_12_RD_15_1.png","img2/300/Congruent/R/C_Dist_300_LN_1_LD_5_RN_3_RD_6_1.png","img2/100/Congruent/L/C_Dist_100_LN_11_LD_22_RN_4_RD_10_0.png","img2/200/Congruent/R/C_Dist_200_LN_6_LD_20_RN_11_RD_22_1.png","img2/200/Congruent/L/C_Dist_200_LN_12_LD_20_RN_6_RD_15_0.png","img2/100/Congruent/L/C_Dist_100_LN_11_LD_22_RN_6_RD_15_0.png","img2/200/Incongruent/L/I_Dist_200_LN_4_LD_5_RN_6_RD_10_0.png","img2/200/Incongruent/L/I_Dist_200_LN_4_LD_5_RN_6_RD_10_0.png","img2/300/Incongruent/R/I_Dist_300_LN_4_LD_20_RN_2_RD_4_1.png","img2/300/Incongruent/R/I_Dist_300_LN_13_LD_26_RN_12_RD_15_1.png","img2/200/Incongruent/R/I_Dist_200_LN_7_LD_15_RN_4_RD_6_1.png","img2/200/Congruent/L/C_Dist_200_LN_9_LD_20_RN_4_RD_16_0.png","img2/300/Congruent/R/C_Dist_300_LN_1_LD_5_RN_3_RD_6_1.png","img2/100/Incongruent/R/I_Dist_100_LN_12_LD_24_RN_9_RD_15_1.png","img2/300/Congruent/L/C_Dist_300_LN_20_LD_25_RN_14_RD_28_0.png","img2/300/Incongruent/R/I_Dist_300_LN_4_LD_20_RN_2_RD_4_1.png","img2/200/Congruent/L/C_Dist_200_LN_21_LD_30_RN_2_RD_4_0.png","img2/300/Congruent/R/C_Dist_300_LN_2_LD_20_RN_10_RD_25_1.png","img2/100/Congruent/L/C_Dist_100_LN_11_LD_22_RN_4_RD_10_0.png","img2/100/Congruent/R/C_Dist_100_LN_1_LD_2_RN_18_RD_30_1.png","img2/100/Incongruent/L/I_Dist_100_LN_2_LD_4_RN_6_RD_15_0.png","img2/300/Congruent/R/C_Dist_300_LN_7_LD_14_RN_20_RD_25_1.png","img2/200/Incongruent/L/I_Dist_200_LN_7_LD_10_RN_12_RD_24_0.png","img2/300/Incongruent/R/I_Dist_300_LN_4_LD_20_RN_2_RD_4_1.png","img2/200/Congruent/R/C_Dist_200_LN_1_LD_2_RN_21_RD_30_1.png","img2/100/Congruent/R/C_Dist_100_LN_4_LD_10_RN_15_RD_30_1.png","img2/100/Incongruent/R/I_Dist_100_LN_12_LD_30_RN_2_RD_4_1.png","img2/300/Incongruent/R/I_Dist_300_LN_13_LD_26_RN_12_RD_15_1.png","img2/100/Congruent/L/C_Dist_100_LN_10_LD_25_RN_3_RD_10_0.png","img2/300/Congruent/L/C_Dist_300_LN_20_LD_25_RN_9_RD_18_0.png","img2/100/Congruent/L/C_Dist_100_LN_11_LD_22_RN_4_RD_10_0.png","img2/300/Congruent/L/C_Dist_300_LN_11_LD_22_RN_4_RD_20_0.png","img2/300/Congruent/R/C_Dist_300_LN_1_LD_30_RN_8_RD_24_1.png","img2/200/Incongruent/L/I_Dist_200_LN_1_LD_3_RN_2_RD_15_0.png","img2/100/Congruent/L/C_Dist_100_LN_8_LD_16_RN_2_RD_5_0.png","img2/300/Incongruent/L/I_Dist_300_LN_1_LD_2_RN_2_RD_10_0.png","img2/200/Incongruent/R/I_Dist_200_LN_7_LD_15_RN_6_RD_9_1.png","img2/300/Incongruent/L/I_Dist_300_LN_2_LD_4_RN_6_RD_30_0.png","img2/100/Incongruent/L/I_Dist_100_LN_3_LD_9_RN_7_RD_30_0.png","img2/200/Congruent/R/C_Dist_200_LN_9_LD_30_RN_13_RD_26_1.png","img2/100/Incongruent/L/I_Dist_100_LN_3_LD_9_RN_7_RD_30_0.png","img2/200/Congruent/L/C_Dist_200_LN_11_LD_22_RN_3_RD_10_0.png","img2/100/Incongruent/R/I_Dist_100_LN_10_LD_25_RN_8_RD_16_1.png","img2/200/Incongruent/R/I_Dist_200_LN_14_LD_30_RN_12_RD_18_1.png","img2/200/Congruent/L/C_Dist_200_LN_7_LD_21_RN_2_RD_15_0.png","img2/300/Congruent/L/C_Dist_300_LN_20_LD_25_RN_14_RD_28_0.png","img2/300/Incongruent/L/I_Dist_300_LN_8_LD_10_RN_14_RD_28_0.png","img2/200/Incongruent/L/I_Dist_200_LN_4_LD_6_RN_14_RD_30_0.png","img2/100/Incongruent/R/I_Dist_100_LN_17_LD_30_RN_10_RD_15_1.png","img2/300/Incongruent/L/I_Dist_300_LN_2_LD_4_RN_6_RD_30_0.png","img2/300/Incongruent/R/I_Dist_300_LN_13_LD_26_RN_12_RD_15_1.png","img2/200/Congruent/R/C_Dist_200_LN_6_LD_20_RN_11_RD_22_1.png","img2/300/Incongruent/L/I_Dist_300_LN_2_LD_4_RN_6_RD_30_0.png","img2/300/Congruent/L/C_Dist_300_LN_12_LD_24_RN_2_RD_10_0.png","img2/300/Congruent/L/C_Dist_300_LN_20_LD_25_RN_5_RD_10_0.png","img2/200/Congruent/R/C_Dist_200_LN_6_LD_12_RN_7_RD_10_1.png","img2/100/Congruent/L/C_Dist_100_LN_15_LD_25_RN_13_RD_26_0.png","img2/100/Congruent/L/C_Dist_100_LN_11_LD_22_RN_6_RD_15_0.png","img2/200/Congruent/L/C_Dist_200_LN_11_LD_22_RN_3_RD_10_0.png","img2/300/Congruent/L/C_Dist_300_LN_11_LD_22_RN_2_RD_10_0.png","img2/100/Incongruent/L/I_Dist_100_LN_3_LD_5_RN_8_RD_16_0.png","img2/300/Incongruent/L/I_Dist_300_LN_8_LD_10_RN_9_RD_18_0.png","img2/200/Incongruent/R/I_Dist_200_LN_6_LD_20_RN_3_RD_6_1.png","img2/200/Congruent/R/C_Dist_200_LN_6_LD_20_RN_11_RD_22_1.png","img2/200/Incongruent/R/I_Dist_200_LN_7_LD_15_RN_6_RD_9_1.png","img2/200/Incongruent/R/I_Dist_200_LN_14_LD_30_RN_12_RD_18_1.png","img2/300/Congruent/R/C_Dist_300_LN_4_LD_20_RN_13_RD_26_1.png","img2/100/Congruent/R/C_Dist_100_LN_7_LD_14_RN_15_RD_25_1.png","img2/100/Incongruent/R/I_Dist_100_LN_17_LD_30_RN_10_RD_15_1.png","img2/100/Incongruent/R/I_Dist_100_LN_13_LD_26_RN_12_RD_20_1.png","img2/200/Congruent/R/C_Dist_200_LN_7_LD_15_RN_18_RD_27_1.png","img2/100/Congruent/L/C_Dist_100_LN_6_LD_20_RN_5_RD_25_0.png","img2/200/Incongruent/R/I_Dist_200_LN_11_LD_20_RN_3_RD_4_1.png","img2/200/Incongruent/L/I_Dist_200_LN_7_LD_10_RN_12_RD_24_0.png","img2/100/Congruent/R/C_Dist_100_LN_1_LD_2_RN_18_RD_30_1.png","img2/100/Incongruent/R/I_Dist_100_LN_8_LD_16_RN_6_RD_10_1.png","img2/100/Incongruent/R/I_Dist_100_LN_10_LD_25_RN_8_RD_16_1.png","img2/300/Congruent/L/C_Dist_300_LN_24_LD_30_RN_8_RD_16_0.png","img2/100/Incongruent/L/I_Dist_100_LN_6_LD_10_RN_7_RD_14_0.png","img2/300/Incongruent/R/I_Dist_300_LN_13_LD_26_RN_12_RD_15_1.png","img2/200/Congruent/R/C_Dist_200_LN_9_LD_30_RN_13_RD_26_1.png","img2/100/Incongruent/L/I_Dist_100_LN_6_LD_10_RN_13_RD_26_0.png","img2/200/Congruent/R/C_Dist_200_LN_3_LD_6_RN_14_RD_20_1.png","img2/100/Incongruent/R/I_Dist_100_LN_11_LD_22_RN_9_RD_15_1.png","img2/200/Congruent/L/C_Dist_200_LN_7_LD_21_RN_2_RD_15_0.png","img2/100/Congruent/R/C_Dist_100_LN_1_LD_2_RN_3_RD_5_1.png","img2/300/Congruent/L/C_Dist_300_LN_11_LD_22_RN_2_RD_10_0.png","img2/200/Congruent/L/C_Dist_200_LN_16_LD_20_RN_12_RD_20_0.png","img2/300/Incongruent/L/I_Dist_300_LN_4_LD_5_RN_8_RD_16_0.png","img2/300/Incongruent/L/I_Dist_300_LN_8_LD_10_RN_14_RD_28_0.png","img2/200/Incongruent/R/I_Dist_200_LN_6_LD_20_RN_3_RD_6_1.png","img2/100/Congruent/R/C_Dist_100_LN_6_LD_12_RN_15_RD_25_1.png","img2/200/Incongruent/R/I_Dist_200_LN_9_LD_15_RN_8_RD_10_1.png","img2/300/Incongruent/L/I_Dist_300_LN_8_LD_10_RN_14_RD_28_0.png"],"dist100_C":[["C_Dist_100_LN_10_LD_25_RN_3_RD_10_0.png","C_Dist_100_LN_11_LD_22_RN_4_RD_10_0.png","C_Dist_100_LN_11_LD_22_RN_6_RD_15_0.png","C_Dist_100_LN_15_LD_25_RN_13_RD_26_0.png","C_Dist_100_LN_3_LD_6_RN_2_RD_5_0.png","C_Dist_100_LN_6_LD_20_RN_5_RD_25_0.png","C_Dist_100_LN_8_LD_16_RN_2_RD_5_0.png","C_Dist_100_LN_9_LD_15_RN_8_RD_16_0.png"],["C_Dist_100_LN_1_LD_2_RN_18_RD_30_1.png","C_Dist_100_LN_1_LD_2_RN_3_RD_5_1.png","C_Dist_100_LN_12_LD_30_RN_13_RD_26_1.png","C_Dist_100_LN_2_LD_5_RN_11_RD_22_1.png","C_Dist_100_LN_2_LD_5_RN_6_RD_12_1.png","C_Dist_100_LN_3_LD_20_RN_4_RD_16_1.png","C_Dist_100_LN_4_LD_10_RN_15_RD_30_1.png","C_Dist_100_LN_4_LD_8_RN_6_RD_10_1.png","C_Dist_100_LN_6_LD_12_RN_15_RD_25_1.png","C_Dist_100_LN_7_LD_14_RN_15_RD_25_1.png","C_Dist_100_LN_7_LD_14_RN_9_RD_15_1.png"]],"dist100_I":[["I_Dist_100_LN_1_LD_2_RN_8_RD_20_0.png","I_Dist_100_LN_2_LD_4_RN_6_RD_15_0.png","I_Dist_100_LN_2_LD_4_RN_8_RD_20_0.png","I_Dist_100_LN_3_LD_5_RN_11_RD_22_0.png","I_Dist_100_LN_3_LD_5_RN_8_RD_16_0.png","I_Dist_100_LN_3_LD_6_RN_4_RD_10_0.png","I_Dist_100_LN_3_LD_9_RN_7_RD_30_0.png","I_Dist_100_LN_4_LD_8_RN_8_RD_20_0.png","I_Dist_100_LN_6_LD_10_RN_11_RD_22_0.png","I_Dist_100_LN_6_LD_10_RN_13_RD_26_0.png","I_Dist_100_LN_6_LD_10_RN_7_RD_14_0.png","I_Dist_100_LN_9_LD_10_RN_20_RD_25_0.png","I_Dist_100_LN_9_LD_15_RN_13_RD_26_0.png","I_Dist_100_LN_9_LD_15_RN_14_RD_28_0.png"],["I_Dist_100_LN_10_LD_25_RN_8_RD_16_1.png","I_Dist_100_LN_10_LD_25_RN_9_RD_18_1.png","I_Dist_100_LN_11_LD_22_RN_9_RD_15_1.png","I_Dist_100_LN_12_LD_24_RN_9_RD_15_1.png","I_Dist_100_LN_12_LD_30_RN_2_RD_4_1.png","I_Dist_100_LN_13_LD_26_RN_12_RD_20_1.png","I_Dist_100_LN_13_LD_26_RN_6_RD_10_1.png","I_Dist_100_LN_17_LD_30_RN_10_RD_15_1.png","I_Dist_100_LN_6_LD_12_RN_3_RD_5_1.png","I_Dist_100_LN_8_LD_16_RN_6_RD_10_1.png","I_Dist_100_LN_8_LD_20_RN_1_RD_2_1.png","I_Dist_100_LN_9_LD_18_RN_6_RD_10_1.png"]],"dist100_S":[["E_Dist_100_LN_2_LD_12_RN_2_RD_30_0.png","E_Dist_100_LN_6_LD_10_RN_6_RD_12_0.png"],["E_Dist_100_LN_6_LD_12_RN_6_RD_10_1.png"]],"dist200_C":[["C_Dist_200_LN_11_LD_22_RN_3_RD_10_0.png","C_Dist_200_LN_12_LD_15_RN_6_RD_10_0.png","C_Dist_200_LN_12_LD_20_RN_6_RD_15_0.png","C_Dist_200_LN_14_LD_28_RN_6_RD_20_0.png","C_Dist_200_LN_15_LD_25_RN_4_RD_10_0.png","C_Dist_200_LN_16_LD_20_RN_12_RD_20_0.png","C_Dist_200_LN_16_LD_30_RN_9_RD_27_0.png","C_Dist_200_LN_20_LD_25_RN_9_RD_15_0.png","C_Dist_200_LN_21_LD_30_RN_2_RD_4_0.png","C_Dist_200_LN_4_LD_10_RN_3_RD_15_0.png","C_Dist_200_LN_4_LD_8_RN_3_RD_10_0.png","C_Dist_200_LN_6_LD_15_RN_3_RD_15_0.png","C_Dist_200_LN_7_LD_21_RN_2_RD_15_0.png","C_Dist_200_LN_8_LD_15_RN_2_RD_6_0.png","C_Dist_200_LN_8_LD_15_RN_3_RD_9_0.png","C_Dist_200_LN_8_LD_15_RN_7_RD_21_0.png","C_Dist_200_LN_9_LD_20_RN_4_RD_16_0.png"],["C_Dist_200_LN_1_LD_2_RN_21_RD_30_1.png","C_Dist_200_LN_13_LD_26_RN_14_RD_20_1.png","C_Dist_200_LN_3_LD_10_RN_11_RD_22_1.png","C_Dist_200_LN_3_LD_10_RN_14_RD_28_1.png","C_Dist_200_LN_3_LD_10_RN_7_RD_14_1.png","C_Dist_200_LN_3_LD_12_RN_9_RD_20_1.png","C_Dist_200_LN_3_LD_6_RN_14_RD_20_1.png","C_Dist_200_LN_5_LD_10_RN_14_RD_20_1.png","C_Dist_200_LN_6_LD_12_RN_7_RD_10_1.png","C_Dist_200_LN_6_LD_20_RN_11_RD_22_1.png","C_Dist_200_LN_7_LD_15_RN_18_RD_27_1.png","C_Dist_200_LN_9_LD_30_RN_13_RD_26_1.png"]],"dist200_I":[["I_Dist_200_LN_1_LD_2_RN_3_RD_10_0.png","I_Dist_200_LN_1_LD_3_RN_2_RD_15_0.png","I_Dist_200_LN_3_LD_4_RN_11_RD_20_0.png","I_Dist_200_LN_4_LD_5_RN_6_RD_10_0.png","I_Dist_200_LN_4_LD_6_RN_14_RD_30_0.png","I_Dist_200_LN_7_LD_10_RN_12_RD_24_0.png","I_Dist_200_LN_7_LD_10_RN_14_RD_28_0.png","I_Dist_200_LN_7_LD_10_RN_8_RD_16_0.png"],["I_Dist_200_LN_11_LD_20_RN_3_RD_4_1.png","I_Dist_200_LN_14_LD_30_RN_12_RD_18_1.png","I_Dist_200_LN_14_LD_30_RN_6_RD_9_1.png","I_Dist_200_LN_3_LD_10_RN_1_RD_2_1.png","I_Dist_200_LN_4_LD_30_RN_1_RD_3_1.png","I_Dist_200_LN_6_LD_20_RN_3_RD_6_1.png","I_Dist_200_LN_7_LD_15_RN_4_RD_6_1.png","I_Dist_200_LN_7_LD_15_RN_6_RD_9_1.png","I_Dist_200_LN_9_LD_15_RN_8_RD_10_1.png"]],"dist200_S":[["E_Dist_200_LN_3_LD_6_RN_3_RD_10_0.png"],["E_Dist_200_LN_3_LD_10_RN_3_RD_6_1.png"]],"dist300_C":[["C_Dist_300_LN_11_LD_22_RN_1_RD_5_0.png","C_Dist_300_LN_11_LD_22_RN_2_RD_10_0.png","C_Dist_300_LN_11_LD_22_RN_4_RD_20_0.png","C_Dist_300_LN_12_LD_24_RN_2_RD_10_0.png","C_Dist_300_LN_18_LD_20_RN_9_RD_15_0.png","C_Dist_300_LN_20_LD_25_RN_13_RD_26_0.png","C_Dist_300_LN_20_LD_25_RN_14_RD_28_0.png","C_Dist_300_LN_20_LD_25_RN_5_RD_10_0.png","C_Dist_300_LN_20_LD_25_RN_8_RD_16_0.png","C_Dist_300_LN_20_LD_25_RN_9_RD_18_0.png","C_Dist_300_LN_24_LD_30_RN_2_RD_4_0.png","C_Dist_300_LN_24_LD_30_RN_8_RD_16_0.png","C_Dist_300_LN_3_LD_6_RN_2_RD_10_0.png","C_Dist_300_LN_4_LD_10_RN_1_RD_10_0.png","C_Dist_300_LN_4_LD_5_RN_2_RD_4_0.png","C_Dist_300_LN_8_LD_16_RN_1_RD_5_0.png","C_Dist_300_LN_9_LD_10_RN_3_RD_5_0.png"],["C_Dist_300_LN_1_LD_20_RN_7_RD_20_1.png","C_Dist_300_LN_1_LD_3_RN_19_RD_30_1.png","C_Dist_300_LN_1_LD_30_RN_8_RD_24_1.png","C_Dist_300_LN_1_LD_5_RN_11_RD_22_1.png","C_Dist_300_LN_1_LD_5_RN_3_RD_6_1.png","C_Dist_300_LN_1_LD_5_RN_6_RD_12_1.png","C_Dist_300_LN_2_LD_10_RN_12_RD_24_1.png","C_Dist_300_LN_2_LD_20_RN_10_RD_25_1.png","C_Dist_300_LN_3_LD_12_RN_11_RD_20_1.png","C_Dist_300_LN_3_LD_6_RN_4_RD_5_1.png","C_Dist_300_LN_4_LD_20_RN_13_RD_26_1.png","C_Dist_300_LN_5_LD_25_RN_6_RD_12_1.png","C_Dist_300_LN_5_LD_25_RN_7_RD_14_1.png","C_Dist_300_LN_7_LD_14_RN_20_RD_25_1.png","C_Dist_300_LN_8_LD_15_RN_10_RD_12_1.png"]],"dist300_I":[["I_Dist_300_LN_1_LD_2_RN_2_RD_10_0.png","I_Dist_300_LN_1_LD_2_RN_3_RD_15_0.png","I_Dist_300_LN_2_LD_4_RN_6_RD_30_0.png","I_Dist_300_LN_3_LD_6_RN_4_RD_20_0.png","I_Dist_300_LN_4_LD_5_RN_6_RD_12_0.png","I_Dist_300_LN_4_LD_5_RN_8_RD_16_0.png","I_Dist_300_LN_7_LD_10_RN_8_RD_20_0.png","I_Dist_300_LN_8_LD_10_RN_14_RD_28_0.png","I_Dist_300_LN_8_LD_10_RN_9_RD_18_0.png"],["I_Dist_300_LN_13_LD_26_RN_12_RD_15_1.png","I_Dist_300_LN_4_LD_20_RN_2_RD_4_1.png"]],"dist300_S":[["E_Dist_300_LN_9_LD_12_RN_9_RD_20_0.png"],["E_Dist_300_LN_18_LD_30_RN_18_RD_20_1.png","E_Dist_300_LN_3_LD_10_RN_3_RD_5_1.png","E_Dist_300_LN_9_LD_20_RN_9_RD_12_1.png"]],"dist500_C":[["C_Dist_500_LN_10_LD_13_RN_7_RD_26_0.png","C_Dist_500_LN_10_LD_15_RN_4_RD_24_0.png","C_Dist_500_LN_12_LD_16_RN_3_RD_12_0.png","C_Dist_500_LN_12_LD_18_RN_4_RD_24_0.png","C_Dist_500_LN_15_LD_18_RN_5_RD_15_0.png","C_Dist_500_LN_15_LD_20_RN_1_RD_4_0.png","C_Dist_500_LN_18_LD_27_RN_1_RD_6_0.png","C_Dist_500_LN_20_LD_24_RN_1_RD_3_0.png","C_Dist_500_LN_20_LD_24_RN_3_RD_9_0.png","C_Dist_500_LN_20_LD_24_RN_7_RD_21_0.png","C_Dist_500_LN_20_LD_28_RN_3_RD_14_0.png","C_Dist_500_LN_21_LD_28_RN_6_RD_24_0.png","C_Dist_500_LN_22_LD_28_RN_2_RD_7_0.png","C_Dist_500_LN_25_LD_30_RN_9_RD_27_0.png","C_Dist_500_LN_4_LD_6_RN_1_RD_6_0.png","C_Dist_500_LN_5_LD_6_RN_2_RD_6_0.png","C_Dist_500_LN_6_LD_9_RN_1_RD_6_0.png","C_Dist_500_LN_7_LD_10_RN_1_RD_5_0.png","C_Dist_500_LN_8_LD_12_RN_1_RD_6_0.png","C_Dist_500_LN_8_LD_12_RN_4_RD_24_0.png"],["C_Dist_500_LN_1_LD_4_RN_12_RD_16_1.png","C_Dist_500_LN_1_LD_4_RN_9_RD_12_1.png","C_Dist_500_LN_1_LD_9_RN_11_RD_18_1.png","C_Dist_500_LN_10_LD_24_RN_22_RD_24_1.png","C_Dist_500_LN_2_LD_12_RN_10_RD_15_1.png","C_Dist_500_LN_2_LD_12_RN_12_RD_18_1.png","C_Dist_500_LN_2_LD_12_RN_4_RD_6_1.png","C_Dist_500_LN_2_LD_24_RN_7_RD_12_1.png","C_Dist_500_LN_2_LD_5_RN_18_RD_20_1.png","C_Dist_500_LN_2_LD_5_RN_9_RD_10_1.png","C_Dist_500_LN_2_LD_8_RN_12_RD_16_1.png","C_Dist_500_LN_2_LD_8_RN_21_RD_28_1.png","C_Dist_500_LN_3_LD_10_RN_4_RD_5_1.png","C_Dist_500_LN_3_LD_12_RN_15_RD_20_1.png","C_Dist_500_LN_3_LD_30_RN_6_RD_10_1.png","C_Dist_500_LN_3_LD_8_RN_14_RD_16_1.png","C_Dist_500_LN_4_LD_16_RN_15_RD_20_1.png","C_Dist_500_LN_4_LD_24_RN_12_RD_18_1.png","C_Dist_500_LN_5_LD_14_RN_6_RD_7_1.png","C_Dist_500_LN_7_LD_21_RN_20_RD_24_1.png","C_Dist_500_LN_7_LD_28_RN_12_RD_16_1.png","C_Dist_500_LN_7_LD_28_RN_9_RD_12_1.png","C_Dist_500_LN_9_LD_27_RN_20_RD_24_1.png"]],"dist500_I":[["I_Dist_500_LN_2_LD_3_RN_4_RD_24_0.png","I_Dist_500_LN_5_LD_6_RN_6_RD_18_0.png","I_Dist_500_LN_7_LD_8_RN_9_RD_24_0.png"],["I_Dist_500_LN_7_LD_21_RN_5_RD_6_1.png"]],"dist500_S":[["E_Dist_500_LN_6_LD_8_RN_6_RD_24_0.png"],["E_Dist_500_LN_2_LD_12_RN_2_RD_3_1.png","E_Dist_500_LN_6_LD_24_RN_6_RD_8_1.png"]]}},{"start_time":1551800565854,"click_time":1551800567948,"finger_time":1551800567407,"fix_duration":1486.5250888843866,"trial":1,"RT":1553,"MT":541,"sideResp":2,"stimulus":[],"xmouse":[789,789,789,789,789,789,789,789,789,789,789,789,789,789,789,789,789,789,789,789,789,789,789,789,789,789,789,789,789,789,789,789,789,789,789,789,789,789,789,789,789,789,789,789,789,789,789,789,789,789,789,789,789,789,789,789,789,789,789,789,789,789,789,789,789,789,789,789,789,789,789,789,790,792,796,809,815,822,834,849,858,866,875,886,909,924,940,955,981,1017,1031,1041,1051,1058,1073,1080,1087,1093,1100,1115,1120,1123,1125,1125,1125],"ymouse":[500,500,500,500,500,500,500,500,500,500,500,500,500,500,500,500,500,500,500,500,500,500,500,500,500,500,500,500,500,500,500,500,500,500,500,500,500,500,500,500,500,500,500,500,500,500,500,500,500,500,500,500,500,500,500,500,500,500,500,500,500,500,500,500,500,500,500,500,500,500,500,500,498,496,488,467,457,446,429,409,399,391,384,378,365,358,350,340,321,295,283,275,264,255,236,225,216,206,194,162,148,134,119,105,73],"timestamp_mouse":[13,40,54,72,93,114,132,153,174,193,214,233,252,273,294,314,334,352,373,393,413,434,453,473,493,513,533,553,573,594,613,634,654,673,694,714,733,753,772,793,812,834,853,874,894,914,934,953,974,992,1014,1034,1053,1073,1093,1114,1132,1153,1173,1194,1214,1233,1253,1274,1292,1313,1333,1354,1374,1393,1414,1434,1453,1473,1493,1514,1533,1553,1574,1593,1613,1633,1654,1673,1693,1713,1734,1753,1773,1794,1812,1834,1853,1873,1893,1914,1932,1952,1973,1993,2013,2033,2053,2074,2093],"xSR":741.5,"ySR":449.15000000000003,"xT1":424.9,"yT1":0,"xT2":1058.1,"yT2":0,"toosoon":0,"cond_shown":"Incongruent","ratio_trial":200,"L_num":4,"L_den":6,"R_num":14,"R_den":30,"correct_side":1,"subjID":"samuelalejandromesaortiz14","gender":"0","school":"6","age":"11"},{"start_time":1551800569497,"click_time":1551800574428,"finger_time":1551800573907,"fix_duration":250,"trial":2,"RT":4410,"MT":521,"sideResp":2,"stimulus":[],"xmouse":[786,786,786,786,786,787,789,790,791,791,791,792,793,795,796,797,798,798,798,798,798,798,798,798,798,798,798,798,798,798,798,798,798,798,798,798,798,798,798,798,798,798,798,797,797,796,795,795,795,795,795,795,795,795,795,795,795,795,795,795,795,795,795,795,795,795,795,795,795,795,795,795,795,795,795,795,795,795,795,795,795,795,795,795,795,795,795,795,795,795,795,795,795,795,795,795,795,795,795,795,795,795,795,795,795,795,795,795,795,795,795,795,795,795,795,795,795,795,795,795,795,795,795,795,795,795,795,795,795,795,795,795,795,795,795,795,795,795,795,795,795,795,795,795,795,795,795,795,795,795,795,795,795,795,795,795,795,795,795,795,795,795,795,795,795,795,795,795,795,795,795,795,795,795,795,795,795,795,795,795,795,795,795,795,795,795,795,795,795,795,795,795,795,795,795,795,795,795,795,795,795,795,795,795,795,795,795,795,795,795,795,795,795,795,795,797,798,806,811,819,829,845,867,926,938,964,989,1017,1029,1041,1050,1058,1073,1078,1084,1090,1092,1094,1096,1096,1097,1098,1098,1098,1098,1098,1098],"ymouse":[482,482,482,482,482,482,481,481,480,480,480,480,477,475,474,473,472,472,472,472,472,472,472,472,472,472,472,472,472,472,472,472,472,472,472,472,472,472,472,472,472,472,472,473,473,474,476,476,476,476,476,476,476,476,476,476,476,476,476,476,476,476,476,476,476,476,476,476,476,476,476,476,476,476,476,476,476,476,476,476,476,476,476,476,476,476,476,476,476,476,476,476,476,476,476,476,476,476,476,476,476,476,476,476,476,476,476,476,476,476,476,476,476,476,476,476,476,476,476,476,476,476,476,476,476,476,476,476,476,476,476,476,476,476,476,476,476,476,476,476,476,476,476,476,476,476,476,476,476,476,476,476,476,476,476,476,476,476,476,476,476,476,476,476,476,476,476,476,476,476,476,476,476,476,476,476,476,476,476,476,476,476,476,476,476,476,476,476,476,476,476,476,476,476,476,476,476,476,476,476,476,476,476,476,476,476,476,476,476,476,476,476,476,476,476,476,474,467,462,452,440,424,407,364,354,336,306,266,249,232,215,201,175,164,155,145,140,134,131,129,125,122,117,111,107,104,97],"timestamp_mouse":[9,30,50,70,90,111,131,150,170,191,211,229,251,271,291,310,331,351,371,391,409,431,450,470,491,510,530,550,571,590,610,630,650,671,691,710,730,749,771,790,810,830,851,871,890,910,931,951,969,990,1009,1030,1050,1070,1090,1110,1131,1149,1170,1191,1211,1231,1250,1270,1290,1311,1330,1350,1371,1390,1410,1431,1449,1471,1491,1511,1530,1550,1570,1590,1611,1630,1650,1670,1690,1711,1731,1749,1771,1790,1811,1831,1851,1871,1890,1910,1929,1951,1971,1991,2010,2030,2051,2070,2090,2111,2130,2150,2171,2190,2209,2231,2250,2269,2291,2311,2330,2351,2371,2390,2411,2431,2451,2471,2489,2511,2530,2550,2570,2590,2611,2630,2651,2671,2691,2710,2731,2751,2771,2790,2810,2831,2851,2871,2890,2910,2931,2950,2971,2991,3011,3031,3050,3071,3091,3111,3131,3150,3170,3190,3210,3230,3250,3270,3291,3311,3331,3351,3370,3390,3409,3430,3449,3471,3491,3510,3530,3550,3570,3591,3610,3630,3651,3671,3690,3710,3729,3751,3771,3791,3811,3831,3851,3871,3889,3911,3929,3951,3971,3990,4010,4030,4050,4070,4090,4110,4129,4151,4171,4190,4209,4231,4251,4271,4290,4309,4330,4350,4371,4390,4410,4431,4450,4477,4490,4511,4530,4550,4570,4590,4610,4631,4651,4670,4690,4710,4731,4750,4769,4789,4811,4830,4850,4870,4890,4910,4931],"xSR":741.5,"ySR":449.15000000000003,"xT1":424.9,"yT1":0,"xT2":1058.1,"yT2":0,"toosoon":0,"cond_shown":"Congruent","ratio_trial":300,"L_num":1,"L_den":30,"R_num":8,"R_den":24,"correct_side":2,"subjID":"samuelalejandromesaortiz14","gender":"0","school":"6","age":"11"},{"start_time":1551800576317,"click_time":1551800578307,"finger_time":1551800577868,"fix_duration":907.2137961256882,"trial":3,"RT":1551,"MT":439,"sideResp":1,"stimulus":[],"xmouse":[793,793,793,793,793,793,793,793,793,793,793,793,793,793,793,793,793,793,793,793,793,793,793,793,793,793,793,793,793,793,793,793,793,793,793,793,793,793,793,793,793,793,793,793,793,793,793,793,793,793,793,793,793,793,793,793,793,793,793,793,793,793,793,793,793,793,793,793,793,793,793,793,793,793,793,792,786,780,773,762,754,733,718,707,689,682,667,659,649,636,622,596,581,569,558,552,540,535,530,523],"ymouse":[482,482,482,482,482,482,482,482,482,482,482,482,482,482,482,482,482,482,482,482,482,482,482,482,482,482,482,482,482,482,482,482,482,482,482,482,482,482,482,482,482,482,482,482,482,482,482,482,482,482,482,482,482,482,482,482,482,482,482,482,482,482,482,482,482,482,482,482,482,482,482,482,482,482,482,482,460,439,417,393,368,314,281,256,223,205,178,167,158,146,134,110,97,88,81,78,73,71,70,68],"timestamp_mouse":[10,30,50,70,91,111,129,151,171,189,211,231,250,271,291,310,330,350,371,391,411,431,450,470,491,510,529,551,570,591,611,630,650,671,690,711,731,750,769,790,810,829,850,870,891,911,931,951,970,990,1010,1030,1051,1071,1090,1111,1131,1151,1170,1190,1211,1229,1250,1270,1289,1311,1330,1351,1370,1389,1410,1431,1449,1470,1490,1510,1530,1551,1570,1590,1611,1630,1649,1670,1690,1710,1730,1750,1771,1790,1810,1830,1849,1870,1891,1910,1930,1950,1970,1990],"xSR":741.5,"ySR":449.15000000000003,"xT1":424.9,"yT1":0,"xT2":1058.1,"yT2":0,"toosoon":0,"cond_shown":"Congruent","ratio_trial":100,"L_num":10,"L_den":25,"R_num":3,"R_den":10,"correct_side":1,"subjID":"samuelalejandromesaortiz14","gender":"0","school":"6","age":"11"},{"start_time":1551800580538,"click_time":1551800582366,"finger_time":1551800582026,"fix_duration":1148.7004431972975,"trial":4,"RT":1488,"MT":340,"sideResp":2,"stimulus":[],"xmouse":[779,779,779,779,779,779,779,779,779,779,779,779,779,779,779,779,779,779,779,779,779,779,779,779,779,779,779,779,779,779,779,779,779,779,779,779,779,779,779,779,779,779,779,779,779,779,779,779,779,779,779,779,779,779,779,779,779,779,779,779,779,779,779,779,779,779,779,779,779,779,780,784,793,809,843,913,960,999,1023,1042,1068,1077,1084,1091,1100,1105,1112,1113,1113,1113,1113,1113],"ymouse":[481,481,481,481,481,481,481,481,481,481,481,481,481,481,481,481,481,481,481,481,481,481,481,481,481,481,481,481,481,481,481,481,481,481,481,481,481,481,481,481,481,481,481,481,481,481,481,481,481,481,481,481,481,481,481,481,481,481,481,481,481,481,481,481,481,481,481,481,481,481,481,482,480,470,450,397,363,324,292,265,217,200,188,175,156,144,124,117,111,106,100,97],"timestamp_mouse":[10,42,49,70,89,109,129,149,168,190,209,229,249,269,289,310,329,350,370,390,409,429,449,469,489,509,530,550,570,589,609,629,650,669,689,710,729,750,770,790,809,829,850,870,889,909,929,949,970,989,1010,1030,1049,1069,1089,1109,1130,1148,1169,1188,1209,1228,1249,1268,1290,1309,1329,1348,1369,1388,1410,1429,1449,1469,1488,1509,1528,1549,1569,1589,1610,1629,1649,1669,1689,1710,1729,1749,1770,1790,1810,1828],"xSR":741.5,"ySR":449.15000000000003,"xT1":424.9,"yT1":0,"xT2":1058.1,"yT2":0,"toosoon":0,"cond_shown":"Incongruent","ratio_trial":100,"L_num":12,"L_den":24,"R_num":9,"R_den":15,"correct_side":2,"subjID":"samuelalejandromesaortiz14","gender":"0","school":"6","age":"11"},{"start_time":1551800584811,"click_time":1551800586567,"finger_time":1551800586228,"fix_duration":1263.1068592702757,"trial":5,"RT":1417,"MT":339,"sideResp":2,"stimulus":[],"xmouse":[815,815,815,815,815,815,815,815,815,815,815,815,815,815,815,815,815,815,815,815,815,815,815,815,815,815,815,815,815,815,815,815,815,815,815,815,815,815,815,815,815,815,815,815,815,815,815,815,815,815,815,815,815,815,815,815,815,815,815,815,815,815,815,815,815,815,815,822,828,833,839,846,849,854,858,863,879,889,903,918,946,991,1005,1019,1033,1045,1056,1071],"ymouse":[492,492,492,492,492,492,492,492,492,492,492,492,492,492,492,492,492,492,492,492,492,492,492,492,492,492,492,492,492,492,492,492,492,492,492,492,492,492,492,492,492,492,492,492,492,492,492,492,492,492,492,492,492,492,492,492,492,492,492,492,492,492,492,492,492,491,490,478,466,455,440,425,420,413,406,395,371,354,332,307,262,192,168,145,124,109,97,80],"timestamp_mouse":[16,37,57,75,96,117,135,156,176,196,216,237,255,277,295,316,336,356,376,396,416,436,456,476,496,517,537,556,577,596,616,636,657,676,696,717,735,757,777,795,816,835,857,875,897,915,936,957,977,997,1016,1036,1056,1076,1096,1117,1136,1157,1176,1196,1217,1236,1257,1276,1295,1316,1336,1356,1376,1397,1417,1437,1455,1477,1497,1517,1536,1557,1575,1596,1616,1636,1656,1676,1696,1716,1736,1756],"xSR":741.5,"ySR":449.15000000000003,"xT1":424.9,"yT1":0,"xT2":1058.1,"yT2":0,"toosoon":0,"cond_shown":"Incongruent","ratio_trial":300,"L_num":1,"L_den":2,"R_num":3,"R_den":15,"correct_side":1,"subjID":"samuelalejandromesaortiz14","gender":"0","school":"6","age":"11"},{"start_time":1551800589079,"click_time":1551800590928,"finger_time":1551800590547,"fix_duration":568.7412227547484,"trial":6,"RT":1468,"MT":381,"sideResp":1,"stimulus":[],"xmouse":[771,771,771,771,771,771,771,771,771,771,771,771,771,771,771,771,771,771,771,771,771,771,771,771,771,771,771,771,771,771,771,771,771,771,771,771,771,771,771,771,771,771,771,771,771,771,771,771,771,771,771,771,771,771,771,771,771,771,771,771,771,771,771,771,771,771,771,771,771,771,771,771,771,763,755,739,726,711,670,658,650,641,632,606,590,581,574,569,565,558,545,529,514],"ymouse":[496,496,496,496,496,496,496,496,496,496,496,496,496,496,496,496,496,496,496,496,496,496,496,496,496,496,496,496,496,496,496,496,496,496,496,496,496,496,496,496,496,496,496,496,496,496,496,496,496,496,496,496,496,496,496,496,496,496,496,496,496,496,496,496,496,496,496,496,496,496,496,489,482,439,412,372,340,305,235,213,195,178,161,127,111,101,94,89,85,81,73,64,56],"timestamp_mouse":[10,34,48,68,89,109,128,149,168,188,208,229,248,269,288,308,327,349,368,388,409,429,448,468,489,507,529,549,569,589,608,629,647,669,689,707,728,749,767,789,808,829,848,868,888,908,929,948,969,988,1008,1027,1049,1067,1089,1108,1128,1149,1167,1189,1208,1228,1249,1268,1288,1308,1328,1348,1369,1388,1408,1428,1447,1468,1488,1508,1529,1547,1567,1587,1608,1628,1648,1667,1688,1708,1728,1748,1768,1788,1808,1829,1849],"xSR":741.5,"ySR":449.15000000000003,"xT1":424.9,"yT1":0,"xT2":1058.1,"yT2":0,"toosoon":0,"cond_shown":"Congruent","ratio_trial":200,"L_num":7,"L_den":21,"R_num":2,"R_den":15,"correct_side":1,"subjID":"samuelalejandromesaortiz14","gender":"0","school":"6","age":"11"},{"start_time":1551800592632,"click_time":1551800594528,"finger_time":1551800594228,"fix_duration":762.702799871314,"trial":7,"RT":1596,"MT":300,"sideResp":1,"stimulus":[],"xmouse":[783,783,783,783,783,783,783,783,783,783,783,783,783,783,783,783,783,783,783,783,783,783,783,783,783,783,783,783,783,783,783,783,783,783,783,783,783,783,783,783,783,783,783,783,783,783,783,783,783,783,783,783,783,783,783,783,783,783,783,783,783,783,783,783,783,783,783,783,783,783,783,783,783,783,783,784,787,793,799,800,800,787,772,755,736,689,666,644,625,602,574,560,545,525,509],"ymouse":[498,498,498,498,498,498,498,498,498,498,498,498,498,498,498,498,498,498,498,498,498,498,498,498,498,498,498,498,498,498,498,498,498,498,498,498,498,498,498,498,498,498,498,498,498,498,498,498,498,498,498,498,498,498,498,498,498,498,498,498,498,498,498,498,498,498,498,498,498,498,498,498,498,498,498,498,495,481,451,425,358,314,275,235,194,127,100,82,69,52,35,29,24,20,16],"timestamp_mouse":[15,37,55,75,96,115,136,155,175,195,215,236,255,274,295,316,335,356,377,396,416,435,456,475,496,515,535,556,575,595,615,635,655,675,695,716,735,755,775,795,814,835,856,876,896,916,935,954,976,996,1016,1035,1056,1076,1094,1115,1136,1155,1175,1195,1216,1235,1256,1276,1296,1315,1336,1356,1375,1394,1416,1436,1455,1476,1496,1516,1536,1555,1576,1596,1615,1635,1655,1676,1695,1716,1735,1755,1776,1795,1815,1834,1855,1876,1896],"xSR":741.5,"ySR":449.15000000000003,"xT1":424.9,"yT1":0,"xT2":1058.1,"yT2":0,"toosoon":0,"cond_shown":"Congruent","ratio_trial":100,"L_num":3,"L_den":6,"R_num":2,"R_den":5,"correct_side":1,"subjID":"samuelalejandromesaortiz14","gender":"0","school":"6","age":"11"},{"start_time":1551800596806,"click_time":1551800599548,"finger_time":1551800598427,"fix_duration":1117.9592669675835,"trial":8,"RT":1621,"MT":1121,"sideResp":2,"stimulus":[],"xmouse":[777,777,777,777,777,777,777,777,777,777,777,777,777,777,777,777,777,777,777,777,777,777,777,777,777,777,777,777,777,777,777,777,777,777,777,777,777,777,777,777,777,777,777,777,777,777,777,777,777,777,777,777,777,777,777,777,777,777,777,777,777,777,777,777,777,777,777,777,777,777,777,777,777,777,777,777,777,777,777,777,778,787,816,839,863,889,910,937,947,959,971,986,1003,1010,1017,1024,1028,1035,1037,1038,1038,1038,1041,1044,1047,1049,1051,1052,1052,1052,1052,1052,1052,1052,1052,1052,1052,1052,1052,1052,1052,1052,1052,1052,1052,1052,1052,1052,1052,1052,1052,1052,1052,1052,1052,1052,1056,1067],"ymouse":[491,491,491,491,491,491,491,491,491,491,491,491,491,491,491,491,491,491,491,491,491,491,491,491,491,491,491,491,491,491,491,491,491,491,491,491,491,491,491,491,491,491,491,491,491,491,491,491,491,491,491,491,491,491,491,491,491,491,491,491,491,491,491,491,491,491,491,491,491,491,491,491,491,491,491,489,488,487,482,476,464,444,406,380,349,313,280,222,199,178,162,141,117,109,100,93,88,83,81,81,81,81,80,78,77,76,75,74,74,74,74,74,74,74,74,74,74,74,74,74,74,74,74,74,74,74,74,74,74,74,74,74,74,74,74,74,73,71],"timestamp_mouse":[10,21,42,60,82,102,122,141,162,182,201,222,242,261,282,301,321,341,362,382,401,421,442,461,481,502,522,541,561,582,601,621,642,661,682,701,721,740,762,781,800,822,840,862,882,902,921,941,961,981,1001,1021,1041,1061,1081,1101,1122,1142,1162,1181,1202,1221,1241,1262,1280,1301,1322,1340,1362,1381,1400,1421,1442,1461,1481,1501,1521,1541,1560,1581,1601,1621,1641,1661,1681,1701,1721,1742,1762,1781,1801,1821,1841,1861,1881,1902,1921,1942,1962,1981,2002,2022,2041,2061,2081,2101,2122,2142,2161,2181,2201,2221,2242,2261,2281,2301,2322,2341,2361,2381,2401,2422,2441,2461,2481,2501,2520,2541,2561,2581,2601,2621,2641,2660,2682,2701,2721,2741],"xSR":741.5,"ySR":449.15000000000003,"xT1":424.9,"yT1":0,"xT2":1058.1,"yT2":0,"toosoon":0,"cond_shown":"Incongruent","ratio_trial":100,"L_num":6,"L_den":10,"R_num":13,"R_den":26,"correct_side":1,"subjID":"samuelalejandromesaortiz14","gender":"0","school":"6","age":"11"},{"start_time":1551800601158,"click_time":1551800603287,"finger_time":1551800602686,"fix_duration":370.95719831775966,"trial":9,"RT":1528,"MT":601,"sideResp":2,"stimulus":[],"xmouse":[776,776,776,776,776,776,776,776,776,776,776,776,776,776,776,776,776,776,776,776,776,776,776,776,776,776,776,776,776,776,776,776,776,776,776,776,776,776,776,776,776,776,776,776,776,776,776,776,776,776,776,776,776,776,776,776,776,776,776,776,776,776,776,776,776,776,776,776,776,776,776,776,776,776,773,768,756,733,714,696,695,695,695,695,695,706,729,769,809,880,901,919,938,964,995,1008,1019,1031,1043,1065,1075,1082,1091,1094,1105,1109,1112],"ymouse":[501,501,501,501,501,501,501,502,502,502,502,502,502,502,502,502,502,502,502,502,502,502,502,502,502,502,502,502,502,502,502,502,502,502,502,502,502,502,502,502,502,502,502,502,502,502,502,502,502,502,502,502,502,502,502,502,502,502,502,502,502,502,502,502,502,502,502,502,502,502,502,502,502,502,482,462,433,398,372,352,352,352,352,352,352,351,346,335,325,294,279,263,249,226,197,185,174,166,160,146,139,133,124,122,108,103,98],"timestamp_mouse":[10,36,50,69,89,110,129,150,169,190,210,228,248,269,289,309,329,350,369,389,410,429,450,470,489,509,530,549,569,589,610,629,649,669,689,709,729,750,769,790,809,829,849,870,890,909,930,949,969,989,1009,1028,1049,1068,1089,1109,1128,1150,1169,1189,1210,1230,1248,1269,1289,1310,1329,1350,1368,1389,1410,1428,1449,1470,1489,1509,1528,1550,1570,1589,1609,1629,1649,1669,1690,1710,1729,1750,1769,1789,1810,1829,1849,1869,1889,1910,1929,1950,1970,1990,2008,2029,2049,2069,2089,2109,2129],"xSR":741.5,"ySR":449.15000000000003,"xT1":424.9,"yT1":0,"xT2":1058.1,"yT2":0,"toosoon":0,"cond_shown":"Incongruent","ratio_trial":100,"L_num":3,"L_den":6,"R_num":4,"R_den":10,"correct_side":1,"subjID":"samuelalejandromesaortiz14","gender":"0","school":"6","age":"11"},{"start_time":1551800604958,"click_time":1551800606748,"finger_time":1551800606428,"fix_duration":769.4739123007583,"trial":10,"RT":1470,"MT":320,"sideResp":1,"stimulus":[],"xmouse":[772,772,772,772,772,772,772,772,772,772,772,772,772,772,772,772,772,772,772,772,772,772,772,772,772,772,772,772,772,772,772,772,772,772,772,772,772,772,772,772,772,772,772,772,772,772,772,772,772,772,772,772,772,772,772,772,772,772,772,772,772,772,772,772,772,772,772,772,772,772,771,770,766,760,748,736,719,695,666,617,597,583,576,572,567,553,542,532,526,524],"ymouse":[492,492,492,492,492,492,492,492,492,492,492,492,492,492,492,492,492,492,492,492,492,492,492,492,492,492,492,492,492,492,492,492,492,492,492,492,492,492,492,492,492,492,492,492,492,492,492,492,492,492,492,492,492,492,492,492,492,492,492,492,492,492,492,492,492,492,492,492,492,490,482,471,451,435,397,371,333,293,249,182,161,146,137,133,124,106,95,85,80,78],"timestamp_mouse":[9,39,49,69,88,110,130,149,170,190,210,230,250,270,289,310,329,350,370,388,410,430,449,469,490,508,529,550,569,590,610,630,650,669,690,710,729,749,769,789,810,829,849,870,890,909,929,950,970,990,1010,1028,1049,1070,1090,1108,1128,1149,1170,1189,1210,1229,1250,1270,1289,1310,1329,1350,1368,1390,1409,1430,1449,1470,1489,1509,1530,1549,1569,1589,1609,1629,1649,1669,1689,1709,1729,1749,1770,1790],"xSR":741.5,"ySR":449.15000000000003,"xT1":424.9,"yT1":0,"xT2":1058.1,"yT2":0,"toosoon":0,"cond_shown":"Congruent","ratio_trial":100,"L_num":8,"L_den":16,"R_num":2,"R_den":5,"correct_side":1,"subjID":"samuelalejandromesaortiz14","gender":"0","school":"6","age":"11"},{"start_time":1551800608059,"click_time":1551800609807,"finger_time":1551800609507,"fix_duration":250,"trial":11,"RT":1448,"MT":300,"sideResp":1,"stimulus":[],"xmouse":[787,787,787,787,787,787,787,787,787,787,787,787,787,787,787,787,787,787,787,787,787,787,787,787,787,787,787,787,787,787,787,787,787,787,787,787,787,787,787,787,787,787,787,787,787,787,787,787,787,787,787,787,787,787,787,787,787,787,787,787,787,787,787,787,787,787,787,787,787,782,774,764,751,735,701,687,670,654,632,606,593,580,570,560,543,535,527,519],"ymouse":[491,491,491,491,491,491,491,491,491,491,491,491,491,491,491,491,491,491,491,491,491,491,491,491,491,491,491,491,491,491,491,491,491,491,491,491,491,491,491,491,491,491,491,491,491,491,491,491,491,491,491,491,491,491,491,491,491,491,491,491,491,491,491,491,491,491,491,491,491,481,469,452,430,409,363,347,322,298,262,217,198,179,161,142,103,84,66,49],"timestamp_mouse":[10,36,49,68,89,109,129,148,169,189,209,228,247,269,289,308,329,348,368,389,408,428,448,467,489,507,529,548,569,589,618,627,647,669,688,708,728,748,768,788,808,829,847,868,889,908,928,948,969,988,1008,1028,1048,1068,1088,1107,1128,1148,1169,1189,1208,1227,1249,1267,1288,1307,1329,1348,1368,1388,1409,1429,1448,1469,1487,1508,1528,1548,1568,1588,1607,1628,1648,1668,1689,1709,1727,1748],"xSR":741.5,"ySR":449.15000000000003,"xT1":424.9,"yT1":0,"xT2":1058.1,"yT2":0,"toosoon":0,"cond_shown":"Incongruent","ratio_trial":200,"L_num":14,"L_den":30,"R_num":12,"R_den":18,"correct_side":2,"subjID":"samuelalejandromesaortiz14","gender":"0","school":"6","age":"11"},{"start_time":1551800611190,"click_time":1551800615907,"finger_time":1551800615508,"fix_duration":541.6947891871224,"trial":12,"RT":4318,"MT":399,"sideResp":2,"stimulus":[],"xmouse":[807,807,807,807,807,807,807,807,807,807,807,807,807,807,807,807,807,807,807,807,807,807,807,807,807,807,807,807,807,807,807,807,807,807,807,807,807,807,807,807,807,807,807,807,807,807,807,807,807,807,807,807,807,807,807,807,807,807,807,807,807,807,807,807,807,807,807,807,807,807,807,807,807,807,807,807,807,807,807,807,807,807,807,807,807,807,807,807,807,807,807,807,807,807,807,807,807,807,807,807,807,807,807,807,807,807,807,807,807,807,807,807,807,807,807,807,807,807,807,807,807,807,807,807,807,807,807,807,807,807,807,807,807,807,807,807,807,807,807,807,807,807,807,807,807,807,807,807,807,807,807,807,807,807,807,807,807,807,807,807,807,807,807,807,807,807,807,807,807,807,807,807,807,807,807,807,807,807,807,807,807,807,807,807,807,807,807,807,807,807,807,807,807,807,807,807,807,807,807,807,807,807,807,807,807,807,807,807,807,807,807,808,810,816,827,844,869,927,945,955,969,991,1018,1032,1045,1056,1061,1071,1074,1077,1079,1081,1082,1085,1086,1088],"ymouse":[474,474,474,474,475,476,476,476,476,476,476,476,476,476,476,476,476,476,476,476,476,476,476,476,476,476,476,476,476,476,476,476,476,476,476,476,476,476,476,476,476,476,476,476,476,476,476,476,476,476,476,476,476,476,476,476,476,476,476,476,476,476,476,476,476,476,476,476,476,476,476,476,476,476,476,476,476,476,476,476,476,476,476,476,476,476,476,476,476,476,476,476,476,476,476,476,476,476,476,476,476,476,476,476,476,476,476,476,476,476,476,476,476,476,476,476,476,476,476,476,476,476,476,476,476,476,476,476,476,476,476,476,476,476,476,476,476,476,476,476,476,476,476,476,476,476,476,476,476,476,476,476,476,476,476,476,476,476,476,476,476,476,476,476,476,476,476,476,476,476,476,476,476,476,476,476,476,476,476,476,476,476,476,476,476,476,476,476,476,476,476,476,476,476,476,476,476,476,476,476,476,476,476,476,476,476,476,476,476,476,476,475,472,469,460,445,422,353,321,296,271,235,201,183,164,146,134,118,113,110,107,105,104,101,100,98],"timestamp_mouse":[18,39,58,78,98,117,137,158,178,198,218,238,256,278,297,318,337,358,378,397,418,437,458,478,498,517,538,558,577,596,618,638,658,677,697,718,738,758,778,798,818,837,857,878,897,917,938,957,976,998,1018,1038,1057,1078,1097,1118,1137,1156,1177,1198,1217,1238,1258,1278,1297,1318,1337,1357,1378,1398,1418,1438,1457,1477,1498,1518,1538,1557,1577,1597,1618,1637,1657,1677,1697,1718,1737,1758,1777,1796,1818,1837,1856,1878,1898,1916,1937,1957,1978,1997,2016,2037,2058,2077,2097,2116,2138,2157,2178,2197,2218,2238,2258,2278,2297,2318,2338,2356,2377,2397,2417,2437,2456,2477,2497,2518,2538,2557,2577,2597,2617,2638,2657,2676,2697,2718,2738,2757,2777,2796,2818,2838,2858,2878,2896,2918,2936,2956,2978,2997,3018,3038,3057,3078,3096,3118,3137,3158,3177,3197,3217,3238,3256,3278,3297,3318,3337,3357,3378,3397,3418,3437,3458,3477,3498,3517,3537,3558,3578,3597,3618,3638,3657,3678,3697,3717,3738,3757,3777,3797,3817,3837,3857,3878,3898,3916,3937,3957,3977,3996,4018,4037,4057,4077,4097,4116,4137,4157,4178,4197,4218,4237,4257,4278,4302,4318,4338,4358,4378,4396,4418,4438,4457,4476,4497,4518,4538,4557,4577,4597,4618,4637,4657,4678,4697,4717],"xSR":741.5,"ySR":449.15000000000003,"xT1":424.9,"yT1":0,"xT2":1058.1,"yT2":0,"toosoon":0,"cond_shown":"Incongruent","ratio_trial":300,"L_num":7,"L_den":10,"R_num":8,"R_den":20,"correct_side":1,"subjID":"samuelalejandromesaortiz14","gender":"0","school":"6","age":"11"},{"start_time":1551800618486,"click_time":1551800620067,"finger_time":1551800619787,"fix_duration":1417.1761805981448,"trial":13,"RT":1301,"MT":280,"sideResp":2,"stimulus":[],"xmouse":[800,800,800,800,800,800,800,800,800,800,800,800,800,800,800,800,800,800,800,800,800,800,800,800,800,800,800,800,800,800,800,800,800,800,800,800,800,800,800,800,800,800,800,800,800,800,800,800,800,800,800,800,800,800,800,800,800,800,798,796,795,794,794,794,794,794,794,794,799,805,814,831,853,914,948,977,1008,1037,1090,1106],"ymouse":[466,466,466,466,466,466,466,466,466,466,466,466,466,466,466,466,466,466,466,466,466,466,466,466,466,466,466,466,466,466,466,466,466,466,466,466,466,466,466,466,466,466,466,466,466,466,466,466,466,466,466,466,466,466,466,466,466,466,466,464,461,458,455,451,450,448,448,448,441,436,430,419,408,370,344,320,289,248,133,90],"timestamp_mouse":[8,21,42,61,81,101,121,141,161,181,200,221,241,261,281,301,322,341,361,382,400,421,442,461,481,501,521,541,560,582,601,620,642,662,681,702,722,741,761,781,801,821,842,861,880,901,921,941,961,982,1002,1022,1041,1060,1081,1101,1122,1142,1160,1181,1202,1222,1241,1261,1282,1301,1321,1341,1361,1380,1401,1421,1442,1461,1481,1502,1521,1540,1561,1581],"xSR":741.5,"ySR":449.15000000000003,"xT1":424.9,"yT1":0,"xT2":1058.1,"yT2":0,"toosoon":0,"cond_shown":"Congruent","ratio_trial":300,"L_num":1,"L_den":3,"R_num":19,"R_den":30,"correct_side":2,"subjID":"samuelalejandromesaortiz14","gender":"0","school":"6","age":"11"},{"start_time":1551800623687,"click_time":1551800625527,"finger_time":1551800625367,"fix_duration":1176.8694156642682,"trial":14,"RT":1680,"MT":160,"sideResp":2,"stimulus":[],"xmouse":[787,787,787,787,787,787,787,787,787,787,787,787,787,787,787,787,787,787,787,787,787,787,787,787,787,787,787,787,787,787,787,787,787,787,787,787,787,787,787,787,787,787,787,787,787,787,787,787,787,787,787,787,787,787,787,787,787,787,787,787,787,787,787,787,787,787,787,787,787,787,787,787,787,787,787,787,787,787,787,789,791,794,798,818,833,850,895,928,966,1037,1067,1092,1119],"ymouse":[502,502,502,502,502,502,502,502,502,502,502,502,502,502,502,502,502,502,502,502,502,502,502,502,502,502,502,502,502,502,502,502,502,502,502,502,502,502,502,502,502,502,502,502,502,502,502,502,502,502,502,502,502,502,502,502,502,502,502,502,502,502,502,502,502,502,502,502,502,502,502,502,502,502,502,502,502,502,501,500,498,494,490,466,447,426,365,309,259,167,138,116,93],"timestamp_mouse":[8,21,42,61,80,101,121,140,160,180,200,220,241,259,280,300,320,341,361,380,400,420,441,460,480,500,520,540,560,580,600,620,641,659,680,700,720,739,760,780,800,820,841,859,880,901,920,940,959,980,1000,1020,1041,1060,1081,1100,1121,1140,1160,1180,1200,1221,1241,1261,1281,1300,1320,1340,1359,1381,1399,1420,1440,1460,1481,1501,1520,1541,1560,1580,1601,1620,1639,1660,1680,1700,1720,1740,1760,1780,1801,1821,1840],"xSR":741.5,"ySR":449.15000000000003,"xT1":424.9,"yT1":0,"xT2":1058.1,"yT2":0,"toosoon":0,"cond_shown":"Incongruent","ratio_trial":300,"L_num":1,"L_den":2,"R_num":2,"R_den":10,"correct_side":1,"subjID":"samuelalejandromesaortiz14","gender":"0","school":"6","age":"11"},{"start_time":1551800627916,"click_time":1551800630208,"finger_time":1551800629387,"fix_duration":1187.2511995399852,"trial":15,"RT":1471,"MT":821,"sideResp":1,"stimulus":[],"xmouse":[792,792,792,792,792,792,792,792,792,792,792,792,792,792,792,792,792,792,792,792,792,792,792,792,792,792,792,792,792,792,792,792,792,792,792,792,792,792,792,792,792,792,792,792,792,792,792,792,792,792,792,792,792,792,792,792,792,792,792,792,792,792,792,792,792,792,792,792,792,792,792,792,790,785,772,767,740,726,713,697,683,656,645,635,626,620,602,596,591,587,581,573,570,567,564,561,559,558,557,556,555,554,553,552,550,549,547,546,545,543,541,533,529,525,521],"ymouse":[476,476,476,476,476,476,476,476,476,476,476,476,476,476,476,476,476,476,476,476,476,476,476,476,476,476,476,476,476,476,476,476,476,476,476,476,476,476,476,476,476,476,476,476,476,476,476,476,476,476,476,476,476,476,476,476,476,476,476,476,476,476,476,476,476,476,476,476,476,476,476,472,460,441,408,395,346,327,309,288,269,229,212,199,186,176,150,140,132,124,117,107,102,99,94,92,92,91,91,90,90,89,88,87,86,85,84,83,83,83,82,80,79,77,76],"timestamp_mouse":[11,32,51,71,91,111,131,151,171,192,212,232,251,271,291,311,331,351,372,391,411,432,452,471,491,511,531,551,570,592,611,630,651,671,691,712,731,750,771,791,811,831,852,871,891,911,932,952,972,991,1010,1031,1052,1071,1091,1112,1131,1151,1170,1191,1211,1231,1251,1272,1292,1311,1332,1352,1372,1391,1411,1432,1451,1471,1491,1512,1530,1551,1571,1591,1611,1631,1651,1671,1692,1711,1731,1750,1771,1791,1811,1831,1850,1871,1891,1911,1931,1952,1971,1991,2011,2031,2051,2071,2090,2111,2130,2150,2171,2191,2211,2231,2251,2271,2291],"xSR":741.5,"ySR":449.15000000000003,"xT1":424.9,"yT1":0,"xT2":1058.1,"yT2":0,"toosoon":0,"cond_shown":"Incongruent","ratio_trial":200,"L_num":4,"L_den":30,"R_num":1,"R_den":3,"correct_side":2,"subjID":"samuelalejandromesaortiz14","gender":"0","school":"6","age":"11"},{"start_time":1551800633354,"click_time":1551800639487,"finger_time":1551800639146,"fix_duration":686.0800061628752,"trial":16,"RT":5792,"MT":341,"sideResp":2,"stimulus":[],"xmouse":[815,815,815,815,815,815,815,815,815,815,815,815,815,815,815,815,815,815,815,815,815,815,815,815,815,815,815,815,815,815,815,815,815,815,815,815,815,815,815,815,815,815,815,815,815,815,815,815,815,815,815,815,815,815,815,815,815,815,815,815,815,815,815,815,815,815,815,815,815,815,815,815,815,815,815,815,815,815,815,815,815,815,815,815,815,815,815,815,815,815,815,815,815,815,815,815,815,815,815,815,815,815,815,815,815,815,815,815,815,815,815,815,815,815,815,815,815,815,815,815,815,815,815,815,815,815,815,815,815,815,815,815,815,815,815,815,815,815,815,815,815,815,815,815,815,815,815,815,815,815,815,815,815,815,815,815,815,815,815,815,815,815,815,815,815,815,815,815,815,815,815,815,815,815,815,815,815,815,815,815,815,815,815,815,815,815,815,815,815,815,815,815,815,815,815,815,815,815,815,815,815,815,815,815,815,815,815,815,815,815,815,815,815,815,815,815,815,815,815,815,815,815,815,815,815,815,815,815,815,815,815,815,815,815,815,815,815,815,815,815,815,815,815,815,815,815,815,815,815,815,815,815,815,815,815,815,815,815,815,815,815,815,815,815,815,815,815,815,815,815,815,815,815,815,815,815,815,815,815,815,815,815,815,815,815,815,818,825,831,839,843,851,867,872,909,922,932,939,946,968,980,992,1006,1029,1066,1085,1102],"ymouse":[504,504,504,504,504,504,504,504,504,504,504,504,504,504,504,504,504,504,504,504,504,504,504,504,504,504,504,504,504,504,504,504,504,504,504,504,504,504,504,504,504,504,504,504,504,504,504,504,504,504,504,504,504,504,504,504,504,504,504,504,504,504,504,504,504,504,504,504,504,504,504,504,504,504,504,504,504,504,504,504,504,504,504,504,504,504,504,504,504,504,504,504,504,504,504,504,504,504,504,504,504,504,504,504,504,504,504,504,504,504,504,504,504,504,504,504,504,504,504,504,504,504,504,504,504,504,504,504,504,504,504,504,504,504,504,504,504,504,504,504,504,504,504,504,504,504,504,504,504,504,504,504,504,504,504,504,504,504,504,504,504,504,504,504,504,504,504,504,504,504,504,504,504,504,504,504,504,504,504,504,504,504,504,504,504,504,504,504,504,504,504,504,504,504,504,504,504,504,504,504,504,504,504,504,504,504,504,504,504,504,504,504,504,504,504,504,504,504,504,504,504,504,504,504,504,504,504,504,504,504,504,504,504,504,504,504,504,504,504,504,504,504,504,504,504,504,504,504,504,504,504,504,504,504,504,504,504,504,504,504,504,504,504,504,504,504,504,504,504,504,504,504,504,504,504,504,504,504,504,504,504,504,504,504,504,497,486,474,460,445,440,430,404,394,321,292,270,253,240,217,208,198,188,169,134,109,81],"timestamp_mouse":[14,44,53,74,92,114,134,154,174,193,212,233,253,273,293,314,334,353,374,393,414,433,454,473,493,513,533,552,574,593,614,633,654,674,694,714,734,752,773,793,813,833,854,873,894,913,934,954,973,992,1014,1034,1053,1073,1093,1112,1133,1153,1174,1194,1214,1234,1253,1273,1293,1314,1333,1354,1374,1393,1414,1432,1453,1473,1493,1514,1533,1552,1574,1593,1612,1633,1653,1674,1693,1714,1733,1752,1773,1794,1812,1833,1854,1874,1894,1912,1934,1953,1973,1994,2014,2034,2053,2072,2094,2114,2132,2153,2174,2193,2214,2233,2253,2274,2292,2314,2333,2353,2374,2393,2414,2433,2454,2474,2493,2513,2533,2554,2574,2593,2612,2633,2653,2673,2693,2714,2734,2753,2773,2794,2813,2833,2853,2873,2892,2913,2934,2954,2973,2994,3014,3032,3053,3072,3093,3114,3132,3153,3172,3194,3213,3233,3253,3274,3293,3314,3333,3354,3374,3393,3413,3434,3453,3474,3494,3513,3532,3554,3574,3593,3613,3634,3653,3673,3694,3713,3732,3753,3773,3793,3813,3833,3853,3874,3893,3914,3932,3952,3974,3994,4013,4033,4053,4073,4093,4112,4134,4153,4174,4194,4214,4233,4253,4274,4293,4314,4332,4353,4374,4394,4413,4434,4454,4474,4493,4514,4534,4554,4574,4593,4614,4634,4654,4674,4693,4713,4734,4754,4774,4793,4813,4833,4853,4874,4894,4914,4933,4954,4974,4993,5014,5032,5054,5072,5094,5114,5133,5152,5174,5193,5213,5233,5254,5273,5293,5314,5334,5353,5373,5393,5414,5434,5454,5474,5493,5513,5533,5553,5572,5594,5614,5634,5653,5674,5694,5714,5733,5754,5774,5792,5812,5833,5853,5873,5893,5913,5933,5954,5973,5992,6012,6033,6053,6074,6093,6113,6133],"xSR":741.5,"ySR":449.15000000000003,"xT1":424.9,"yT1":0,"xT2":1058.1,"yT2":0,"toosoon":0,"cond_shown":"Congruent","ratio_trial":100,"L_num":10,"L_den":25,"R_num":3,"R_den":10,"correct_side":1,"subjID":"samuelalejandromesaortiz14","gender":"0","school":"6","age":"11"},{"start_time":1551800642863,"click_time":1551800644827,"finger_time":1551800644528,"fix_duration":893.4213768477634,"trial":17,"RT":1665,"MT":299,"sideResp":1,"stimulus":[],"xmouse":[794,794,794,794,794,794,794,794,794,794,794,794,794,794,794,794,794,794,794,794,794,794,794,794,794,794,794,794,794,794,794,794,794,794,794,794,794,794,794,794,794,794,794,794,794,794,794,794,794,794,794,794,794,794,794,794,794,794,794,794,794,794,794,794,794,794,794,794,794,794,794,794,794,794,794,794,794,794,794,791,788,783,776,766,746,737,727,718,710,676,662,651,642,635,618,604,581,534,510],"ymouse":[490,491,491,491,491,491,491,491,491,491,491,491,491,491,491,491,491,491,491,491,491,491,491,491,491,491,491,491,491,491,491,491,491,491,491,491,491,491,491,491,491,491,491,491,491,491,491,491,491,491,491,491,491,491,491,491,491,491,491,491,491,491,491,491,491,491,491,491,491,491,491,491,491,491,491,491,491,491,491,491,484,474,456,434,389,367,344,321,295,222,198,177,160,143,107,89,63,21,3],"timestamp_mouse":[8,24,47,64,83,105,124,144,164,184,205,224,244,265,285,304,324,344,364,385,404,425,444,465,485,504,524,544,564,584,604,625,644,664,684,705,725,745,764,783,804,825,844,864,884,905,925,945,964,985,1004,1025,1044,1064,1085,1104,1124,1144,1164,1184,1205,1225,1244,1265,1285,1305,1324,1345,1364,1385,1405,1425,1444,1465,1484,1504,1525,1545,1564,1584,1604,1624,1645,1665,1684,1703,1724,1744,1765,1783,1803,1824,1844,1865,1884,1904,1924,1945,1964],"xSR":741.5,"ySR":449.15000000000003,"xT1":424.9,"yT1":0,"xT2":1058.1,"yT2":0,"toosoon":0,"cond_shown":"Congruent","ratio_trial":200,"L_num":4,"L_den":10,"R_num":3,"R_den":15,"correct_side":1,"subjID":"samuelalejandromesaortiz14","gender":"0","school":"6","age":"11"},{"start_time":1551800646951,"click_time":1551800649167,"finger_time":1551800648607,"fix_duration":1122.8285605310828,"trial":18,"RT":1656,"MT":560,"sideResp":2,"stimulus":[],"xmouse":[772,772,772,772,772,772,772,772,772,772,772,772,772,772,772,772,772,772,772,772,772,772,772,772,772,772,772,772,772,772,772,772,772,772,772,772,772,772,772,772,772,772,772,772,772,772,772,772,772,772,772,772,772,772,772,772,772,772,772,772,772,772,772,772,772,772,772,772,772,772,772,772,772,772,772,772,772,772,773,774,777,784,793,803,844,860,875,887,898,919,927,936,947,962,980,986,992,999,1003,1014,1017,1021,1023,1028,1039,1043,1048,1051,1058,1069,1071],"ymouse":[497,497,497,497,497,497,497,497,497,497,497,497,497,497,497,497,497,497,497,497,497,497,497,497,497,497,497,497,497,497,497,497,497,497,497,497,497,497,497,497,497,497,497,497,497,497,497,497,497,497,497,497,497,497,497,497,497,497,497,497,497,497,497,497,497,497,497,497,497,497,497,497,497,497,497,497,497,497,493,487,479,464,445,431,383,366,347,329,310,274,258,243,228,208,188,180,173,167,164,158,157,155,154,152,148,145,143,140,133,110,92],"timestamp_mouse":[16,36,56,76,96,116,137,155,176,196,217,235,257,277,296,316,335,357,375,396,417,436,457,476,496,516,536,555,576,597,616,636,656,675,697,716,735,756,777,796,816,836,856,877,896,915,936,956,975,996,1016,1036,1056,1076,1096,1117,1136,1157,1176,1197,1217,1236,1256,1276,1296,1316,1336,1357,1377,1395,1415,1437,1457,1477,1496,1516,1536,1557,1576,1597,1617,1637,1656,1677,1696,1715,1736,1756,1776,1796,1816,1836,1855,1876,1896,1916,1936,1957,1975,1996,2016,2036,2056,2075,2096,2116,2136,2157,2176,2196,2216],"xSR":741.5,"ySR":449.15000000000003,"xT1":424.9,"yT1":0,"xT2":1058.1,"yT2":0,"toosoon":0,"cond_shown":"Congruent","ratio_trial":300,"L_num":1,"L_den":5,"R_num":11,"R_den":22,"correct_side":2,"subjID":"samuelalejandromesaortiz14","gender":"0","school":"6","age":"11"},{"start_time":1551800650420,"click_time":1551800652167,"finger_time":1551800652008,"fix_duration":250,"trial":19,"RT":1588,"MT":159,"sideResp":1,"stimulus":[],"xmouse":[767,767,767,767,767,767,767,767,767,767,767,767,767,767,767,767,767,767,767,767,768,768,768,768,768,768,768,768,768,768,768,768,768,768,768,768,768,768,768,768,768,768,768,768,768,768,768,768,768,768,768,768,768,768,768,768,768,768,768,768,768,768,768,768,768,768,768,768,768,768,768,768,768,768,768,768,765,760,751,737,708,665,646,624,600,576,530,512],"ymouse":[478,478,478,478,478,478,478,478,478,478,478,478,478,478,478,478,478,478,478,478,478,478,478,478,478,478,478,478,478,478,478,478,478,478,478,478,478,478,478,478,478,478,478,478,478,478,478,478,478,478,478,478,478,478,478,478,478,478,478,478,478,478,478,478,478,478,478,478,478,478,478,478,478,478,478,478,476,469,458,444,416,369,337,295,243,194,108,76],"timestamp_mouse":[11,27,48,68,87,108,127,148,168,188,207,228,247,267,288,307,326,348,367,386,407,428,446,468,487,508,527,547,567,588,607,627,647,667,688,706,727,748,768,786,808,827,847,867,887,908,926,947,966,988,1006,1027,1047,1067,1087,1107,1127,1148,1168,1188,1208,1227,1247,1267,1288,1308,1327,1348,1367,1386,1407,1427,1447,1467,1487,1508,1527,1548,1567,1588,1607,1627,1647,1667,1688,1708,1727,1747],"xSR":741.5,"ySR":449.15000000000003,"xT1":424.9,"yT1":0,"xT2":1058.1,"yT2":0,"toosoon":0,"cond_shown":"Incongruent","ratio_trial":100,"L_num":8,"L_den":16,"R_num":6,"R_den":10,"correct_side":2,"subjID":"samuelalejandromesaortiz14","gender":"0","school":"6","age":"11"},{"start_time":1551800653458,"click_time":1551800655447,"finger_time":1551800654927,"fix_duration":250,"trial":20,"RT":1469,"MT":520,"sideResp":2,"stimulus":[],"xmouse":[807,807,807,807,807,805,805,804,803,803,803,803,803,803,803,803,803,803,803,800,796,792,788,785,784,784,784,784,784,784,784,784,784,784,784,784,784,784,784,784,784,784,784,784,784,784,784,784,784,784,784,784,784,784,784,784,784,784,784,784,784,784,784,784,784,784,784,784,784,783,786,795,810,835,911,958,999,1059,1093,1142,1168,1188,1209,1225,1248,1254,1255,1254,1243,1229,1221,1210,1201,1193,1180,1176,1173,1165,1160,1154],"ymouse":[468,468,468,468,468,469,471,473,473,474,474,474,474,474,474,474,474,474,474,475,476,477,479,480,480,480,480,480,480,480,480,480,480,480,480,480,480,480,480,480,480,480,480,480,480,480,480,480,480,480,480,480,480,480,480,480,480,480,480,480,480,480,480,480,480,480,480,480,480,480,476,468,459,447,415,398,387,370,359,337,322,305,286,267,226,204,183,162,134,106,95,84,77,69,63,63,63,63,63,63],"timestamp_mouse":[10,40,48,69,89,109,129,149,170,189,209,229,250,269,289,309,329,350,368,389,409,429,449,469,490,509,529,549,570,590,610,629,649,670,689,710,729,749,769,789,809,829,850,869,890,909,929,949,969,989,1010,1029,1049,1070,1089,1110,1130,1149,1170,1189,1209,1229,1250,1270,1289,1310,1330,1350,1370,1390,1410,1430,1449,1469,1489,1508,1529,1549,1569,1590,1610,1628,1649,1670,1689,1708,1729,1749,1769,1789,1808,1829,1850,1869,1889,1909,1929,1950,1969,1989],"xSR":741.5,"ySR":449.15000000000003,"xT1":424.9,"yT1":0,"xT2":1058.1,"yT2":0,"toosoon":0,"cond_shown":"Congruent","ratio_trial":200,"L_num":16,"L_den":30,"R_num":9,"R_den":27,"correct_side":1,"subjID":"samuelalejandromesaortiz14","gender":"0","school":"6","age":"11"},{"start_time":1551800657467,"click_time":1551800663287,"finger_time":1551800661447,"fix_duration":718.1003807147366,"trial":21,"RT":3980,"MT":1840,"sideResp":1,"stimulus":[],"xmouse":[783,783,783,783,783,782,782,782,782,782,782,782,782,781,780,780,780,780,780,780,780,780,780,780,780,780,780,780,780,780,780,780,780,780,780,780,780,780,780,780,780,780,780,780,780,780,780,780,780,780,780,780,780,780,780,780,780,780,780,780,780,780,780,780,780,780,780,780,780,780,780,780,780,780,780,780,780,780,780,780,780,780,780,780,780,780,780,780,780,780,780,780,779,779,779,779,779,779,779,779,779,779,779,779,779,779,779,779,779,779,779,779,779,779,779,779,779,779,779,779,779,779,779,779,779,779,779,779,779,779,779,779,779,779,779,779,779,779,779,779,779,779,779,779,779,779,779,779,779,779,779,779,779,779,779,779,779,779,779,779,779,779,779,779,779,779,779,779,779,779,779,779,779,779,779,779,779,779,779,779,779,779,779,779,779,779,779,779,779,779,779,776,773,768,761,760,759,758,758,755,754,752,751,749,747,747,746,746,746,744,742,741,738,734,725,722,720,719,718,716,715,713,711,710,706,705,703,701,700,696,694,690,687,682,677,674,671,667,658,645,640,635,632,629,624,622,621,619,617,611,608,605,599,595,581,576,570,561,549,534,529,526,526,526,526,526,526,525,525,525,525,525,525,525,525,525,525,525,525,525,525,525,525,525,525,525,525,525,525,525,525,517],"ymouse":[496,496,496,496,496,496,496,496,496,496,496,496,496,495,495,494,494,494,494,494,494,494,494,494,494,494,494,494,494,494,494,494,494,494,494,494,494,494,494,494,494,494,494,494,494,494,494,494,494,494,494,494,494,494,494,494,494,494,494,494,494,494,494,494,494,494,494,494,494,494,494,494,494,494,494,494,494,494,494,494,494,494,494,494,494,494,494,494,494,494,494,494,494,494,494,494,494,494,494,493,493,493,493,493,493,493,493,493,493,493,493,493,493,493,493,493,493,493,493,493,493,493,493,493,493,493,493,493,493,493,493,493,493,493,493,493,493,493,493,493,493,493,493,493,493,493,493,493,493,493,493,493,493,493,493,493,493,493,493,493,493,493,493,493,493,493,493,493,493,493,493,493,493,493,493,493,493,493,493,493,493,493,493,493,493,493,493,493,493,493,493,486,478,470,460,456,455,453,451,447,444,442,440,437,433,433,432,431,431,429,425,422,418,413,402,399,396,395,393,392,390,389,386,385,381,380,379,378,377,372,370,366,362,358,351,347,343,337,329,315,309,303,299,295,288,285,282,279,275,265,259,251,241,232,212,200,186,165,135,100,89,86,85,85,85,85,85,84,84,84,84,84,84,84,84,84,84,84,84,84,84,84,84,84,84,84,84,84,84,84,84,78],"timestamp_mouse":[1,34,40,59,80,100,120,140,160,180,200,220,240,260,281,301,321,340,360,381,401,421,439,461,480,500,521,541,560,581,601,620,640,661,681,701,719,741,761,781,800,821,840,861,881,899,921,940,960,981,1000,1020,1040,1059,1080,1101,1119,1141,1160,1180,1200,1220,1240,1261,1280,1300,1319,1340,1361,1380,1400,1420,1440,1461,1481,1501,1520,1541,1559,1581,1599,1620,1641,1661,1681,1701,1721,1741,1760,1781,1801,1820,1841,1860,1880,1900,1921,1940,1961,1981,2001,2020,2041,2060,2080,2101,2120,2141,2160,2180,2201,2220,2240,2261,2280,2301,2320,2340,2360,2380,2400,2420,2441,2460,2480,2500,2521,2541,2561,2580,2601,2621,2640,2661,2680,2701,2720,2739,2759,2781,2800,2820,2840,2861,2880,2900,2920,2940,2961,2980,2999,3020,3041,3060,3081,3101,3120,3141,3160,3180,3201,3220,3241,3260,3280,3300,3319,3341,3361,3381,3401,3420,3440,3460,3479,3500,3520,3541,3560,3581,3601,3621,3640,3660,3680,3701,3721,3740,3761,3780,3800,3821,3840,3861,3880,3900,3920,3941,3961,3980,3999,4020,4041,4061,4079,4099,4121,4140,4161,4180,4201,4221,4240,4261,4280,4301,4321,4340,4361,4381,4400,4419,4440,4461,4480,4501,4521,4540,4561,4579,4600,4621,4641,4660,4680,4701,4720,4741,4761,4779,4800,4821,4840,4860,4879,4900,4921,4940,4960,4980,4999,5020,5041,5059,5079,5100,5120,5141,5160,5180,5200,5221,5240,5261,5281,5300,5321,5341,5360,5380,5400,5420,5440,5460,5480,5500,5521,5541,5561,5580,5601,5621,5641,5661,5680,5700,5720,5739,5761,5780,5800,5819],"xSR":741.5,"ySR":449.15000000000003,"xT1":424.9,"yT1":0,"xT2":1058.1,"yT2":0,"toosoon":0,"cond_shown":"Congruent","ratio_trial":300,"L_num":5,"L_den":25,"R_num":7,"R_den":14,"correct_side":2,"subjID":"samuelalejandromesaortiz14","gender":"0","school":"6","age":"11"},{"start_time":1551800667145,"click_time":1551800668987,"finger_time":1551800668628,"fix_duration":1457.1398015764987,"trial":22,"RT":1483,"MT":359,"sideResp":2,"stimulus":[],"xmouse":[808,808,808,808,808,808,808,808,808,808,808,808,808,808,808,808,808,808,808,808,808,808,808,808,808,808,808,808,808,808,808,808,808,808,808,808,808,808,808,808,808,808,808,808,808,808,808,808,808,808,808,808,808,808,808,808,808,808,808,808,808,808,808,808,808,808,808,808,808,808,808,809,810,814,817,847,874,904,938,964,1006,1022,1032,1042,1044,1047,1049,1049,1051,1052,1057,1061,1066],"ymouse":[477,477,477,477,477,477,477,477,477,477,477,477,477,477,477,477,477,477,477,477,477,477,477,477,477,477,477,477,477,477,477,477,477,477,477,477,477,477,477,477,477,477,477,477,477,477,477,477,477,477,477,477,477,477,477,477,477,477,477,477,477,477,477,477,477,477,477,477,477,477,477,472,468,458,445,384,339,286,237,201,159,147,139,130,127,118,115,113,111,109,105,102,98],"timestamp_mouse":[11,36,43,63,83,102,122,143,162,182,202,223,242,263,282,302,322,343,362,382,402,422,443,462,481,503,522,542,563,583,602,622,642,661,682,703,722,742,763,781,802,823,842,862,881,903,922,942,963,981,1002,1022,1041,1062,1083,1102,1123,1142,1162,1182,1202,1222,1242,1261,1282,1302,1322,1343,1362,1383,1401,1421,1443,1462,1483,1502,1523,1542,1562,1582,1602,1622,1642,1662,1682,1701,1721,1742,1762,1781,1803,1821,1842],"xSR":741.5,"ySR":449.15000000000003,"xT1":424.9,"yT1":0,"xT2":1058.1,"yT2":0,"toosoon":0,"cond_shown":"Incongruent","ratio_trial":100,"L_num":10,"L_den":25,"R_num":9,"R_den":18,"correct_side":2,"subjID":"samuelalejandromesaortiz14","gender":"0","school":"6","age":"11"},{"start_time":1551800671921,"click_time":1551800674268,"finger_time":1551800673907,"fix_duration":250,"trial":23,"RT":1986,"MT":361,"sideResp":2,"stimulus":[],"xmouse":[778,778,778,778,778,778,778,778,778,778,778,778,778,778,778,778,778,778,778,778,778,778,778,778,778,778,778,778,778,778,778,778,778,778,778,778,778,778,778,778,778,778,778,778,778,778,778,778,778,778,778,778,778,778,778,778,778,778,778,778,778,778,778,778,778,778,778,778,778,778,778,778,778,778,778,778,778,778,778,778,778,778,778,778,778,778,778,778,778,778,778,778,778,778,778,778,778,780,787,796,813,876,902,920,944,953,991,1006,1020,1037,1051,1075,1084,1088,1092,1096,1102,1105],"ymouse":[488,488,488,488,488,488,488,488,488,488,488,488,488,488,488,488,488,488,488,488,488,488,488,488,488,488,488,488,488,488,488,488,488,488,488,488,488,488,488,488,488,488,488,488,488,488,488,488,488,488,488,488,488,488,488,488,488,488,488,488,488,488,488,488,488,488,488,488,488,488,488,488,488,488,488,488,486,486,485,485,485,485,485,485,485,485,485,485,485,485,485,485,485,485,485,485,484,478,464,444,416,316,282,258,229,220,189,179,166,152,142,125,118,114,111,106,101,98],"timestamp_mouse":[19,26,47,66,86,107,127,147,165,187,207,226,246,265,287,307,326,347,366,387,407,426,447,466,486,506,527,547,566,587,607,625,647,667,686,707,726,746,767,787,807,826,847,867,885,906,927,946,967,987,1006,1026,1046,1067,1086,1107,1127,1146,1167,1187,1206,1227,1246,1266,1286,1307,1327,1345,1366,1386,1407,1427,1447,1467,1486,1506,1526,1546,1566,1586,1605,1626,1646,1666,1686,1706,1727,1745,1767,1787,1807,1826,1846,1866,1886,1907,1926,1946,1967,1986,2007,2025,2046,2066,2087,2105,2126,2147,2166,2186,2205,2226,2247,2267,2287,2306,2326,2346],"xSR":741.5,"ySR":449.15000000000003,"xT1":424.9,"yT1":0,"xT2":1058.1,"yT2":0,"toosoon":0,"cond_shown":"Congruent","ratio_trial":100,"L_num":6,"L_den":20,"R_num":5,"R_den":25,"correct_side":1,"subjID":"samuelalejandromesaortiz14","gender":"0","school":"6","age":"11"},{"start_time":1551800676222,"click_time":1551800678348,"finger_time":1551800677587,"fix_duration":1013.4065283192741,"trial":24,"RT":1365,"MT":761,"sideResp":2,"stimulus":[],"xmouse":[792,792,792,792,792,792,792,792,792,792,792,792,792,792,792,792,792,792,792,792,792,792,792,792,792,792,792,792,792,792,792,792,792,792,792,792,792,792,792,792,792,792,792,792,792,792,792,792,792,792,792,792,792,792,792,792,792,792,792,792,792,792,792,792,792,792,792,794,798,803,812,830,847,866,909,958,1065,1113,1163,1208,1232,1260,1266,1269,1270,1271,1271,1271,1271,1271,1270,1257,1249,1238,1224,1210,1188,1183,1180,1176,1173,1167,1164,1162,1161,1160,1157],"ymouse":[487,487,487,487,487,487,487,486,485,485,485,485,485,484,483,483,482,481,481,481,481,481,481,481,481,481,481,481,481,481,481,481,481,481,481,481,481,481,481,481,481,481,481,481,481,481,481,481,481,481,481,481,481,481,481,481,481,481,481,481,481,481,481,481,478,476,464,454,442,428,408,376,357,341,314,294,228,186,148,107,80,40,24,15,9,6,5,5,5,5,5,7,11,15,21,28,33,34,34,35,35,35,35,35,35,35,36],"timestamp_mouse":[10,41,45,66,85,106,124,145,166,186,205,225,244,266,285,305,326,345,365,386,404,425,445,466,485,506,525,546,566,585,605,625,645,665,685,706,725,746,764,785,804,825,846,865,885,905,925,945,966,985,1005,1025,1046,1066,1085,1106,1124,1146,1165,1185,1205,1226,1245,1265,1286,1305,1325,1345,1365,1385,1405,1425,1445,1465,1485,1505,1525,1545,1565,1586,1605,1625,1645,1666,1686,1705,1725,1745,1766,1785,1805,1825,1845,1865,1886,1904,1925,1946,1965,1985,2006,2024,2044,2064,2086,2105,2126],"xSR":741.5,"ySR":449.15000000000003,"xT1":424.9,"yT1":0,"xT2":1058.1,"yT2":0,"toosoon":0,"cond_shown":"Incongruent","ratio_trial":200,"L_num":1,"L_den":3,"R_num":2,"R_den":15,"correct_side":1,"subjID":"samuelalejandromesaortiz14","gender":"0","school":"6","age":"11"},{"start_time":1551800681188,"click_time":1551800683307,"finger_time":1551800682747,"fix_duration":1400.7754955198027,"trial":25,"RT":1559,"MT":560,"sideResp":1,"stimulus":[],"xmouse":[780,780,780,780,780,780,780,780,780,780,780,780,780,780,780,780,780,780,780,780,780,780,780,780,780,780,780,780,780,780,780,780,780,780,780,780,780,780,780,780,780,780,780,780,780,780,780,780,780,780,780,780,780,780,780,780,780,780,780,780,780,780,780,780,780,780,780,780,779,779,777,775,772,770,769,768,766,747,733,714,693,670,647,641,635,630,625,607,601,596,593,590,586,581,575,568,560,549,546,545,544,539,532,529,527,522],"ymouse":[465,465,465,465,465,465,465,465,465,465,465,465,465,465,465,465,465,465,465,465,465,465,465,465,465,465,465,465,465,465,465,465,465,465,465,465,465,465,465,465,465,465,465,465,465,465,465,465,465,465,465,465,465,465,465,465,465,465,465,465,465,465,465,465,465,465,465,465,466,466,466,466,467,467,467,467,467,447,426,403,377,348,315,302,289,276,259,221,209,201,196,187,169,158,144,128,115,99,96,93,91,84,76,73,71,69],"timestamp_mouse":[19,41,60,79,98,120,138,159,179,199,220,239,258,280,299,320,340,359,380,398,419,440,459,480,500,519,539,560,579,599,619,639,659,680,699,719,740,760,779,799,820,840,858,880,900,920,938,960,979,998,1019,1040,1058,1080,1099,1119,1138,1160,1180,1200,1219,1238,1260,1280,1300,1319,1340,1360,1379,1398,1419,1440,1459,1479,1500,1519,1540,1559,1578,1598,1619,1639,1658,1679,1699,1718,1739,1759,1780,1798,1818,1839,1859,1880,1899,1919,1938,1960,1979,2000,2018,2039,2058,2078,2098,2119],"xSR":741.5,"ySR":449.15000000000003,"xT1":424.9,"yT1":0,"xT2":1058.1,"yT2":0,"toosoon":0,"cond_shown":"Incongruent","ratio_trial":200,"L_num":7,"L_den":10,"R_num":12,"R_den":24,"correct_side":1,"subjID":"samuelalejandromesaortiz14","gender":"0","school":"6","age":"11"},{"start_time":1551800685419,"click_time":1551800687527,"finger_time":1551800686787,"fix_duration":1269.5364844798478,"trial":26,"RT":1368,"MT":740,"sideResp":2,"stimulus":[],"xmouse":[771,771,771,771,771,771,771,771,771,771,771,771,771,771,771,771,771,771,771,771,771,771,771,771,771,771,771,771,771,771,771,771,771,771,771,771,771,771,771,771,771,771,771,771,771,771,771,771,771,771,771,771,771,771,771,771,771,771,771,771,771,771,771,771,773,776,799,818,844,883,962,1098,1157,1199,1230,1246,1266,1273,1279,1283,1291,1294,1294,1294,1291,1290,1287,1283,1279,1270,1261,1249,1222,1211,1206,1203,1203,1203,1202,1201,1199,1191,1183,1173,1160,1148],"ymouse":[496,496,496,496,496,496,496,496,496,496,496,496,496,496,496,496,496,496,496,496,496,496,496,496,496,496,496,496,496,496,496,496,496,496,496,496,496,496,496,496,496,496,496,496,496,496,496,496,496,496,496,496,496,496,496,496,496,496,496,496,496,496,496,496,497,497,491,486,478,467,435,371,336,305,283,263,235,222,209,195,170,133,117,105,96,91,89,88,88,87,87,87,87,87,87,87,87,87,87,87,86,83,79,74,70,67],"timestamp_mouse":[10,34,48,67,88,108,128,149,169,188,208,229,249,268,288,307,328,347,369,389,407,428,448,469,489,509,529,547,569,589,607,629,649,668,688,709,728,747,769,789,809,829,848,868,888,909,927,948,967,989,1008,1028,1047,1068,1089,1109,1127,1149,1168,1189,1208,1228,1249,1268,1289,1309,1327,1348,1368,1388,1408,1428,1449,1468,1489,1508,1528,1549,1568,1588,1607,1628,1648,1667,1688,1707,1728,1749,1768,1789,1809,1828,1848,1868,1887,1907,1927,1948,1969,1988,2008,2028,2047,2068,2087,2108],"xSR":741.5,"ySR":449.15000000000003,"xT1":424.9,"yT1":0,"xT2":1058.1,"yT2":0,"toosoon":0,"cond_shown":"Incongruent","ratio_trial":300,"L_num":13,"L_den":26,"R_num":12,"R_den":15,"correct_side":2,"subjID":"samuelalejandromesaortiz14","gender":"0","school":"6","age":"11"},{"start_time":1551800690875,"click_time":1551800693688,"finger_time":1551800693247,"fix_duration":1046.3569880794757,"trial":27,"RT":2372,"MT":441,"sideResp":1,"stimulus":[],"xmouse":[811,811,811,811,811,811,811,811,811,811,811,811,811,811,811,811,811,811,811,811,811,811,811,811,811,811,811,811,811,811,811,811,811,811,811,811,811,811,811,811,811,811,811,811,811,811,811,811,811,811,811,811,811,811,811,811,811,811,811,811,811,811,811,811,811,811,811,811,811,811,811,811,811,811,811,811,811,811,811,811,811,811,811,811,811,811,811,811,811,811,811,811,811,811,811,811,811,811,811,811,811,811,810,809,809,809,808,808,808,808,807,807,807,805,804,802,797,790,778,770,762,743,715,637,618,618,618,618,618,618,618,618,618,618,618,618,618,618,618,618,516],"ymouse":[516,516,516,516,516,516,516,516,516,516,516,516,516,516,516,516,516,516,516,516,516,516,516,516,516,516,516,516,516,516,516,516,516,516,516,516,516,516,516,516,516,516,516,516,516,516,516,516,516,516,516,516,516,516,516,516,516,516,516,516,516,516,516,516,516,516,516,516,516,516,516,516,516,516,516,516,516,516,516,516,516,516,516,516,516,516,516,516,516,516,516,516,516,516,516,516,516,516,516,513,509,508,507,503,502,500,500,499,499,499,498,498,496,493,490,486,478,464,435,413,386,318,231,48,8,8,8,8,8,8,8,8,8,8,8,8,8,8,8,8,4],"timestamp_mouse":[21,36,53,72,91,112,133,151,173,192,211,233,252,271,293,312,331,353,373,393,413,433,452,472,493,512,533,553,572,593,612,631,652,672,693,711,733,752,771,792,812,831,853,873,893,913,933,951,973,992,1012,1033,1051,1073,1093,1112,1133,1152,1171,1193,1212,1232,1252,1271,1293,1313,1332,1351,1373,1392,1412,1432,1453,1472,1492,1512,1532,1553,1572,1593,1613,1632,1653,1671,1693,1713,1731,1751,1773,1793,1812,1832,1852,1872,1892,1912,1933,1953,1971,1992,2013,2033,2052,2072,2092,2112,2133,2152,2173,2191,2212,2233,2253,2271,2293,2313,2332,2353,2372,2393,2412,2432,2452,2473,2492,2512,2532,2553,2573,2592,2612,2632,2652,2671,2692,2712,2733,2752,2773,2792,2813],"xSR":741.5,"ySR":449.15000000000003,"xT1":424.9,"yT1":0,"xT2":1058.1,"yT2":0,"toosoon":0,"cond_shown":"Congruent","ratio_trial":300,"L_num":1,"L_den":5,"R_num":3,"R_den":6,"correct_side":2,"subjID":"samuelalejandromesaortiz14","gender":"0","school":"6","age":"11"},{"start_time":1551800695108,"click_time":1551800698067,"finger_time":1551800697547,"fix_duration":260.5695554103703,"trial":28,"RT":2439,"MT":520,"sideResp":1,"stimulus":[],"xmouse":[802,801,801,801,801,801,801,801,801,801,801,801,801,801,801,801,801,801,801,801,801,801,801,801,801,801,801,801,801,801,801,801,801,801,801,801,801,801,801,801,801,801,801,801,801,801,801,801,801,801,801,801,801,801,801,801,801,801,801,801,801,801,801,801,801,801,801,801,801,801,801,801,801,801,801,801,801,801,801,801,801,801,801,801,801,801,801,801,801,801,801,801,801,801,801,801,801,801,801,801,802,802,802,802,802,802,802,802,802,802,802,802,802,802,802,802,802,802,799,792,783,762,750,737,725,713,686,675,664,653,641,618,607,593,572,565,537,535,535,535,535,535,534,532,531,530,527,524],"ymouse":[525,523,523,523,523,523,523,523,523,523,523,523,522,522,522,522,522,522,522,522,522,522,522,522,522,522,522,522,522,522,522,522,522,522,522,522,522,522,522,522,522,522,522,522,522,522,522,522,522,522,522,522,522,522,522,522,522,522,522,522,522,522,522,522,522,522,522,522,522,522,522,522,522,522,522,522,522,521,521,520,520,520,520,520,520,520,520,520,520,520,520,520,520,520,520,520,519,518,517,517,515,514,513,513,512,510,508,507,505,502,500,497,496,496,496,495,493,489,484,473,459,423,402,380,358,335,289,269,251,232,210,173,156,137,107,100,68,66,66,66,66,66,66,66,66,66,67,67],"timestamp_mouse":[19,39,60,79,99,120,139,159,178,200,220,240,259,278,300,319,339,359,380,399,419,440,460,480,500,520,540,558,580,599,618,639,660,680,699,719,738,760,779,798,819,839,860,879,899,918,940,960,978,999,1020,1039,1059,1080,1099,1119,1139,1159,1180,1198,1220,1238,1260,1279,1298,1319,1340,1358,1379,1400,1420,1440,1460,1479,1500,1518,1540,1560,1579,1600,1620,1639,1659,1680,1700,1718,1740,1758,1779,1800,1820,1839,1858,1879,1900,1920,1939,1959,1980,2000,2020,2039,2060,2079,2099,2119,2138,2159,2180,2200,2218,2238,2259,2279,2300,2319,2339,2360,2379,2398,2419,2439,2460,2478,2499,2519,2540,2558,2579,2600,2620,2639,2660,2678,2700,2719,2739,2758,2779,2799,2819,2838,2858,2879,2900,2919,2938,2959],"xSR":741.5,"ySR":449.15000000000003,"xT1":424.9,"yT1":0,"xT2":1058.1,"yT2":0,"toosoon":0,"cond_shown":"Congruent","ratio_trial":100,"L_num":11,"L_den":22,"R_num":4,"R_den":10,"correct_side":1,"subjID":"samuelalejandromesaortiz14","gender":"0","school":"6","age":"11"},{"start_time":1551800699641,"click_time":1551800701768,"finger_time":1551800701168,"fix_duration":772.3385299135969,"trial":29,"RT":1527,"MT":600,"sideResp":2,"stimulus":[],"xmouse":[816,816,816,816,816,816,816,816,816,816,816,816,816,816,816,816,816,816,816,816,816,816,816,816,816,816,816,816,816,816,816,816,816,816,816,816,816,816,816,816,816,816,816,816,816,816,816,816,816,816,816,816,816,816,816,816,816,816,816,816,816,816,816,816,816,816,816,816,816,816,816,816,816,818,820,840,854,873,894,921,958,977,996,1011,1025,1052,1061,1071,1080,1097,1112,1115,1117,1119,1120,1123,1123,1123,1123,1123,1123,1123,1123,1123,1124,1124,1124],"ymouse":[489,489,489,489,489,489,489,489,489,489,489,489,489,489,489,489,489,489,489,489,489,489,489,489,489,489,489,489,489,489,489,489,489,489,489,489,489,489,489,489,489,489,489,489,489,489,489,489,489,489,489,489,489,489,489,489,489,489,489,489,489,489,489,489,489,489,489,489,489,489,489,489,485,484,477,454,443,428,412,388,354,338,322,309,295,268,253,238,221,192,157,147,137,133,127,119,117,114,114,114,114,114,114,112,107,101,95],"timestamp_mouse":[10,37,46,66,86,107,126,146,165,187,206,226,246,266,285,307,326,346,366,386,406,426,447,466,486,506,526,546,566,587,606,627,646,666,685,706,726,746,766,786,805,825,846,866,887,906,926,946,966,985,1006,1026,1047,1065,1087,1106,1126,1146,1167,1185,1206,1227,1247,1267,1287,1306,1327,1346,1366,1387,1407,1426,1447,1466,1485,1507,1527,1547,1566,1587,1605,1625,1647,1665,1687,1706,1725,1745,1766,1786,1805,1826,1846,1865,1887,1905,1925,1946,1966,1987,2006,2026,2045,2066,2086,2106,2127],"xSR":741.5,"ySR":449.15000000000003,"xT1":424.9,"yT1":0,"xT2":1058.1,"yT2":0,"toosoon":0,"cond_shown":"Congruent","ratio_trial":200,"L_num":6,"L_den":20,"R_num":11,"R_den":22,"correct_side":2,"subjID":"samuelalejandromesaortiz14","gender":"0","school":"6","age":"11"},{"start_time":1551800703517,"click_time":1551800707087,"finger_time":1551800706647,"fix_duration":969.1225365884605,"trial":30,"RT":3130,"MT":440,"sideResp":2,"stimulus":[],"xmouse":[789,789,789,789,789,789,789,789,789,789,789,789,789,789,789,789,789,789,789,789,789,789,789,789,789,789,789,789,789,789,789,789,789,789,789,789,789,789,789,789,789,789,789,789,789,789,789,789,789,789,789,789,789,789,789,789,789,789,789,789,789,789,789,789,789,789,789,789,789,789,789,789,789,789,789,789,789,789,789,789,789,789,789,789,789,789,789,789,789,789,788,784,781,780,779,779,779,779,779,779,778,778,778,778,778,778,778,778,778,778,778,778,778,778,778,778,778,778,778,778,778,778,778,778,778,778,778,778,778,778,778,778,778,778,778,778,778,778,778,778,778,778,778,778,778,778,778,778,778,778,778,779,782,788,797,809,866,917,972,1024,1070,1112,1168,1186,1200,1206,1212,1212,1212,1212,1210,1203,1196,1188,1179,1169,1163,1159,1156],"ymouse":[493,493,493,493,493,493,493,493,493,493,493,493,493,493,493,493,493,493,493,493,493,493,493,493,493,493,493,493,493,493,493,493,493,493,493,493,493,493,493,493,493,493,493,493,493,493,493,493,493,493,493,493,493,493,493,493,493,493,493,493,493,493,493,493,493,493,493,493,493,493,493,493,493,493,493,493,493,493,493,493,493,493,493,493,493,493,493,493,493,493,491,486,482,481,479,478,478,478,478,478,477,477,477,477,477,477,477,477,477,477,477,477,477,477,477,477,477,477,477,477,477,477,477,477,477,477,477,477,477,477,477,477,477,477,477,477,477,477,477,477,477,477,477,477,477,477,477,477,477,477,477,475,473,470,464,457,423,392,352,313,276,240,193,176,161,149,129,122,116,111,107,95,85,75,68,60,57,56,55],"timestamp_mouse":[11,34,51,70,90,110,131,150,170,190,210,230,249,270,290,310,330,349,371,391,410,431,450,471,490,510,529,551,570,591,610,629,650,669,690,711,730,750,770,790,810,829,850,869,890,910,930,950,970,989,1010,1030,1051,1070,1090,1110,1131,1150,1170,1190,1210,1230,1251,1269,1291,1310,1331,1349,1371,1390,1410,1429,1451,1470,1491,1510,1531,1551,1570,1590,1610,1630,1650,1671,1690,1711,1729,1749,1770,1790,1810,1829,1850,1871,1891,1910,1930,1951,1970,1990,2010,2030,2051,2069,2091,2110,2130,2149,2171,2190,2211,2230,2250,2271,2290,2311,2330,2351,2370,2389,2411,2429,2449,2470,2491,2511,2530,2550,2569,2591,2611,2630,2651,2670,2691,2711,2729,2751,2770,2790,2810,2830,2850,2870,2890,2910,2931,2950,2970,2991,3011,3029,3050,3070,3090,3111,3130,3150,3170,3190,3209,3229,3249,3270,3290,3311,3329,3350,3369,3390,3411,3430,3449,3470,3490,3509,3531,3550,3570],"xSR":741.5,"ySR":449.15000000000003,"xT1":424.9,"yT1":0,"xT2":1058.1,"yT2":0,"toosoon":0,"cond_shown":"Congruent","ratio_trial":200,"L_num":12,"L_den":20,"R_num":6,"R_den":15,"correct_side":1,"subjID":"samuelalejandromesaortiz14","gender":"0","school":"6","age":"11"},{"start_time":1551800708497,"click_time":1551800710527,"finger_time":1551800710127,"fix_duration":250,"trial":31,"RT":1630,"MT":400,"sideResp":1,"stimulus":[],"xmouse":[798,798,798,798,798,798,798,798,798,798,798,798,798,798,798,798,798,798,798,798,798,798,798,798,798,798,798,798,798,798,798,798,798,798,798,798,798,798,798,798,798,798,798,798,798,798,798,798,798,798,798,798,798,798,798,798,798,798,798,798,798,798,798,798,798,798,798,798,798,798,798,798,798,798,798,798,798,798,798,799,799,797,787,778,766,740,731,697,688,678,669,660,643,631,625,616,601,573,555,539,526,514],"ymouse":[476,476,476,476,476,476,476,476,476,476,476,476,476,476,476,476,476,476,476,476,476,476,476,476,476,476,476,476,476,476,476,476,476,476,476,476,476,476,476,476,476,476,476,476,476,476,476,476,476,476,476,476,476,476,476,476,476,476,476,476,476,476,476,476,476,476,476,476,476,476,476,476,476,476,476,476,476,476,474,467,459,449,415,396,374,327,312,254,237,222,209,195,172,159,148,136,116,81,64,51,42,37],"timestamp_mouse":[11,34,51,70,91,110,131,151,170,190,210,231,250,269,290,310,329,351,370,391,411,429,449,470,490,510,530,549,571,590,610,629,651,670,691,710,730,749,771,791,809,830,851,870,890,911,930,950,970,991,1010,1030,1050,1071,1090,1110,1130,1151,1170,1190,1211,1231,1250,1269,1289,1310,1331,1349,1371,1390,1411,1431,1450,1470,1490,1510,1530,1551,1570,1590,1610,1630,1651,1669,1690,1710,1731,1750,1771,1790,1810,1831,1850,1869,1890,1910,1930,1950,1970,1990,2011,2030],"xSR":741.5,"ySR":449.15000000000003,"xT1":424.9,"yT1":0,"xT2":1058.1,"yT2":0,"toosoon":0,"cond_shown":"Congruent","ratio_trial":100,"L_num":11,"L_den":22,"R_num":6,"R_den":15,"correct_side":1,"subjID":"samuelalejandromesaortiz14","gender":"0","school":"6","age":"11"},{"start_time":1551800711959,"click_time":1551800713807,"finger_time":1551800713328,"fix_duration":709.0565804873472,"trial":32,"RT":1369,"MT":479,"sideResp":1,"stimulus":[],"xmouse":[807,807,807,807,807,807,807,807,807,807,807,807,807,807,807,807,807,807,807,807,807,807,807,807,807,807,807,807,807,807,807,807,807,807,807,807,807,807,807,807,807,807,807,807,807,807,807,807,807,807,807,807,807,807,807,807,807,807,807,807,807,807,807,807,807,805,797,788,774,747,733,722,715,708,689,680,673,666,663,656,651,646,640,631,611,595,580,565,552,541,536,525,520],"ymouse":[500,500,500,500,500,500,500,500,500,500,500,500,500,500,500,500,500,500,500,500,500,500,500,500,500,500,500,500,500,500,500,500,500,500,500,500,500,500,500,500,500,500,500,500,500,500,500,500,500,500,500,500,500,500,500,500,500,500,500,500,500,500,500,500,498,490,475,456,432,384,361,343,329,317,283,269,257,245,235,218,209,199,183,168,140,121,105,90,80,70,67,59,56],"timestamp_mouse":[10,38,49,67,88,108,127,148,167,188,208,229,247,269,287,309,327,348,368,389,408,429,447,467,488,509,528,548,569,589,609,628,648,668,689,708,728,748,768,788,809,828,849,867,889,908,928,948,969,987,1009,1029,1048,1068,1087,1108,1129,1148,1167,1188,1208,1228,1248,1268,1287,1308,1329,1348,1369,1388,1408,1428,1448,1469,1487,1508,1528,1548,1568,1588,1608,1628,1648,1668,1688,1709,1728,1748,1769,1788,1809,1828,1848],"xSR":741.5,"ySR":449.15000000000003,"xT1":424.9,"yT1":0,"xT2":1058.1,"yT2":0,"toosoon":0,"cond_shown":"Incongruent","ratio_trial":200,"L_num":4,"L_den":5,"R_num":6,"R_den":10,"correct_side":1,"subjID":"samuelalejandromesaortiz14","gender":"0","school":"6","age":"11"},{"start_time":1551800716068,"click_time":1551800717547,"finger_time":1551800717187,"fix_duration":1278.076832743997,"trial":33,"RT":1119,"MT":360,"sideResp":1,"stimulus":[],"xmouse":[795,795,795,795,795,795,795,795,795,795,795,795,795,795,795,795,795,795,795,795,795,795,795,795,795,795,795,795,795,795,795,795,795,795,795,795,795,795,795,795,795,795,795,795,795,795,795,795,795,795,795,795,795,794,782,771,761,741,729,705,694,684,673,666,651,645,637,626,616,593,577,565,554,543,523],"ymouse":[512,512,512,512,512,512,512,512,512,512,512,512,512,512,512,512,512,512,512,512,512,512,512,512,512,512,512,512,512,512,512,512,512,512,512,512,512,512,512,512,512,512,512,512,512,512,512,512,512,512,512,512,512,506,484,466,444,406,381,335,317,300,286,274,250,239,224,200,184,152,135,122,113,103,87],"timestamp_mouse":[0,18,40,58,80,100,119,139,160,179,198,220,239,258,278,300,319,339,359,378,399,419,438,459,479,500,518,540,559,578,600,619,639,660,680,700,719,739,759,779,799,819,839,859,879,899,919,939,959,979,999,1019,1038,1059,1079,1098,1119,1140,1160,1179,1200,1220,1240,1258,1279,1299,1319,1340,1358,1379,1399,1418,1439,1459,1479],"xSR":741.5,"ySR":449.15000000000003,"xT1":424.9,"yT1":0,"xT2":1058.1,"yT2":0,"toosoon":0,"cond_shown":"Incongruent","ratio_trial":200,"L_num":4,"L_den":5,"R_num":6,"R_den":10,"correct_side":1,"subjID":"samuelalejandromesaortiz14","gender":"0","school":"6","age":"11"},{"start_time":1551800721634,"click_time":1551800723467,"finger_time":1551800723087,"fix_duration":1365.6125340964009,"trial":34,"RT":1453,"MT":380,"sideResp":2,"stimulus":[],"xmouse":[787,787,787,787,787,787,787,787,787,787,787,787,787,787,787,787,787,787,787,787,787,787,787,787,787,787,787,787,787,787,787,787,787,787,787,787,787,787,787,787,787,787,787,787,787,787,787,787,787,787,787,787,787,787,787,787,787,787,787,787,787,787,787,787,787,787,787,788,789,792,806,816,830,846,863,908,929,946,978,996,1030,1044,1054,1060,1064,1077,1086,1093,1103,1114,1124,1124],"ymouse":[499,499,499,499,499,499,499,499,499,499,499,499,499,499,499,499,499,499,499,499,499,499,499,499,499,499,499,499,499,499,499,499,499,499,499,499,499,499,499,499,499,499,499,499,499,499,499,499,498,498,497,497,497,497,497,497,497,497,497,497,497,497,497,497,497,497,497,495,493,488,469,457,442,423,404,361,338,317,283,265,238,230,224,221,219,211,205,198,188,169,125,94],"timestamp_mouse":[13,34,53,73,94,113,132,154,172,192,213,233,254,273,293,312,334,352,374,393,414,433,454,474,494,513,533,553,573,593,612,634,652,672,693,713,732,752,773,793,813,833,854,874,892,913,933,953,972,994,1013,1033,1052,1074,1094,1114,1133,1153,1174,1192,1212,1232,1254,1272,1293,1314,1333,1353,1373,1393,1413,1434,1453,1473,1493,1514,1533,1552,1573,1594,1613,1632,1653,1672,1693,1712,1734,1753,1772,1794,1813,1832],"xSR":741.5,"ySR":449.15000000000003,"xT1":424.9,"yT1":0,"xT2":1058.1,"yT2":0,"toosoon":0,"cond_shown":"Incongruent","ratio_trial":300,"L_num":4,"L_den":20,"R_num":2,"R_den":4,"correct_side":2,"subjID":"samuelalejandromesaortiz14","gender":"0","school":"6","age":"11"},{"start_time":1551800726318,"click_time":1551800728287,"finger_time":1551800727766,"fix_duration":270.18448101215074,"trial":35,"RT":1448,"MT":521,"sideResp":2,"stimulus":[],"xmouse":[786,786,786,786,786,786,786,786,786,786,786,786,786,786,786,786,786,786,786,786,786,786,786,786,786,786,786,786,786,786,786,786,786,786,786,786,786,786,786,786,786,786,786,786,786,786,786,786,786,786,786,786,786,786,786,786,786,786,786,786,786,787,788,792,796,799,805,806,808,812,818,835,855,876,901,906,931,940,952,965,980,1023,1045,1064,1076,1088,1102,1107,1113,1117,1120,1121,1122,1122,1122,1122,1122,1122,1122],"ymouse":[540,540,540,540,540,540,540,540,540,540,540,540,540,540,540,540,540,540,540,540,540,540,540,540,540,540,540,540,540,540,540,540,540,540,540,540,540,540,540,540,540,540,540,540,540,540,540,540,540,540,540,540,540,540,540,540,540,540,540,540,539,537,534,528,519,514,506,504,502,498,493,482,470,455,434,425,383,369,353,334,316,265,241,217,201,178,151,141,131,123,118,111,106,105,104,104,102,100,99],"timestamp_mouse":[11,36,48,68,89,109,129,149,170,188,210,229,249,270,290,308,330,348,370,389,408,430,449,469,490,510,529,548,570,590,608,629,648,670,690,710,729,749,770,788,810,828,850,869,889,910,929,949,970,989,1009,1029,1050,1069,1090,1110,1128,1150,1169,1188,1210,1229,1249,1270,1289,1310,1329,1349,1369,1388,1409,1430,1448,1469,1489,1510,1530,1550,1568,1589,1609,1628,1649,1668,1689,1710,1728,1749,1768,1789,1810,1829,1849,1870,1889,1910,1929,1949,1969],"xSR":741.5,"ySR":449.15000000000003,"xT1":424.9,"yT1":0,"xT2":1058.1,"yT2":0,"toosoon":0,"cond_shown":"Incongruent","ratio_trial":300,"L_num":13,"L_den":26,"R_num":12,"R_den":15,"correct_side":2,"subjID":"samuelalejandromesaortiz14","gender":"0","school":"6","age":"11"},{"start_time":1551800730150,"click_time":1551800731947,"finger_time":1551800731546,"fix_duration":981.7263070220636,"trial":36,"RT":1396,"MT":401,"sideResp":2,"stimulus":[],"xmouse":[792,792,792,792,792,792,792,792,792,792,792,792,792,792,792,792,792,792,792,792,792,792,792,792,792,792,792,792,792,792,792,792,792,792,792,792,792,792,792,792,792,792,792,792,792,792,792,792,792,792,792,792,792,792,792,792,792,792,792,792,792,792,792,792,792,792,795,799,808,834,856,896,910,937,981,992,1001,1009,1014,1025,1030,1036,1041,1044,1047,1049,1051,1054,1056,1063],"ymouse":[495,495,495,495,495,495,495,495,495,495,495,495,495,495,495,495,495,495,495,495,495,495,495,495,495,495,495,495,495,495,495,495,495,495,495,495,495,495,495,495,495,495,495,495,495,495,495,495,495,495,495,495,495,495,495,495,495,495,495,495,495,495,495,495,495,495,489,482,468,428,399,348,331,296,224,204,188,175,166,148,141,134,128,124,120,117,115,111,108,98],"timestamp_mouse":[22,44,57,77,96,117,138,158,177,198,216,237,257,277,297,316,337,357,377,397,417,438,456,478,497,518,537,557,576,597,616,638,657,676,698,718,737,758,778,797,818,837,858,877,896,918,938,958,977,998,1017,1037,1056,1078,1097,1116,1138,1157,1177,1197,1217,1237,1258,1278,1297,1316,1337,1357,1376,1396,1417,1437,1456,1478,1497,1516,1537,1558,1577,1596,1617,1637,1657,1677,1696,1718,1738,1757,1776,1797],"xSR":741.5,"ySR":449.15000000000003,"xT1":424.9,"yT1":0,"xT2":1058.1,"yT2":0,"toosoon":0,"cond_shown":"Incongruent","ratio_trial":200,"L_num":7,"L_den":15,"R_num":4,"R_den":6,"correct_side":2,"subjID":"samuelalejandromesaortiz14","gender":"0","school":"6","age":"11"},{"start_time":1551800733112,"click_time":1551800735566,"finger_time":1551800735008,"fix_duration":264.8448305946174,"trial":37,"RT":1896,"MT":558,"sideResp":1,"stimulus":[],"xmouse":[775,775,775,775,775,775,775,775,775,775,775,775,775,775,775,775,775,775,775,775,775,775,775,775,775,775,775,775,775,775,775,775,775,775,775,775,775,775,775,775,775,775,775,775,775,775,775,775,775,775,775,775,775,775,775,775,775,775,775,775,775,775,775,775,775,775,775,775,775,775,775,776,776,776,776,776,776,776,776,776,776,776,776,776,776,776,777,777,778,778,778,779,781,782,784,784,781,774,770,763,758,746,743,738,730,720,693,681,669,656,644,624,613,596,589,571,554,549,547,543,540,528,522],"ymouse":[482,482,482,482,482,482,482,482,482,482,482,482,482,482,482,482,482,482,482,482,482,482,482,482,482,482,482,482,482,482,482,482,482,482,482,482,482,482,482,482,482,482,482,482,482,482,482,482,482,482,482,482,482,482,482,482,482,482,482,482,482,482,482,482,482,482,482,482,482,482,482,482,481,481,480,480,480,480,480,480,480,480,480,480,480,480,478,478,477,476,476,474,468,461,446,430,391,371,357,344,335,321,315,309,299,287,256,242,230,217,204,181,167,147,140,116,93,84,78,71,67,55,52],"timestamp_mouse":[16,36,56,76,96,116,135,155,174,196,214,236,255,275,295,316,336,355,376,395,416,435,455,474,494,516,534,556,574,595,614,635,654,676,694,715,734,756,774,796,814,835,856,874,896,915,936,954,975,996,1015,1035,1056,1074,1095,1114,1135,1154,1176,1195,1214,1236,1256,1275,1296,1315,1334,1356,1376,1396,1416,1435,1455,1475,1495,1516,1535,1555,1576,1594,1616,1635,1655,1676,1694,1714,1734,1755,1776,1796,1814,1835,1856,1875,1896,1916,1934,1955,1975,1994,2015,2034,2056,2076,2095,2115,2135,2155,2174,2195,2215,2234,2254,2275,2296,2314,2335,2355,2375,2395,2415,2434,2454],"xSR":741.5,"ySR":449.15000000000003,"xT1":424.9,"yT1":0,"xT2":1058.1,"yT2":0,"toosoon":0,"cond_shown":"Congruent","ratio_trial":200,"L_num":9,"L_den":20,"R_num":4,"R_den":16,"correct_side":1,"subjID":"samuelalejandromesaortiz14","gender":"0","school":"6","age":"11"},{"start_time":1551800737301,"click_time":1551800739247,"finger_time":1551800738867,"fix_duration":673.4089797753085,"trial":38,"RT":1566,"MT":380,"sideResp":2,"stimulus":[],"xmouse":[809,809,809,809,808,808,808,808,808,808,808,808,808,808,808,808,808,808,808,808,808,808,808,808,808,808,808,808,808,808,808,808,808,808,808,808,808,808,808,808,808,808,808,808,808,808,808,808,808,808,808,808,808,808,808,808,808,808,808,808,808,808,808,808,808,808,808,808,808,808,808,808,808,808,808,811,817,832,843,854,869,888,925,941,956,971,988,1003,1006,1008,1010,1013,1023,1028,1035,1045,1068,1085],"ymouse":[520,520,520,520,519,519,519,519,519,519,519,519,519,519,519,519,519,519,519,519,519,519,519,519,519,519,519,519,519,519,519,519,519,519,519,519,519,519,519,519,519,519,519,519,519,519,519,519,519,519,519,519,519,519,519,519,519,519,519,519,519,519,519,519,519,519,519,519,519,519,519,519,519,519,517,515,510,497,487,474,461,446,419,408,395,382,366,349,345,341,338,331,304,286,265,230,161,99],"timestamp_mouse":[10,32,47,66,86,105,126,146,165,187,205,227,246,266,287,306,325,347,365,387,406,426,447,465,485,507,526,545,567,587,606,627,645,667,686,707,726,747,767,787,806,825,846,867,886,906,925,947,965,986,1006,1026,1045,1066,1085,1107,1127,1146,1165,1187,1206,1227,1246,1267,1286,1306,1326,1346,1367,1386,1405,1427,1446,1466,1486,1506,1526,1546,1566,1589,1606,1626,1647,1667,1685,1706,1727,1747,1766,1785,1807,1827,1845,1867,1886,1906,1926,1945],"xSR":741.5,"ySR":449.15000000000003,"xT1":424.9,"yT1":0,"xT2":1058.1,"yT2":0,"toosoon":0,"cond_shown":"Congruent","ratio_trial":300,"L_num":1,"L_den":5,"R_num":3,"R_den":6,"correct_side":2,"subjID":"samuelalejandromesaortiz14","gender":"0","school":"6","age":"11"},{"start_time":1551800740719,"click_time":1551800742848,"finger_time":1551800742348,"fix_duration":410.8654440504239,"trial":39,"RT":1629,"MT":500,"sideResp":2,"stimulus":[],"xmouse":[803,803,803,803,803,803,803,803,803,803,803,803,803,803,803,803,803,803,803,803,803,803,803,803,803,803,803,803,803,803,803,803,803,803,803,803,803,803,803,803,803,803,803,803,803,803,803,803,803,803,803,803,803,803,803,803,803,803,803,803,803,803,803,803,803,803,803,803,803,803,803,803,803,803,803,802,808,811,816,821,828,843,850,859,865,872,886,892,898,906,916,938,950,961,972,989,1007,1013,1018,1021,1025,1031,1035,1040,1052,1058,1086],"ymouse":[496,496,496,496,496,496,496,496,496,496,496,496,496,496,496,496,496,496,496,496,496,496,4