[{"start_time":1551801250743,"click_time":1551801254362,"finger_time":1551801253983,"fix_duration":875.6388972748056,"trial":0,"RT":3240,"MT":379,"sideResp":1,"stimulus":"img/750/equaldotsize/R/5_Ratio_750_L_15_R_20.png","xmouse":[793,793,793,793,793,793,793,793,793,793,793,793,793,793,793,793,793,793,793,793,793,793,793,793,793,793,793,793,793,793,793,793,793,793,793,793,793,793,793,793,793,793,793,793,793,793,793,793,793,793,793,793,793,793,793,793,793,793,793,793,793,793,793,793,793,793,793,793,793,793,793,793,793,793,793,793,793,793,793,793,793,793,793,793,793,793,793,793,793,793,791,791,790,790,790,790,790,790,790,790,790,790,790,790,790,790,790,790,790,790,790,790,790,790,790,790,790,790,790,790,790,790,790,790,790,790,790,790,790,790,790,790,790,790,790,790,790,790,790,790,790,790,790,790,790,790,790,790,790,790,790,789,789,789,789,789,788,786,784,783,781,772,766,753,743,727,690,674,663,650,637,624,601,590,583,578,574,558,549,541,533,517],"ymouse":[493,493,493,493,493,493,493,493,493,493,493,493,493,493,493,493,493,493,493,493,493,493,493,493,493,493,493,493,493,493,493,493,493,493,493,493,493,493,493,493,493,493,493,493,493,493,493,493,493,493,493,493,493,493,493,493,493,493,493,493,493,493,493,493,493,493,493,493,493,493,493,493,493,493,493,493,493,493,493,493,493,493,493,493,493,493,493,493,493,493,496,497,497,497,497,497,497,497,497,497,497,497,497,497,497,497,497,497,497,497,497,497,497,497,497,497,497,497,497,497,497,497,497,497,497,497,497,497,497,497,497,497,497,497,497,497,497,497,497,497,497,497,497,497,497,497,497,497,497,497,497,496,493,492,490,489,486,483,479,476,472,458,448,424,406,383,333,312,296,280,266,251,224,207,197,187,178,158,144,133,118,85],"timestamp_mouse":[9,18,38,59,78,98,118,140,158,179,199,218,238,258,279,298,319,339,360,380,400,419,440,459,479,500,519,538,559,578,598,619,638,658,680,699,719,738,758,778,799,818,838,858,879,900,918,939,959,979,998,1018,1038,1058,1079,1098,1118,1139,1159,1179,1198,1219,1238,1260,1278,1299,1319,1338,1360,1379,1398,1418,1440,1459,1478,1500,1519,1538,1560,1579,1599,1618,1639,1658,1678,1698,1718,1739,1758,1778,1798,1818,1840,1858,1879,1899,1918,1938,1958,1978,1999,2018,2039,2059,2078,2099,2120,2138,2159,2178,2199,2218,2239,2258,2280,2299,2319,2340,2358,2379,2398,2418,2438,2459,2478,2499,2519,2539,2558,2578,2599,2620,2638,2658,2679,2699,2718,2739,2760,2780,2798,2819,2840,2858,2879,2900,2918,2939,2960,2979,2999,3018,3038,3060,3079,3099,3119,3139,3159,3178,3198,3219,3240,3259,3278,3300,3319,3338,3359,3379,3398,3418,3439,3459,3479,3498,3518,3539,3559,3580,3599,3619],"xSR":741.5,"ySR":449.15000000000003,"xT1":424.9,"yT1":0,"xT2":1058.1,"yT2":0,"toosoon":0,"cond_shown":"equaldotsize","ratio_trial":750,"smaller_num":"15","larger_num":"20","correct_side":2,"subjID":"samuelalejandromesaortiz","gender":"0","age":"11","school":"6","test":{"fix_dur":[250,1500],"timestim":300,"targets_dim":[100,100],"targets_relative_coord":[0.3,0.7],"size_stim":[880,420],"start_dim":[100,100],"size_start":[300,300],"size_fix":60,"samplingrate":20,"img_types":["equaldotsize","equaldotanddens","randomdotsizeEA"],"ratios":[250,500,750,900],"rep_conds":9,"nTrials":120,"trials_to_rest":500,"Trials_order":[78,21,104,72,37,111,117,61,22,0,89,8,63,83,77,13,70,32,46,91,38,110,2,43,57,40,16,109,28,10,50,62,24,56,108,53,87,47,41,45,68,44,80,1,54,119,67,17,6,35,60,27,23,9,20,12,88,118,29,55,7,34,74,96,112,19,25,115,92,39,79,3,86,82,93,18,85,36,65,15,97,98,42,59,100,58,90,75,102,94,52,106,66,101,113,99,64,71,30,5,95,11,69,116,51,107,4,84,76,105,49,33,103,31,26,48,114,14,73,81],"cond_shown":["equaldotsize","equaldotsize","randomdotsizeEA","equaldotsize","equaldotanddens","equaldotsize","equaldotsize","equaldotanddens","equaldotanddens","equaldotsize","randomdotsizeEA","randomdotsizeEA","equaldotsize","randomdotsizeEA","randomdotsizeEA","equaldotanddens","equaldotanddens","randomdotsizeEA","equaldotanddens","equaldotanddens","randomdotsizeEA","randomdotsizeEA","randomdotsizeEA","equaldotanddens","equaldotsize","equaldotanddens","equaldotanddens","equaldotanddens","equaldotanddens","equaldotanddens","randomdotsizeEA","randomdotsizeEA","equaldotsize","randomdotsizeEA","equaldotsize","randomdotsizeEA","equaldotsize","randomdotsizeEA","randomdotsizeEA","equaldotsize","randomdotsizeEA","randomdotsizeEA","randomdotsizeEA","equaldotanddens","equaldotsize","randomdotsizeEA","equaldotanddens","randomdotsizeEA","equaldotsize","randomdotsizeEA","equaldotsize","equaldotsize","randomdotsizeEA","equaldotsize","randomdotsizeEA","equaldotsize","equaldotanddens","equaldotanddens","randomdotsizeEA","equaldotanddens","equaldotanddens","equaldotanddens","randomdotsizeEA","equaldotsize","equaldotanddens","equaldotanddens","equaldotanddens","equaldotanddens","randomdotsizeEA","equaldotsize","equaldotanddens","equaldotsize","randomdotsizeEA","equaldotanddens","equaldotsize","equaldotsize","equaldotanddens","equaldotsize","randomdotsizeEA","equaldotsize","equaldotanddens","randomdotsizeEA","equaldotsize","randomdotsizeEA","equaldotanddens","equaldotanddens","equaldotsize","equaldotsize","equaldotsize","equaldotanddens","equaldotanddens","equaldotanddens","equaldotsize","randomdotsizeEA","randomdotsizeEA","equaldotsize","equaldotanddens","randomdotsizeEA","equaldotsize","randomdotsizeEA","randomdotsizeEA","randomdotsizeEA","equaldotsize","randomdotsizeEA","equaldotsize","randomdotsizeEA","equaldotanddens","equaldotsize","equaldotanddens","equaldotsize","equaldotanddens","equaldotsize","equaldotanddens","equaldotanddens","randomdotsizeEA","equaldotsize","equaldotsize","randomdotsizeEA","equaldotanddens","equaldotsize"],"ratio_trial":[750,900,750,250,250,500,900,250,900,250,500,750,500,900,500,250,900,750,900,750,250,250,250,750,900,500,500,250,500,900,250,250,250,750,250,500,500,900,500,900,750,750,750,250,750,900,750,500,750,900,250,500,900,900,750,250,500,900,500,750,750,900,250,250,500,750,250,750,750,500,750,500,250,900,900,750,250,250,500,500,250,250,750,900,500,900,750,500,750,900,500,900,750,500,500,500,500,900,750,500,900,900,900,750,500,900,500,250,500,900,250,900,750,750,250,250,750,250,250,900],"smaller_num":["15","9","6","3","2","2","18","3","18","3","9","18","5","9","6","4","9","3","18","6","3","3","3","6","9","6","9","2","3","9","3","3","3","3","4","4","1","18","9","18","15","15","15","4","3","18","3","2","15","9","2","3","9","18","3","3","10","9","1","9","3","18","2","2","4","6","3","3","15","4","3","5","3","18","18","12","4","3","1","3","4","2","15","9","2","18","3","9","18","18","9","18","3","3","2","9","2","18","3","4","9","18","9","3","2","18","3","2","4","18","3","9","3","12","2","4","6","3","3","9"],"larger_num":["20","10","8","12","8","4","20","12","20","12","18","24","10","10","12","16","10","4","20","8","12","12","12","8","10","12","18","8","6","10","12","12","12","4","16","8","2","20","18","20","20","20","20","16","4","20","4","4","20","10","8","6","10","20","4","12","20","10","2","12","4","20","8","8","8","8","12","4","20","8","4","10","12","20","20","16","16","12","2","6","16","8","20","10","4","20","4","18","24","20","18","20","4","6","4","18","4","20","4","8","10","20","10","4","4","20","6","8","8","20","12","10","4","16","8","16","8","12","12","10"],"correct_side":[2,2,1,1,1,1,2,1,2,2,1,1,2,2,1,1,1,1,2,1,1,2,2,1,2,1,2,2,2,2,1,1,1,2,2,1,2,2,2,1,2,1,2,2,1,1,1,1,2,1,1,2,1,2,1,1,2,1,2,2,1,2,2,1,1,1,1,1,2,1,2,1,1,1,2,2,1,2,2,2,2,1,1,1,2,1,1,2,1,1,1,1,2,2,1,1,1,1,1,1,1,2,1,2,1,1,2,1,1,2,2,2,2,2,1,2,2,2,2,1],"img_shown":["img/750/equaldotsize/R/5_Ratio_750_L_15_R_20.png","img/900/equaldotsize/R/6_Ratio_900_L_9_R_10.png","img/750/randomdotsizeEA/L/13_Ratio_750_L_8_R_6.png","img/250/equaldotsize/L/14_Ratio_250_L_12_R_3.png","img/250/equaldotanddens/L/1_Ratio_250_L_8_R_2.png","img/500/equaldotsize/L/10_Ratio_500_L_4_R_2.png","img/900/equaldotsize/R/9_Ratio_900_L_18_R_20.png","img/250/equaldotanddens/L/14_Ratio_250_L_12_R_3.png","img/900/equaldotanddens/R/12_Ratio_900_L_18_R_20.png","img/250/equaldotsize/R/11_Ratio_250_L_3_R_12.png","img/500/randomdotsizeEA/L/4_Ratio_500_L_18_R_9.png","img/750/randomdotsizeEA/L/6_Ratio_750_L_24_R_18.png","img/500/equaldotsize/R/14_Ratio_500_L_5_R_10.png","img/900/randomdotsizeEA/R/6_Ratio_900_L_9_R_10.png","img/500/randomdotsizeEA/L/13_Ratio_500_L_12_R_6.png","img/250/equaldotanddens/L/2_Ratio_250_L_16_R_4.png","img/900/equaldotanddens/L/1_Ratio_900_L_10_R_9.png","img/750/randomdotsizeEA/L/8_Ratio_750_L_4_R_3.png","img/900/equaldotanddens/R/14_Ratio_900_L_18_R_20.png","img/750/equaldotanddens/L/14_Ratio_750_L_8_R_6.png","img/250/randomdotsizeEA/L/15_Ratio_250_L_12_R_3.png","img/250/randomdotsizeEA/R/11_Ratio_250_L_3_R_12.png","img/250/randomdotsizeEA/R/11_Ratio_250_L_3_R_12.png","img/750/equaldotanddens/L/13_Ratio_750_L_8_R_6.png","img/900/equaldotsize/R/3_Ratio_900_L_9_R_10.png","img/500/equaldotanddens/L/11_Ratio_500_L_12_R_6.png","img/500/equaldotanddens/R/1_Ratio_500_L_9_R_18.png","img/250/equaldotanddens/R/13_Ratio_250_L_2_R_8.png","img/500/equaldotanddens/R/2_Ratio_500_L_3_R_6.png","img/900/equaldotanddens/R/3_Ratio_900_L_9_R_10.png","img/250/randomdotsizeEA/L/15_Ratio_250_L_12_R_3.png","img/250/randomdotsizeEA/L/15_Ratio_250_L_12_R_3.png","img/250/equaldotsize/L/15_Ratio_250_L_12_R_3.png","img/750/randomdotsizeEA/R/12_Ratio_750_L_3_R_4.png","img/250/equaldotsize/R/10_Ratio_250_L_4_R_16.png","img/500/randomdotsizeEA/L/8_Ratio_500_L_8_R_4.png","img/500/equaldotsize/R/15_Ratio_500_L_1_R_2.png","img/900/randomdotsizeEA/R/13_Ratio_900_L_18_R_20.png","img/500/randomdotsizeEA/R/1_Ratio_500_L_9_R_18.png","img/900/equaldotsize/L/10_Ratio_900_L_20_R_18.png","img/750/randomdotsizeEA/R/3_Ratio_750_L_15_R_20.png","img/750/randomdotsizeEA/L/1_Ratio_750_L_20_R_15.png","img/750/randomdotsizeEA/R/4_Ratio_750_L_15_R_20.png","img/250/equaldotanddens/R/10_Ratio_250_L_4_R_16.png","img/750/equaldotsize/L/8_Ratio_750_L_4_R_3.png","img/900/randomdotsizeEA/L/10_Ratio_900_L_20_R_18.png","img/750/equaldotanddens/L/10_Ratio_750_L_4_R_3.png","img/500/randomdotsizeEA/L/5_Ratio_500_L_4_R_2.png","img/750/equaldotsize/R/3_Ratio_750_L_15_R_20.png","img/900/randomdotsizeEA/L/1_Ratio_900_L_10_R_9.png","img/250/equaldotsize/L/3_Ratio_250_L_8_R_2.png","img/500/equaldotsize/R/2_Ratio_500_L_3_R_6.png","img/900/randomdotsizeEA/L/1_Ratio_900_L_10_R_9.png","img/900/equaldotsize/R/9_Ratio_900_L_18_R_20.png","img/750/randomdotsizeEA/L/9_Ratio_750_L_4_R_3.png","img/250/equaldotsize/L/14_Ratio_250_L_12_R_3.png","img/500/equaldotanddens/R/3_Ratio_500_L_10_R_20.png","img/900/equaldotanddens/L/1_Ratio_900_L_10_R_9.png","img/500/randomdotsizeEA/R/12_Ratio_500_L_1_R_2.png","img/750/equaldotanddens/R/15_Ratio_750_L_9_R_12.png","img/750/equaldotanddens/L/9_Ratio_750_L_4_R_3.png","img/900/equaldotanddens/R/12_Ratio_900_L_18_R_20.png","img/250/randomdotsizeEA/R/13_Ratio_250_L_2_R_8.png","img/250/equaldotsize/L/1_Ratio_250_L_8_R_2.png","img/500/equaldotanddens/L/8_Ratio_500_L_8_R_4.png","img/750/equaldotanddens/L/13_Ratio_750_L_8_R_6.png","img/250/equaldotanddens/L/15_Ratio_250_L_12_R_3.png","img/750/equaldotanddens/L/8_Ratio_750_L_4_R_3.png","img/750/randomdotsizeEA/R/3_Ratio_750_L_15_R_20.png","img/500/equaldotsize/L/8_Ratio_500_L_8_R_4.png","img/750/equaldotanddens/R/7_Ratio_750_L_3_R_4.png","img/500/equaldotsize/L/7_Ratio_500_L_10_R_5.png","img/250/randomdotsizeEA/L/14_Ratio_250_L_12_R_3.png","img/900/equaldotanddens/L/2_Ratio_900_L_20_R_18.png","img/900/equaldotsize/R/9_Ratio_900_L_18_R_20.png","img/750/equaldotsize/R/11_Ratio_750_L_12_R_16.png","img/250/equaldotanddens/L/2_Ratio_250_L_16_R_4.png","img/250/equaldotsize/R/9_Ratio_250_L_3_R_12.png","img/500/randomdotsizeEA/R/12_Ratio_500_L_1_R_2.png","img/500/equaldotsize/R/2_Ratio_500_L_3_R_6.png","img/250/equaldotanddens/R/10_Ratio_250_L_4_R_16.png","img/250/randomdotsizeEA/L/1_Ratio_250_L_8_R_2.png","img/750/equaldotsize/L/1_Ratio_750_L_20_R_15.png","img/900/randomdotsizeEA/L/1_Ratio_900_L_10_R_9.png","img/500/equaldotanddens/R/9_Ratio_500_L_2_R_4.png","img/900/equaldotanddens/L/2_Ratio_900_L_20_R_18.png","img/750/equaldotsize/L/9_Ratio_750_L_4_R_3.png","img/500/equaldotsize/R/6_Ratio_500_L_9_R_18.png","img/750/equaldotsize/L/6_Ratio_750_L_24_R_18.png","img/900/equaldotanddens/L/8_Ratio_900_L_20_R_18.png","img/500/equaldotanddens/L/4_Ratio_500_L_18_R_9.png","img/900/equaldotanddens/L/8_Ratio_900_L_20_R_18.png","img/750/equaldotsize/R/7_Ratio_750_L_3_R_4.png","img/500/randomdotsizeEA/R/2_Ratio_500_L_3_R_6.png","img/500/randomdotsizeEA/L/10_Ratio_500_L_4_R_2.png","img/500/equaldotsize/L/4_Ratio_500_L_18_R_9.png","img/500/equaldotanddens/L/5_Ratio_500_L_4_R_2.png","img/900/randomdotsizeEA/L/2_Ratio_900_L_20_R_18.png","img/750/equaldotsize/L/9_Ratio_750_L_4_R_3.png","img/500/randomdotsizeEA/L/8_Ratio_500_L_8_R_4.png","img/900/randomdotsizeEA/L/1_Ratio_900_L_10_R_9.png","img/900/randomdotsizeEA/R/13_Ratio_900_L_18_R_20.png","img/900/equaldotsize/L/1_Ratio_900_L_10_R_9.png","img/750/randomdotsizeEA/R/12_Ratio_750_L_3_R_4.png","img/500/equaldotsize/L/10_Ratio_500_L_4_R_2.png","img/900/randomdotsizeEA/L/2_Ratio_900_L_20_R_18.png","img/500/equaldotanddens/R/2_Ratio_500_L_3_R_6.png","img/250/equaldotsize/L/1_Ratio_250_L_8_R_2.png","img/500/equaldotanddens/L/8_Ratio_500_L_8_R_4.png","img/900/equaldotsize/R/11_Ratio_900_L_18_R_20.png","img/250/equaldotanddens/R/4_Ratio_250_L_3_R_12.png","img/900/equaldotsize/R/7_Ratio_900_L_9_R_10.png","img/750/equaldotanddens/R/7_Ratio_750_L_3_R_4.png","img/750/equaldotanddens/R/11_Ratio_750_L_12_R_16.png","img/250/randomdotsizeEA/L/7_Ratio_250_L_8_R_2.png","img/250/equaldotsize/R/10_Ratio_250_L_4_R_16.png","img/750/equaldotsize/R/2_Ratio_750_L_6_R_8.png","img/250/randomdotsizeEA/R/9_Ratio_250_L_3_R_12.png","img/250/equaldotanddens/R/4_Ratio_250_L_3_R_12.png","img/900/equaldotsize/L/1_Ratio_900_L_10_R_9.png"],"Rat0":[["12_Ratio_0_L_9_R_0.png","13_Ratio_0_L_6_R_0.png","5_Ratio_0_L_2_R_0.png","6_Ratio_0_L_4_R_0.png","8_Ratio_0_L_6_R_0.png"],["1_Ratio_0_L_0_R_17.png","10_Ratio_0_L_0_R_22.png","11_Ratio_0_L_0_R_1.png","14_Ratio_0_L_0_R_24.png","15_Ratio_0_L_0_R_4.png","2_Ratio_0_L_0_R_5.png","3_Ratio_0_L_0_R_17.png","4_Ratio_0_L_0_R_7.png","7_Ratio_0_L_0_R_19.png","9_Ratio_0_L_0_R_15.png"]],"Rat250":[["1_Ratio_250_L_8_R_2.png","14_Ratio_250_L_12_R_3.png","15_Ratio_250_L_12_R_3.png","2_Ratio_250_L_16_R_4.png","3_Ratio_250_L_8_R_2.png","5_Ratio_250_L_24_R_6.png","7_Ratio_250_L_8_R_2.png"],["10_Ratio_250_L_4_R_16.png","11_Ratio_250_L_3_R_12.png","12_Ratio_250_L_5_R_20.png","13_Ratio_250_L_2_R_8.png","4_Ratio_250_L_3_R_12.png","6_Ratio_250_L_6_R_24.png","8_Ratio_250_L_1_R_4.png","9_Ratio_250_L_3_R_12.png"]],"Rat500":[["10_Ratio_500_L_4_R_2.png","11_Ratio_500_L_12_R_6.png","13_Ratio_500_L_12_R_6.png","4_Ratio_500_L_18_R_9.png","5_Ratio_500_L_4_R_2.png","7_Ratio_500_L_10_R_5.png","8_Ratio_500_L_8_R_4.png"],["1_Ratio_500_L_9_R_18.png","12_Ratio_500_L_1_R_2.png","14_Ratio_500_L_5_R_10.png","15_Ratio_500_L_1_R_2.png","2_Ratio_500_L_3_R_6.png","3_Ratio_500_L_10_R_20.png","6_Ratio_500_L_9_R_18.png","9_Ratio_500_L_2_R_4.png"]],"Rat750":[["1_Ratio_750_L_20_R_15.png","10_Ratio_750_L_4_R_3.png","13_Ratio_750_L_8_R_6.png","14_Ratio_750_L_8_R_6.png","6_Ratio_750_L_24_R_18.png","8_Ratio_750_L_4_R_3.png","9_Ratio_750_L_4_R_3.png"],["11_Ratio_750_L_12_R_16.png","12_Ratio_750_L_3_R_4.png","15_Ratio_750_L_9_R_12.png","2_Ratio_750_L_6_R_8.png","3_Ratio_750_L_15_R_20.png","4_Ratio_750_L_15_R_20.png","5_Ratio_750_L_15_R_20.png","7_Ratio_750_L_3_R_4.png"]],"Rat900":[["1_Ratio_900_L_10_R_9.png","10_Ratio_900_L_20_R_18.png","2_Ratio_900_L_20_R_18.png","4_Ratio_900_L_20_R_18.png","8_Ratio_900_L_20_R_18.png"],["11_Ratio_900_L_18_R_20.png","12_Ratio_900_L_18_R_20.png","13_Ratio_900_L_18_R_20.png","14_Ratio_900_L_18_R_20.png","15_Ratio_900_L_9_R_10.png","3_Ratio_900_L_9_R_10.png","5_Ratio_900_L_9_R_10.png","6_Ratio_900_L_9_R_10.png","7_Ratio_900_L_9_R_10.png","9_Ratio_900_L_18_R_20.png"]],"Rat1000":[["10_Ratio_1000_L_16_R_16.png","11_Ratio_1000_L_6_R_6.png","12_Ratio_1000_L_14_R_14.png","13_Ratio_1000_L_20_R_20.png","15_Ratio_1000_L_15_R_15.png","2_Ratio_1000_L_17_R_17.png","4_Ratio_1000_L_9_R_9.png","5_Ratio_1000_L_6_R_6.png","6_Ratio_1000_L_19_R_19.png","8_Ratio_1000_L_14_R_14.png","9_Ratio_1000_L_25_R_25.png"],["1_Ratio_1000_L_1_R_1.png","14_Ratio_1000_L_17_R_17.png","3_Ratio_1000_L_17_R_17.png","7_Ratio_1000_L_6_R_6.png"]]}},{"start_time":1551801256150,"click_time":1551801257663,"finger_time":1551801257302,"fix_duration":846.5411373781566,"trial":1,"RT":1152,"MT":361,"sideResp":2,"stimulus":"img/900/equaldotsize/R/6_Ratio_900_L_9_R_10.png","xmouse":[794,794,794,794,794,794,794,794,794,794,794,794,794,794,794,794,794,794,794,794,794,794,794,794,794,794,794,794,794,794,794,794,794,794,794,794,794,794,794,794,794,794,794,794,794,794,794,794,794,794,794,794,798,801,805,825,840,854,867,880,905,928,937,965,979,1000,1011,1019,1027,1037,1045,1067,1076,1082,1089,1096],"ymouse":[514,514,514,514,514,514,514,514,514,514,514,514,514,514,514,514,514,514,514,514,514,514,514,514,514,514,514,514,514,514,514,514,514,514,514,514,514,514,514,514,514,514,514,514,514,514,514,514,514,514,514,514,513,508,501,479,466,455,443,428,401,375,367,342,326,299,286,273,258,240,222,171,150,128,105,82],"timestamp_mouse":[12,32,51,73,91,111,131,151,171,191,211,231,252,271,293,312,333,352,372,392,411,431,451,472,493,512,532,551,571,592,612,632,652,671,692,711,732,751,771,791,813,831,851,872,893,912,932,953,972,991,1012,1033,1051,1072,1092,1112,1132,1152,1172,1192,1212,1231,1252,1271,1291,1312,1331,1352,1372,1392,1411,1431,1452,1473,1492,1512],"xSR":741.5,"ySR":449.15000000000003,"xT1":424.9,"yT1":0,"xT2":1058.1,"yT2":0,"toosoon":0,"cond_shown":"equaldotsize","ratio_trial":900,"smaller_num":"9","larger_num":"10","correct_side":2,"subjID":"samuelalejandromesaortiz","gender":"0","age":"11","school":"6"},{"start_time":1551801259470,"click_time":1551801260642,"finger_time":1551801260362,"fix_duration":807.5232893587482,"trial":2,"RT":892,"MT":280,"sideResp":2,"stimulus":"img/750/randomdotsizeEA/L/13_Ratio_750_L_8_R_6.png","xmouse":[778,778,778,778,778,778,778,778,778,778,778,778,778,778,778,778,778,778,778,778,778,778,778,778,778,778,778,778,778,778,778,778,778,778,778,778,778,778,778,782,791,799,809,821,845,858,883,903,930,974,991,1008,1022,1035,1046,1068,1083,1092,1100],"ymouse":[492,492,492,492,492,492,492,492,492,492,492,492,492,492,492,492,492,492,492,492,492,492,492,492,492,492,492,492,492,492,492,492,492,492,492,492,492,492,492,486,479,471,463,451,428,412,383,359,327,278,255,234,212,193,175,145,121,108,95],"timestamp_mouse":[11,36,52,71,91,113,132,152,172,192,211,231,252,272,292,311,332,353,371,393,411,432,453,472,491,513,533,552,572,592,613,631,652,671,691,712,732,752,771,792,812,831,852,873,892,911,933,952,971,993,1011,1031,1052,1073,1092,1112,1132,1151,1172],"xSR":741.5,"ySR":449.15000000000003,"xT1":424.9,"yT1":0,"xT2":1058.1,"yT2":0,"toosoon":0,"cond_shown":"randomdotsizeEA","ratio_trial":750,"smaller_num":"6","larger_num":"8","correct_side":1,"subjID":"samuelalejandromesaortiz","gender":"0","age":"11","school":"6"},{"start_time":1551801262884,"click_time":1551801263803,"finger_time":1551801263603,"fix_duration":1479.4733937667152,"trial":3,"RT":719,"MT":200,"sideResp":1,"stimulus":"img/250/equaldotsize/L/14_Ratio_250_L_12_R_3.png","xmouse":[791,791,791,791,791,791,791,791,791,791,791,791,791,791,791,791,791,791,791,791,791,791,791,791,791,791,791,791,791,791,791,791,791,783,768,721,682,651,610,599,589,577,566,543,533,517],"ymouse":[497,497,497,497,497,497,497,497,497,497,497,497,497,497,497,497,497,497,497,497,497,497,497,497,497,497,497,497,497,497,497,497,494,474,453,389,344,302,235,211,189,168,149,115,100,79],"timestamp_mouse":[19,38,57,78,97,118,137,157,178,197,217,237,258,277,298,317,337,357,377,398,418,438,457,477,497,518,537,559,578,599,618,637,658,679,699,719,738,758,779,798,818,838,858,878,897,918],"xSR":741.5,"ySR":449.15000000000003,"xT1":424.9,"yT1":0,"xT2":1058.1,"yT2":0,"toosoon":0,"cond_shown":"equaldotsize","ratio_trial":250,"smaller_num":"3","larger_num":"12","correct_side":1,"subjID":"samuelalejandromesaortiz","gender":"0","age":"11","school":"6"},{"start_time":1551801265456,"click_time":1551801266302,"finger_time":1551801266141,"fix_duration":913.3669014401264,"trial":4,"RT":685,"MT":161,"sideResp":1,"stimulus":"img/250/equaldotanddens/L/1_Ratio_250_L_8_R_2.png","xmouse":[778,778,778,778,778,778,778,778,778,778,778,778,778,778,778,778,778,778,778,778,778,778,778,778,778,778,778,778,778,778,778,778,774,767,753,695,664,635,596,573,554,525,514],"ymouse":[492,492,492,492,492,492,492,492,492,492,492,492,492,492,492,492,492,492,492,492,492,492,492,492,492,492,492,492,492,492,492,492,482,464,440,360,316,274,206,161,129,81,67],"timestamp_mouse":[10,32,47,65,85,106,127,145,166,185,205,225,245,266,287,306,325,347,365,386,406,425,445,466,486,506,526,545,566,586,605,625,646,666,685,707,726,745,765,786,806,825,846],"xSR":741.5,"ySR":449.15000000000003,"xT1":424.9,"yT1":0,"xT2":1058.1,"yT2":0,"toosoon":0,"cond_shown":"equaldotanddens","ratio_trial":250,"smaller_num":"2","larger_num":"8","correct_side":1,"subjID":"samuelalejandromesaortiz","gender":"0","age":"11","school":"6"},{"start_time":1551801267552,"click_time":1551801268763,"finger_time":1551801268442,"fix_duration":369.09115597698104,"trial":5,"RT":890,"MT":321,"sideResp":1,"stimulus":"img/500/equaldotsize/L/10_Ratio_500_L_4_R_2.png","xmouse":[770,770,770,770,770,770,770,770,770,770,770,770,770,770,770,770,770,770,770,770,770,770,770,770,770,770,770,770,770,770,770,770,770,770,770,770,770,770,770,770,770,770,766,757,746,706,681,656,633,610,590,559,544,536,531,526,519,516,513,512,511],"ymouse":[489,489,489,489,489,489,489,489,489,489,489,489,489,489,489,489,489,489,489,489,489,489,489,489,489,489,489,489,489,489,489,489,489,489,489,489,489,489,489,489,489,488,476,459,440,384,350,319,288,261,237,200,178,166,156,147,128,120,113,109,99],"timestamp_mouse":[10,37,49,69,91,110,131,150,170,190,210,229,251,270,289,311,329,350,371,390,410,430,451,469,489,509,531,550,570,591,609,630,650,670,691,711,730,749,770,790,810,829,851,871,890,910,929,950,970,989,1009,1030,1051,1070,1089,1110,1129,1150,1169,1189,1211],"xSR":741.5,"ySR":449.15000000000003,"xT1":424.9,"yT1":0,"xT2":1058.1,"yT2":0,"toosoon":0,"cond_shown":"equaldotsize","ratio_trial":500,"smaller_num":"2","larger_num":"4","correct_side":1,"subjID":"samuelalejandromesaortiz","gender":"0","age":"11","school":"6"},{"start_time":1551801270796,"click_time":1551801271802,"finger_time":1551801271441,"fix_duration":852.8761634879079,"trial":6,"RT":645,"MT":361,"sideResp":2,"stimulus":"img/900/equaldotsize/R/9_Ratio_900_L_18_R_20.png","xmouse":[808,808,808,808,808,808,808,808,808,808,808,808,808,808,808,808,808,808,808,808,808,808,808,808,808,808,808,808,808,807,809,814,820,834,846,858,873,894,933,953,979,995,1008,1031,1040,1048,1056,1062,1077,1082,1089],"ymouse":[480,480,480,480,480,480,480,480,480,480,480,480,480,480,480,480,480,480,480,480,480,480,480,480,480,480,480,480,480,477,470,459,446,414,395,379,360,340,308,293,273,260,248,226,214,202,190,177,144,122,89],"timestamp_mouse":[10,28,45,66,86,105,125,145,166,186,207,225,245,265,286,305,326,347,366,385,406,426,445,466,485,506,526,546,565,585,607,626,645,666,685,705,726,747,766,785,806,826,847,866,885,905,925,946,965,987,1006],"xSR":741.5,"ySR":449.15000000000003,"xT1":424.9,"yT1":0,"xT2":1058.1,"yT2":0,"toosoon":0,"cond_shown":"equaldotsize","ratio_trial":900,"smaller_num":"18","larger_num":"20","correct_side":2,"subjID":"samuelalejandromesaortiz","gender":"0","age":"11","school":"6"},{"start_time":1551801272834,"click_time":1551801273521,"finger_time":1551801273361,"fix_duration":250,"trial":7,"RT":527,"MT":160,"sideResp":1,"stimulus":"img/250/equaldotanddens/L/14_Ratio_250_L_12_R_3.png","xmouse":[768,768,768,768,768,768,768,768,768,768,768,768,768,768,768,768,768,768,768,768,768,768,768,767,762,754,743,713,692,663,641,583,556,532,517],"ymouse":[493,493,493,493,493,493,493,493,493,493,493,493,493,493,493,493,493,493,493,493,493,493,493,487,474,457,435,375,338,288,246,150,99,57,29],"timestamp_mouse":[10,27,47,68,87,107,127,147,167,188,207,227,249,267,288,308,327,348,367,387,408,428,449,469,487,508,527,547,567,587,608,628,647,668,687],"xSR":741.5,"ySR":449.15000000000003,"xT1":424.9,"yT1":0,"xT2":1058.1,"yT2":0,"toosoon":0,"cond_shown":"equaldotanddens","ratio_trial":250,"smaller_num":"3","larger_num":"12","correct_side":1,"subjID":"samuelalejandromesaortiz","gender":"0","age":"11","school":"6"},{"start_time":1551801274696,"click_time":1551801275602,"finger_time":1551801275281,"fix_duration":493.37585946749596,"trial":8,"RT":585,"MT":321,"sideResp":2,"stimulus":"img/900/equaldotanddens/R/12_Ratio_900_L_18_R_20.png","xmouse":[789,789,789,789,789,789,789,789,789,789,789,789,789,789,789,789,789,789,789,789,789,789,789,789,789,789,789,790,797,825,848,868,891,913,959,978,1006,1024,1052,1062,1069,1076,1081,1089,1093,1097],"ymouse":[478,478,478,478,478,478,478,478,478,478,478,478,478,478,478,478,478,478,478,478,478,478,478,478,478,478,478,474,461,421,394,371,349,329,293,279,256,239,207,192,179,164,152,126,111,97],"timestamp_mouse":[6,27,45,66,85,105,126,146,165,187,205,226,246,265,285,306,325,346,366,385,405,426,445,465,485,506,527,546,565,585,606,625,645,666,685,705,726,746,766,785,806,825,845,865,885,906],"xSR":741.5,"ySR":449.15000000000003,"xT1":424.9,"yT1":0,"xT2":1058.1,"yT2":0,"toosoon":0,"cond_shown":"equaldotanddens","ratio_trial":900,"smaller_num":"18","larger_num":"20","correct_side":2,"subjID":"samuelalejandromesaortiz","gender":"0","age":"11","school":"6"},{"start_time":1551801277461,"click_time":1551801278363,"finger_time":1551801278081,"fix_duration":957.8906861286475,"trial":9,"RT":620,"MT":282,"sideResp":2,"stimulus":"img/250/equaldotsize/R/11_Ratio_250_L_3_R_12.png","xmouse":[792,792,792,792,792,792,792,792,792,792,792,792,792,792,792,792,792,792,792,792,792,792,792,792,792,792,792,794,798,804,822,834,847,861,874,901,917,935,960,976,988,1007,1016,1026,1037,1059],"ymouse":[514,514,514,514,514,514,514,514,514,514,514,514,514,514,514,514,514,514,514,514,514,514,514,514,514,514,514,512,507,499,466,445,424,401,381,333,312,286,248,219,193,150,128,105,80,20],"timestamp_mouse":[8,28,41,61,81,100,121,141,160,181,200,220,240,261,282,301,320,341,362,380,401,420,440,461,481,500,521,541,562,582,601,620,641,662,681,702,720,741,760,781,800,822,841,861,880,902],"xSR":741.5,"ySR":449.15000000000003,"xT1":424.9,"yT1":0,"xT2":1058.1,"yT2":0,"toosoon":0,"cond_shown":"equaldotsize","ratio_trial":250,"smaller_num":"3","larger_num":"12","correct_side":2,"subjID":"samuelalejandromesaortiz","gender":"0","age":"11","school":"6"},{"start_time":1551801279992,"click_time":1551801280963,"finger_time":1551801280622,"fix_duration":788.8740500796881,"trial":10,"RT":630,"MT":341,"sideResp":1,"stimulus":"img/500/randomdotsizeEA/L/4_Ratio_500_L_18_R_9.png","xmouse":[774,774,774,774,774,774,774,774,774,774,774,774,774,774,774,774,774,774,774,774,774,774,774,776,777,777,777,778,778,777,772,754,737,718,687,674,666,659,641,628,613,595,583,572,566,557,548,538,514],"ymouse":[503,503,503,503,503,503,503,503,503,503,503,503,503,503,503,503,503,503,503,503,503,503,503,503,501,500,499,497,492,478,468,443,424,404,370,354,342,330,299,279,258,232,216,190,174,153,131,108,52],"timestamp_mouse":[9,31,50,69,89,109,130,150,170,189,211,230,251,269,290,310,329,349,369,389,409,431,451,470,489,511,529,550,569,589,609,630,651,670,690,710,729,749,770,789,809,830,850,870,889,909,929,949,971],"xSR":741.5,"ySR":449.15000000000003,"xT1":424.9,"yT1":0,"xT2":1058.1,"yT2":0,"toosoon":0,"cond_shown":"randomdotsizeEA","ratio_trial":500,"smaller_num":"9","larger_num":"18","correct_side":1,"subjID":"samuelalejandromesaortiz","gender":"0","age":"11","school":"6"},{"start_time":1551801282034,"click_time":1551801282803,"finger_time":1551801282603,"fix_duration":250,"trial":11,"RT":569,"MT":200,"sideResp":1,"stimulus":"img/750/randomdotsizeEA/L/6_Ratio_750_L_24_R_18.png","xmouse":[774,774,774,774,774,774,774,774,774,774,774,774,774,774,774,774,774,774,774,774,774,774,774,775,774,774,767,762,748,732,709,640,605,577,554,533,507,495,477],"ymouse":[484,484,484,484,484,484,484,484,484,484,484,484,484,484,484,484,484,484,484,484,484,484,484,484,481,479,468,459,435,412,378,300,257,225,198,167,124,103,72],"timestamp_mouse":[10,27,47,67,88,107,128,148,168,187,207,229,247,267,289,307,328,349,369,387,407,428,447,467,488,508,528,547,569,589,609,628,647,668,689,708,729,747,769],"xSR":741.5,"ySR":449.15000000000003,"xT1":424.9,"yT1":0,"xT2":1058.1,"yT2":0,"toosoon":0,"cond_shown":"randomdotsizeEA","ratio_trial":750,"smaller_num":"18","larger_num":"24","correct_side":1,"subjID":"samuelalejandromesaortiz","gender":"0","age":"11","school":"6"},{"start_time":1551801285036,"click_time":1551801286181,"finger_time":1551801285762,"fix_duration":1453.4723233821892,"trial":12,"RT":726,"MT":419,"sideResp":2,"stimulus":"img/500/equaldotsize/R/14_Ratio_500_L_5_R_10.png","xmouse":[780,780,780,780,780,780,780,780,780,780,780,780,780,780,780,780,780,780,780,780,780,780,780,780,780,780,780,780,780,780,780,780,788,797,809,826,863,881,905,919,935,973,990,1005,1017,1028,1052,1071,1081,1090,1096,1103,1115,1120,1124,1127,1132,1134],"ymouse":[500,500,500,500,500,500,500,500,500,500,500,500,500,500,500,500,500,500,500,500,500,500,500,500,500,500,500,500,500,500,500,500,497,493,487,477,458,446,424,408,386,333,308,286,262,241,200,172,160,150,143,135,120,115,111,107,101,98],"timestamp_mouse":[6,29,47,65,86,105,126,146,165,186,205,226,247,265,285,306,326,347,365,385,405,426,447,465,486,507,525,546,565,585,607,625,646,666,687,707,726,745,765,787,805,826,845,866,886,907,926,945,965,986,1005,1025,1046,1065,1085,1106,1126,1145],"xSR":741.5,"ySR":449.15000000000003,"xT1":424.9,"yT1":0,"xT2":1058.1,"yT2":0,"toosoon":0,"cond_shown":"equaldotsize","ratio_trial":500,"smaller_num":"5","larger_num":"10","correct_side":2,"subjID":"samuelalejandromesaortiz","gender":"0","age":"11","school":"6"},{"start_time":1551801287644,"click_time":1551801288863,"finger_time":1551801288382,"fix_duration":560.645614660008,"trial":13,"RT":738,"MT":481,"sideResp":2,"stimulus":"img/900/randomdotsizeEA/R/6_Ratio_900_L_9_R_10.png","xmouse":[799,799,799,799,799,799,799,799,799,799,799,799,799,799,799,799,799,799,799,799,799,799,799,799,799,799,799,799,800,800,802,804,809,813,821,835,845,865,880,898,916,950,966,981,998,1013,1044,1062,1072,1084,1092,1103,1107,1109,1110,1112,1112,1112,1112,1112,1112],"ymouse":[505,505,505,505,505,505,505,505,505,505,505,505,505,505,505,505,505,505,505,505,505,503,503,503,503,503,503,503,502,502,500,498,494,489,483,464,449,426,407,385,365,328,310,293,274,255,220,195,184,167,153,125,116,109,104,100,100,100,100,100,99],"timestamp_mouse":[27,38,57,78,98,118,137,159,177,198,219,238,258,277,298,318,339,357,377,398,418,438,458,478,498,517,538,559,578,597,619,637,657,678,698,718,738,758,779,797,818,838,858,877,897,918,938,957,978,999,1018,1039,1058,1078,1097,1118,1137,1158,1177,1199,1218],"xSR":741.5,"ySR":449.15000000000003,"xT1":424.9,"yT1":0,"xT2":1058.1,"yT2":0,"toosoon":0,"cond_shown":"randomdotsizeEA","ratio_trial":900,"smaller_num":"9","larger_num":"10","correct_side":2,"subjID":"samuelalejandromesaortiz","gender":"0","age":"11","school":"6"},{"start_time":1551801290864,"click_time":1551801291582,"finger_time":1551801291422,"fix_duration":1200.695231993428,"trial":14,"RT":558,"MT":160,"sideResp":1,"stimulus":"img/500/randomdotsizeEA/L/13_Ratio_500_L_12_R_6.png","xmouse":[768,768,768,768,768,768,768,768,768,768,768,768,768,768,768,768,768,768,768,768,768,768,768,768,768,759,746,732,714,660,629,592,558,527,502,469],"ymouse":[497,497,497,497,497,497,497,497,497,497,497,497,497,497,497,497,497,497,497,497,497,497,497,494,491,473,454,436,415,351,316,271,231,189,151,93],"timestamp_mouse":[26,38,62,77,98,117,137,157,178,198,218,237,258,277,298,319,338,358,377,397,419,437,457,478,497,518,538,557,579,598,617,637,658,678,698,717],"xSR":741.5,"ySR":449.15000000000003,"xT1":424.9,"yT1":0,"xT2":1058.1,"yT2":0,"toosoon":0,"cond_shown":"randomdotsizeEA","ratio_trial":500,"smaller_num":"6","larger_num":"12","correct_side":1,"subjID":"samuelalejandromesaortiz","gender":"0","age":"11","school":"6"},{"start_time":1551801293925,"click_time":1551801294681,"finger_time":1551801294482,"fix_duration":1403.759387907549,"trial":15,"RT":557,"MT":199,"sideResp":1,"stimulus":"img/250/equaldotanddens/L/2_Ratio_250_L_16_R_4.png","xmouse":[787,787,787,787,787,787,787,787,787,787,787,787,787,787,787,787,787,787,787,787,787,787,787,787,787,785,772,763,752,739,722,704,659,617,589,563,520,500],"ymouse":[494,494,494,494,494,494,494,494,494,494,494,494,494,494,494,494,494,494,494,494,494,494,494,494,489,482,457,441,422,404,383,356,297,245,213,181,118,92],"timestamp_mouse":[16,37,57,76,97,117,137,156,176,197,217,237,256,276,297,316,337,357,377,397,416,436,457,477,498,516,537,557,577,596,616,637,657,678,697,716,737,756],"xSR":741.5,"ySR":449.15000000000003,"xT1":424.9,"yT1":0,"xT2":1058.1,"yT2":0,"toosoon":0,"cond_shown":"equaldotanddens","ratio_trial":250,"smaller_num":"4","larger_num":"16","correct_side":1,"subjID":"samuelalejandromesaortiz","gender":"0","age":"11","school":"6"},{"start_time":1551801295773,"click_time":1551801296882,"finger_time":1551801296361,"fix_duration":250,"trial":16,"RT":588,"MT":521,"sideResp":2,"stimulus":"img/900/equaldotanddens/L/1_Ratio_900_L_10_R_9.png","xmouse":[788,788,788,788,788,788,788,788,788,788,788,788,788,788,788,788,788,788,788,788,788,788,788,788,791,797,808,819,834,848,873,891,906,922,954,968,983,995,1006,1024,1032,1041,1046,1050,1052,1055,1057,1059,1060,1061,1061,1061,1062,1063,1066,1076],"ymouse":[515,515,515,515,515,515,515,515,515,515,515,515,515,515,515,515,515,515,515,515,515,515,515,515,513,508,501,491,476,461,430,407,388,367,335,319,301,283,264,225,208,185,174,167,156,147,140,132,127,120,117,116,113,108,101,79],"timestamp_mouse":[9,34,48,69,88,110,129,150,168,189,208,228,250,269,288,308,328,350,369,389,410,428,450,468,489,508,529,548,570,588,610,628,649,670,689,708,728,749,768,790,808,829,848,869,889,908,928,950,969,989,1008,1029,1048,1068,1088,1108],"xSR":741.5,"ySR":449.15000000000003,"xT1":424.9,"yT1":0,"xT2":1058.1,"yT2":0,"toosoon":0,"cond_shown":"equaldotanddens","ratio_trial":900,"smaller_num":"9","larger_num":"10","correct_side":1,"subjID":"samuelalejandromesaortiz","gender":"0","age":"11","school":"6"},{"start_time":1551801299535,"click_time":1551801300262,"finger_time":1551801300041,"fix_duration":250,"trial":17,"RT":506,"MT":221,"sideResp":1,"stimulus":"img/750/randomdotsizeEA/L/8_Ratio_750_L_4_R_3.png","xmouse":[778,778,778,778,778,778,778,778,778,778,778,778,778,778,778,778,778,778,778,778,778,778,769,757,743,731,700,688,674,656,636,592,572,536,517,499,470],"ymouse":[495,495,495,495,495,495,495,495,495,495,495,495,495,495,495,495,495,495,495,495,495,496,487,472,456,440,404,386,365,341,313,252,220,169,142,117,73],"timestamp_mouse":[9,26,46,66,88,106,127,146,166,187,206,227,246,266,288,306,326,348,366,386,407,427,446,466,487,506,527,546,566,588,607,627,646,667,688,706,727],"xSR":741.5,"ySR":449.15000000000003,"xT1":424.9,"yT1":0,"xT2":1058.1,"yT2":0,"toosoon":0,"cond_shown":"randomdotsizeEA","ratio_trial":750,"smaller_num":"3","larger_num":"4","correct_side":1,"subjID":"samuelalejandromesaortiz","gender":"0","age":"11","school":"6"},{"start_time":1551801302021,"click_time":1551801302881,"finger_time":1551801302641,"fix_duration":856.8918675499548,"trial":18,"RT":620,"MT":240,"sideResp":1,"stimulus":"img/900/equaldotanddens/R/14_Ratio_900_L_18_R_20.png","xmouse":[783,783,783,783,783,783,783,783,783,783,783,783,783,783,783,783,783,783,783,783,783,783,783,783,783,783,783,783,782,775,767,753,742,717,703,685,667,647,610,586,574,560,534,522],"ymouse":[497,497,497,497,497,497,497,497,497,497,497,497,497,497,497,497,497,497,497,497,497,497,497,497,497,497,497,497,489,473,455,434,413,370,348,323,298,270,219,186,170,149,109,88],"timestamp_mouse":[8,22,41,60,80,101,122,140,160,180,200,220,241,260,280,301,321,341,361,381,401,421,441,461,482,500,521,540,560,580,600,620,640,661,681,700,721,740,761,780,801,820,840,860],"xSR":741.5,"ySR":449.15000000000003,"xT1":424.9,"yT1":0,"xT2":1058.1,"yT2":0,"toosoon":0,"cond_shown":"equaldotanddens","ratio_trial":900,"smaller_num":"18","larger_num":"20","correct_side":2,"subjID":"samuelalejandromesaortiz","gender":"0","age":"11","school":"6"},{"start_time":1551801304938,"click_time":1551801305982,"finger_time":1551801305762,"fix_duration":1194.2511243118613,"trial":19,"RT":824,"MT":220,"sideResp":1,"stimulus":"img/750/equaldotanddens/L/14_Ratio_750_L_8_R_6.png","xmouse":[791,791,791,791,791,791,791,791,791,791,791,791,791,791,791,791,791,791,791,791,791,791,791,791,791,791,791,791,791,791,791,791,789,785,782,779,774,770,767,763,757,749,726,716,704,688,649,625,597,572,546,518,466],"ymouse":[494,494,494,494,494,494,494,494,494,494,494,494,494,494,494,494,494,494,494,494,494,494,494,494,494,494,494,494,494,494,494,494,490,485,482,479,473,469,464,459,450,441,410,397,381,362,315,283,251,215,179,140,61],"timestamp_mouse":[8,34,44,63,85,103,123,144,165,185,203,225,244,264,285,303,324,343,364,383,405,423,444,465,485,504,523,543,563,585,604,624,644,664,684,703,724,752,764,785,803,823,844,863,884,905,924,943,963,984,1004,1024,1044],"xSR":741.5,"ySR":449.15000000000003,"xT1":424.9,"yT1":0,"xT2":1058.1,"yT2":0,"toosoon":0,"cond_shown":"equaldotanddens","ratio_trial":750,"smaller_num":"6","larger_num":"8","correct_side":1,"subjID":"samuelalejandromesaortiz","gender":"0","age":"11","school":"6"},{"start_time":1551801307542,"click_time":1551801308683,"finger_time":1551801308263,"fix_duration":798.5306058470691,"trial":20,"RT":721,"MT":420,"sideResp":2,"stimulus":"img/250/randomdotsizeEA/L/15_Ratio_250_L_12_R_3.png","xmouse":[791,791,791,791,791,791,791,791,790,790,790,790,789,789,789,789,789,789,789,789,789,789,789,789,789,789,789,789,789,789,789,789,789,792,794,805,829,842,857,874,894,951,979,1009,1019,1023,1025,1026,1028,1032,1038,1047,1067,1083,1092,1096,1106,1108],"ymouse":[481,481,481,481,481,480,480,480,481,482,482,482,484,484,484,484,484,484,484,484,484,484,484,484,484,484,484,484,484,484,484,484,483,477,473,453,417,399,378,356,334,290,274,254,246,242,239,238,236,231,225,214,189,163,148,135,103,88],"timestamp_mouse":[1,30,40,60,79,100,120,141,159,180,200,220,240,261,281,299,321,340,360,381,401,420,441,461,481,501,520,541,560,581,600,619,640,661,680,701,721,740,760,781,800,821,841,861,880,900,921,940,960,981,1000,1021,1041,1060,1081,1100,1121,1141],"xSR":741.5,"ySR":449.15000000000003,"xT1":424.9,"yT1":0,"xT2":1058.1,"yT2":0,"toosoon":0,"cond_shown":"randomdotsizeEA","ratio_trial":250,"smaller_num":"3","larger_num":"12","correct_side":1,"subjID":"samuelalejandromesaortiz","gender":"0","age":"11","school":"6"},{"start_time":1551801310491,"click_time":1551801311623,"finger_time":1551801311183,"fix_duration":1087.73660256583,"trial":21,"RT":692,"MT":440,"sideResp":2,"stimulus":"img/250/randomdotsizeEA/R/11_Ratio_250_L_3_R_12.png","xmouse":[780,780,780,780,780,780,780,780,780,780,780,780,780,780,780,780,780,780,780,780,780,780,780,780,780,780,780,780,780,780,784,788,801,819,860,880,911,928,962,975,991,1004,1015,1036,1045,1058,1064,1067,1070,1071,1071,1073,1074,1077,1084,1085,1086],"ymouse":[499,499,499,499,499,499,499,499,499,499,499,499,499,499,499,499,499,499,499,499,499,499,499,499,499,499,499,499,499,499,496,492,482,469,441,426,401,382,340,322,300,280,259,221,206,184,173,165,157,156,154,152,148,142,119,110,99],"timestamp_mouse":[12,32,52,71,91,111,132,151,171,190,212,231,251,272,292,311,332,351,371,392,411,432,451,470,492,512,532,551,571,592,611,632,651,672,692,712,732,751,771,791,811,830,851,871,891,911,931,952,971,991,1012,1032,1051,1070,1092,1111,1132],"xSR":741.5,"ySR":449.15000000000003,"xT1":424.9,"yT1":0,"xT2":1058.1,"yT2":0,"toosoon":0,"cond_shown":"randomdotsizeEA","ratio_trial":250,"smaller_num":"3","larger_num":"12","correct_side":2,"subjID":"samuelalejandromesaortiz","gender":"0","age":"11","school":"6"},{"start_time":1551801313507,"click_time":1551801314662,"finger_time":1551801314262,"fix_duration":1243.7825396115672,"trial":22,"RT":755,"MT":400,"sideResp":2,"stimulus":"img/250/randomdotsizeEA/R/11_Ratio_250_L_3_R_12.png","xmouse":[792,792,792,792,792,792,792,792,792,792,792,792,792,792,792,792,792,792,792,792,792,792,792,792,792,792,792,792,792,792,792,792,792,793,795,802,807,817,825,835,845,860,892,909,925,948,960,976,1005,1022,1039,1055,1076,1081,1088,1102,1112,1134],"ymouse":[495,495,495,495,495,495,495,495,495,495,495,495,495,495,495,495,495,495,495,495,495,495,495,495,495,495,495,495,495,495,495,495,495,489,485,472,463,444,434,420,409,395,367,351,335,312,297,280,247,232,218,201,176,165,152,128,109,65],"timestamp_mouse":[15,36,56,76,96,116,135,154,176,196,216,235,256,276,296,315,336,355,376,395,416,436,455,476,496,515,536,555,575,596,616,636,655,675,696,715,735,755,774,795,816,835,855,875,894,915,936,955,975,996,1015,1036,1055,1076,1095,1115,1135,1155],"xSR":741.5,"ySR":449.15000000000003,"xT1":424.9,"yT1":0,"xT2":1058.1,"yT2":0,"toosoon":0,"cond_shown":"randomdotsizeEA","ratio_trial":250,"smaller_num":"3","larger_num":"12","correct_side":2,"subjID":"samuelalejandromesaortiz","gender":"0","age":"11","school":"6"},{"start_time":1551801315675,"click_time":1551801316802,"finger_time":1551801316483,"fix_duration":250,"trial":23,"RT":808,"MT":319,"sideResp":2,"stimulus":"img/750/equaldotanddens/L/13_Ratio_750_L_8_R_6.png","xmouse":[760,761,762,762,762,762,763,766,766,766,766,766,766,766,766,766,766,766,766,766,766,766,766,766,766,766,766,767,767,767,765,765,764,764,764,764,764,764,764,781,804,838,879,925,985,1016,1023,1046,1055,1069,1073,1077,1081,1083,1090,1092,1095],"ymouse":[515,515,514,514,514,513,513,512,512,512,512,512,512,512,512,512,512,512,512,512,512,512,512,512,512,512,512,511,510,500,493,489,488,487,484,483,481,478,474,456,446,436,423,405,369,340,329,291,269,231,211,192,173,158,124,109,90],"timestamp_mouse":[8,31,47,67,86,108,128,147,167,187,207,226,247,267,287,307,328,348,367,387,407,427,447,467,488,507,527,547,567,587,606,628,648,667,688,708,727,747,767,788,808,827,847,868,887,906,926,948,968,987,1007,1027,1048,1067,1088,1106,1127],"xSR":741.5,"ySR":449.15000000000003,"xT1":424.9,"yT1":0,"xT2":1058.1,"yT2":0,"toosoon":0,"cond_shown":"equaldotanddens","ratio_trial":750,"smaller_num":"6","larger_num":"8","correct_side":1,"subjID":"samuelalejandromesaortiz","gender":"0","age":"11","school":"6"},{"start_time":1551801318155,"click_time":1551801318982,"finger_time":1551801318782,"fix_duration":531.6092752282049,"trial":24,"RT":627,"MT":200,"sideResp":1,"stimulus":"img/900/equaldotsize/R/3_Ratio_900_L_9_R_10.png","xmouse":[777,777,777,777,777,777,777,777,777,777,777,777,777,777,777,777,777,777,777,777,777,777,777,777,777,777,777,777,777,774,770,734,698,677,665,637,621,594,562,532,476,450],"ymouse":[485,485,485,485,485,485,485,485,485,485,485,485,485,485,485,485,485,485,485,485,485,485,485,485,485,485,485,485,485,484,481,447,417,399,385,349,318,279,233,187,109,73],"timestamp_mouse":[7,27,47,67,87,107,128,148,167,188,208,228,248,268,287,308,328,347,367,386,408,428,447,467,487,507,527,547,568,587,608,627,647,668,688,707,727,747,767,788,808,827],"xSR":741.5,"ySR":449.15000000000003,"xT1":424.9,"yT1":0,"xT2":1058.1,"yT2":0,"toosoon":0,"cond_shown":"equaldotsize","ratio_trial":900,"smaller_num":"9","larger_num":"10","correct_side":2,"subjID":"samuelalejandromesaortiz","gender":"0","age":"11","school":"6"},{"start_time":1551801322339,"click_time":1551801323422,"finger_time":1551801323143,"fix_duration":1096.652144311644,"trial":25,"RT":804,"MT":279,"sideResp":1,"stimulus":"img/500/equaldotanddens/L/11_Ratio_500_L_12_R_6.png","xmouse":[782,782,782,782,782,782,782,782,782,782,782,782,782,782,782,782,782,782,782,782,782,782,782,782,782,782,782,782,782,782,782,782,782,782,782,782,786,788,790,791,791,791,780,768,752,736,688,659,634,612,593,557,542,527,521],"ymouse":[492,492,492,492,492,492,492,492,492,492,492,492,492,492,492,492,492,492,492,492,492,492,492,492,492,492,492,492,492,492,492,492,492,492,490,487,478,472,463,454,441,408,375,350,320,294,229,194,165,142,122,88,76,65,61],"timestamp_mouse":[20,23,44,64,83,104,123,143,164,183,203,223,244,263,283,303,323,344,364,384,403,423,444,464,484,503,524,544,563,584,603,624,644,664,683,704,723,743,763,783,804,823,843,864,884,904,923,943,963,984,1002,1024,1043,1064,1083],"xSR":741.5,"ySR":449.15000000000003,"xT1":424.9,"yT1":0,"xT2":1058.1,"yT2":0,"toosoon":0,"cond_shown":"equaldotanddens","ratio_trial":500,"smaller_num":"6","larger_num":"12","correct_side":1,"subjID":"samuelalejandromesaortiz","gender":"0","age":"11","school":"6"},{"start_time":1551801325984,"click_time":1551801326963,"finger_time":1551801326582,"fix_duration":1460.9425545850277,"trial":26,"RT":598,"MT":381,"sideResp":2,"stimulus":"img/500/equaldotanddens/R/1_Ratio_500_L_9_R_18.png","xmouse":[787,787,787,787,787,787,787,787,787,787,787,787,787,787,787,787,787,787,787,787,787,787,787,787,787,787,790,797,817,830,851,865,881,917,930,945,957,968,986,996,1001,1004,1009,1017,1023,1028,1035,1045,1061],"ymouse":[501,501,501,501,501,501,501,501,501,501,501,501,501,501,501,501,501,501,501,501,501,501,501,500,498,493,489,479,451,431,401,376,349,294,273,252,233,213,187,174,168,163,157,144,133,120,102,80,33],"timestamp_mouse":[27,39,59,78,98,118,139,159,177,199,218,238,258,279,298,319,339,358,377,398,418,439,459,478,499,518,539,558,579,598,619,638,658,678,698,718,739,758,779,798,818,839,858,878,898,919,939,959,979],"xSR":741.5,"ySR":449.15000000000003,"xT1":424.9,"yT1":0,"xT2":1058.1,"yT2":0,"toosoon":0,"cond_shown":"equaldotanddens","ratio_trial":500,"smaller_num":"9","larger_num":"18","correct_side":2,"subjID":"samuelalejandromesaortiz","gender":"0","age":"11","school":"6"},{"start_time":1551801328372,"click_time":1551801329223,"finger_time":1551801329002,"fix_duration":388.46629871250383,"trial":27,"RT":630,"MT":221,"sideResp":2,"stimulus":"img/250/equaldotanddens/R/13_Ratio_250_L_2_R_8.png","xmouse":[773,773,773,773,773,773,773,773,773,773,773,773,773,773,773,773,773,773,773,773,773,773,773,773,775,778,781,786,793,802,827,843,865,883,939,966,988,1007,1021,1041,1051,1062,1077],"ymouse":[517,517,517,517,517,517,517,517,517,517,517,517,517,517,517,517,517,517,517,517,517,517,517,517,514,512,509,502,494,484,455,439,412,388,322,287,257,229,205,158,136,116,89],"timestamp_mouse":[10,37,50,70,90,110,130,150,170,190,210,231,250,270,290,309,330,351,370,390,410,431,450,471,490,511,530,550,570,590,611,630,650,670,690,710,730,750,770,791,810,830,851],"xSR":741.5,"ySR":449.15000000000003,"xT1":424.9,"yT1":0,"xT2":1058.1,"yT2":0,"toosoon":0,"cond_shown":"equaldotanddens","ratio_trial":250,"smaller_num":"2","larger_num":"8","correct_side":2,"subjID":"samuelalejandromesaortiz","gender":"0","age":"11","school":"6"},{"start_time":1551801330907,"click_time":1551801332063,"finger_time":1551801331702,"fix_duration":821.6395167121976,"trial":28,"RT":795,"MT":361,"sideResp":2,"stimulus":"img/500/equaldotanddens/R/2_Ratio_500_L_3_R_6.png","xmouse":[775,775,775,775,775,775,775,775,775,775,775,775,775,775,775,775,775,775,775,775,775,775,775,775,775,775,775,775,775,775,775,775,775,775,775,775,778,792,799,808,818,831,859,873,892,903,917,944,957,971,987,1004,1043,1062,1086,1098,1109,1130],"ymouse":[486,486,486,486,486,486,486,486,486,486,486,486,486,486,486,486,486,486,486,486,486,486,486,486,486,486,486,486,486,486,486,486,486,486,486,486,485,466,455,445,431,419,394,383,365,356,346,323,314,304,293,276,226,199,161,137,114,75],"timestamp_mouse":[16,36,56,76,95,116,136,154,178,196,216,235,256,274,295,316,335,356,375,395,415,436,456,475,496,515,535,555,575,595,615,636,656,675,695,715,736,756,776,795,815,835,856,876,896,915,936,956,974,995,1016,1035,1056,1074,1096,1116,1136,1156],"xSR":741.5,"ySR":449.15000000000003,"xT1":424.9,"yT1":0,"xT2":1058.1,"yT2":0,"toosoon":0,"cond_shown":"equaldotanddens","ratio_trial":500,"smaller_num":"3","larger_num":"6","correct_side":2,"subjID":"samuelalejandromesaortiz","gender":"0","age":"11","school":"6"},{"start_time":1551801333213,"click_time":1551801334222,"finger_time":1551801334002,"fix_duration":250,"trial":29,"RT":789,"MT":220,"sideResp":2,"stimulus":"img/900/equaldotanddens/R/3_Ratio_900_L_9_R_10.png","xmouse":[797,797,797,797,797,797,797,797,797,797,797,797,797,797,797,797,797,797,797,797,797,797,797,797,797,797,797,797,797,797,797,797,797,797,797,799,802,822,835,848,872,893,910,971,1002,1027,1046,1056,1074,1081,1088],"ymouse":[493,493,493,493,493,493,493,493,493,493,493,493,493,493,493,493,493,493,493,493,493,493,493,493,493,493,493,493,493,493,493,493,493,493,493,493,489,473,464,451,431,415,396,325,283,245,214,186,139,119,90],"timestamp_mouse":[10,29,50,70,89,108,129,150,169,190,209,229,250,269,289,309,330,350,369,390,409,429,449,469,489,509,530,550,569,590,609,629,650,669,690,710,728,749,769,789,809,829,849,870,889,910,929,949,969,990,1009],"xSR":741.5,"ySR":449.15000000000003,"xT1":424.9,"yT1":0,"xT2":1058.1,"yT2":0,"toosoon":0,"cond_shown":"equaldotanddens","ratio_trial":900,"smaller_num":"9","larger_num":"10","correct_side":2,"subjID":"samuelalejandromesaortiz","gender":"0","age":"11","school":"6"},{"start_time":1551801336358,"click_time":1551801337203,"finger_time":1551801336963,"fix_duration":993.2799748804742,"trial":30,"RT":605,"MT":240,"sideResp":1,"stimulus":"img/250/randomdotsizeEA/L/15_Ratio_250_L_12_R_3.png","xmouse":[784,784,784,784,784,784,784,784,784,784,784,784,784,784,784,784,784,784,784,784,784,784,784,784,784,784,784,784,780,773,752,734,697,663,633,589,573,559,543,525,509,471,458],"ymouse":[482,482,482,482,482,482,482,482,482,482,482,482,482,482,482,482,482,482,482,482,482,482,482,482,481,480,474,468,462,450,423,406,373,347,324,282,262,241,218,192,170,117,99],"timestamp_mouse":[9,31,45,65,85,104,124,145,165,184,204,223,244,265,283,304,325,344,364,385,405,424,445,464,484,504,525,545,565,584,605,624,644,665,684,705,724,745,765,784,804,825,845],"xSR":741.5,"ySR":449.15000000000003,"xT1":424.9,"yT1":0,"xT2":1058.1,"yT2":0,"toosoon":0,"cond_shown":"randomdotsizeEA","ratio_trial":250,"smaller_num":"3","larger_num":"12","correct_side":1,"subjID":"samuelalejandromesaortiz","gender":"0","age":"11","school":"6"},{"start_time":1551801338977,"click_time":1551801339663,"finger_time":1551801339522,"fix_duration":1113.7722790340372,"trial":31,"RT":545,"MT":141,"sideResp":1,"stimulus":"img/250/randomdotsizeEA/L/15_Ratio_250_L_12_R_3.png","xmouse":[783,781,781,780,780,780,780,780,780,780,780,780,780,780,780,780,780,780,780,780,780,780,779,777,772,757,747,736,723,678,647,598,558,519,451],"ymouse":[512,509,508,508,507,507,507,507,507,507,507,507,507,507,507,507,507,507,507,507,507,507,507,504,495,475,461,445,422,357,315,249,200,155,74],"timestamp_mouse":[13,25,45,65,85,106,126,146,165,186,205,225,246,265,285,306,326,345,365,385,405,425,445,465,485,506,525,545,565,586,605,626,645,665,685],"xSR":741.5,"ySR":449.15000000000003,"xT1":424.9,"yT1":0,"xT2":1058.1,"yT2":0,"toosoon":0,"cond_shown":"randomdotsizeEA","ratio_trial":250,"smaller_num":"3","larger_num":"12","correct_side":1,"subjID":"samuelalejandromesaortiz","gender":"0","age":"11","school":"6"},{"start_time":1551801341674,"click_time":1551801342302,"finger_time":1551801342162,"fix_duration":1009.3228936791292,"trial":32,"RT":488,"MT":140,"sideResp":1,"stimulus":"img/250/equaldotsize/L/15_Ratio_250_L_12_R_3.png","xmouse":[804,804,804,804,804,804,804,804,804,804,804,804,804,804,804,804,804,804,804,804,802,794,786,774,760,726,680,649,613,576,498,467],"ymouse":[496,496,496,496,496,496,496,496,496,496,496,496,496,496,496,496,496,496,496,496,495,485,475,461,444,405,350,309,266,220,133,96],"timestamp_mouse":[8,33,49,68,89,109,128,149,168,188,208,229,248,268,289,308,328,349,368,389,408,429,449,469,488,509,528,548,568,588,609,628],"xSR":741.5,"ySR":449.15000000000003,"xT1":424.9,"yT1":0,"xT2":1058.1,"yT2":0,"toosoon":0,"cond_shown":"equaldotsize","ratio_trial":250,"smaller_num":"3","larger_num":"12","correct_side":1,"subjID":"samuelalejandromesaortiz","gender":"0","age":"11","school":"6"},{"start_time":1551801343673,"click_time":1551801344762,"finger_time":1551801344282,"fix_duration":250,"trial":33,"RT":609,"MT":480,"sideResp":2,"stimulus":"img/750/randomdotsizeEA/R/12_Ratio_750_L_3_R_4.png","xmouse":[788,788,788,788,788,788,788,788,788,788,788,788,788,788,788,788,788,788,788,788,788,788,788,788,788,788,789,794,805,836,855,873,887,899,925,937,951,960,967,978,984,989,994,998,1003,1008,1010,1017,1021,1030,1033,1039,1046,1055,1070],"ymouse":[495,495,495,495,495,495,495,495,495,495,495,495,495,495,495,495,495,495,495,495,495,495,495,495,495,495,495,495,490,474,464,451,438,421,375,354,321,300,278,239,219,200,181,169,154,146,143,133,127,116,111,105,100,93,81],"timestamp_mouse":[10,33,48,69,89,109,129,149,169,189,209,230,250,270,289,309,329,349,370,389,409,429,449,469,489,509,530,549,570,589,609,630,648,669,689,709,729,749,770,790,808,829,850,869,890,909,930,949,970,990,1009,1029,1049,1069,1089],"xSR":741.5,"ySR":449.15000000000003,"xT1":424.9,"yT1":0,"xT2":1058.1,"yT2":0,"toosoon":0,"cond_shown":"randomdotsizeEA","ratio_trial":750,"smaller_num":"3","larger_num":"4","correct_side":2,"subjID":"samuelalejandromesaortiz","gender":"0","age":"11","school":"6"},{"start_time":1551801346091,"click_time":1551801346803,"finger_time":1551801346583,"fix_duration":486.7175586391107,"trial":34,"RT":492,"MT":220,"sideResp":2,"stimulus":"img/250/equaldotsize/R/10_Ratio_250_L_4_R_16.png","xmouse":[775,775,775,775,775,775,775,775,775,775,775,775,775,775,775,775,775,775,775,775,779,784,799,820,867,906,927,949,973,1008,1019,1030,1038,1045,1056,1060],"ymouse":[487,487,487,487,487,487,487,487,487,487,487,487,487,487,487,487,487,487,487,487,485,481,471,460,434,403,379,356,324,266,241,217,191,165,120,92],"timestamp_mouse":[20,32,52,71,92,112,130,152,171,191,212,232,251,272,291,311,332,350,371,391,412,431,451,472,492,512,531,550,571,590,611,632,651,672,691,712],"xSR":741.5,"ySR":449.15000000000003,"xT1":424.9,"yT1":0,"xT2":1058.1,"yT2":0,"toosoon":0,"cond_shown":"equaldotsize","ratio_trial":250,"smaller_num":"4","larger_num":"16","correct_side":2,"subjID":"samuelalejandromesaortiz","gender":"0","age":"11","school":"6"},{"start_time":1551801348065,"click_time":1551801348963,"finger_time":1551801348562,"fix_duration":439.5985410173918,"trial":35,"RT":497,"MT":401,"sideResp":1,"stimulus":"img/500/randomdotsizeEA/L/8_Ratio_500_L_8_R_4.png","xmouse":[767,767,767,767,767,767,767,767,767,767,767,767,767,767,767,767,767,767,767,767,767,767,767,759,729,698,652,613,597,576,567,556,547,539,528,522,519,515,514,513,507,502,495,486,464],"ymouse":[507,507,507,507,507,507,507,507,507,507,507,507,507,507,507,507,507,507,507,507,507,504,497,481,444,415,387,355,340,311,294,276,260,244,222,209,200,192,184,177,154,139,121,101,63],"timestamp_mouse":[24,38,57,77,97,118,138,158,177,197,217,238,258,277,298,318,337,357,378,397,418,437,458,478,497,516,536,558,578,598,616,638,658,677,697,717,738,758,778,797,817,838,858,878,898],"xSR":741.5,"ySR":449.15000000000003,"xT1":424.9,"yT1":0,"xT2":1058.1,"yT2":0,"toosoon":0,"cond_shown":"randomdotsizeEA","ratio_trial":500,"smaller_num":"4","larger_num":"8","correct_side":1,"subjID":"samuelalejandromesaortiz","gender":"0","age":"11","school":"6"},{"start_time":1551801351012,"click_time":1551801352242,"finger_time":1551801351923,"fix_duration":1407.7251984321676,"trial":36,"RT":911,"MT":319,"sideResp":2,"stimulus":"img/500/equaldotsize/R/15_Ratio_500_L_1_R_2.png","xmouse":[795,795,795,795,795,795,795,795,795,795,795,795,795,795,795,795,795,795,795,795,795,795,795,795,795,795,795,795,795,795,795,795,795,795,795,795,795,795,795,795,795,795,796,801,811,826,846,907,931,973,992,1010,1023,1047,1058,1069,1080,1091,1102,1104,1104,1104],"ymouse":[488,488,488,488,488,488,488,488,488,488,488,488,488,488,488,488,488,488,488,488,488,488,488,488,488,488,488,488,488,488,488,488,488,488,488,488,488,488,488,488,488,487,479,472,461,449,434,395,373,333,309,286,265,229,208,189,169,149,121,106,100,99],"timestamp_mouse":[10,30,51,71,90,110,131,150,171,191,210,231,250,270,291,310,330,350,370,391,410,431,451,471,491,510,530,551,570,590,610,630,650,671,690,710,731,751,770,791,810,831,850,871,890,911,931,950,970,990,1011,1030,1050,1071,1090,1111,1130,1150,1170,1190,1210,1230],"xSR":741.5,"ySR":449.15000000000003,"xT1":424.9,"yT1":0,"xT2":1058.1,"yT2":0,"toosoon":0,"cond_shown":"equaldotsize","ratio_trial":500,"smaller_num":"1","larger_num":"2","correct_side":2,"subjID":"samuelalejandromesaortiz","gender":"0","age":"11","school":"6"},{"start_time":1551801353585,"click_time":1551801354522,"finger_time":1551801354203,"fix_duration":681.5798536977584,"trial":37,"RT":618,"MT":319,"sideResp":1,"stimulus":"img/900/randomdotsizeEA/R/13_Ratio_900_L_18_R_20.png","xmouse":[771,771,772,774,774,775,775,775,775,775,775,775,775,775,775,775,775,775,775,775,775,775,775,775,776,776,776,776,769,758,734,714,691,657,644,635,625,617,596,577,563,547,535,524,507,496,483],"ymouse":[526,526,524,523,522,521,520,520,520,520,520,520,520,520,520,520,520,520,520,520,520,520,520,520,517,514,511,506,488,471,436,414,388,348,330,315,299,284,250,224,207,189,173,161,130,114,96],"timestamp_mouse":[20,37,57,77,97,117,138,158,177,197,217,238,257,278,298,318,336,358,378,397,417,437,458,477,498,517,538,558,578,598,618,636,658,677,697,717,737,757,777,797,817,849,857,877,897,918,937],"xSR":741.5,"ySR":449.15000000000003,"xT1":424.9,"yT1":0,"xT2":1058.1,"yT2":0,"toosoon":0,"cond_shown":"randomdotsizeEA","ratio_trial":900,"smaller_num":"18","larger_num":"20","correct_side":2,"subjID":"samuelalejandromesaortiz","gender":"0","age":"11","school":"6"},{"start_time":1551801356709,"click_time":1551801357762,"finger_time":1551801357362,"fix_duration":1464.474766042677,"trial":38,"RT":653,"MT":400,"sideResp":2,"stimulus":"img/500/randomdotsizeEA/R/1_Ratio_500_L_9_R_18.png","xmouse":[787,787,787,787,787,787,787,787,787,787,787,787,787,787,787,787,787,787,787,787,787,787,787,787,787,787,787,788,791,798,809,825,860,885,900,914,926,942,950,953,955,958,964,971,981,1004,1019,1033,1046,1050,1053,1056,1061],"ymouse":[503,503,503,503,503,503,503,503,503,503,503,503,503,503,503,503,503,503,503,503,503,503,503,503,503,503,503,503,501,495,487,476,449,426,409,388,364,314,287,264,244,223,196,184,173,150,137,122,98,88,78,68,50],"timestamp_mouse":[13,34,54,73,93,114,134,153,174,194,212,233,254,274,294,314,333,353,374,393,414,433,453,474,494,513,533,553,573,593,614,633,653,672,693,713,734,754,772,793,813,834,853,873,893,913,933,953,972,993,1014,1033,1053],"xSR":741.5,"ySR":449.15000000000003,"xT1":424.9,"yT1":0,"xT2":1058.1,"yT2":0,"toosoon":0,"cond_shown":"randomdotsizeEA","ratio_trial":500,"smaller_num":"9","larger_num":"18","correct_side":2,"subjID":"samuelalejandromesaortiz","gender":"0","age":"11","school":"6"},{"start_time":1551801361370,"click_time":1551801362262,"finger_time":1551801362082,"fix_duration":1287.8247995086674,"trial":39,"RT":712,"MT":180,"sideResp":2,"stimulus":"img/900/equaldotsize/L/10_Ratio_900_L_20_R_18.png","xmouse":[792,792,792,792,792,792,792,792,792,792,792,792,792,792,792,792,792,792,792,792,792,792,792,792,792,792,792,792,792,792,792,795,798,802,823,838,857,886,921,1005,1042,1079,1093,1103,1111],"ymouse":[500,500,500,500,500,500,500,500,500,500,500,500,500,500,500,500,500,500,500,500,500,500,500,500,500,500,500,500,500,500,500,498,493,486,463,448,427,397,359,266,216,155,129,107,89],"timestamp_mouse":[13,36,52,73,92,113,133,152,173,192,213,233,252,273,292,313,335,352,373,392,412,432,452,473,492,513,533,551,572,591,612,632,652,672,692,712,732,753,772,793,813,832,852,872,892],"xSR":741.5,"ySR":449.15000000000003,"xT1":424.9,"yT1":0,"xT2":1058.1,"yT2":0,"toosoon":0,"cond_shown":"equaldotsize","ratio_trial":900,"smaller_num":"18","larger_num":"20","correct_side":1,"subjID":"samuelalejandromesaortiz","gender":"0","age":"11","school":"6"},{"start_time":1551801363364,"click_time":1551801365643,"finger_time":1551801365262,"fix_duration":300.0767018033127,"trial":40,"RT":1898,"MT":381,"sideResp":2,"stimulus":"img/750/randomdotsizeEA/R/3_Ratio_750_L_15_R_20.png","xmouse":[805,805,803,802,800,800,798,798,797,797,795,795,795,795,795,795,795,795,795,795,795,795,795,795,795,795,795,795,795,795,795,795,795,795,795,795,795,795,795,795,795,795,795,795,795,795,795,795,795,795,795,795,795,795,795,795,795,795,795,795,795,795,795,795,795,795,795,795,795,795,795,795,795,795,795,795,795,795,795,795,795,795,795,795,795,795,795,795,795,795,795,799,809,827,872,894,914,932,947,970,974,974,974,977,984,988,995,1001,1009,1024,1035,1039,1051,1062],"ymouse":[487,487,490,491,493,493,494,496,497,497,499,500,500,500,500,500,500,500,500,500,500,500,500,500,500,500,500,500,500,500,500,500,500,500,500,500,500,500,500,500,500,500,500,499,499,499,499,499,499,499,499,499,499,499,499,499,499,499,499,499,499,499,499,499,499,499,499,499,499,499,499,499,499,499,499,499,499,499,499,499,499,499,499,499,499,499,499,499,499,499,499,492,482,469,439,423,405,385,362,296,239,224,188,171,141,129,114,99,83,53,36,31,19,12],"timestamp_mouse":[27,37,58,77,99,119,138,159,179,198,219,238,258,279,297,318,338,359,378,399,419,439,458,479,499,519,539,557,579,598,618,639,659,678,699,718,739,758,778,798,819,838,858,878,899,918,939,958,979,998,1019,1039,1058,1077,1099,1118,1138,1158,1178,1199,1218,1238,1257,1278,1298,1319,1337,1358,1378,1398,1419,1437,1458,1479,1498,1518,1538,1558,1578,1598,1619,1638,1659,1677,1698,1719,1738,1758,1779,1798,1818,1839,1859,1878,1898,1917,1938,1959,1978,1998,2018,2038,2058,2078,2098,2118,2138,2158,2178,2198,2218,2238,2259,2279],"xSR":741.5,"ySR":449.15000000000003,"xT1":424.9,"yT1":0,"xT2":1058.1,"yT2":0,"toosoon":0,"cond_shown":"randomdotsizeEA","ratio_trial":750,"smaller_num":"15","larger_num":"20","correct_side":2,"subjID":"samuelalejandromesaortiz","gender":"0","age":"11","school":"6"},{"start_time":1551801374076,"click_time":1551801375203,"finger_time":1551801374922,"fix_duration":773.1120221615661,"trial":41,"RT":846,"MT":281,"sideResp":2,"stimulus":"img/750/randomdotsizeEA/L/1_Ratio_750_L_20_R_15.png","xmouse":[800,800,800,800,800,800,800,800,800,800,800,800,800,800,800,800,800,800,800,800,800,800,800,800,800,800,800,800,800,797,789,769,766,765,765,766,766,766,768,778,788,802,817,836,872,903,924,946,966,998,1012,1021,1030,1037,1049,1057,1063],"ymouse":[492,492,492,492,492,492,492,492,492,492,492,492,492,492,492,492,492,492,492,492,492,492,492,492,492,492,492,492,492,494,502,507,507,507,507,507,506,506,502,489,478,463,445,424,380,343,319,295,270,226,206,186,166,146,105,79,52],"timestamp_mouse":[10,29,46,65,85,107,125,146,166,185,205,225,245,265,286,307,325,346,367,385,406,426,447,465,486,507,525,546,566,586,606,626,645,666,687,706,725,746,766,785,806,826,846,867,885,905,925,945,966,986,1006,1025,1045,1066,1085,1105,1127],"xSR":741.5,"ySR":449.15000000000003,"xT1":424.9,"yT1":0,"xT2":1058.1,"yT2":0,"toosoon":0,"cond_shown":"randomdotsizeEA","ratio_trial":750,"smaller_num":"15","larger_num":"20","correct_side":1,"subjID":"samuelalejandromesaortiz","gender":"0","age":"11","school":"6"},{"start_time":1551801376545,"click_time":1551801377622,"finger_time":1551801377201,"fix_duration":502.56759106007485,"trial":42,"RT":656,"MT":421,"sideResp":1,"stimulus":"img/750/randomdotsizeEA/R/4_Ratio_750_L_15_R_20.png","xmouse":[770,772,772,772,772,772,772,772,772,772,772,772,772,772,772,772,772,772,772,772,772,772,772,772,772,772,772,772,770,770,758,743,710,674,632,561,525,490,468,448,432,416,414,414,414,414,414,414,417,422,431,441,447,452],"ymouse":[500,496,494,494,494,494,494,494,494,494,494,494,494,494,494,494,494,494,494,494,494,494,494,494,494,494,494,493,493,492,481,468,444,418,396,341,315,288,268,253,236,217,210,207,202,196,182,174,163,152,129,112,100,88],"timestamp_mouse":[18,44,56,78,96,116,136,156,176,196,216,237,256,277,296,317,337,357,377,397,417,436,456,477,497,516,537,556,576,596,616,637,656,676,696,716,736,756,777,797,817,837,857,877,897,916,936,956,976,997,1017,1036,1056,1077],"xSR":741.5,"ySR":449.15000000000003,"xT1":424.9,"yT1":0,"xT2":1058.1,"yT2":0,"toosoon":0,"cond_shown":"randomdotsizeEA","ratio_trial":750,"smaller_num":"15","larger_num":"20","correct_side":2,"subjID":"samuelalejandromesaortiz","gender":"0","age":"11","school":"6"},{"start_time":1551801378968,"click_time":1551801379741,"finger_time":1551801379561,"fix_duration":545.4190749194526,"trial":43,"RT":593,"MT":180,"sideResp":2,"stimulus":"img/250/equaldotanddens/R/10_Ratio_250_L_4_R_16.png","xmouse":[788,785,782,782,781,781,781,781,781,781,781,781,781,781,781,781,781,781,781,781,781,781,781,781,781,782,786,794,811,852,878,923,953,981,1009,1051,1063,1072,1080],"ymouse":[501,494,487,486,484,484,484,484,484,484,484,484,484,484,484,484,484,484,484,484,484,484,484,484,484,482,477,471,459,424,393,329,283,240,201,142,124,107,92],"timestamp_mouse":[17,37,54,74,94,114,133,154,173,193,215,234,255,274,293,313,335,354,374,394,414,434,453,473,494,513,533,554,573,593,614,633,654,673,693,713,734,755,773],"xSR":741.5,"ySR":449.15000000000003,"xT1":424.9,"yT1":0,"xT2":1058.1,"yT2":0,"toosoon":0,"cond_shown":"equaldotanddens","ratio_trial":250,"smaller_num":"4","larger_num":"16","correct_side":2,"subjID":"samuelalejandromesaortiz","gender":"0","age":"11","school":"6"},{"start_time":1551801381368,"click_time":1551801382522,"finger_time":1551801382162,"fix_duration":546.8654633864311,"trial":44,"RT":794,"MT":360,"sideResp":2,"stimulus":"img/750/equaldotsize/L/8_Ratio_750_L_4_R_3.png","xmouse":[790,790,790,790,790,790,790,790,790,790,790,790,790,790,790,790,790,790,790,790,790,790,790,790,789,788,788,788,788,788,788,788,789,790,792,795,800,810,826,865,877,896,908,919,934,943,952,958,964,977,988,993,1007,1019,1040,1048,1055,1061],"ymouse":[494,494,494,494,494,494,494,494,494,494,494,494,494,494,494,494,494,494,494,494,494,494,494,494,493,492,492,492,492,491,490,490,487,486,483,477,471,464,454,430,419,399,383,365,339,327,315,305,295,276,257,249,220,197,148,129,109,94],"timestamp_mouse":[13,36,53,74,94,114,133,153,175,193,213,233,254,274,293,314,333,353,373,394,413,434,453,473,493,513,534,553,574,594,614,635,654,673,694,713,733,754,773,794,813,834,854,874,894,913,934,954,973,993,1013,1034,1053,1073,1093,1113,1134,1154],"xSR":741.5,"ySR":449.15000000000003,"xT1":424.9,"yT1":0,"xT2":1058.1,"yT2":0,"toosoon":0,"cond_shown":"equaldotsize","ratio_trial":750,"smaller_num":"3","larger_num":"4","correct_side":1,"subjID":"samuelalejandromesaortiz","gender":"0","age":"11","school":"6"},{"start_time":1551801385529,"click_time":1551801386561,"finger_time":1551801386182,"fix_duration":687.0818523560777,"trial":45,"RT":653,"MT":379,"sideResp":1,"stimulus":"img/900/randomdotsizeEA/L/10_Ratio_900_L_20_R_18.png","xmouse":[792,792,792,792,792,792,791,791,791,791,791,791,791,791,791,791,791,791,791,791,791,791,791,791,791,791,791,791,788,781,767,747,695,654,624,599,548,532,517,506,500,495,485,480,477,477,477,477,476,474,472,467],"ymouse":[487,487,487,487,487,487,489,489,489,489,489,489,489,489,489,489,489,489,489,489,489,489,489,489,489,489,489,489,488,479,467,451,413,382,361,342,305,290,277,265,255,243,221,205,196,191,178,167,152,136,118,91],"timestamp_mouse":[12,33,53,72,93,113,132,153,172,192,212,233,253,272,292,313,332,354,373,393,413,433,453,474,493,513,532,553,572,593,613,633,653,673,692,713,733,752,772,793,813,833,854,873,892,912,932,952,973,992,1013,1032],"xSR":741.5,"ySR":449.15000000000003,"xT1":424.9,"yT1":0,"xT2":1058.1,"yT2":0,"toosoon":0,"cond_shown":"randomdotsizeEA","ratio_trial":900,"smaller_num":"18","larger_num":"20","correct_side":1,"subjID":"samuelalejandromesaortiz","gender":"0","age":"11","school":"6"},{"start_time":1551801390333,"click_time":1551801391363,"finger_time":1551801391002,"fix_duration":1370.58831018161,"trial":46,"RT":669,"MT":361,"sideResp":1,"stimulus":"img/750/equaldotanddens/L/10_Ratio_750_L_4_R_3.png","xmouse":[784,784,784,784,784,784,784,784,784,784,784,784,784,784,784,784,784,784,784,784,784,784,784,784,784,784,784,784,784,784,782,779,761,740,724,708,674,654,635,616,599,582,553,542,522,511,495,488,481,473,467,451],"ymouse":[498,498,498,498,498,498,498,498,498,498,498,498,498,498,498,498,498,498,498,498,498,498,498,498,498,498,498,498,498,498,498,495,475,454,437,420,382,364,345,330,315,301,275,265,245,230,201,186,168,150,130,93],"timestamp_mouse":[10,28,49,69,89,108,128,148,168,189,210,229,248,268,288,310,329,348,368,389,409,430,449,469,489,508,528,549,569,589,608,629,649,669,688,709,728,748,768,789,808,829,850,869,888,911,929,948,968,988,1009,1030],"xSR":741.5,"ySR":449.15000000000003,"xT1":424.9,"yT1":0,"xT2":1058.1,"yT2":0,"toosoon":0,"cond_shown":"equaldotanddens","ratio_trial":750,"smaller_num":"3","larger_num":"4","correct_side":1,"subjID":"samuelalejandromesaortiz","gender":"0","age":"11","school":"6"},{"start_time":1551801393674,"click_time":1551801395321,"finger_time":1551801394562,"fix_duration":1490.8516857046338,"trial":47,"RT":888,"MT":759,"sideResp":1,"stimulus":"img/500/randomdotsizeEA/L/5_Ratio_500_L_4_R_2.png","xmouse":[777,777,777,777,777,777,777,777,777,777,777,777,777,777,777,777,777,777,777,777,777,777,777,777,777,777,777,777,777,777,777,777,777,777,777,777,777,777,777,777,781,789,795,799,802,802,802,801,799,797,784,770,749,722,688,634,604,588,573,549,535,519,500,478,449,416,411,408,406,406,406,406,406,406,406,406,406,406,407,409,419,422,425],"ymouse":[493,493,493,493,493,493,493,493,493,493,493,493,493,493,493,493,493,493,493,493,493,493,493,493,493,493,493,493,493,493,493,493,493,493,493,493,493,493,493,491,486,477,467,459,443,439,435,430,427,424,414,407,398,387,373,351,338,330,321,302,291,278,260,234,210,174,147,131,117,101,96,93,92,92,92,92,92,91,90,90,87,86,85],"timestamp_mouse":[8,28,47,67,87,107,127,147,167,189,207,227,247,267,288,308,327,347,367,389,407,428,447,468,487,507,527,548,567,587,607,628,647,667,688,707,727,748,768,788,807,827,848,868,888,907,928,948,968,987,1007,1027,1048,1068,1088,1108,1128,1147,1168,1187,1207,1227,1247,1267,1288,1307,1328,1347,1367,1388,1407,1428,1447,1467,1487,1508,1528,1547,1567,1587,1607,1628,1647],"xSR":741.5,"ySR":449.15000000000003,"xT1":424.9,"yT1":0,"xT2":1058.1,"yT2":0,"toosoon":0,"cond_shown":"randomdotsizeEA","ratio_trial":500,"smaller_num":"2","larger_num":"4","correct_side":1,"subjID":"samuelalejandromesaortiz","gender":"0","age":"11","school":"6"},{"start_time":1551801397572,"click_time":1551801398661,"finger_time":1551801398301,"fix_duration":1370.0537669659855,"trial":48,"RT":729,"MT":360,"sideResp":1,"stimulus":"img/750/equaldotsize/R/3_Ratio_750_L_15_R_20.png","xmouse":[771,771,771,771,771,771,771,771,771,771,771,771,771,771,771,771,771,771,771,771,771,771,771,771,771,771,771,771,771,771,771,771,771,769,767,748,735,717,702,685,650,623,610,597,577,565,552,537,523,496,488,485,484,483,481],"ymouse":[496,496,496,496,496,496,496,496,496,496,496,496,496,496,496,496,496,496,496,496,496,496,496,496,496,496,496,496,496,496,496,496,496,492,487,455,436,411,387,363,323,290,274,258,230,214,196,178,160,129,115,110,104,102,95],"timestamp_mouse":[9,35,50,69,89,109,129,149,169,189,209,229,249,271,290,309,329,349,371,390,409,430,450,470,489,511,529,550,570,591,610,629,649,669,690,709,729,749,769,790,809,829,850,869,889,910,929,950,970,990,1009,1030,1050,1070,1089],"xSR":741.5,"ySR":449.15000000000003,"xT1":424.9,"yT1":0,"xT2":1058.1,"yT2":0,"toosoon":0,"cond_shown":"equaldotsize","ratio_trial":750,"smaller_num":"15","larger_num":"20","correct_side":2,"subjID":"samuelalejandromesaortiz","gender":"0","age":"11","school":"6"},{"start_time":1551801402320,"click_time":1551801403561,"finger_time":1551801403122,"fix_duration":1317.9234052945133,"trial":49,"RT":802,"MT":439,"sideResp":2,"stimulus":"img/900/randomdotsizeEA/L/1_Ratio_900_L_10_R_9.png","xmouse":[787,787,787,787,787,787,787,787,787,787,787,787,787,787,787,787,787,787,787,787,787,787,787,787,787,787,787,787,787,787,787,787,787,787,787,790,793,805,815,825,836,850,882,916,931,938,945,958,965,974,982,990,1002,1006,1009,1012,1017,1029,1037,1043,1050,1056,1060],"ymouse":[500,500,500,500,500,500,500,500,500,500,500,500,500,500,500,500,500,500,500,500,500,500,500,500,500,500,500,500,500,500,500,500,500,500,500,500,496,480,469,457,444,428,392,363,348,336,322,293,275,256,238,221,191,181,167,158,147,125,114,106,96,88,83],"timestamp_mouse":[10,21,41,61,82,101,122,141,161,182,202,221,241,262,281,301,322,341,361,382,401,421,441,462,481,503,521,541,561,581,603,622,641,662,681,702,721,741,762,781,802,822,841,861,881,901,921,941,961,981,1002,1022,1041,1062,1081,1101,1121,1141,1161,1183,1201,1221,1241],"xSR":741.5,"ySR":449.15000000000003,"xT1":424.9,"yT1":0,"xT2":1058.1,"yT2":0,"toosoon":0,"cond_shown":"randomdotsizeEA","ratio_trial":900,"smaller_num":"9","larger_num":"10","correct_side":1,"subjID":"samuelalejandromesaortiz","gender":"0","age":"11","school":"6"},{"start_time":1551801404728,"click_time":1551801405762,"finger_time":1551801405382,"fix_duration":386.47436256813796,"trial":50,"RT":654,"MT":380,"sideResp":1,"stimulus":"img/250/equaldotsize/L/3_Ratio_250_L_8_R_2.png","xmouse":[805,805,805,805,805,805,805,803,803,803,803,803,803,803,803,803,803,803,803,803,803,803,803,803,803,803,803,803,803,796,790,764,749,733,711,695,681,653,642,636,631,627,615,604,599,593,574,562,551,536,520,496],"ymouse":[485,485,485,485,485,485,485,485,486,488,488,488,488,488,488,488,488,488,488,488,488,488,488,488,488,488,488,488,488,485,481,456,439,417,386,363,339,290,270,254,242,229,203,188,182,175,162,152,141,126,106,69],"timestamp_mouse":[14,33,53,73,95,113,135,154,173,193,215,233,253,273,293,313,333,353,375,394,415,433,453,473,495,513,533,553,573,594,614,634,654,674,694,713,733,753,773,794,814,834,854,873,894,914,933,955,974,993,1013,1034],"xSR":741.5,"ySR":449.15000000000003,"xT1":424.9,"yT1":0,"xT2":1058.1,"yT2":0,"toosoon":0,"cond_shown":"equaldotsize","ratio_trial":250,"smaller_num":"2","larger_num":"8","correct_side":1,"subjID":"samuelalejandromesaortiz","gender":"0","age":"11","school":"6"},{"start_time":1551801408663,"click_time":1551801409962,"finger_time":1551801409302,"fix_duration":759.7176089266275,"trial":51,"RT":639,"MT":660,"sideResp":2,"stimulus":"img/500/equaldotsize/R/2_Ratio_500_L_3_R_6.png","xmouse":[777,777,777,777,777,777,777,777,777,777,777,777,777,777,777,777,777,777,777,777,777,777,777,777,777,777,777,779,784,797,803,811,822,837,854,901,927,941,951,959,964,965,966,969,972,975,976,978,981,988,991,996,999,1005,1019,1025,1032,1035,1038,1042,1048,1052,1054,1055,1059],"ymouse":[505,505,505,505,505,505,505,505,505,505,505,505,505,505,505,505,505,505,505,505,505,505,505,505,505,505,504,500,492,472,462,447,427,405,382,324,291,271,253,237,212,202,192,184,176,167,163,160,157,150,147,143,140,135,125,120,115,112,110,107,103,101,100,99,97],"timestamp_mouse":[27,39,59,78,98,118,138,158,179,199,218,239,258,280,300,319,339,358,379,398,418,439,459,479,499,518,538,558,578,598,618,639,659,678,698,719,739,759,780,799,819,838,858,879,898,918,939,959,979,999,1018,1039,1059,1078,1100,1118,1138,1158,1180,1199,1218,1238,1258,1279,1298],"xSR":741.5,"ySR":449.15000000000003,"xT1":424.9,"yT1":0,"xT2":1058.1,"yT2":0,"toosoon":0,"cond_shown":"equaldotsize","ratio_trial":500,"smaller_num":"3","larger_num":"6","correct_side":2,"subjID":"samuelalejandromesaortiz","gender":"0","age":"11","school":"6"},{"start_time":1551801414670,"click_time":1551801415861,"finger_time":1551801415401,"fix_duration":1347.4657228615915,"trial":52,"RT":731,"MT":460,"sideResp":1,"stimulus":"img/900/randomdotsizeEA/L/1_Ratio_900_L_10_R_9.png","xmouse":[800,800,800,800,800,800,800,800,800,800,800,800,800,800,800,800,800,800,800,800,800,800,800,800,800,800,800,800,800,800,800,800,800,800,791,782,759,742,717,657,618,573,554,554,554,554,554,554,554,554,554,554,554,554,554,554,554,554,554,450],"ymouse":[506,506,506,506,506,506,506,506,506,506,506,506,506,506,506,506,506,506,506,506,506,506,506,506,506,506,506,506,506,506,506,506,506,504,483,464,421,378,324,193,119,44,12,12,12,12,12,12,12,12,12,12,12,12,12,12,12,12,12,12],"timestamp_mouse":[11,34,52,71,91,113,133,151,172,193,212,231,252,271,292,311,332,352,372,392,412,431,451,472,492,511,531,552,572,592,612,632,651,671,691,712,731,752,771,791,812,832,852,871,892,912,932,951,971,991,1011,1032,1052,1072,1092,1113,1131,1151,1171,1191],"xSR":741.5,"ySR":449.15000000000003,"xT1":424.9,"yT1":0,"xT2":1058.1,"yT2":0,"toosoon":0,"cond_shown":"randomdotsizeEA","ratio_trial":900,"smaller_num":"9","larger_num":"10","correct_side":1,"subjID":"samuelalejandromesaortiz","gender":"0","age":"11","school":"6"},{"start_time":1551801417246,"click_time":1551801418222,"finger_time":1551801418062,"fix_duration":304.7352063549191,"trial":53,"RT":816,"MT":160,"sideResp":1,"stimulus":"img/900/equaldotsize/R/9_Ratio_900_L_18_R_20.png","xmouse":[769,769,769,769,769,769,769,769,769,769,769,769,769,769,769,769,769,769,769,769,769,769,769,769,769,769,769,769,769,769,769,769,769,769,769,769,769,769,767,761,752,692,678,648,620,594,557,526,506],"ymouse":[478,478,478,478,478,478,478,478,478,478,478,478,478,478,478,478,478,478,478,478,478,478,478,478,478,478,478,478,478,478,478,478,478,478,478,478,478,477,466,451,427,314,292,246,205,167,103,61,33],"timestamp_mouse":[16,36,55,76,96,115,135,156,175,196,215,235,256,275,295,317,335,355,375,396,415,435,455,476,496,515,537,556,576,595,615,636,655,676,696,715,736,756,775,797,816,839,856,876,895,915,935,955,976],"xSR":741.5,"ySR":449.15000000000003,"xT1":424.9,"yT1":0,"xT2":1058.1,"yT2":0,"toosoon":0,"cond_shown":"equaldotsize","ratio_trial":900,"smaller_num":"18","larger_num":"20","correct_side":2,"subjID":"samuelalejandromesaortiz","gender":"0","age":"11","school":"6"},{"start_time":1551801420795,"click_time":1551801422062,"finger_time":1551801421542,"fix_duration":1292.1640370832197,"trial":54,"RT":747,"MT":520,"sideResp":2,"stimulus":"img/750/randomdotsizeEA/L/9_Ratio_750_L_4_R_3.png","xmouse":[803,802,801,799,797,797,797,797,797,797,797,797,797,797,797,797,797,797,797,797,797,797,797,797,797,797,797,797,797,797,797,797,797,797,805,818,836,856,892,909,941,990,1034,1113,1142,1164,1182,1197,1225,1231,1231,1231,1231,1231,1231,1231,1231,1231,1231,1231,1231,1231,1231,1098],"ymouse":[494,494,494,494,494,494,494,494,494,494,494,494,494,494,494,494,494,494,494,494,494,494,494,494,494,494,494,494,494,494,494,494,494,493,486,477,465,450,413,386,349,299,261,190,153,120,90,60,12,4,4,4,4,4,4,4,4,4,4,4,4,4,4,8],"timestamp_mouse":[10,27,47,66,86,107,126,146,166,186,208,226,248,266,287,307,326,347,366,387,407,428,446,466,487,506,526,546,567,586,607,627,648,667,687,707,727,747,766,786,806,827,846,866,886,907,927,947,967,986,1006,1026,1047,1067,1087,1106,1126,1146,1167,1187,1207,1227,1246,1267],"xSR":741.5,"ySR":449.15000000000003,"xT1":424.9,"yT1":0,"xT2":1058.1,"yT2":0,"toosoon":0,"cond_shown":"randomdotsizeEA","ratio_trial":750,"smaller_num":"3","larger_num":"4","correct_side":1,"subjID":"samuelalejandromesaortiz","gender":"0","age":"11","school":"6"},{"start_time":1551801423443,"click_time":1551801424601,"finger_time":1551801424122,"fix_duration":259.3636695114132,"trial":55,"RT":679,"MT":479,"sideResp":1,"stimulus":"img/250/equaldotsize/L/14_Ratio_250_L_12_R_3.png","xmouse":[806,806,807,807,807,807,807,807,807,807,807,807,807,807,807,807,807,807,807,807,807,807,807,807,807,807,807,807,807,807,807,804,790,762,716,657,516,423,396,353,353,353,353,353,353,353,353,353,353,353,353,353,353,353,353,353,402,421,447],"ymouse":[501,502,503,503,503,503,503,503,503,503,503,503,503,503,503,503,503,503,503,503,503,503,503,503,503,503,503,503,503,503,503,501,482,451,404,354,220,114,76,13,13,13,13,13,13,13,13,13,13,13,13,13,13,13,13,13,0,24,54],"timestamp_mouse":[1,18,38,59,80,98,118,138,159,178,199,218,238,258,279,298,319,339,359,379,398,418,438,459,478,499,518,539,560,579,599,620,639,658,679,698,718,738,759,779,799,819,839,859,879,898,918,939,958,979,999,1019,1039,1059,1078,1099,1118,1139,1158],"xSR":741.5,"ySR":449.15000000000003,"xT1":424.9,"yT1":0,"xT2":1058.1,"yT2":0,"toosoon":0,"cond_shown":"equaldotsize","ratio_trial":250,"smaller_num":"3","larger_num":"12","correct_side":1,"subjID":"samuelalejandromesaortiz","gender":"0","age":"11","school":"6"},{"start_time":1551801426892,"click_time":1551801427941,"finger_time":1551801427501,"fix_duration":1329.7244437545555,"trial":56,"RT":609,"MT":440,"sideResp":2,"stimulus":"img/500/equaldotanddens/R/3_Ratio_500_L_10_R_20.png","xmouse":[786,786,786,786,786,786,786,786,786,786,786,786,786,786,786,786,786,786,786,786,786,786,786,786,786,786,786,787,804,820,842,862,887,961,1010,1054,1098,1112,1131,1137,1145,1152,1158,1168,1170,1170,1168,1167,1164,1163,1160,1159,1157],"ymouse":[495,495,495,495,495,495,495,495,495,495,495,495,495,495,495,495,495,495,495,495,495,495,495,495,495,495,495,495,484,473,455,438,418,361,326,295,258,235,192,174,158,144,129,102,89,75,56,51,47,46,45,45,44],"timestamp_mouse":[9,38,50,69,89,109,129,149,169,189,210,231,249,270,290,311,329,350,369,389,409,429,449,469,490,511,530,549,569,590,609,629,650,669,689,709,730,749,770,790,810,830,851,869,889,909,930,949,970,989,1009,1030,1049],"xSR":741.5,"ySR":449.15000000000003,"xT1":424.9,"yT1":0,"xT2":1058.1,"yT2":0,"toosoon":0,"cond_shown":"equaldotanddens","ratio_trial":500,"smaller_num":"10","larger_num":"20","correct_side":2,"subjID":"samuelalejandromesaortiz","gender":"0","age":"11","school":"6"},{"start_time":1551801429334,"click_time":1551801430581,"finger_time":1551801429981,"fix_duration":250,"trial":57,"RT":647,"MT":600,"sideResp":2,"stimulus":"img/900/equaldotanddens/L/1_Ratio_900_L_10_R_9.png","xmouse":[790,789,789,789,789,789,789,789,789,789,789,789,789,789,789,789,789,789,789,789,789,789,789,789,789,789,789,790,795,800,808,823,877,911,948,999,1100,1150,1191,1223,1247,1292,1311,1316,1316,1316,1316,1316,1316,1316,1316,1316,1316,1316,1316,1316,1316,1316,1316,1316,1316,1159,1148],"ymouse":[487,488,490,490,490,490,490,490,490,490,490,490,490,490,490,490,490,490,490,490,490,490,490,490,490,490,490,490,486,482,477,469,441,421,398,369,297,261,223,186,148,66,17,1,1,1,1,1,1,1,1,1,1,1,1,1,1,1,1,1,1,11,27],"timestamp_mouse":[8,28,47,68,87,107,127,147,167,187,207,227,247,269,288,308,327,349,368,388,407,427,448,467,487,507,527,548,567,587,608,628,647,668,687,708,728,748,767,787,807,828,847,867,888,907,927,948,968,987,1008,1027,1047,1068,1088,1107,1127,1148,1168,1188,1207,1227,1247],"xSR":741.5,"ySR":449.15000000000003,"xT1":424.9,"yT1":0,"xT2":1058.1,"yT2":0,"toosoon":0,"cond_shown":"equaldotanddens","ratio_trial":900,"smaller_num":"9","larger_num":"10","correct_side":1,"subjID":"samuelalejandromesaortiz","gender":"0","age":"11","school":"6"},{"start_time":1551801431753,"click_time":1551801433343,"finger_time":1551801432781,"fix_duration":250,"trial":58,"RT":1028,"MT":562,"sideResp":2,"stimulus":"img/500/randomdotsizeEA/R/12_Ratio_500_L_1_R_2.png","xmouse":[763,763,763,763,763,763,763,763,763,763,763,763,763,763,763,763,763,763,763,763,763,763,763,763,763,763,763,763,763,763,763,763,763,763,763,763,763,763,763,763,763,763,763,763,763,763,763,763,765,770,804,846,867,952,1016,1079,1167,1188,1205,1220,1248,1256,1262,1262,1262,1262,1262,1262,1262,1262,1262,1262,1262,1262,1262,1262,1262,1262,1262,1138],"ymouse":[489,489,489,489,489,489,489,489,489,489,489,489,489,489,489,489,489,489,489,489,489,489,489,489,489,489,489,489,489,489,489,489,489,489,489,489,489,489,489,489,489,489,489,489,489,489,489,489,488,485,468,449,441,413,387,357,294,264,233,200,131,98,47,14,14,14,14,14,14,14,14,14,14,14,14,14,14,14,14,4],"timestamp_mouse":[10,35,48,69,89,108,128,150,168,189,208,229,248,268,288,308,328,350,369,389,408,428,450,469,488,508,530,548,569,589,608,630,648,668,689,708,728,748,768,788,809,829,849,869,888,909,928,948,969,988,1008,1028,1048,1070,1090,1109,1129,1149,1169,1189,1209,1229,1248,1268,1289,1309,1330,1348,1369,1389,1409,1428,1448,1469,1488,1508,1528,1548,1568,1590],"xSR":741.5,"ySR":449.15000000000003,"xT1":424.9,"yT1":0,"xT2":1058.1,"yT2":0,"toosoon":0,"cond_shown":"randomdotsizeEA","ratio_trial":500,"smaller_num":"1","larger_num":"2","correct_side":2,"subjID":"samuelalejandromesaortiz","gender":"0","age":"11","school":"6"},{"start_time":1551801436009,"click_time":1551801437202,"finger_time":1551801436722,"fix_duration":1485.4423720208076,"trial":59,"RT":713,"MT":480,"sideResp":2,"stimulus":"img/750/equaldotanddens/R/15_Ratio_750_L_9_R_12.png","xmouse":[785,784,783,782,781,781,781,781,781,781,781,781,781,781,781,781,781,781,781,781,781,781,781,781,781,781,781,781,781,781,781,781,776,754,747,736,730,729,729,729,729,729,729,750,773,806,842,903,932,966,987,1006,1047,1067,1086,1101,1115,1134,1141,1147],"ymouse":[503,502,502,499,499,499,498,498,498,498,498,498,498,498,498,498,498,498,498,498,498,498,498,498,498,498,498,498,498,498,498,498,491,465,458,446,442,440,440,440,440,440,439,424,409,387,367,325,309,290,276,265,242,228,214,197,176,132,111,84],"timestamp_mouse":[13,32,54,73,92,113,132,154,173,192,214,232,253,273,294,314,332,352,374,392,412,433,453,473,492,513,532,553,573,593,614,632,652,676,692,713,734,754,773,792,813,833,853,873,892,912,933,953,973,993,1012,1032,1053,1073,1092,1114,1133,1154,1174,1193],"xSR":741.5,"ySR":449.15000000000003,"xT1":424.9,"yT1":0,"xT2":1058.1,"yT2":0,"toosoon":0,"cond_shown":"equaldotanddens","ratio_trial":750,"smaller_num":"9","larger_num":"12","correct_side":2,"subjID":"samuelalejandromesaortiz","gender":"0","age":"11","school":"6"},{"start_time":1551801440335,"click_time":1551801441321,"finger_time":1551801440962,"fix_duration":250,"trial":60,"RT":627,"MT":359,"sideResp":1,"stimulus":"img/750/equaldotanddens/L/9_Ratio_750_L_4_R_3.png","xmouse":[811,811,811,811,811,811,808,805,804,802,801,800,798,797,792,792,792,792,792,792,792,792,792,792,792,792,792,792,790,787,780,759,741,702,678,657,624,614,604,596,589,581,575,567,562,554,544,539,530,516],"ymouse":[505,505,505,505,505,505,505,504,503,503,501,501,500,500,499,499,499,499,499,499,499,499,499,499,499,499,499,499,499,496,479,432,397,331,288,247,176,150,127,109,93,78,72,65,61,56,49,46,43,40],"timestamp_mouse":[8,27,47,67,88,107,126,147,167,186,206,227,247,267,287,306,326,347,367,386,407,427,448,467,487,507,527,546,568,586,606,627,648,667,687,706,727,747,767,787,806,827,848,867,887,906,926,947,966,986],"xSR":741.5,"ySR":449.15000000000003,"xT1":424.9,"yT1":0,"xT2":1058.1,"yT2":0,"toosoon":0,"cond_shown":"equaldotanddens","ratio_trial":750,"smaller_num":"3","larger_num":"4","correct_side":1,"subjID":"samuelalejandromesaortiz","gender":"0","age":"11","school":"6"},{"start_time":1551801444353,"click_time":1551801445362,"finger_time":1551801445082,"fix_duration":870.5309207357169,"trial":61,"RT":729,"MT":280,"sideResp":2,"stimulus":"img/900/equaldotanddens/R/12_Ratio_900_L_18_R_20.png","xmouse":[778,779,783,786,790,793,793,793,793,793,793,793,793,793,793,793,793,793,793,793,793,793,793,793,793,793,793,793,793,793,793,792,792,794,801,808,837,861,892,933,989,1002,1016,1023,1029,1040,1045,1049,1053,1055,1060],"ymouse":[482,488,494,499,502,507,507,507,507,507,507,507,507,507,507,507,507,507,507,507,507,507,507,507,507,507,507,507,507,506,503,501,494,485,470,454,405,369,327,281,212,194,169,155,143,121,109,99,91,85,78],"timestamp_mouse":[22,36,49,69,90,108,129,150,169,188,209,228,248,269,289,309,330,349,368,390,408,428,448,469,489,510,528,548,568,588,609,629,648,670,690,709,729,748,768,789,809,828,848,869,890,910,929,948,969,989,1009],"xSR":741.5,"ySR":449.15000000000003,"xT1":424.9,"yT1":0,"xT2":1058.1,"yT2":0,"toosoon":0,"cond_shown":"equaldotanddens","ratio_trial":900,"smaller_num":"18","larger_num":"20","correct_side":2,"subjID":"samuelalejandromesaortiz","gender":"0","age":"11","school":"6"},{"start_time":1551801446294,"click_time":1551801447302,"finger_time":1551801446921,"fix_duration":250,"trial":62,"RT":627,"MT":381,"sideResp":2,"stimulus":"img/250/randomdotsizeEA/R/13_Ratio_250_L_2_R_8.png","xmouse":[788,788,788,788,788,788,788,788,788,788,788,788,788,788,788,788,788,788,788,788,788,788,788,788,788,788,788,788,801,814,833,857,885,949,977,1007,1045,1064,1091,1101,1107,1112,1116,1119,1122,1125,1126,1129,1132,1133,1133],"ymouse":[492,492,492,492,492,492,492,492,492,492,492,492,492,492,492,492,492,492,492,492,492,492,492,492,492,491,491,489,475,466,453,437,418,372,351,326,287,264,219,197,181,171,164,158,150,144,138,132,118,108,94],"timestamp_mouse":[7,28,47,68,87,108,128,148,168,188,207,228,247,268,287,308,329,348,369,389,407,428,447,467,487,507,527,548,568,588,608,627,648,667,687,708,728,747,767,787,809,829,848,868,887,907,927,948,968,988,1008],"xSR":741.5,"ySR":449.15000000000003,"xT1":424.9,"yT1":0,"xT2":1058.1,"yT2":0,"toosoon":0,"cond_shown":"randomdotsizeEA","ratio_trial":250,"smaller_num":"2","larger_num":"8","correct_side":2,"subjID":"samuelalejandromesaortiz","gender":"0","age":"11","school":"6"},{"start_time":1551801448986,"click_time":1551801449601,"finger_time":1551801449462,"fix_duration":584.7081426648982,"trial":63,"RT":476,"MT":139,"sideResp":1,"stimulus":"img/250/equaldotsize/L/1_Ratio_250_L_8_R_2.png","xmouse":[796,796,796,796,796,796,796,796,796,796,796,796,796,796,796,796,796,796,796,796,795,790,782,743,711,674,639,606,550,531,521],"ymouse":[497,497,497,497,497,497,497,497,497,497,497,497,497,497,497,497,497,497,497,497,497,486,468,401,342,281,220,168,72,38,19],"timestamp_mouse":[17,36,55,75,95,117,136,156,175,197,215,235,255,277,296,316,336,356,375,397,416,435,456,476,495,515,535,555,575,595,615],"xSR":741.5,"ySR":449.15000000000003,"xT1":424.9,"yT1":0,"xT2":1058.1,"yT2":0,"toosoon":0,"cond_shown":"equaldotsize","ratio_trial":250,"smaller_num":"2","larger_num":"8","correct_side":1,"subjID":"samuelalejandromesaortiz","gender":"0","age":"11","school":"6"},{"start_time":1551801451662,"click_time":1551801452862,"finger_time":1551801452341,"fix_duration":1098.600402886959,"trial":64,"RT":679,"MT":521,"sideResp":1,"stimulus":"img/500/equaldotanddens/L/8_Ratio_500_L_8_R_4.png","xmouse":[798,798,798,798,798,798,798,798,798,798,798,798,798,798,798,798,798,798,798,798,798,798,798,798,798,798,798,798,798,798,803,805,808,810,810,807,795,784,770,754,705,677,650,626,599,556,545,542,542,542,542,542,542,542,542,542,542,542,542,542,516],"ymouse":[509,509,509,509,509,509,509,509,509,509,509,509,509,509,509,509,509,509,509,509,509,509,509,509,509,509,509,509,506,505,493,485,475,460,445,415,391,372,354,331,260,219,172,129,81,22,8,3,3,3,3,3,3,3,3,3,3,3,3,3,5],"timestamp_mouse":[1,30,39,60,81,101,120,139,161,180,200,219,239,261,279,299,321,340,359,381,400,419,440,459,479,501,520,539,560,579,600,620,640,660,679,700,719,740,761,780,799,819,840,860,880,899,921,941,960,980,1000,1020,1040,1061,1079,1100,1119,1140,1160,1180,1200],"xSR":741.5,"ySR":449.15000000000003,"xT1":424.9,"yT1":0,"xT2":1058.1,"yT2":0,"toosoon":0,"cond_shown":"equaldotanddens","ratio_trial":500,"smaller_num":"4","larger_num":"8","correct_side":1,"subjID":"samuelalejandromesaortiz","gender":"0","age":"11","school":"6"},{"start_time":1551801453753,"click_time":1551801454662,"finger_time":1551801454342,"fix_duration":250,"trial":65,"RT":589,"MT":320,"sideResp":1,"stimulus":"img/750/equaldotanddens/L/13_Ratio_750_L_8_R_6.png","xmouse":[809,808,808,808,808,808,808,808,808,808,808,808,808,808,808,808,808,808,808,808,808,808,808,808,808,806,800,791,783,769,735,719,687,665,639,618,582,572,566,563,556,552,548,543,537,514],"ymouse":[476,477,477,477,477,477,477,477,477,477,477,477,477,477,477,477,477,477,477,477,477,477,477,477,477,478,472,465,456,443,401,378,331,298,262,232,182,168,153,144,127,119,113,106,100,82],"timestamp_mouse":[8,28,48,69,89,109,128,149,168,189,209,228,250,270,288,309,329,350,369,389,408,429,450,468,488,508,529,549,568,589,609,628,649,669,689,709,729,748,769,789,809,828,849,870,890,909],"xSR":741.5,"ySR":449.15000000000003,"xT1":424.9,"yT1":0,"xT2":1058.1,"yT2":0,"toosoon":0,"cond_shown":"equaldotanddens","ratio_trial":750,"smaller_num":"6","larger_num":"8","correct_side":1,"subjID":"samuelalejandromesaortiz","gender":"0","age":"11","school":"6"},{"start_time":1551801455794,"click_time":1551801456783,"finger_time":1551801456303,"fix_duration":250,"trial":66,"RT":509,"MT":480,"sideResp":1,"stimulus":"img/250/equaldotanddens/L/15_Ratio_250_L_12_R_3.png","xmouse":[781,781,781,781,781,781,781,781,781,781,781,781,781,781,781,781,781,781,781,781,781,781,781,778,768,755,739,722,698,691,683,676,671,656,644,627,603,574,533,529,529,529,529,529,529,529,528,527,521,516],"ymouse":[488,488,488,488,488,488,488,488,488,488,488,488,488,488,488,488,488,488,488,488,488,488,488,479,463,445,426,407,377,368,356,347,339,316,300,278,249,216,167,156,153,151,149,147,140,134,129,125,106,95],"timestamp_mouse":[8,27,47,67,88,108,127,148,168,187,208,227,248,267,289,309,328,348,368,387,409,428,449,468,487,509,529,547,567,587,608,627,648,667,687,708,729,747,767,787,808,827,847,868,888,907,927,947,967,989],"xSR":741.5,"ySR":449.15000000000003,"xT1":424.9,"yT1":0,"xT2":1058.1,"yT2":0,"toosoon":0,"cond_shown":"equaldotanddens","ratio_trial":250,"smaller_num":"3","larger_num":"12","correct_side":1,"subjID":"samuelalejandromesaortiz","gender":"0","age":"11","school":"6"},{"start_time":1551801457814,"click_time":1551801458862,"finger_time":1551801458441,"fix_duration":250,"trial":67,"RT":627,"MT":421,"sideResp":2,"stimulus":"img/750/equaldotanddens/L/8_Ratio_750_L_4_R_3.png","xmouse":[781,781,781,781,781,781,781,781,781,781,781,781,781,781,781,781,781,781,782,781,778,773,764,762,762,762,762,763,776,795,821,861,929,944,957,968,979,990,1007,1016,1024,1030,1036,1039,1045,1051,1057,1079,1089,1101,1110,1118,1121],"ymouse":[509,509,509,509,509,509,509,509,509,509,509,509,509,509,509,509,509,509,508,504,498,491,477,475,475,475,475,473,471,469,462,454,429,417,402,385,364,345,306,283,266,248,211,193,178,164,153,130,120,110,104,101,99],"timestamp_mouse":[8,30,48,68,88,107,129,148,167,187,208,227,249,268,288,308,328,347,368,387,409,429,447,468,488,507,527,548,567,587,608,627,648,668,688,707,728,747,768,788,807,828,847,868,888,909,927,947,967,988,1008,1027,1048],"xSR":741.5,"ySR":449.15000000000003,"xT1":424.9,"yT1":0,"xT2":1058.1,"yT2":0,"toosoon":0,"cond_shown":"equaldotanddens","ratio_trial":750,"smaller_num":"3","larger_num":"4","correct_side":1,"subjID":"samuelalejandromesaortiz","gender":"0","age":"11","school":"6"},{"start_time":1551801461002,"click_time":1551801462782,"finger_time":1551801462362,"fix_duration":1019.4714751231088,"trial":68,"RT":1360,"MT":420,"sideResp":2,"stimulus":"img/750/randomdotsizeEA/R/3_Ratio_750_L_15_R_20.png","xmouse":[791,791,791,791,791,791,791,791,791,791,791,791,791,791,791,791,791,791,791,791,791,791,791,791,791,791,791,791,791,791,791,791,791,791,791,792,792,792,792,792,792,792,792,792,792,792,792,792,792,792,792,792,792,792,792,792,792,792,792,792,792,792,792,792,795,804,820,861,883,912,930,947,976,989,1001,1016,1036,1073,1077,1086,1090,1091,1094,1095,1096,1098,1099,1103,1106],"ymouse":[499,499,499,499,499,499,499,499,499,499,499,499,499,499,499,499,499,499,499,499,499,499,499,499,499,499,499,499,499,499,499,499,499,499,498,497,497,497,497,497,497,497,497,497,497,497,497,497,497,497,497,497,497,497,497,497,497,497,497,497,497,497,497,496,493,483,471,440,423,398,381,362,322,302,280,256,229,168,162,142,134,129,120,116,113,110,108,100,94],"timestamp_mouse":[19,39,61,80,101,120,139,159,181,201,220,241,259,281,299,320,341,359,379,400,419,440,461,479,499,521,540,559,581,599,621,640,660,679,700,720,739,760,780,799,819,840,859,880,899,919,939,960,980,1001,1019,1039,1060,1079,1100,1120,1140,1160,1180,1199,1220,1239,1261,1280,1301,1321,1339,1360,1380,1400,1421,1441,1460,1480,1499,1519,1541,1561,1580,1599,1619,1639,1660,1679,1700,1720,1739,1760,1780],"xSR":741.5,"ySR":449.15000000000003,"xT1":424.9,"yT1":0,"xT2":1058.1,"yT2":0,"toosoon":0,"cond_shown":"randomdotsizeEA","ratio_trial":750,"smaller_num":"15","larger_num":"20","correct_side":2,"subjID":"samuelalejandromesaortiz","gender":"0","age":"11","school":"6"},{"start_time":1551801465314,"click_time":1551801466483,"finger_time":1551801465962,"fix_duration":1432.9283740858955,"trial":69,"RT":648,"MT":521,"sideResp":1,"stimulus":"img/500/equaldotsize/L/8_Ratio_500_L_8_R_4.png","xmouse":[806,806,806,806,806,806,806,806,806,806,806,806,806,806,806,806,806,806,806,806,806,806,806,806,806,806,806,806,806,799,790,783,772,765,758,751,742,713,692,673,651,637,622,586,568,553,541,529,523,515,509,503,499,487,475,468,464,461,459],"ymouse":[508,508,508,508,508,508,508,508,508,508,508,508,508,508,508,508,508,508,508,508,508,508,508,508,508,508,508,508,505,490,476,463,437,422,410,398,386,359,345,331,315,303,291,265,253,242,233,222,215,206,197,189,180,157,137,125,116,103,97],"timestamp_mouse":[9,28,48,68,87,107,128,148,168,187,209,229,247,268,287,307,329,349,367,389,408,427,449,468,489,508,527,547,568,589,608,631,648,667,688,709,729,747,768,788,808,828,848,869,887,908,928,948,967,988,1008,1029,1048,1068,1088,1107,1129,1148,1169],"xSR":741.5,"ySR":449.15000000000003,"xT1":424.9,"yT1":0,"xT2":1058.1,"yT2":0,"toosoon":0,"cond_shown":"equaldotsize","ratio_trial":500,"smaller_num":"4","larger_num":"8","correct_side":1,"subjID":"samuelalejandromesaortiz","gender":"0","age":"11","school":"6"},{"start_time":1551801467870,"click_time":1551801469322,"finger_time":1551801468522,"fix_duration":487.4789786480215,"trial":70,"RT":652,"MT":800,"sideResp":2,"stimulus":"img/750/equaldotanddens/R/7_Ratio_750_L_3_R_4.png","xmouse":[804,804,804,804,804,804,804,804,804,804,804,804,804,804,804,804,804,804,804,804,804,804,804,804,804,804,804,804,804,806,816,829,844,859,885,895,908,916,925,938,947,956,965,973,992,1003,1010,1016,1022,1033,1043,1049,1049,1049,1049,1049,1049,1049,1049,1049,1049,1049,1049,1051,1048,1048,1048,1048,1048,1050,1052,1054,1059],"ymouse":[497,497,497,497,497,497,497,497,497,497,497,497,497,497,497,497,497,497,497,497,497,497,497,497,497,497,497,497,497,496,488,476,463,451,427,414,399,388,378,356,340,325,313,301,279,264,248,226,199,119,64,12,12,12,12,12,12,12,12,12,12,12,12,1,21,31,35,35,35,35,35,35,35],"timestamp_mouse":[11,34,53,72,91,111,132,152,172,191,213,233,252,272,292,311,331,351,372,393,411,433,452,471,491,512,532,552,571,591,612,633,652,671,691,713,731,753,773,793,812,832,852,871,891,911,932,952,972,991,1011,1032,1052,1072,1092,1112,1133,1151,1171,1192,1212,1232,1252,1272,1291,1311,1332,1352,1372,1392,1411,1432,1452],"xSR":741.5,"ySR":449.15000000000003,"xT1":424.9,"yT1":0,"xT2":1058.1,"yT2":0,"toosoon":0,"cond_shown":"equaldotanddens","ratio_trial":750,"smaller_num":"3","larger_num":"4","correct_side":2,"subjID":"samuelalejandromesaortiz","gender":"0","age":"11","school":"6"},{"start_time":1551801470413,"click_time":1551801471522,"finger_time":1551801471181,"fix_duration":290.8311342683061,"trial":71,"RT":768,"MT":341,"sideResp":1,"stimulus":"img/500/equaldotsize/L/7_Ratio_500_L_10_R_5.png","xmouse":[788,788,788,788,788,788,788,788,788,788,788,788,788,788,788,788,788,788,788,788,788,788,788,788,788,788,788,788,788,788,788,788,787,785,777,768,758,747,728,712,697,685,659,648,639,630,619,595,578,568,558,548,517,497,484,476],"ymouse":[508,508,508,508,508,508,508,508,508,508,508,508,508,508,508,508,508,508,508,508,508,508,508,508,508,508,508,508,508,508,508,508,508,507,497,486,474,460,436,418,405,396,377,367,357,343,328,290,262,242,220,199,147,119,100,87],"timestamp_mouse":[10,28,50,69,88,109,128,150,168,189,209,228,248,269,290,308,329,348,368,390,408,428,449,468,488,510,529,548,570,590,610,629,649,669,690,709,728,748,768,789,809,828,849,869,889,909,928,948,968,989,1010,1029,1048,1069,1089,1109],"xSR":741.5,"ySR":449.15000000000003,"xT1":424.9,"yT1":0,"xT2":1058.1,"yT2":0,"toosoon":0,"cond_shown":"equaldotsize","ratio_trial":500,"smaller_num":"5","larger_num":"10","correct_side":1,"subjID":"samuelalejandromesaortiz","gender":"0","age":"11","school":"6"},{"start_time":1551801473987,"click_time":1551801474742,"finger_time":1551801474641,"fix_duration":1483.129374371976,"trial":72,"RT":654,"MT":101,"sideResp":1,"stimulus":"img/250/randomdotsizeEA/L/14_Ratio_250_L_12_R_3.png","xmouse":[792,792,793,793,793,793,793,793,793,793,793,793,793,793,793,793,793,793,793,793,793,793,793,793,793,793