[{"start_time":1551899865672,"click_time":1551899874778,"finger_time":1551899865701,"fix_duration":250,"trial":0,"RT":29,"MT":9077,"sideResp":1,"stimulus":[],"xmouse":[714,714,721,721,721,720,720,720,720,720,720,720,720,720,721,724,726,726,726,724,724,723,721,718,714,714,714,713,713,712,712,712,712,712,712,712,712,712,712,712,712,712,712,712,712,712,712,712,712,711,711,713,726,764,781,792,797,797,797,797,804,821,836,847,867,875,876,876,876,876,872,865,856,828,817,807,802,802,802,802,802,802,802,802,802,802,802,802,802,801,800,799,799,798,797,797,797,797,797,797,796,796,796,796,795,791,788,784,781,781,781,781,781,781,781,781,781,781,781,781,780,780,780,779,779,779,779,779,779,779,779,779,779,779,779,779,779,779,779,779,779,779,779,779,779,779,779,779,779,779,779,779,779,779,779,779,779,779,779,779,779,779,779,779,779,779,779,779,779,779,779,779,779,779,779,779,779,779,779,779,779,779,779,779,779,779,779,779,779,779,779,779,779,779,779,779,779,779,779,779,779,782,786,802,808,811,812,812,812,812,812,812,812,812,812,804,794,783,779,774,774,774,774,773,773,777,781,784,786,787,787,787,787,779,779,779,778,778,779,779,779,777,773,767,765,764,764,764,763,763,763,763,763,763,763,763,763,763,763,763,763,763,763,763,763,763,763,763,763,763,763,763,763,763,763,763,763,763,763,763,763,763,763,763,763,763,763,763,763,763,764,764,764,764,764,764,764,764,764,764,764,764,764,764,764,764,764,764,764,764,764,764,764,764,764,764,764,764,764,764,764,764,764,764,764,764,764,764,764,764,764,764,764,764,764,764,764,764,764,770,791,821,854,887,892,892,892,892,892,882,854,810,747,699,663,663,663,663,663,663,663,663,671,693,706,725,745,760,767,758,753,748,748,747,746,746,746,746,746,746,746,746,746,744,742,739,736,735,735,742,756,772,782,789,790,790,790,790,790,790,790,790,790,790,790,790,790,790,790,790,790,790,790,790,790,790,790,790,790,791,791,791,791,791,791,791,791,791,791,791,797,810,832,852,887,894,894,883,841,750,687,619,580,439,400,370,351,343,340,340,345,358,378,405,448],"ymouse":[849,849,882,878,874,873,873,873,873,873,873,873,872,872,867,864,862,862,862,862,862,861,857,854,851,851,851,851,851,859,860,860,860,860,860,860,860,860,860,860,860,860,860,860,860,860,860,860,860,858,850,839,819,755,715,689,675,671,670,668,659,643,628,607,561,541,531,530,530,530,530,536,546,579,590,594,595,595,595,595,595,595,595,595,595,595,595,595,595,596,597,597,598,599,603,604,604,604,604,604,604,604,604,605,609,616,625,635,640,640,640,640,640,640,640,640,640,640,640,636,631,628,624,620,620,620,620,620,620,620,620,620,620,620,620,620,620,620,620,620,620,620,620,620,620,620,620,620,620,620,620,620,620,620,620,620,620,620,620,620,620,620,620,620,620,620,620,620,620,620,620,620,620,620,620,620,620,620,620,620,620,620,620,620,620,620,620,620,620,620,620,620,620,620,620,620,620,620,620,620,620,615,609,597,593,592,591,591,591,591,591,591,591,591,591,585,576,569,566,563,563,563,563,561,554,541,528,518,513,511,511,511,513,570,630,671,694,705,707,707,707,698,688,674,668,658,647,636,625,625,625,625,625,625,625,625,625,625,625,625,625,625,625,625,625,625,625,625,625,625,625,625,625,625,625,625,625,625,625,625,625,625,625,625,625,625,625,626,626,627,628,628,628,628,628,628,628,628,628,628,628,628,628,628,628,628,628,628,628,628,628,628,628,628,628,628,628,628,628,628,628,628,628,628,628,628,628,628,628,628,628,628,628,628,628,628,628,628,628,623,614,605,595,586,584,584,584,584,584,584,593,616,663,731,814,814,814,814,814,814,814,814,866,825,805,780,750,719,696,648,640,632,631,630,629,629,629,629,629,629,631,633,634,635,638,641,645,647,650,650,649,643,637,631,630,630,630,630,630,630,630,630,630,630,630,630,630,630,630,630,630,630,630,630,630,630,630,630,630,629,629,629,629,629,629,629,629,629,629,629,626,623,616,605,576,560,543,507,409,249,155,62,15,0,0,0,0,0,10,19,29,39,47,51,52],"timestamp_mouse":[29,45,66,86,105,126,146,165,186,206,226,246,265,286,305,327,346,365,385,406,425,447,466,485,506,527,546,566,585,607,625,646,665,687,707,726,745,766,786,807,826,846,865,886,906,925,946,967,986,1006,1026,1045,1065,1086,1105,1126,1145,1166,1186,1206,1226,1246,1266,1286,1305,1325,1345,1367,1386,1406,1426,1446,1466,1486,1505,1527,1546,1566,1585,1605,1626,1645,1667,1686,1705,1727,1747,1766,1786,1805,1826,1847,1865,1886,1906,1926,1946,1967,1987,2005,2027,2046,2065,2086,2106,2126,2145,2165,2187,2206,2226,2246,2267,2287,2305,2327,2346,2365,2386,2405,2426,2447,2466,2486,2506,2525,2545,2567,2586,2606,2625,2647,2667,2686,2706,2725,2746,2766,2787,2806,2827,2846,2866,2885,2905,2926,2946,2967,2987,3005,3027,3047,3067,3086,3105,3127,3147,3167,3186,3206,3226,3246,3267,3287,3306,3326,3347,3366,3386,3406,3427,3447,3466,3486,3506,3527,3546,3566,3586,3607,3627,3647,3665,3685,3705,3726,3745,3765,3786,3805,3825,3846,3866,3887,3906,3926,3945,3966,3987,4007,4026,4046,4067,4086,4105,4126,4147,4166,4186,4205,4225,4246,4266,4286,4306,4326,4346,4366,4386,4405,4426,4446,4466,4486,4505,4526,4545,4565,4585,4605,4627,4646,4667,4686,4705,4725,4746,4766,4786,4805,4826,4846,4865,4886,4906,4926,4945,4967,4986,5005,5026,5047,5066,5086,5105,5127,5146,5165,5187,5206,5225,5246,5267,5287,5305,5327,5345,5366,5387,5406,5425,5446,5466,5486,5505,5527,5547,5565,5586,5605,5625,5645,5667,5687,5705,5725,5747,5767,5786,5805,5827,5847,5866,5887,5906,5925,5946,5967,5987,6005,6025,6047,6065,6085,6105,6126,6147,6166,6186,6207,6225,6247,6265,6285,6306,6325,6346,6365,6386,6406,6426,6446,6465,6486,6505,6526,6546,6566,6586,6606,6625,6646,6665,6686,6705,6725,6747,6766,6786,6806,6826,6846,6866,6886,6905,6925,6947,6966,6987,7007,7025,7045,7065,7085,7106,7125,7145,7165,7186,7206,7226,7246,7265,7286,7305,7326,7347,7365,7385,7406,7425,7446,7467,7485,7506,7526,7547,7565,7586,7606,7625,7645,7665,7686,7706,7726,7745,7766,7786,7805,7826,7846,7867,7886,7906,7926,7946,7966,7987,8006,8027,8047,8066,8087,8107,8127,8145,8166,8186,8207,8226,8246,8267,8287,8307,8326,8347,8367,8386,8406,8426,8447,8465,8485,8506,8527,8545,8567,8587,8606,8625,8647,8666,8685,8706,8727,8746,8765,8786,8805,8825,8846,8867,8886,8905,8926,8945,8966,8986,9006,9026,9045,9066,9085,9105],"xSR":741.5,"ySR":469.95,"xT1":424.9,"yT1":0,"xT2":1058.1,"yT2":0,"toosoon":0,"cond_shown":"Incongruent","ratio_trial":200,"L_num":3,"L_den":10,"R_num":1,"R_den":2,"correct_side":2,"subjID":"samuelalerxanderbarraganfonseca38","gender":"0","age":"12","school":"6","test":{"fix_dur":[250,1500],"timestim":1000,"targets_dim":[100,100],"targets_relative_coord":[0.3,0.7],"size_stim":[880,420],"start_dim":[100,100],"size_start":[300,300],"size_fix":60,"samplingrate":20,"img_types":["Congruent","Incongruent"],"ratios":[100,200,300],"rep_conds":19,"nTrials":120,"trials_to_rest":500,"Trials_order":[3,84,89,99,117,0,1,91,2,47,27,44,13,52,63,111,16,76,92,4,31,73,33,105,53,43,85,17,74,103,118,77,6,70,81,87,29,14,20,26,60,86,21,102,106,93,66,114,42,80,22,5,10,24,30,9,88,119,40,28,115,19,59,51,82,104,94,100,65,15,34,97,32,101,12,46,49,36,56,90,64,37,78,68,54,109,71,83,41,72,39,107,95,110,61,11,7,116,98,69,18,108,113,58,35,112,25,57,8,79,96,38,62,45,48,23,67,55,75,50],"cond_shown":["Incongruent","Congruent","Incongruent","Incongruent","Incongruent","Congruent","Incongruent","Incongruent","Congruent","Incongruent","Incongruent","Congruent","Incongruent","Congruent","Incongruent","Incongruent","Congruent","Congruent","Congruent","Congruent","Incongruent","Incongruent","Incongruent","Incongruent","Incongruent","Incongruent","Incongruent","Incongruent","Congruent","Incongruent","Congruent","Incongruent","Congruent","Congruent","Incongruent","Incongruent","Incongruent","Congruent","Congruent","Congruent","Congruent","Congruent","Incongruent","Congruent","Congruent","Incongruent","Congruent","Congruent","Congruent","Congruent","Congruent","Incongruent","Congruent","Congruent","Congruent","Incongruent","Congruent","Incongruent","Congruent","Congruent","Incongruent","Incongruent","Incongruent","Incongruent","Congruent","Congruent","Congruent","Congruent","Incongruent","Incongruent","Congruent","Incongruent","Congruent","Incongruent","Congruent","Congruent","Incongruent","Congruent","Congruent","Congruent","Congruent","Incongruent","Congruent","Congruent","Congruent","Incongruent","Incongruent","Incongruent","Incongruent","Congruent","Incongruent","Incongruent","Incongruent","Congruent","Incongruent","Incongruent","Incongruent","Congruent","Congruent","Incongruent","Congruent","Congruent","Incongruent","Congruent","Incongruent","Congruent","Incongruent","Incongruent","Congruent","Incongruent","Congruent","Congruent","Congruent","Incongruent","Congruent","Incongruent","Incongruent","Incongruent","Incongruent","Congruent"],"ratio_trial":[200,100,300,200,200,100,100,100,200,300,200,200,100,300,200,200,300,300,200,300,100,100,200,200,300,100,100,300,200,100,300,300,100,300,200,200,300,200,200,200,100,200,200,100,300,200,100,100,100,200,300,300,300,100,100,200,300,300,300,300,100,100,300,200,300,200,300,300,300,200,300,100,200,300,100,300,100,100,200,100,300,100,100,200,100,100,300,300,300,100,200,300,300,200,100,300,100,200,200,200,100,100,300,300,300,300,100,200,200,100,100,200,200,200,100,300,100,100,200,200],"left_num":[3,4,4,7,7,4,3,3,16,13,7,13,10,20,4,7,9,2,8,4,6,8,4,14,4,6,11,4,8,9,8,4,6,9,14,11,4,16,3,3,4,16,3,9,1,7,11,7,9,1,18,2,3,6,2,6,20,3,9,7,8,6,4,3,20,16,3,20,4,9,3,11,3,4,7,1,12,2,6,12,1,11,9,9,3,4,4,4,8,4,3,4,4,1,12,13,6,7,9,7,11,12,4,3,3,4,10,4,3,8,3,3,14,7,3,13,9,13,7,3],"right_num":[1,15,2,14,14,6,11,7,12,12,12,14,8,5,1,12,3,12,7,1,7,1,6,6,2,3,9,2,3,13,1,2,5,3,6,3,8,12,9,7,15,12,1,8,11,4,4,15,8,21,9,6,11,5,11,3,13,4,3,20,1,13,2,11,5,12,11,8,2,8,2,9,14,8,9,7,9,11,7,13,3,9,8,13,4,8,2,2,14,6,1,2,2,21,9,12,11,2,4,6,6,13,2,11,4,2,8,14,11,1,4,9,6,12,2,12,20,6,4,14],"left_den":[10,10,20,10,10,8,5,9,20,26,10,26,25,25,30,10,10,10,15,10,10,20,5,30,20,12,22,20,15,15,16,20,20,10,30,20,5,20,12,10,10,20,10,15,5,15,22,14,15,2,20,4,12,20,5,20,25,6,10,14,20,10,20,4,25,20,12,25,20,15,6,22,6,5,14,20,24,5,12,30,5,22,15,30,20,8,20,20,10,8,10,20,20,2,24,26,10,21,20,15,22,30,20,12,6,5,25,6,10,20,20,12,28,10,6,26,10,26,15,10],"right_den":[2,30,4,28,28,10,22,30,20,15,24,20,16,10,3,24,5,24,21,10,14,2,10,9,4,5,15,4,9,26,5,4,25,5,9,4,16,20,20,14,30,20,2,16,22,6,10,25,16,30,15,30,20,25,22,6,26,20,5,25,2,26,4,20,10,20,20,16,4,10,10,15,20,16,15,20,15,22,10,26,6,15,16,26,16,20,4,4,28,10,2,4,4,30,15,15,22,15,16,9,15,26,4,20,20,4,16,30,22,2,16,20,20,24,5,15,25,10,6,28],"correct_side":[2,2,2,1,1,2,1,1,1,2,1,2,2,1,2,1,1,2,1,1,1,2,1,2,2,2,2,2,1,1,1,2,1,1,2,2,1,1,2,2,2,1,2,1,2,2,1,2,1,2,1,1,2,1,2,2,1,1,1,2,2,1,2,1,1,1,2,1,2,2,1,2,2,1,2,2,2,2,2,2,2,2,1,2,2,1,2,2,1,2,2,2,2,2,2,2,1,1,1,2,1,2,2,2,1,1,2,1,2,2,2,2,1,1,1,2,1,2,2,2],"img_shown":["img2/200/Incongruent/R/I_Dist_200_LN_3_LD_10_RN_1_RD_2_1.png","img2/100/Congruent/R/C_Dist_100_LN_4_LD_10_RN_15_RD_30_1.png","img2/300/Incongruent/R/I_Dist_300_LN_4_LD_20_RN_2_RD_4_1.png","img2/200/Incongruent/L/I_Dist_200_LN_7_LD_10_RN_14_RD_28_0.png","img2/200/Incongruent/L/I_Dist_200_LN_7_LD_10_RN_14_RD_28_0.png","img2/100/Congruent/R/C_Dist_100_LN_4_LD_8_RN_6_RD_10_1.png","img2/100/Incongruent/L/I_Dist_100_LN_3_LD_5_RN_11_RD_22_0.png","img2/100/Incongruent/L/I_Dist_100_LN_3_LD_9_RN_7_RD_30_0.png","img2/200/Congruent/L/C_Dist_200_LN_16_LD_20_RN_12_RD_20_0.png","img2/300/Incongruent/R/I_Dist_300_LN_13_LD_26_RN_12_RD_15_1.png","img2/200/Incongruent/L/I_Dist_200_LN_7_LD_10_RN_12_RD_24_0.png","img2/200/Congruent/R/C_Dist_200_LN_13_LD_26_RN_14_RD_20_1.png","img2/100/Incongruent/R/I_Dist_100_LN_10_LD_25_RN_8_RD_16_1.png","img2/300/Congruent/L/C_Dist_300_LN_20_LD_25_RN_5_RD_10_0.png","img2/200/Incongruent/R/I_Dist_200_LN_4_LD_30_RN_1_RD_3_1.png","img2/200/Incongruent/L/I_Dist_200_LN_7_LD_10_RN_12_RD_24_0.png","img2/300/Congruent/L/C_Dist_300_LN_9_LD_10_RN_3_RD_5_0.png","img2/300/Congruent/R/C_Dist_300_LN_2_LD_10_RN_12_RD_24_1.png","img2/200/Congruent/L/C_Dist_200_LN_8_LD_15_RN_7_RD_21_0.png","img2/300/Congruent/L/C_Dist_300_LN_4_LD_10_RN_1_RD_10_0.png","img2/100/Incongruent/L/I_Dist_100_LN_6_LD_10_RN_7_RD_14_0.png","img2/100/Incongruent/R/I_Dist_100_LN_8_LD_20_RN_1_RD_2_1.png","img2/200/Incongruent/L/I_Dist_200_LN_4_LD_5_RN_6_RD_10_0.png","img2/200/Incongruent/R/I_Dist_200_LN_14_LD_30_RN_6_RD_9_1.png","img2/300/Incongruent/R/I_Dist_300_LN_4_LD_20_RN_2_RD_4_1.png","img2/100/Incongruent/R/I_Dist_100_LN_6_LD_12_RN_3_RD_5_1.png","img2/100/Incongruent/R/I_Dist_100_LN_11_LD_22_RN_9_RD_15_1.png","img2/300/Incongruent/R/I_Dist_300_LN_4_LD_20_RN_2_RD_4_1.png","img2/200/Congruent/L/C_Dist_200_LN_8_LD_15_RN_3_RD_9_0.png","img2/100/Incongruent/L/I_Dist_100_LN_9_LD_15_RN_13_RD_26_0.png","img2/300/Congruent/L/C_Dist_300_LN_8_LD_16_RN_1_RD_5_0.png","img2/300/Incongruent/R/I_Dist_300_LN_4_LD_20_RN_2_RD_4_1.png","img2/100/Congruent/L/C_Dist_100_LN_6_LD_20_RN_5_RD_25_0.png","img2/300/Congruent/L/C_Dist_300_LN_9_LD_10_RN_3_RD_5_0.png","img2/200/Incongruent/R/I_Dist_200_LN_14_LD_30_RN_6_RD_9_1.png","img2/200/Incongruent/R/I_Dist_200_LN_11_LD_20_RN_3_RD_4_1.png","img2/300/Incongruent/L/I_Dist_300_LN_4_LD_5_RN_8_RD_16_0.png","img2/200/Congruent/L/C_Dist_200_LN_16_LD_20_RN_12_RD_20_0.png","img2/200/Congruent/R/C_Dist_200_LN_3_LD_12_RN_9_RD_20_1.png","img2/200/Congruent/R/C_Dist_200_LN_3_LD_10_RN_7_RD_14_1.png","img2/100/Congruent/R/C_Dist_100_LN_4_LD_10_RN_15_RD_30_1.png","img2/200/Congruent/L/C_Dist_200_LN_16_LD_20_RN_12_RD_20_0.png","img2/200/Incongruent/R/I_Dist_200_LN_3_LD_10_RN_1_RD_2_1.png","img2/100/Congruent/L/C_Dist_100_LN_9_LD_15_RN_8_RD_16_0.png","img2/300/Congruent/R/C_Dist_300_LN_1_LD_5_RN_11_RD_22_1.png","img2/200/Incongruent/R/I_Dist_200_LN_7_LD_15_RN_4_RD_6_1.png","img2/100/Congruent/L/C_Dist_100_LN_11_LD_22_RN_4_RD_10_0.png","img2/100/Congruent/R/C_Dist_100_LN_7_LD_14_RN_15_RD_25_1.png","img2/100/Congruent/L/C_Dist_100_LN_9_LD_15_RN_8_RD_16_0.png","img2/200/Congruent/R/C_Dist_200_LN_1_LD_2_RN_21_RD_30_1.png","img2/300/Congruent/L/C_Dist_300_LN_18_LD_20_RN_9_RD_15_0.png","img2/300/Incongruent/L/I_Dist_300_LN_2_LD_4_RN_6_RD_30_0.png","img2/300/Congruent/R/C_Dist_300_LN_3_LD_12_RN_11_RD_20_1.png","img2/100/Congruent/L/C_Dist_100_LN_6_LD_20_RN_5_RD_25_0.png","img2/100/Congruent/R/C_Dist_100_LN_2_LD_5_RN_11_RD_22_1.png","img2/200/Incongruent/R/I_Dist_200_LN_6_LD_20_RN_3_RD_6_1.png","img2/300/Congruent/L/C_Dist_300_LN_20_LD_25_RN_13_RD_26_0.png","img2/300/Incongruent/L/I_Dist_300_LN_3_LD_6_RN_4_RD_20_0.png","img2/300/Congruent/L/C_Dist_300_LN_9_LD_10_RN_3_RD_5_0.png","img2/300/Congruent/R/C_Dist_300_LN_7_LD_14_RN_20_RD_25_1.png","img2/100/Incongruent/R/I_Dist_100_LN_8_LD_20_RN_1_RD_2_1.png","img2/100/Incongruent/L/I_Dist_100_LN_6_LD_10_RN_13_RD_26_0.png","img2/300/Incongruent/R/I_Dist_300_LN_4_LD_20_RN_2_RD_4_1.png","img2/200/Incongruent/L/I_Dist_200_LN_3_LD_4_RN_11_RD_20_0.png","img2/300/Congruent/L/C_Dist_300_LN_20_LD_25_RN_5_RD_10_0.png","img2/200/Congruent/L/C_Dist_200_LN_16_LD_20_RN_12_RD_20_0.png","img2/300/Congruent/R/C_Dist_300_LN_3_LD_12_RN_11_RD_20_1.png","img2/300/Congruent/L/C_Dist_300_LN_20_LD_25_RN_8_RD_16_0.png","img2/300/Incongruent/R/I_Dist_300_LN_4_LD_20_RN_2_RD_4_1.png","img2/200/Incongruent/R/I_Dist_200_LN_9_LD_15_RN_8_RD_10_1.png","img2/300/Congruent/L/C_Dist_300_LN_3_LD_6_RN_2_RD_10_0.png","img2/100/Incongruent/R/I_Dist_100_LN_11_LD_22_RN_9_RD_15_1.png","img2/200/Congruent/R/C_Dist_200_LN_3_LD_6_RN_14_RD_20_1.png","img2/300/Incongruent/L/I_Dist_300_LN_4_LD_5_RN_8_RD_16_0.png","img2/100/Congruent/R/C_Dist_100_LN_7_LD_14_RN_9_RD_15_1.png","img2/300/Congruent/R/C_Dist_300_LN_1_LD_20_RN_7_RD_20_1.png","img2/100/Incongruent/R/I_Dist_100_LN_12_LD_24_RN_9_RD_15_1.png","img2/100/Congruent/R/C_Dist_100_LN_2_LD_5_RN_11_RD_22_1.png","img2/200/Congruent/R/C_Dist_200_LN_6_LD_12_RN_7_RD_10_1.png","img2/100/Congruent/R/C_Dist_100_LN_12_LD_30_RN_13_RD_26_1.png","img2/300/Congruent/R/C_Dist_300_LN_1_LD_5_RN_3_RD_6_1.png","img2/100/Incongruent/R/I_Dist_100_LN_11_LD_22_RN_9_RD_15_1.png","img2/100/Congruent/L/C_Dist_100_LN_9_LD_15_RN_8_RD_16_0.png","img2/200/Congruent/R/C_Dist_200_LN_9_LD_30_RN_13_RD_26_1.png","img2/100/Congruent/R/C_Dist_100_LN_3_LD_20_RN_4_RD_16_1.png","img2/100/Incongruent/L/I_Dist_100_LN_4_LD_8_RN_8_RD_20_0.png","img2/300/Incongruent/R/I_Dist_300_LN_4_LD_20_RN_2_RD_4_1.png","img2/300/Incongruent/R/I_Dist_300_LN_4_LD_20_RN_2_RD_4_1.png","img2/300/Incongruent/L/I_Dist_300_LN_8_LD_10_RN_14_RD_28_0.png","img2/100/Congruent/R/C_Dist_100_LN_4_LD_8_RN_6_RD_10_1.png","img2/200/Incongruent/R/I_Dist_200_LN_3_LD_10_RN_1_RD_2_1.png","img2/300/Incongruent/R/I_Dist_300_LN_4_LD_20_RN_2_RD_4_1.png","img2/300/Incongruent/R/I_Dist_300_LN_4_LD_20_RN_2_RD_4_1.png","img2/200/Congruent/R/C_Dist_200_LN_1_LD_2_RN_21_RD_30_1.png","img2/100/Incongruent/R/I_Dist_100_LN_12_LD_24_RN_9_RD_15_1.png","img2/300/Incongruent/R/I_Dist_300_LN_13_LD_26_RN_12_RD_15_1.png","img2/100/Incongruent/L/I_Dist_100_LN_6_LD_10_RN_11_RD_22_0.png","img2/200/Congruent/L/C_Dist_200_LN_7_LD_21_RN_2_RD_15_0.png","img2/200/Congruent/L/C_Dist_200_LN_9_LD_20_RN_4_RD_16_0.png","img2/200/Incongruent/R/I_Dist_200_LN_7_LD_15_RN_6_RD_9_1.png","img2/100/Congruent/L/C_Dist_100_LN_11_LD_22_RN_6_RD_15_0.png","img2/100/Congruent/R/C_Dist_100_LN_12_LD_30_RN_13_RD_26_1.png","img2/300/Incongruent/R/I_Dist_300_LN_4_LD_20_RN_2_RD_4_1.png","img2/300/Congruent/R/C_Dist_300_LN_3_LD_12_RN_11_RD_20_1.png","img2/300/Incongruent/L/I_Dist_300_LN_3_LD_6_RN_4_RD_20_0.png","img2/300/Congruent/L/C_Dist_300_LN_4_LD_5_RN_2_RD_4_0.png","img2/100/Incongruent/R/I_Dist_100_LN_10_LD_25_RN_8_RD_16_1.png","img2/200/Incongruent/L/I_Dist_200_LN_4_LD_6_RN_14_RD_30_0.png","img2/200/Congruent/R/C_Dist_200_LN_3_LD_10_RN_11_RD_22_1.png","img2/100/Incongruent/R/I_Dist_100_LN_8_LD_20_RN_1_RD_2_1.png","img2/100/Congruent/R/C_Dist_100_LN_3_LD_20_RN_4_RD_16_1.png","img2/200/Congruent/R/C_Dist_200_LN_3_LD_12_RN_9_RD_20_1.png","img2/200/Congruent/L/C_Dist_200_LN_14_LD_28_RN_6_RD_20_0.png","img2/200/Incongruent/L/I_Dist_200_LN_7_LD_10_RN_12_RD_24_0.png","img2/100/Congruent/L/C_Dist_100_LN_3_LD_6_RN_2_RD_5_0.png","img2/300/Incongruent/R/I_Dist_300_LN_13_LD_26_RN_12_RD_15_1.png","img2/100/Incongruent/L/I_Dist_100_LN_9_LD_10_RN_20_RD_25_0.png","img2/100/Incongruent/R/I_Dist_100_LN_13_LD_26_RN_6_RD_10_1.png","img2/200/Incongruent/R/I_Dist_200_LN_7_LD_15_RN_4_RD_6_1.png","img2/200/Congruent/R/C_Dist_200_LN_3_LD_10_RN_14_RD_28_1.png"],"dist100_C":[["C_Dist_100_LN_10_LD_25_RN_3_RD_10_0.png","C_Dist_100_LN_11_LD_22_RN_4_RD_10_0.png","C_Dist_100_LN_11_LD_22_RN_6_RD_15_0.png","C_Dist_100_LN_15_LD_25_RN_13_RD_26_0.png","C_Dist_100_LN_3_LD_6_RN_2_RD_5_0.png","C_Dist_100_LN_6_LD_20_RN_5_RD_25_0.png","C_Dist_100_LN_8_LD_16_RN_2_RD_5_0.png","C_Dist_100_LN_9_LD_15_RN_8_RD_16_0.png"],["C_Dist_100_LN_1_LD_2_RN_18_RD_30_1.png","C_Dist_100_LN_1_LD_2_RN_3_RD_5_1.png","C_Dist_100_LN_12_LD_30_RN_13_RD_26_1.png","C_Dist_100_LN_2_LD_5_RN_11_RD_22_1.png","C_Dist_100_LN_2_LD_5_RN_6_RD_12_1.png","C_Dist_100_LN_3_LD_20_RN_4_RD_16_1.png","C_Dist_100_LN_4_LD_10_RN_15_RD_30_1.png","C_Dist_100_LN_4_LD_8_RN_6_RD_10_1.png","C_Dist_100_LN_6_LD_12_RN_15_RD_25_1.png","C_Dist_100_LN_7_LD_14_RN_15_RD_25_1.png","C_Dist_100_LN_7_LD_14_RN_9_RD_15_1.png"]],"dist100_I":[["I_Dist_100_LN_1_LD_2_RN_8_RD_20_0.png","I_Dist_100_LN_2_LD_4_RN_6_RD_15_0.png","I_Dist_100_LN_2_LD_4_RN_8_RD_20_0.png","I_Dist_100_LN_3_LD_5_RN_11_RD_22_0.png","I_Dist_100_LN_3_LD_5_RN_8_RD_16_0.png","I_Dist_100_LN_3_LD_6_RN_4_RD_10_0.png","I_Dist_100_LN_3_LD_9_RN_7_RD_30_0.png","I_Dist_100_LN_4_LD_8_RN_8_RD_20_0.png","I_Dist_100_LN_6_LD_10_RN_11_RD_22_0.png","I_Dist_100_LN_6_LD_10_RN_13_RD_26_0.png","I_Dist_100_LN_6_LD_10_RN_7_RD_14_0.png","I_Dist_100_LN_9_LD_10_RN_20_RD_25_0.png","I_Dist_100_LN_9_LD_15_RN_13_RD_26_0.png","I_Dist_100_LN_9_LD_15_RN_14_RD_28_0.png"],["I_Dist_100_LN_10_LD_25_RN_8_RD_16_1.png","I_Dist_100_LN_10_LD_25_RN_9_RD_18_1.png","I_Dist_100_LN_11_LD_22_RN_9_RD_15_1.png","I_Dist_100_LN_12_LD_24_RN_9_RD_15_1.png","I_Dist_100_LN_12_LD_30_RN_2_RD_4_1.png","I_Dist_100_LN_13_LD_26_RN_12_RD_20_1.png","I_Dist_100_LN_13_LD_26_RN_6_RD_10_1.png","I_Dist_100_LN_17_LD_30_RN_10_RD_15_1.png","I_Dist_100_LN_6_LD_12_RN_3_RD_5_1.png","I_Dist_100_LN_8_LD_16_RN_6_RD_10_1.png","I_Dist_100_LN_8_LD_20_RN_1_RD_2_1.png","I_Dist_100_LN_9_LD_18_RN_6_RD_10_1.png"]],"dist100_S":[["E_Dist_100_LN_2_LD_12_RN_2_RD_30_0.png","E_Dist_100_LN_6_LD_10_RN_6_RD_12_0.png"],["E_Dist_100_LN_6_LD_12_RN_6_RD_10_1.png"]],"dist200_C":[["C_Dist_200_LN_11_LD_22_RN_3_RD_10_0.png","C_Dist_200_LN_12_LD_15_RN_6_RD_10_0.png","C_Dist_200_LN_12_LD_20_RN_6_RD_15_0.png","C_Dist_200_LN_14_LD_28_RN_6_RD_20_0.png","C_Dist_200_LN_15_LD_25_RN_4_RD_10_0.png","C_Dist_200_LN_16_LD_20_RN_12_RD_20_0.png","C_Dist_200_LN_16_LD_30_RN_9_RD_27_0.png","C_Dist_200_LN_20_LD_25_RN_9_RD_15_0.png","C_Dist_200_LN_21_LD_30_RN_2_RD_4_0.png","C_Dist_200_LN_4_LD_10_RN_3_RD_15_0.png","C_Dist_200_LN_4_LD_8_RN_3_RD_10_0.png","C_Dist_200_LN_6_LD_15_RN_3_RD_15_0.png","C_Dist_200_LN_7_LD_21_RN_2_RD_15_0.png","C_Dist_200_LN_8_LD_15_RN_2_RD_6_0.png","C_Dist_200_LN_8_LD_15_RN_3_RD_9_0.png","C_Dist_200_LN_8_LD_15_RN_7_RD_21_0.png","C_Dist_200_LN_9_LD_20_RN_4_RD_16_0.png"],["C_Dist_200_LN_1_LD_2_RN_21_RD_30_1.png","C_Dist_200_LN_13_LD_26_RN_14_RD_20_1.png","C_Dist_200_LN_3_LD_10_RN_11_RD_22_1.png","C_Dist_200_LN_3_LD_10_RN_14_RD_28_1.png","C_Dist_200_LN_3_LD_10_RN_7_RD_14_1.png","C_Dist_200_LN_3_LD_12_RN_9_RD_20_1.png","C_Dist_200_LN_3_LD_6_RN_14_RD_20_1.png","C_Dist_200_LN_5_LD_10_RN_14_RD_20_1.png","C_Dist_200_LN_6_LD_12_RN_7_RD_10_1.png","C_Dist_200_LN_6_LD_20_RN_11_RD_22_1.png","C_Dist_200_LN_7_LD_15_RN_18_RD_27_1.png","C_Dist_200_LN_9_LD_30_RN_13_RD_26_1.png"]],"dist200_I":[["I_Dist_200_LN_1_LD_2_RN_3_RD_10_0.png","I_Dist_200_LN_1_LD_3_RN_2_RD_15_0.png","I_Dist_200_LN_3_LD_4_RN_11_RD_20_0.png","I_Dist_200_LN_4_LD_5_RN_6_RD_10_0.png","I_Dist_200_LN_4_LD_6_RN_14_RD_30_0.png","I_Dist_200_LN_7_LD_10_RN_12_RD_24_0.png","I_Dist_200_LN_7_LD_10_RN_14_RD_28_0.png","I_Dist_200_LN_7_LD_10_RN_8_RD_16_0.png"],["I_Dist_200_LN_11_LD_20_RN_3_RD_4_1.png","I_Dist_200_LN_14_LD_30_RN_12_RD_18_1.png","I_Dist_200_LN_14_LD_30_RN_6_RD_9_1.png","I_Dist_200_LN_3_LD_10_RN_1_RD_2_1.png","I_Dist_200_LN_4_LD_30_RN_1_RD_3_1.png","I_Dist_200_LN_6_LD_20_RN_3_RD_6_1.png","I_Dist_200_LN_7_LD_15_RN_4_RD_6_1.png","I_Dist_200_LN_7_LD_15_RN_6_RD_9_1.png","I_Dist_200_LN_9_LD_15_RN_8_RD_10_1.png"]],"dist200_S":[["E_Dist_200_LN_3_LD_6_RN_3_RD_10_0.png"],["E_Dist_200_LN_3_LD_10_RN_3_RD_6_1.png"]],"dist300_C":[["C_Dist_300_LN_11_LD_22_RN_1_RD_5_0.png","C_Dist_300_LN_11_LD_22_RN_2_RD_10_0.png","C_Dist_300_LN_11_LD_22_RN_4_RD_20_0.png","C_Dist_300_LN_12_LD_24_RN_2_RD_10_0.png","C_Dist_300_LN_18_LD_20_RN_9_RD_15_0.png","C_Dist_300_LN_20_LD_25_RN_13_RD_26_0.png","C_Dist_300_LN_20_LD_25_RN_14_RD_28_0.png","C_Dist_300_LN_20_LD_25_RN_5_RD_10_0.png","C_Dist_300_LN_20_LD_25_RN_8_RD_16_0.png","C_Dist_300_LN_20_LD_25_RN_9_RD_18_0.png","C_Dist_300_LN_24_LD_30_RN_2_RD_4_0.png","C_Dist_300_LN_24_LD_30_RN_8_RD_16_0.png","C_Dist_300_LN_3_LD_6_RN_2_RD_10_0.png","C_Dist_300_LN_4_LD_10_RN_1_RD_10_0.png","C_Dist_300_LN_4_LD_5_RN_2_RD_4_0.png","C_Dist_300_LN_8_LD_16_RN_1_RD_5_0.png","C_Dist_300_LN_9_LD_10_RN_3_RD_5_0.png"],["C_Dist_300_LN_1_LD_20_RN_7_RD_20_1.png","C_Dist_300_LN_1_LD_3_RN_19_RD_30_1.png","C_Dist_300_LN_1_LD_30_RN_8_RD_24_1.png","C_Dist_300_LN_1_LD_5_RN_11_RD_22_1.png","C_Dist_300_LN_1_LD_5_RN_3_RD_6_1.png","C_Dist_300_LN_1_LD_5_RN_6_RD_12_1.png","C_Dist_300_LN_2_LD_10_RN_12_RD_24_1.png","C_Dist_300_LN_2_LD_20_RN_10_RD_25_1.png","C_Dist_300_LN_3_LD_12_RN_11_RD_20_1.png","C_Dist_300_LN_3_LD_6_RN_4_RD_5_1.png","C_Dist_300_LN_4_LD_20_RN_13_RD_26_1.png","C_Dist_300_LN_5_LD_25_RN_6_RD_12_1.png","C_Dist_300_LN_5_LD_25_RN_7_RD_14_1.png","C_Dist_300_LN_7_LD_14_RN_20_RD_25_1.png","C_Dist_300_LN_8_LD_15_RN_10_RD_12_1.png"]],"dist300_I":[["I_Dist_300_LN_1_LD_2_RN_2_RD_10_0.png","I_Dist_300_LN_1_LD_2_RN_3_RD_15_0.png","I_Dist_300_LN_2_LD_4_RN_6_RD_30_0.png","I_Dist_300_LN_3_LD_6_RN_4_RD_20_0.png","I_Dist_300_LN_4_LD_5_RN_6_RD_12_0.png","I_Dist_300_LN_4_LD_5_RN_8_RD_16_0.png","I_Dist_300_LN_7_LD_10_RN_8_RD_20_0.png","I_Dist_300_LN_8_LD_10_RN_14_RD_28_0.png","I_Dist_300_LN_8_LD_10_RN_9_RD_18_0.png"],["I_Dist_300_LN_13_LD_26_RN_12_RD_15_1.png","I_Dist_300_LN_4_LD_20_RN_2_RD_4_1.png"]],"dist300_S":[["E_Dist_300_LN_9_LD_12_RN_9_RD_20_0.png"],["E_Dist_300_LN_18_LD_30_RN_18_RD_20_1.png","E_Dist_300_LN_3_LD_10_RN_3_RD_5_1.png","E_Dist_300_LN_9_LD_20_RN_9_RD_12_1.png"]],"dist500_C":[["C_Dist_500_LN_10_LD_13_RN_7_RD_26_0.png","C_Dist_500_LN_10_LD_15_RN_4_RD_24_0.png","C_Dist_500_LN_12_LD_16_RN_3_RD_12_0.png","C_Dist_500_LN_12_LD_18_RN_4_RD_24_0.png","C_Dist_500_LN_15_LD_18_RN_5_RD_15_0.png","C_Dist_500_LN_15_LD_20_RN_1_RD_4_0.png","C_Dist_500_LN_18_LD_27_RN_1_RD_6_0.png","C_Dist_500_LN_20_LD_24_RN_1_RD_3_0.png","C_Dist_500_LN_20_LD_24_RN_3_RD_9_0.png","C_Dist_500_LN_20_LD_24_RN_7_RD_21_0.png","C_Dist_500_LN_20_LD_28_RN_3_RD_14_0.png","C_Dist_500_LN_21_LD_28_RN_6_RD_24_0.png","C_Dist_500_LN_22_LD_28_RN_2_RD_7_0.png","C_Dist_500_LN_25_LD_30_RN_9_RD_27_0.png","C_Dist_500_LN_4_LD_6_RN_1_RD_6_0.png","C_Dist_500_LN_5_LD_6_RN_2_RD_6_0.png","C_Dist_500_LN_6_LD_9_RN_1_RD_6_0.png","C_Dist_500_LN_7_LD_10_RN_1_RD_5_0.png","C_Dist_500_LN_8_LD_12_RN_1_RD_6_0.png","C_Dist_500_LN_8_LD_12_RN_4_RD_24_0.png"],["C_Dist_500_LN_1_LD_4_RN_12_RD_16_1.png","C_Dist_500_LN_1_LD_4_RN_9_RD_12_1.png","C_Dist_500_LN_1_LD_9_RN_11_RD_18_1.png","C_Dist_500_LN_10_LD_24_RN_22_RD_24_1.png","C_Dist_500_LN_2_LD_12_RN_10_RD_15_1.png","C_Dist_500_LN_2_LD_12_RN_12_RD_18_1.png","C_Dist_500_LN_2_LD_12_RN_4_RD_6_1.png","C_Dist_500_LN_2_LD_24_RN_7_RD_12_1.png","C_Dist_500_LN_2_LD_5_RN_18_RD_20_1.png","C_Dist_500_LN_2_LD_5_RN_9_RD_10_1.png","C_Dist_500_LN_2_LD_8_RN_12_RD_16_1.png","C_Dist_500_LN_2_LD_8_RN_21_RD_28_1.png","C_Dist_500_LN_3_LD_10_RN_4_RD_5_1.png","C_Dist_500_LN_3_LD_12_RN_15_RD_20_1.png","C_Dist_500_LN_3_LD_30_RN_6_RD_10_1.png","C_Dist_500_LN_3_LD_8_RN_14_RD_16_1.png","C_Dist_500_LN_4_LD_16_RN_15_RD_20_1.png","C_Dist_500_LN_4_LD_24_RN_12_RD_18_1.png","C_Dist_500_LN_5_LD_14_RN_6_RD_7_1.png","C_Dist_500_LN_7_LD_21_RN_20_RD_24_1.png","C_Dist_500_LN_7_LD_28_RN_12_RD_16_1.png","C_Dist_500_LN_7_LD_28_RN_9_RD_12_1.png","C_Dist_500_LN_9_LD_27_RN_20_RD_24_1.png"]],"dist500_I":[["I_Dist_500_LN_2_LD_3_RN_4_RD_24_0.png","I_Dist_500_LN_5_LD_6_RN_6_RD_18_0.png","I_Dist_500_LN_7_LD_8_RN_9_RD_24_0.png"],["I_Dist_500_LN_7_LD_21_RN_5_RD_6_1.png"]],"dist500_S":[["E_Dist_500_LN_6_LD_8_RN_6_RD_24_0.png"],["E_Dist_500_LN_2_LD_12_RN_2_RD_3_1.png","E_Dist_500_LN_6_LD_24_RN_6_RD_8_1.png"]]}},{"start_time":1551899876954,"click_time":1551899883458,"finger_time":1551899876991,"fix_duration":1095.6693587231284,"trial":1,"RT":37,"MT":6467,"sideResp":2,"stimulus":[],"xmouse":[787,794,794,781,772,770,770,770,776,789,811,816,818,819,819,819,819,819,819,819,819,814,810,804,797,788,788,788,788,788,788,788,788,788,788,788,791,793,793,793,793,793,793,793,793,793,793,793,793,793,793,793,793,793,793,793,793,793,793,793,793,793,793,793,793,793,793,793,793,793,793,793,793,793,793,793,793,793,793,793,793,793,793,793,793,793,793,793,793,793,793,793,793,793,793,793,793,793,793,793,793,793,793,793,793,793,793,793,793,793,793,793,793,793,793,793,793,793,793,793,793,793,793,793,793,793,794,795,796,796,796,796,796,796,796,796,796,796,796,796,796,796,796,796,796,796,796,796,796,796,796,796,796,796,796,796,796,796,788,769,734,621,572,556,547,545,552,553,553,547,532,513,500,484,467,400,379,369,367,367,389,408,423,434,438,441,441,442,446,452,475,493,512,530,550,563,580,584,586,588,614,642,690,753,813,871,958,975,986,991,994,994,985,969,950,920,813,724,651,616,607,609,621,642,663,691,691,691,691,691,697,705,712,720,724,729,749,751,752,752,746,745,745,745,745,745,745,744,744,743,743,743,743,743,758,785,810,812,812,812,812,812,812,812,812,812,811,809,809,809,809,807,801,793,787,783,783,783,783,783,783,783,783,783,783,783,783,783,783,783,781,781,781,781,781,782,812,836,848,856,869,873,881,888,902,907,927,931,932,937,948,982,1004,1020,1038,1046,1052,1053,1053,1053,1055,1055,1055,1055,1055,1060],"ymouse":[586,552,552,492,475,469,469,470,485,503,535,543,548,550,551,551,551,551,552,554,559,578,590,603,613,625,625,625,625,625,625,625,625,625,625,625,624,622,622,622,622,622,622,622,622,622,622,622,622,622,622,622,622,622,622,622,622,623,624,626,627,628,628,628,628,628,628,628,628,628,628,628,628,628,628,628,628,628,628,628,628,628,628,628,627,627,627,627,627,627,627,627,627,627,625,625,625,625,625,625,625,625,625,625,623,616,611,604,594,585,569,565,564,564,564,564,566,567,567,567,567,567,567,567,567,567,577,586,591,592,592,592,592,592,592,592,592,592,592,592,592,592,592,592,593,593,593,593,593,593,593,593,593,593,593,593,593,593,591,584,577,558,543,532,522,502,442,425,411,399,364,296,250,193,130,17,6,6,14,36,81,96,104,113,124,165,184,204,223,250,330,393,453,508,566,610,668,676,680,682,674,655,626,593,568,548,533,534,539,542,551,559,573,587,599,608,615,605,597,590,581,571,561,556,552,544,543,543,543,543,546,556,569,585,600,621,657,659,658,653,634,630,628,627,626,626,626,625,625,625,625,625,625,625,619,608,597,596,596,596,596,596,595,594,592,592,592,594,596,596,596,596,596,596,596,596,597,600,603,604,605,605,605,605,605,606,606,606,608,609,611,611,611,611,611,605,537,475,429,402,362,349,332,315,290,281,250,244,241,234,220,181,153,131,101,82,56,48,37,22,0,0,0,0,0,2],"timestamp_mouse":[3,37,43,64,84,104,124,143,165,184,203,223,244,263,285,304,325,344,364,383,403,424,444,464,484,503,524,544,565,584,605,623,643,664,684,704,723,743,765,784,805,825,844,864,884,904,923,944,965,983,1003,1024,1044,1065,1084,1104,1123,1143,1164,1184,1204,1225,1244,1265,1283,1305,1323,1345,1365,1385,1404,1424,1443,1463,1485,1505,1524,1545,1563,1585,1604,1623,1643,1663,1685,1704,1724,1744,1765,1784,1804,1823,1843,1864,1884,1905,1923,1944,1964,1984,2004,2023,2045,2063,2085,2104,2125,2144,2164,2184,2204,2223,2243,2265,2284,2304,2323,2343,2364,2385,2404,2424,2444,2464,2484,2504,2523,2543,2563,2583,2604,2624,2645,2665,2683,2705,2723,2744,2765,2784,2805,2823,2844,2863,2884,2904,2924,2944,2964,2984,3005,3023,3045,3064,3084,3104,3124,3144,3163,3183,3205,3224,3245,3263,3284,3304,3323,3344,3363,3383,3403,3424,3444,3463,3484,3504,3523,3543,3564,3584,3604,3623,3644,3664,3684,3704,3724,3744,3763,3784,3804,3823,3844,3864,3883,3903,3923,3943,3964,3985,4004,4023,4044,4064,4084,4104,4123,4143,4165,4185,4203,4223,4244,4264,4283,4303,4324,4343,4364,4385,4404,4423,4444,4463,4484,4504,4523,4543,4564,4584,4605,4623,4645,4663,4684,4703,4724,4744,4765,4784,4804,4823,4844,4864,4884,4904,4925,4943,4964,4984,5004,5024,5044,5063,5084,5104,5123,5145,5164,5184,5205,5224,5243,5264,5284,5303,5325,5344,5364,5383,5404,5424,5445,5463,5483,5505,5524,5543,5564,5584,5603,5624,5643,5665,5685,5703,5723,5744,5764,5783,5804,5824,5844,5864,5883,5904,5924,5943,5964,5984,6004,6023,6043,6064,6083,6103,6125,6144,6163,6183,6204,6223,6244,6263,6284,6304,6324,6344,6364,6384,6404,6423,6444,6463,6484,6503],"xSR":741.5,"ySR":573.95,"xT1":424.9,"yT1":0,"xT2":1058.1,"yT2":0,"toosoon":0,"cond_shown":"Congruent","ratio_trial":100,"L_num":4,"L_den":10,"R_num":15,"R_den":30,"correct_side":2,"subjID":"samuelalerxanderbarraganfonseca38","gender":"0","school":"6","age":"12"},{"start_time":1551899887314,"click_time":1551899889679,"finger_time":1551899889097,"fix_duration":655.5181190461046,"trial":2,"RT":1783,"MT":582,"sideResp":2,"stimulus":[],"xmouse":[789,789,789,786,786,785,784,784,784,784,784,784,784,784,784,784,784,784,784,784,784,784,784,784,784,784,784,784,784,784,784,784,784,784,784,784,784,784,784,784,784,784,784,784,784,784,784,784,784,784,784,784,784,784,784,784,784,784,784,784,784,784,784,784,784,784,784,784,784,784,784,784,784,784,784,784,784,784,784,784,784,784,786,789,792,794,797,803,807,814,819,824,827,838,846,857,873,904,910,922,933,946,962,987,1001,1011,1020,1027,1048,1064,1076,1082,1083,1083,1083,1083,1083,1083,1086],"ymouse":[633,633,633,629,629,628,627,627,627,627,627,627,627,627,627,627,627,627,627,627,627,627,627,627,627,627,627,627,627,627,627,627,627,627,627,627,627,627,627,627,627,627,627,627,627,627,627,627,627,627,627,627,627,627,627,627,627,627,627,627,627,627,627,627,627,627,627,627,627,627,627,627,627,627,627,627,627,627,627,627,627,627,616,607,599,594,590,581,574,564,556,549,543,523,509,491,470,424,415,399,379,350,315,237,190,155,125,84,9,0,0,0,0,0,0,0,0,0,7],"timestamp_mouse":[11,25,44,65,83,103,124,145,165,184,205,225,243,263,285,304,323,345,364,384,405,423,444,465,483,505,523,545,563,584,605,623,643,663,685,704,724,744,764,784,804,823,844,863,885,903,925,943,963,984,1003,1024,1044,1064,1085,1104,1125,1143,1163,1184,1205,1225,1243,1263,1285,1305,1323,1343,1364,1384,1405,1423,1443,1464,1484,1504,1524,1544,1564,1583,1604,1623,1643,1663,1684,1703,1724,1744,1763,1783,1805,1823,1844,1863,1885,1904,1924,1944,1963,1983,2003,2023,2044,2063,2085,2104,2123,2144,2164,2183,2203,2223,2243,2264,2284,2303,2324,2344,2364],"xSR":741.5,"ySR":573.95,"xT1":424.9,"yT1":0,"xT2":1058.1,"yT2":0,"toosoon":0,"cond_shown":"Incongruent","ratio_trial":300,"L_num":4,"L_den":20,"R_num":2,"R_den":4,"correct_side":2,"subjID":"samuelalerxanderbarraganfonseca38","gender":"0","school":"6","age":"12"},{"start_time":1551899891648,"click_time":1551899893558,"finger_time":1551899892878,"fix_duration":567.1342958446021,"trial":3,"RT":1230,"MT":680,"sideResp":1,"stimulus":[],"xmouse":[789,790,792,802,812,815,815,815,815,815,815,815,815,815,815,814,814,814,814,814,814,812,810,809,809,808,807,806,806,806,805,803,803,803,803,803,803,800,800,800,800,800,800,800,800,800,800,800,800,800,799,799,799,799,799,798,791,780,768,758,748,725,713,701,689,679,665,663,662,660,646,637,632,628,624,613,606,600,595,589,568,550,534,519,509,497,495,493,493,492,489,487,487,485,479,475],"ymouse":[643,644,644,652,664,668,668,668,668,668,668,668,668,668,668,669,669,669,669,669,669,665,663,661,660,660,657,656,655,654,654,652,652,652,652,652,652,652,652,652,652,652,652,652,652,652,652,652,652,652,652,652,652,652,652,652,647,634,621,610,598,564,545,528,512,497,478,476,472,468,444,430,422,414,408,388,380,372,364,355,317,286,257,229,207,178,173,168,165,161,151,143,136,123,108,92],"timestamp_mouse":[11,41,49,70,89,110,130,149,171,191,210,230,249,271,289,309,330,349,370,390,409,429,449,471,490,509,530,553,570,590,609,629,651,669,691,711,729,749,770,791,809,830,851,871,889,909,931,951,971,990,1011,1030,1051,1069,1090,1110,1129,1150,1170,1191,1210,1230,1249,1270,1290,1310,1329,1349,1370,1390,1410,1429,1449,1470,1489,1510,1529,1551,1570,1591,1610,1630,1650,1669,1690,1710,1729,1750,1769,1790,1810,1830,1849,1870,1889,1909],"xSR":741.5,"ySR":573.95,"xT1":424.9,"yT1":0,"xT2":1058.1,"yT2":0,"toosoon":0,"cond_shown":"Incongruent","ratio_trial":200,"L_num":7,"L_den":10,"R_num":14,"R_den":28,"correct_side":1,"subjID":"samuelalerxanderbarraganfonseca38","gender":"0","school":"6","age":"12"},{"start_time":1551899894811,"click_time":1551899896358,"finger_time":1551899895738,"fix_duration":250,"trial":4,"RT":927,"MT":620,"sideResp":1,"stimulus":[],"xmouse":[771,771,771,771,771,770,769,769,769,769,769,768,767,767,767,767,767,767,767,767,766,766,766,766,766,766,766,766,764,764,764,764,764,763,760,758,757,757,757,757,757,757,757,753,749,743,735,726,708,697,688,679,665,650,642,633,623,609,588,580,575,570,565,553,548,543,537,526,521,516,509,506,505,503,499,489,478,450],"ymouse":[639,639,639,639,638,636,634,632,631,631,631,630,628,628,628,628,628,628,628,627,626,624,624,624,624,624,624,623,618,617,617,617,617,617,617,617,617,618,618,618,618,618,618,607,597,581,565,544,501,484,469,456,434,410,397,382,361,336,281,256,238,227,215,196,188,179,169,150,143,134,126,122,122,121,117,111,104,86],"timestamp_mouse":[8,27,46,66,86,108,127,146,166,186,208,227,247,267,286,308,328,348,366,387,406,428,448,467,487,508,527,547,566,587,608,628,647,667,686,707,727,748,767,788,807,828,846,866,886,907,927,946,966,987,1007,1028,1047,1066,1086,1107,1126,1146,1168,1186,1206,1226,1246,1266,1286,1307,1327,1347,1366,1386,1407,1426,1447,1467,1486,1507,1526,1547],"xSR":741.5,"ySR":573.95,"xT1":424.9,"yT1":0,"xT2":1058.1,"yT2":0,"toosoon":0,"cond_shown":"Incongruent","ratio_trial":200,"L_num":7,"L_den":10,"R_num":14,"R_den":28,"correct_side":1,"subjID":"samuelalerxanderbarraganfonseca38","gender":"0","school":"6","age":"12"},{"start_time":1551899898718,"click_time":1551899900977,"finger_time":1551899900438,"fix_duration":840.013490986459,"trial":5,"RT":1720,"MT":539,"sideResp":2,"stimulus":[],"xmouse":[766,766,766,766,766,766,766,766,766,766,766,766,766,766,766,766,766,766,766,766,766,766,766,766,766,766,766,766,766,766,766,766,766,766,766,766,766,766,766,766,766,766,766,766,766,766,766,766,766,766,766,766,766,766,766,766,766,766,766,766,766,766,766,766,766,766,766,765,765,765,765,765,764,763,762,762,762,763,764,764,764,765,771,786,807,830,852,858,859,862,864,867,872,876,882,885,895,898,900,902,904,909,912,917,926,944,997,1008,1019,1028,1038,1057,1062],"ymouse":[601,600,599,599,599,599,599,599,599,599,599,599,599,599,599,599,599,599,600,601,601,601,601,603,604,605,605,606,607,608,609,609,609,609,610,610,611,611,612,612,612,612,612,612,612,612,612,612,612,612,612,612,613,613,613,613,613,613,613,613,613,613,613,613,613,613,613,613,613,613,615,617,618,619,619,620,621,623,624,625,625,625,623,607,590,573,558,553,550,541,531,521,499,485,467,451,410,399,385,375,365,346,330,307,276,240,148,124,102,80,57,18,6],"timestamp_mouse":[22,41,59,80,101,121,140,160,179,199,221,241,259,281,299,320,340,361,380,400,420,440,460,480,500,519,541,560,581,601,619,640,661,681,700,720,739,760,779,800,819,841,861,879,901,921,940,960,981,999,1019,1040,1060,1079,1100,1119,1140,1159,1181,1201,1219,1240,1259,1280,1301,1320,1340,1359,1379,1401,1419,1440,1459,1480,1499,1520,1540,1560,1579,1600,1621,1640,1659,1680,1700,1720,1740,1760,1779,1800,1820,1839,1859,1879,1900,1920,1940,1959,1979,1999,2019,2040,2060,2080,2100,2121,2140,2159,2179,2200,2220,2240,2259],"xSR":741.5,"ySR":573.95,"xT1":424.9,"yT1":0,"xT2":1058.1,"yT2":0,"toosoon":0,"cond_shown":"Congruent","ratio_trial":100,"L_num":4,"L_den":8,"R_num":6,"R_den":10,"correct_side":2,"subjID":"samuelalerxanderbarraganfonseca38","gender":"0","school":"6","age":"12"},{"start_time":1551899903766,"click_time":1551899905737,"finger_time":1551899904958,"fix_duration":1486.6682478375258,"trial":6,"RT":1192,"MT":779,"sideResp":1,"stimulus":[],"xmouse":[806,806,806,806,806,806,806,806,806,806,806,806,806,806,806,806,806,806,806,806,806,806,806,806,806,806,806,806,806,806,806,806,806,806,806,806,806,806,806,806,806,806,806,806,806,806,806,806,806,806,806,806,806,806,806,804,798,783,765,714,697,681,670,663,639,632,624,620,617,610,608,603,599,596,593,585,581,575,568,558,543,538,531,525,515,512,510,510,510,510,510,510,510,510,503,498,493,488,483],"ymouse":[607,607,607,607,607,607,607,607,607,607,607,607,607,607,607,607,607,607,607,607,607,607,607,607,607,607,607,607,607,607,607,607,607,607,607,607,607,607,607,607,607,607,607,607,607,607,607,607,607,607,607,607,607,607,607,607,604,596,582,545,529,514,503,492,459,447,433,425,417,403,396,387,378,370,365,351,343,327,310,287,242,221,201,182,146,141,137,137,136,136,136,136,136,135,121,114,109,101,90],"timestamp_mouse":[13,40,52,73,92,112,132,152,172,192,211,232,253,272,293,313,333,351,373,392,412,432,452,473,491,512,533,551,572,593,611,633,653,673,692,713,733,751,771,793,811,832,853,873,893,912,932,952,973,992,1012,1032,1053,1071,1092,1111,1131,1153,1172,1192,1211,1231,1252,1272,1292,1311,1332,1352,1372,1392,1411,1432,1451,1471,1491,1512,1531,1551,1572,1593,1611,1632,1652,1671,1692,1711,1733,1752,1771,1792,1811,1831,1852,1872,1892,1912,1931,1951,1971],"xSR":741.5,"ySR":573.95,"xT1":424.9,"yT1":0,"xT2":1058.1,"yT2":0,"toosoon":0,"cond_shown":"Incongruent","ratio_trial":100,"L_num":3,"L_den":5,"R_num":11,"R_den":22,"correct_side":1,"subjID":"samuelalerxanderbarraganfonseca38","gender":"0","school":"6","age":"12"},{"start_time":1551899907946,"click_time":1551899909259,"finger_time":1551899908797,"fix_duration":926.7230495792694,"trial":7,"RT":851,"MT":462,"sideResp":1,"stimulus":[],"xmouse":[771,771,771,771,771,771,771,771,771,771,771,771,771,771,771,771,771,771,771,771,771,771,771,771,771,771,771,771,771,771,771,771,771,771,771,771,771,771,771,771,756,747,732,698,671,641,631,616,601,587,565,555,546,534,525,516,505,503,501,497,493,483,478,471,467,455],"ymouse":[654,654,654,654,654,654,654,654,654,654,654,654,654,654,654,654,654,654,654,654,654,654,654,654,654,654,654,654,654,654,654,654,654,654,654,654,654,654,654,654,636,624,597,543,482,410,385,360,340,324,297,285,273,258,247,234,222,219,216,211,206,186,173,155,137,97],"timestamp_mouse":[12,34,52,72,92,112,131,152,173,191,212,232,253,271,292,313,332,353,371,392,413,432,451,472,491,513,533,552,571,593,613,633,652,672,692,712,731,752,773,791,812,831,851,872,892,912,932,951,972,992,1014,1032,1051,1071,1092,1111,1133,1151,1172,1192,1211,1231,1253,1272,1291,1312],"xSR":741.5,"ySR":573.95,"xT1":424.9,"yT1":0,"xT2":1058.1,"yT2":0,"toosoon":0,"cond_shown":"Incongruent","ratio_trial":100,"L_num":3,"L_den":9,"R_num":7,"R_den":30,"correct_side":1,"subjID":"samuelalerxanderbarraganfonseca38","gender":"0","school":"6","age":"12"},{"start_time":1551899913383,"click_time":1551899914718,"finger_time":1551899914217,"fix_duration":943.2539815768299,"trial":8,"RT":834,"MT":501,"sideResp":2,"stimulus":[],"xmouse":[769,769,768,768,767,767,767,767,767,768,769,770,770,770,770,770,770,770,770,770,770,770,770,770,770,770,770,770,770,770,770,770,770,770,770,770,770,770,772,777,785,852,889,1104,1163,1187,1198,1204,1209,1211,1216,1219,1222,1223,1223,1223,1223,1223,1223,1222,1208,1203,1199,1195,1179,1166,1151],"ymouse":[652,652,651,648,646,645,644,643,641,640,638,638,638,638,638,638,638,638,638,638,638,638,638,638,638,638,638,638,638,638,638,638,638,638,638,638,638,638,627,608,575,441,392,165,93,55,31,19,3,0,0,0,0,0,0,0,0,0,0,0,2,3,6,11,30,37,41],"timestamp_mouse":[18,34,54,75,94,114,136,155,174,194,215,234,255,276,295,314,334,354,375,396,415,434,455,476,495,516,534,554,576,595,615,634,655,676,694,715,736,756,775,794,815,834,855,875,895,914,934,954,975,994,1014,1035,1055,1075,1094,1114,1135,1155,1174,1195,1216,1234,1254,1275,1294,1315,1335],"xSR":741.5,"ySR":573.95,"xT1":424.9,"yT1":0,"xT2":1058.1,"yT2":0,"toosoon":0,"cond_shown":"Congruent","ratio_trial":200,"L_num":16,"L_den":20,"R_num":12,"R_den":20,"correct_side":1,"subjID":"samuelalerxanderbarraganfonseca38","gender":"0","school":"6","age":"12"},{"start_time":1551899919103,"click_time":1551899920738,"finger_time":1551899920138,"fix_duration":1303.3891221041363,"trial":9,"RT":1035,"MT":600,"sideResp":2,"stimulus":[],"xmouse":[783,783,783,783,783,783,783,783,783,783,783,783,783,783,783,783,783,783,783,783,783,783,783,783,783,783,783,783,783,783,783,783,783,783,783,783,782,782,782,782,782,782,782,782,782,782,782,783,805,816,829,840,865,881,918,998,1132,1173,1281,1289,1292,1292,1291,1291,1291,1291,1291,1290,1278,1266,1253,1241,1231,1223,1220,1220,1220,1208,1196,1180,1160,1141],"ymouse":[613,613,613,613,613,613,613,613,613,613,613,613,613,613,613,613,613,613,613,613,613,613,613,613,613,613,613,613,613,613,613,613,613,613,613,613,620,621,623,623,623,623,623,623,623,623,624,624,603,590,575,562,525,502,436,338,168,106,0,0,0,0,0,0,0,0,0,0,0,0,1,5,7,10,11,11,11,14,18,24,32,40],"timestamp_mouse":[15,39,55,76,94,115,136,155,175,196,215,236,255,274,296,314,335,355,375,395,414,434,454,475,495,514,536,554,574,595,616,635,655,676,694,714,734,754,776,796,814,836,855,875,895,915,935,954,975,994,1015,1035,1055,1074,1095,1114,1134,1154,1174,1195,1216,1234,1255,1276,1295,1315,1335,1354,1375,1394,1414,1435,1454,1474,1495,1516,1535,1555,1574,1594,1614,1635],"xSR":741.5,"ySR":573.95,"xT1":424.9,"yT1":0,"xT2":1058.1,"yT2":0,"toosoon":0,"cond_shown":"Incongruent","ratio_trial":300,"L_num":13,"L_den":26,"R_num":12,"R_den":15,"correct_side":2,"subjID":"samuelalerxanderbarraganfonseca38","gender":"0","school":"6","age":"12"},{"start_time":1551899923949,"click_time":1551899925777,"finger_time":1551899924957,"fix_duration":250,"trial":10,"RT":1008,"MT":820,"sideResp":1,"stimulus":[],"xmouse":[787,787,787,787,787,787,787,787,787,787,787,787,787,787,787,787,787,787,787,787,787,787,787,787,787,787,787,787,787,787,787,787,787,787,787,787,787,787,787,787,787,787,787,787,787,787,787,787,779,774,762,732,718,703,687,615,585,556,527,500,471,419,402,388,373,364,364,364,360,356,355,355,355,356,359,361,370,377,384,391,402,409,412,413,414,414,414,414,414,414,417,430],"ymouse":[609,609,609,609,609,609,609,609,609,609,609,609,609,609,609,609,609,609,609,609,609,609,609,609,609,609,609,609,609,609,609,609,609,609,609,609,609,609,609,609,609,609,609,609,609,609,609,609,600,589,565,521,500,479,455,292,212,137,62,0,0,0,0,0,0,0,0,0,0,1,6,7,11,15,20,24,32,35,37,38,42,44,45,45,45,45,45,45,45,45,46,47],"timestamp_mouse":[11,40,49,70,88,109,129,149,169,188,209,229,250,268,290,308,329,350,370,388,410,428,448,470,488,508,529,549,569,590,608,630,648,669,690,710,728,749,770,789,810,829,849,870,888,907,927,949,968,988,1008,1028,1048,1068,1089,1108,1127,1147,1168,1188,1207,1228,1249,1268,1289,1308,1327,1347,1367,1387,1408,1428,1447,1468,1488,1507,1527,1548,1569,1588,1608,1627,1648,1668,1689,1708,1728,1748,1768,1788,1807,1828],"xSR":741.5,"ySR":573.95,"xT1":424.9,"yT1":0,"xT2":1058.1,"yT2":0,"toosoon":0,"cond_shown":"Incongruent","ratio_trial":200,"L_num":7,"L_den":10,"R_num":12,"R_den":24,"correct_side":1,"subjID":"samuelalerxanderbarraganfonseca38","gender":"0","school":"6","age":"12"},{"start_time":1551899929544,"click_time":1551899931776,"finger_time":1551899931416,"fix_duration":864.5535875619719,"trial":11,"RT":1872,"MT":360,"sideResp":2,"stimulus":[],"xmouse":[766,766,766,766,766,766,766,766,766,766,766,766,766,766,766,766,766,766,766,766,766,766,766,766,766,766,766,766,766,766,766,766,766,766,766,766,766,766,766,766,766,766,766,766,766,766,766,766,766,766,766,766,766,766,766,766,766,766,766,766,766,766,766,766,766,766,766,766,766,766,766,766,766,766,766,766,766,766,766,766,766,766,766,766,766,766,766,766,766,766,766,767,768,771,774,780,785,788,790,793,831,876,930,998,1013,1039,1043,1048,1054,1062,1080,1086],"ymouse":[625,625,625,625,625,625,625,625,625,625,625,625,625,625,625,625,625,625,625,625,625,625,625,625,625,625,625,625,625,625,625,625,625,625,625,625,625,625,625,625,625,625,625,625,625,625,625,625,625,625,625,625,625,625,625,625,625,625,625,625,625,625,625,625,625,625,625,625,625,625,625,625,625,625,625,625,625,625,625,625,625,625,625,625,625,625,625,623,620,615,601,590,579,570,560,544,531,526,521,514,458,405,345,264,241,187,175,164,152,137,106,94],"timestamp_mouse":[12,34,53,74,92,113,132,153,174,194,213,233,254,273,294,313,333,354,373,393,414,433,453,472,492,514,534,554,573,592,613,632,652,673,694,712,732,753,774,794,812,833,854,872,893,914,933,954,973,994,1013,1032,1053,1072,1093,1112,1134,1154,1172,1194,1212,1233,1253,1273,1293,1314,1334,1354,1373,1393,1413,1433,1453,1472,1492,1513,1534,1552,1574,1594,1612,1633,1653,1674,1693,1713,1732,1752,1772,1793,1813,1832,1852,1872,1893,1912,1933,1953,1974,1993,2013,2032,2052,2073,2094,2113,2133,2152,2172,2193,2213,2232],"xSR":741.5,"ySR":573.95,"xT1":424.9,"yT1":0,"xT2":1058.1,"yT2":0,"toosoon":0,"cond_shown":"Congruent","ratio_trial":200,"L_num":13,"L_den":26,"R_num":14,"R_den":20,"correct_side":2,"subjID":"samuelalerxanderbarraganfonseca38","gender":"0","school":"6","age":"12"},{"start_time":1551899936264,"click_time":1551899937257,"finger_time":1551899937057,"fix_duration":1465.0818462497887,"trial":12,"RT":793,"MT":200,"sideResp":2,"stimulus":[],"xmouse":[794,794,794,794,794,794,794,794,794,794,792,792,792,792,792,792,792,792,792,792,790,790,790,790,790,790,790,790,790,790,790,790,790,790,790,790,790,790,791,818,836,849,855,859,895,951,1018,1081,1123,1154],"ymouse":[611,611,611,611,611,611,611,611,611,611,615,615,615,615,615,615,615,615,617,619,626,626,626,626,626,626,626,626,626,626,626,626,626,626,626,626,626,626,618,572,549,534,525,513,452,370,288,205,136,55],"timestamp_mouse":[13,41,52,72,92,114,132,153,173,194,214,232,254,274,294,312,334,352,374,392,412,434,453,473,494,513,532,554,574,594,612,633,654,674,693,714,732,752,774,793,812,832,854,873,893,913,934,953,974,993],"xSR":741.5,"ySR":573.95,"xT1":424.9,"yT1":0,"xT2":1058.1,"yT2":0,"toosoon":0,"cond_shown":"Incongruent","ratio_trial":100,"L_num":10,"L_den":25,"R_num":8,"R_den":16,"correct_side":2,"subjID":"samuelalerxanderbarraganfonseca38","gender":"0","school":"6","age":"12"},{"start_time":1551899940015,"click_time":1551899941857,"finger_time":1551899940857,"fix_duration":757.9830733988094,"trial":13,"RT":842,"MT":1000,"sideResp":2,"stimulus":[],"xmouse":[801,801,801,801,801,801,801,801,801,801,801,801,801,801,800,800,799,798,797,797,797,797,797,797,797,797,797,797,797,797,797,796,796,796,796,796,796,796,796,796,796,798,820,833,850,872,903,972,993,1001,1003,1003,1008,1010,1012,1013,1017,1020,1033,1041,1047,1051,1057,1058,1058,1058,1057,1057,1057,1057,1057,1057,1057,1057,1057,1057,1057,1057,1057,1057,1057,1057,1057,1057,1057,1057,1057,1057,1057,1057,1058,1058,1060],"ymouse":[599,599,599,599,599,599,599,599,599,599,599,599,599,599,599,598,595,592,591,591,591,591,591,591,591,591,591,591,592,595,596,597,597,597,597,597,597,597,597,597,597,588,549,527,498,461,410,309,279,264,259,256,237,232,228,223,216,205,174,152,129,105,57,46,39,36,33,33,33,33,33,33,33,33,33,33,33,33,33,33,33,33,33,33,33,33,33,33,33,36,39,44,52],"timestamp_mouse":[10,22,43,62,82,102,122,142,162,183,203,222,241,261,281,302,322,342,363,383,401,422,443,463,483,503,522,543,561,582,602,623,643,662,682,703,722,742,762,781,801,821,842,861,881,903,921,942,961,981,1002,1023,1042,1061,1081,1102,1122,1142,1163,1182,1201,1222,1242,1261,1282,1302,1322,1343,1362,1382,1402,1421,1442,1461,1482,1502,1523,1542,1562,1582,1603,1622,1642,1662,1681,1703,1722,1742,1762,1782,1802,1822,1842],"xSR":741.5,"ySR":573.95,"xT1":424.9,"yT1":0,"xT2":1058.1,"yT2":0,"toosoon":0,"cond_shown":"Congruent","ratio_trial":300,"L_num":20,"L_den":25,"R_num":5,"R_den":10,"correct_side":1,"subjID":"samuelalerxanderbarraganfonseca38","gender":"0","school":"6","age":"12"},{"start_time":1551899943548,"click_time":1551899945057,"finger_time":1551899944377,"fix_duration":250,"trial":14,"RT":829,"MT":680,"sideResp":2,"stimulus":[],"xmouse":[783,783,783,783,783,783,783,783,783,783,782,782,782,782,782,782,782,782,782,782,782,782,782,782,782,782,782,782,782,782,782,782,782,782,782,782,782,782,785,790,829,859,886,914,931,947,967,970,970,971,973,974,975,977,979,985,998,1006,1015,1023,1055,1071,1078,1078,1078,1078,1078,1078,1078,1078,1078,1079,1082,1086,1090,1101],"ymouse":[656,656,656,656,656,656,656,656,656,656,656,656,655,655,655,655,655,655,655,655,655,655,655,655,655,655,655,655,655,655,655,654,654,654,654,654,654,649,645,638,601,580,561,539,522,502,470,466,464,461,451,446,440,433,426,404,362,338,313,281,196,159,141,140,140,140,140,140,140,140,139,137,129,116,101,66],"timestamp_mouse":[9,39,48,69,88,109,128,150,169,189,208,229,248,269,290,310,328,350,370,389,409,429,448,470,489,509,530,549,569,589,610,628,650,668,690,708,729,749,769,789,809,829,849,868,888,909,929,948,969,988,1011,1028,1048,1069,1089,1109,1129,1148,1169,1189,1209,1228,1248,1269,1289,1308,1329,1349,1368,1389,1410,1429,1448,1468,1489,1509],"xSR":741.5,"ySR":573.95,"xT1":424.9,"yT1":0,"xT2":1058.1,"yT2":0,"toosoon":0,"cond_shown":"Incongruent","ratio_trial":200,"L_num":4,"L_den":30,"R_num":1,"R_den":3,"correct_side":2,"subjID":"samuelalerxanderbarraganfonseca38","gender":"0","school":"6","age":"12"},{"start_time":1551899949286,"click_time":1551899950837,"finger_time":1551899950237,"fix_duration":1108.55490218974,"trial":15,"RT":951,"MT":600,"sideResp":1,"stimulus":[],"xmouse":[796,796,796,796,796,796,796,796,796,796,796,796,796,796,796,796,796,796,796,796,796,796,796,796,796,796,796,796,796,796,796,796,796,796,796,796,796,796,796,796,796,796,796,796,796,793,789,775,759,745,737,727,716,691,678,668,661,654,640,633,625,613,602,576,561,548,536,527,516,512,509,506,505,502,500,499,498,497],"ymouse":[607,607,607,607,607,607,607,607,607,607,607,607,607,607,607,607,607,607,607,607,607,607,607,607,607,607,607,607,607,607,607,607,607,607,607,607,607,607,607,607,607,607,607,607,607,607,596,564,526,493,476,459,442,400,380,363,347,333,305,294,280,260,240,202,182,165,149,138,125,120,118,115,113,108,107,104,101,99],"timestamp_mouse":[11,38,52,71,90,112,132,150,171,191,210,231,251,271,292,311,331,351,371,391,411,432,451,470,490,511,532,552,570,591,612,631,651,670,693,712,730,752,770,790,810,832,850,871,890,911,931,951,970,991,1010,1030,1051,1071,1090,1110,1130,1151,1171,1191,1210,1230,1251,1271,1290,1310,1331,1352,1371,1390,1411,1432,1452,1471,1490,1511,1531,1551],"xSR":741.5,"ySR":573.95,"xT1":424.9,"yT1":0,"xT2":1058.1,"yT2":0,"toosoon":0,"cond_shown":"Incongruent","ratio_trial":200,"L_num":7,"L_den":10,"R_num":12,"R_den":24,"correct_side":1,"subjID":"samuelalerxanderbarraganfonseca38","gender":"0","school":"6","age":"12"},{"start_time":1551899955885,"click_time":1551899957496,"finger_time":1551899956918,"fix_duration":1066.3964763533472,"trial":16,"RT":1033,"MT":578,"sideResp":2,"stimulus":[],"xmouse":[763,763,763,763,768,776,780,781,781,781,781,781,781,781,781,781,781,781,781,781,781,781,781,781,781,781,781,781,781,781,781,781,781,781,781,781,781,782,783,785,785,785,785,785,785,785,785,785,785,787,789,797,805,824,839,861,881,901,919,933,937,941,945,956,962,972,981,990,1002,1003,1005,1010,1017,1032,1032,1032,1032,1032,1034,1043,1075],"ymouse":[625,625,625,625,625,625,623,623,623,623,623,623,623,623,623,623,623,623,623,623,623,623,623,623,623,623,623,623,623,623,623,623,623,623,623,623,623,623,621,606,603,603,603,603,603,603,600,598,590,585,577,563,542,494,449,400,354,309,257,212,193,175,160,129,116,100,86,72,58,56,56,56,56,56,56,56,56,56,56,55,54],"timestamp_mouse":[13,36,52,72,92,112,131,152,173,192,213,233,252,273,291,312,332,353,372,393,412,432,451,473,492,513,533,552,571,593,613,631,651,673,693,712,733,752,771,793,812,832,851,872,893,912,932,952,972,991,1011,1033,1052,1072,1092,1112,1131,1153,1172,1192,1211,1232,1251,1272,1291,1312,1332,1352,1372,1391,1413,1433,1452,1472,1492,1511,1533,1553,1572,1591,1611],"xSR":741.5,"ySR":573.95,"xT1":424.9,"yT1":0,"xT2":1058.1,"yT2":0,"toosoon":0,"cond_shown":"Congruent","ratio_trial":300,"L_num":9,"L_den":10,"R_num":3,"R_den":5,"correct_side":1,"subjID":"samuelalerxanderbarraganfonseca38","gender":"0","school":"6","age":"12"},{"start_time":1551899962873,"click_time":1551899964896,"finger_time":1551899964717,"fix_duration":1434.2385405617706,"trial":17,"RT":1844,"MT":179,"sideResp":1,"stimulus":[],"xmouse":[779,779,779,779,779,779,779,779,779,779,779,779,779,779,779,779,779,779,779,779,779,779,779,779,779,779,779,779,779,779,779,779,779,779,779,779,779,777,775,770,763,763,763,763,763,763,763,763,763,763,763,763,763,763,763,763,763,764,765,767,771,773,777,782,786,786,786,786,786,786,786,786,785,785,783,781,781,781,781,781,781,781,781,781,781,781,781,781,780,780,775,770,765,760,755,742,733,718,698,611,550,490],"ymouse":[620,620,620,620,620,620,620,620,620,620,620,620,620,620,620,620,620,620,620,620,620,620,620,620,620,620,620,620,620,620,620,620,620,620,620,620,620,622,625,628,633,633,633,633,633,633,633,633,633,633,633,633,633,633,632,631,631,631,630,630,629,629,628,627,627,627,627,627,627,627,627,627,627,627,627,627,627,627,627,627,627,627,627,627,627,627,627,627,625,621,598,585,573,563,550,518,492,455,395,201,102,10],"timestamp_mouse":[11,34,43,65,83,104,125,143,164,184,203,225,243,265,285,305,336,344,364,384,404,423,444,465,483,503,525,545,565,583,604,624,645,665,684,704,725,743,763,784,803,825,845,863,884,904,925,943,964,984,1004,1024,1043,1065,1085,1103,1124,1144,1164,1183,1203,1223,1244,1264,1284,1303,1324,1343,1364,1385,1405,1425,1445,1464,1483,1504,1524,1544,1565,1583,1603,1624,1645,1663,1683,1703,1725,1743,1765,1784,1805,1824,1844,1863,1883,1904,1923,1943,1964,1984,2003,2023],"xSR":741.5,"ySR":573.95,"xT1":424.9,"yT1":0,"xT2":1058.1,"yT2":0,"toosoon":0,"cond_shown":"Congruent","ratio_trial":300,"L_num":2,"L_den":10,"R_num":12,"R_den":24,"correct_side":2,"subjID":"samuelalerxanderbarraganfonseca38","gender":"0","school":"6","age":"12"},{"start_time":1551899969484,"click_time":1551899971577,"finger_time":1551899971076,"fix_duration":1426.0412661692583,"trial":18,"RT":1592,"MT":501,"sideResp":2,"stimulus":[],"xmouse":[794,794,794,794,794,794,794,794,794,794,794,794,794,794,794,794,794,794,794,794,794,794,794,794,794,794,794,794,794,794,794,794,794,794,794,794,794,794,794,794,794,794,794,794,794,794,794,794,794,794,794,794,794,794,794,794,794,794,794,794,792,790,789,789,789,789,789,789,789,788,786,785,784,784,784,784,783,784,809,825,842,856,869,940,986,1047,1130,1153,1219,1228,1233,1235,1235,1235,1235,1235,1235,1235,1234,1224,1211,1193,1174,1160,1154],"ymouse":[625,625,625,625,625,625,625,625,625,625,625,625,625,625,625,625,625,625,625,625,625,625,625,625,625,625,625,625,625,625,625,625,625,625,625,625,625,625,625,625,625,625,625,625,625,625,625,625,625,625,625,625,625,625,625,625,625,625,625,625,625,625,626,626,626,626,626,626,626,626,626,626,627,627,627,627,625,618,579,561,543,530,518,428,374,304,192,157,21,0,0,0,0,0,0,0,0,0,0,0,1,6,13,18,20],"timestamp_mouse":[12,32,52,73,92,112,132,152,173,193,214,232,253,274,292,314,332,353,374,394,412,434,452,474,493,514,534,554,572,593,612,633,653,673,693,714,734,753,774,793,814,832,854,874,892,914,933,952,972,993,1014,1033,1052,1073,1094,1112,1133,1153,1173,1194,1212,1232,1253,1273,1292,1313,1333,1353,1372,1392,1412,1434,1454,1474,1493,1513,1533,1554,1573,1592,1612,1634,1653,1673,1692,1712,1732,1754,1773,1793,1812,1832,1852,1873,1893,1913,1932,1952,1973,1992,2013,2033,2053,2072,2092],"xSR":741.5,"ySR":573.95,"xT1":424.9,"yT1":0,"xT2":1058.1,"yT2":0,"toosoon":0,"cond_shown":"Congruent","ratio_trial":200,"L_num":8,"L_den":15,"R_num":7,"R_den":21,"correct_side":1,"subjID":"samuelalerxanderbarraganfonseca38","gender":"0","school":"6","age":"12"},{"start_time":1551899973991,"click_time":1551899975718,"finger_time":1551899975496,"fix_duration":1413.283789748043,"trial":19,"RT":1505,"MT":222,"sideResp":1,"stimulus":[],"xmouse":[790,789,789,786,786,786,786,786,786,786,786,786,786,786,786,786,786,786,786,786,786,786,786,786,786,786,786,786,786,785,785,785,785,784,783,781,781,779,778,778,778,778,778,778,778,778,778,778,778,778,778,778,778,778,778,778,779,782,800,805,806,807,808,809,809,809,809,809,809,808,807,806,803,801,759,732,709,690,664,655,643,626,605,564,549,534,520],"ymouse":[599,598,598,587,587,587,587,587,587,587,587,587,587,587,587,587,587,587,587,587,587,587,587,587,587,587,587,587,587,587,587,587,587,587,590,594,597,602,608,608,608,608,608,608,608,608,608,608,608,608,608,608,608,608,608,608,611,612,612,611,610,610,609,609,609,609,609,609,609,609,609,609,610,610,578,546,508,472,417,396,369,329,279,187,152,119,87],"timestamp_mouse":[10,34,45,65,85,105,126,146,166,185,207,225,247,267,285,306,326,347,365,387,407,426,446,465,485,507,527,546,566,586,606,626,647,665,687,705,726,746,766,787,805,826,845,867,887,905,927,947,966,987,1007,1026,1045,1065,1086,1106,1127,1146,1165,1185,1206,1226,1246,1266,1287,1306,1326,1346,1366,1386,1406,1427,1447,1465,1485,1505,1527,1546,1566,1585,1606,1626,1646,1666,1685,1705,1727],"xSR":741.5,"ySR":573.95,"xT1":424.9,"yT1":0,"xT2":1058.1,"yT2":0,"toosoon":0,"cond_shown":"Congruent","ratio_trial":300,"L_num":4,"L_den":10,"R_num":1,"R_den":10,"correct_side":1,"subjID":"samuelalerxanderbarraganfonseca38","gender":"0","school":"6","age":"12"},{"start_time":1551899978266,"click_time":1551899979837,"finger_time":1551899979577,"fix_duration":1307.3225971116851,"trial":20,"RT":1311,"MT":260,"sideResp":1,"stimulus":[],"xmouse":[785,785,785,785,783,779,779,779,779,779,779,779,779,779,779,779,779,779,779,779,779,779,779,779,779,779,779,778,778,778,778,778,778,778,778,778,778,778,778,780,785,791,795,798,798,798,798,798,798,795,784,783,782,782,782,780,779,776,775,773,773,773,773,772,761,751,734,720,705,685,670,663,653,631,604,540,511,484,458],"ymouse":[636,636,636,636,631,628,628,628,628,628,628,628,628,628,628,628,628,628,628,628,628,628,628,628,628,628,628,627,627,627,627,627,627,627,627,627,627,627,627,626,625,624,624,622,622,622,622,622,622,622,622,622,622,622,622,622,623,624,624,624,624,624,621,618,578,553,521,494,468,433,401,387,369,337,300,205,157,112,69],"timestamp_mouse":[10,37,51,71,90,111,132,150,171,191,210,232,252,271,291,311,331,350,371,392,410,431,452,471,492,512,531,552,570,591,612,630,652,671,692,710,732,750,771,790,811,830,851,870,890,912,930,950,971,990,1011,1030,1051,1071,1091,1111,1131,1151,1171,1191,1212,1230,1250,1270,1291,1311,1331,1350,1371,1391,1412,1430,1451,1471,1490,1511,1531,1550,1571],"xSR":741.5,"ySR":573.95,"xT1":424.9,"yT1":0,"xT2":1058.1,"yT2":0,"toosoon":0,"cond_shown":"Incongruent","ratio_trial":100,"L_num":6,"L_den":10,"R_num":7,"R_den":14,"correct_side":1,"subjID":"samuelalerxanderbarraganfonseca38","gender":"0","school":"6","age":"12"},{"start_time":1551899981706,"click_time":1551899983057,"finger_time":1551899982657,"fix_duration":627.9606109090089,"trial":21,"RT":951,"MT":400,"sideResp":2,"stimulus":[],"xmouse":[794,797,800,800,800,800,800,800,801,801,801,801,801,801,801,801,801,801,801,801,801,801,801,802,802,802,802,802,802,802,802,802,802,802,802,802,802,802,800,800,800,799,799,799,799,802,809,859,888,916,943,969,998,1007,1013,1019,1024,1037,1038,1038,1040,1042,1052,1059,1066,1079,1083,1091],"ymouse":[608,609,609,609,609,609,609,609,610,611,611,611,611,611,611,611,611,611,611,611,611,611,611,611,614,615,616,618,618,618,618,618,618,618,618,618,618,618,619,620,620,620,620,620,620,611,602,541,502,459,411,366,299,277,262,248,237,217,214,212,206,200,178,162,144,115,105,77],"timestamp_mouse":[11,34,51,71,91,111,130,151,172,191,210,231,252,270,292,310,331,351,370,392,410,432,450,470,492,510,531,551,570,592,610,631,650,672,692,710,731,750,770,792,810,831,852,871,891,911,932,951,971,991,1011,1031,1051,1070,1090,1111,1131,1151,1171,1192,1211,1231,1251,1270,1290,1310,1331,1350],"xSR":741.5,"ySR":573.95,"xT1":424.9,"yT1":0,"xT2":1058.1,"yT2":0,"toosoon":0,"cond_shown":"Incongruent","ratio_trial":100,"L_num":8,"L_den":20,"R_num":1,"R_den":2,"correct_side":2,"subjID":"samuelalerxanderbarraganfonseca38","gender":"0","school":"6","age":"12"},{"start_time":1551899985300,"click_time":1551899986596,"finger_time":1551899986115,"fix_duration":943.6049013616429,"trial":22,"RT":815,"MT":481,"sideResp":1,"stimulus":[],"xmouse":[806,806,806,806,806,806,806,806,806,806,806,806,806,806,806,806,806,806,806,805,805,800,795,795,795,795,795,795,795,795,795,794,792,792,792,791,787,778,763,759,753,747,735,722,707,685,666,634,624,613,599,585,556,547,540,537,537,536,536,533,529,529,529,528,523],"ymouse":[645,645,645,645,645,645,645,645,645,645,645,645,645,645,645,645,645,645,645,645,645,643,638,638,638,638,638,638,638,638,638,638,637,637,637,635,629,613,585,575,565,552,521,499,473,433,382,295,262,226,196,166,115,98,86,79,79,78,78,76,74,74,74,74,71],"timestamp_mouse":[16,36,54,75,94,116,136,156,175,196,216,236,256,274,296,316,336,355,376,396,415,436,455,476,494,516,536,555,576,595,616,636,655,676,696,715,736,754,775,795,815,835,855,875,894,915,936,955,975,994,1015,1035,1055,1075,1095,1115,1136,1156,1175,1195,1216,1235,1255,1276,1296],"xSR":741.5,"ySR":573.95,"xT1":424.9,"yT1":0,"xT2":1058.1,"yT2":0,"toosoon":0,"cond_shown":"Incongruent","ratio_trial":200,"L_num":4,"L_den":5,"R_num":6,"R_den":10,"correct_side":1,"subjID":"samuelalerxanderbarraganfonseca38","gender":"0","school":"6","age":"12"},{"start_time":1551899988789,"click_time":1551899990375,"finger_time":1551899989695,"fix_duration":793.678039677257,"trial":23,"RT":906,"MT":680,"sideResp":2,"stimulus":[],"xmouse":[752,752,752,752,752,752,756,757,758,758,758,758,758,758,759,762,762,762,762,762,762,762,762,762,762,762,762,762,762,762,762,765,770,773,773,773,773,773,773,774,774,775,777,785,791,806,824,841,858,879,902,928,965,1049,1071,1085,1090,1090,1091,1091,1091,1091,1091,1091,1091,1091,1091,1091,1091,1091,1090,1090,1090,1090,1090,1090,1090,1090,1090,1090],"ymouse":[624,624,624,624,624,624,621,619,617,617,617,617,617,617,616,612,610,609,609,609,609,609,609,609,609,609,609,609,609,609,614,622,631,637,637,637,637,637,637,633,629,625,616,599,586,568,547,528,512,483,443,407,355,218,179,151,138,134,133,133,133,132,132,127,127,127,127,127,122,121,119,118,117,116,116,114,111,108,104,90],"timestamp_mouse":[9,39,46,66,86,105,126,146,165,186,207,226,247,266,286,305,327,346,366,387,406,427,447,466,486,505,527,546,566,587,606,626,645,666,687,706,727,747,767,785,807,826,846,867,886,906,927,946,966,986,1006,1026,1047,1066,1086,1106,1126,1146,1166,1185,1207,1225,1247,1266,1286,1306,1326,1347,1367,1386,1406,1426,1447,1466,1485,1506,1527,1547,1566,1586],"xSR":741.5,"ySR":573.95,"xT1":424.9,"yT1":0,"xT2":1058.1,"yT2":0,"toosoon":0,"cond_shown":"Incongruent","ratio_trial":200,"L_num":14,"L_den":30,"R_num":6,"R_den":9,"correct_side":2,"subjID":"samuelalerxanderbarraganfonseca38","gender":"0","school":"6","age":"12"},{"start_time":1551899999837,"click_time":1551900001255,"finger_time":1551900000654,"fix_duration":1181.4438154455613,"trial":24,"RT":817,"MT":601,"sideResp":2,"stimulus":[],"xmouse":[764,764,764,764,764,764,764,764,764,764,764,764,764,764,764,764,764,764,764,764,764,764,764,764,764,764,764,764,764,764,764,764,764,764,764,764,764,764,767,774,805,881,937,997,1039,1066,1072,1081,1093,1108,1163,1183,1198,1203,1204,1203,1203,1203,1203,1203,1200,1193,1190,1187,1184,1178,1170,1166,1164,1161,1155],"ymouse":[628,628,628,628,628,628,628,628,628,628,628,628,628,628,628,628,628,628,628,628,628,628,628,628,628,628,628,628,628,628,628,628,628,628,628,628,627,622,607,585,530,433,377,319,279,245,231,213,189,158,25,0,0,0,0,0,0,0,0,0,1,5,7,9,10,12,17,20,22,25,32],"timestamp_mouse":[32,38,58,79,99,117,139,158,178,199,218,237,259,279,298,318,338,358,379,399,419,439,458,479,499,517,539,558,579,597,619,637,659,678,699,719,738,759,778,798,817,838,857,879,898,918,937,957,978,998,1018,1037,1058,1078,1099,1118,1138,1159,1178,1199,1218,1237,1258,1279,1299,1318,1338,1358,1378,1399,1418],"xSR":741.5,"ySR":573.95,"xT1":424.9,"yT1":0,"xT2":1058.1,"yT2":0,"toosoon":0,"cond_shown":"Incongruent","ratio_trial":300,"L_num":4,"L_den":20,"R_num":2,"R_den":4,"correct_side":2,"subjID":"samuelalerxanderbarraganfonseca38","gender":"0","school":"6","age":"12"},{"start_time":1551900005873,"click_time":1551900008355,"finger_time":1551900006655,"fix_duration":1395.2504595639512,"trial":25,"RT":782,"MT":1700,"sideResp":2,"stimulus":[],"xmouse":[785,785,785,785,785,785,785,777,772,766,766,766,766,766,766,766,766,766,766,766,766,766,766,765,762,762,762,762,762,765,765,765,765,764,763,762,762,761,756,735,732,732,732,733,739,751,753,753,753,761,771,780,785,787,787,788,789,792,792,792,786,779,774,767,764,762,762,762,762,762,764,765,765,765,765,765,767,786,837,962,1150,1225,1262,1270,1271,1271,1271,1271,1271,1275,1276,1277,1277,1277,1275,1268,1261,1257,1254,1244,1224,1209,1196,1187,1178,1175,1173,1172,1172,1172,1172,1172,1172,1170,1168,1167,1167,1166,1166,1166,1166,1166,1165,1159,1121],"ymouse":[615,615,615,615,615,615,615,615,614,613,613,613,613,613,613,613,613,613,613,613,613,613,613,612,594,588,587,587,587,598,598,598,600,603,612,626,627,627,620,595,593,593,594,600,609,631,636,642,652,668,670,673,674,675,675,675,676,677,677,677,664,655,648,640,637,635,635,635,635,636,642,644,645,646,647,647,649,649,641,584,486,443,417,409,409,399,380,365,351,322,315,307,297,288,263,247,237,231,227,213,185,161,131,104,45,25,12,9,9,9,9,8,8,8,10,10,11,11,11,11,11,12,14,22,57],"timestamp_mouse":[3,38,42,62,82,103,122,141,162,182,202,223,242,263,283,302,322,343,362,383,402,423,443,461,482,501,523,542,562,582,602,622,643,662,682,702,722,742,762,782,801,823,842,862,882,902,921,942,962,982,1003,1021,1043,1063,1082,1102,1122,1143,1163,1181,1203,1221,1243,1262,1282,1302,1323,1342,1362,1381,1403,1422,1443,1462,1482,1501,1523,1543,1563,1581,1602,1622,1642,1663,1682,1702,1722,1742,1762,1782,1802,1821,1842,1862,1882,1901,1922,1942,1962,1982,2002,2023,2042,2063,2082,2101,2122,2143,2162,2182,2202,2222,2243,2262,2283,2302,2322,2342,2362,2383,2402,2421,2442,2462,2482],"xSR":741.5,"ySR":573.95,"xT1":424.9,"yT1":0,"xT2":1058.1,"yT2":0,"toosoon":0,"cond_shown":"Incongruent","ratio_trial":100,"L_num":6,"L_den":12,"R_num":3,"R_den":5,"correct_side":2,"subjID":"samuelalerxanderbarraganfonseca38","gender":"0","school":"6","age":"12"},{"start_time":1551900011029,"click_time":1551900012815,"finger_time":1551900011676,"fix_duration":252.47447331536844,"trial":26,"RT":647,"MT":1139,"sideResp":2,"stimulus":[],"xmouse":[759,759,759,759,759,759,759,759,759,759,759,759,759,759,759,759,759,759,759,759,759,759,759,759,759,759,759,759,759,759,759,773,804,842,880,906,935,943,949,951,953,953,954,954,955,956,961,964,965,966,968,979,1015,1034,1039,1040,1042,1043,1044,1047,1051,1057,1057,1057,1057,1057,1057,1057,1058,1058,1058,1058,1058,1058,1058,1058,1058,1058,1058,1058,1058,1058,1058,1058,1058,1058,1058,1058,1058,1059],"ymouse":[622,622,622,622,622,622,622,622,622,622,622,622,622,622,622,622,622,622,622,622,622,622,622,622,622,622,622,622,622,622,622,602,547,478,411,357,295,276,263,253,248,243,241,241,239,234,221,214,212,209,206,195,171,159,151,146,141,136,130,123,110,83,83,83,83,83,83,83,82,82,82,82,82,82,82,82,82,82,82,82,82,82,82,82,82,82,82,82,82,81],"timestamp_mouse":[10,25,46,67,87,107,126,147,167,186,207,227,246,267,286,307,326,345,367,387,407,425,446,467,485,507,526,546,566,587,607,626,647,666,686,706,726,746,766,786,806,826,846,866,886,906,926,946,966,986,1007,1026,1047,1067,1086,1106,1126,1147,1167,1187,1207,1226,1246,1267,1286,1305,1327,1347,1367,1386,1406,1426,1446,1467,1486,1506,1527,1547,1567,1587,1607,1626,1646,1666,1687,1706,1727,1746,1767,1786],"xSR":741.5,"ySR":573.95,"xT1":424.9,"yT1":0,"xT2":1058.1,"yT2":0,"toosoon":0,"cond_shown":"Incongruent","ratio_trial":100,"L_num":11,"L_den":22,"R_num":9,"R_den":15,"correct_side":2,"subjID":"samuelalerxanderbarraganfonseca38","gender":"0","school":"6","age":"12"},{"start_time":1551900015073,"click_time":1551900017455,"finger_time":1551900016135,"fix_duration":255.85579702539886,"trial":27,"RT":1062,"MT":1320,"sideResp":2,"stimulus":[],"xmouse":[817,817,817,817,817,817,817,817,817,817,817,817,817,817,816,816,816,813,812,810,810,810,810,810,810,810,810,808,807,806,806,806,806,806,806,806,806,806,806,806,806,806,806,806,806,806,806,806,806,806,806,808,816,824,835,871,888,895,902,915,921,930,937,939,931,929,928,928,928,928,954,976,986,996,1011,1028,1045,1059,1068,1084,1094,1103,1110,1113,1121,1122,1122,1122,1122,1145,1173,1208,1233,1245,1248,1247,1247,1246,1246,1244,1242,1242,1242,1241,1225,1210,1199,1197,1197,1197,1196,1196,1196,1193,1191,1191,1191,1191,1190,1142],"ymouse":[633,633,633,633,633,633,633,633,633,633,633,633,633,633,633,633,633,633,633,633,633,633,633,633,633,633,633,634,635,636,636,636,636,636,636,636,636,636,636,636,636,636,636,636,636,636,636,636,636,636,623,602,576,548,519,444,415,396,382,343,324,300,278,260,234,226,220,216,214,214,201,198,197,197,205,218,232,243,260,297,320,334,346,356,378,382,382,382,382,330,285,233,192,168,137,122,116,110,102,87,84,84,84,84,84,84,84,84,84,84,84,84,84,83,83,82,82,82,82,82],"timestamp_mouse":[10,33,42,62,82,102,121,143,162,182,203,222,243,262,283,303,323,342,362,382,403,423,443,463,483,503,521,542,563,582,602,623,642,662,683,703,723,743,761,783,802,822,843,862,881,903,923,942,961,982,1003,1021,1042,1062,1082,1101,1122,1142,1162,1182,1202,1222,1242,1262,1282,1302,1322,1343,1363,1382,1403,1422,1442,1462,1482,1501,1522,1542,1562,1582,1602,1622,1642,1662,1682,1703,1722,1743,1762,1782,1802,1822,1843,1862,1882,1901,1922,1942,1963,1982,2001,2022,2042,2062,2082,2102,2122,2142,2162,2183,2201,2221,2243,2263,2282,2303,2321,2342,2362,2382],"xSR":741.5,"ySR":573.95,"xT1":424.9,"yT1":0,"xT2":1058.1,"yT2":0,"toosoon":0,"cond_shown":"Incongruent","ratio_trial":300,"L_num":4,"L_den":20,"R_num":2,"R_den":4,"correct_side":2,"subjID":"samuelalerxanderbarraganfonseca38","gender":"0","school":"6","age":"12"},{"start_time":1551900020573,"click_time":1551900022875,"finger_time":1551900020995,"fix_duration":295.2388284304673,"trial":28,"RT":422,"MT":1880,"sideResp":2,"stimulus":[],"xmouse":[779,773,772,770,770,770,770,770,770,770,770,770,770,770,772,786,797,803,805,812,815,821,828,835,843,844,844,844,844,844,844,844,844,844,844,844,844,844,844,844,844,844,844,841,831,829,828,828,828,828,828,828,825,823,818,817,815,812,811,811,811,811,811,811,811,811,811,811,811,811,811,811,811,812,845,886,933,1005,1064,1136,1147,1154,1156,1156,1162,1164,1166,1167,1167,1167,1167,1167,1167,1168,1172,1173,1174,1174,1174,1174,1174,1174,1174,1174,1174,1174,1174,1173,1169,1168,1167,1167,1167,1167,1163,1158],"ymouse":[639,642,642,643,643,643,643,643,643,643,643,643,643,643,639,631,624,619,617,597,585,573,560,549,542,540,540,540,540,540,540,540,540,540,540,540,542,551,558,565,566,568,569,572,583,585,585,586,586,586,586,586,589,590,594,596,600,603,605,605,605,605,606,606,606,606,606,606,606,606,606,606,606,602,533,468,393,310,245,170,156,148,145,143,136,133,128,128,128,128,128,128,127,125,112,108,102,97,93,93,93,93,93,93,93,93,93,91,90,88,87,87,87,87,86,84],"timestamp_mouse":[10,23,46,62,82,101,123,143,163,183,202,223,243,262,282,303,322,342,362,382,402,422,442,462,482,502,522,542,563,582,603,622,641,663,682,702,722,743,762,782,802,822,842,863,882,902,923,943,964,983,1002,1022,1042,1062,1082,1102,1122,1142,1162,1183,1203,1222,1242,1262,1282,1302,1323,1341,1361,1382,1403,1422,1443,1463,1482,1502,1522,1542,1561,1582,1602,1622,1642,1662,1682,1703,1722,1743,1763,1782,1801,1822,1842,1862,1882,1902,1922,1943,1963,1982,2002,2023,2041,2063,2082,2102,2123,2142,2162,2182,2203,2222,2243,2263,2282,2301],"xSR":741.5,"ySR":573.95,"xT1":424.9,"yT1":0,"xT2":1058.1,"yT2":0,"toosoon":0,"cond_shown":"Congruent","ratio_trial":200,"L_num":8,"L_den":15,"R_num":3,"R_den":9,"correct_side":1,"subjID":"samuelalerxanderbarraganfonseca38","gender":"0","school":"6","age":"12"},{"start_time":1551900024507,"click_time":1551900025875,"finger_time":1551900025335,"fix_duration":250,"trial":29,"RT":828,"MT":540,"sideResp":1,"stimulus":[],"xmouse":[771,771,771,771,771,771,771,771,771,771,771,771,771,771,771,771,771,771,771,771,771,771,771,771,771,771,771,771,771,771,771,771,771,771,771,771,771,771,772,771,762,750,716,699,680,660,647,637,621,621,620,618,615,612,608,604,602,601,600,600,600,600,597,594,590,585,575,553,508],"ymouse":[628,628,628,628,628,628,628,628,628,628,628,628,628,628,628,628,628,628,628,628,628,628,628,628,628,628,628,628,628,628,628,628,628,628,628,628,628,628,628,614,589,561,484,446,403,357,327,303,278,275,274,272,264,255,248,238,233,231,230,230,230,230,224,217,208,194,174,141,93],"timestamp_mouse":[10,35,49,68,89,108,129,147,168,189,209,229,248,269,288,309,328,348,368,389,408,428,448,468,489,508,529,548,568,587,608,629,648,668,689,707,729,747,768,788,808,828,848,868,888,909,928,948,969,988,1008,1028,1048,1067,1088,1109,1129,1148,1168,1189,1208,1229,1248,1268,1288,1307,1327,1348,1368],"xSR":741.5,"ySR":573.95,"xT1":424.9,"yT1":0,"xT2":1058.1,"yT2":0,"toosoon":0,"cond_shown":"Incongruent","ratio_trial":100,"L_num":9,"L_den":15,"R_num":13,"R_den":26,"correct_side":1,"subjID":"samuelalerxanderbarraganfonseca38","gender":"0","school":"6","age":"12"},{"start_time":1551900027343,"click_time":1551900028495,"finger_time":1551900028135,"fix_duration":307.6216827565803,"trial":30,"RT":792,"MT":360,"sideResp":2,"stimulus":[],"xmouse":[790,790,790,790,790,790,790,790,790,790,790,790,790,790,790,790,790,790,790,790,790,790,790,790,790,790,790,790,790,790,790,790,790,790,790,790,794,798,809,825,869,889,901,916,937,968,985,1007,1037,1060,1091,1099,1107,1111,1114,1120,1120,1120],"ymouse":[631,631,631,631,631,631,631,631,631,631,631,631,631,631,631,631,631,631,631,631,631,631,631,631,631,631,631,631,631,631,631,631,631,631,631,631,623,614,593,569,508,480,459,440,410,362,336,303,259,226,173,157,142,130,119,101,100,99],"timestamp_mouse":[19,42,52,73,92,111,132,152,173,193,211,233,253,272,292,313,331,353,372,392,413,433,452,472,491,513,533,552,573,591,612,633,651,673,693,711,733,752,773,792,812,832,853,872,892,912,931,952,973,992,1014,1032,1053,1072,1093,1112,1131,1152],"xSR":741.5,"ySR":573.95,"xT1":424.9,"yT1":0,"xT2":1058.1,"yT2":0,"toosoon":0,"cond_shown":"Congruent","ratio_trial":300,"L_num":8,"L_den":16,"R_num":1,"R_den":5,"correct_side":1,"subjID":"samuelalerxanderbarraganfonseca38","gender":"0","school":"6","age":"12"},{"start_time":1551900030088,"click_time":1551900031055,"finger_time":1551900030836,"fix_duration":410.90268077259896,"trial":31,"RT":748,"MT":219,"sideResp":2,"stimulus":[],"xmouse":[781,781,781,781,781,781,781,781,781,781,781,781,781,781,781,781,781,781,781,781,781,781,781,781,781,781,781,781,781,781,781,781,781,781,781,784,790,822,900,942,984,1028,1063,1105,1117,1126,1130,1134,1149],"ymouse":[620,620,620,620,620,620,620,620,620,620,620,620,620,620,620,620,620,620,620,620,620,620,620,620,620,620,620,620,620,620,620,620,620,620,620,610,600,554,439,382,326,268,223,165,149,137,129,122,86],"timestamp_mouse":[9,33,48,68,88,108,127,148,168,186,208,227,247,268,287,308,328,347,368,387,407,428,447,468,487,508,528,548,568,587,607,628,648,667,688,707,727,748,768,786,807,827,847,867,887,908,927,946,967],"xSR":741.5,"ySR":573.95,"xT1":424.9,"yT1":0,"xT2":1058.1,"yT2":0,"toosoon":0,"cond_shown":"Incongruent","ratio_trial":300,"L_num":4,"L_den":20,"R_num":2,"R_den":4,"correct_side":2,"subjID":"samuelalerxanderbarraganfonseca38","gender":"0","school":"6","age":"12"},{"start_time":1551900036813,"click_time":1551900039516,"finger_time":1551900036996,"fix_duration":1436.0078856656078,"trial":32,"RT":183,"MT":2520,"sideResp":1,"stimulus":[],"xmouse":[775,775,775,775,774,773,772,756,743,738,737,737,737,737,737,737,737,737,737,737,737,737,737,737,737,739,744,756,764,764,764,764,764,764,764,764,764,764,764,764,764,764,764,764,764,764,765,768,769,769,769,769,769,769,769,769,769,769,769,769,769,769,769,769,769,769,769,769,769,769,769,769,773,774,776,777,781,783,783,783,783,784,784,784,784,784,784,784,784,784,784,784,784,784,784,784,784,784,784,784,784,784,784,784,783,778,756,691,648,610,570,534,432,398,362,331,311,298,298,298,298,298,298,302,305,308,311,320,322,327,335,345,373,389,407,426],"ymouse":[631,631,631,631,631,632,632,634,634,634,634,634,634,634,634,634,634,634,634,634,634,634,634,634,634,632,628,621,615,615,615,615,615,615,615,615,615,615,615,615,615,615,615,615,615,615,614,614,614,614,614,614,614,614,614,614,614,614,614,614,614,614,614,614,614,614,614,614,614,614,614,614,615,615,615,615,616,617,617,617,617,617,617,617,617,617,617,617,617,617,617,617,617,617,617,617,617,617,617,617,617,617,617,617,614,594,538,375,283,204,137,81,0,0,0,0,0,0,0,0,0,0,0,5,8,11,15,22,24,26,30,35,47,53,61,66],"timestamp_mouse":[10,22,42,62,82,103,122,142,161,183,203,222,242,263,282,303,323,342,362,383,403,423,442,462,481,502,522,542,563,582,603,622,642,663,683,703,723,741,763,782,803,823,842,862,883,902,922,942,962,982,1002,1022,1042,1062,1083,1103,1122,1143,1162,1183,1202,1223,1243,1262,1282,1303,1321,1342,1363,1381,1403,1423,1442,1461,1482,1503,1522,1541,1562,1583,1603,1622,1642,1663,1683,1702,1723,1743,1763,1783,1802,1823,1842,1863,1882,1902,1921,1942,1962,1983,2002,2023,2043,2063,2082,2103,2122,2141,2161,2182,2202,2223,2242,2263,2281,2302,2322,2342,2362,2382,2402,2422,2441,2463,2482,2502,2522,2542,2562,2582,2602,2623,2642,2662,2682,2703],"xSR":741.5,"ySR":573.95,"xT1":424.9,"yT1":0,"xT2":1058.1,"yT2":0,"toosoon":0,"cond_shown":"Congruent","ratio_trial":100,"L_num":6,"L_den":20,"R_num":5,"R_den":25,"correct_side":1,"subjID":"samuelalerxanderbarraganfonseca38","gender":"0","school":"6","age":"12"},{"start_time":1551900045641,"click_time":1551900047333,"finger_time":1551900047253,"fix_duration":1107.2684900678598,"trial":33,"RT":1612,"MT":80,"sideResp":1,"stimulus":[],"xmouse":[816,816,816,816,816,816,816,816,816,814,813,813,813,813,813,813,813,813,813,813,813,813,813,813,813,813,813,813,813,813,813,813,813,813,813,813,813,813,813,813,813,813,813,813,813,812,811,808,807,806,800,790,788,787,784,783,783,783,783,783,783,783,783,783,783,783,783,783,783,783,783,783,783,783,783,783,783,783,779,767,673,633,586,543,506],"ymouse":[617,617,617,617,617,617,617,617,617,617,617,617,617,617,617,617,617,617,617,617,617,617,617,617,617,617,617,617,617,617,617,617,617,617,617,617,617,617,617,617,617,617,617,617,617,617,617,618,618,618,618,622,622,624,624,625,625,625,625,625,625,625,625,625,625,625,625,625,625,625,625,625,625,625,625,625,625,625,616,601,438,341,231,137,58],"timestamp_mouse":[13,33,51,73,93,111,132,153,171,193,213,231,253,273,292,311,333,352,372,392,413,433,452,473,492,512,532,552,572,591,611,631,652,673,693,712,732,753,773,793,811,832,853,873,893,912,931,953,972,992,1012,1032,1052,1073,1093,1111,1133,1153,1172,1192,1213,1233,1251,1273,1293,1313,1331,1353,1372,1393,1413,1433,1452,1471,1492,1513,1532,1553,1571,1593,1612,1632,1652,1673,1692],"xSR":741.5,"ySR":573.95,"xT1":424.9,"yT1":0,"xT2":1058.1,"yT2":0,"toosoon":0,"cond_shown":"Congruent","ratio_trial":300,"L_num":9,"L_den":10,"R_num":3,"R_den":5,"correct_side":1,"subjID":"samuelalerxanderbarraganfonseca38","gender":"0","school":"6","age":"12"},{"start_time":1551900048824,"click_time":1551900050213,"finger_time":1551900049813,"fix_duration":570.5077586590197,"trial":34,"RT":989,"MT":400,"sideResp":2,"stimulus":[],"xmouse":[782,782,782,782,782,782,782,782,782,782,782,782,782,782,782,782,782,782,782,782,782,782,782,782,782,782,782,782,782,782,782,782,782,782,782,782,782,782,782,782,782,782,782,782,782,783,783,791,808,844,897,1066,1135,1204,1251,1276,1282,1282,1282,1282,1282,1282,1282,1282,1275,1249,1214,1196,1176,1157],"ymouse":[610,611,611,611,611,611,611,611,611,611,611,611,612,612,612,612,612,612,612,612,613,613,613,613,613,613,613,613,613,613,613,613,613,613,613,613,613,613,613,613,613,613,613,613,613,613,613,603,580,537,475,270,175,82,5,0,0,0,0,0,0,0,0,0,0,0,0,1,4,8],"timestamp_mouse":[12,38,48,69,89,110,129,149,169,189,209,228,250,270,290,308,330,350,369,390,409,429,450,469,490,510,529,550,570,588,608,629,650,669,689,709,730,749,769,789,810,829,850,870,890,909,930,949,970,989,1009,1028,1049,1069,1089,1109,1129,1148,1169,1189,1209,1229,1249,1269,1289,1309,1329,1349,1370,1389],"xSR":741.5,"ySR":573.95,"xT1":424.9,"yT1":0,"xT2":1058.1,"yT2":0,"toosoon":0,"cond_shown":"Incongruent","ratio_trial":200,"L_num":14,"L_den":30,"R_num":6,"R_den":9,"correct_side":2,"subjID":"samuelalerxanderbarraganfonseca38","gender":"0","school":"6","age":"12"},{"start_time":1551900053004,"click_time":1551900054332,"finger_time":1551900053653,"fix_duration":408.3167184454497,"trial":35,"RT":649,"MT":679,"sideResp":2,"stimulus":[],"xmouse":[759,759,759,758,756,755,754,754,753,752,752,752,752,752,752,752,752,752,752,752,752,752,752,752,752,752,752,752,752,752,752,752,759,760,760,760,760,760,760,760,760,760,760,762,764,764,764,764,764,764,764,764,766,766,766,766,766,766,768,770,775,789,808,967,1044,1106,1152],"ymouse":[596,596,596,596,593,593,591,590,589,586,586,586,586,586,586,586,586,586,586,586,586,586,586,586,586,586,585,585,585,585,584,583,573,570,569,569,569,569,569,569,569,571,576,593,601,602,602,602,602,602,602,608,623,626,626,626,626,626,626,625,618,597,569,375,272,160,52],"timestamp_mouse":[10,33,49,69,89,110,129,149,169,189,210,230,248,268,290,309,329,350,369,389,410,430,449,469,489,510,529,548,569,589,608,630,649,668,689,709,729,749,770,789,809,829,848,870,890,909,928,948,968,989,1009,1029,1049,1070,1090,1110,1130,1149,1168,1190,1209,1229,1249,1270,1290,1309,1328],"xSR":741.5,"ySR":573.95,"xT1":424.9,"yT1":0,"xT2":1058.1,"yT2":0,"toosoon":0,"cond_shown":"Incongruent","ratio_trial":200,"L_num":11,"L_den":20,"R_num":3,"R_den":4,"correct_side":2,"subjID":"samuelalerxanderbarraganfonseca38","gender":"0","school":"6","age":"12"},{"start_time":1551900058130,"click_time":1551900059572,"finger_time":1551900059093,"fix_duration":916.9352747701688,"trial":36,"RT":963,"MT":479,"sideResp":1,"stimulus":[],"xmouse":[810,810,810,810,810,810,810,810,810,810,810,810,810,810,810,810,810,810,810,810,810,810,810,810,810,810,810,810,810,810,810,809,808,806,804,803,803,803,803,803,803,803,803,803,803,801,793,785,771,749,721,660,634,612,593,575,545,540,530,524,514,502,502,502,502,502,502,502,502,501,500,490,485],"ymouse":[656,656,656,656,656,656,656,656,656,656,656,656,656,656,656,656,656,656,656,656,656,656,656,656,656,656,656,656,656,656,656,656,662,667,672,673,673,673,673,673,673,673,673,673,673,670,631,592,543,489,439,344,308,280,258,237,200,192,180,173,161,150,150,150,150,150,150,150,150,150,142,100,82],"timestamp_mouse":[9,33,43,64,84,102,124,144,162,184,204,224,244,264,283,304,323,343,364,383,403,424,443,462,483,504,523,544,564,583,604,623,642,664,683,703,724,744,763,784,803,823,843,863,884,903,923,943,963,984,1003,1023,1043,1063,1082,1104,1123,1144,1163,1183,1202,1223,1242,1263,1284,1304,1323,1344,1363,1383,1404,1422,1442],"xSR":741.5,"ySR":573.95,"xT1":424.9,"yT1":0,"xT2":1058.1,"yT2":0,"toosoon":0,"cond_shown":"Incongruent","ratio_trial":300,"L_num":4,"L_den":5,"R_num":8,"R_den":16,"correct_side":1,"subjID":"samuelalerxanderbarraganfonseca38","gender":"0","school":"6","age":"12"},{"start_time":1551900063907,"click_time":1551900065373,"finger_time":1551900064093,"fix_duration":1350.2333005969565,"trial":37,"RT":186,"MT":1280,"sideResp":2,"stimulus":[],"xmouse":[792,792,792,792,792,792,792,785,757,731,730,730,730,730,730,730,730,730,730,728,724,721,716,721,729,746,763,773,773,773,773,773,774,774,774,774,774,774,774,774,774,774,774,781,788,805,842,1008,1085,1159,1214,1256,1275,1276,1276,1276,1275,1274,1271,1263,1247,1232,1225,1224,1223,1223,1223,1223,1223,1223,1222,1211,1165,1140],"ymouse":[629,629,629,629,629,629,629,630,649,681,682,682,682,682,682,682,682,682,682,682,681,677,668,656,646,631,618,608,607,607,607,606,606,606,606,606,606,606,606,606,606,606,606,597,587,565,518,333,254,173,106,60,31,30,30,30,21,0,0,0,0,0,0,0,0,0,0,0,0,0,0,6,33,49],"timestamp_mouse":[15,26,46,66,86,106,125,146,166,186,207,227,246,267,287,306,326,346,366,385,407,426,446,466,486,506,527,545,566,587,607,626,647,667,686,707,725,747,766,786,806,826,846,866,887,906,926,946,966,986,1007,1025,1046,1065,1086,1106,1127,1146,1165,1185,1206,1225,1245,1265,1285,1305,1326,1346,1365,1385,1405,1425,1446,1465],"xSR":741.5,"ySR":573.95,"xT1":424.9,"yT1":0,"xT2":1058.1,"yT2":0,"toosoon":0,"cond_shown":"Congruent","ratio_trial":200,"L_num":16,"L_den":20,"R_num":12,"R_den":20,"correct_side":1,"subjID":"samuelalerxanderbarraganfonseca38","gender":"0","school":"6","age":"12"},{"start_time":1551900069003,"click_time":1551900070453,"finger_time":1551900069933,"fix_duration":1166.364410929337,"trial":38,"RT":930,"MT":520,"sideResp":1,"stimulus":[],"xmouse":[793,792,792,789,788,787,786,783,779,778,777,777,777,777,777,777,777,777,777,777,777,777,777,777,777,777,777,777,777,777,777,777,777,777,777,775,772,766,766,766,766,766,766,765,765,765,756,747,706,671,619,585,534,516,505,499,497,494,489,485,483,483,483,483,483,483,483,483,483,483,483,482,480],"ymouse":[588,589,590,595,600,606,609,617,630,634,635,635,635,635,635,635,635,635,635,635,635,635,635,635,635,635,635,635,635,635,635,635,635,635,635,636,637,639,639,639,639,639,639,632,616,590,542,487,366,303,231,186,136,121,112,107,105,104,102,101,101,101,101,101,101,101,101,101,101,101,101,100,81],"timestamp_mouse":[10,31,49,70,89,110,130,150,170,191,210,230,250,270,291,309,331,351,370,389,411,431,450,469,491,511,531,550,571,591,610,631,649,671,691,710,730,750,770,791,810,830,851,869,890,910,930,949,970,990,1011,1030,1050,1069,1091,1110,1131,1149,1170,1190,1211,1230,1250,1270,1290,1309,1329,1350,1370,1390,1410,1430,1450],"xSR":741.5,"ySR":573.95,"xT1":424.9,"yT1":0,"xT2":1058.1,"yT2":0,"toosoon":0,"cond_shown":"Congruent","ratio_trial":200,"L_num":3,"L_den":12,"R_num":9,"R_den":20,"correct_side":2,"subjID":"samuelalerxanderbarraganfonseca38","gender":"0","school":"6","age":"12"},{"start_time":1551900071966,"click_time":1551900073373,"finger_time":1551900072713,"fix_duration":250,"trial":39,"RT":747,"MT":660,"sideResp":2,"stimulus":[],"xmouse":[762,762,762,762,762,762,762,762,762,762,762,762,762,762,762,762,762,762,762,762,762,762,762,762,763,763,763,763,763,763,763,763,763,763,763,766,775,791,814,878,905,928,941,948,957,960,963,966,969,981,993,1011,1028,1041,1047,1047,1047,1047,1047,1049,1051,1053,1054,1055,1057,1057,1057,1057,1057,1058,1059],"ymouse":[638,638,638,638,638,638,638,638,638,638,638,638,638,638,638,638,638,638,638,638,638,638,638,638,639,639,639,639,639,639,639,639,639,639,638,629,610,573,516,373,311,257,213,188,145,134,126,118,109,87,69,48,29,10,4,4,4,4,4,4,5,6,6,7,11,13,13,13,13,15,19],"timestamp_mouse":[10,36,46,67,88,108,128,147,168,186,206,228,248,266,288,308,327,348,366,388,408,428,448,468,487,508,528,547,567,587,608,626,648,668,687,707,727,747,767,787,807,828,847,867,887,907,927,948,966,987,1007,1027,1047,1068,1088,1108,1128,1147,1168,1187,1207,1228,1247,1267,1286,1308,1327,1348,1367,1387,1407],"xSR":741.5,"ySR":573.95,"xT1":424.9,"yT1":0,"xT2":1058.1,"yT2":0,"toosoon":0,"cond_shown":"Congruent","ratio_trial":200,"L_num":3,"L_den":10,"R_num":7,"R_den":14,"correct_side":2,"subjID":"samuelalerxanderbarraganfonseca38","gender":"0","school":"6","age":"12"},{"start_time":1551900075733,"click_time":1551900077514,"finger_time":1551900077233,"fix_duration":1198.8578751278967,"trial":40,"RT":1500,"MT":281,"sideResp":2,"stimulus":[],"xmouse":[791,791,791,791,791,791,791,791,791,791,791,791,791,791,791,791,791,791,791,791,791,791,791,791,791,791,791,791,791,791,791,791,791,791,791,791,791,791,791,791,791,791,791,791,791,791,791,791,791,791,791,791,791,791,791,791,791,791,791,791,791,791,791,791,791,791,791,791,791,791,791,791,791,791,797,817,880,910,931,949,958,972,980,986,993,1000,1025,1041,1052,1060],"ymouse":[601,601,601,601,601,601,602,602,602,602,602,602,602,602,602,602,602,602,602,602,602,602,602,602,602,602,602,602,602,602,602,602,602,602,602,602,602,602,602,602,602,602,602,602,602,602,602,602,602,602,602,602,602,602,602,602,602,602,602,602,602,602,602,602,602,602,602,602,602,602,602,602,602,602,598,571,483,439,406,379,360,326,309,293,273,250,175,137,106,76],"timestamp_mouse":[8,33,40,61,81,99,120,141,159,179,201,221,240,261,279,300,320,339,361,380,399,421,441,461,480,500,521,540,561,579,599,621,640,660,681,700,721,740,761,781,799,821,840,861,881,901,921,941,961,981,1000,1021,1040,1061,1080,1101,1120,1141,1160,1181,1200,1220,1241,1259,1281,1301,1321,1341,1360,1379,1400,1421,1439,1461,1480,1500,1520,1540,1559,1581,1600,1620,1641,1660,1680,1701,1720,1740,1759,1780],"xSR":741.5,"ySR":573.95,"xT1":424.9,"yT1":0,"xT2":1058.1,"yT2":0,"toosoon":0,"cond_shown":"Congruent","ratio_trial":100,"L_num":4,"L_den":10,"R_num":15,"R_den":30,"correct_side":2,"subjID":"samuelalerxanderbarraganfonseca38","gender":"0","school":"6","age":"12"},{"start_time":1551900079281,"click_time":1551900081654,"finger_time":1551900080633,"fix_duration":505.57149805356596,"trial":41,"RT":1352,"MT":1021,"sideResp":1,"stimulus":[],"xmouse":[808,808,808,808,808,808,808,808,808,808,808,808,808,808,808,808,808,808,808,808,808,808,808,808,808,808,808,808,808,808,808,808,808,808,808,808,808,808,808,808,808,808,808,808,808,808,808,808,808,808,808,808,808,808,808,808,808,808,808,808,808,808,805,799,783,759,743,737,733,733,733,733,733,733,733,733,736,748,759,759,759,759,759,759,759,759,759,759,759,759,759,759,759,759,759,759,749,726,674,642,610,584,566,547,542,540,538,536,533,531,530,528,522,504,494,486,480,476,474],"ymouse":[622,622,622,622,622,622,622,622,622,622,622,622,622,622,622,622,622,622,622,622,622,622,622,622,622,622,622,622,622,622,622,622,622,622,622,622,622,622,622,622,622,622,622,622,622,622,622,622,622,622,622,622,622,622,622,622,622,622,622,622,622,622,622,622,624,630,636,639,641,641,641,641,641,641,641,641,641,638,635,635,635,635,635,635,635,635,635,635,635,635,635,635,635,635,634,626,595,531,417,361,317,278,253,220,211,206,204,201,197,194,192,188,178,151,137,122,109,101,98],"timestamp_mouse":[12,38,52,73,92,113,133,153,172,192,213,231,253,273,291,313,333,353,372,393,413,432,452,473,493,513,533,552,573,593,613,633,653,671,693,713,733,753,773,792,813,833,853,873,892,913,931,953,973,991,1012,1033,1053,1072,1093,1112,1132,1153,1173,1193,1212,1233,1252,1272,1291,1311,1332,1352,1372,1391,1412,1432,1452,1472,1491,1513,1532,1553,1573,1591,1613,1633,1653,1673,1692,1712,1733,1753,1771,1793,1811,1833,1853,1873,1892,1913,1932,1952,1972,1992,2012,2033,2052,2072,2091,2112,2132,2152,2171,2191,2213,2232,2253,2271,2291,2312,2332,2353,2372],"xSR":741.5,"ySR":573.95,"xT1":424.9,"yT1":0,"xT2":1058.1,"yT2":0,"toosoon":0,"cond_shown":"Congruent","ratio_trial":200,"L_num":16,"L_den":20,"R_num":12,"R_den":20,"correct_side":1,"subjID":"samuelalerxanderbarraganfonseca38","gender":"0","school":"6","age":"12"},{"start_time":1551900083706,"click_time":1551900085233,"finger_time":1551900084714,"fix_duration":1031.2010421322475,"trial":42,"RT":1008,"MT":519,"sideResp":1,"stimulus":[],"xmouse":[790,790,790,790,790,790,790,790,790,790,790,790,790,790,790,790,790,790,790,790,790,790,790,790,790,790,790,790,790,790,790,790,790,790,790,790,790,790,790,790,790,790,790,790,790,790,790,791,790,777,749,725,683,660,641,627,619,600,596,596,595,595,592,588,580,571,561,546,544,544,544,544,541,535,528,525,522],"ymouse":[644,644,644,644,644,644,644,644,644,644,644,644,644,644,644,644,644,644,644,644,644,644,644,644,644,644,644,644,644,644,644,644,644,644,644,644,644,644,644,644,644,644,644,644,644,644,644,644,642,612,547,486,367,316,265,223,194,144,134,131,129,129,125,119,109,98,91,79,78,78,78,78,75,69,63,60,57],"timestamp_mouse":[9,35,47,68,87,107,127,148,168,188,206,228,246,268,286,307,328,348,368,388,408,427,447,467,488,507,527,548,567,588,608,628,648,668,687,706,728,748,767,788,808,827,847,868,888,907,927,946,968,987,1008,1027,1047,1067,1087,1106,1128,1147,1167,1187,1208,1226,1246,1267,1287,1308,1327,1347,1366,1387,1407,1428,1447,1467,1488,1508,1527],"xSR":741.5,"ySR":573.95,"xT1":424.9,"yT1":0,"xT2":1058.1,"yT2":0,"toosoon":0,"cond_shown":"Incongruent","ratio_trial":200,"L_num":3,"L_den":10,"R_num":1,"R_den":2,"correct_side":2,"subjID":"samuelalerxanderbarraganfonseca38","gender":"0","school":"6","age":"12"},{"start_time":1551900087494,"click_time":1551900089433,"finger_time":1551900088714,"fix_duration":1321.8975832131982,"trial":43,"RT":1220,"MT":719,"sideResp":2,"stimulus":[],"xmouse":[806,806,806,806,806,806,806,806,806,806,806,806,806,806,806,806,806,806,806,806,806,806,806,806,806,806,806,806,806,807,807,807,807,807,807,807,807,807,807,807,807,807,807,807,807,807,807,807,807,807,807,807,807,807,807,807,807,807,811,824,847,884,976,1025,1067,1094,1105,1107,1107,1107,1107,1107,1107,1107,1107,1107,1107,1107,1107,1107,1107,1107,1107,1107,1107,1107,1107,1107,1107,1107,1107,1107,1107,1107,1107,1107,1107],"ymouse":[639,639,638,638,638,638,638,638,638,638,637,637,637,637,637,637,637,637,637,637,637,637,637,637,637,637,637,637,636,634,633,633,633,633,633,633,633,633,633,633,633,633,633,633,633,633,633,633,633,633,633,633,633,633,633,633,633,633,628,604,551,465,237,103,0,0,0,0,0,0,0,0,0,0,0,0,0,0,0,0,0,0,0,0,0,0,0,0,0,0,0,0,0,0,0,0,2],"timestamp_mouse":[19,41,59,80,100,120,140,159,179,199,220,240,259,280,300,319,339,360,378,400,420,438,460,480,499,519,540,560,580,599,620,639,659,679,700,718,739,760,779,798,820,840,859,880,898,920,940,960,980,1000,1020,1039,1058,1080,1100,1120,1138,1159,1180,1198,1220,1240,1258,1278,1300,1319,1339,1359,1379,1400,1420,1439,1459,1479,1498,1519,1540,1560,1579,1599,1620,1639,1658,1680,1699,1720,1740,1759,1780,1798,1820,1838,1859,1879,1900,1920,1939],"xSR":741.5,"ySR":573.95,"xT1":424.9,"yT1":0,"xT2":1058.1,"yT2":0,"toosoon":0,"cond_shown":"Congruent","ratio_trial":100,"L_num":9,"L_den":15,"R_num":8,"R_den":16,"correct_side":1,"subjID":"samuelalerxanderbarraganfonseca38","gender":"0","school":"6","age":"12"},{"start_time":1551900091131,"click_time":1551900092574,"finger_time":1551900092052,"fix_duration":456.9720651034783,"trial":44,"RT":921,"MT":522,"sideResp":1,"stimulus":[],"xmouse":[796,796,796,796,796,796,796,796,796,796,796,796,796,796,796,796,796,796,796,796,797,797,797,797,797,797,798,799,800,800,800,800,800,800,800,800,800,800,800,800,800,800,800,800,800,800,800,763,731,695,647,572,557,551,549,548,547,547,546,546,543,540,537,536,533,532,532,532,532,532,532,531,522],"ymouse":[601,601,601,601,601,601,601,601,601,601,601,601,601,601,601,601,601,601,602,604,605,605,605,605,605,605,608,608,609,610,610,610,610,610,610,610,610,610,610,610,610,610,610,610,604,598,572,460,392,325,252,153,126,107,96,89,82,79,74,69,63,56,52,50,47,47,47,47,47,47,47,46,46],"timestamp_mouse":[10,35,43,62,82,102,123,142,162,182,203,222,243,261,283,303,323,341,362,381,403,423,442,462,483,503,522,542,563,583,603,623,643,662,682,702,722,743,763,781,803,823,842,862,882,902,921,943,963,982,1001,1021,1042,1061,1083,1102,1121,1142,1161,1182,1202,1222,1243,1263,1281,1303,1322,1343,1362,1382,1403,1422,1443],"xSR":741.5,"ySR":573.95,"xT1":424.9,"yT1":0,"xT2":1058.1,"yT2":0,"toosoon":0,"cond_shown":"Congruent","ratio_trial":300,"L_num":1,"L_den":5,"R_num":11,"R_den":22,"correct_side":2,"subjID":"samuelalerxanderbarraganfonseca38","gender":"0","school":"6","age":"12"},{"start_time":1551900095203,"click_time":1551900096353,"finger_time":1551900095972,"fix_duration":1107.0086475511139,"trial":45,"RT":769,"MT":381,"sideResp":2,"stimulus":[],"xmouse":[780,780,780,780,780,780,780,780,780,780,780,780,780,780,780,780,780,780,780,780,780,780,780,779,778,776,774,769,766,766,766,766,766,766,766,766,768,786,816,859,902,944,1029,1056,1075,1094,1108,1124,1127,1130,1130,1130,1130,1130,1130,1129,1129,1127],"ymouse":[610,610,610,610,610,610,610,610,610,610,610,610,610,610,610,610,610,610,610,610,610,609,609,609,610,612,618,631,635,637,637,637,637,637,637,637,635,606,555,478,406,321,93,4,0,0,0,0,0,0,0,0,0,0,0,0,0,1],"timestamp_mouse":[10,33,49,70,91,110,129,151,171,191,210,231,250,270,291,311,331,350,371,390,411,431,450,469,489,511,530,550,570,591,610,631,650,671,691,711,730,750,769,790,810,830,850,870,891,909,930,950,970,990,1010,1031,1050,1071,1090,1111,1130,1149],"xSR":741.5,"ySR":573.95,"xT1":424.9,"yT1":0,"xT2":1058.1,"yT2":0,"toosoon":0,"cond_shown":"Incongruent","ratio_trial":200,"L_num":7,"L_den":15,"R_num":4,"R_den":6,"correct_side":2,"subjID":"samuelalerxanderbarraganfonseca38","gender":"0","school":"6","age":"12"},{"start_time":1551900097606,"click_time":1551900099053,"finger_time":1551900098673,"fix_duration":250,"trial":46,"RT":1067,"MT":380,"sideResp":2,"stimulus":[],"xmouse":[809,809,809,809,809,809,809,809,809,809,809,809,809,809,809,809,809,809,809,809,809,809,809,809,809,809,809,809,810,811,812,812,813,813,813,813,813,813,813,813,813,813,813,813,813,813,813,813,813,813,813,815,838,886,947,1028,1113,1222,1270,1298,1306,1307,1307,1307,1307,1307,1306,1303,1302,1302,1291,1231,1143],"ymouse":[612,612,612,612,612,612,612,612,612,612,612,612,612,612,612,612,612,612,612,612,612,612,612,612,612,612,612,612,616,619,622,624,626,626,626,626,626,626,626,626,626,626,626,626,626,626,626,626,626,626,626,626,593,528,443,339,225,67,0,0,0,0,0,0,0,0,0,0,0,0,1,28,62],"timestamp_mouse":[10,32,47,66,88,107,128,146,168,188,207,228,248,268,288,308,326,348,367,387,406,427,448,468,488,508,528,547,567,588,607,628,648,667,688,708,727,747,768,787,807,827,846,867,887,908,927,948,967,986,1007,1027,1047,1067,1086,1107,1127,1147,1167,1187,1206,1227,1248,1268,1288,1308,1328,1348,1367,1387,1407,1428,1447],"xSR":741.5,"ySR":573.95,"xT1":424.9,"yT1":0,"xT2":1058.1,"yT2":0,"toosoon":0,"cond_shown":"Congruent","ratio_trial":100,"L_num":11,"L_den":22,"R_num":4,"R_den":10,"correct_side":1,"subjID":"samuelalerxanderbarraganfonseca38","gender":"0","school":"6","age":"12"},{"start_time":1551900101484,"click_time":1551900102773,"finger_time":1551900102374,"fix_duration":1270.248308990731,"trial":47,"RT":890,"MT":399,"sideResp":1,"stimulus":[],"xmouse":[783,783,783,783,783,783,783,783,783,783,783,783,783,783,783,783,783,783,783,783,783,783,783,783,783,783,783,783,783,783,783,783,783,783,783,783,783,783,783,783,783,783,783,783,765,745,717,682,615,608,606,606,606,606,606,605,604,597,582,575,571,565,560,536,520],"ymou