[{"start_time":1551900815748,"click_time":1551900818380,"finger_time":1551900815760,"fix_duration":1242.0491036285634,"trial":0,"RT":12,"MT":2620,"sideResp":2,"stimulus":"img/500/equaldotanddens/R/12_Ratio_500_L_1_R_2.png","xmouse":[789,789,789,789,789,789,789,789,789,789,789,789,789,789,789,789,789,789,789,789,789,789,789,789,789,789,789,789,789,789,789,782,759,749,735,734,734,734,734,734,734,734,734,734,734,735,737,743,746,748,749,749,755,765,782,792,797,797,797,797,797,797,797,797,797,797,797,797,797,797,797,797,797,797,797,797,797,797,797,797,797,797,797,797,798,793,789,787,787,787,787,787,787,787,787,787,787,787,787,787,787,787,787,787,787,787,787,787,787,787,788,791,836,890,994,1064,1207,1275,1312,1326,1330,1332,1332,1332,1332,1324,1310,1275,1258,1232,1190,1072],"ymouse":[516,516,516,516,516,516,516,516,516,516,516,516,516,516,516,516,516,516,516,516,516,516,516,516,516,516,516,516,516,516,516,524,565,587,609,613,613,613,613,613,613,613,613,613,613,613,612,612,612,612,612,612,612,615,617,617,617,617,617,617,617,617,617,617,617,617,617,617,617,617,617,617,617,617,617,617,617,617,617,617,617,617,617,617,615,607,601,600,600,600,600,600,600,600,600,600,600,600,600,600,600,600,600,600,600,600,600,600,600,600,597,594,566,533,458,398,270,206,161,131,108,72,61,54,52,45,41,41,41,42,47,68],"timestamp_mouse":[12,32,51,72,93,113,133,152,172,192,212,233,252,272,292,311,333,352,372,392,411,432,452,473,492,511,533,552,573,593,611,631,652,673,692,711,731,752,773,792,813,833,853,872,892,911,932,953,973,992,1012,1032,1053,1073,1092,1112,1133,1152,1173,1192,1212,1232,1252,1273,1293,1313,1331,1352,1372,1393,1412,1432,1453,1473,1493,1512,1532,1551,1572,1591,1612,1633,1652,1673,1692,1712,1732,1752,1771,1792,1813,1832,1852,1872,1892,1912,1932,1952,1972,1991,2012,2032,2051,2071,2092,2112,2133,2153,2171,2192,2213,2233,2253,2272,2293,2312,2333,2352,2372,2392,2412,2433,2452,2472,2492,2512,2533,2552,2573,2593,2612,2632],"xSR":741.5,"ySR":469.95,"xT1":424.9,"yT1":0,"xT2":1058.1,"yT2":0,"toosoon":0,"cond_shown":"equaldotanddens","ratio_trial":500,"smaller_num":"1","larger_num":"2","correct_side":2,"subjID":"samuelalexanderbarraganfonseca38","gender":"0","age":"11","school":"6","test":{"fix_dur":[250,1500],"timestim":300,"targets_dim":[100,100],"targets_relative_coord":[0.3,0.7],"size_stim":[880,420],"start_dim":[100,100],"size_start":[300,300],"size_fix":60,"samplingrate":20,"img_types":["equaldotsize","equaldotanddens","randomdotsizeEA"],"ratios":[250,500,750,900],"rep_conds":9,"nTrials":120,"trials_to_rest":500,"Trials_order":[28,47,118,31,53,112,33,18,54,2,29,16,98,46,61,49,93,90,51,60,83,9,3,39,88,30,89,119,19,37,67,108,40,76,70,21,77,69,41,102,20,99,11,81,13,57,84,75,1,114,4,12,8,22,26,32,6,38,15,59,96,117,103,82,48,104,50,25,36,73,115,24,71,78,45,97,72,106,56,7,87,109,94,74,113,107,65,0,43,64,66,14,5,91,55,105,85,44,68,79,95,23,100,92,63,35,58,80,110,27,86,101,111,34,42,52,10,17,62,116],"cond_shown":["equaldotanddens","randomdotsizeEA","equaldotanddens","equaldotanddens","randomdotsizeEA","equaldotanddens","equaldotsize","equaldotsize","equaldotsize","randomdotsizeEA","randomdotsizeEA","equaldotanddens","randomdotsizeEA","equaldotanddens","equaldotanddens","equaldotanddens","equaldotsize","equaldotsize","equaldotsize","equaldotsize","randomdotsizeEA","equaldotsize","equaldotsize","equaldotsize","equaldotanddens","equaldotsize","randomdotsizeEA","randomdotsizeEA","equaldotanddens","equaldotanddens","equaldotanddens","equaldotsize","equaldotanddens","equaldotanddens","equaldotanddens","equaldotsize","randomdotsizeEA","equaldotsize","randomdotsizeEA","equaldotsize","randomdotsizeEA","equaldotsize","randomdotsizeEA","equaldotsize","equaldotanddens","equaldotsize","equaldotsize","equaldotsize","equaldotanddens","equaldotsize","equaldotanddens","equaldotsize","randomdotsizeEA","equaldotanddens","randomdotsizeEA","randomdotsizeEA","equaldotsize","randomdotsizeEA","equaldotsize","randomdotsizeEA","equaldotsize","equaldotsize","equaldotanddens","equaldotanddens","equaldotsize","randomdotsizeEA","randomdotsizeEA","equaldotanddens","equaldotsize","equaldotanddens","equaldotanddens","equaldotsize","randomdotsizeEA","equaldotsize","equaldotsize","equaldotanddens","equaldotsize","equaldotanddens","randomdotsizeEA","equaldotanddens","equaldotsize","equaldotanddens","equaldotanddens","randomdotsizeEA","randomdotsizeEA","randomdotsizeEA","randomdotsizeEA","equaldotsize","equaldotanddens","equaldotanddens","equaldotsize","randomdotsizeEA","randomdotsizeEA","equaldotanddens","equaldotanddens","equaldotsize","equaldotanddens","randomdotsizeEA","randomdotsizeEA","equaldotanddens","randomdotsizeEA","randomdotsizeEA","equaldotanddens","randomdotsizeEA","equaldotsize","randomdotsizeEA","equaldotanddens","randomdotsizeEA","randomdotsizeEA","equaldotsize","randomdotsizeEA","randomdotsizeEA","equaldotsize","equaldotanddens","equaldotsize","equaldotanddens","equaldotanddens","randomdotsizeEA","randomdotsizeEA","randomdotsizeEA"],"ratio_trial":[500,900,900,750,500,500,900,750,750,250,500,500,250,900,250,250,900,750,500,250,900,900,500,500,500,750,500,900,750,250,750,250,500,500,900,900,500,900,500,750,750,500,900,900,250,900,250,500,250,750,500,250,750,900,250,750,750,250,500,900,250,900,750,900,250,750,250,250,250,250,750,250,900,750,900,250,250,900,750,750,500,250,900,250,500,900,500,250,750,500,750,250,500,750,750,900,250,750,750,750,900,900,500,750,500,900,900,750,250,500,250,500,500,900,750,500,900,500,250,750],"smaller_num":["1","9","18","15","1","2","18","6","18","3","6","2","6","18","3","6","18","15","4","3","9","18","9","1","1","6","1","18","9","2","9","2","1","6","18","18","1","18","1","18","6","6","18","9","2","9","2","5","5","15","4","3","18","9","3","6","6","6","4","18","4","18","15","18","6","3","4","3","4","4","15","2","18","3","9","2","4","18","15","6","2","3","9","3","6","9","4","2","6","5","3","3","9","9","3","18","2","9","9","3","18","18","9","3","9","18","9","3","3","5","3","1","2","18","3","6","18","4","5","9"],"larger_num":["2","10","20","20","2","4","20","8","24","12","12","4","24","20","12","24","20","20","8","12","10","20","18","2","2","8","2","20","12","8","12","8","2","12","20","20","2","20","2","24","8","12","20","10","8","10","8","10","20","20","8","12","24","10","12","8","8","24","8","20","16","20","20","20","24","4","16","12","16","16","20","8","20","4","10","8","16","20","20","8","4","12","10","12","12","10","8","8","8","10","4","12","18","12","4","20","8","12","12","4","20","20","18","4","18","20","10","4","12","10","12","2","4","20","4","12","20","8","20","12"],"correct_side":[2,2,1,1,2,1,1,1,1,2,1,2,2,2,2,2,1,1,1,1,1,2,1,2,2,2,2,1,2,1,2,2,2,1,1,2,2,2,2,1,1,1,1,2,1,2,1,2,2,2,1,2,1,2,2,2,1,1,1,1,1,1,1,1,2,2,1,2,2,2,1,1,1,1,1,1,2,1,1,2,2,1,1,1,1,1,1,1,2,2,1,2,2,2,2,2,1,2,2,1,1,2,2,1,1,1,2,2,2,1,2,2,1,2,2,1,1,1,2,2],"img_shown":["img/500/equaldotanddens/R/12_Ratio_500_L_1_R_2.png","img/900/randomdotsizeEA/R/15_Ratio_900_L_9_R_10.png","img/900/equaldotanddens/L/2_Ratio_900_L_20_R_18.png","img/750/equaldotanddens/L/1_Ratio_750_L_20_R_15.png","img/500/randomdotsizeEA/R/12_Ratio_500_L_1_R_2.png","img/500/equaldotanddens/L/10_Ratio_500_L_4_R_2.png","img/900/equaldotsize/L/8_Ratio_900_L_20_R_18.png","img/750/equaldotsize/L/14_Ratio_750_L_8_R_6.png","img/750/equaldotsize/L/6_Ratio_750_L_24_R_18.png","img/250/randomdotsizeEA/R/11_Ratio_250_L_3_R_12.png","img/500/randomdotsizeEA/L/13_Ratio_500_L_12_R_6.png","img/500/equaldotanddens/R/9_Ratio_500_L_2_R_4.png","img/250/randomdotsizeEA/R/6_Ratio_250_L_6_R_24.png","img/900/equaldotanddens/R/11_Ratio_900_L_18_R_20.png","img/250/equaldotanddens/R/4_Ratio_250_L_3_R_12.png","img/250/equaldotanddens/R/6_Ratio_250_L_6_R_24.png","img/900/equaldotsize/L/8_Ratio_900_L_20_R_18.png","img/750/equaldotsize/L/1_Ratio_750_L_20_R_15.png","img/500/equaldotsize/L/8_Ratio_500_L_8_R_4.png","img/250/equaldotsize/L/15_Ratio_250_L_12_R_3.png","img/900/randomdotsizeEA/L/1_Ratio_900_L_10_R_9.png","img/900/equaldotsize/R/13_Ratio_900_L_18_R_20.png","img/500/equaldotsize/L/4_Ratio_500_L_18_R_9.png","img/500/equaldotsize/R/15_Ratio_500_L_1_R_2.png","img/500/equaldotanddens/R/12_Ratio_500_L_1_R_2.png","img/750/equaldotsize/R/2_Ratio_750_L_6_R_8.png","img/500/randomdotsizeEA/R/15_Ratio_500_L_1_R_2.png","img/900/randomdotsizeEA/L/2_Ratio_900_L_20_R_18.png","img/750/equaldotanddens/R/15_Ratio_750_L_9_R_12.png","img/250/equaldotanddens/L/1_Ratio_250_L_8_R_2.png","img/750/equaldotanddens/R/15_Ratio_750_L_9_R_12.png","img/250/equaldotsize/R/13_Ratio_250_L_2_R_8.png","img/500/equaldotanddens/R/12_Ratio_500_L_1_R_2.png","img/500/equaldotanddens/L/11_Ratio_500_L_12_R_6.png","img/900/equaldotanddens/L/8_Ratio_900_L_20_R_18.png","img/900/equaldotsize/R/13_Ratio_900_L_18_R_20.png","img/500/randomdotsizeEA/R/15_Ratio_500_L_1_R_2.png","img/900/equaldotsize/R/9_Ratio_900_L_18_R_20.png","img/500/randomdotsizeEA/R/15_Ratio_500_L_1_R_2.png","img/750/equaldotsize/L/6_Ratio_750_L_24_R_18.png","img/750/randomdotsizeEA/L/13_Ratio_750_L_8_R_6.png","img/500/equaldotsize/L/11_Ratio_500_L_12_R_6.png","img/900/randomdotsizeEA/L/10_Ratio_900_L_20_R_18.png","img/900/equaldotsize/R/6_Ratio_900_L_9_R_10.png","img/250/equaldotanddens/L/1_Ratio_250_L_8_R_2.png","img/900/equaldotsize/R/3_Ratio_900_L_9_R_10.png","img/250/equaldotsize/L/7_Ratio_250_L_8_R_2.png","img/500/equaldotsize/R/14_Ratio_500_L_5_R_10.png","img/250/equaldotanddens/R/12_Ratio_250_L_5_R_20.png","img/750/equaldotsize/R/5_Ratio_750_L_15_R_20.png","img/500/equaldotanddens/L/8_Ratio_500_L_8_R_4.png","img/250/equaldotsize/R/11_Ratio_250_L_3_R_12.png","img/750/randomdotsizeEA/L/6_Ratio_750_L_24_R_18.png","img/900/equaldotanddens/R/15_Ratio_900_L_9_R_10.png","img/250/randomdotsizeEA/R/4_Ratio_250_L_3_R_12.png","img/750/randomdotsizeEA/R/2_Ratio_750_L_6_R_8.png","img/750/equaldotsize/L/14_Ratio_750_L_8_R_6.png","img/250/randomdotsizeEA/L/5_Ratio_250_L_24_R_6.png","img/500/equaldotsize/L/8_Ratio_500_L_8_R_4.png","img/900/randomdotsizeEA/L/10_Ratio_900_L_20_R_18.png","img/250/equaldotsize/L/2_Ratio_250_L_16_R_4.png","img/900/equaldotsize/L/10_Ratio_900_L_20_R_18.png","img/750/equaldotanddens/L/1_Ratio_750_L_20_R_15.png","img/900/equaldotanddens/L/4_Ratio_900_L_20_R_18.png","img/250/equaldotsize/R/6_Ratio_250_L_6_R_24.png","img/750/randomdotsizeEA/R/7_Ratio_750_L_3_R_4.png","img/250/randomdotsizeEA/L/2_Ratio_250_L_16_R_4.png","img/250/equaldotanddens/R/11_Ratio_250_L_3_R_12.png","img/250/equaldotsize/R/10_Ratio_250_L_4_R_16.png","img/250/equaldotanddens/R/10_Ratio_250_L_4_R_16.png","img/750/equaldotanddens/L/1_Ratio_750_L_20_R_15.png","img/250/equaldotsize/L/3_Ratio_250_L_8_R_2.png","img/900/randomdotsizeEA/L/4_Ratio_900_L_20_R_18.png","img/750/equaldotsize/L/10_Ratio_750_L_4_R_3.png","img/900/equaldotsize/L/1_Ratio_900_L_10_R_9.png","img/250/equaldotanddens/L/1_Ratio_250_L_8_R_2.png","img/250/equaldotsize/R/10_Ratio_250_L_4_R_16.png","img/900/equaldotanddens/L/8_Ratio_900_L_20_R_18.png","img/750/randomdotsizeEA/L/1_Ratio_750_L_20_R_15.png","img/750/equaldotanddens/R/2_Ratio_750_L_6_R_8.png","img/500/equaldotsize/R/9_Ratio_500_L_2_R_4.png","img/250/equaldotanddens/L/15_Ratio_250_L_12_R_3.png","img/900/equaldotanddens/L/1_Ratio_900_L_10_R_9.png","img/250/randomdotsizeEA/L/15_Ratio_250_L_12_R_3.png","img/500/randomdotsizeEA/L/13_Ratio_500_L_12_R_6.png","img/900/randomdotsizeEA/L/1_Ratio_900_L_10_R_9.png","img/500/randomdotsizeEA/L/8_Ratio_500_L_8_R_4.png","img/250/equaldotsize/L/7_Ratio_250_L_8_R_2.png","img/750/equaldotanddens/R/2_Ratio_750_L_6_R_8.png","img/500/equaldotanddens/R/14_Ratio_500_L_5_R_10.png","img/750/equaldotsize/L/10_Ratio_750_L_4_R_3.png","img/250/randomdotsizeEA/R/9_Ratio_250_L_3_R_12.png","img/500/randomdotsizeEA/R/1_Ratio_500_L_9_R_18.png","img/750/equaldotanddens/R/15_Ratio_750_L_9_R_12.png","img/750/equaldotanddens/R/7_Ratio_750_L_3_R_4.png","img/900/equaldotsize/R/9_Ratio_900_L_18_R_20.png","img/250/equaldotanddens/L/3_Ratio_250_L_8_R_2.png","img/750/randomdotsizeEA/R/15_Ratio_750_L_9_R_12.png","img/750/randomdotsizeEA/R/15_Ratio_750_L_9_R_12.png","img/750/equaldotanddens/L/9_Ratio_750_L_4_R_3.png","img/900/randomdotsizeEA/L/2_Ratio_900_L_20_R_18.png","img/900/randomdotsizeEA/R/9_Ratio_900_L_18_R_20.png","img/500/equaldotanddens/R/1_Ratio_500_L_9_R_18.png","img/750/randomdotsizeEA/L/9_Ratio_750_L_4_R_3.png","img/500/equaldotsize/L/4_Ratio_500_L_18_R_9.png","img/900/randomdotsizeEA/L/2_Ratio_900_L_20_R_18.png","img/900/equaldotanddens/R/3_Ratio_900_L_9_R_10.png","img/750/randomdotsizeEA/R/12_Ratio_750_L_3_R_4.png","img/250/randomdotsizeEA/R/11_Ratio_250_L_3_R_12.png","img/500/equaldotsize/L/7_Ratio_500_L_10_R_5.png","img/250/randomdotsizeEA/R/11_Ratio_250_L_3_R_12.png","img/500/randomdotsizeEA/R/12_Ratio_500_L_1_R_2.png","img/500/equaldotsize/L/5_Ratio_500_L_4_R_2.png","img/900/equaldotanddens/R/9_Ratio_900_L_18_R_20.png","img/750/equaldotsize/R/12_Ratio_750_L_3_R_4.png","img/500/equaldotanddens/L/11_Ratio_500_L_12_R_6.png","img/900/equaldotanddens/L/8_Ratio_900_L_20_R_18.png","img/500/randomdotsizeEA/L/8_Ratio_500_L_8_R_4.png","img/250/randomdotsizeEA/R/12_Ratio_250_L_5_R_20.png","img/750/randomdotsizeEA/R/15_Ratio_750_L_9_R_12.png"],"Rat0":[["12_Ratio_0_L_9_R_0.png","13_Ratio_0_L_6_R_0.png","5_Ratio_0_L_2_R_0.png","6_Ratio_0_L_4_R_0.png","8_Ratio_0_L_6_R_0.png"],["1_Ratio_0_L_0_R_17.png","10_Ratio_0_L_0_R_22.png","11_Ratio_0_L_0_R_1.png","14_Ratio_0_L_0_R_24.png","15_Ratio_0_L_0_R_4.png","2_Ratio_0_L_0_R_5.png","3_Ratio_0_L_0_R_17.png","4_Ratio_0_L_0_R_7.png","7_Ratio_0_L_0_R_19.png","9_Ratio_0_L_0_R_15.png"]],"Rat250":[["1_Ratio_250_L_8_R_2.png","14_Ratio_250_L_12_R_3.png","15_Ratio_250_L_12_R_3.png","2_Ratio_250_L_16_R_4.png","3_Ratio_250_L_8_R_2.png","5_Ratio_250_L_24_R_6.png","7_Ratio_250_L_8_R_2.png"],["10_Ratio_250_L_4_R_16.png","11_Ratio_250_L_3_R_12.png","12_Ratio_250_L_5_R_20.png","13_Ratio_250_L_2_R_8.png","4_Ratio_250_L_3_R_12.png","6_Ratio_250_L_6_R_24.png","8_Ratio_250_L_1_R_4.png","9_Ratio_250_L_3_R_12.png"]],"Rat500":[["10_Ratio_500_L_4_R_2.png","11_Ratio_500_L_12_R_6.png","13_Ratio_500_L_12_R_6.png","4_Ratio_500_L_18_R_9.png","5_Ratio_500_L_4_R_2.png","7_Ratio_500_L_10_R_5.png","8_Ratio_500_L_8_R_4.png"],["1_Ratio_500_L_9_R_18.png","12_Ratio_500_L_1_R_2.png","14_Ratio_500_L_5_R_10.png","15_Ratio_500_L_1_R_2.png","2_Ratio_500_L_3_R_6.png","3_Ratio_500_L_10_R_20.png","6_Ratio_500_L_9_R_18.png","9_Ratio_500_L_2_R_4.png"]],"Rat750":[["1_Ratio_750_L_20_R_15.png","10_Ratio_750_L_4_R_3.png","13_Ratio_750_L_8_R_6.png","14_Ratio_750_L_8_R_6.png","6_Ratio_750_L_24_R_18.png","8_Ratio_750_L_4_R_3.png","9_Ratio_750_L_4_R_3.png"],["11_Ratio_750_L_12_R_16.png","12_Ratio_750_L_3_R_4.png","15_Ratio_750_L_9_R_12.png","2_Ratio_750_L_6_R_8.png","3_Ratio_750_L_15_R_20.png","4_Ratio_750_L_15_R_20.png","5_Ratio_750_L_15_R_20.png","7_Ratio_750_L_3_R_4.png"]],"Rat900":[["1_Ratio_900_L_10_R_9.png","10_Ratio_900_L_20_R_18.png","2_Ratio_900_L_20_R_18.png","4_Ratio_900_L_20_R_18.png","8_Ratio_900_L_20_R_18.png"],["11_Ratio_900_L_18_R_20.png","12_Ratio_900_L_18_R_20.png","13_Ratio_900_L_18_R_20.png","14_Ratio_900_L_18_R_20.png","15_Ratio_900_L_9_R_10.png","3_Ratio_900_L_9_R_10.png","5_Ratio_900_L_9_R_10.png","6_Ratio_900_L_9_R_10.png","7_Ratio_900_L_9_R_10.png","9_Ratio_900_L_18_R_20.png"]],"Rat1000":[["10_Ratio_1000_L_16_R_16.png","11_Ratio_1000_L_6_R_6.png","12_Ratio_1000_L_14_R_14.png","13_Ratio_1000_L_20_R_20.png","15_Ratio_1000_L_15_R_15.png","2_Ratio_1000_L_17_R_17.png","4_Ratio_1000_L_9_R_9.png","5_Ratio_1000_L_6_R_6.png","6_Ratio_1000_L_19_R_19.png","8_Ratio_1000_L_14_R_14.png","9_Ratio_1000_L_25_R_25.png"],["1_Ratio_1000_L_1_R_1.png","14_Ratio_1000_L_17_R_17.png","3_Ratio_1000_L_17_R_17.png","7_Ratio_1000_L_6_R_6.png"]]}},{"start_time":1551900821207,"click_time":1551900822521,"finger_time":1551900822100,"fix_duration":1264.3613765616583,"trial":1,"RT":893,"MT":421,"sideResp":1,"stimulus":"img/900/randomdotsizeEA/R/15_Ratio_900_L_9_R_10.png","xmouse":[812,812,812,809,800,799,797,797,797,797,797,797,797,797,797,797,797,797,797,797,797,797,797,797,797,797,797,797,797,797,797,797,797,797,797,797,797,797,797,797,797,797,797,796,785,770,755,740,718,717,717,716,711,704,661,653,647,641,612,587,557,528,497,487,480,472],"ymouse":[621,621,621,621,618,617,616,616,616,616,616,616,616,616,616,616,616,616,616,616,616,616,616,616,616,616,616,616,616,616,616,616,616,616,616,616,616,616,616,616,616,616,616,610,569,534,494,447,348,323,298,291,278,264,195,167,135,96,21,0,0,0,0,0,0,1],"timestamp_mouse":[13,36,53,74,94,114,133,153,174,193,213,234,254,273,293,312,333,353,374,392,412,433,454,473,492,513,533,553,573,592,612,634,653,673,693,713,733,752,772,793,813,833,853,872,893,913,933,953,973,993,1013,1033,1053,1074,1094,1113,1133,1154,1174,1192,1214,1234,1254,1273,1294,1313],"xSR":741.5,"ySR":573.95,"xT1":424.9,"yT1":0,"xT2":1058.1,"yT2":0,"toosoon":0,"cond_shown":"randomdotsizeEA","ratio_trial":900,"smaller_num":"9","larger_num":"10","correct_side":2,"subjID":"samuelalexanderbarraganfonseca38","gender":"0","age":"11","school":"6"},{"start_time":1551900824725,"click_time":1551900826120,"finger_time":1551900825500,"fix_duration":484.32779400622684,"trial":2,"RT":775,"MT":620,"sideResp":2,"stimulus":"img/900/equaldotanddens/L/2_Ratio_900_L_20_R_18.png","xmouse":[811,812,813,813,813,813,813,813,813,813,813,813,813,813,813,813,813,813,813,813,813,813,813,813,813,813,813,813,813,813,813,813,813,814,817,824,830,841,844,846,846,846,846,846,846,847,850,857,865,874,883,890,898,918,929,940,950,968,975,982,988,993,997,1002,1007,1011,1016,1030,1044,1060],"ymouse":[645,645,649,650,650,650,650,650,650,650,650,650,650,650,650,650,650,650,650,650,650,650,650,650,650,650,650,650,650,650,650,650,650,651,649,642,636,628,625,624,624,624,623,623,623,622,618,607,590,569,546,521,493,426,400,374,347,286,260,235,216,201,189,174,164,159,152,129,113,97],"timestamp_mouse":[15,34,55,75,95,115,136,154,175,196,215,234,255,275,296,315,334,354,375,394,415,435,456,475,495,515,535,555,575,594,616,636,656,675,696,715,735,756,775,795,816,836,855,875,895,915,935,956,974,996,1014,1035,1055,1075,1095,1116,1135,1155,1175,1194,1215,1235,1255,1275,1296,1315,1335,1355,1376,1395],"xSR":741.5,"ySR":573.95,"xT1":424.9,"yT1":0,"xT2":1058.1,"yT2":0,"toosoon":0,"cond_shown":"equaldotanddens","ratio_trial":900,"smaller_num":"18","larger_num":"20","correct_side":1,"subjID":"samuelalexanderbarraganfonseca38","gender":"0","age":"11","school":"6"},{"start_time":1551900829484,"click_time":1551900830580,"finger_time":1551900830100,"fix_duration":663.5032965936023,"trial":3,"RT":616,"MT":480,"sideResp":1,"stimulus":"img/750/equaldotanddens/L/1_Ratio_750_L_20_R_15.png","xmouse":[767,767,767,767,767,767,767,767,767,767,767,767,767,767,767,767,767,767,767,767,767,767,767,767,767,767,767,767,767,767,765,760,747,731,685,655,621,565,547,496,445,428,413,400,388,388,388,388,388,388,390,394,401,415,430],"ymouse":[599,599,599,599,599,599,599,599,599,599,599,599,599,599,599,599,599,599,599,599,599,599,599,599,599,599,599,599,599,597,570,538,491,434,299,234,166,65,31,0,0,0,0,0,0,0,0,0,0,0,9,14,20,26,28],"timestamp_mouse":[32,36,56,76,96,117,137,157,177,195,217,235,257,276,296,316,337,355,377,396,417,436,457,476,495,516,537,556,576,595,616,637,656,677,696,716,736,756,776,796,815,836,857,876,897,915,936,955,976,995,1016,1036,1056,1077,1096],"xSR":741.5,"ySR":573.95,"xT1":424.9,"yT1":0,"xT2":1058.1,"yT2":0,"toosoon":0,"cond_shown":"equaldotanddens","ratio_trial":750,"smaller_num":"15","larger_num":"20","correct_side":1,"subjID":"samuelalexanderbarraganfonseca38","gender":"0","age":"11","school":"6"},{"start_time":1551900836036,"click_time":1551900837780,"finger_time":1551900837241,"fix_duration":753.3028497800789,"trial":4,"RT":1205,"MT":539,"sideResp":2,"stimulus":"img/500/randomdotsizeEA/R/12_Ratio_500_L_1_R_2.png","xmouse":[785,785,785,785,785,785,785,785,785,785,785,785,785,785,785,785,785,785,785,785,785,785,785,785,785,785,785,785,785,785,785,785,785,785,785,785,785,785,785,785,785,785,785,785,785,785,785,785,785,785,785,785,785,785,785,785,785,785,789,798,823,850,887,939,951,957,960,961,964,965,967,969,973,975,978,983,987,992,1005,1020,1030,1038,1042,1047,1049,1054,1056,1060],"ymouse":[606,606,606,606,606,606,606,606,606,606,606,606,606,606,606,606,606,606,606,606,606,606,606,606,606,606,606,606,606,606,606,606,606,606,606,606,606,606,606,606,606,606,606,606,606,606,606,606,606,606,606,606,606,606,606,606,606,604,597,584,556,525,483,397,358,329,303,284,250,245,232,222,211,206,200,193,185,179,164,152,143,135,125,109,100,90,81,64],"timestamp_mouse":[10,28,45,64,83,104,124,145,165,185,203,224,244,265,285,303,323,345,363,383,405,423,444,463,485,505,524,544,564,585,604,624,644,663,684,704,725,743,764,785,803,823,845,864,885,904,924,945,964,984,1003,1023,1044,1064,1083,1104,1124,1144,1163,1184,1205,1225,1245,1265,1284,1304,1324,1344,1364,1384,1404,1424,1445,1464,1485,1505,1523,1544,1564,1583,1605,1624,1645,1664,1684,1704,1724,1744],"xSR":741.5,"ySR":573.95,"xT1":424.9,"yT1":0,"xT2":1058.1,"yT2":0,"toosoon":0,"cond_shown":"randomdotsizeEA","ratio_trial":500,"smaller_num":"1","larger_num":"2","correct_side":2,"subjID":"samuelalexanderbarraganfonseca38","gender":"0","age":"11","school":"6"},{"start_time":1551900849355,"click_time":1551900850280,"finger_time":1551900849999,"fix_duration":873.1955494253093,"trial":5,"RT":644,"MT":281,"sideResp":1,"stimulus":"img/500/equaldotanddens/L/10_Ratio_500_L_4_R_2.png","xmouse":[783,783,783,783,783,783,783,783,783,783,783,783,783,783,783,783,783,783,783,783,783,783,783,783,783,783,783,783,783,783,783,783,779,768,720,683,589,523,468,429,412,407,408,412,422,431,441],"ymouse":[616,616,616,616,616,616,616,616,616,616,616,616,616,616,616,616,616,616,616,616,616,616,616,616,616,616,616,616,616,616,613,601,566,534,449,399,295,248,209,180,166,161,152,143,127,112,97],"timestamp_mouse":[10,24,45,66,85,104,124,145,165,184,205,225,245,266,285,304,326,345,365,385,405,425,445,466,485,504,525,545,565,584,604,626,644,664,685,705,725,745,766,785,805,826,846,864,884,905,925],"xSR":741.5,"ySR":573.95,"xT1":424.9,"yT1":0,"xT2":1058.1,"yT2":0,"toosoon":0,"cond_shown":"equaldotanddens","ratio_trial":500,"smaller_num":"2","larger_num":"4","correct_side":1,"subjID":"samuelalexanderbarraganfonseca38","gender":"0","age":"11","school":"6"},{"start_time":1551900858665,"click_time":1551900860180,"finger_time":1551900859380,"fix_duration":822.7279556521652,"trial":6,"RT":715,"MT":800,"sideResp":2,"stimulus":"img/900/equaldotsize/L/8_Ratio_900_L_20_R_18.png","xmouse":[764,764,764,764,764,764,764,764,764,764,764,764,764,764,764,764,764,764,764,764,764,764,764,764,764,764,764,764,764,764,764,764,764,765,765,765,754,734,688,653,617,613,613,613,613,618,619,621,621,617,600,595,591,590,590,590,590,605,663,729,801,951,1037,1123,1192,1231,1233,1233,1233,1233,1233,1228,1216,1193,1159,1081],"ymouse":[631,631,631,631,631,631,631,631,631,631,631,631,631,631,631,631,631,631,631,631,631,631,631,631,631,631,631,631,631,631,631,631,631,620,610,564,523,477,406,364,314,304,300,298,297,285,273,259,242,221,165,150,141,137,137,137,141,161,201,223,235,231,212,188,167,150,149,149,149,149,142,129,114,91,72,32],"timestamp_mouse":[15,35,55,75,96,114,135,155,176,194,214,235,256,275,294,315,335,355,375,395,416,434,456,474,495,515,534,555,574,596,615,635,655,675,695,715,734,755,774,795,815,834,855,875,895,915,934,956,976,995,1015,1034,1056,1074,1095,1116,1134,1154,1175,1195,1214,1235,1254,1275,1295,1315,1335,1354,1375,1395,1415,1434,1455,1475,1495,1515],"xSR":741.5,"ySR":573.95,"xT1":424.9,"yT1":0,"xT2":1058.1,"yT2":0,"toosoon":0,"cond_shown":"equaldotsize","ratio_trial":900,"smaller_num":"18","larger_num":"20","correct_side":1,"subjID":"samuelalexanderbarraganfonseca38","gender":"0","age":"11","school":"6"},{"start_time":1551900863892,"click_time":1551900865100,"finger_time":1551900864641,"fix_duration":250,"trial":7,"RT":749,"MT":459,"sideResp":1,"stimulus":"img/750/equaldotsize/L/14_Ratio_750_L_8_R_6.png","xmouse":[757,757,757,757,757,757,757,758,760,760,760,760,760,760,760,760,760,760,760,760,760,760,760,760,760,760,760,760,760,760,760,760,760,760,760,760,761,741,712,664,562,513,468,428,405,394,392,392,392,392,392,392,392,392,393,395,398,408,416,424,435],"ymouse":[593,593,594,597,600,608,612,613,616,616,616,616,616,616,616,616,616,616,616,616,616,616,616,616,616,616,616,616,616,616,616,616,616,616,616,616,615,580,529,458,314,246,183,128,96,71,66,66,66,66,58,57,56,55,53,53,53,51,50,49,47],"timestamp_mouse":[10,32,49,68,87,108,128,148,168,189,207,228,248,268,287,307,329,349,367,387,408,427,447,469,488,509,529,548,568,588,608,629,647,668,687,708,727,749,769,788,808,828,848,869,888,908,927,949,968,988,1007,1027,1048,1068,1088,1107,1128,1147,1168,1188,1208],"xSR":741.5,"ySR":573.95,"xT1":424.9,"yT1":0,"xT2":1058.1,"yT2":0,"toosoon":0,"cond_shown":"equaldotsize","ratio_trial":750,"smaller_num":"6","larger_num":"8","correct_side":1,"subjID":"samuelalexanderbarraganfonseca38","gender":"0","age":"11","school":"6"},{"start_time":1551900867539,"click_time":1551900868820,"finger_time":1551900868220,"fix_duration":1056.2816462299913,"trial":8,"RT":681,"MT":600,"sideResp":1,"stimulus":"img/750/equaldotsize/L/6_Ratio_750_L_24_R_18.png","xmouse":[778,778,778,778,778,778,778,778,778,778,778,778,778,778,778,778,778,778,778,778,778,778,778,778,778,778,778,778,778,778,778,778,772,762,752,741,734,724,714,713,711,711,711,723,736,770,787,794,780,746,703,666,627,608,587,553,531,512,492,491,490,490,490,488,488],"ymouse":[608,608,608,608,608,608,608,608,608,608,608,608,608,608,608,608,608,608,608,608,608,608,608,608,608,608,608,608,608,608,608,607,594,578,564,544,531,515,497,492,488,486,483,467,455,431,411,356,316,269,225,193,168,158,152,142,135,130,121,120,120,119,116,105,99],"timestamp_mouse":[9,22,42,61,81,102,120,142,161,180,202,222,241,260,282,301,322,342,361,381,401,422,440,461,482,500,521,541,562,581,602,621,642,662,681,701,722,742,761,781,800,820,840,860,882,902,921,941,961,981,1000,1021,1041,1060,1081,1101,1120,1141,1160,1180,1201,1221,1241,1261,1280],"xSR":741.5,"ySR":573.95,"xT1":424.9,"yT1":0,"xT2":1058.1,"yT2":0,"toosoon":0,"cond_shown":"equaldotsize","ratio_trial":750,"smaller_num":"18","larger_num":"24","correct_side":1,"subjID":"samuelalexanderbarraganfonseca38","gender":"0","age":"11","school":"6"},{"start_time":1551900872646,"click_time":1551900873840,"finger_time":1551900873499,"fix_duration":345.041073891061,"trial":9,"RT":853,"MT":341,"sideResp":2,"stimulus":"img/250/randomdotsizeEA/R/11_Ratio_250_L_3_R_12.png","xmouse":[786,786,786,786,786,786,786,786,786,786,786,786,786,786,786,786,786,786,786,786,786,786,786,786,786,786,786,786,786,786,786,786,786,786,786,786,786,786,786,786,792,805,848,879,908,931,951,957,962,967,972,982,990,1000,1012,1024,1049,1059,1066,1073],"ymouse":[656,656,656,656,656,656,656,656,656,656,656,656,656,656,656,656,656,656,656,656,656,656,656,656,656,656,656,656,656,656,656,656,656,656,656,656,656,656,656,652,638,618,551,507,459,417,367,351,337,323,314,290,270,247,220,193,146,130,115,97],"timestamp_mouse":[14,35,53,74,95,115,133,154,173,194,213,234,254,275,295,313,335,354,373,394,415,434,454,474,493,513,534,554,575,594,615,635,654,675,695,715,733,754,773,794,814,834,853,873,894,913,934,953,974,993,1014,1034,1054,1073,1094,1113,1134,1154,1174,1193],"xSR":741.5,"ySR":573.95,"xT1":424.9,"yT1":0,"xT2":1058.1,"yT2":0,"toosoon":0,"cond_shown":"randomdotsizeEA","ratio_trial":250,"smaller_num":"3","larger_num":"12","correct_side":2,"subjID":"samuelalexanderbarraganfonseca38","gender":"0","age":"11","school":"6"},{"start_time":1551900890191,"click_time":1551900891319,"finger_time":1551900891079,"fix_duration":970.7170941254442,"trial":10,"RT":888,"MT":240,"sideResp":2,"stimulus":"img/500/randomdotsizeEA/L/13_Ratio_500_L_12_R_6.png","xmouse":[792,792,792,792,792,792,792,792,792,792,792,792,792,792,792,792,792,792,792,792,792,792,792,792,792,792,792,792,792,792,792,792,792,791,792,792,792,792,792,792,792,792,792,811,876,917,954,986,999,1010,1010,1010,1010,1020,1066,1082,1094],"ymouse":[649,649,649,649,649,649,649,649,649,649,649,649,649,649,649,649,649,649,649,649,649,649,649,649,649,649,649,649,649,649,649,649,649,648,642,642,642,642,642,642,642,642,638,614,543,505,476,451,438,419,409,393,366,309,191,132,71],"timestamp_mouse":[8,31,49,70,90,110,128,149,169,189,210,230,248,269,288,310,329,349,370,388,409,429,449,468,489,510,530,549,570,589,608,630,649,668,688,709,729,749,768,790,809,830,849,868,888,910,930,948,969,988,1010,1029,1061,1069,1089,1110,1128],"xSR":741.5,"ySR":573.95,"xT1":424.9,"yT1":0,"xT2":1058.1,"yT2":0,"toosoon":0,"cond_shown":"randomdotsizeEA","ratio_trial":500,"smaller_num":"6","larger_num":"12","correct_side":1,"subjID":"samuelalexanderbarraganfonseca38","gender":"0","age":"11","school":"6"},{"start_time":1551900896533,"click_time":1551900897539,"finger_time":1551900897200,"fix_duration":312.0526662594585,"trial":11,"RT":667,"MT":339,"sideResp":2,"stimulus":"img/500/equaldotanddens/R/9_Ratio_500_L_2_R_4.png","xmouse":[744,744,743,743,743,743,743,743,743,743,743,743,743,743,743,743,743,743,743,743,743,743,743,743,743,743,743,743,743,743,743,743,748,761,794,875,935,1018,1029,1030,1030,1030,1031,1036,1041,1045,1047,1057,1066,1077,1087],"ymouse":[628,627,626,625,625,625,625,625,625,625,625,625,625,625,625,625,625,625,625,625,625,625,625,625,625,625,625,625,625,620,616,610,587,563,510,402,325,221,207,206,206,206,205,195,188,180,175,159,145,125,97],"timestamp_mouse":[9,30,47,67,88,107,126,147,166,187,207,228,246,267,287,307,326,347,367,387,408,427,447,467,487,507,527,548,568,586,608,627,647,667,687,707,727,747,767,786,808,828,847,866,886,908,928,948,967,987,1006],"xSR":741.5,"ySR":573.95,"xT1":424.9,"yT1":0,"xT2":1058.1,"yT2":0,"toosoon":0,"cond_shown":"equaldotanddens","ratio_trial":500,"smaller_num":"2","larger_num":"4","correct_side":2,"subjID":"samuelalexanderbarraganfonseca38","gender":"0","age":"11","school":"6"},{"start_time":1551900900055,"click_time":1551900901081,"finger_time":1551900900699,"fix_duration":491.3574032438771,"trial":12,"RT":644,"MT":382,"sideResp":2,"stimulus":"img/250/randomdotsizeEA/R/6_Ratio_250_L_6_R_24.png","xmouse":[758,758,758,758,758,758,758,761,770,773,773,773,773,773,773,773,773,773,773,773,773,773,773,773,773,773,773,773,773,773,773,782,877,921,950,971,987,987,987,987,987,987,988,988,989,997,1010,1014,1020,1057,1100,1130],"ymouse":[603,603,603,603,603,603,603,607,612,616,616,616,616,616,616,616,616,616,613,611,611,611,611,611,611,611,611,611,611,610,604,588,472,388,298,222,155,142,142,142,142,140,138,138,137,135,129,128,128,116,100,83],"timestamp_mouse":[10,35,45,64,86,105,124,145,166,185,205,226,245,264,285,306,325,345,365,384,405,425,445,466,486,504,526,544,564,586,605,625,644,665,685,705,724,746,765,785,806,826,845,865,886,906,925,944,965,986,1004,1026],"xSR":741.5,"ySR":573.95,"xT1":424.9,"yT1":0,"xT2":1058.1,"yT2":0,"toosoon":0,"cond_shown":"randomdotsizeEA","ratio_trial":250,"smaller_num":"6","larger_num":"24","correct_side":2,"subjID":"samuelalexanderbarraganfonseca38","gender":"0","age":"11","school":"6"},{"start_time":1551900904271,"click_time":1551900907180,"finger_time":1551900904759,"fix_duration":1370.411317425616,"trial":13,"RT":488,"MT":2421,"sideResp":1,"stimulus":"img/900/equaldotanddens/R/11_Ratio_900_L_18_R_20.png","xmouse":[787,787,787,787,787,787,787,786,786,784,782,781,781,781,780,779,779,779,777,776,775,774,772,770,769,766,765,765,765,765,765,765,765,765,765,765,765,765,765,765,765,765,765,765,765,765,765,765,765,765,765,765,765,765,765,765,765,765,765,765,762,760,758,758,757,756,756,756,756,756,756,756,756,756,754,751,751,749,748,748,748,748,748,748,748,748,748,748,748,747,746,745,744,744,742,742,742,742,742,742,742,742,742,742,742,742,742,742,742,742,742,746,761,781,792,795,786,770,715,641,517,431,375,345,332,328,335,336,345,357,379,446,475,497,507,507,507,507,507,507,507,507,507,507,508,500],"ymouse":[626,626,626,626,626,626,626,627,628,633,637,639,640,642,644,647,649,650,652,653,654,657,662,668,674,683,685,685,685,685,685,685,685,685,685,685,685,692,707,712,713,713,713,713,713,713,713,713,713,713,713,713,713,713,713,713,713,713,713,713,709,704,697,695,693,691,691,691,691,691,691,691,690,690,687,679,678,675,672,672,672,672,672,672,672,672,672,672,672,672,672,675,677,679,681,682,682,682,682,682,682,682,682,682,682,682,682,682,682,679,632,555,470,407,380,374,373,373,390,404,336,260,169,78,5,0,0,0,0,0,0,0,0,0,0,0,0,0,0,0,0,0,0,0,0,12],"timestamp_mouse":[10,36,49,69,89,109,129,149,169,189,210,230,250,269,289,310,330,348,370,389,409,428,449,469,488,509,529,548,569,589,610,630,649,668,689,710,729,748,769,790,810,829,849,870,889,910,929,950,969,989,1010,1028,1048,1068,1089,1110,1129,1149,1168,1188,1209,1228,1249,1269,1289,1310,1329,1349,1370,1390,1409,1428,1450,1469,1489,1509,1529,1549,1569,1590,1609,1629,1650,1669,1690,1708,1729,1749,1768,1788,1808,1829,1849,1868,1888,1909,1930,1948,1969,1989,2009,2028,2048,2069,2089,2109,2129,2148,2169,2189,2209,2229,2248,2269,2289,2309,2328,2349,2369,2390,2409,2429,2448,2469,2489,2509,2528,2549,2569,2590,2609,2630,2650,2670,2690,2709,2729,2750,2769,2789,2809,2828,2848,2869,2890,2908],"xSR":741.5,"ySR":573.95,"xT1":424.9,"yT1":0,"xT2":1058.1,"yT2":0,"toosoon":0,"cond_shown":"equaldotanddens","ratio_trial":900,"smaller_num":"18","larger_num":"20","correct_side":2,"subjID":"samuelalexanderbarraganfonseca38","gender":"0","age":"11","school":"6"},{"start_time":1551900909232,"click_time":1551900909920,"finger_time":1551900909659,"fix_duration":250,"trial":14,"RT":427,"MT":261,"sideResp":2,"stimulus":"img/250/equaldotanddens/R/4_Ratio_250_L_3_R_12.png","xmouse":[795,811,829,829,831,832,835,836,837,837,837,837,837,837,837,837,834,831,829,827,827,827,827,827,827,827,827,827,827,830,851,884,1011,1083,1145],"ymouse":[609,631,650,650,650,650,650,648,648,648,648,648,648,648,648,648,645,643,634,607,586,566,559,559,559,559,559,559,555,548,506,445,255,137,30],"timestamp_mouse":[8,32,48,67,88,108,127,148,168,189,209,228,249,268,288,308,328,348,368,387,408,427,448,468,489,508,529,548,567,588,608,628,648,667,687],"xSR":741.5,"ySR":573.95,"xT1":424.9,"yT1":0,"xT2":1058.1,"yT2":0,"toosoon":0,"cond_shown":"equaldotanddens","ratio_trial":250,"smaller_num":"3","larger_num":"12","correct_side":2,"subjID":"samuelalexanderbarraganfonseca38","gender":"0","age":"11","school":"6"},{"start_time":1551900913126,"click_time":1551900916679,"finger_time":1551900913180,"fix_duration":1326.571486383151,"trial":15,"RT":54,"MT":3499,"sideResp":2,"stimulus":"img/250/equaldotanddens/R/6_Ratio_250_L_6_R_24.png","xmouse":[785,784,783,782,782,782,782,782,776,774,771,770,770,770,770,770,770,766,761,759,759,759,759,759,759,759,759,759,759,759,759,759,759,759,759,759,759,759,759,759,759,759,757,752,743,739,738,738,736,736,736,736,736,736,736,747,749,756,759,763,767,771,792,798,799,799,799,799,799,799,799,799,797,793,783,767,744,720,701,698,697,697,697,696,696,696,696,696,696,696,696,696,696,696,696,696,696,696,696,696,695,694,694,694,694,694,694,694,694,694,694,694,694,692,689,685,682,682,681,682,684,686,689,690,690,690,691,693,693,695,695,696,702,705,708,710,710,714,731,753,779,798,805,807,807,804,801,800,798,798,798,797,793,788,787,787,787,787,787,787,787,787,791,816,832,901,948,1017,1071,1089,1098,1098,1098,1098,1098,1098,1099,1099],"ymouse":[577,575,573,573,573,573,573,572,555,546,537,534,533,532,532,532,529,521,511,507,506,506,506,506,506,506,506,506,506,506,506,506,506,506,506,506,506,506,506,506,506,506,515,551,599,611,613,613,611,609,609,609,609,609,607,603,603,600,599,598,598,598,601,603,603,603,603,603,603,604,605,612,626,631,632,632,631,629,633,636,638,638,638,638,638,638,638,638,638,638,638,638,638,638,638,638,638,638,638,638,637,634,631,631,631,631,631,631,631,630,630,626,615,605,592,575,569,565,562,559,554,550,544,533,531,527,523,515,512,510,508,507,496,489,486,484,484,486,505,534,563,582,592,596,599,603,609,612,617,617,617,618,618,621,621,621,621,621,621,621,621,616,594,548,524,401,291,69,0,0,0,0,0,0,0,0,0,3],"timestamp_mouse":[14,34,54,82,94,113,135,155,175,195,213,235,255,274,294,315,334,354,375,393,414,434,455,474,494,514,535,553,574,594,614,634,654,674,694,714,733,754,775,794,813,835,854,874,895,914,933,954,974,994,1014,1033,1054,1074,1094,1114,1135,1154,1174,1194,1215,1233,1255,1275,1295,1314,1333,1354,1374,1394,1414,1434,1454,1474,1494,1514,1535,1554,1573,1594,1614,1635,1654,1674,1694,1715,1735,1754,1773,1794,1814,1833,1853,1874,1894,1914,1933,1954,1973,1994,2014,2034,2054,2074,2094,2114,2134,2154,2175,2195,2214,2235,2254,2273,2294,2315,2333,2355,2374,2394,2414,2435,2454,2475,2494,2514,2535,2554,2574,2594,2614,2635,2655,2674,2694,2715,2734,2754,2774,2795,2815,2835,2853,2873,2893,2915,2934,2954,2974,2994,3013,3035,3054,3074,3093,3114,3134,3154,3174,3194,3214,3234,3254,3273,3293,3315,3335,3354,3374,3394,3414,3434,3455,3475,3495,3515,3534,3553],"xSR":741.5,"ySR":573.95,"xT1":424.9,"yT1":0,"xT2":1058.1,"yT2":0,"toosoon":0,"cond_shown":"equaldotanddens","ratio_trial":250,"smaller_num":"6","larger_num":"24","correct_side":2,"subjID":"samuelalexanderbarraganfonseca38","gender":"0","age":"11","school":"6"},{"start_time":1551900936953,"click_time":1551900937661,"finger_time":1551900937602,"fix_duration":412.45630254117015,"trial":16,"RT":649,"MT":59,"sideResp":2,"stimulus":"img/900/equaldotsize/L/8_Ratio_900_L_20_R_18.png","xmouse":[790,790,790,790,790,790,790,790,790,789,789,789,789,789,789,789,789,789,789,789,789,789,789,789,789,789,789,789,789,789,790,815,865,925,1003,1096],"ymouse":[633,633,633,633,633,633,633,633,624,618,614,612,610,610,610,610,610,610,610,610,610,610,610,610,610,610,610,610,610,610,607,581,524,405,237,64],"timestamp_mouse":[20,37,48,67,87,108,127,148,168,188,208,228,247,267,287,307,328,347,369,389,407,427,447,468,487,508,528,548,567,588,608,627,649,667,687,707],"xSR":741.5,"ySR":573.95,"xT1":424.9,"yT1":0,"xT2":1058.1,"yT2":0,"toosoon":0,"cond_shown":"equaldotsize","ratio_trial":900,"smaller_num":"18","larger_num":"20","correct_side":1,"subjID":"samuelalexanderbarraganfonseca38","gender":"0","age":"11","school":"6"},{"start_time":1551900939991,"click_time":1551900941381,"finger_time":1551900940681,"fix_duration":1308.3529171359748,"trial":17,"RT":690,"MT":700,"sideResp":2,"stimulus":"img/750/equaldotsize/L/1_Ratio_750_L_20_R_15.png","xmouse":[798,798,798,798,798,798,798,798,798,798,798,798,798,798,798,798,798,798,798,798,798,798,798,798,798,798,798,798,798,798,798,798,799,803,806,806,806,806,801,757,697,680,656,653,653,658,659,662,673,686,736,781,865,906,961,990,1013,1027,1032,1033,1033,1033,1033,1033,1033,1033,1033,1034,1049,1097],"ymouse":[607,607,607,607,607,607,607,607,607,607,607,607,607,607,607,607,607,607,607,607,607,607,607,607,607,607,607,607,607,607,607,607,593,576,552,546,544,541,533,483,410,383,316,279,260,250,249,249,249,247,229,211,181,167,143,127,109,97,90,87,86,86,86,86,86,86,85,85,82,67],"timestamp_mouse":[10,33,50,69,89,109,130,150,171,190,209,231,249,270,289,310,329,350,370,390,409,431,450,470,491,509,529,551,569,589,610,630,650,669,690,709,729,750,770,789,809,829,850,871,890,910,929,950,970,989,1010,1030,1049,1069,1089,1109,1129,1150,1171,1191,1210,1229,1249,1270,1289,1309,1330,1350,1370,1390],"xSR":741.5,"ySR":573.95,"xT1":424.9,"yT1":0,"xT2":1058.1,"yT2":0,"toosoon":0,"cond_shown":"equaldotsize","ratio_trial":750,"smaller_num":"15","larger_num":"20","correct_side":1,"subjID":"samuelalexanderbarraganfonseca38","gender":"0","age":"11","school":"6"},{"start_time":1551900945076,"click_time":1551900945981,"finger_time":1551900945761,"fix_duration":673.3428505611225,"trial":18,"RT":685,"MT":220,"sideResp":1,"stimulus":"img/500/equaldotsize/L/8_Ratio_500_L_8_R_4.png","xmouse":[765,765,765,765,765,765,765,765,765,765,765,765,765,765,765,765,765,765,765,765,765,765,765,765,765,765,765,765,765,765,765,765,764,760,742,674,630,596,588,559,517,503,492,483,476,461],"ymouse":[622,622,622,622,622,622,622,622,622,622,622,622,622,622,622,622,622,622,622,622,622,622,622,622,622,622,622,622,622,622,622,622,609,601,570,476,409,317,295,233,191,177,157,136,113,52],"timestamp_mouse":[10,31,44,64,84,104,126,145,164,186,205,224,245,265,285,305,325,345,365,384,404,424,445,464,484,504,524,544,565,584,605,625,646,664,685,705,724,745,764,784,805,824,845,865,885,905],"xSR":741.5,"ySR":573.95,"xT1":424.9,"yT1":0,"xT2":1058.1,"yT2":0,"toosoon":0,"cond_shown":"equaldotsize","ratio_trial":500,"smaller_num":"4","larger_num":"8","correct_side":1,"subjID":"samuelalexanderbarraganfonseca38","gender":"0","age":"11","school":"6"},{"start_time":1551900947913,"click_time":1551900948842,"finger_time":1551900948402,"fix_duration":250,"trial":19,"RT":489,"MT":440,"sideResp":1,"stimulus":"img/250/equaldotsize/L/15_Ratio_250_L_12_R_3.png","xmouse":[759,759,759,759,759,760,760,760,760,760,760,760,760,760,760,760,760,760,760,760,760,758,752,747,732,723,681,605,417,339,281,247,232,225,225,225,225,225,225,229,261,315,354,391,399,410,429],"ymouse":[658,658,658,658,658,657,657,657,657,657,657,657,657,657,657,657,657,657,657,657,656,653,649,647,640,633,577,481,261,152,70,17,0,0,0,0,0,0,0,0,8,22,28,30,29,28,27],"timestamp_mouse":[9,28,47,68,88,107,128,147,167,189,207,227,248,267,289,307,327,347,367,388,407,428,448,468,489,508,527,548,567,587,608,627,648,668,687,709,727,748,767,788,807,828,848,867,887,908,928],"xSR":741.5,"ySR":573.95,"xT1":424.9,"yT1":0,"xT2":1058.1,"yT2":0,"toosoon":0,"cond_shown":"equaldotsize","ratio_trial":250,"smaller_num":"3","larger_num":"12","correct_side":1,"subjID":"samuelalexanderbarraganfonseca38","gender":"0","age":"11","school":"6"},{"start_time":1551900950391,"click_time":1551900951560,"finger_time":1551900951140,"fix_duration":250,"trial":20,"RT":749,"MT":420,"sideResp":2,"stimulus":"img/900/randomdotsizeEA/L/1_Ratio_900_L_10_R_9.png","xmouse":[779,779,779,779,779,779,779,779,779,779,779,779,779,779,779,779,779,779,779,779,779,779,777,777,777,777,777,777,777,777,776,776,776,776,776,780,792,812,840,850,850,850,850,854,864,867,871,875,878,883,893,934,962,983,1012,1025,1038,1054,1075],"ymouse":[641,641,641,641,641,641,641,641,641,641,640,640,640,640,640,640,640,640,640,640,640,640,635,634,634,634,634,634,634,634,634,635,635,635,634,618,582,522,457,351,291,214,173,138,90,75,65,59,58,57,57,57,55,49,34,27,20,12,9],"timestamp_mouse":[10,33,50,70,90,109,130,149,169,189,209,229,251,269,289,309,330,349,369,390,410,429,451,469,489,509,530,549,569,589,609,631,651,669,690,709,730,749,770,790,810,829,851,869,889,909,929,951,970,990,1009,1030,1049,1069,1090,1109,1130,1149,1169],"xSR":741.5,"ySR":573.95,"xT1":424.9,"yT1":0,"xT2":1058.1,"yT2":0,"toosoon":0,"cond_shown":"randomdotsizeEA","ratio_trial":900,"smaller_num":"9","larger_num":"10","correct_side":1,"subjID":"samuelalexanderbarraganfonseca38","gender":"0","age":"11","school":"6"},{"start_time":1551900955872,"click_time":1551900956760,"finger_time":1551900956562,"fix_duration":1489.4281812719976,"trial":21,"RT":690,"MT":198,"sideResp":1,"stimulus":"img/900/equaldotsize/R/13_Ratio_900_L_18_R_20.png","xmouse":[770,770,770,770,770,770,777,789,797,800,800,800,800,800,800,800,800,800,800,800,800,800,800,800,800,800,800,800,800,800,800,800,802,804,806,804,797,784,750,702,602,562,523,482,443],"ymouse":[612,612,612,612,612,612,614,616,617,618,618,618,618,618,618,618,618,618,618,618,618,618,618,618,618,618,618,618,618,618,618,611,596,581,563,527,506,485,448,411,320,263,204,148,96],"timestamp_mouse":[11,37,49,69,89,108,128,149,168,189,208,228,248,269,289,309,329,349,369,389,408,428,448,469,488,509,530,549,569,588,608,628,648,668,690,709,728,748,770,789,808,828,848,868,888],"xSR":741.5,"ySR":573.95,"xT1":424.9,"yT1":0,"xT2":1058.1,"yT2":0,"toosoon":0,"cond_shown":"equaldotsize","ratio_trial":900,"smaller_num":"18","larger_num":"20","correct_side":2,"subjID":"samuelalexanderbarraganfonseca38","gender":"0","age":"11","school":"6"},{"start_time":1551900958903,"click_time":1551900960000,"finger_time":1551900959541,"fix_duration":859.6990526212135,"trial":22,"RT":638,"MT":459,"sideResp":1,"stimulus":"img/500/equaldotsize/L/4_Ratio_500_L_18_R_9.png","xmouse":[791,791,791,791,791,791,791,791,791,791,791,791,791,791,791,791,791,791,791,791,791,791,791,791,791,791,791,791,791,791,758,699,658,605,572,559,509,486,471,440,423,409,402,402,402,402,402,405,419,424,429,435,438,439,439],"ymouse":[603,603,603,603,603,603,603,603,603,603,603,603,603,603,603,603,603,603,603,603,603,603,603,603,603,603,603,603,603,604,590,557,526,468,431,414,357,321,288,216,185,159,142,133,133,133,132,131,126,123,118,113,110,102,95],"timestamp_mouse":[28,37,58,77,97,117,137,157,178,197,218,237,257,277,298,317,337,358,377,397,417,437,457,477,497,517,538,557,577,597,619,638,658,678,697,717,738,759,777,798,817,837,858,878,897,917,937,958,978,997,1017,1037,1057,1077,1097],"xSR":741.5,"ySR":573.95,"xT1":424.9,"yT1":0,"xT2":1058.1,"yT2":0,"toosoon":0,"cond_shown":"equaldotsize","ratio_trial":500,"smaller_num":"9","larger_num":"18","correct_side":1,"subjID":"samuelalexanderbarraganfonseca38","gender":"0","age":"11","school":"6"},{"start_time":1551900961373,"click_time":1551900962621,"finger_time":1551900961982,"fix_duration":250,"trial":23,"RT":609,"MT":639,"sideResp":2,"stimulus":"img/500/equaldotsize/R/15_Ratio_500_L_1_R_2.png","xmouse":[742,743,746,746,746,747,747,747,747,747,747,747,747,747,747,747,747,747,747,747,747,747,747,747,747,747,747,749,749,749,752,752,752,755,760,763,770,772,773,773,780,812,851,880,911,958,978,994,1008,1019,1027,1034,1038,1040,1040,1041,1041,1041,1041,1041,1046,1052,1069],"ymouse":[590,590,592,597,600,608,610,610,610,610,610,610,610,610,610,610,610,610,610,610,610,610,610,610,610,610,610,611,603,585,522,487,426,396,367,339,284,259,235,210,188,160,142,134,126,108,100,95,92,90,87,81,65,59,57,56,56,56,56,56,55,55,54],"timestamp_mouse":[16,35,48,67,87,108,129,147,168,187,207,227,248,267,287,308,327,347,367,388,408,427,448,468,487,507,527,548,567,589,609,627,647,667,688,707,727,747,769,787,808,828,848,869,887,908,927,948,968,987,1007,1028,1047,1067,1088,1108,1127,1147,1167,1187,1207,1227,1247],"xSR":741.5,"ySR":573.95,"xT1":424.9,"yT1":0,"xT2":1058.1,"yT2":0,"toosoon":0,"cond_shown":"equaldotsize","ratio_trial":500,"smaller_num":"1","larger_num":"2","correct_side":2,"subjID":"samuelalexanderbarraganfonseca38","gender":"0","age":"11","school":"6"},{"start_time":1551900965091,"click_time":1551900966140,"finger_time":1551900965600,"fix_duration":250,"trial":24,"RT":509,"MT":540,"sideResp":2,"stimulus":"img/500/equaldotanddens/R/12_Ratio_500_L_1_R_2.png","xmouse":[765,765,765,765,765,765,765,765,765,765,765,765,765,765,765,765,765,765,765,765,765,765,765,765,765,774,785,803,816,834,842,845,855,863,883,895,905,915,923,942,1001,1025,1027,1027,1027,1027,1027,1028,1028,1032,1041,1054,1069],"ymouse":[598,598,598,598,598,598,598,598,598,599,602,605,607,608,609,609,609,609,609,609,609,609,609,609,606,569,516,443,362,220,171,145,125,115,103,98,95,95,94,94,94,91,90,90,90,90,90,90,90,89,84,76,65],"timestamp_mouse":[11,29,49,69,89,110,130,150,169,189,209,229,249,270,290,309,330,349,369,389,410,431,450,470,490,509,529,549,570,589,609,630,650,670,689,709,730,749,769,789,810,829,849,869,890,909,929,949,970,989,1010,1030,1049],"xSR":741.5,"ySR":573.95,"xT1":424.9,"yT1":0,"xT2":1058.1,"yT2":0,"toosoon":0,"cond_shown":"equaldotanddens","ratio_trial":500,"smaller_num":"1","larger_num":"2","correct_side":2,"subjID":"samuelalexanderbarraganfonseca38","gender":"0","age":"11","school":"6"},{"start_time":1551900973140,"click_time":1551900974161,"finger_time":1551900973901,"fix_duration":457.21784363069827,"trial":25,"RT":761,"MT":260,"sideResp":2,"stimulus":"img/750/equaldotsize/R/2_Ratio_750_L_6_R_8.png","xmouse":[759,759,759,759,759,759,759,759,759,759,759,759,759,759,759,759,759,759,759,759,759,759,759,759,759,759,759,759,759,759,759,759,759,759,759,759,768,785,789,794,796,796,796,821,856,930,975,1024,1038,1045,1055,1063],"ymouse":[643,643,643,643,643,643,643,643,643,643,643,643,643,643,643,643,643,643,643,643,643,643,643,643,643,643,643,643,643,643,643,643,643,643,643,637,625,580,552,525,489,426,404,343,301,243,204,145,111,87,64,46],"timestamp_mouse":[3,20,42,60,80,100,120,140,162,181,200,221,241,261,281,300,320,341,361,380,401,422,440,460,480,502,520,540,561,580,600,621,640,662,681,701,721,741,761,780,801,820,840,860,880,901,920,940,960,981,1001,1021],"xSR":741.5,"ySR":573.95,"xT1":424.9,"yT1":0,"xT2":1058.1,"yT2":0,"toosoon":0,"cond_shown":"equaldotsize","ratio_trial":750,"smaller_num":"6","larger_num":"8","correct_side":2,"subjID":"samuelalexanderbarraganfonseca38","gender":"0","age":"11","school":"6"},{"start_time":1551900975332,"click_time":1551900976901,"finger_time":1551900976061,"fix_duration":250,"trial":26,"RT":729,"MT":840,"sideResp":2,"stimulus":"img/500/randomdotsizeEA/R/15_Ratio_500_L_1_R_2.png","xmouse":[798,798,798,798,798,798,798,798,798,798,798,798,798,798,798,798,798,798,798,798,798,798,798,798,798,798,798,798,798,798,795,795,788,786,786,786,804,852,877,900,913,916,929,949,966,982,985,979,974,965,965,965,972,994,1030,1044,1051,1052,1053,1054,1055,1055,1055,1055,1055,1055,1055,1055,1055,1055,1055,1055,1055,1055,1055,1056,1056,1056,1063],"ymouse":[660,660,660,660,660,660,660,660,660,660,660,660,660,660,660,660,660,660,660,660,660,660,660,660,660,660,660,660,660,660,660,657,640,627,600,591,555,475,431,386,348,305,222,188,150,101,74,23,11,0,0,0,9,34,62,70,73,73,73,73,73,73,73,73,73,73,73,73,73,73,73,73,73,73,73,73,73,73,63],"timestamp_mouse":[9,31,50,68,89,109,128,148,168,190,209,228,248,268,288,308,329,348,369,389,408,429,449,468,489,509,528,549,568,588,609,630,648,669,689,708,729,748,768,788,809,828,848,868,888,909,930,948,968,988,1009,1029,1048,1068,1089,1109,1129,1148,1169,1188,1209,1229,1250,1269,1289,1308,1328,1348,1369,1388,1409,1429,1448,1468,1489,1508,1528,1548,1569],"xSR":741.5,"ySR":573.95,"xT1":424.9,"yT1":0,"xT2":1058.1,"yT2":0,"toosoon":0,"cond_shown":"randomdotsizeEA","ratio_trial":500,"smaller_num":"1","larger_num":"2","correct_side":2,"subjID":"samuelalexanderbarraganfonseca38","gender":"0","age":"11","school":"6"},{"start_time":1551900982169,"click_time":1551900983081,"finger_time":1551900982780,"fix_duration":947.9874739735048,"trial":27,"RT":611,"MT":301,"sideResp":2,"stimulus":"img/900/randomdotsizeEA/L/2_Ratio_900_L_20_R_18.png","xmouse":[779,779,779,779,779,779,779,779,779,779,779,779,779,779,779,779,779,779,779,779,779,779,779,779,779,779,779,779,779,783,807,860,1017,1133,1210,1252,1266,1258,1251,1238,1232,1230,1222,1211,1187,1144],"ymouse":[605,605,605,605,605,605,605,605,605,605,605,605,605,605,605,605,605,605,605,605,605,605,605,605,605,605,605,605,605,588,542,484,379,298,222,157,99,70,61,33,7,0,0,0,0,3],"timestamp_mouse":[14,31,52,72,91,111,131,152,172,192,211,231,252,271,291,312,331,352,372,392,411,432,451,473,491,511,533,552,571,591,611,631,651,672,691,711,731,751,772,791,811,831,852,871,892,912],"xSR":741.5,"ySR":573.95,"xT1":424.9,"yT1":0,"xT2":1058.1,"yT2":0,"toosoon":0,"cond_shown":"randomdotsizeEA","ratio_trial":900,"smaller_num":"18","larger_num":"20","correct_side":1,"subjID":"samuelalexanderbarraganfonseca38","gender":"0","age":"11","school":"6"},{"start_time":1551900986140,"click_time":1551900987100,"finger_time":1551900986741,"fix_duration":1358.9070820329252,"trial":28,"RT":601,"MT":359,"sideResp":2,"stimulus":"img/750/equaldotanddens/R/15_Ratio_750_L_9_R_12.png","xmouse":[768,768,768,768,768,768,768,768,768,768,768,768,768,768,768,768,768,768,768,768,768,768,768,768,768,768,768,767,765,765,771,794,840,854,853,843,842,842,842,843,844,860,903,918,945,970,1001,1037,1065],"ymouse":[611,611,611,611,611,611,611,611,611,611,611,611,611,611,611,611,611,611,611,611,611,611,611,611,611,611,611,610,597,574,541,482,374,308,204,144,113,92,91,90,90,93,100,100,95,87,75,55,40],"timestamp_mouse":[0,21,41,60,80,100,120,140,161,181,200,220,241,260,280,300,321,340,361,380,400,420,440,461,481,501,521,541,561,581,601,620,641,660,680,700,721,741,760,780,800,820,841,860,880,901,920,940,960],"xSR":741.5,"ySR":573.95,"xT1":424.9,"yT1":0,"xT2":1058.1,"yT2":0,"toosoon":0,"cond_shown":"equaldotanddens","ratio_trial":750,"smaller_num":"9","larger_num":"12","correct_side":2,"subjID":"samuelalexanderbarraganfonseca38","gender":"0","age":"11","school":"6"},{"start_time":1551900989813,"click_time":1551900990880,"finger_time":1551900990380,"fix_duration":250,"trial":29,"RT":567,"MT":500,"sideResp":1,"stimulus":"img/250/equaldotanddens/L/1_Ratio_250_L_8_R_2.png","xmouse":[785,785,785,785,785,785,785,785,785,785,785,785,785,785,785,785,785,785,785,785,785,785,785,785,785,785,785,786,739,688,619,477,391,327,321,313,299,294,279,279,284,359,397,482,507,513,520,522,524,524,525,525,525,516],"ymouse":[632,632,632,632,632,632,632,632,632,632,632,632,632,632,632,632,632,632,632,632,632,632,632,632,632,632,632,629,564,510,427,256,137,0,0,0,0,0,0,0,9,66,95,156,174,179,181,181,181,181,181,165,156,87],"timestamp_mouse":[8,27,49,67,87,107,128,147,168,187,207,228,248,268,288,307,328,348,367,387,407,428,447,468,487,507,527,547,567,588,607,627,647,667,687,707,727,748,768,788,808,828,847,867,887,907,927,949,967,987,1007,1027,1048,1067],"xSR":741.5,"ySR":573.95,"xT1":424.9,"yT1":0,"xT2":1058.1,"yT2":0,"toosoon":0,"cond_shown":"equaldotanddens","ratio_trial":250,"smaller_num":"2","larger_num":"8","correct_side":1,"subjID":"samuelalexanderbarraganfonseca38","gender":"0","age":"11","school":"6"},{"start_time":1551900993492,"click_time":1551900994741,"finger_time":1551900994080,"fix_duration":1029.3979503926141,"trial":30,"RT":588,"MT":661,"sideResp":2,"stimulus":"img/750/equaldotanddens/R/15_Ratio_750_L_9_R_12.png","xmouse":[787,787,787,787,787,787,787,787,787,787,787,787,787,787,787,787,787,787,787,787,787,787,787,787,787,787,787,787,789,813,833,861,908,929,987,993,993,989,987,979,977,976,979,982,991,996,1001,1007,1015,1032,1033,1033,1033,1033,1033,1034,1034,1034,1035,1038,1045,1056,1069],"ymouse":[647,647,647,647,647,647,647,647,647,647,647,647,647,647,647,647,647,647,647,647,647,647,647,647,647,647,647,642,635,563,505,441,351,321,228,199,172,163,156,143,138,136,128,126,116,102,92,85,78,73,72,72,72,72,72,72,72,72,72,71,66,57,46],"timestamp_mouse":[9,28,48,69,88,108,129,148,169,188,208,229,248,269,288,309,328,348,369,388,408,429,449,470,488,508,529,548,568,588,609,628,649,668,688,708,729,748,768,788,808,828,849,869,888,909,928,949,970,989,1008,1029,1048,1069,1089,1109,1128,1149,1169,1188,1208,1228,1249],"xSR":741.5,"ySR":573.95,"xT1":424.9,"yT1":0,"xT2":1058.1,"yT2":0,"toosoon":0,"cond_shown":"equaldotanddens","ratio_trial":750,"smaller_num":"9","larger_num":"12","correct_side":2,"subjID":"samuelalexanderbarraganfonseca38","gender":"0","age":"11","school":"6"},{"start_time":1551900996513,"click_time":1551900997360,"finger_time":1551900997020,"fix_duration":250,"trial":31,"RT":507,"MT":340,"sideResp":2,"stimulus":"img/250/equaldotsize/R/13_Ratio_250_L_2_R_8.png","xmouse":[769,769,769,769,769,769,769,768,767,767,767,767,767,766,764,763,762,761,761,761,761,761,760,760,772,779,802,823,877,920,972,1009,1034,1043,1043,1043,1043,1043,1043,1043,1045,1058,1076],"ymouse":[610,610,610,610,610,610,610,610,610,610,610,610,610,610,610,610,610,610,610,610,610,610,609,598,577,567,532,466,282,165,43,0,0,0,0,0,0,0,0,0,0,14,30],"timestamp_mouse":[10,29,47,68,87,107,128,147,167,187,206,227,247,268,288,307,327,348,367,387,407,428,447,467,486,507,528,547,567,587,608,628,647,667,686,707,726,746,768,787,807,828,847],"xSR":741.5,"ySR":573.95,"xT1":424.9,"yT1":0,"xT2":1058.1,"yT2":0,"toosoon":0,"cond_shown":"equaldotsize","ratio_trial":250,"smaller_num":"2","larger_num":"8","correct_side":2,"subjID":"samuelalexanderbarraganfonseca38","gender":"0","age":"11","school":"6"},{"start_time":1551901001323,"click_time":1551901001921,"finger_time":1551901001840,"fix_duration":661.6815533750862,"trial":32,"RT":517,"MT":81,"sideResp":2,"stimulus":"img/500/equaldotanddens/R/12_Ratio_500_L_1_R_2.png","xmouse":[757,757,757,757,757,757,757,757,757,757,757,756,756,756,756,756,756,756,756,756,756,756,756,755,756,764,782,886,975,1084],"ymouse":[639,639,639,639,639,639,639,639,639,639,639,639,639,639,639,639,639,639,639,639,639,639,639,637,615,562,479,248,118,4],"timestamp_mouse":[18,37,57,77,98,117,138,158,178,197,217,237,258,277,297,317,338,357,377,397,418,436,458,477,498,517,537,557,577,598],"xSR":741.5,"ySR":573.95,"xT1":424.9,"yT1":0,"xT2":1058.1,"yT2":0,"toosoon":0,"cond_shown":"equaldotanddens","ratio_trial":500,"smaller_num":"1","larger_num":"2","correct_side":2,"subjID":"samuelalexanderbarraganfonseca38","gender":"0","age":"11","school":"6"},{"start_time":1551901006320,"click_time":1551901007301,"finger_time":1551901006800,"fix_duration":1358.8677157804734,"trial":33,"RT":480,"MT":501,"sideResp":1,"stimulus":"img/500/equaldotanddens/L/11_Ratio_500_L_12_R_6.png","xmouse":[756,756,756,756,756,756,756,756,756,756,754,755,759,761,763,763,763,763,763,763,763,764,771,783,793,802,802,789,720,653,554,524,440,418,359,346,342,330,325,324,323,324,338,378,390,400,404,404,404,427],"ymouse":[655,655,655,655,655,655,655,655,655,655,652,643,634,631,625,625,625,625,625,625,624,619,603,574,549,512,489,459,395,355,294,271,202,177,55,16,4,0,0,0,3,9,15,25,26,27,28,28,28,42],"timestamp_mouse":[5,22,39,60,80,100,121,140,160,181,200,220,240,259,280,300,320,340,360,380,401,421,441,460,480,501,520,541,560,580,600,620,640,660,680,701,720,741,760,781,800,820,840,860,881,900,920,941,960,981],"xSR":741.5,"ySR":573.95,"xT1":424.9,"yT1":0,"xT2":1058.1,"yT2":0,"toosoon":0,"cond_shown":"equaldotanddens","ratio_trial":500,"smaller_num":"6","larger_num":"12","correct_side":1,"subjID":"samuelalexanderbarraganfonseca38","gender":"0","age":"11","school":"6"},{"start_time":1551901010752,"click_time":1551901011980,"finger_time":1551901011541,"fix_duration":250,"trial":34,"RT":789,"MT":439,"sideResp":1,"stimulus":"img/900/equaldotanddens/L/8_Ratio_900_L_20_R_18.png","xmouse":[790,790,790,790,790,790,790,790,790,790,790,790,790,790,790,790,790,790,790,790,790,790,790,790,790,790,790,790,790,790,790,790,790,790,790,790,790,790,790,790,790,792,792,792,787,773,729,666,628,592,584,552,538,527,524,522,518,515,514,505,501,471],"ymouse":[600,600,600,600,600,600,600,600,600,600,600,600,600,600,600,600,600,600,600,600,600,600,600,600,600,600,600,600,600,600,600,600,600,600,600,600,600,600,592,572,560,519,501,498,488,473,439,388,353,309,295,252,235,218,213,208,202,186,172,138,122,70],"timestamp_mouse":[10,28,48,68,89,108,128,149,169,189,208,228,248,269,289,308,328,348,368,388,408,428,447,468,488,508,529,548,568,588,608,628,648,669,688,708,729,748,768,789,808,828,848,868,887,908,928,949,969,988,1008,1028,1049,1069,1088,1108,1128,1148,1168,1189,1209,1228],"xSR":741.5,"ySR":573.95,"xT1":424.9,"yT1":0,"xT2":1058.1,"yT2":0,"toosoon":0,"cond_shown":"equaldotanddens","ratio_trial":900,"smaller_num":"18","larger_num":"20","correct_side":1,"subjID":"samuelalexanderbarraganfonseca38","gender":"0","age":"11","school":"6"},{"start_time":1551901014022,"click_time":1551901015101,"finger_time":1551901014780,"fix_duration":959.089435264012,"trial":35,"RT":758,"MT":321,"sideResp":2,"stimulus":"img/900/equaldotsize/R/13_Ratio_900_L_18_R_20.png","xmouse":[783,783,783,783,783,783,783,783,783,783,783,783,783,783,783,783,783,783,783,783,783,783,783,783,783,783,783,783,783,783,783,783,783,783,783,783,785,789,809,829,841,875,889,921,927,929,928,924,907,907,927,951,986,1029,1081],"ymouse":[600,600,600,600,600,600,600,600,600,600,600,600,600,600,600,600,600,600,600,600,600,600,600,600,600,600,600,600,600,600,600,600,600,600,600,600,593,587,544,493,451,374,350,292,279,272,245,226,157,130,101,86,72,56,33],"timestamp_mouse":[1,18,37,58,78,98,118,138,158,177,199,218,238,258,278,298,318,339,358,379,399,418,439,458,478,498,518,538,557,578,598,618,639,659,678,698,718,738,758,778,798,818,838,858,878,898,919,938,959,978,998,1018,1038,1058,1079],"xSR":741.5,"ySR":573.95,"xT1":424.9,"yT1":0,"xT2":1058.1,"yT2":0,"toosoon":0,"cond_shown":"equaldotsize","ratio_trial":900,"smaller_num":"18","larger_num":"20","correct_side":2,"subjID":"samuelalexanderbarraganfonseca38","gender":"0","age":"11","school":"6"},{"start_time":1551901019385,"click_time":1551901020280,"finger_time":1551901019920,"fix_duration":1424.4235924111413,"trial":36,"RT":535,"MT":360,"sideResp":2,"stimulus":"img/500/randomdotsizeEA/R/15_Ratio_500_L_1_R_2.png","xmouse":[795,795,795,795,795,795,795,795,795,795,795,795,795,795,795,795,795,795,795,795,795,795,795,795,795,801,823,830,860,869,909,921,921,910,896,887,887,887,887,895,916,991,1044,1086,1143],"ymouse":[620,620,620,620,620,620,620,620,620,620,620,620,620,620,620,620,620,620,620,620,620,620,620,620,619,604,554,532,441,411,292,241,220,201,186,177,172,172,169,164,160,146,125,104,59],"timestamp_mouse":[21,38,55,75,96,115,136,155,175,195,216,235,255,275,295,315,336,356,376,396,416,435,455,476,495,516,535,556,575,595,616,635,655,676,695,716,735,755,776,795,816,835,855,876,895],"xSR":741.5,"ySR":573.95,"xT1":424.9,"yT1":0,"xT2":1058.1,"yT2":0,"toosoon":0,"cond_shown":"randomdotsizeEA","ratio_trial":500,"smaller_num":"1","larger_num":"2","correct_side":2,"subjID":"samuelalexanderbarraganfonseca38","gender":"0","age":"11","school":"6"},{"start_time":1551901024053,"click_time":1551901025100,"finger_time":1551901024680,"fix_duration":250,"trial":37,"RT":627,"MT":420,"sideResp":1,"stimulus":"img/900/equaldotsize/R/9_Ratio_900_L_18_R_20.png","xmouse":[777,777,777,777,777,777,777,777,777,777,777,777,777,777,777,777,777,777,777,777,777,778,779,779,779,779,779,779,779,780,780,768,738,691,652,647,643,638,619,581,525,452,442,433,420,418,412,412,412,412,412,412,437],"ymouse":[620,620,620,620,620,620,620,620,620,620,620,620,620,620,620,620,620,620,620,620,618,610,608,607,607,607,607,607,603,596,591,543,485,424,356,339,281,258,207,141,71,0,0,0,0,0,0,0,0,0,1,13,61],"timestamp_mouse":[6,32,48,67,88,107,127,147,168,188,207,228,248,267,288,307,327,347,368,387,407,427,448,467,487,507,528,547,567,587,607,627,647,668,688,707,727,747,767,787,808,827,847,867,888,907,928,947,968,988,1008,1026,1047],"xSR":741.5,"ySR":573.95,"xT1":424.9,"yT1":0,"xT2":1058.1,"yT2":0,"toosoon":0,"cond_shown":"equaldotsize","ratio_trial":900,"smaller_num":"18","larger_num":"20","correct_side":2,"subjID":"samuelalexanderbarraganfonseca38","gender":"0","age":"11","school":"6"},{"start_time":1551901036879,"click_time":1551901037580,"finger_time":1551901037460,"fix_duration":838.1484727995921,"trial":38,"RT":581,"MT":120,"sideResp":2,"stimulus":"img/500/randomdotsizeEA/R/15_Ratio_500_L_1_R_2.png","xmouse":[805,805,805,805,805,805,805,805,805,805,805,805,805,805,805,805,805,805,805,805,805,805,805,805,805,805,805,810,824,845,928,982,1034,1073,1102,1127],"ymouse":[629,629,629,629,629,629,629,629,629,629,629,629,629,629,629,629,629,629,629,629,629,629,629,629,629,629,629,616,604,583,476,398,304,213,108,18],"timestamp_mouse":[9,27,41,62,82,100,122,140,161,181,201,221,242,262,281,301,321,341,362,382,402,422,441,462,480,502,522,541,561,581,601,621,642,662,681,701],"xSR":741.5,"ySR":573.95,"xT1":424.9,"yT1":0,"xT2":1058.1,"yT2":0,"toosoon":0,"cond_shown":"randomdotsizeEA","ratio_trial":500,"smaller_num":"1","larger_num":"2","correct_side":2,"subjID":"samuelalexanderbarraganfonseca38","gender":"0","age":"11","school":"6"},{"start_time":1551901039616,"click_time":1551901043061,"finger_time":1551901041580,"fix_duration":834.7824118520123,"trial":39,"RT":1964,"MT":1481,"sideResp":2,"stimulus":"img/750/equaldotsize/L/6_Ratio_750_L_24_R_18.png","xmouse":[775,775,775,775,775,775,775,775,775,775,775,775,775,775,775,775,775,775,775,775,775,775,775,775,775,775,775,775,775,775,775,775,775,775,775,775,775,775,775,775,775,775,775,775,775,775,775,775,775,775,775,775,775,775,775,775,775,775,775,775,775,775,775,775,775,775,775,775,775,775,775,775,775,775,775,775,775,775,775,775,775,775,775,775,775,775,775,775,775,775,775,776,778,780,780,780,780,780,785,787,788,789,789,790,790,790,790,790,790,790,790,790,790,791,792,797,802,802,790,787,787,787,787,789,797,804,807,807,807,807,806,802,799,790,789,789,789,789,789,789,789,789,789,789,789,789,789,789,789,789,789,789,789,789,789,789,789,789,789,789,789,789,789,789,789,789,789,795,834,880,948,1052,1108],"ymouse":[612,612,612,612,612,612,612,612,612,612,612,612,612,612,612,612,612,612,612,612,612,612,612,612,612,612,612,612,612,612,612,612,612,612,612,612,612,612,612,612,612,612,612,612,612,612,612,612,612,612,612,612,612,612,612,612,612,612,612,612,612,612,612,612,612,612,612,612,612,612,612,612,612,612,612,612,612,612,612,612,612,612,612,612,612,612,612,612,612,612,612,619,626,638,643,648,656,672,705,717,725,728,728,729,729,729,729,731,736,739,739,739,739,740,740,729,706,651,530,504,495,495,495,495,506,514,517,517,517,523,530,547,563,591,596,596,596,596,596,596,596,596,596,596,596,596,596,596,596,596,596,596,596,596,596,596,596,596,596,596,596,596,596,596,596,596,596,550,425,340,252,146,99],"timestamp_mouse":[10,28,44,64,84,105,123,144,164,184,203,224,244,264,284,304,323,344,364,385,404,425,444,464,484,504,524,544,564,584,605,624,644,664,683,704,723,745,764,784,804,824,844,864,884,904,924,944,964,984,1004,1024,1045,1065,1083,1105,1124,1145,1164,1184,1204,1224,1245,1264,1285,1305,1325,1344,1364,1385,1405,1425,1444,1464,1485,1504,1524,1545,1563,1585,1603,1625,1645,1664,1685,1705,1724,1743,1765,1785,1805,1825,1844,1864,1885,1904,1925,1944,1964,1983,2004,2025,2045,2064,2084,2104,2124,2144,2164,2184,2205,2224,2244,2264,2284,2304,2325,2344,2364,2385,2404,2424,2444,2464,2485,2504,2524,2545,2564,2584,2604,2625,2644,2663,2684,2704,2724,2744,2764,2784,2805,2823,2844,2864,2885,2904,2924,2944,2964,2984,3005,3025,3044,3064,3084,3105,3123,3144,3164,3184,3204,3224,3244,3264,3284,3304,3323,3344,3364,3384,3404,3423,3445],"xSR":741.5,"ySR":573.95,"xT1":424.9,"yT1":0,"xT2":1058.1,"yT2":0,"toosoon":0,"cond_shown":"equaldotsize","ratio_trial":750,"smaller_num":"18","larger_num":"24","correct_side":1,"subjID":"samuelalexanderbarraganfonseca38","gender":"0","age":"11","school":"6"},{"start_time":1551901047161,"click_time":1551901048560,"finger_time":1551901047980,"fix_duration":1079.6798174063526,"trial":40,"RT":819,"MT":580,"sideResp":1,"stimulus":"img/750/randomdotsizeEA/L/13_Ratio_750_L_8_R_6.png","xmouse":[762,762,762,762,762,762,762,762,762,762,762,762,762,762,762,762,762,762,762,762,762,762,762,762,762,762,762,762,762,762,762,762,762,762,762,762,762,762,759,757,751,724,695,651,625,605,582,574,566,557,548,530,519,504,497,490,486,485,485,485,485,485,485,485,485,485,484,483,483,483,480],"ymouse":[641,641,641,641,641,641,641,641,641,641,641,641,641,641,641,641,641,641,641,641,641,641,641,641,641,641,641,641,641,641,641,641,641,641,641,641,641,641,634,628,614,567,532,473,435,405,364,346,331,316,296,252,227,186,161,141,130,128,128,128,128,128,128,128,128,128,121,117,112,104,94],"timestamp_mouse":[1,30,39,60,80,100,119,139,160,179,199,219,239,260,279,300,320,340,360,380,398,419,440,460,478,499,519,539,559,579,600,619,639,659,680,700,719,739,760,779,799,819,838,860,880,900,920,940,959,980,999,1019,1039,1059,1080,1099,1119,1139,1159,1180,1199,1218,1240,1259,1279,1299,1319,1338,1359,1379,1399],"xSR":741.5,"ySR":573.95,"xT1":424.9,"yT1":0,"xT2":1058.1,"yT2":0,"toosoon":0,"cond_shown":"randomdotsizeEA","ratio_trial":750,"smaller_num":"6","larger_num":"8","correct_side":1,"subjID":"samuelalexanderbarraganfonseca38","gender":"0","age":"11","school":"6"},{"start_time":1551901051153,"click_time":1551901051920,"finger_time":1551901051720,"fix_duration":331.0388829268605,"trial":41,"RT":567,"MT":200,"sideResp":1,"stimulus":"img/500/equaldotsize/L/11_Ratio_500_L_12_R_6.png","xmouse":[786,786,786,786,786,786,786,786,786,786,786,786,786,786,786,786,786,787,790,792,795,796,796,796,796,796,796,791,781,765,750,711,699,681,663,638,565,532,502],"ymouse":[657,657,657,657,657,657,657,657,657,657,657,657,657,657,657,657,653,642,629,618,611,609,609,609,608,602,591,576,552,518,479,382,348,307,273,232,126,74,28],"timestamp_mouse":[14,34,46,67,88,107,128,148,168,187,207,227,248,267,287,307,327,348,367,388,407,426,448,467,487,507,527,547,567,587,608,628,647,667,687,708,727,748,767],"xSR":741.5,"ySR":573.95,"xT1":424.9,"yT1":0,"xT2":1058.1,"yT2":0,"toosoon":0,"cond_shown":"equaldotsize","ratio_trial":500,"smaller_num":"6","larger_num":"12","correct_side":1,"subjID":"samuelalexanderbarraganfonseca38","gender":"0","age":"11","school":"6"},{"start_time":1551901054971,"click_time":1551901055839,"finger_time":1551901055699,"fix_duration":250,"trial":42,"RT":728,"MT":140,"sideResp":2,"stimulus":"img/900/randomdotsizeEA/L/10_Ratio_900_L_20_R_18.png","xmouse":[771,771,771,771,771,771,771,771,771,771,771,771,771,771,771,771,771,771,771,771,771,771,771,771,771,771,771,771,771,771,771,771,771,771,771,784,806,853,909,980,1084,1116,1130,1130],"ymouse":[617,617,617,617,617,617,617,617,617,617,617,617,617,617,617,617,617,617,617,617,617,617,617,617,617,617,617,617,617,617,617,617,617,617,614,592,567,521,464,395,257,194,113,72],"timestamp_mouse":[10,35,48,67,88,108,128,147,167,188,208,227,249,268,289,308,329,348,367,388,409,427,449,467,488,508,528,547,568,588,607,627,648,667,688,708,728,749,768,788,808,828,848,868],"xSR":741.5,"ySR":573.95,"xT1":424.9,"yT1":0,"xT2":1058.1,"yT2":0,"toosoon":0,"cond_shown":"randomdotsizeEA","ratio_trial":900,"smaller_num":"18","larger_num":"20","correct_side":1,"subjID":"samuelalexanderbarraganfonseca38","gender":"0","age":"11","school":"6"},{"start_time":1551901058708,"click_time":1551901069179,"finger_time":1551901067319,"fix_duration":1309.755060802281,"trial":43,"RT":8611,"MT":1860,"sideResp":2,"stimulus":"img/900/equaldotsize/R/6_Ratio_900_L_9_R_10.png","xmouse":[760,760,760,760,760,760,760,760,765,776,782,795,795,799,805,815,817,826,828,828,828,828,828,828,828,828,829,831,831,831,831,831,831,831,831,831,831,831,831,831,831,831,831,831,831,831,831,831,831,831,831,831,831,831,831,831,831,831,831,831,831,831,831,831,831,831,831,831,831,831,831,831,831,831,831,831,831,831,831,831,831,831,831,831,831,831,831,831,831,831,831,831,831,831,831,831,831,831,831,831,831,831,831,831,831,831,831,831,831,831,831,831,831,831,831,831,831,831,831,831,831,831,831,831,831,831,831,831,831,831,831,831,831,831,831,831,831,831,831,831,831,831,831,831,831,831,831,831,831,831,831,831,831,831,831,831,831,831,831,831,831,831,831,831,831,831,831,831,831,831,831,831,831,831,831,831,831,831,831,831,831,831,831,831,831,831,831,831,831,831,831,831,831,831,831,831,831,831,831,831,831,831,831,831,831,831,831,831,831,831,831,831,831,831,831,831,831,831,831,831,831,831,831,831,831,831,831,831,831,831,831,831,831,831,831,831,831,831,831,831,831,831,831,831,831,831,831,831,831,831,831,831,831,831,831,831,831,831,831,831,831,831,831,831,831,831,831,831,831,831,831,831,831,831,831,831,831,831,831,831,831,831,831,831,831,831,831,831,831,831,831,831,831,831,831,831,831,831,831,831,831,831,831,831,831,831,831,831,831,831,831,831,831,831,831,831,831,831,831,831,831,831,831,831,831,831,831,831,831,831,831,831,831,831,831,831,831,831,831,831,831,831,831,831,831,831,831,831,831,831,831,831,831,831,831,831,831,831,831,831,831,831,831,831,831,831,831,831,831,831,831,831,831,831,831,831,831,831,831,831,831,831,831,831,831,831,831,831,831,831,831,831,831,831,831,831,831,831,831,831,825,798,786,783,783,783,783,783,783,783,783,783,783,783,783,795,809,812,812,813,814,814,814,814,815,816,818,820,820,820,822,827,832,850,856,857,857,856,854,854,853,849,842,836,836,836,836,836,834,823,806,794,791,791,790,791,800,801,801,801,801,801,801,792,782,773,769,769,769,769,769,769,769,769,769,769,769,769,769,769,769,769,769,769,769,769,769,769,769,769,769,769,769,769,769,769,769,769,769,769,769,770,776,803,972,1165,1278,1380,1504,1512,1512,1512,1505,1464,1425,1390,1347,1325,1293,1274,1252,1223,1185,1107],"ymouse":[605,605,605,605,605,605,605,605,605,611,615,623,626,628,622,618,617,613,612,612,612,612,612,612,612,612,612,612,612,612,612,612,612,612,612,612,612,612,612,612,612,612,612,612,612,612,612,612,612,612,612,612,612,612,612,612,612,612,612,612,612,612,612,612,612,612,612,612,612,612,612,612,612,612,612,612,612,612,612,612,612,612,612,612,612,612,612,612,612,612,612,612,612,612,612,612,612,612,612,612,612,612,612,612,612,612,612,612,612,612,612,612,612,612,612,612,612,612,612,612,612,612,612,612,612,612,612,612,612,612,612,612,612,612,612,612,612,612,612,612,612,612,612,612,612,612,612,612,612,612,612,612,612,612,612,612,612,612,612,612,612,612,612,612,612,612,612,612,612,612,612,612,612,612,612,612,612,612,612,612,612,612,612,612,612,612,612,612,612,612,612,612,612,612,612,612,612,612,612,612,612,612,612,612,612,612,612,612,612,612,612,612,612,612,612,612,612,612,612,612,612,612,612,612,612,612,612,612,612,612,612,612,612,612,612,612,612,612,612,612,612,612,612,612,612,612,612,612,612,612,612,612,612,612,612,612,612,612,612,612,612,612,612,612,612,612,612,612,612,612,612,612,612,612,612,612,612,612,612,612,612,612,612,612,612,612,612,612,612,612,612,612,612,612,612,612,612,612,612,612,612,612,612,612,612,612,612,612,612,612,612,612,612,612,612,612,612,612,612,612,612,612,612,612,612,612,612,612,612,612,612,612,612,612,612,612,612,612,612,612,612,612,612,612,612,612,612,612,612,612,612,612,612,612,612,612,612,612,612,612,612,612,612,612,612,612,612,612,612,612,612,612,612,612,612,612,612,612,612,612,612,612,612,612,612,612,612,612,612,612,612,612,612,612,612,612,612,612,612,610,605,588,584,583,583,583,583,583,583,583,583,583,583,583,583,585,593,601,611,616,617,617,617,617,619,621,627,632,649,665,680,695,711,744,757,766,776,778,779,779,779,762,723,638,614,603,603,603,595,571,546,534,532,532,533,539,557,563,564,564,564,565,569,598,621,642,657,658,658,658,658,658,658,658,658,658,658,658,658,658,658,658,658,658,658,658,658,658,658,658,658,658,658,658,658,658,658,658,658,658,658,656,650,629,531,422,342,261,152,140,136,133,129,82,32,0,0,0,0,0,3,16,33,58],"timestamp_mouse":[11,31,51,71,92,111,130,152,171,192,211,230,252,270,290,312,331,351,370,392,412,431,452,472,490,510,531,551,570,592,612,631,650,672,691,712,731,750,771,791,812,831,851,872,892,911,930,952,971,990,1011,1032,1051,1071,1092,1110,1131,1152,1170,1192,1212,1230,1251,1272,1292,1312,1330,1351,1371,1391,1410,1431,1451,1471,1490,1512,1532,1550,1571,1590,1611,1631,1652,1670,1691,1711,1730,1752,1771,1791,1810,1832,1851,1871,1892,1911,1931,1950,1972,1990,2011,2032,2051,2070,2092,2112,2130,2152,2171,2191,2211,2232,2251,2270,2290,2310,2332,2351,2371,2390,2411,2432,2452,2471,2491,2512,2531,2550,2571,2592,2612,2631,2651,2671,2691,2710,2732,2752,2770,2792,2812,2832,2851,2870,2892,2911,2931,2952,2971,2992,3010,3032,3051,3071,3092,3111,3132,3150,3171,3192,3210,3232,3252,3272,3290,3311,3332,3351,3372,3392,3411,3431,3452,3471,3490,3511,3532,3552,3572,3590,3612,3632,3652,3671,3692,3712,3732,3751,3771,3791,3812,3832,3851,3871,3892,3912,3932,3951,3972,3992,4012,4031,4052,4071,4091,4112,4131,4152,4172,4191,4211,4231,4251,4271,4292,4312,4331,4352,4372,4390,4412,4431,4452,4471,4492,4512,4530,4552,4570,4592,4612,4630,4651,4671,4690,4711,4731,4752,4771,4790,4812,4831,4852,4872,4891,4910,4932,4951,4972,4990,5011,5030,5052,5072,5090,5111,5131,5151,5172,5190,5211,5231,5252,5272,5292,5311,5331,5351,5371,5390,5411,5432,5452,5470,5491,5512,5531,5550,5572,5592,5612,5630,5651,5671,5691,5712,5731,5750,5772,5791,5811,5831,5851,5872,5892,5910,5932,5952,5971,5990,6011,6032,6050,6070,6090,6112,6131,6152,6171,6192,6211,6230,6252,6272,6292,6311,6330,6352,6372,6392,6412,6431,6451,6470,6491,6512,6531,6552,6570,6590,6612,6630,6650,6672,6692,6711,6731,6750,6771,6792,6811,6831,6851,6872,6890,6911,6932,6951,6971,6991,7011,7032,7052,7071,7090,7112,7132,7150,7171,7192,7211,7230,7252,7270,7292,7312,7332,7352,7370,7392,7411,7432,7451,7471,7492,7510,7531,7552,7571,7592,7610,7632,7650,7670,7691,7712,7730,7752,7772,7792,7810,7832,7851,7870,7891,7912,7932,7952,7971,7992,8011,8031,8051,8072,8090,8111,8131,8151,8171,8190,8211,8231,8251,8271,8291,8312,8332,8351,8370,8391,8411,8431,8451,8471,8491,8511,8531,8551,8570,8591,8611,8631,8650,8671,8691,8711,8731,8751,8770,8791,8811,8832,8851,8870,8890,8911,8930,8951,8970,8991,9011,9030,9051,9070,9091,9111,9131,9151,9171,9191,9211,9231,9250,9270,9291,9312,9332,9350,9370,9390,9410,9430,9451,9471,9490,9512,9531,9551,9572,9590,9611,9630,9650,9670,9692,9711,9730,9751,9771,9792,9812,9832,9852,9870,9891,9911,9931,9951,9970,9991,10012,10032,10050,10070,10090,10111,10130,10151,10171,10191,10211,10231,10251,10270,10290,10311,10330,10351,10371,10390,10410,10431,10450,10471],"xSR":741.5,"ySR":573.95,"xT1":424.9,"yT1":0,"xT2":1058.1,"yT2":0,"toosoon":0,"cond_shown":"equaldotsize","ratio_trial":900,"smaller_num":"9","larger_num":"10","correct_side":2,"subjID":"samuelalexanderbarraganfonseca38","gender":"0","age":"11","school":"6"},{"start_time":1551901079131,"click_time":1551901080259,"finger_time":1551901079779,"fix_duration":1111.782172760446,"trial":44,"RT":648,"MT":480,"sideResp":1,"stimulus":"img/250/equaldotanddens/L/1_Ratio_250_L_8_R_2.png","xmouse":[788,788,788,788,788,788,788,788,788,788,788,788,788,788,788,788,788,788,788,788,788,788,788,788,788,788,788,788,788,788,786,779,755,746,718,686,612,485,415,361,329,319,319,319,319,319,321,326,329,332,339,349,368,381,397,419,427],"ymouse":[605,605,605,605,605,605,605,605,605,605,605,605,605,605,605,605,605,605,605,605,605,605,605,605,605,605,605,605,605,605,601,591,562,546,505,461,366,228,166,119,91,80,77,77,75,68,62,53,48,44,39,38,37,37,37,37,35],"timestamp_mouse":[14,32,47,68,88,108,127,149,167,189,209,227,248,269,288,307,329,348,368,387,407,428,447,468,489,508,528,549,568,589,608,628,648,669,688,709,727,747,767,788,809,828,847,867,887,907,927,949,967,988,1007,1027,1047,1067,1088,1108,1128],"xSR":741.5,"ySR":573.95,"xT1":424.9,"yT1":0,"xT2":1058.1,"yT2":0,"toosoon":0,"cond_shown":"equaldotanddens","ratio_trial":250,"smaller_num":"2","larger_num":"8","correct_side":1,"subjID":"samuelalexanderbarraganfonseca38","gender":"0","age":"11","school":"6"},{"start_time":1551901083555,"click_time":1551901084899,"finger_time":1551901084400,"fix_duration":975.8585740114053,"trial":45,"RT":845,"MT":499,"sideResp":2,"stimulus":"img/900/equaldotsize/R/3_Ratio_900_L_9_R_10.png","xmouse":[786,786,782,782,782,782,782,782,782,782,782,782,782,782,782,782,782,782,782,782,782,782,782,782,782,782,782,782,782,782,782,782,782,782,782,782,782,782,782,782,782,782,790,808,818,822,822,827,837,855,896,946,1087,1176,1284,1311,1315,1311,1305,1299,1299,1299,1298,1290,1279,1260,1196,1157],"ymouse":[619,619,615,615,615,615,615,615,615,615,615,615,615,615,615,615,615,615,615,615,615,615,615,615,615,615,615,615,615,615,615,615,615,615,615,615,615,615,615,615,611,584,562,514,478,452,426,389,366,323,249,153,0,0,0,0,0,0,0,0,0,0,0,7,17,32,74,92],"timestamp_mouse":[9,23,44,63,84,104,123,145,163,183,204,224,244,263,284,305,323,344,363,385,404,423,444,463,483,504,523,544,564,583,603,624,644,665,683,705,723,745,764,783,804,824,845,864,883,903,924,943,964,984,1003,1023,1044,1064,1084,1104,1124,1145,1165,1184,1205,1224,1244,1265,1283,1304,1324,1344],"xSR":741.5,"ySR":573.95,"xT1":424.9,"yT1":0,"xT2":1058.1,"yT2":0,"toosoon":0,"cond_shown":"equaldotsize","ratio_trial":900,"smaller_num":"9","larger_num":"10","correct_side":2,"subjID":"samuelalexanderbarraganfonseca38","gender":"0","age":"11","school":"6"},{"start_time":1551901086891,"click_time":1551901087539,"finger_time":1551901087478,"fix_duration":250,"trial":46,"RT":587,"MT":61,"sideResp":1,"stimulus":"img/250/equaldotsize/L/7_Ratio_250_L_8_R_2.png","xmouse":[835,835,833,828,823,823,823,823,823,823,823,823,823,823,823,823,823,823,823,823,823,823,823,823,823,823,823,810,791,701,604,518,447],"ymouse":[661,661,659,654,651,651,651,651,651,651,651,651,651,651,651,651,651,651,651,651,651,651,651,651,651,651,651,638,621,486,348,191,37],"timestamp_mouse":[11,28,48,67,87,109,127,149,169,188,208,228,248,267,288,309,327,349,368,388,408,428,447,468,489,507,528,549,569,587,608,627,648],"xSR":741.5,"ySR":573.95,"xT1":424.9,"yT1":0,"xT2":1058.1,"yT2":0,"toosoon":0,"cond_shown":"equaldotsize","ratio_trial":250,"smaller_num":"2","larger_num":"8","correct_side":1,"subjID":"samuelalexanderbarraganfonseca38","gender":"0","age":"11","school":"6"},{"start_time":1551901088650,"click_time":1551901089278,"finger_time":1551901089139,"fix_duration":250,"trial":47,"RT":489,"MT":139,"sideResp":2,"stimulus":"img/500/equaldotsize/R/14_Ratio_500_L_5_R_10.png","xmouse":[766,766,766,766,766,766,766,766,766,766,766,766,766,764,764,764,764,764,764,764,764,764,764,770,785,805,866,910,984,1032,1070,1086],"ymouse":[607,607,607,607,607,607,607,607,607,607,607,607,607,607,607,607,607,607,607,607,607,606,599,586,562,532,444,374,258,178,109,59],"timestamp_mouse":[10,29,49,68,90,108,130,149,168,189,209,228,250,270,288,309,330,349,368,390,409,428,449,468,489,508,528,548,568,589,608,628],"xSR":741.5,"ySR":573.95,"xT1":424.9,"yT1":0,"xT2":1058.1,"yT2":0,"toosoon":0,"cond_shown":"equaldotsize","ratio_trial":500,"smaller_num":"5","larger_num":"10","correct_side":2,"subjID":"samuelalexanderbarraganfonseca38","gender":"0","age":"11","school":"6"},{"start_time":1551901091292,"click_time":1551901092498,"finger_time":1551901092019,"fix_duration":1052.8109432022777,"trial":48,"RT":727,"MT":479,"sideResp":2,"stimulus":"img/250/equaldotanddens/R/12_Ratio_250_L_5_R_20.png","xmouse":[770,769,769,768,768,768,768,768,768,767,764,764,764,764,764,764,764,764,764,764,764,764,764,764,764,764,764,764,764,764,764,764,764,764,767,775,791,814,849,917,943,961,971,974,974,973,973,974,981,991,1011,1016,1018,1022,1033,1035,1038,1046,1052,1057,1063],"ymouse":[611,610,610,610,610,610,610,610,610,609,606,606,606,606,606,606,606,606,606,606,606,606,606,606,606,606,606,606,606,606,606,606,606,604,591,574,536,477,416,322,283,258,240,228,213,201,179,159,137,116,91,91,91,91,95,96,96,96,95,91,87],"timestamp_mouse":[20,32,47,68,87,107,127,148,166,187,208,227,246,268,288,306,327,347,367,387,408,427,447,466,487,506,528,546,568,586,607,627,646,667,686,706,727,747,767,788,808,827,847,866,887,906,928,947,967,986,1007,1027,1047,1066,1087,1107,1127,1147,1166,1186,1206],"xSR":741.5,"ySR":573.95,"xT1":424.9,"yT1":0,"xT2":1058.1,"yT2":0,"toosoon":0,"cond_shown":"equaldotanddens","ratio_trial":250,"smaller_num":"5","larger_num":"20","correct_side":2,"subjID":"samuelalexanderbarraganfonseca38","gender":"0","age":"11","school":"6"},{"start_time":1551901095315,"click_time":1551901096479,"finger_time":1551901096018,"fix_duration":575.2265351021146,"trial":49,"RT":703,"MT":461,"sideResp":2,"stimulus":"img/750/equaldotsize/R/5_Ratio_750_L_15_R_20.png","xmouse":[772,772,772,772,772,772,772,772,772,773,773,773,773,773,773,773,774,774,776,777,779,780,780,780,780,780,780,780,780,780,780,780,780,786,798,825,851,876,917,929,935,941,949,962,965,972,980,988,999,1004,1005,1007,1010,1021,1028,1046,1052,1058,1067],"ymouse":[656,656,656,656,656,656,656,656,656,656,656,656,656,656,656,656,655,653,646,641,635,631,629,629,629,629,629,629,629,629,629,629,626,605,578,517,464,408,296,253,219,192,168,118,95,58,32,9,0,0,0,0,0,3,6,13,15,18,22],"timestamp_mouse":[10,28,43,65,85,105,124,143,163,184,205,225,243,263,283,303,324,343,363,384,405,423,444,464,484,504,523,545,565,584,605,623,644,665,683,703,724,743,763,785,804,824,843,863,885,904,924,944,963,984,1004,1025,1045,1064,1083,1104,1124,1145,1164],"xSR":741.5,"ySR":573.95,"xT1":424.9,"yT1":0,"xT2":1058.1,"yT2":0,"toosoon":0,"cond_shown":"equaldotsize","ratio_trial":750,"smaller_num":"15","larger_num":"20","correct_side":2,"subjID":"samuelalexanderbarraganfonseca38","gender":"0","age":"11","school":"6"},{"start_time":1551901098330,"click_time":1551901099460,"finger_time":1551901099299,"fix_duration":250,"trial":50,"RT":969,"MT":161,"sideResp":1,"stimulus":"img/500/equaldotanddens/L/8_Ratio_500_L_8_R_4.png","xmouse":[755,755,755,758,758,758,759,759,759,759,759,760,763,764,766,768,769,770,770,770,770,770,770,770,770,770,770,770,770,770,770,770,770,770,770,770,770,770,770,770,770,770,770,770,770,765,758,747,731,715,683,633,545,520,504,504,504],"ymouse":[578,578,578,579,579,579,580,580,580,581,582,584,591,594,598,602,605,606,606,606,606,606,606,606,606,606,606,606,606,606,606,606,606,606,606,606,606,606,606,606,606,606,606,606,606,601,596,585,556,530,485,429,289,215,141,110,86],"timestamp_mouse":[15,34,49,69,90,109,129,150,168,190,209,228,249,268,289,309,328,350,370,388,408,429,450,469,489,510,529,549,570,590,608,628,648,670,689,709,729,748,770,788,808,829,848,868,888,908,928,948,969,989,1009,1029,1048,1068,1088,1109,1130],"xSR":741.5,"ySR":573.95,"xT1":424.9,"yT1":0,"xT2":1058.1,"yT2":0,"toosoon":0,"cond_shown":"equaldotanddens","ratio_trial":500,"smaller_num":"4","larger_num":"8","correct_side":1,"subjID":"samuelalexanderbarraganfonseca38","gender":"0","age":"11","school":"6"},{"start_time":1551901102170,"click_time":1551901104039,"finger_time":1551901102639,"fix_duration":1391.8416215153268,"trial":51,"RT":469,"MT":1400,"sideResp":2,"stimulus":"img/250/equaldotsize/R/11_Ratio_250_L_3_R_12.png","xmouse":[780,780,780,780,780,780,780,780,780,780,780,780,780,780,780,780,780,780,780,780,780,780,785,793,805,832,842,847,850,856,867,871,875,878,883,901,916,930,942,947,950,951,952,952,954,959,981,994,1000,1001,1001,1001,1001,1001,1001,1001,1001,1001,1001,1002,1004,1005,1005,1005,1005,1003,1003,1003,1003,1003,1003,1003,1003,1003,1003,1003,1003,1003,1003,1003,1003,1003,1003,1003,1003,1003,1003,1003,1003,1003,1004,1015,1050,1070],"ymouse":[604,604,604,604,604,604,604,604,604,604,604,604,604,604,604,604,604,604,604,604,604,597,578,558,533,477,446,418,392,373,348,342,331,323,312,277,255,231,210,195,180,177,174,171,168,161,135,120,111,108,107,107,107,107,107,107,107,107,107,104,97,91,86,81,77,72,71,71,71,71,71,71,71,71,71,71,71,71,71,71,71,71,71,71,71,71,71,71,71,71,71,68,51,46],"timestamp_mouse":[9,34,50,69,89,108,129,150,168,190,208,229,250,270,289,308,329,348,369,390,409,428,449,469,490,508,529,548,569,590,609,628,649,669,690,709,729,749,769,790,809,829,848,868,888,909,929,948,969,988,1009,1030,1049,1069,1088,1108,1129,1149,1168,1188,1209,1230,1249,1269,1289,1309,1330,1348,1370,1389,1409,1429,1449,1469,1490,1509,1528,1550,1570,1588,1609,1629,1649,1669,1688,1710,1730,1750,1769,1789,1808,1830,1849,1869],"xSR":741.5,"ySR":573.95,"xT1":424.9,"yT1":0,"xT2":1058.1,"yT2":0,"toosoon":0,"cond_shown":"equaldotsize","ratio_trial":250,"smaller_num":"3","larger_num":"12","correct_side":2,"subjID":"samuelalexanderbarraganfonseca38","gender":"0","age":"11","school":"6"},{"start_time":1551901107247,"click_time":1551901108239,"finger_time":1551901107938,"fix_duration":684.2697388803006,"trial":52,"RT":691,"MT":301,"sideResp":1,"stimulus":"img/750/randomdotsizeEA/L/6_Ratio_750_L_24_R_18.png","xmouse":[790,790,790,790,790,790,790,790,790,790,790,790,790,790,790,790,790,790,790,790,790,790,790,790,790,790,790,790,790,790,790,786,777,761,727,668,598,494,459,447,443,431,421,407,398,391,389,395,418,436],"ymouse":[611,611,611,611,611,611,611,611,611,611,611,611,611,611,611,611,611,611,611,611,611,611,611,611,611,611,611,611,611,611,611,609,599,582,550,500,437,323,260,227,201,155,135,113,93,73,35,22,13,11],"timestamp_mouse":[12,42,53,71,93,112,131,153,173,191,212,232,252,271,291,313,332,352,373,392,412,431,451,473,491,512,532,552,572,591,612,633,652,671,691,711,731,753,772,793,812,832,852,871,891,911,931,952,972,991],"xSR":741.5,"ySR":573.95,"xT1":424.9,"yT1":0,"xT2":1058.1,"yT2":0,"toosoon":0,"cond_shown":"randomdotsizeEA","ratio_trial":750,"smaller_num":"18","larger_num":"24","correct_side":1,"subjID":"samuelalexanderbarraganfonseca38","gender":"0","age":"11","school":"6"},{"start_time":1551901109791,"click_time":1551901111119,"finger_time":1551901110398,"fix_duration":250,"trial":53,"RT":607,"MT":721,"sideResp":2,"stimulus":"img/900/equaldotanddens/R/15_Ratio_900_L_9_R_10.png","xmouse":[774,774,774,774,774,774,774,774,774,774,774,774,774,774,774,774,774,774,774,774,772,771,771,771,771,771,771,771,771,771,771,775,778,780,780,782,785,792,810,848,880,941,996,1039,1160,1182,1214,1220,1220,1220,1220,1220,1220,1220,1220,1220,1212,1201,1191,1179,1179,1179,1179,1179,1176,1171,1156],"ymouse":[606,606,606,606,606,606,606,606,606,606,606,606,606,606,606,606,606,606,606,603,595,587,582,579,575,575,575,575,575,574,570,561,551,532,470,441,414,386,354,291,257,207,152,117,31,15,0,0,0,0,0,0,0,0,0,4,16,37,59,85,87,87,87,87,87,84,77],"timestamp_mouse":[10,31,48,67,89,108,128,147,167,187,207,228,247,267,287,308,328,347,368,388,408,427,448,469,487,508,527,548,569,588,607,628,648,668,688,708,728,747,768,789,807,827,848,868,888,908,929,948,969,988,1008,1027,1048,1067,1088,1107,1127,1148,1169,1189,1208,1228,1249,1269,1288,1308,1328],"xSR":741.5,"ySR":573.95,"xT1":424.9,"yT1":0,"xT2":1058.1,"yT2":0,"toosoon":0,"cond_shown":"equaldotanddens","ratio_trial":900,"smaller_num":"9","larger_num":"10","correct_side":2,"subjID":"samuelalexanderbarraganfonseca38","gender":"0","age":"11","school":"6"},{"start_time":1551901114169,"click_time":1551901115160,"finger_time":1551901114818,"fix_duration":528.8464184533045,"trial":54,"RT":649,"MT":342,"sideResp":2,"stimulus":"img/250/randomdotsizeEA/R/4_Ratio_250_L_3_R_12.png","xmouse":[762,762,762,762,762,762,762,762,762,762,762,762,762,762,762,762,762,762,762,762,763,765,765,767,768,768,768,769,771,774,791,804,824,838,858,884,895,908,917,924,934,937,940,948,954,976,992,1012,1035,1060],"ymouse":[638,638,638,638,638,638,638,638,638,638,638,638,638,638,638,638,638,638,638,638,637,637,637,635,635,634,634,632,631,626,610,591,558,532,495,408,367,323,295,271,239,226,214,196,184,158,146,133,116,98],"timestamp_mouse":[11,37,49,70,89,109,130,150,170,189,209,230,251,269,291,310,330,349,371,390,409,429,450,469,491,511,530,550,570,590,609,631,649,670,691,710,730,750,769,789,810,830,850,871,890,910,931,950,970,990],"xSR":741.5,"ySR":573.95,"xT1":424.9,"yT1":0,"xT2":1058.1,"yT2":0,"toosoon":0,"cond_shown":"randomdotsizeEA","ratio_trial":250,"smaller_num":"3","larger_num":"12","correct_side":2,"subjID":"samuelalexanderbarraganfonseca38","gender":"0","age":"11","school":"6"},{"start_time":1551901117221,"click_time":1551901118480,"finger_time":1551901118120,"fix_duration":980.7572915618632,"trial":55,"RT":899,"MT":360,"sideResp":2,"stimulus":"img/750/randomdotsizeEA/R/2_Ratio_750_L_6_R_8.png","xmouse":[768,768,768,768,768,768,768,768,768,768,768,768,768,768,768,768,768,768,768,768,768,768,768,768,768,768,768,768,768,768,768,768,768,768,768,768,768,765,764,764,763,763,767,773,781,793,803,862,914,942,961,971,978,979,979,979,983,1001,1020,1028,1032,1046,1070],"ymouse":[634,634,634,634,634,634,634,634,634,634,634,634,634,634,634,634,634,634,634,634,634,634,634,634,634,634,634,634,634,634,634,634,634,634,634,631,629,625,623,619,610,605,588,575,551,511,435,265,197,145,122,107,90,82,70,57,40,15,8,8,8,9,14],"timestamp_mouse":[20,38,58,78,99,118,138,159,180,199,219,239,259,279,298,319,338,358,379,400,418,438,458,479,498,519,538,559,579,598,619,639,659,678,699,719,738,758,778,799,819,839,858,879,899,918,939,958,978,999,1018,1039,1059,1078,1099,1118,1138,1158,1178,1198,1219,1239,1258],"xSR":741.5,"ySR":573.95,"xT1":424.9,"yT1":0,"xT2":1058.1,"yT2":0,"toosoon":0,"cond_shown":"randomdotsizeEA","ratio_trial":750,"smaller_num":"6","larger_num":"8","correct_side":2,"subjID":"samuelalexanderbarraganfonseca38","gender":"0","age":"11","school":"6"},{"start_time":1551901120639,"click_time":1551901121700,"finger_time":1551901121379,"fix_duration":977.3301528224208,"trial":56,"RT":740,"MT":321,"sideResp":1,"stimulus":"img/750/equaldotsize/L/14_Ratio_750_L_8_R_6.png","xmouse":[781,781,781,781,781,781,781,781,781,780,779,779,779,779,779,779,779,779,779,779,779,779,779,779,779,779,779,779,779,779,779,779,779,779,779,779,781,797,807,815,819,819,774,736,698,671,651,636,629,621,596,572,532,516],"ymouse":[616,616,616,616,616,616,616,616,616,616,615,615,615,615,615,615,615,615,615,615,615,615,615,615,615,615,615,615,615,615,615,615,615,615,615,601,593,541,516,494,460,432,331,276,226,192,168,150,144,139,127,117,95,85],"timestamp_mouse":[9,20,40,62,80,100,121,140,160,181,200,221,240,261,280,300,321,340,360,380,401,422,440,461,480,501,521,540,561,580,600,620,640,661,680,701,720,740,760,780,800,820,840,861,880,900,920,940,961,982,1001,1020,1041,1060],"xSR":741.5,"ySR":573.95,"xT1":424.9,"yT1":0,"xT2":1058.1,"yT2":0,"toosoon":0,"cond_shown":"equaldotsize","ratio_trial":750,"smaller_num":"6","larger_num":"8","correct_side":1,"subjID":"samuelalexanderbarraganfonseca38","gender":"0","age":"11","school":"6"},{"start_time":1551901123531,"click_time":1551901124360,"finger_time":1551901124180,"fix_duration":250,"trial":57,"RT":649,"MT":180,"sideResp":1,"stimulus":"img/250/randomdotsizeEA/L/5_Ratio_250_L_24_R_6.png","xmouse":[793,793,793,793,793,793,793,793,793,793,793,793,793,793,793,793,793,793,793,793,793,793,793,793,793,793,793,793,793,793,784,775,723,683,650,622,588,548,534,516,485,448],"ymouse":[624,624,624,624,624,624,624,624,624,624,624,624,624,624,624,624,624,624,624,624,624,624,624,624,624,624,624,624,624,624,615,605,541,493,442,392,310,218,179,143,101,64],"timestamp_mouse":[14,33,49,68,88,109,129,148,169,188,208,228,249,269,288,308,328,348,368,388,409,428,450,469,489,509,528,548,568,588,608,629,649,670,688,709,728,748,768,788,808,829],"xSR":741.5,"ySR":573.95,"xT1":424.9,"yT1":0,"xT2":1058.1,"yT2":0,"toosoon":0,"cond_shown":"randomdotsizeEA","ratio_trial":250,"smaller_num":"6","larger_num":"24","correct_side":1,"subjID":"samuelalexanderbarraganfonseca38","gender":"0","age":"11","school":"6"},{"start_time":1551901126558,"click_time":1551901127559,"finger_time":1551901127079,"fix_duration":977.0026859185482,"trial":58,"RT":521,"MT":480,"sideResp":1,"stimulus":"img/500/equaldotsize/L/8_Ratio_500_L_8_R_4.png","xmouse":[758,758,758,758,758,758,758,758,758,758,758,758,758,758,758,758,758,758,758,758,758,758,758,758,756,748,723,700,676,645,618,567,545,528,504,493,464,448,441,441,441,441,441,441,441,441,441,441,441,441,440],"ymouse":[647,647,647,647,647,647,647,647,647,647,647,647,647,647,647,647,647,647,647,647,647,647,647,647,643,633,596,562,518,467,419,331,292,260,220,200,165,154,149,149,149,149,148,146,142,136,122,114,107,102,92],"timestamp_mouse":[9,30,41,61,81,101,121,141,162,183,201,221,243,262,281,301,321,341,362,381,401,421,442,462,482,501,521,541,562,582,602,622,642,661,681,701,721,742,761,781,801,821,842,861,881,901,921,941,962,982,1001],"xSR":741.5,"ySR":573.95,"xT1":424.9,"yT1":0,"xT2":1058.1,"yT2":0,"toosoon":0,"cond_shown":"equaldotsize","ratio_trial":500,"smaller_num":"4","larger_num":"8","correct_side":1,"subjID":"samuelalexanderbarraganfonseca38","gender":"0","age":"11","school":"6"},{"start_time":1551901130830,"click_time":1551901131961,"finger_time":1551901131499,"fix_duration":250,"trial":59,"RT":669,"MT":462,"sideResp":1,"stimulus":"img/900/randomdotsizeEA/L/10_Ratio_900_L_20_R_18.png","xmouse":[748,748,748,748,748,748,748,748,748,748,749,750,752,753,754,754,754,754,754,754,754,754,754,754,754,754,754,754,754,754,754,754,744,723,689,645,597,534,513,493,451,407,328,313,308,308,308,309,311,313,318,323,332,361,383,407,433],"ymouse":[647,647,647,647,647,647,647,647,647,647,644,643,638,637,636,636,636,636,636,636,636,636,636,636,636,636,636,636,636,636,636,636,615,583,537,485,429,348,316,287,246,213,160,146,136,131,126,119,116,113,107,101,94,83,79,75,71],"timestamp_mouse":[11,30,49,70,89,110,129,149,169,190,210,229,249,270,290,309,330,351,370,390,410,429,449,469,490,509,530,551,570,590,609,629,649,669,689,709,729,749,769,790,809,830,849,869,890,909,930,949,969,990,1010,1029,1049,1069,1089,1111,1130],"xSR":741.5,"ySR":573.95,"xT1":424.9,"yT1":0,"xT2":1058.1,"yT2":0,"toosoon":0,"cond_shown":"randomdotsizeEA","ratio_trial":900,"smaller_num":"18","larger_num":"20","correct_side":1,"subjID":"samuelalexanderbarraganfonseca38","gender":"0","age":"11","school":"6"},{"start_time":1551901134266,"click_time":1551901135079,"finger_time":1551901134899,"fix_duration":1126.0609105805427,"trial":60,"RT":633,"MT":180,"sideResp":1,"stimulus":"img/250/equaldotsize/L/2_Ratio_250_L_16_R_4.png","xmouse":[809,809,809,809,809,809,809,810,810,810,810,810,810,810,811,812,812,812,812,812,812,812,812,812,812,812,812,812,812,812,795,765,724,685,650,608,593,583,559,536,480],"ymouse":[633,633,631,628,625,621,619,618,618,618,615,614,612,610,608,602,599,595,591,591,591,591,591,591,591,591,591,591,591,591,574,542,492,430,354,223,174,143,107,90,64],"timestamp_mouse":[13,33,53,75,94,114,135,153,173,194,213,233,253,273,294,313,333,353,373,393,413,434,455,473,494,514,534,553,574,594,613,633,653,673,693,713,733,753,773,793,813],"xSR":741.5,"ySR":573.95,"xT1":424.9,"yT1":0,"xT2":1058.1,"yT2":0,"toosoon":0,"cond_shown":"equaldotsize","ratio_trial":250,"smaller_num":"4","larger_num":"16","correct_side":1,"subjID":"samuelalexanderbarraganfonseca38","gender":"0","age":"11","school":"6"},{"start_time":1551901137323,"click_time":1551901137999,"finger_time":1551901137839,"fix_duration":1042.816298209396,"trial":61,"RT":516,"MT":160,"sideResp":1,"stimulus":"img/900/equaldotsize/L/10_Ratio_900_L_20_R_18.png","xmouse":[796,796,796,795,795,795,795,795,795,795,795,795,795,795,795,795,795,795,795,795,795,795,797,797,797,797,797,787,762,719,655,596,532,523],"ymouse":[619,619,619,617,614,614,614,613,613,613,613,613,613,613,613,613,613,610,607,605,602,600,593,588,582,572,562,516,464,387,295,211,104,83],"timestamp_mouse":[17,36,56,76,97,116,136,156,176,197,216,236,256,276,297,316,337,356,377,396,416,436,457,476,497,516,537,556,577,596,617,636,656,676],"xSR":741.5,"ySR":573.95,"xT1":424.9,"yT1":0,"xT2":1058.1,"yT2":0,"toosoon":0,"cond_shown":"equaldotsize","ratio_trial":900,"smaller_num":"18","larger_num":"20","correct_side":1,"subjID":"samuelalexanderbarraganfonseca38","gender":"0","age":"11","school":"6"},{"start_time":1551901140799,"click_time":1551901141920,"finger_time":1551901141379,"fix_duration":937.1110672733545,"trial":62,"RT":580,"MT":541,"sideResp":1,"stimulus":"img/750/equaldotanddens/L/1_Ratio_750_L_20_R_15.png","xmouse":[766,766,766,766,766,766,766,766,766,766,766,766,766,766,766,766,766,766,766,766,766,766,766,766,766,766,766,766,766,740,706,654,621,600,573,559,541,525,513,506,504,498,493,489,482,477,471,466,456,442,438,437,437,437,437,437,437],"ymouse":[649,649,649,649,649,649,649,649,649,649,649,649,649,649,649,649,649,649,649,649,649,649,649,649,649,649,649,649,648,605,551,461,402,356,296,276,260,247,238,231,228,221,215,211,198,189,179,165,146,120,111,101,100,100,100,100,99],"timestamp_mouse":[8,27,40,60,80,101,121,141,160,180,200,221,240,260,280,300,321,341,361,382,400,420,441,460,481,501,520,540,560,580,601,621,641,661,680,701,721,741,761,780,801,821,840,861,881,900,920,941,960,980,1000,1021,1040,1060,1081,1100,1120],"xSR":741.5,"ySR":573.95,"xT1":424.9,"yT1":0,"xT2":1058.1,"yT2":0,"toosoon":0,"cond_shown":"equaldotanddens","ratio_trial":750,"smaller_num":"15","larger_num":"20","correct_side":1,"subjID":"samuelalexanderbarraganfonseca38","gender":"0","age":"11","school":"6"},{"start_time":1551901143999,"click_time":1551901145379,"finger_time":1551901144300,"fix_duration":1059.236992253827,"trial":63,"RT":301,"MT":1079,"sideResp":1,"stimulus":"img/900/equaldotanddens/L/4_Ratio_900_L_20_R_18.png","xmouse":[817,817,817,817,813,812,812,811,811,811,811,811,811,811,812,817,824,831,835,836,837,839,845,848,861,867,874,879,885,902,911,925,935,944,968,980,993,1002,1009,1009,1009,1009,1003,992,887,807,721,640,551,386,335,330,330,330,329,328,328,328,329,331,334,337,345,354,375,385,392,402,417,463],"ymouse":[611,611,611,611,609,607,606,605,604,604,604,604,603,597,583,569,551,531,506,463,443,431,409,398,369,356,341,325,312,290,283,276,271,266,252,243,234,227,222,222,222,222,227,233,281,299,305,305,281,209,171,163,160,157,149,142,134,125,115,104,100,96,89,82,69,65,62,60,60,65],"timestamp_mouse":[9,28,40,62,80,101,121,141,160,180,201,220,241,260,281,301,320,341,361,381,400,420,441,460,480,501,520,542,560,580,600,620,640,660,680,700,720,740,761,780,800,821,841,860,880,900,921,940,960,981,1001,1020,1040,1061,1080,1100,1120,1140,1161,1180,1202,1221,1240,1261,1280,1300,1320,1341,1361,1380],"xSR":741.5,"ySR":573.95,"xT1":424.9,"yT1":0,"xT2":1058.1,"yT2":0,"toosoon":0,"cond_shown":"equaldotanddens","ratio_trial":900,"smaller_num":"18","larger_num":"20","correct_side":1,"subjID