[{"start_time":1551901391555,"click_time":1551901393022,"finger_time":1551901391802,"fix_duration":250,"trial":0,"RT":247,"MT":1220,"sideResp":1,"stimulus":"img/900/randomdotsizeEA/R/14_Ratio_900_L_18_R_20.png","xmouse":[743,746,746,751,752,753,753,753,753,752,749,745,740,740,740,740,740,739,739,739,739,740,742,735,719,698,648,639,636,636,636,630,595,592,592,592,594,604,610,617,620,625,634,634,634,634,634,634,634,634,634,634,634,634,634,634,634,634,638,642,650,658,658,658,654,644,595,550,520,498,489,486,470,447],"ymouse":[488,488,488,488,488,488,488,488,488,488,490,491,492,492,492,492,492,492,492,492,492,492,485,477,462,441,390,374,368,363,355,338,296,294,294,294,294,294,297,302,302,306,314,314,314,314,314,314,314,314,314,314,314,314,314,314,314,314,316,317,315,312,309,298,289,273,216,182,161,145,136,128,107,86],"timestamp_mouse":[7,32,46,65,85,107,126,146,167,185,207,225,246,266,287,306,327,345,365,385,406,426,447,465,485,505,527,546,566,586,606,625,647,666,686,706,727,746,767,786,805,825,847,866,886,906,926,946,966,986,1007,1026,1046,1066,1086,1105,1127,1145,1165,1185,1206,1227,1246,1265,1286,1305,1327,1345,1366,1386,1407,1426,1446,1466],"xSR":741.5,"ySR":469.95,"xT1":424.9,"yT1":0,"xT2":1058.1,"yT2":0,"toosoon":0,"cond_shown":"randomdotsizeEA","ratio_trial":900,"smaller_num":"18","larger_num":"20","correct_side":2,"subjID":"samuelarchila3","gender":"male","age":"11","school":"cafam","test":{"fix_dur":[250,1500],"timestim":300,"targets_dim":[100,100],"targets_relative_coord":[0.3,0.7],"size_stim":[880,420],"start_dim":[100,100],"size_start":[300,300],"size_fix":60,"samplingrate":20,"img_types":["equaldotsize","equaldotanddens","randomdotsizeEA"],"ratios":[250,500,750,900],"rep_conds":9,"nTrials":120,"trials_to_rest":500,"Trials_order":[11,94,51,0,52,46,107,92,54,85,74,55,102,103,82,83,48,1,105,26,61,12,44,9,111,4,69,17,29,73,43,68,3,59,76,84,13,112,27,113,65,98,108,36,118,63,40,8,37,50,15,110,39,10,60,72,49,56,20,106,96,30,114,25,116,78,41,5,45,66,93,32,53,115,24,14,95,88,91,64,16,21,104,42,34,80,100,67,71,99,97,117,35,7,89,22,18,86,101,119,19,47,109,75,31,38,62,6,81,87,28,70,2,33,58,90,79,57,23,77],"cond_shown":["randomdotsizeEA","equaldotanddens","equaldotsize","equaldotsize","equaldotanddens","equaldotanddens","randomdotsizeEA","randomdotsizeEA","equaldotsize","equaldotanddens","randomdotsizeEA","equaldotanddens","equaldotsize","equaldotanddens","equaldotanddens","randomdotsizeEA","equaldotsize","equaldotanddens","equaldotsize","randomdotsizeEA","equaldotanddens","equaldotsize","randomdotsizeEA","equaldotsize","equaldotsize","equaldotanddens","equaldotsize","randomdotsizeEA","randomdotsizeEA","equaldotanddens","equaldotanddens","randomdotsizeEA","equaldotsize","randomdotsizeEA","equaldotanddens","equaldotsize","equaldotanddens","equaldotanddens","equaldotsize","randomdotsizeEA","randomdotsizeEA","randomdotsizeEA","equaldotsize","equaldotsize","equaldotanddens","equaldotsize","equaldotanddens","randomdotsizeEA","equaldotanddens","randomdotsizeEA","equaldotsize","randomdotsizeEA","equaldotsize","equaldotanddens","equaldotsize","equaldotsize","equaldotanddens","randomdotsizeEA","randomdotsizeEA","equaldotanddens","equaldotsize","equaldotsize","equaldotsize","equaldotanddens","randomdotsizeEA","equaldotsize","randomdotsizeEA","randomdotsizeEA","equaldotsize","equaldotsize","equaldotsize","randomdotsizeEA","randomdotsizeEA","equaldotanddens","equaldotsize","randomdotsizeEA","randomdotsizeEA","equaldotanddens","equaldotanddens","equaldotanddens","equaldotanddens","equaldotsize","randomdotsizeEA","equaldotsize","equaldotanddens","randomdotsizeEA","equaldotanddens","equaldotanddens","randomdotsizeEA","equaldotsize","equaldotanddens","equaldotsize","randomdotsizeEA","equaldotanddens","randomdotsizeEA","equaldotanddens","equaldotsize","randomdotsizeEA","randomdotsizeEA","randomdotsizeEA","equaldotanddens","randomdotsizeEA","equaldotanddens","equaldotsize","equaldotanddens","randomdotsizeEA","randomdotsizeEA","equaldotsize","equaldotsize","equaldotsize","equaldotanddens","equaldotanddens","randomdotsizeEA","equaldotsize","equaldotanddens","equaldotsize","equaldotanddens","equaldotsize","randomdotsizeEA","randomdotsizeEA"],"ratio_trial":[900,900,500,250,500,900,900,750,750,250,250,750,750,750,900,900,250,250,900,250,250,250,750,900,500,500,900,500,500,250,750,750,500,900,500,250,250,500,500,500,500,250,250,250,900,500,500,750,250,250,500,250,500,900,250,250,250,750,750,900,250,750,750,250,750,750,500,500,900,750,900,750,500,750,250,250,900,500,750,500,500,900,750,750,900,750,500,750,900,500,250,900,900,750,500,900,750,250,500,900,750,900,250,500,750,250,250,750,900,500,500,900,250,900,900,750,750,900,900,500],"smaller_num":["18","18","4","5","2","9","9","18","6","4","2","12","18","3","18","18","2","4","18","5","3","5","12","18","4","6","9","6","9","6","6","12","5","18","9","2","5","2","2","6","10","2","6","2","18","9","9","3","6","3","2","3","1","9","6","2","6","12","6","9","1","6","15","5","12","18","4","1","9","3","18","15","10","6","3","2","9","1","3","3","2","9","12","3","9","18","9","15","18","1","2","18","18","15","9","9","15","6","5","18","9","18","3","1","12","4","4","15","18","9","10","18","4","18","18","3","6","9","18","9"],"larger_num":["20","20","8","20","4","10","10","24","8","16","8","16","24","4","20","20","8","16","20","20","12","20","16","20","8","12","10","12","18","24","8","16","10","20","18","8","20","4","4","12","20","8","24","8","20","18","18","4","24","12","4","12","2","10","24","8","24","16","8","10","4","8","20","20","16","24","8","2","10","4","20","20","20","8","12","8","10","2","4","6","4","10","16","4","10","24","18","20","20","2","8","20","20","20","18","10","20","24","10","20","12","20","12","2","16","16","16","20","20","18","20","20","16","20","20","4","8","10","20","18"],"correct_side":[2,1,1,2,1,2,2,1,2,2,1,2,1,1,2,2,1,2,1,2,2,2,2,1,1,1,1,1,2,1,2,2,1,1,1,1,2,1,2,1,2,2,2,1,1,2,2,1,1,1,1,2,2,2,2,1,1,2,2,2,2,2,2,2,2,1,1,2,2,1,1,2,2,2,1,2,2,2,2,2,1,1,2,2,1,1,1,2,1,2,1,2,2,2,1,1,2,1,2,1,2,1,1,2,2,2,1,2,1,2,2,2,1,1,1,2,2,2,2,1],"img_shown":["img/900/randomdotsizeEA/R/14_Ratio_900_L_18_R_20.png","img/900/equaldotanddens/L/4_Ratio_900_L_20_R_18.png","img/500/equaldotsize/L/8_Ratio_500_L_8_R_4.png","img/250/equaldotsize/R/12_Ratio_250_L_5_R_20.png","img/500/equaldotanddens/L/5_Ratio_500_L_4_R_2.png","img/900/equaldotanddens/R/6_Ratio_900_L_9_R_10.png","img/900/randomdotsizeEA/R/3_Ratio_900_L_9_R_10.png","img/750/randomdotsizeEA/L/6_Ratio_750_L_24_R_18.png","img/750/equaldotsize/R/2_Ratio_750_L_6_R_8.png","img/250/equaldotanddens/R/10_Ratio_250_L_4_R_16.png","img/250/randomdotsizeEA/L/3_Ratio_250_L_8_R_2.png","img/750/equaldotanddens/R/11_Ratio_750_L_12_R_16.png","img/750/equaldotsize/L/6_Ratio_750_L_24_R_18.png","img/750/equaldotanddens/L/9_Ratio_750_L_4_R_3.png","img/900/equaldotanddens/R/14_Ratio_900_L_18_R_20.png","img/900/randomdotsizeEA/R/13_Ratio_900_L_18_R_20.png","img/250/equaldotsize/L/1_Ratio_250_L_8_R_2.png","img/250/equaldotanddens/R/10_Ratio_250_L_4_R_16.png","img/900/equaldotsize/L/4_Ratio_900_L_20_R_18.png","img/250/randomdotsizeEA/R/12_Ratio_250_L_5_R_20.png","img/250/equaldotanddens/R/11_Ratio_250_L_3_R_12.png","img/250/equaldotsize/R/12_Ratio_250_L_5_R_20.png","img/750/randomdotsizeEA/R/11_Ratio_750_L_12_R_16.png","img/900/equaldotsize/L/2_Ratio_900_L_20_R_18.png","img/500/equaldotsize/L/8_Ratio_500_L_8_R_4.png","img/500/equaldotanddens/L/13_Ratio_500_L_12_R_6.png","img/900/equaldotsize/L/1_Ratio_900_L_10_R_9.png","img/500/randomdotsizeEA/L/11_Ratio_500_L_12_R_6.png","img/500/randomdotsizeEA/R/1_Ratio_500_L_9_R_18.png","img/250/equaldotanddens/L/5_Ratio_250_L_24_R_6.png","img/750/equaldotanddens/R/2_Ratio_750_L_6_R_8.png","img/750/randomdotsizeEA/R/11_Ratio_750_L_12_R_16.png","img/500/equaldotsize/L/7_Ratio_500_L_10_R_5.png","img/900/randomdotsizeEA/L/8_Ratio_900_L_20_R_18.png","img/500/equaldotanddens/L/4_Ratio_500_L_18_R_9.png","img/250/equaldotsize/L/7_Ratio_250_L_8_R_2.png","img/250/equaldotanddens/R/12_Ratio_250_L_5_R_20.png","img/500/equaldotanddens/L/5_Ratio_500_L_4_R_2.png","img/500/equaldotsize/R/9_Ratio_500_L_2_R_4.png","img/500/randomdotsizeEA/L/13_Ratio_500_L_12_R_6.png","img/500/randomdotsizeEA/R/3_Ratio_500_L_10_R_20.png","img/250/randomdotsizeEA/R/13_Ratio_250_L_2_R_8.png","img/250/equaldotsize/R/6_Ratio_250_L_6_R_24.png","img/250/equaldotsize/L/3_Ratio_250_L_8_R_2.png","img/900/equaldotanddens/L/10_Ratio_900_L_20_R_18.png","img/500/equaldotsize/R/6_Ratio_500_L_9_R_18.png","img/500/equaldotanddens/R/1_Ratio_500_L_9_R_18.png","img/750/randomdotsizeEA/L/10_Ratio_750_L_4_R_3.png","img/250/equaldotanddens/L/5_Ratio_250_L_24_R_6.png","img/250/randomdotsizeEA/L/15_Ratio_250_L_12_R_3.png","img/500/equaldotsize/L/10_Ratio_500_L_4_R_2.png","img/250/randomdotsizeEA/R/11_Ratio_250_L_3_R_12.png","img/500/equaldotsize/R/12_Ratio_500_L_1_R_2.png","img/900/equaldotanddens/R/7_Ratio_900_L_9_R_10.png","img/250/equaldotsize/R/6_Ratio_250_L_6_R_24.png","img/250/equaldotsize/L/3_Ratio_250_L_8_R_2.png","img/250/equaldotanddens/L/5_Ratio_250_L_24_R_6.png","img/750/randomdotsizeEA/R/11_Ratio_750_L_12_R_16.png","img/750/randomdotsizeEA/R/2_Ratio_750_L_6_R_8.png","img/900/equaldotanddens/R/3_Ratio_900_L_9_R_10.png","img/250/equaldotsize/R/8_Ratio_250_L_1_R_4.png","img/750/equaldotsize/R/2_Ratio_750_L_6_R_8.png","img/750/equaldotsize/R/5_Ratio_750_L_15_R_20.png","img/250/equaldotanddens/R/12_Ratio_250_L_5_R_20.png","img/750/randomdotsizeEA/R/11_Ratio_750_L_12_R_16.png","img/750/equaldotsize/L/6_Ratio_750_L_24_R_18.png","img/500/randomdotsizeEA/L/8_Ratio_500_L_8_R_4.png","img/500/randomdotsizeEA/R/12_Ratio_500_L_1_R_2.png","img/900/equaldotsize/R/7_Ratio_900_L_9_R_10.png","img/750/equaldotsize/L/9_Ratio_750_L_4_R_3.png","img/900/equaldotsize/L/4_Ratio_900_L_20_R_18.png","img/750/randomdotsizeEA/R/5_Ratio_750_L_15_R_20.png","img/500/randomdotsizeEA/R/3_Ratio_500_L_10_R_20.png","img/750/equaldotanddens/R/2_Ratio_750_L_6_R_8.png","img/250/equaldotsize/L/14_Ratio_250_L_12_R_3.png","img/250/randomdotsizeEA/R/13_Ratio_250_L_2_R_8.png","img/900/randomdotsizeEA/R/6_Ratio_900_L_9_R_10.png","img/500/equaldotanddens/R/15_Ratio_500_L_1_R_2.png","img/750/equaldotanddens/R/7_Ratio_750_L_3_R_4.png","img/500/equaldotanddens/R/2_Ratio_500_L_3_R_6.png","img/500/equaldotanddens/L/10_Ratio_500_L_4_R_2.png","img/900/equaldotsize/L/1_Ratio_900_L_10_R_9.png","img/750/randomdotsizeEA/R/11_Ratio_750_L_12_R_16.png","img/750/equaldotsize/R/7_Ratio_750_L_3_R_4.png","img/900/equaldotanddens/L/1_Ratio_900_L_10_R_9.png","img/750/randomdotsizeEA/L/6_Ratio_750_L_24_R_18.png","img/500/equaldotanddens/L/4_Ratio_500_L_18_R_9.png","img/750/equaldotanddens/R/4_Ratio_750_L_15_R_20.png","img/900/randomdotsizeEA/L/10_Ratio_900_L_20_R_18.png","img/500/equaldotsize/R/12_Ratio_500_L_1_R_2.png","img/250/equaldotanddens/L/3_Ratio_250_L_8_R_2.png","img/900/equaldotsize/R/12_Ratio_900_L_18_R_20.png","img/900/randomdotsizeEA/R/12_Ratio_900_L_18_R_20.png","img/750/equaldotanddens/R/5_Ratio_750_L_15_R_20.png","img/500/randomdotsizeEA/L/4_Ratio_500_L_18_R_9.png","img/900/equaldotanddens/L/1_Ratio_900_L_10_R_9.png","img/750/equaldotsize/R/3_Ratio_750_L_15_R_20.png","img/250/randomdotsizeEA/L/5_Ratio_250_L_24_R_6.png","img/500/randomdotsizeEA/R/14_Ratio_500_L_5_R_10.png","img/900/randomdotsizeEA/L/8_Ratio_900_L_20_R_18.png","img/750/equaldotanddens/R/15_Ratio_750_L_9_R_12.png","img/900/randomdotsizeEA/L/2_Ratio_900_L_20_R_18.png","img/250/equaldotanddens/L/15_Ratio_250_L_12_R_3.png","img/500/equaldotsize/R/15_Ratio_500_L_1_R_2.png","img/750/equaldotanddens/R/11_Ratio_750_L_12_R_16.png","img/250/randomdotsizeEA/R/10_Ratio_250_L_4_R_16.png","img/250/randomdotsizeEA/L/2_Ratio_250_L_16_R_4.png","img/750/equaldotsize/R/3_Ratio_750_L_15_R_20.png","img/900/equaldotsize/L/2_Ratio_900_L_20_R_18.png","img/500/equaldotsize/R/1_Ratio_500_L_9_R_18.png","img/500/equaldotanddens/R/3_Ratio_500_L_10_R_20.png","img/900/equaldotanddens/R/12_Ratio_900_L_18_R_20.png","img/250/randomdotsizeEA/L/2_Ratio_250_L_16_R_4.png","img/900/equaldotsize/L/10_Ratio_900_L_20_R_18.png","img/900/equaldotanddens/L/4_Ratio_900_L_20_R_18.png","img/750/equaldotsize/R/7_Ratio_750_L_3_R_4.png","img/750/equaldotanddens/R/2_Ratio_750_L_6_R_8.png","img/900/equaldotsize/R/6_Ratio_900_L_9_R_10.png","img/900/randomdotsizeEA/R/9_Ratio_900_L_18_R_20.png","img/500/randomdotsizeEA/L/4_Ratio_500_L_18_R_9.png"],"Rat0":[["12_Ratio_0_L_9_R_0.png","13_Ratio_0_L_6_R_0.png","5_Ratio_0_L_2_R_0.png","6_Ratio_0_L_4_R_0.png","8_Ratio_0_L_6_R_0.png"],["1_Ratio_0_L_0_R_17.png","10_Ratio_0_L_0_R_22.png","11_Ratio_0_L_0_R_1.png","14_Ratio_0_L_0_R_24.png","15_Ratio_0_L_0_R_4.png","2_Ratio_0_L_0_R_5.png","3_Ratio_0_L_0_R_17.png","4_Ratio_0_L_0_R_7.png","7_Ratio_0_L_0_R_19.png","9_Ratio_0_L_0_R_15.png"]],"Rat250":[["1_Ratio_250_L_8_R_2.png","14_Ratio_250_L_12_R_3.png","15_Ratio_250_L_12_R_3.png","2_Ratio_250_L_16_R_4.png","3_Ratio_250_L_8_R_2.png","5_Ratio_250_L_24_R_6.png","7_Ratio_250_L_8_R_2.png"],["10_Ratio_250_L_4_R_16.png","11_Ratio_250_L_3_R_12.png","12_Ratio_250_L_5_R_20.png","13_Ratio_250_L_2_R_8.png","4_Ratio_250_L_3_R_12.png","6_Ratio_250_L_6_R_24.png","8_Ratio_250_L_1_R_4.png","9_Ratio_250_L_3_R_12.png"]],"Rat500":[["10_Ratio_500_L_4_R_2.png","11_Ratio_500_L_12_R_6.png","13_Ratio_500_L_12_R_6.png","4_Ratio_500_L_18_R_9.png","5_Ratio_500_L_4_R_2.png","7_Ratio_500_L_10_R_5.png","8_Ratio_500_L_8_R_4.png"],["1_Ratio_500_L_9_R_18.png","12_Ratio_500_L_1_R_2.png","14_Ratio_500_L_5_R_10.png","15_Ratio_500_L_1_R_2.png","2_Ratio_500_L_3_R_6.png","3_Ratio_500_L_10_R_20.png","6_Ratio_500_L_9_R_18.png","9_Ratio_500_L_2_R_4.png"]],"Rat750":[["1_Ratio_750_L_20_R_15.png","10_Ratio_750_L_4_R_3.png","13_Ratio_750_L_8_R_6.png","14_Ratio_750_L_8_R_6.png","6_Ratio_750_L_24_R_18.png","8_Ratio_750_L_4_R_3.png","9_Ratio_750_L_4_R_3.png"],["11_Ratio_750_L_12_R_16.png","12_Ratio_750_L_3_R_4.png","15_Ratio_750_L_9_R_12.png","2_Ratio_750_L_6_R_8.png","3_Ratio_750_L_15_R_20.png","4_Ratio_750_L_15_R_20.png","5_Ratio_750_L_15_R_20.png","7_Ratio_750_L_3_R_4.png"]],"Rat900":[["1_Ratio_900_L_10_R_9.png","10_Ratio_900_L_20_R_18.png","2_Ratio_900_L_20_R_18.png","4_Ratio_900_L_20_R_18.png","8_Ratio_900_L_20_R_18.png"],["11_Ratio_900_L_18_R_20.png","12_Ratio_900_L_18_R_20.png","13_Ratio_900_L_18_R_20.png","14_Ratio_900_L_18_R_20.png","15_Ratio_900_L_9_R_10.png","3_Ratio_900_L_9_R_10.png","5_Ratio_900_L_9_R_10.png","6_Ratio_900_L_9_R_10.png","7_Ratio_900_L_9_R_10.png","9_Ratio_900_L_18_R_20.png"]],"Rat1000":[["10_Ratio_1000_L_16_R_16.png","11_Ratio_1000_L_6_R_6.png","12_Ratio_1000_L_14_R_14.png","13_Ratio_1000_L_20_R_20.png","15_Ratio_1000_L_15_R_15.png","2_Ratio_1000_L_17_R_17.png","4_Ratio_1000_L_9_R_9.png","5_Ratio_1000_L_6_R_6.png","6_Ratio_1000_L_19_R_19.png","8_Ratio_1000_L_14_R_14.png","9_Ratio_1000_L_25_R_25.png"],["1_Ratio_1000_L_1_R_1.png","14_Ratio_1000_L_17_R_17.png","3_Ratio_1000_L_17_R_17.png","7_Ratio_1000_L_6_R_6.png"]]}},{"start_time":1551901394649,"click_time":1551901395283,"finger_time":1551901395082,"fix_duration":906.106168086998,"trial":1,"RT":433,"MT":201,"sideResp":2,"stimulus":"img/900/equaldotanddens/L/4_Ratio_900_L_20_R_18.png","xmouse":[781,781,781,781,781,781,781,781,781,781,781,781,781,781,781,781,781,780,784,793,805,851,877,898,921,945,967,995,1009,1029,1055,1120],"ymouse":[539,539,539,539,539,539,539,539,539,539,539,539,539,539,539,539,539,538,533,521,498,413,363,319,281,248,212,174,161,147,130,83],"timestamp_mouse":[11,31,59,73,92,113,132,152,173,192,212,233,252,272,293,312,332,353,371,391,412,432,451,472,492,511,531,551,572,592,612,633],"xSR":741.5,"ySR":469.95,"xT1":424.9,"yT1":0,"xT2":1058.1,"yT2":0,"toosoon":0,"cond_shown":"equaldotanddens","ratio_trial":900,"smaller_num":"18","larger_num":"20","correct_side":1,"subjID":"samuelarchila3","gender":"male","age":"11","school":"cafam"},{"start_time":1551901397323,"click_time":1551901398982,"finger_time":1551901398481,"fix_duration":1320.968355066133,"trial":2,"RT":1158,"MT":501,"sideResp":2,"stimulus":"img/500/equaldotsize/L/8_Ratio_500_L_8_R_4.png","xmouse":[814,814,814,814,814,814,814,814,814,814,814,814,814,814,814,814,814,814,814,814,814,814,814,814,814,814,814,814,814,814,814,814,814,814,814,813,811,808,808,808,808,808,808,808,808,808,808,808,808,808,808,808,808,808,808,808,808,808,810,810,810,807,811,816,821,827,838,866,878,889,899,910,942,950,963,981,1003,1033,1044,1051,1054,1054,1095],"ymouse":[505,505,505,505,505,505,505,505,505,505,505,505,505,505,505,505,505,505,505,505,505,505,505,505,505,505,505,505,505,505,505,505,505,505,505,505,505,505,505,505,505,505,505,505,505,505,505,505,505,505,505,505,505,505,505,500,490,461,416,400,386,373,336,319,304,291,279,263,254,245,234,224,207,203,197,185,167,125,106,94,92,92,80],"timestamp_mouse":[19,41,57,78,98,118,138,158,178,197,217,239,258,278,298,319,338,358,378,398,417,437,458,478,499,517,538,558,579,598,618,639,658,677,699,719,738,758,778,798,819,838,859,878,898,917,938,959,979,998,1018,1037,1058,1078,1098,1118,1137,1158,1178,1198,1218,1237,1259,1278,1298,1319,1338,1358,1378,1398,1418,1438,1458,1477,1497,1519,1538,1559,1577,1598,1618,1638,1658],"xSR":741.5,"ySR":469.95,"xT1":424.9,"yT1":0,"xT2":1058.1,"yT2":0,"toosoon":0,"cond_shown":"equaldotsize","ratio_trial":500,"smaller_num":"4","larger_num":"8","correct_side":1,"subjID":"samuelarchila3","gender":"male","age":"11","school":"cafam"},{"start_time":1551901403253,"click_time":1551901404141,"finger_time":1551901403760,"fix_duration":1351.544669004212,"trial":3,"RT":507,"MT":381,"sideResp":2,"stimulus":"img/250/equaldotsize/R/12_Ratio_250_L_5_R_20.png","xmouse":[743,743,743,743,743,743,743,743,743,743,743,743,743,743,743,743,743,743,743,743,743,744,751,763,778,806,844,860,876,892,913,959,975,989,999,1008,1014,1016,1019,1026,1035,1045,1067,1077,1083],"ymouse":[514,514,514,514,514,514,514,514,514,514,514,514,514,514,514,514,514,514,514,514,514,514,509,496,479,452,408,387,362,339,310,239,216,200,188,177,169,167,164,157,146,133,109,101,95],"timestamp_mouse":[13,27,49,69,88,109,129,149,169,187,208,229,248,267,289,309,328,349,368,387,408,428,447,468,488,507,529,547,568,589,608,629,647,667,688,709,728,747,767,787,808,828,848,869,888],"xSR":741.5,"ySR":469.95,"xT1":424.9,"yT1":0,"xT2":1058.1,"yT2":0,"toosoon":0,"cond_shown":"equaldotsize","ratio_trial":250,"smaller_num":"5","larger_num":"20","correct_side":2,"subjID":"samuelarchila3","gender":"male","age":"11","school":"cafam"},{"start_time":1551901406180,"click_time":1551901407001,"finger_time":1551901406681,"fix_duration":1397.8578885688767,"trial":4,"RT":501,"MT":320,"sideResp":1,"stimulus":"img/500/equaldotanddens/L/5_Ratio_500_L_4_R_2.png","xmouse":[815,815,815,815,815,815,815,815,815,815,815,815,815,815,815,815,815,815,815,815,815,815,813,810,790,662,578,509,472,456,452,452,451,451,449,441,439,439,441,445,453,454],"ymouse":[532,532,532,532,532,532,532,532,532,532,532,532,532,532,532,532,532,532,532,532,532,532,532,532,521,431,374,326,295,272,238,192,174,160,146,120,114,113,111,109,100,93],"timestamp_mouse":[10,21,42,61,81,101,120,142,162,182,201,221,242,261,281,300,321,342,362,381,402,422,441,460,480,501,520,541,561,581,600,620,641,661,681,702,720,741,761,782,801,820],"xSR":741.5,"ySR":469.95,"xT1":424.9,"yT1":0,"xT2":1058.1,"yT2":0,"toosoon":0,"cond_shown":"equaldotanddens","ratio_trial":500,"smaller_num":"2","larger_num":"4","correct_side":1,"subjID":"samuelarchila3","gender":"male","age":"11","school":"cafam"},{"start_time":1551901409266,"click_time":1551901410082,"finger_time":1551901409722,"fix_duration":1484.0728566793593,"trial":5,"RT":456,"MT":360,"sideResp":2,"stimulus":"img/900/equaldotanddens/R/6_Ratio_900_L_9_R_10.png","xmouse":[760,760,760,760,760,760,760,760,760,760,760,760,760,760,760,760,760,760,759,760,776,792,813,848,862,895,926,938,948,960,987,1000,1010,1015,1017,1024,1030,1037,1050,1057,1060],"ymouse":[518,518,518,518,518,518,518,518,518,518,518,518,518,518,518,518,518,518,518,518,506,484,452,393,372,316,250,221,198,177,137,122,111,107,105,102,100,99,94,90,87],"timestamp_mouse":[15,36,56,74,94,114,136,156,175,196,216,235,256,275,295,315,335,354,375,395,415,434,456,474,495,515,536,554,575,595,616,634,654,675,695,716,735,755,775,795,816],"xSR":741.5,"ySR":469.95,"xT1":424.9,"yT1":0,"xT2":1058.1,"yT2":0,"toosoon":0,"cond_shown":"equaldotanddens","ratio_trial":900,"smaller_num":"9","larger_num":"10","correct_side":2,"subjID":"samuelarchila3","gender":"male","age":"11","school":"cafam"},{"start_time":1551901412633,"click_time":1551901414142,"finger_time":1551901413481,"fix_duration":1491.0188785403752,"trial":6,"RT":848,"MT":661,"sideResp":1,"stimulus":"img/900/randomdotsizeEA/R/3_Ratio_900_L_9_R_10.png","xmouse":[817,812,811,811,809,809,809,808,808,808,808,808,808,808,808,808,808,808,808,808,808,808,808,808,808,808,808,808,808,808,808,808,808,808,808,808,808,810,813,817,821,823,826,826,826,826,825,813,801,774,706,622,544,484,481,481,485,485,469,463,461,461,467,470,470,470,470,469,466,466,466,466,467,468,470,474],"ymouse":[505,507,508,508,509,509,509,509,509,509,509,509,509,509,509,509,509,509,509,509,509,509,509,509,509,509,509,509,509,509,509,509,509,509,509,509,509,509,508,503,489,473,437,423,409,400,393,382,377,367,346,321,301,277,271,259,245,226,202,187,171,155,124,113,108,104,103,103,103,103,103,103,103,103,101,87],"timestamp_mouse":[12,28,48,69,88,108,129,148,168,189,209,228,248,269,288,309,328,348,368,388,409,429,448,470,488,509,529,549,568,589,608,628,649,668,689,709,728,748,768,788,808,828,848,868,889,908,928,949,968,988,1008,1028,1049,1068,1088,1108,1129,1148,1169,1188,1209,1229,1249,1268,1289,1308,1329,1348,1369,1388,1409,1429,1449,1468,1488,1509],"xSR":741.5,"ySR":469.95,"xT1":424.9,"yT1":0,"xT2":1058.1,"yT2":0,"toosoon":0,"cond_shown":"randomdotsizeEA","ratio_trial":900,"smaller_num":"9","larger_num":"10","correct_side":2,"subjID":"samuelarchila3","gender":"male","age":"11","school":"cafam"},{"start_time":1551901416146,"click_time":1551901416942,"finger_time":1551901416521,"fix_duration":1143.833532955022,"trial":7,"RT":375,"MT":421,"sideResp":2,"stimulus":"img/750/randomdotsizeEA/L/6_Ratio_750_L_24_R_18.png","xmouse":[782,782,782,782,782,782,782,782,782,782,782,782,782,782,783,786,794,805,809,815,819,829,833,839,850,866,911,921,927,935,949,1003,1028,1044,1053,1054,1056,1061,1067,1076],"ymouse":[533,533,533,533,533,533,533,533,533,533,533,533,533,533,533,533,524,484,466,448,434,407,396,383,366,342,290,278,272,264,249,187,165,150,141,139,130,122,112,99],"timestamp_mouse":[15,35,55,76,95,115,135,155,175,196,215,236,255,275,295,315,335,355,375,395,415,436,455,474,496,515,536,555,575,595,615,636,655,675,695,715,736,755,775,795],"xSR":741.5,"ySR":469.95,"xT1":424.9,"yT1":0,"xT2":1058.1,"yT2":0,"toosoon":0,"cond_shown":"randomdotsizeEA","ratio_trial":750,"smaller_num":"18","larger_num":"24","correct_side":1,"subjID":"samuelarchila3","gender":"male","age":"11","school":"cafam"},{"start_time":1551901418790,"click_time":1551901419721,"finger_time":1551901419521,"fix_duration":1065.5639529716707,"trial":8,"RT":731,"MT":200,"sideResp":2,"stimulus":"img/750/equaldotsize/R/2_Ratio_750_L_6_R_8.png","xmouse":[751,751,751,751,751,751,751,751,751,751,751,751,751,751,751,751,751,751,751,751,751,751,751,751,751,751,751,751,751,750,754,759,763,767,771,788,802,826,858,956,992,1022,1038,1044,1045,1057,1066],"ymouse":[535,535,535,535,535,535,535,535,535,535,535,535,535,535,535,535,535,535,535,535,535,535,535,535,535,535,535,535,535,535,532,528,524,520,515,487,461,420,355,184,134,101,88,84,82,79,76],"timestamp_mouse":[13,35,52,71,91,112,131,152,172,192,212,231,251,272,292,311,332,352,372,391,412,432,452,472,492,511,531,551,572,592,611,631,652,671,692,711,731,751,772,792,811,830,852,871,891,911,931],"xSR":741.5,"ySR":469.95,"xT1":424.9,"yT1":0,"xT2":1058.1,"yT2":0,"toosoon":0,"cond_shown":"equaldotsize","ratio_trial":750,"smaller_num":"6","larger_num":"8","correct_side":2,"subjID":"samuelarchila3","gender":"male","age":"11","school":"cafam"},{"start_time":1551901420952,"click_time":1551901421983,"finger_time":1551901421562,"fix_duration":250,"trial":9,"RT":610,"MT":421,"sideResp":2,"stimulus":"img/250/equaldotanddens/R/10_Ratio_250_L_4_R_16.png","xmouse":[815,815,815,814,814,813,808,803,798,796,796,796,796,796,796,796,796,796,796,796,796,796,796,796,799,802,813,818,825,832,846,880,901,931,956,983,1013,1020,1026,1037,1050,1072,1075,1082,1088,1094,1097,1097,1097,1097,1099,1107],"ymouse":[509,509,509,509,509,509,509,508,507,506,506,506,506,506,506,506,506,506,506,506,506,506,506,506,506,504,498,494,488,471,437,377,342,298,258,219,178,168,163,158,153,140,137,130,124,117,114,113,113,110,102,83],"timestamp_mouse":[9,34,50,69,90,109,129,149,169,189,210,230,249,269,290,309,330,349,370,389,410,430,449,470,489,509,530,550,569,590,610,630,649,669,689,709,730,749,770,789,810,830,849,869,890,909,930,949,969,989,1009,1030],"xSR":741.5,"ySR":469.95,"xT1":424.9,"yT1":0,"xT2":1058.1,"yT2":0,"toosoon":0,"cond_shown":"equaldotanddens","ratio_trial":250,"smaller_num":"4","larger_num":"16","correct_side":2,"subjID":"samuelarchila3","gender":"male","age":"11","school":"cafam"},{"start_time":1551901424383,"click_time":1551901425622,"finger_time":1551901424941,"fix_duration":801.529915988211,"trial":10,"RT":558,"MT":681,"sideResp":1,"stimulus":"img/250/randomdotsizeEA/L/3_Ratio_250_L_8_R_2.png","xmouse":[777,777,777,777,777,777,777,777,777,775,769,768,765,762,758,756,754,753,753,753,753,753,753,753,753,750,743,736,727,715,659,648,642,632,597,580,556,531,513,501,501,501,495,484,450,437,436,436,440,441,441,441,442,445,469,477,480,481,481,482,484,486],"ymouse":[533,533,533,533,533,533,533,533,532,528,521,519,514,511,511,511,511,511,511,511,511,511,511,511,511,511,511,511,511,509,450,424,405,385,346,327,307,289,275,247,236,225,213,201,176,165,157,151,143,137,137,137,136,133,118,109,105,104,104,102,100,98],"timestamp_mouse":[18,38,58,78,98,119,139,159,179,198,218,238,259,278,299,318,339,359,378,399,419,438,459,479,498,518,539,558,579,598,618,639,659,678,699,718,738,758,778,799,818,838,858,878,900,918,938,958,978,999,1018,1038,1058,1078,1099,1118,1138,1158,1178,1199,1218,1238],"xSR":741.5,"ySR":469.95,"xT1":424.9,"yT1":0,"xT2":1058.1,"yT2":0,"toosoon":0,"cond_shown":"randomdotsizeEA","ratio_trial":250,"smaller_num":"2","larger_num":"8","correct_side":1,"subjID":"samuelarchila3","gender":"male","age":"11","school":"cafam"},{"start_time":1551901431402,"click_time":1551901432361,"finger_time":1551901432042,"fix_duration":1499.3935085554244,"trial":11,"RT":640,"MT":319,"sideResp":2,"stimulus":"img/750/equaldotanddens/R/11_Ratio_750_L_12_R_16.png","xmouse":[773,773,773,773,773,773,773,773,773,773,773,773,773,773,773,773,773,773,773,773,773,773,773,773,773,773,773,775,777,805,819,833,848,864,908,937,965,1003,1063,1063,1063,1063,1063,1063,1063,1063,1063,1063,1115],"ymouse":[544,544,544,544,544,544,544,544,544,544,544,544,544,544,544,544,544,544,544,544,544,544,544,544,544,544,544,543,542,518,502,486,463,435,332,265,197,116,0,0,0,0,0,0,0,0,0,0,25],"timestamp_mouse":[1,19,39,59,80,100,121,139,160,179,200,220,240,259,280,300,319,340,360,380,400,420,439,459,480,500,519,539,560,579,600,619,640,659,680,699,720,739,759,780,800,819,840,860,880,900,919,939,959],"xSR":741.5,"ySR":469.95,"xT1":424.9,"yT1":0,"xT2":1058.1,"yT2":0,"toosoon":0,"cond_shown":"equaldotanddens","ratio_trial":750,"smaller_num":"12","larger_num":"16","correct_side":2,"subjID":"samuelarchila3","gender":"male","age":"11","school":"cafam"},{"start_time":1551901435088,"click_time":1551901436382,"finger_time":1551901435401,"fix_duration":346.40226669504415,"trial":12,"RT":313,"MT":981,"sideResp":1,"stimulus":"img/750/equaldotsize/L/6_Ratio_750_L_24_R_18.png","xmouse":[768,768,768,768,768,768,768,768,768,768,768,768,767,767,772,789,789,789,789,789,789,789,789,789,789,789,789,789,789,789,789,789,789,787,777,758,714,645,554,376,320,291,272,253,195,114,98,90,82,79,102,123,146,165,213,227,244,265,294,365,382,390,392,394,432],"ymouse":[519,519,519,519,519,519,519,519,519,519,519,519,519,519,510,463,463,463,463,463,463,463,463,463,463,463,463,463,463,463,463,463,463,463,464,464,455,430,391,314,280,256,240,226,190,138,119,101,80,66,59,57,52,47,33,30,28,27,26,10,6,4,4,4,62],"timestamp_mouse":[13,38,53,74,93,114,134,154,174,194,214,233,254,274,293,313,333,354,374,394,413,433,453,474,494,514,533,553,573,593,613,633,654,673,694,713,733,753,773,794,813,833,853,873,893,913,933,953,973,993,1013,1033,1053,1073,1094,1113,1133,1153,1174,1194,1213,1233,1253,1273,1294],"xSR":741.5,"ySR":469.95,"xT1":424.9,"yT1":0,"xT2":1058.1,"yT2":0,"toosoon":0,"cond_shown":"equaldotsize","ratio_trial":750,"smaller_num":"18","larger_num":"24","correct_side":1,"subjID":"samuelarchila3","gender":"male","age":"11","school":"cafam"},{"start_time":1551901438381,"click_time":1551901439401,"finger_time":1551901439042,"fix_duration":998.1057137894236,"trial":13,"RT":661,"MT":359,"sideResp":1,"stimulus":"img/750/equaldotanddens/L/9_Ratio_750_L_4_R_3.png","xmouse":[783,783,783,783,783,783,783,783,783,783,783,783,783,783,783,783,783,783,783,782,782,782,782,782,782,782,782,782,782,782,771,762,755,749,745,722,706,684,650,603,525,524,527,533,535,531,525,517,511,507,502,487],"ymouse":[510,510,510,510,510,510,510,510,510,510,510,510,510,510,510,510,510,510,510,510,510,510,510,510,510,510,510,510,505,502,485,477,470,463,453,421,402,381,358,330,280,267,253,238,223,190,176,161,148,139,125,99],"timestamp_mouse":[10,20,40,61,80,101,120,140,160,180,201,221,241,261,281,300,321,340,360,380,400,422,441,460,481,500,520,541,560,581,600,620,640,661,680,701,720,740,760,780,801,820,840,861,880,901,921,940,960,980,1001,1020],"xSR":741.5,"ySR":469.95,"xT1":424.9,"yT1":0,"xT2":1058.1,"yT2":0,"toosoon":0,"cond_shown":"equaldotanddens","ratio_trial":750,"smaller_num":"3","larger_num":"4","correct_side":1,"subjID":"samuelarchila3","gender":"male","age":"11","school":"cafam"},{"start_time":1551901442015,"click_time":1551901443001,"finger_time":1551901442762,"fix_duration":250,"trial":14,"RT":747,"MT":239,"sideResp":2,"stimulus":"img/900/equaldotanddens/R/14_Ratio_900_L_18_R_20.png","xmouse":[777,777,777,777,777,777,777,777,777,777,777,777,777,777,777,777,777,777,777,777,777,777,777,777,777,777,777,777,777,777,778,778,778,778,782,791,803,828,875,897,921,946,978,1027,1043,1052,1060,1072,1101,1104],"ymouse":[500,500,500,500,500,500,500,500,500,500,500,500,500,500,500,500,500,500,500,500,500,500,500,500,500,500,500,500,500,500,500,500,500,500,498,488,474,447,401,368,326,283,243,192,175,164,151,134,100,96],"timestamp_mouse":[14,33,46,67,87,107,126,147,166,186,207,227,246,266,286,307,327,346,366,386,406,426,446,466,487,506,527,547,567,587,607,627,646,667,686,707,726,747,767,786,806,827,846,867,885,907,926,946,968,986],"xSR":741.5,"ySR":469.95,"xT1":424.9,"yT1":0,"xT2":1058.1,"yT2":0,"toosoon":0,"cond_shown":"equaldotanddens","ratio_trial":900,"smaller_num":"18","larger_num":"20","correct_side":2,"subjID":"samuelarchila3","gender":"male","age":"11","school":"cafam"},{"start_time":1551901444689,"click_time":1551901445562,"finger_time":1551901445322,"fix_duration":867.5009753418346,"trial":15,"RT":633,"MT":240,"sideResp":1,"stimulus":"img/900/randomdotsizeEA/R/13_Ratio_900_L_18_R_20.png","xmouse":[776,776,776,776,776,776,776,776,776,776,776,776,776,776,776,776,776,776,776,776,776,776,776,776,776,776,776,776,773,770,757,751,746,743,719,701,674,650,634,600,577,558,540,522],"ymouse":[516,516,516,516,516,516,516,516,516,516,516,516,516,516,516,516,516,516,516,516,516,516,516,516,516,516,516,516,504,495,475,468,462,457,411,382,334,282,243,164,129,107,88,70],"timestamp_mouse":[12,33,54,73,92,113,132,152,172,192,213,233,252,273,293,313,332,352,373,392,413,433,452,472,493,512,533,553,572,592,612,633,652,672,692,712,732,752,772,793,812,832,852,873],"xSR":741.5,"ySR":469.95,"xT1":424.9,"yT1":0,"xT2":1058.1,"yT2":0,"toosoon":0,"cond_shown":"randomdotsizeEA","ratio_trial":900,"smaller_num":"18","larger_num":"20","correct_side":2,"subjID":"samuelarchila3","gender":"male","age":"11","school":"cafam"},{"start_time":1551901447413,"click_time":1551901448341,"finger_time":1551901448002,"fix_duration":368.4710958429136,"trial":16,"RT":589,"MT":339,"sideResp":1,"stimulus":"img/250/equaldotsize/L/1_Ratio_250_L_8_R_2.png","xmouse":[785,785,785,785,785,785,785,785,785,785,785,785,785,785,785,785,785,785,785,785,785,785,785,785,785,785,780,773,751,650,626,618,616,624,624,619,611,601,557,533,503,474,456,446,443,442,442],"ymouse":[517,517,517,517,517,517,517,517,517,517,517,517,517,517,517,517,517,517,517,517,517,517,517,517,517,517,517,516,510,449,424,396,361,292,271,256,245,235,203,185,165,149,137,118,108,101,97],"timestamp_mouse":[10,34,49,68,88,109,129,149,168,188,209,228,248,268,289,308,329,348,368,388,409,429,448,468,489,508,528,550,568,589,608,628,648,670,688,708,728,748,769,788,808,829,848,868,888,908,928],"xSR":741.5,"ySR":469.95,"xT1":424.9,"yT1":0,"xT2":1058.1,"yT2":0,"toosoon":0,"cond_shown":"equaldotsize","ratio_trial":250,"smaller_num":"2","larger_num":"8","correct_side":1,"subjID":"samuelarchila3","gender":"male","age":"11","school":"cafam"},{"start_time":1551901449921,"click_time":1551901451102,"finger_time":1551901450362,"fix_duration":559.540264473893,"trial":17,"RT":441,"MT":740,"sideResp":2,"stimulus":"img/250/equaldotanddens/R/10_Ratio_250_L_4_R_16.png","xmouse":[759,759,759,759,759,759,759,759,759,759,759,759,759,759,759,759,759,759,758,759,764,771,782,832,856,875,889,900,903,904,904,904,908,941,963,991,1016,1033,1059,1075,1089,1096,1099,1096,1087,1078,1077,1077,1077,1077,1077,1077,1077,1077,1077,1077,1077,1077,1077,1076],"ymouse":[520,520,520,520,520,520,520,520,520,520,520,520,520,520,520,520,520,520,520,511,497,479,455,394,377,363,351,341,336,334,334,334,328,303,287,267,245,226,191,173,153,137,128,112,103,100,100,100,100,100,100,100,100,100,100,100,100,100,100,99],"timestamp_mouse":[7,21,40,60,81,100,120,140,160,180,201,222,240,260,280,301,321,340,360,380,400,420,441,461,480,500,520,540,560,580,601,620,641,661,680,700,721,740,761,780,801,820,840,860,880,900,921,940,961,980,1001,1021,1041,1061,1081,1100,1121,1140,1161,1180],"xSR":741.5,"ySR":469.95,"xT1":424.9,"yT1":0,"xT2":1058.1,"yT2":0,"toosoon":0,"cond_shown":"equaldotanddens","ratio_trial":250,"smaller_num":"4","larger_num":"16","correct_side":2,"subjID":"samuelarchila3","gender":"male","age":"11","school":"cafam"},{"start_time":1551901454372,"click_time":1551901455182,"finger_time":1551901454962,"fix_duration":250,"trial":18,"RT":590,"MT":220,"sideResp":1,"stimulus":"img/900/equaldotsize/L/4_Ratio_900_L_20_R_18.png","xmouse":[785,785,785,785,785,785,785,785,785,785,785,785,785,785,785,785,785,785,785,785,785,785,785,785,784,784,783,776,759,740,702,687,677,666,657,635,614,591,568,542,508],"ymouse":[507,507,507,507,507,507,507,507,507,507,507,507,507,507,507,507,507,507,507,507,507,507,507,507,507,507,507,502,491,481,448,430,414,394,371,297,241,194,150,110,43],"timestamp_mouse":[10,39,48,69,90,110,129,150,170,190,209,230,250,269,289,310,330,349,369,390,409,430,450,470,490,511,529,549,569,590,610,629,650,670,689,710,729,750,769,789,810],"xSR":741.5,"ySR":469.95,"xT1":424.9,"yT1":0,"xT2":1058.1,"yT2":0,"toosoon":0,"cond_shown":"equaldotsize","ratio_trial":900,"smaller_num":"18","larger_num":"20","correct_side":1,"subjID":"samuelarchila3","gender":"male","age":"11","school":"cafam"},{"start_time":1551901458143,"click_time":1551901459101,"finger_time":1551901458781,"fix_duration":759.8889936466725,"trial":19,"RT":638,"MT":320,"sideResp":2,"stimulus":"img/250/randomdotsizeEA/R/12_Ratio_250_L_5_R_20.png","xmouse":[772,772,772,772,772,772,772,772,772,772,772,772,772,772,772,772,772,772,772,772,772,772,772,772,772,773,773,774,778,782,802,833,855,887,922,949,992,1009,1020,1026,1031,1062,1080,1093,1100,1104,1107,1113],"ymouse":[497,497,497,497,497,497,497,497,497,497,497,497,497,497,497,497,497,497,497,497,497,497,497,497,497,497,497,497,495,494,486,460,430,383,331,288,223,200,185,176,170,147,134,123,117,113,101,85],"timestamp_mouse":[18,39,59,78,98,118,138,158,179,198,218,238,258,279,298,319,338,358,378,399,419,439,459,479,498,519,539,558,578,598,619,638,658,678,698,718,739,758,778,798,819,838,859,878,898,918,939,958],"xSR":741.5,"ySR":469.95,"xT1":424.9,"yT1":0,"xT2":1058.1,"yT2":0,"toosoon":0,"cond_shown":"randomdotsizeEA","ratio_trial":250,"smaller_num":"5","larger_num":"20","correct_side":2,"subjID":"samuelarchila3","gender":"male","age":"11","school":"cafam"},{"start_time":1551901460213,"click_time":1551901461182,"finger_time":1551901460861,"fix_duration":250,"trial":20,"RT":648,"MT":321,"sideResp":2,"stimulus":"img/250/equaldotanddens/R/11_Ratio_250_L_3_R_12.png","xmouse":[813,813,813,813,813,813,813,813,813,813,811,810,809,809,809,809,809,809,809,809,809,809,809,809,809,809,809,809,809,811,819,831,852,878,938,959,977,993,1019,1027,1034,1039,1043,1051,1056,1060,1063,1064,1069],"ymouse":[512,512,512,512,512,512,512,512,512,512,512,512,512,513,513,513,513,513,513,513,513,513,513,513,513,513,513,513,513,512,502,486,456,420,337,302,270,242,189,175,164,155,145,122,111,105,103,102,99],"timestamp_mouse":[12,27,49,68,89,108,128,148,168,189,208,228,249,269,289,308,329,349,370,390,408,428,448,469,489,509,528,549,569,589,608,628,648,669,688,708,728,748,769,788,808,828,848,869,888,908,928,949,969],"xSR":741.5,"ySR":469.95,"xT1":424.9,"yT1":0,"xT2":1058.1,"yT2":0,"toosoon":0,"cond_shown":"equaldotanddens","ratio_trial":250,"smaller_num":"3","larger_num":"12","correct_side":2,"subjID":"samuelarchila3","gender":"male","age":"11","school":"cafam"},{"start_time":1551901463732,"click_time":1551901464582,"finger_time":1551901464241,"fix_duration":330.88223664964323,"trial":21,"RT":509,"MT":341,"sideResp":2,"stimulus":"img/250/equaldotsize/R/12_Ratio_250_L_5_R_20.png","xmouse":[799,799,799,799,799,799,799,799,799,799,799,799,799,799,799,799,799,799,799,799,799,799,798,799,804,816,834,887,916,937,952,959,976,988,995,997,998,998,1001,1012,1027,1042,1070],"ymouse":[502,502,502,502,502,502,502,502,502,502,502,502,502,502,502,502,502,502,502,502,502,502,502,501,488,461,416,306,263,228,199,177,136,125,117,113,109,108,106,106,103,99,90],"timestamp_mouse":[20,41,49,69,89,109,130,150,170,190,209,230,250,270,290,310,330,350,370,389,410,430,449,470,489,509,529,551,569,589,609,629,650,669,689,709,730,750,769,789,809,830,850],"xSR":741.5,"ySR":469.95,"xT1":424.9,"yT1":0,"xT2":1058.1,"yT2":0,"toosoon":0,"cond_shown":"equaldotsize","ratio_trial":250,"smaller_num":"5","larger_num":"20","correct_side":2,"subjID":"samuelarchila3","gender":"male","age":"11","school":"cafam"},{"start_time":1551901466825,"click_time":1551901468983,"finger_time":1551901467301,"fix_duration":1282.618808294294,"trial":22,"RT":476,"MT":1682,"sideResp":2,"stimulus":"img/750/randomdotsizeEA/R/11_Ratio_750_L_12_R_16.png","xmouse":[815,815,815,815,815,815,815,815,815,815,815,815,815,813,812,812,812,812,812,812,813,815,841,848,850,850,850,850,850,851,853,857,867,879,897,911,925,947,951,957,963,966,966,966,966,948,859,599,566,550,549,550,562,563,563,557,556,554,556,559,562,564,564,568,586,586,586,586,586,586,586,586,586,586,586,573,563,648,648,648,648,648,648,648,648,648,648,648,648,648,648,648,648,899,824,796,791,790,790,799,824,863,906,965,995,1022,1054,1117],"ymouse":[501,501,501,501,501,501,501,501,501,501,501,501,501,501,501,501,501,501,500,500,499,497,472,463,453,444,440,437,434,432,427,419,398,382,361,342,316,257,242,231,224,221,221,221,221,229,251,295,297,297,289,268,234,230,227,226,226,225,219,215,214,213,213,216,229,229,229,229,229,229,229,229,229,229,231,224,209,21,21,21,21,21,21,21,21,21,21,21,21,21,21,21,21,24,57,77,86,90,91,99,113,124,128,118,105,90,64,16],"timestamp_mouse":[16,41,57,76,96,117,137,157,176,196,216,237,256,276,296,317,336,356,376,396,417,436,456,476,496,516,536,557,576,596,616,636,658,676,696,716,736,757,776,796,816,837,857,877,896,916,937,957,977,996,1017,1037,1057,1076,1097,1116,1135,1156,1177,1196,1217,1237,1256,1276,1297,1316,1337,1356,1377,1396,1416,1438,1456,1476,1496,1516,1537,1557,1576,1596,1617,1636,1656,1676,1696,1716,1736,1757,1776,1797,1817,1837,1857,1876,1896,1916,1936,1957,1977,1996,2016,2036,2057,2076,2097,2117,2136,2157],"xSR":741.5,"ySR":469.95,"xT1":424.9,"yT1":0,"xT2":1058.1,"yT2":0,"toosoon":0,"cond_shown":"randomdotsizeEA","ratio_trial":750,"smaller_num":"12","larger_num":"16","correct_side":2,"subjID":"samuelarchila3","gender":"male","age":"11","school":"cafam"},{"start_time":1551901472425,"click_time":1551901473084,"finger_time":1551901472522,"fix_duration":883.6795652153952,"trial":23,"RT":97,"MT":562,"sideResp":2,"stimulus":"img/900/equaldotsize/L/2_Ratio_900_L_20_R_18.png","xmouse":[787,787,806,814,832,841,841,831,820,815,814,814,814,814,814,814,814,814,814,814,814,814,814,814,814,814,814,815,849,897,969,1036,1111],"ymouse":[527,521,477,470,463,460,460,464,471,475,476,476,476,476,476,476,476,476,476,476,476,476,476,476,476,476,476,475,427,357,274,176,9],"timestamp_mouse":[16,38,62,77,97,117,136,157,176,196,220,239,259,279,300,320,339,359,379,400,418,439,459,478,498,520,539,559,579,599,618,639,659],"xSR":741.5,"ySR":469.95,"xT1":424.9,"yT1":0,"xT2":1058.1,"yT2":0,"toosoon":0,"cond_shown":"equaldotsize","ratio_trial":900,"smaller_num":"18","larger_num":"20","correct_side":1,"subjID":"samuelarchila3","gender":"male","age":"11","school":"cafam"},{"start_time":1551901476617,"click_time":1551901477665,"finger_time":1551901477284,"fix_duration":771.3450309973459,"trial":24,"RT":667,"MT":381,"sideResp":1,"stimulus":"img/500/equaldotsize/L/8_Ratio_500_L_8_R_4.png","xmouse":[815,814,813,810,809,809,809,809,809,808,805,799,793,790,790,788,788,786,786,786,786,786,786,786,786,786,786,786,786,786,785,782,770,724,703,675,650,638,635,623,608,573,541,541,541,541,541,541,541,541,408,418,451],"ymouse":[537,537,538,538,538,538,538,538,538,538,538,538,538,537,537,536,536,536,536,536,534,534,534,534,534,534,534,534,534,534,532,528,506,434,387,322,251,182,118,69,48,25,9,9,9,9,9,9,9,9,12,28,79],"timestamp_mouse":[13,33,47,66,87,108,127,148,167,188,207,227,248,268,287,307,326,346,367,388,406,427,447,467,488,507,526,548,568,586,607,627,647,667,687,707,727,747,767,787,806,826,847,867,886,906,927,947,967,987,1006,1027,1047],"xSR":741.5,"ySR":469.95,"xT1":424.9,"yT1":0,"xT2":1058.1,"yT2":0,"toosoon":0,"cond_shown":"equaldotsize","ratio_trial":500,"smaller_num":"4","larger_num":"8","correct_side":1,"subjID":"samuelarchila3","gender":"male","age":"11","school":"cafam"},{"start_time":1551901481223,"click_time":1551901482084,"finger_time":1551901481863,"fix_duration":1437.644150205699,"trial":25,"RT":640,"MT":221,"sideResp":1,"stimulus":"img/500/equaldotanddens/L/13_Ratio_500_L_12_R_6.png","xmouse":[784,784,784,784,784,784,784,784,784,784,784,784,784,784,784,784,784,784,784,784,784,784,784,784,784,784,784,784,784,784,779,767,733,652,634,615,596,582,575,574,573,566,536,480],"ymouse":[519,519,519,519,519,519,519,519,519,512,505,500,499,498,498,498,498,498,498,498,498,498,498,498,498,498,498,498,498,498,491,482,453,394,372,343,311,269,244,199,175,144,94,22],"timestamp_mouse":[11,21,41,62,82,100,121,141,161,181,201,222,241,260,282,302,321,340,361,381,401,421,442,461,481,502,521,542,562,581,600,621,640,661,680,700,720,740,761,781,800,822,842,861],"xSR":741.5,"ySR":469.95,"xT1":424.9,"yT1":0,"xT2":1058.1,"yT2":0,"toosoon":0,"cond_shown":"equaldotanddens","ratio_trial":500,"smaller_num":"6","larger_num":"12","correct_side":1,"subjID":"samuelarchila3","gender":"male","age":"11","school":"cafam"},{"start_time":1551901483256,"click_time":1551901484744,"finger_time":1551901484084,"fix_duration":250,"trial":26,"RT":828,"MT":660,"sideResp":1,"stimulus":"img/900/equaldotsize/L/1_Ratio_900_L_10_R_9.png","xmouse":[754,754,754,754,754,754,754,754,754,754,754,754,754,754,754,754,754,754,754,754,754,754,754,752,751,751,751,751,751,751,751,751,751,751,751,751,751,751,751,751,749,728,696,661,631,609,576,573,573,573,573,573,573,573,574,576,581,581,581,581,582,583,583,583,583,583,555,541,529,524,523,520,520,520,518],"ymouse":[536,536,536,536,536,536,536,536,536,536,536,536,536,536,536,536,536,536,536,536,536,536,536,536,537,537,537,537,537,537,537,537,537,537,537,537,537,537,537,537,532,489,440,388,335,289,207,200,198,198,198,198,198,197,195,194,193,193,193,193,193,193,193,193,192,192,173,161,146,133,124,115,112,106,97],"timestamp_mouse":[13,28,48,68,88,107,128,147,168,189,209,228,247,269,289,307,329,349,368,388,409,427,447,468,487,508,528,548,567,589,608,629,648,668,689,707,728,748,769,787,808,828,848,868,888,908,928,947,967,988,1008,1028,1049,1068,1087,1108,1128,1148,1168,1189,1208,1227,1248,1267,1287,1309,1328,1347,1368,1388,1409,1429,1447,1467,1488],"xSR":741.5,"ySR":469.95,"xT1":424.9,"yT1":0,"xT2":1058.1,"yT2":0,"toosoon":0,"cond_shown":"equaldotsize","ratio_trial":900,"smaller_num":"9","larger_num":"10","correct_side":1,"subjID":"samuelarchila3","gender":"male","age":"11","school":"cafam"},{"start_time":1551901485887,"click_time":1551901486903,"finger_time":1551901486564,"fix_duration":400.48108714787645,"trial":27,"RT":677,"MT":339,"sideResp":1,"stimulus":"img/500/randomdotsizeEA/L/11_Ratio_500_L_12_R_6.png","xmouse":[803,803,803,803,803,803,803,803,803,803,803,803,803,803,803,803,803,803,803,803,803,803,803,803,802,802,802,802,799,797,790,786,781,766,714,648,618,598,583,578,574,572,569,565,555,551,549,545,539,528,501],"ymouse":[490,490,490,490,490,490,490,490,490,490,490,490,490,490,490,490,490,490,490,490,490,490,490,490,490,490,490,490,490,490,490,490,483,461,405,329,279,230,186,160,132,124,119,111,93,87,84,77,69,58,39],"timestamp_mouse":[27,38,57,78,97,118,136,157,176,197,218,237,257,276,297,318,337,357,376,398,416,436,457,478,497,517,537,558,576,596,617,637,656,677,697,717,736,758,776,797,817,837,858,877,898,916,936,957,977,998,1016],"xSR":741.5,"ySR":469.95,"xT1":424.9,"yT1":0,"xT2":1058.1,"yT2":0,"toosoon":0,"cond_shown":"randomdotsizeEA","ratio_trial":500,"smaller_num":"6","larger_num":"12","correct_side":1,"subjID":"samuelarchila3","gender":"male","age":"11","school":"cafam"},{"start_time":1551901487857,"click_time":1551901488804,"finger_time":1551901488544,"fix_duration":250,"trial":28,"RT":687,"MT":260,"sideResp":2,"stimulus":"img/500/randomdotsizeEA/R/1_Ratio_500_L_9_R_18.png","xmouse":[780,780,780,780,780,780,780,780,780,780,780,780,780,780,780,780,780,780,780,780,780,780,780,780,780,780,780,780,780,780,780,781,790,801,818,835,888,910,930,946,961,990,997,1006,1018,1043,1083,1093],"ymouse":[501,501,501,501,501,501,501,501,501,501,501,501,501,501,501,501,501,501,501,501,501,501,501,501,501,501,501,501,501,501,501,501,493,484,464,443,374,341,313,292,271,226,207,187,167,137,106,94],"timestamp_mouse":[9,27,47,67,87,107,126,147,167,188,208,228,247,267,288,307,327,347,367,386,408,427,448,466,486,507,527,547,567,588,608,626,646,668,687,707,727,747,766,788,808,827,848,867,887,907,928,947],"xSR":741.5,"ySR":469.95,"xT1":424.9,"yT1":0,"xT2":1058.1,"yT2":0,"toosoon":0,"cond_shown":"randomdotsizeEA","ratio_trial":500,"smaller_num":"9","larger_num":"18","correct_side":2,"subjID":"samuelarchila3","gender":"male","age":"11","school":"cafam"},{"start_time":1551901490095,"click_time":1551901490784,"finger_time":1551901490563,"fix_duration":649.0547336140871,"trial":29,"RT":468,"MT":221,"sideResp":1,"stimulus":"img/250/equaldotanddens/L/5_Ratio_250_L_24_R_6.png","xmouse":[776,776,777,778,779,779,779,779,779,779,779,779,779,780,781,781,781,781,781,766,758,755,753,748,724,700,657,604,554,481,470,468,466,463,425],"ymouse":[532,532,531,531,531,531,531,531,531,531,531,530,530,530,528,528,527,526,524,508,501,493,482,464,408,373,320,258,206,134,123,120,117,111,72],"timestamp_mouse":[12,30,49,69,89,109,130,149,170,189,208,229,249,270,289,308,328,349,369,389,409,429,448,468,489,509,528,548,569,589,608,629,649,669,689],"xSR":741.5,"ySR":469.95,"xT1":424.9,"yT1":0,"xT2":1058.1,"yT2":0,"toosoon":0,"cond_shown":"equaldotanddens","ratio_trial":250,"smaller_num":"6","larger_num":"24","correct_side":1,"subjID":"samuelarchila3","gender":"male","age":"11","school":"cafam"},{"start_time":1551901493258,"click_time":1551901494103,"finger_time":1551901493783,"fix_duration":293.60313003340974,"trial":30,"RT":525,"MT":320,"sideResp":2,"stimulus":"img/750/equaldotanddens/R/2_Ratio_750_L_6_R_8.png","xmouse":[801,801,801,801,801,801,801,801,801,801,801,801,801,801,801,801,801,801,801,801,801,801,801,801,805,824,849,865,883,904,927,958,972,987,997,1005,1019,1021,1025,1027,1029,1046,1064],"ymouse":[524,524,524,524,524,524,524,524,524,524,524,524,524,524,524,524,524,524,524,524,524,524,524,523,518,502,469,446,420,389,356,307,282,255,232,215,196,191,181,165,150,113,96],"timestamp_mouse":[13,36,46,67,85,106,125,147,166,187,207,227,246,265,287,306,326,346,366,386,405,426,445,466,485,506,525,545,566,586,606,626,646,667,686,706,727,745,765,785,806,826,845],"xSR":741.5,"ySR":469.95,"xT1":424.9,"yT1":0,"xT2":1058.1,"yT2":0,"toosoon":0,"cond_shown":"equaldotanddens","ratio_trial":750,"smaller_num":"6","larger_num":"8","correct_side":2,"subjID":"samuelarchila3","gender":"male","age":"11","school":"cafam"},{"start_time":1551901495830,"click_time":1551901496684,"finger_time":1551901496365,"fix_duration":1125.3372620219343,"trial":31,"RT":535,"MT":319,"sideResp":2,"stimulus":"img/750/randomdotsizeEA/R/11_Ratio_750_L_12_R_16.png","xmouse":[807,807,807,807,807,807,807,807,807,807,807,807,807,807,807,806,805,803,803,803,803,802,802,803,804,807,810,813,814,815,818,825,857,881,915,960,1015,1065,1075,1080,1083,1084,1086],"ymouse":[494,494,494,494,494,494,494,494,494,494,494,494,494,494,494,494,494,494,494,494,494,494,492,489,483,474,466,455,452,450,446,441,420,402,377,340,281,179,143,120,108,103,99],"timestamp_mouse":[15,33,54,74,95,113,133,153,175,194,214,234,255,274,294,314,333,354,374,394,414,434,454,474,494,513,535,554,574,594,614,635,654,674,695,715,734,754,773,794,814,834,853],"xSR":741.5,"ySR":469.95,"xT1":424.9,"yT1":0,"xT2":1058.1,"yT2":0,"toosoon":0,"cond_shown":"randomdotsizeEA","ratio_trial":750,"smaller_num":"12","larger_num":"16","correct_side":2,"subjID":"samuelarchila3","gender":"male","age":"11","school":"cafam"},{"start_time":1551901499884,"click_time":1551901500903,"finger_time":1551901500384,"fix_duration":1096.8594342685262,"trial":32,"RT":500,"MT":519,"sideResp":1,"stimulus":"img/500/equaldotsize/L/7_Ratio_500_L_10_R_5.png","xmouse":[760,760,760,760,760,760,760,761,762,764,766,766,767,768,768,772,774,774,774,774,774,775,773,767,762,743,732,721,710,698,668,654,641,621,576,536,534,534,534,534,534,534,534,534,533,534,534,533,531,529,526,501],"ymouse":[512,512,512,512,512,512,512,512,512,512,512,512,512,512,512,512,511,511,511,511,511,510,502,489,474,428,409,393,376,355,308,282,258,231,186,156,155,155,155,155,155,155,155,154,154,143,136,131,126,123,118,99],"timestamp_mouse":[11,20,41,60,80,101,121,140,160,179,200,220,240,259,280,300,319,339,360,380,400,420,441,459,481,500,520,540,559,579,600,620,640,660,681,700,719,739,761,781,800,820,839,860,880,900,919,939,959,979,1000,1019],"xSR":741.5,"ySR":469.95,"xT1":424.9,"yT1":0,"xT2":1058.1,"yT2":0,"toosoon":0,"cond_shown":"equaldotsize","ratio_trial":500,"smaller_num":"5","larger_num":"10","correct_side":1,"subjID":"samuelarchila3","gender":"male","age":"11","school":"cafam"},{"start_time":1551901503477,"click_time":1551901504324,"finger_time":1551901503903,"fix_duration":1169.5514101893307,"trial":33,"RT":426,"MT":421,"sideResp":2,"stimulus":"img/900/randomdotsizeEA/L/8_Ratio_900_L_20_R_18.png","xmouse":[808,808,808,808,808,808,808,808,808,808,808,808,808,808,808,808,808,808,808,808,798,783,770,765,766,800,812,822,826,832,850,866,888,911,935,1009,1030,1040,1048,1053,1062,1068,1075],"ymouse":[544,544,544,544,544,544,544,544,544,544,544,544,544,544,544,544,544,539,526,512,473,451,437,431,427,387,374,362,357,351,342,333,321,308,290,215,178,156,140,130,118,108,95],"timestamp_mouse":[12,35,48,68,87,106,127,147,168,187,207,228,248,267,288,307,327,346,366,387,407,426,447,467,487,508,526,547,567,586,608,626,646,667,688,707,726,746,766,786,807,826,847],"xSR":741.5,"ySR":469.95,"xT1":424.9,"yT1":0,"xT2":1058.1,"yT2":0,"toosoon":0,"cond_shown":"randomdotsizeEA","ratio_trial":900,"smaller_num":"18","larger_num":"20","correct_side":1,"subjID":"samuelarchila3","gender":"male","age":"11","school":"cafam"},{"start_time":1551901506620,"click_time":1551901507244,"finger_time":1551901506984,"fix_duration":1474.93020193479,"trial":34,"RT":364,"MT":260,"sideResp":1,"stimulus":"img/500/equaldotanddens/L/4_Ratio_500_L_18_R_9.png","xmouse":[781,781,781,781,781,781,781,781,781,781,780,778,778,778,778,775,773,765,741,732,725,722,720,716,710,701,679,643,541,514,498,486],"ymouse":[523,523,523,523,523,523,523,523,523,523,523,523,523,523,523,523,519,506,472,457,445,439,428,390,366,334,297,254,161,130,103,81],"timestamp_mouse":[12,32,44,64,84,105,125,145,163,183,204,225,244,264,284,304,323,344,364,383,404,423,443,464,483,503,523,544,564,583,604,624],"xSR":741.5,"ySR":469.95,"xT1":424.9,"yT1":0,"xT2":1058.1,"yT2":0,"toosoon":0,"cond_shown":"equaldotanddens","ratio_trial":500,"smaller_num":"9","larger_num":"18","correct_side":1,"subjID":"samuelarchila3","gender":"male","age":"11","school":"cafam"},{"start_time":1551901509346,"click_time":1551901510544,"finger_time":1551901509844,"fix_duration":960.9125777100512,"trial":35,"RT":498,"MT":700,"sideResp":1,"stimulus":"img/250/equaldotsize/L/7_Ratio_250_L_8_R_2.png","xmouse":[798,798,798,798,798,798,798,798,798,798,798,798,798,798,798,798,798,798,798,798,795,788,779,766,741,706,629,600,592,585,584,583,583,582,574,566,552,547,547,547,547,547,547,547,547,547,547,547,547,547,547,557,556,555,555,555,553,551,535,511],"ymouse":[537,537,537,537,537,537,537,537,537,537,537,537,537,537,537,537,537,537,537,537,536,531,524,506,464,398,248,200,189,185,185,185,185,184,176,172,168,173,173,173,173,173,173,173,173,173,173,173,173,173,173,91,81,80,80,80,77,75,63,48],"timestamp_mouse":[18,38,59,78,97,119,137,158,179,198,217,238,258,278,298,318,338,359,377,397,418,437,459,477,498,518,539,557,578,599,618,638,658,677,699,719,737,759,779,798,819,838,859,877,897,919,939,959,978,998,1018,1039,1057,1078,1097,1118,1138,1158,1178,1198],"xSR":741.5,"ySR":469.95,"xT1":424.9,"yT1":0,"xT2":1058.1,"yT2":0,"toosoon":0,"cond_shown":"equaldotsize","ratio_trial":250,"smaller_num":"2","larger_num":"8","correct_side":1,"subjID":"samuelarchila3","gender":"male","age":"11","school":"cafam"},{"start_time":1551901513502,"click_time":1551901514285,"finger_time":1551901513904,"fix_duration":297.80552997760236,"trial":36,"RT":402,"MT":381,"sideResp":2,"stimulus":"img/250/equaldotanddens/R/12_Ratio_250_L_5_R_20.png","xmouse":[799,799,799,799,799,799,799,799,799,799,799,799,799,798,797,796,796,794,794,793,804,821,821,881,931,944,956,967,981,1022,1038,1047,1047,1047,1047,1047,1047,1047,1047,1070],"ymouse":[531,531,531,531,531,531,531,531,531,531,531,531,531,531,531,531,531,526,522,488,462,435,435,355,244,200,157,130,104,49,24,2,2,2,2,2,2,2,2,9],"timestamp_mouse":[10,23,42,62,81,102,123,143,161,182,203,223,241,262,282,301,322,342,361,382,402,422,443,463,483,501,522,541,562,582,601,622,642,663,682,703,722,741,762,783],"xSR":741.5,"ySR":469.95,"xT1":424.9,"yT1":0,"xT2":1058.1,"yT2":0,"toosoon":0,"cond_shown":"equaldotanddens","ratio_trial":250,"smaller_num":"5","larger_num":"20","correct_side":2,"subjID":"samuelarchila3","gender":"male","age":"11","school":"cafam"},{"start_time":1551901516197,"click_time":1551901516524,"finger_time":1551901516245,"fix_duration":1111.5691329342121,"trial":37,"RT":48,"MT":279,"sideResp":2,"stimulus":"img/500/equaldotanddens/L/5_Ratio_500_L_4_R_2.png","xmouse":[810,814,823,836,868,886,907,921,932,944,946,950,958,969,1013,1037,1068],"ymouse":[488,480,466,447,406,381,352,328,309,288,285,278,262,237,158,122,80],"timestamp_mouse":[14,33,48,66,87,106,127,147,167,188,206,227,247,266,287,307,327],"xSR":741.5,"ySR":469.95,"xT1":424.9,"yT1":0,"xT2":1058.1,"yT2":0,"toosoon":0,"cond_shown":"equaldotanddens","ratio_trial":500,"smaller_num":"2","larger_num":"4","correct_side":1,"subjID":"samuelarchila3","gender":"male","age":"11","school":"cafam"},{"start_time":1551901523655,"click_time":1551901524485,"finger_time":1551901524124,"fix_duration":1049.2228638668303,"trial":38,"RT":469,"MT":361,"sideResp":2,"stimulus":"img/500/equaldotsize/R/9_Ratio_500_L_2_R_4.png","xmouse":[767,767,767,767,767,767,767,767,767,767,767,767,767,767,767,767,767,767,767,767,767,767,766,766,770,789,826,843,866,896,934,980,1078,1126,1162,1199,1207,1209,1206,1195,1177,1142],"ymouse":[505,505,505,505,505,505,505,505,505,505,505,505,505,505,505,505,505,505,505,505,505,498,470,448,430,398,351,335,321,307,290,270,226,206,195,185,180,173,163,146,125,99],"timestamp_mouse":[9,34,49,70,88,109,129,149,170,190,208,230,250,270,290,309,329,349,369,388,410,429,450,469,488,510,530,548,569,589,608,629,648,669,689,710,729,750,768,790,810,830],"xSR":741.5,"ySR":469.95,"xT1":424.9,"yT1":0,"xT2":1058.1,"yT2":0,"toosoon":0,"cond_shown":"equaldotsize","ratio_trial":500,"smaller_num":"2","larger_num":"4","correct_side":2,"subjID":"samuelarchila3","gender":"male","age":"11","school":"cafam"},{"start_time":1551901526717,"click_time":1551901528423,"finger_time":1551901527123,"fix_duration":1352.9426726729375,"trial":39,"RT":406,"MT":1300,"sideResp":2,"stimulus":"img/500/randomdotsizeEA/L/13_Ratio_500_L_12_R_6.png","xmouse":[793,793,793,793,793,793,793,793,793,793,793,793,793,793,793,793,793,793,814,826,841,855,866,885,886,886,886,886,885,885,885,884,884,879,876,869,855,836,772,727,680,638,604,584,581,577,572,566,553,553,561,570,571,566,566,566,566,566,566,566,566,566,566,566,566,599,638,666,748,790,838,902,902,902,902,902,902,902,902,902,902,902,902,902,902,1142],"ymouse":[514,514,514,514,514,514,514,514,514,514,514,514,514,514,514,514,514,514,489,473,453,434,416,385,380,379,379,378,378,378,378,378,378,379,379,381,391,405,444,462,469,472,472,468,464,460,454,445,416,395,372,356,347,350,350,350,350,350,350,350,350,350,350,350,350,337,308,280,165,107,55,9,9,9,9,9,9,9,9,9,9,9,9,9,9,9],"timestamp_mouse":[13,31,48,67,86,106,126,147,167,186,208,227,248,266,286,306,326,347,367,388,406,426,447,467,486,508,528,546,567,587,607,627,648,667,686,707,727,746,767,786,807,827,847,868,888,908,926,947,967,986,1007,1028,1047,1067,1087,1106,1127,1148,1168,1187,1207,1227,1248,1267,1287,1307,1327,1348,1368,1386,1407,1427,1448,1467,1487,1508,1528,1547,1567,1587,1608,1627,1646,1667,1686,1706],"xSR":741.5,"ySR":469.95,"xT1":424.9,"yT1":0,"xT2":1058.1,"yT2":0,"toosoon":0,"cond_shown":"randomdotsizeEA","ratio_trial":500,"smaller_num":"6","larger_num":"12","correct_side":1,"subjID":"samuelarchila3","gender":"male","age":"11","school":"cafam"},{"start_time":1551901532442,"click_time":1551901533645,"finger_time":1551901532444,"fix_duration":915.4757850079243,"trial":40,"RT":2,"MT":1201,"sideResp":2,"stimulus":"img/500/randomdotsizeEA/R/3_Ratio_500_L_10_R_20.png","xmouse":[841,842,842,834,830,855,932,932,932,932,932,1009,1016,1017,1021,1027,1028,1028,1028,1027,1027,1027,1027,1027,1027,1027,1027,1027,1027,1027,1027,1027,1027,1027,1027,1027,1027,1027,1027,1027,1027,1027,1027,1027,1026,1025,1024,1024,1025,1026,1027,1028,1028,1029,1030,1032,1038,1050,1055,1058,1059],"ymouse":[452,451,451,425,357,173,21,21,21,21,21,17,34,34,30,20,20,19,19,19,19,19,19,19,19,19,19,19,19,19,19,19,19,19,19,19,19,19,19,19,19,19,19,19,19,20,21,27,29,33,35,35,35,36,36,36,40,45,46,47,48],"timestamp_mouse":[2,22,43,62,81,102,123,142,162,183,202,223,245,263,283,303,324,345,363,384,403,423,444,463,483,503,524,544,564,584,604,624,644,665,684,703,724,744,763,783,803,823,844,864,884,904,924,944,963,983,1003,1024,1044,1064,1083,1103,1123,1144,1163,1183,1203],"xSR":741.5,"ySR":469.95,"xT1":424.9,"yT1":0,"xT2":1058.1,"yT2":0,"toosoon":0,"cond_shown":"randomdotsizeEA","ratio_trial":500,"smaller_num":"10","larger_num":"20","correct_side":2,"subjID":"samuelarchila3","gender":"male","age":"11","school":"cafam"},{"start_time":1551901535469,"click_time":1551901538086,"finger_time":1551901537625,"fix_duration":361.80021448860936,"trial":41,"RT":2156,"MT":461,"sideResp":2,"stimulus":"img/250/randomdotsizeEA/R/13_Ratio_250_L_2_R_8.png","xmouse":[774,772,769,765,758,755,755,755,755,755,755,757,758,758,758,758,758,758,758,758,758,758,758,758,758,760,761,763,764,765,766,767,767,767,767,767,767,767,767,767,767,767,767,767,767,767,766,766,765,764,763,762,762,762,762,761,760,758,757,757,757,756,756,756,756,756,756,756,756,756,756,756,756,755,754,754,754,754,754,754,754,754,754,754,754,753,752,752,752,752,752,752,752,752,752,752,752,752,752,752,752,755,758,768,771,799,809,818,823,823,821,797,787,783,783,793,806,824,849,879,934,959,980,994,1004,1013,1017,1022,1026,1034,1070],"ymouse":[486,486,486,486,486,486,486,486,486,486,486,486,486,486,486,486,486,486,486,486,486,486,486,486,486,486,486,485,485,485,485,484,484,484,484,484,484,484,484,484,484,484,484,484,484,484,484,484,484,484,484,485,485,485,485,485,485,485,485,485,485,485,485,485,485,485,485,485,485,485,485,485,485,485,485,485,485,485,485,485,485,485,485,485,485,485,486,486,486,486,486,486,486,486,486,486,486,486,486,486,486,486,486,483,482,474,470,463,451,430,407,363,349,339,329,297,281,266,249,228,197,182,171,161,153,143,136,124,114,104,86],"timestamp_mouse":[24,44,57,76,96,117,136,157,177,196,218,236,256,277,296,317,338,357,376,396,418,436,456,476,497,516,537,557,577,596,618,636,657,677,697,716,736,758,776,796,817,836,858,877,897,917,937,956,976,996,1016,1036,1056,1077,1096,1118,1136,1156,1177,1197,1216,1236,1258,1277,1296,1318,1337,1357,1378,1397,1417,1438,1457,1478,1497,1517,1537,1557,1576,1596,1617,1636,1657,1677,1697,1717,1737,1758,1777,1797,1816,1837,1858,1878,1896,1917,1936,1957,1978,1998,2017,2036,2057,2076,2097,2117,2137,2156,2176,2196,2216,2236,2256,2277,2297,2317,2336,2356,2377,2398,2417,2436,2456,2477,2497,2517,2536,2557,2578,2598,2617],"xSR":741.5,"ySR":469.95,"xT1":424.9,"yT1":0,"xT2":1058.1,"yT2":0,"toosoon":0,"cond_shown":"randomdotsizeEA","ratio_trial":250,"smaller_num":"2","larger_num":"8","correct_side":2,"subjID":"samuelarchila3","gender":"male","age":"11","school":"cafam"},{"start_time":1551901540006,"click_time":1551901540665,"finger_time":1551901540446,"fix_duration":1118.5242753046145,"trial":42,"RT":440,"MT":219,"sideResp":2,"stimulus":"img/250/equaldotsize/R/6_Ratio_250_L_6_R_24.png","xmouse":[806,806,806,805,805,805,805,805,805,805,805,805,805,805,805,805,805,805,804,809,819,832,846,870,891,922,934,947,964,1019,1037,1048,1056,1059],"ymouse":[525,525,525,525,525,525,525,525,525,525,525,525,525,525,525,525,525,525,525,508,493,477,458,420,376,305,277,253,226,157,132,108,81,57],"timestamp_mouse":[1,19,40,60,81,100,120,140,159,179,200,220,239,259,280,299,319,340,359,379,399,419,440,461,480,499,519,539,559,580,599,620,640,659],"xSR":741.5,"ySR":469.95,"xT1":424.9,"yT1":0,"xT2":1058.1,"yT2":0,"toosoon":0,"cond_shown":"equaldotsize","ratio_trial":250,"smaller_num":"6","larger_num":"24","correct_side":2,"subjID":"samuelarchila3","gender":"male","age":"11","school":"cafam"},{"start_time":1551901546592,"click_time":1551901547386,"finger_time":1551901547186,"fix_duration":942.3884981791008,"trial":43,"RT":594,"MT":200,"sideResp":1,"stimulus":"img/250/equaldotsize/L/3_Ratio_250_L_8_R_2.png","xmouse":[801,801,801,801,801,801,801,801,801,801,801,801,801,801,801,801,801,801,801,801,801,801,801,800,795,791,787,783,771,727,690,658,636,622,586,564,549,535,524,513],"ymouse":[509,509,509,509,509,509,509,509,509,509,509,509,509,509,509,509,509,509,509,509,509,509,509,509,508,503,499,493,482,446,416,388,360,329,236,187,155,124,105,79],"timestamp_mouse":[15,34,53,73,94,115,135,155,173,193,213,235,253,274,293,314,333,355,374,393,415,434,455,473,493,513,534,553,573,594,615,633,653,675,694,713,733,753,774,794],"xSR":741.5,"ySR":469.95,"xT1":424.9,"yT1":0,"xT2":1058.1,"yT2":0,"toosoon":0,"cond_shown":"equaldotsize","ratio_trial":250,"smaller_num":"2","larger_num":"8","correct_side":1,"subjID":"samuelarchila3","gender":"male","age":"11","school":"cafam"},{"start_time":1551901549637,"click_time":1551901550886,"finger_time":1551901550167,"fix_duration":1150.2404273530435,"trial":44,"RT":530,"MT":719,"sideResp":1,"stimulus":"img/900/equaldotanddens/L/10_Ratio_900_L_20_R_18.png","xmouse":[784,784,784,784,784,784,784,784,784,784,784,784,784,784,784,784,784,784,784,780,778,776,775,775,775,775,784,819,847,876,900,920,944,949,952,954,955,960,961,961,958,944,900,878,847,809,763,661,635,619,600,577,499,499,499,499,499,499,499,386,395,403,428],"ymouse":[514,514,514,514,514,514,514,514,514,514,514,514,514,514,514,514,514,514,514,504,499,493,486,483,480,473,453,395,356,314,272,233,179,165,158,156,154,147,144,141,137,134,132,132,132,132,128,97,80,67,52,35,0,0,0,0,0,0,0,12,23,32,47],"timestamp_mouse":[14,33,48,69,90,108,129,150,169,188,208,229,250,268,289,309,330,348,369,388,409,428,449,468,488,508,530,549,569,589,608,629,649,668,689,709,728,749,768,788,808,828,849,869,889,910,929,949,968,988,1008,1029,1049,1070,1089,1109,1129,1149,1170,1190,1209,1229,1249],"xSR":741.5,"ySR":469.95,"xT1":424.9,"yT1":0,"xT2":1058.1,"yT2":0,"toosoon":0,"cond_shown":"equaldotanddens","ratio_trial":900,"smaller_num":"18","larger_num":"20","correct_side":1,"subjID":"samuelarchila3","gender":"male","age":"11","school":"cafam"},{"start_time":1551901552089,"click_time":1551901552986,"finger_time":1551901552705,"fix_duration":402.03025194098194,"trial":45,"RT":616,"MT":281,"sideResp":2,"stimulus":"img/500/equaldotsize/R/6_Ratio_500_L_9_R_18.png","xmouse":[783,783,783,783,783,783,783,783,783,783,783,783,783,783,783,783,783,783,783,783,783,783,783,783,783,783,784,787,797,826,844,867,890,912,972,998,1021,1038,1051,1056,1060,1068,1079,1088,1092],"ymouse":[512,512,512,512,512,512,512,512,512,512,512,512,512,512,512,512,512,512,512,512,512,512,512,512,512,512,512,512,506,475,453,422,389,352,248,212,181,162,146,135,129,120,108,100,90],"timestamp_mouse":[20,40,56,78,96,118,136,157,176,196,217,238,257,277,296,316,336,356,376,397,418,438,458,476,497,516,536,557,576,596,616,638,656,677,697,716,736,757,777,797,816,836,856,876,896],"xSR":741.5,"ySR":469.95,"xT1":424.9,"yT1":0,"xT2":1058.1,"yT2":0,"toosoon":0,"cond_shown":"equaldotsize","ratio_trial":500,"smaller_num":"9","larger_num":"18","correct_side":2,"subjID":"samuelarchila3","gender":"male","age":"11","school":"cafam"},{"start_time":1551901555092,"click_time":1551901555865,"finger_time":1551901555526,"fix_duration":1265.9004355331324,"trial":46,"RT":434,"MT":339,"sideResp":2,"stimulus":"img/500/equaldotanddens/R/1_Ratio_500_L_9_R_18.png","xmouse":[791,791,791,791,791,791,791,791,791,791,791,791,791,791,791,791,791,791,791,795,808,828,869,904,961,971,982,993,1004,1021,1030,1041,1050,1054,1057,1060,1063,1069,1078],"ymouse":[503,503,503,503,503,503,503,503,503,503,503,503,503,503,503,503,503,503,500,490,474,456,422,391,325,303,281,261,241,203,186,168,153,141,125,118,112,101,86],"timestamp_mouse":[14,41,53,74,93,113,135,153,174,193,214,234,253,274,293,313,333,354,373,393,414,434,453,474,494,513,534,555,574,593,614,634,653,673,694,713,734,753,773],"xSR":741.5,"ySR":469.95,"xT1":424.9,"yT1":0,"xT2":1058.1,"yT2":0,"toosoon":0,"cond_shown":"equaldotanddens","ratio_trial":500,"smaller_num":"9","larger_num":"18","correct_side":2,"subjID":"samuelarchila3","gender":"male","age":"11","school":"cafam"},{"start_time":1551901559279,"click_time":1551901559926,"finger_time":1551901559805,"fix_duration":373.8656758770985,"trial":47,"RT":526,"MT":121,"sideResp":2,"stimulus":"img/750/randomdotsizeEA/L/10_Ratio_750_L_4_R_3.png","xmouse":[787,787,787,787,787,787,787,787,787,787,787,787,787,787,787,787,787,787,787,787,784,783,783,783,784,799,813,835,874,918,1022,1058,1081],"ymouse":[535,535,535,535,535,535,535,534,534,534,534,534,534,534,534,534,534,531,528,524,516,512,510,508,507,479,456,420,360,288,143,94,59],"timestamp_mouse":[18,32,46,67,87,107,126,147,166,187,206,228,247,266,287,306,327,347,366,387,406,427,446,468,487,507,526,546,568,588,608,626,647],"xSR":741.5,"ySR":469.95,"xT1":424.9,"yT1":0,"xT2":1058.1,"yT2":0,"toosoon":0,"cond_shown":"randomdotsizeEA","ratio_trial":750,"smaller_num":"3","larger_num":"4","correct_side":1,"subjID":"samuelarchila3","gender":"male","age":"11","school":"cafam"},{"start_time":1551901562608,"click_time":1551901563347,"finger_time":1551901563025,"fix_duration":1481.690572611299,"trial":48,"RT":417,"MT":322,"sideResp":1,"stimulus":"img/250/equaldotanddens/L/5_Ratio_250_L_24_R_6.png","xmouse":[780,780,780,780,779,779,779,779,779,779,779,779,779,779,779,777,776,773,760,746,726,702,680,662,628,616,605,591,564,559,556,556,555,550,538,519,502],"ymouse":[507,507,507,507,507,507,507,507,507,507,507,507,507,507,507,507,507,507,503,489,467,436,409,384,323,289,254,214,154,148,144,143,142,138,127,108,89],"timestamp_mouse":[18,38,58,78,97,118,138,159,178,197,218,239,257,278,298,318,339,359,378,399,417,438,458,478,497,517,537,558,578,597,617,638,657,678,697,717,739],"xSR":741.5,"ySR":469.95,"xT1":424.9,"yT1":0,"xT2":1058.1,"yT2":0,"toosoon":0,"cond_shown":"equaldotanddens","ratio_trial":250,"smaller_num":"6","larger_num":"24","correct_side":1,"subjID":"samuelarchila3","gender":"male","age":"11","school":"cafam"},{"start_time":1551901564475,"click_time":1551901565465,"finger_time":1551901564986,"fix_duration":347.94794975111,"trial":49,"RT":511,"MT":479,"sideResp":1,"stimulus":"img/250/randomdotsizeEA/L/15_Ratio_250_L_12_R_3.png","xmouse":[798,798,798,798,798,798,798,798,798,798,798,798,798,798,798,798,798,798,798,798,798,792,784,766,743,729,721,712,705,693,668,654,643,629,617,590,578,566,551,538,521,515,508,499,492,481,480,478,477,475],"ymouse":[552,552,552,552,552,552,552,552,552,552,552,552,552,552,552,552,552,552,552,552,552,551,549,542,530,510,490,469,446,421,375,352,332,311,292,253,242,232,219,209,187,173,157,143,131,116,113,107,103,94],"timestamp_mouse":[10,31,50,70,91,111,132,150,170,192,210,231,251,272,290,310,330,351,370,390,411,430,451,471,490,511,531,550,572,590,611,631,651,671,691,710,731,751,770,790,811,830,851,871,890,910,931,951,971,990],"xSR":741.5,"ySR":469.95,"xT1":424.9,"yT1":0,"xT2":1058.1,"yT2":0,"toosoon":0,"cond_shown":"randomdotsizeEA","ratio_trial":250,"smaller_num":"3","larger_num":"12","correct_side":1,"subjID":"samuelarchila3","gender":"male","age":"11","school":"cafam"},{"start_time":1551901566791,"click_time":1551901567725,"finger_time":1551901567246,"fix_duration":404.27533035868333,"trial":50,"RT":455,"MT":479,"sideResp":1,"stimulus":"img/500/equaldotsize/L/10_Ratio_500_L_4_R_2.png","xmouse":[801,801,801,801,801,801,801,801,801,801,801,801,801,801,801,801,801,801,799,785,776,759,735,704,670,631,614,599,579,525,511,504,500,499,499,497,495,490,485,474,471,469,465,460,454,452,451],"ymouse":[528,528,528,528,528,528,528,528,528,528,528,528,528,528,528,528,528,528,528,525,518,504,484,453,419,371,348,324,298,232,216,208,204,203,202,198,188,178,166,146,140,135,128,119,104,100,96],"timestamp_mouse":[15,38,55,76,96,114,135,155,174,196,215,234,255,275,295,315,334,356,375,395,415,434,455,476,494,514,536,554,574,594,614,634,654,674,695,714,734,754,776,795,815,835,855,874,894,914,934],"xSR":741.5,"ySR":469.95,"xT1":424.9,"yT1":0,"xT2":1058.1,"yT2":0,"toosoon":0,"cond_shown":"equaldotsize","ratio_trial":500,"smaller_num":"2","larger_num":"4","correct_side":1,"subjID":"samuelarchila3","gender":"male","age":"11","school":"cafam"},{"start_time":1551901570436,"click_time":1551901571126,"finger_time":1551901570846,"fix_duration":570.0264251571789,"trial":51,"RT":410,"MT":280,"sideResp":2,"stimulus":"img/250/randomdotsizeEA/R/11_Ratio_250_L_3_R_12.png","xmouse":[754,753,753,753,753,753,753,753,753,753,753,753,753,752,754,754,754,755,761,769,784,799,815,832,831,816,801,800,805,818,842,884,995,1050,1095],"ymouse":[485,483,483,483,483,483,483,483,483,483,483,483,483,484,484,484,484,484,483,477,462,445,426,379,357,332,314,310,304,293,271,235,126,62,1],"timestamp_mouse":[13,29,49,70,89,110,131,151,170,190,210,231,249,269,290,311,330,349,371,391,410,430,450,471,489,509,529,549,569,590,609,629,650,669,690],"xSR":741.5,"ySR":469.95,"xT1":424.9,"yT1":0,"xT2":1058.1,"yT2":0,"toosoon":0,"cond_shown":"randomdotsizeEA","ratio_trial":250,"smaller_num":"3","larger_num":"12","correct_side":2,"subjID":"samuelarchila3","gender":"male","age":"11","school":"cafam"},{"start_time":1551901572476,"click_time":1551901573386,"finger_time":1551901572945,"fix_duration":250,"trial":52,"RT":469,"MT":441,"sideResp":2,"stimulus":"img/500/equaldotsize/R/12_Ratio_500_L_1_R_2.png","xmouse":[796,796,796,796,796,796,796,796,796,796,796,796,796,796,796,796,796,796,796,796,797,799,802,804,807,815,817,819,823,827,839,847,854,861,872,892,901,914,930,948,999,1018,1029,1041,1055,1072],"ymouse":[517,517,517,517,517,517,517,517,517,517,517,517,517,517,517,517,517,517,517,517,512,497,479,462,449,433,431,428,421,413,398,393,390,386,377,355,341,325,302,277,194,146,103,73,48,25],"timestamp_mouse":[12,29,49,69,89,110,129,149,169,189,209,229,249,269,290,309,329,349,369,389,410,429,450,469,490,509,529,550,570,589,609,629,650,670,689,709,729,750,770,789,810,830,849,870,889,909],"xSR":741.5,"ySR":469.95,"xT1":424.9,"yT1":0,"xT2":1058.1,"yT2":0,"toosoon":0,"cond_shown":"equaldotsize","ratio_trial":500,"smaller_num":"1","larger_num":"2","correct_side":2,"subjID":"samuelarchila3","gender":"male","age":"11","school":"cafam"},{"start_time":1551901579321,"click_time":1551901580826,"finger_time":1551901579886,"fix_duration":1354.4140805838776,"trial":53,"RT":565,"MT":940,"sideResp":1,"stimulus":"img/900/equaldotanddens/R/7_Ratio_900_L_9_R_10.png","xmouse":[786,787,787,788,788,788,788,788,788,788,788,788,788,788,788,788,788,788,788,788,788,788,788,788,788,793,802,814,833,834,834,822,804,725,688,659,639,626,618,611,606,596,570,549,549,551,560,571,596,613,638,692,762,953,994,1017,1027,1037,1056,1065,1078,1095,1110,1118,1110,1087,1048,1021,919,824,732,659,599,552,526,510],"ymouse":[532,528,527,524,524,524,524,524,524,524,524,524,524,524,524,524,524,524,524,524,524,524,524,524,519,510,496,480,437,415,392,368,343,278,256,241,232,225,222,219,218,215,207,201,201,201,201,200,196,194,191,185,178,157,152,149,147,144,138,134,129,125,120,117,117,111,104,100,91,91,91,91,91,90,82,76],"timestamp_mouse":[9,25,44,65,84,105,126,146,164,184,206,226,244,265,285,304,325,345,366,385,404,425,445,464,485,506,525,547,565,586,604,624,645,665,684,704,726,746,765,786,804,824,845,865,884,904,926,944,965,984,1004,1025,1045,1065,1084,1104,1124,1144,1165,1184,1204,1225,1245,1265,1285,1304,1324,1344,1365,1384,1406,1426,1445,1464,1484,1505],"xSR":741.5,"ySR":469.95,"xT1":424.9,"yT1":0,"xT2":1058.1,"yT2":0,"toosoon":0,"cond_shown":"equaldotanddens","ratio_trial":900,"smaller_num":"9","larger_num":"10","correct_side":2,"subjID":"samuelarchila3","gender":"male","age":"11","school":"cafam"},{"start_time":1551901583560,"click_time":1551901584705,"finger_time":1551901584085,"fix_duration":292.48060243488396,"trial":54,"RT":525,"MT":620,"sideResp":2,"stimulus":"img/250/equaldotsize/R/6_Ratio_250_L_6_R_24.png","xmouse":[778,778,778,778,778,778,778,778,778,778,778,777,777,777,777,777,777,777,777,777,776,776,776,780,785,803,866,896,931,972,985,1028,1033,1035,1036,1040,1049,1052,1052,1052,1052,1052,1052,1054,1056,1056,1056,1056,1056,1056,1056,1054,1054,1054,1055,1056,1058,1059],"ymouse":[511,511,511,511,511,511,511,511,511,512,512,512,512,512,512,512,512,512,512,512,513,513,513,512,509,492,426,384,325,237,209,114,105,103,101,98,80,70,66,66,66,66,65,65,65,65,65,65,65,65,66,69,72,75,76,76,76,76],"timestamp_mouse":[13,25,45,65,87,105,126,147,165,185,207,225,245,266,285,306,326,346,367,385,406,426,445,466,485,505,525,545,565,586,607,625,646,665,685,707,725,745,766,785,805,826,847,865,886,905,925,946,965,985,1005,1026,1045,1066,1086,1105,1126,1145],"xSR":741.5,"ySR":469.95,"xT1":424.9,"yT1":0,"xT2":1058.1,"yT2":0,"toosoon":0,"cond_shown":"equaldotsize","ratio_trial":250,"smaller_num":"6","larger_num":"24","correct_side":2,"subjID":"samuelarchila3","gender":"male","age":"11","school":"cafam"},{"start_time":1551901586361,"click_time":1551901587047,"finger_time":1551901586886,"fix_duration":753.9595574122326,"trial":55,"RT":525,"MT":161,"sideResp":1,"stimulus":"img/250/equaldotsize/L/3_Ratio_250_L_8_R_2.png","xmouse":[817,817,817,817,817,817,817,817,817,817,817,817,817,817,817,817,817,817,817,817,817,817,816,809,795,777,723,691,670,646,622,570,545,518,485],"ymouse":[510,510,510,510,510,510,510,510,510,510,510,510,510,510,510,510,510,510,510,510,510,510,511,511,504,492,455,429,405,370,330,233,186,138,89],"timestamp_mouse":[20,35,44,64,84,104,124,144,165,186,204,224,244,264,285,304,325,345,366,384,406,425,446,465,485,504,525,546,564,584,605,625,644,665,686],"xSR":741.5,"ySR":469.95,"xT1":424.9,"yT1":0,"xT2":1058.1,"yT2":0,"toosoon":0,"cond_shown":"equaldotsize","ratio_trial":250,"smaller_num":"2","larger_num":"8","correct_side":1,"subjID":"samuelarchila3","gender":"male","age":"11","school":"cafam"},{"start_time":1551901588766,"click_time":1551901589386,"finger_time":1551901589206,"fix_duration":979.7875441916273,"trial":56,"RT":440,"MT":180,"sideResp":1,"stimulus":"img/250/equaldotanddens/L/5_Ratio_250_L_24_R_6.png","xmouse":[797,797,797,797,797,797,797,797,797,797,797,797,797,797,797,797,797,797,795,790,747,735,721,707,690,651,621,586,556,534,485],"ymouse":[509,509,509,509,509,509,509,509,509,509,509,509,509,509,509,509,509,509,509,506,483,473,463,450,435,386,342,290,235,186,95],"timestamp_mouse":[19,39,60,79,99,120,139,159,181,199,219,239,261,281,301,320,340,360,379,400,419,440,460,481,499,519,539,559,579,601,620],"xSR":741.5,"ySR":469.95,"xT1":424.9,"yT1":0,"xT2":1058.1,"yT2":0,"toosoon":0,"cond_shown":"equaldotanddens","ratio_trial":250,"smaller_num":"6","larger_num":"24","correct_side":1,"subjID":"samuelarchila3","gender":"male","age":"11","school":"cafam"},{"start_time":1551901593969,"click_time":1551901594767,"finger_time":1551901594468,"fix_duration":860.8626922128149,"trial":57,"RT":499,"MT":299,"sideResp":2,"stimulus":"img/750/randomdotsizeEA/R/11_Ratio_750_L_12_R_16.png","xmouse":[779,779,779,779,779,779,779,779,779,779,779,779,779,779,779,779,779,779,779,779,779,779,795,808,842,940,974,998,1021,1028,1067,1080,1092,1103,1114,1130,1133,1133,1130,1124],"ymouse":[506,506,506,506,506,506,506,506,506,506,506,506,506,506,506,506,506,506,506,506,506,506,496,489,471,424,399,378,345,334,270,247,226,207,187,152,135,120,102,89],"timestamp_mouse":[19,38,58,78,99,118,138,159,179,198,218,237,258,279,298,317,337,357,379,397,418,439,458,479,499,518,538,558,578,599,618,639,658,679,699,718,737,758,779,798],"xSR":741.5,"ySR":469.95,"xT1":424.9,"yT1":0,"xT2":1058.1,"yT2":0,"toosoon":0,"cond_shown":"randomdotsizeEA","ratio_trial":750,"smaller_num":"12","larger_num":"16","correct_side":2,"subjID":"samuelarchila3","gender":"male","age":"11","school":"cafam"},{"start_time":1551901598196,"click_time":1551901599167,"finger_time":1551901598767,"fix_duration":1329.9556944447659,"trial":58,"RT":571,"MT":400,"sideResp":2,"stimulus":"img/750/randomdotsizeEA/R/2_Ratio_750_L_6_R_8.png","xmouse":[794,794,785,784,782,782,782,782,782,782,782,782,782,782,782,782,782,782,782,782,782,782,783,785,791,796,800,808,822,853,873,897,918,932,945,965,972,980,988,1017,1029,1039,1046,1048,1053,1056,1060,1063,1067],"ymouse":[508,508,509,509,509,509,509,509,509,509,509,509,509,509,509,509,509,509,509,509,509,508,506,504,496,491,484,473,451,409,379,346,318,297,280,250,236,219,202,167,159,152,147,142,131,124,116,104,93],"timestamp_mouse":[29,31,51,72,92,111,131,150,172,192,211,230,252,271,292,311,330,351,371,390,412,430,451,470,490,510,532,551,571,590,611,630,652,671,691,711,730,750,771,791,812,831,851,872,891,912,931,952,971],"xSR":741.5,"ySR":469.95,"xT1":424.9,"yT1":0,"xT2":1058.1,"yT2":0,"toosoon":0,"cond_shown":"randomdotsizeEA","ratio_trial":750,"smaller_num":"6","larger_num":"8","correct_side":2,"subjID":"samuelarchila3","gender":"male","age":"11","school":"cafam"},{"start_time":1551901600299,"click_time":1551901601248,"finger_time":1551901600926,"fix_duration":250,"trial":59,"RT":627,"MT":322,"sideResp":2,"stimulus":"img/900/equaldotanddens/R/3_Ratio_900_L_9_R_10.png","xmouse":[803,802,802,802,802,802,802,802,802,802,802,802,802,802,802,802,802,802,801,801,798,794,787,787,787,787,787,790,793,811,827,845,862,881,942,972,1001,1034,1064,1114,1133,1149,1163,1175,1178,1176,1165,1147],"ymouse":[526,526,526,526,526,526,526,526,526,526,526,526,526,526,526,526,526,526,526,520,514,508,500,499,499,499,499,497,496,485,475,463,450,437,386,360,338,315,295,254,233,211,193,171,165,139,122,99],"timestamp_mouse":[10,27,48,69,88,108,129,147,169,189,208,228,248,267,287,307,328,347,368,388,407,427,448,467,488,507,527,548,569,587,607,627,647,668,688,707,727,748,768,787,807,827,847,869,888,907,928,949],"xSR":741.5,"ySR":469.95,"xT1":424.9,"yT1":0,"xT2":1058.1,"yT2":0,"toosoon":0,"cond_shown":"equaldotanddens","ratio_trial":900,"smaller_num":"9","larger_num":"10","correct_side":2,"subjID":"samuelarchila3","gender":"male","age":"11","school":"cafam"},{"start_time":1551901603019,"click_time":1551901603767,"finger_time":1551901603486,"fix_duration":1070.6735116117588,"trial":60,"RT":467,"MT":281,"sideResp":2,"stimulus":"img/250/equaldotsize/R/8_Ratio_250_L_1_R_4.png","xmouse":[810,810,810,810,810,810,810,810,810,810,810,810,810,810,810,810,810,810,810,810,810,812,816,831,839,848,859,875,940,967,996,1025,1039,1049,1055,1057,1062,1071],"ymouse":[494,494,494,494,494,494,494,494,494,494,494,494,494,494,494,494,494,494,494,494,494,493,487,459,443,423,398,369,276,233,191,152,133,122,117,113,106,94],"timestamp_mouse":[9,27,51,68,87,109,128,148,167,187,209,229,248,268,289,309,327,348,367,389,407,427,449,467,488,507,527,548,568,588,608,628,649,667,687,709,729,748],"xSR":741.5,"ySR":469.95,"xT1":424.9,"yT1":0,"xT2":1058.1,"yT2":0,"toosoon":0,"cond_shown":"equaldotsize","ratio_trial":250,"smaller_num":"1","larger_num":"4","correct_side":2,"subjID":"samuelarchila3","gender":"male","age":"11","school":"cafam"},{"start_time":1551901604682,"click_time":1551901606087,"finger_time":1551901605208,"fix_duration":294.9858725120453,"trial":61,"RT":526,"MT":879,"sideResp":2,"stimulus":"img/750/equaldotsize/R/2_Ratio_750_L_6_R_8.png","xmouse":[795,795,795,795,795,795,795,795,795,795,795,794,792,791,791,791,791,790,789,788,784,781,780,779,778,752,741,733,725,719,716,714,710,704,688,645,622,608,599,594,584,578,575,575,577,606,622,635,653,683,817,896,962,998,1010,1020,1026,1038,1067,1106,1147,1149,1150,1151,1153,1162,1163,1163,1161,1154,1141],"ymouse":[517,517,517,517,517,517,517,517,517,517,517,517,517,517,517,517,517,517,517,517,517,517,517,517,517,491,479,467,456,447,435,425,413,398,373,329,309,294,279,266,240,227,222,221,220,220,220,222,229,243,280,293,298,298,291,263,244,224,201,179,156,154,152,149,147,135,130,124,115,104,90],"timestamp_mouse":[7,34,45,65,84,104,125,145,164,184,204,224,245,265,285,305,325,344,365,386,404,424,445,464,486,505,526,545,565,586,605,624,644,665,685,705,724,744,766,786,805,825,845,864,884,905,924,945,965,986,1004,1025,1046,1065,1085,1105,1124,1145,1164,1186,1205,1225,1245,1265,1285,1305,1325,1345,1365,1384,1405],"xSR":741.5,"ySR":469.95,"xT1":424.9,"yT1":0,"xT2":1058.1,"yT2":0,"toosoon":0,"cond_shown":"equaldotsize","ratio_trial":750,"smaller_num":"6","larger_num":"8","correct_side":2,"subjID":"samuelarchila3","gender":"male","age":"11","school":"cafam"},{"start_time":1551901607058,"click_time":1551901608147,"finger_time":1551901607567,"fix_duration":250,"trial":62,"RT":509,"MT":580,"sideResp":1,"stimulus":"img/750/equaldotsize/R/5_Ratio_750_L_15_R_20.png","xmouse":[806,806,806,806,806,806,806,806,806,805,805,805,804,804,804,804,804,804,804,804,804,804,806,808,809,812,811,807,806,806,806,793,775,746,715,697,663,643,611,567,523,480,478,477,476,475,464,441,437,436,436,442,444,449,456],"ymouse":[523,523,523,523,523,523,523,523,523,523,523,523,523,523,523,523,523,523,523,523,523,523,512,502,481,459,395,368,347,331,320,301,292,286,276,269,257,251,242,231,217,202,200,199,195,190,173,147,140,136,134,127,120,109,93],"timestamp_mouse":[10,31,48,68,89,108,130,149,169,189,208,229,248,269,290,308,328,349,370,389,409,430,449,469,488,509,529,550,569,590,609,628,648,668,689,710,729,750,768,789,809,829,849,869,890,909,929,949,968,988,1009,1029,1048,1069,1089],"xSR":741.5,"ySR":469.95,"xT1":424.9,"yT1":0,"xT2":1058.1,"yT2":0,"toosoon":0,"cond_shown":"equaldotsize","ratio_trial":750,"smaller_num":"15","larger_num":"20","correct_side":2,"subjID":"samuelarchila3","gender":"male","age":"11","school":"cafam"},{"start_time":1551901611056,"click_time":1551901611667,"finger_time":1551901611508,"fix_duration":548.1143502712525,"trial":63,"RT":452,"MT":159,"sideResp":2,"stimulus":"img/250/equaldotanddens/R/12_Ratio_250_L_5_R_20.png","xmouse":[806,806,806,806,806,806,806,806,806,806,806,806,806,806,806,806,806,807,808,809,812,835,854,873,905,945,1034,1066,1089,1107,1119],"ymouse":[543,543,543,543,543,543,543,543,543,543,543,543,543,543,543,543,543,543,543,543,543,529,513,491,453,405,263,207,160,119,90],"timestamp_mouse":[21,39,50,71,91,110,130,150,170,191,210,230,251,272,292,312,330,352,371,391,410,431,452,471,490,511,531,551,571,590,611],"xSR":741.5,"ySR":469.95,"xT1":424.9,"yT1":0,"xT2":1058.1,"yT2":0,"toosoon":0,"cond_shown":"equaldotanddens","ratio_trial":250,"smaller_num":"5","larger_num":"20","correct_side":2,"subjID":"samuelarchila3","gender":"male","age":"11","school":"cafam"},{"start_time":1551901612840,"click_time":1551901613826,"finger_time":1551901613306,"fix_duration":552.6762440447285,"trial":64,"RT":466,"MT":520,"sideResp":2,"stimulus":"img/750/randomdotsizeEA/R/11_Ratio_750_L_12_R_16.png","xmouse":[809,809,809,809,809,809,809,809,809,809,809,809,809,809,809,809,809,809,809,809,809,816,834,843,848,852,856,866,875,889,907,929,966,985,1008,1037,1063,1102,1106,1107,1107,1107,1107,1107,1107,1107,1107,1105,1103,1102],"ymouse":[521,521,521,521,521,521,521,521,521,521,521,521,521,521,521,521,521,521,521,521,521,519,507,499,490,479,459,428,413,395,374,354,309,282,251,216,184,140,134,133,133,133,133,132,127,122,119,109,104,99],"timestamp_mouse":[11,32,47,66,86,108,127,147,166,187,206,227,246,267,288,306,326,346,367,387,408,427,447,466,488,507,527,547,568,586,607,627,647,667,687,706,727,747,768,787,807,827,847,868,886,907,927,947,966,986],"xSR":741.5,"ySR":469.95,"xT1":424.9,"yT1":0,"xT2":1058.1,"yT2":0,"toosoon":0,"cond_shown":"randomdotsizeEA","ratio_trial":750,"smaller_num":"12","larger_num":"16","correct_side":2,"subjID":"samuelarchila3","gender":"male","age":"11","school":"cafam"},{"start_time":1551901616086,"click_time":1551901616767,"finger_time":1551901616627,"fix_duration":898.3979708559689,"trial":65,"RT":541,"MT":140,"sideResp":1,"stimulus":"img/750/equaldotsize/L/6_Ratio_750_L_24_R_18.png","xmouse":[784,784,784,784,784,784,784,784,784,784,784,784,784,784,784,784,784,784,784,784,784,784,785,787,790,791,791,783,762,724,663,544,494,467,454],"ymouse":[516,516,516,516,516,516,516,516,516,516,516,516,516,516,516,516,516,516,516,516,516,516,516,515,510,497,485,468,443,407,361,248,177,105,26],"timestamp_mouse":[9,31,41,60,80,101,121,141,161,182,201,220,240,261,281,301,321,340,360,381,402,421,441,460,481,500,521,541,560,581,601,622,641,661,681],"xSR":741.5,"ySR":469.95,"xT1":424.9,"yT1":0,"xT2":1058.1,"yT2":0,"toosoon":0,"cond_shown":"equaldotsize","ratio_trial":750,"smaller_num":"18","larger_num":"24","correct_side":1,"subjID":"samuelarchila3","gender":"male","age":"11","school":"cafam"},{"start_time":1551901618664,"click_time":1551901619407,"finger_time":1551901619187,"fix_duration":1094.1632672262424,"trial":66,"RT":523,"MT":220,"sideResp":2,"stimulus":"img/500/randomdotsizeEA/L/8_Ratio_500_L_8_R_4.png","xmouse":[751,751,751,751,751,751,751,751,751,751,751,751,751,751,751,751,751,753,754,756,756,757,759,763,769,777,818,843,883,929,976,1057,1078,1087,1091,1095,1101,1104],"ymouse":[489,489,489,489,489,489,489,489,489,489,489,489,489,489,489,489,489,489,489,488,488,488,487,487,485,483,452,423,375,319,262,168,140,124,118,111,101,98],"timestamp_mouse":[12,32,42,63,84,102,123,143,162,182,203,223,242,262,282,302,323,344,363,383,402,422,442,463,483,503,523,543,562,583,602,623,643,663,682,704,723,742],"xSR":741.5,"ySR":469.95,"xT1":424.9,"yT1":0,"xT2":1058.1,"yT2":0,"toosoon":0,"cond_shown":"randomdotsizeEA","ratio_trial":500,"smaller_num":"4","larger_num":"8","correct_side":1,"subjID":"samuelarchila3","gender":"male","age":"11","school":"cafam"},{"start_time":1551901621270,"click_time":1551901625506,"finger_time":1551901625047,"fix_duration":761.8390260607624,"trial":67,"RT":3777,"MT":459,"sideResp":1,"stimulus":"img/500/randomdotsizeEA/R/12_Ratio_500_L_1_R_2.png","xmouse":[773,773,773,773,774,775,775,775,775,775,775,775,775,775,775,775,775,775,775,775,775,775,775,775,775,775,775,775,775,775,775,775,775,775,775,775,775,775,775,775,775,775,775,775,775,775,775,775,775,775,775,775,775,775,775,775,775,775,775,775,775,775,775,775,775,775,775,775,775,775,775,775,775,775,775,775,775,775,775,775,775,775,773,773,773,772,772,772,772,772,772,772,774,774,774,774,774,774,774,774,774,774,774,774,774,774,774,774,774,774,774,774,774,774,774,774,774,773,773,773,773,773,773,773,774,775,776,776,777,778,778,778,778,778,778,778,778,778,779,780,781,783,783,785,792,797,797,797,797,797,797,797,797,797,797,797,797,797,797,797,797,797,797,797,797,797,797,797,797,797,797,797,797,797,797,797,797,797,797,797,797,797,797,797,797,797,797,791,781,769,734,711,674,634,597,560,559,559,559,559,559,559,560,560,560,560,560,560,560,558,545,495],"ymouse":[514,514,514,514,514,514,514,514,514,514,514,515,515,515,515,515,515,515,515,515,515,515,515,515,515,515,515,515,515,515,515,515,515,515,515,515,515,515,515,515,515,515,515,515,515,515,515,515,515,515,515,515,515,515,515,515,515,515,515,515,515,515,515,515,515,515,515,515,515,515,515,515,515,515,515,515,515,515,515,515,515,515,516,516,516,516,516,516,516,516,516,516,516,516,516,516,516,516,516,516,516,516,516,516,516,516,516,516,516,513,509,508,507,506,505,504,502,500,499,498,495,493,492,491,491,489,488,488,488,488,488,488,488,488,488,488,488,488,488,488,488,488,490,494,509,519,520,520,520,520,520,520,520,520,520,520,520,520,520,520,520,520,520,520,520,520,520,520,520,520,520,520,520,520,520,520,520,520,520,520,520,520,520,520,520,520,508,489,468,445,399,366,316,259,204,135,126,122,120,120,120,120,120,120,120,120,120,120,120,119,108,71],"timestamp_mouse":[17,39,57,76,97,116,137,157,178,196,216,237,256,278,298,318,337,357,376,396,416,437,456,478,498,517,537,556,576,597,616,637,657,676,697,716,738,756,777,796,817,837,857,877,897,917,938,956,977,996,1017,1036,1056,1077,1097,1116,1136,1157,1176,1197,1216,1236,1257,1278,1297,1317,1336,1356,1378,1397,1416,1437,1457,1477,1498,1516,1536,1558,1578,1596,1617,1637,1656,1676,1696,1717,1736,1756,1777,1798,1818,1838,1856,1878,1897,1916,1936,1957,1977,1998,2018,2038,2057,2076,2096,2117,2138,2158,2177,2198,2216,2236,2257,2277,2298,2316,2337,2357,2378,2396,2416,2436,2457,2476,2496,2517,2537,2556,2577,2596,2618,2638,2656,2677,2697,2716,2737,2756,2777,2797,2816,2836,2858,2878,2898,2917,2936,2957,2978,2998,3017,3037,3056,3078,3098,3116,3137,3156,3177,3196,3218,3238,3256,3276,3297,3317,3336,3356,3378,3398,3417,3437,3457,3477,3497,3516,3536,3557,3576,3597,3616,3637,3656,3677,3697,3716,3738,3756,3777,3796,3816,3836,3856,3876,3896,3917,3936,3957,3978,3997,4017,4036,4057,4077,4097,4116,4136,4157,4177,4197,4217,4236],"xSR":741.5,"ySR":469.95,"xT1":424.9,"yT1":0,"xT2":1058.1,"yT2":0,"toosoon":0,"cond_shown":"randomdotsizeEA","ratio_trial":500,"smaller_num":"1","larger_num":"2","correct_side":2,"subjID":"samuelarchila3","gender":"male","age":"11","school":"cafam"},{"start_time":1551901626747,"click_time":1551901627547,"finger_time":1551901627187,"fix_duration":517.5251445622387,"trial":68,"RT":440,"MT":360,"sideResp":2,"stimulus":"img/900/equaldotsize/R/7_Ratio_900_L_9_R_10.png","xmouse":[786,786,786,786,786,786,786,786,786,786,786,786,786,786,788,790,793,795,796,797,802,809,882,926,971,1015,1050,1102,1117,1129,1139,1159,1172,1189,1191,1191,1190,1181,1173,1164,1155],"ymouse":[530,530,530,530,530,530,530,530,530,530,530,530,530,530,530,530,529,529,528,527,519,508,399,341,285,236,200,151,135,122,108,81,59,21,12,8,6,8,10,14,20],"timestamp_mouse":[9,20,42,60,79,100,120,141,159,179,201,221,239,261,279,300,320,340,360,379,401,421,440,459,479,500,520,540,560,579,600,620,639,660,680,700,721,739,759,780,800],"xSR":741.5,"ySR":469.95,"xT1":424.9,"yT1":0,"xT2":1058.1,"yT2":0,"toosoon":0,"cond_shown":"equaldotsize","ratio_trial":900,"smaller_num":"9","larger_num":"10","correct_side":2,"subjID":"samuelarchila3","gender":"male","age":"11","school":"cafam"},{"start_time":1551901628559,"click_time":1551901629806,"finger_time":1551901629106,"fix_duration":250,"trial":69,"RT":547,"MT":700,"sideResp":1,"stimulus":"img/750/equaldotsize/L/9_Ratio_750_L_4_R_3.png","xmouse":[800,800,800,800,800,800,800,800,800,800,800,800,800,800,800,800,800,800,800,800,800,800,800,800,800,795,769,736,704,687,678,676,676,676,676,676,674,670,664,648,635,540,540,540,540,540,540,540,334,333,333,353,389,446,528,621,690,715,715,705,672,510,467],"ymouse":[540,540,540,540,540,540,540,540,540,540,540,540,540,540,540,540,540,540,540,540,540,540,540,540,540,534,507,476,449,428,404,330,284,224,175,134,86,71,59,44,36,2,2,2,2,2,2,2,0,7,32,111,170,233,293,340,367,370,356,312,242,106,82],"timestamp_mouse":[7,32,49,68,87,108,127,148,169,187,207,228,248,268,287,307,327,347,368,388,408,427,448,468,488,509,527,547,568,588,608,628,647,667,688,708,727,747,767,787,809,828,848,869,888,907,928,948,968,987,1007,1028,1047,1067,1088,1108,1127,1147,1168,1187,1208,1227,1247],"xSR":741.5,"ySR":469.95,"xT1":424.9,"yT1":0,"xT2":1058.1,"yT2":0,"toosoon":0,"cond_shown":"equaldotsize","ratio_trial":750,"smaller_num":"3","larger_num":"4","correct_side":1,"subjID":"samuelarchila3","gender":"male","age":"11","school":"cafam"},{"start_time":1551901634312,"click_time":1551901635087,"finger_time":1551901635028,"fix_duration":763.4665356548988,"trial":70,"RT":716,"MT":59,"sideResp":2,"stimulus":"img/900/equaldotsize/L/4_Ratio_900_L_20_R_18.png","xmouse":[777,778,778,778,778,778,778,778,778,778,778,778,778,778,778,778,778,778,778,778,778,778,778,778,778,778,778,778,778,778,778,778,778,791,815,852,912,988,1076],"ymouse":[545,545,544,544,544,544,544,544,544,544,544,544,544,544,544,542,541,539,533,531,531,531,531,531,531,531,531,531,531,531,531,531,531,515,486,434,342,229,68],"timestamp_mouse":[16,36,55,75,94,114,136,154,174,195,216,234,255,274,294,315,336,354,374,395,414,436,455,474,495,516,534,555,576,596,616,635,655,674,696,716,736,756,775],"xSR":741.5,"ySR":469.95,"xT1":424.9,"yT1":0,"xT2":1058.1,"yT2":0,"toosoon":0,"cond_shown":"equaldotsize","ratio_trial":900,"smaller_num":"18","larger_num":"20","correct_side":1,"subjID":"samuelarchila3","gender":"male","age":"11","school":"cafam"},{"start_time":1551901636238,"click_time":1551901637508,"finger_time":1551901636986,"fix_duration":250,"trial":71,"RT":748,"MT":522,"sideResp":1,"stimulus":"img/750/randomdotsizeEA/R/5_Ratio_750_L_15_R_20.png","xmouse":[759,759,759,759,759,759,759,759,759,759,759,759,759,759,759,759,759,759,759,759,759,759,757,755,754,754,754,754,754,754,754,754,754,754,754,754,754,751,742,727,709,685,622,592,569,566,562,557,550,547,543,540,536,536,536,536,536,536,536,536,536,536,536,506],"ymouse":[510,510,510,510,510,510,510,510,510,510,510,510,511,511,511,511,511,511,511,511,511,511,511,510,509,509,509,509,509,509,509,509,509,507,506,500,491,457,435,409,373,338,263,219,169,157,134,108,91,86,78,73,68,68,68,68,68,68,68,68,68,68,68,58],"timestamp_mouse":[9,28,49,70,88,108,128,149,170,189,209,228,248,268,288,309,328,348,369,389,410,429,449,468,488,508,529,549,568,590,608,628,650,668,689,709,728,748,768,788,808,829,848,869,888,908,929,948,969,989,1009,1030,1048,1069,1089,1108,1130,1149,1169,1188,1208,1228,1248,1269],"xSR":741.5,"ySR":469.95,"xT1":424.9,"yT1":0,"xT2":1058.1,"yT2":0,"toosoon":0,"cond_shown":"randomdotsizeEA","ratio_trial":750,"smaller_num":"15","larger_num":"20","correct_side":2,"subjID":"samuelarchila3","gender":"male","age":"11","school":"cafam"},{"start_time":1551901638658,"click_time":1551901639126,"finger_time":1551901639007,"fix_duration":250,"trial":72,"RT":349,"MT":119,"sideResp":2,"stimulus":"img/500/randomdotsizeEA/R/3_Ratio_500_L_10_R_20.png","xmouse":[772,772,772,772,772,772,772,772,772,772,772,772,776,778,781,789,807,824,844,872,905,997,1057,1112],"ymouse":[494,494,494,494,494,494,496,496,496,496,496,496,496,495,494,492,481,467,449,426,394,275,185,97],"timestamp_mouse":[20,28,48,68,88,109,129,150,169,188,209,229,248,268,288,310,329,349,368,388,409,428,448,468],"xSR":741.5,"ySR":469.95,"xT1":424.9,"yT1":0,"xT2":1058.1,"yT2":0,"toosoon":0,"cond_shown":"randomdotsizeEA","ratio_trial":500,"smaller_num":"10","larger_num":"20","correct_side":2,"subjID":"samuelarchila3","gender":"male","age":"11","school":"cafam"},{"start_time":1551901640828,"click_time":1551901641627,"finger_time":1551901641487,"fix_duration":778.6491435195743,"trial":73,"RT":659,"MT":140,"sideResp":2,"stimulus":"img/750/equaldotanddens/R/2_Ratio_750_L_6_R_8.png","xmouse":[811,811,811,811,811,811,811,811,811,811,811,811,811,811,811,811,811,811,811,811,812,813,814,816,817,818,819,819,820,821,824,828,834,854,872,900,936,969,1041,1057,1070],"ymouse":[513,513,513,513,513,513,513,513,513,513,513,513,513,513,513,513,513,513,513,513,512,511,509,508,506,505,505,504,503,502,500,497,492,468,443,400,343,296,169,127,97],"timestamp_mouse":[1,18,39,59,79,99,119,139,159,178,200,220,239,259,280,298,319,340,358,380,399,418,439,459,480,498,520,539,559,579,598,619,639,659,679,698,720,740,759,779,798],"xSR":741.5,"ySR":469.95,"xT1":424.9,"yT1":0,"xT2":1058.1,"yT2":0,"toosoon":0,"cond_shown":"equaldotanddens","ratio_trial":750,"smaller_num":"6","larger_num":"8","correct_side":2,"subjID":"samuelarchila3","gender":"male","age":"11","school":"cafam"},{"start_time":1551901646038,"click_time":1551901647887,"finger_time":1551901647526,"fix_duration":250,"trial":74,"RT":1488,"MT":361,"sideResp":1,"stimulus":"img/250/equaldotsize/L/14_Ratio_250_L_12_R_3.png","xmouse":[788,788,788,788,788,788,788,788,788,788,788,788,788,788,788,788,788,788,788,788,788,788,788,788,788,788,788,788,788,788,788,788,788,788,788,788,788,788,788,788,788,788,788,788,788,788,788,788,788,788,788,788,788,788,788,788,788,788,788,788,788,788,788,788,788,788,788,788,788,788,788,788,788,788,788,787,784,782,777,765,736,680,533,484,466,462,461,461,461,460,460,460,473],"ymouse":[540,540,540,540,540,540,540,540,540,540,540,540,540,540,540,540,540,540,540,540,540,540,540,540,540,540,540,540,540,540,540,540,540,540,540,540,540,540,540,540,540,540,540,540,540,540,540,540,540,540,540,540,540,540,540,540,540,540,540,540,540,540,540,540,540,540,540,540,540,540,540,534,499,476,454,443,434,430,421,403,365,310,208,184,171,168,166,162,160,154,147,135,97],"timestamp_mouse":[12,29,48,68,89,108,130,148,169,189,208,229,249,269,288,308,328,349,369,388,409,429,449,470,488,509,528,549,568,588,608,629,648,670,688,709,728,748,768,790,810,829,849,868,889,910,929,949,969,988,1008,1028,1049,1070,1088,1108,1130,1148,1170,1190,1209,1229,1249,1269,1288,1309,1330,1348,1370,1388,1410,1430,1448,1469,1488,1509,1529,1549,1569,1588,1608,1629,1649,1669,1689,1709,1728,1749,1769,1788,1809,1829,1849],"xSR":741.5,"ySR":469.95,"xT1":424.9,"yT1":0,"xT2":1058.1,"yT2":0,"toosoon":0,"cond_shown":"equaldotsize","ratio_trial":250,"smaller_num":"3","larger_num":"12","correct_side":1,"subjID":"samuelarchila3","gender":"male","age":"11","school":"cafam"},{"start_time":1551901650231,"click_time":1551901651006,"finger_time":1551901650726,"fix_duration":943.596602745755,"trial":75,"RT":495,"MT":280,"sideResp":2,"stimulus":"img/250/randomdotsizeEA/R/13_Ratio_250_L_2_R_8.png","xmouse":[754,754,754,754,754,754,754,754,754,754,754,754,754,754,754,754,754,754,754,756,757,759,771,782,793,804,813,823,845,863,883,906,944,963,986,1009,1049,1093,1108],"ymouse":[511,511,511,511,511,511,511,511,511,511,511,511,511,511,511,511,511,511,505,501,498,496,483,475,465,455,447,439,421,408,393,378,343,322,287,250,185,104,69],"timestamp_mouse":[15,35,56,75,95,116,135,155,177,195,216,236,256,275,297,317,335,355,