[{"start_time":1551887503014,"click_time":1551887504497,"finger_time":1551887503797,"fix_duration":1371.439054070604,"trial":0,"RT":783,"MT":700,"sideResp":1,"stimulus":"img/900/equaldotsize/L/1_Ratio_900_L_10_R_9.png","xmouse":[792,792,792,792,792,792,792,792,792,792,792,792,792,792,792,792,792,792,791,791,790,790,790,790,790,790,790,790,790,790,790,790,790,790,787,782,768,759,726,698,633,585,538,479,415,392,384,383,383,383,383,383,383,383,383,383,383,383,383,383,383,383,383,389,393,399,405,409,415,415,415,416,423,432],"ymouse":[488,488,488,488,488,488,488,488,488,488,488,488,488,488,488,488,488,488,488,489,489,489,489,489,489,489,489,489,489,489,489,489,489,489,489,489,478,470,436,404,316,255,188,114,63,46,40,36,30,23,4,4,4,4,4,4,4,4,4,4,4,4,4,0,13,18,24,30,32,33,33,35,36,41],"timestamp_mouse":[23,44,62,82,104,122,143,162,184,204,222,243,264,284,303,323,342,363,383,404,423,442,464,484,502,524,542,564,584,604,624,643,664,684,704,722,743,762,783,803,822,842,863,883,904,922,943,963,983,1003,1023,1043,1063,1084,1102,1122,1143,1163,1183,1204,1222,1243,1263,1283,1304,1323,1342,1363,1382,1404,1423,1444,1463,1483],"xSR":741.5,"ySR":449.15000000000003,"xT1":424.9,"yT1":0,"xT2":1058.1,"yT2":0,"toosoon":0,"cond_shown":"equaldotsize","ratio_trial":900,"smaller_num":"9","larger_num":"10","correct_side":1,"subjID":"SamuelArturoArizaRamos13","gender":"0","age":"11","school":"6","test":{"fix_dur":[250,1500],"timestim":300,"targets_dim":[100,100],"targets_relative_coord":[0.3,0.7],"size_stim":[880,420],"start_dim":[100,100],"size_start":[300,300],"size_fix":60,"samplingrate":20,"img_types":["equaldotsize","equaldotanddens","randomdotsizeEA"],"ratios":[250,500,750,900],"rep_conds":9,"nTrials":120,"trials_to_rest":500,"Trials_order":[117,91,30,61,12,22,52,36,104,106,115,87,48,114,113,101,85,27,4,109,3,9,47,18,20,42,59,8,108,64,60,116,17,7,95,25,103,14,11,10,75,28,73,55,54,72,100,50,0,67,35,83,76,13,49,2,37,15,63,92,46,80,40,84,69,99,44,62,24,57,86,43,19,41,38,107,31,51,45,105,34,5,6,23,53,65,70,102,88,1,26,96,68,90,112,71,56,110,81,29,93,58,97,39,32,77,118,33,119,94,16,21,89,78,66,98,74,79,82,111],"cond_shown":["equaldotsize","equaldotanddens","equaldotsize","equaldotanddens","equaldotsize","equaldotanddens","equaldotanddens","equaldotsize","randomdotsizeEA","equaldotanddens","equaldotanddens","equaldotsize","equaldotsize","equaldotsize","randomdotsizeEA","randomdotsizeEA","equaldotanddens","equaldotsize","equaldotanddens","equaldotanddens","equaldotsize","equaldotsize","randomdotsizeEA","equaldotsize","randomdotsizeEA","equaldotsize","randomdotsizeEA","randomdotsizeEA","equaldotsize","equaldotanddens","equaldotsize","randomdotsizeEA","randomdotsizeEA","equaldotanddens","randomdotsizeEA","equaldotanddens","equaldotanddens","randomdotsizeEA","randomdotsizeEA","equaldotanddens","equaldotsize","equaldotanddens","equaldotanddens","equaldotanddens","equaldotsize","equaldotsize","equaldotanddens","randomdotsizeEA","equaldotsize","equaldotanddens","randomdotsizeEA","randomdotsizeEA","equaldotanddens","equaldotanddens","equaldotanddens","randomdotsizeEA","equaldotanddens","equaldotsize","equaldotsize","randomdotsizeEA","equaldotanddens","randomdotsizeEA","equaldotanddens","equaldotsize","equaldotsize","equaldotsize","randomdotsizeEA","randomdotsizeEA","equaldotsize","equaldotsize","randomdotsizeEA","equaldotanddens","equaldotanddens","randomdotsizeEA","randomdotsizeEA","randomdotsizeEA","equaldotanddens","equaldotsize","equaldotsize","equaldotsize","equaldotanddens","randomdotsizeEA","equaldotsize","randomdotsizeEA","randomdotsizeEA","randomdotsizeEA","equaldotanddens","equaldotsize","equaldotanddens","equaldotanddens","randomdotsizeEA","equaldotsize","randomdotsizeEA","equaldotsize","equaldotanddens","randomdotsizeEA","randomdotsizeEA","randomdotsizeEA","equaldotsize","randomdotsizeEA","equaldotsize","equaldotanddens","equaldotanddens","equaldotsize","randomdotsizeEA","randomdotsizeEA","equaldotanddens","equaldotsize","randomdotsizeEA","equaldotanddens","equaldotanddens","equaldotsize","randomdotsizeEA","equaldotsize","equaldotsize","randomdotsizeEA","randomdotsizeEA","equaldotanddens","equaldotanddens","equaldotsize"],"ratio_trial":[900,750,750,250,250,900,500,250,750,900,750,500,250,750,500,500,250,500,500,250,500,900,900,750,750,750,900,750,250,500,250,750,500,750,900,250,750,250,900,900,500,500,250,750,750,250,500,250,250,750,900,900,500,250,250,250,250,500,500,750,900,750,500,250,900,500,750,250,250,900,250,750,750,500,250,900,750,500,900,900,900,500,750,900,500,500,900,750,500,250,250,250,750,750,500,900,750,250,900,500,900,900,250,500,750,500,900,900,900,900,500,900,500,750,750,250,250,750,900,500],"smaller_num":["9","15","6","5","3","18","2","3","6","18","18","6","6","3","1","2","2","4","6","2","1","18","18","9","3","6","18","9","3","2","5","6","1","6","9","3","6","2","18","9","2","6","3","18","3","4","9","2","3","9","9","18","9","2","6","2","3","2","9","15","18","6","5","2","9","2","15","3","6","18","2","3","15","1","3","18","9","6","9","9","18","9","6","18","1","6","9","3","1","4","3","6","3","3","2","18","6","2","9","4","18","18","5","9","6","5","18","18","18","9","6","18","2","3","3","2","4","3","18","5"],"larger_num":["10","20","8","20","12","20","4","12","8","20","24","12","24","4","2","4","8","8","12","8","2","20","20","12","4","8","20","12","12","4","20","8","2","8","10","12","8","8","20","10","4","12","12","24","4","16","18","8","12","12","10","20","18","8","24","8","12","4","18","20","20","8","10","8","10","4","20","12","24","20","8","4","20","2","12","20","12","12","10","10","20","18","8","20","2","12","10","4","2","16","12","24","4","4","4","20","8","8","10","8","20","20","20","18","8","10","20","20","20","10","12","20","4","4","4","8","16","4","20","10"],"correct_side":[1,2,1,2,2,1,1,2,1,2,1,1,2,1,2,2,1,1,1,1,2,2,1,2,2,1,1,2,1,2,2,1,2,2,1,2,1,1,1,1,2,1,1,1,1,2,2,1,2,2,2,1,1,1,2,2,1,2,2,2,1,2,2,1,2,1,1,1,1,1,1,1,2,2,2,1,2,1,2,1,2,1,2,1,2,1,2,2,2,1,1,1,1,1,1,2,1,2,2,1,1,2,2,2,2,2,1,1,2,2,1,2,1,2,1,1,1,2,1,2],"img_shown":["img/900/equaldotsize/L/1_Ratio_900_L_10_R_9.png","img/750/equaldotanddens/R/5_Ratio_750_L_15_R_20.png","img/750/equaldotsize/L/13_Ratio_750_L_8_R_6.png","img/250/equaldotanddens/R/12_Ratio_250_L_5_R_20.png","img/250/equaldotsize/R/9_Ratio_250_L_3_R_12.png","img/900/equaldotanddens/L/8_Ratio_900_L_20_R_18.png","img/500/equaldotanddens/L/5_Ratio_500_L_4_R_2.png","img/250/equaldotsize/R/11_Ratio_250_L_3_R_12.png","img/750/randomdotsizeEA/L/14_Ratio_750_L_8_R_6.png","img/900/equaldotanddens/R/13_Ratio_900_L_18_R_20.png","img/750/equaldotanddens/L/6_Ratio_750_L_24_R_18.png","img/500/equaldotsize/L/13_Ratio_500_L_12_R_6.png","img/250/equaldotsize/R/6_Ratio_250_L_6_R_24.png","img/750/equaldotsize/L/8_Ratio_750_L_4_R_3.png","img/500/randomdotsizeEA/R/15_Ratio_500_L_1_R_2.png","img/500/randomdotsizeEA/R/9_Ratio_500_L_2_R_4.png","img/250/equaldotanddens/L/7_Ratio_250_L_8_R_2.png","img/500/equaldotsize/L/8_Ratio_500_L_8_R_4.png","img/500/equaldotanddens/L/13_Ratio_500_L_12_R_6.png","img/250/equaldotanddens/L/7_Ratio_250_L_8_R_2.png","img/500/equaldotsize/R/15_Ratio_500_L_1_R_2.png","img/900/equaldotsize/R/13_Ratio_900_L_18_R_20.png","img/900/randomdotsizeEA/L/8_Ratio_900_L_20_R_18.png","img/750/equaldotsize/R/15_Ratio_750_L_9_R_12.png","img/750/randomdotsizeEA/R/7_Ratio_750_L_3_R_4.png","img/750/equaldotsize/L/14_Ratio_750_L_8_R_6.png","img/900/randomdotsizeEA/L/10_Ratio_900_L_20_R_18.png","img/750/randomdotsizeEA/R/15_Ratio_750_L_9_R_12.png","img/250/equaldotsize/L/14_Ratio_250_L_12_R_3.png","img/500/equaldotanddens/R/9_Ratio_500_L_2_R_4.png","img/250/equaldotsize/R/12_Ratio_250_L_5_R_20.png","img/750/randomdotsizeEA/L/14_Ratio_750_L_8_R_6.png","img/500/randomdotsizeEA/R/15_Ratio_500_L_1_R_2.png","img/750/equaldotanddens/R/2_Ratio_750_L_6_R_8.png","img/900/randomdotsizeEA/L/1_Ratio_900_L_10_R_9.png","img/250/equaldotanddens/R/11_Ratio_250_L_3_R_12.png","img/750/equaldotanddens/L/14_Ratio_750_L_8_R_6.png","img/250/randomdotsizeEA/L/7_Ratio_250_L_8_R_2.png","img/900/randomdotsizeEA/L/2_Ratio_900_L_20_R_18.png","img/900/equaldotanddens/L/1_Ratio_900_L_10_R_9.png","img/500/equaldotsize/R/9_Ratio_500_L_2_R_4.png","img/500/equaldotanddens/L/13_Ratio_500_L_12_R_6.png","img/250/equaldotanddens/L/15_Ratio_250_L_12_R_3.png","img/750/equaldotanddens/L/6_Ratio_750_L_24_R_18.png","img/750/equaldotsize/L/8_Ratio_750_L_4_R_3.png","img/250/equaldotsize/R/10_Ratio_250_L_4_R_16.png","img/500/equaldotanddens/R/1_Ratio_500_L_9_R_18.png","img/250/randomdotsizeEA/L/3_Ratio_250_L_8_R_2.png","img/250/equaldotsize/R/4_Ratio_250_L_3_R_12.png","img/750/equaldotanddens/R/15_Ratio_750_L_9_R_12.png","img/900/randomdotsizeEA/R/15_Ratio_900_L_9_R_10.png","img/900/randomdotsizeEA/L/2_Ratio_900_L_20_R_18.png","img/500/equaldotanddens/L/4_Ratio_500_L_18_R_9.png","img/250/equaldotanddens/L/1_Ratio_250_L_8_R_2.png","img/250/equaldotanddens/R/6_Ratio_250_L_6_R_24.png","img/250/randomdotsizeEA/R/13_Ratio_250_L_2_R_8.png","img/250/equaldotanddens/L/14_Ratio_250_L_12_R_3.png","img/500/equaldotsize/R/9_Ratio_500_L_2_R_4.png","img/500/equaldotsize/R/1_Ratio_500_L_9_R_18.png","img/750/randomdotsizeEA/R/5_Ratio_750_L_15_R_20.png","img/900/equaldotanddens/L/10_Ratio_900_L_20_R_18.png","img/750/randomdotsizeEA/R/2_Ratio_750_L_6_R_8.png","img/500/equaldotanddens/R/14_Ratio_500_L_5_R_10.png","img/250/equaldotsize/L/3_Ratio_250_L_8_R_2.png","img/900/equaldotsize/R/6_Ratio_900_L_9_R_10.png","img/500/equaldotsize/L/10_Ratio_500_L_4_R_2.png","img/750/randomdotsizeEA/L/1_Ratio_750_L_20_R_15.png","img/250/randomdotsizeEA/L/15_Ratio_250_L_12_R_3.png","img/250/equaldotsize/L/5_Ratio_250_L_24_R_6.png","img/900/equaldotsize/L/8_Ratio_900_L_20_R_18.png","img/250/randomdotsizeEA/L/7_Ratio_250_L_8_R_2.png","img/750/equaldotanddens/L/9_Ratio_750_L_4_R_3.png","img/750/equaldotanddens/R/4_Ratio_750_L_15_R_20.png","img/500/randomdotsizeEA/R/15_Ratio_500_L_1_R_2.png","img/250/randomdotsizeEA/R/11_Ratio_250_L_3_R_12.png","img/900/randomdotsizeEA/L/2_Ratio_900_L_20_R_18.png","img/750/equaldotanddens/R/15_Ratio_750_L_9_R_12.png","img/500/equaldotsize/L/11_Ratio_500_L_12_R_6.png","img/900/equaldotsize/R/6_Ratio_900_L_9_R_10.png","img/900/equaldotsize/L/1_Ratio_900_L_10_R_9.png","img/900/equaldotanddens/R/9_Ratio_900_L_18_R_20.png","img/500/randomdotsizeEA/L/4_Ratio_500_L_18_R_9.png","img/750/equaldotsize/R/2_Ratio_750_L_6_R_8.png","img/900/randomdotsizeEA/L/4_Ratio_900_L_20_R_18.png","img/500/randomdotsizeEA/R/15_Ratio_500_L_1_R_2.png","img/500/randomdotsizeEA/L/13_Ratio_500_L_12_R_6.png","img/900/equaldotanddens/R/3_Ratio_900_L_9_R_10.png","img/750/equaldotsize/R/12_Ratio_750_L_3_R_4.png","img/500/equaldotanddens/R/12_Ratio_500_L_1_R_2.png","img/250/equaldotanddens/L/2_Ratio_250_L_16_R_4.png","img/250/randomdotsizeEA/L/15_Ratio_250_L_12_R_3.png","img/250/equaldotsize/L/5_Ratio_250_L_24_R_6.png","img/750/randomdotsizeEA/L/10_Ratio_750_L_4_R_3.png","img/750/equaldotsize/L/10_Ratio_750_L_4_R_3.png","img/500/equaldotanddens/L/5_Ratio_500_L_4_R_2.png","img/900/randomdotsizeEA/R/14_Ratio_900_L_18_R_20.png","img/750/randomdotsizeEA/L/13_Ratio_750_L_8_R_6.png","img/250/randomdotsizeEA/R/13_Ratio_250_L_2_R_8.png","img/900/equaldotsize/R/7_Ratio_900_L_9_R_10.png","img/500/randomdotsizeEA/L/8_Ratio_500_L_8_R_4.png","img/900/equaldotsize/L/2_Ratio_900_L_20_R_18.png","img/900/equaldotanddens/R/12_Ratio_900_L_18_R_20.png","img/250/equaldotanddens/R/12_Ratio_250_L_5_R_20.png","img/500/equaldotsize/R/1_Ratio_500_L_9_R_18.png","img/750/randomdotsizeEA/R/2_Ratio_750_L_6_R_8.png","img/500/randomdotsizeEA/R/14_Ratio_500_L_5_R_10.png","img/900/equaldotanddens/L/4_Ratio_900_L_20_R_18.png","img/900/equaldotsize/L/4_Ratio_900_L_20_R_18.png","img/900/randomdotsizeEA/R/14_Ratio_900_L_18_R_20.png","img/900/equaldotanddens/R/5_Ratio_900_L_9_R_10.png","img/500/equaldotanddens/L/13_Ratio_500_L_12_R_6.png","img/900/equaldotsize/R/9_Ratio_900_L_18_R_20.png","img/500/randomdotsizeEA/L/5_Ratio_500_L_4_R_2.png","img/750/equaldotsize/R/12_Ratio_750_L_3_R_4.png","img/750/equaldotsize/L/8_Ratio_750_L_4_R_3.png","img/250/randomdotsizeEA/L/1_Ratio_250_L_8_R_2.png","img/250/randomdotsizeEA/L/2_Ratio_250_L_16_R_4.png","img/750/equaldotanddens/R/7_Ratio_750_L_3_R_4.png","img/900/equaldotanddens/L/4_Ratio_900_L_20_R_18.png","img/500/equaldotsize/R/14_Ratio_500_L_5_R_10.png"],"Rat0":[["12_Ratio_0_L_9_R_0.png","13_Ratio_0_L_6_R_0.png","5_Ratio_0_L_2_R_0.png","6_Ratio_0_L_4_R_0.png","8_Ratio_0_L_6_R_0.png"],["1_Ratio_0_L_0_R_17.png","10_Ratio_0_L_0_R_22.png","11_Ratio_0_L_0_R_1.png","14_Ratio_0_L_0_R_24.png","15_Ratio_0_L_0_R_4.png","2_Ratio_0_L_0_R_5.png","3_Ratio_0_L_0_R_17.png","4_Ratio_0_L_0_R_7.png","7_Ratio_0_L_0_R_19.png","9_Ratio_0_L_0_R_15.png"]],"Rat250":[["1_Ratio_250_L_8_R_2.png","14_Ratio_250_L_12_R_3.png","15_Ratio_250_L_12_R_3.png","2_Ratio_250_L_16_R_4.png","3_Ratio_250_L_8_R_2.png","5_Ratio_250_L_24_R_6.png","7_Ratio_250_L_8_R_2.png"],["10_Ratio_250_L_4_R_16.png","11_Ratio_250_L_3_R_12.png","12_Ratio_250_L_5_R_20.png","13_Ratio_250_L_2_R_8.png","4_Ratio_250_L_3_R_12.png","6_Ratio_250_L_6_R_24.png","8_Ratio_250_L_1_R_4.png","9_Ratio_250_L_3_R_12.png"]],"Rat500":[["10_Ratio_500_L_4_R_2.png","11_Ratio_500_L_12_R_6.png","13_Ratio_500_L_12_R_6.png","4_Ratio_500_L_18_R_9.png","5_Ratio_500_L_4_R_2.png","7_Ratio_500_L_10_R_5.png","8_Ratio_500_L_8_R_4.png"],["1_Ratio_500_L_9_R_18.png","12_Ratio_500_L_1_R_2.png","14_Ratio_500_L_5_R_10.png","15_Ratio_500_L_1_R_2.png","2_Ratio_500_L_3_R_6.png","3_Ratio_500_L_10_R_20.png","6_Ratio_500_L_9_R_18.png","9_Ratio_500_L_2_R_4.png"]],"Rat750":[["1_Ratio_750_L_20_R_15.png","10_Ratio_750_L_4_R_3.png","13_Ratio_750_L_8_R_6.png","14_Ratio_750_L_8_R_6.png","6_Ratio_750_L_24_R_18.png","8_Ratio_750_L_4_R_3.png","9_Ratio_750_L_4_R_3.png"],["11_Ratio_750_L_12_R_16.png","12_Ratio_750_L_3_R_4.png","15_Ratio_750_L_9_R_12.png","2_Ratio_750_L_6_R_8.png","3_Ratio_750_L_15_R_20.png","4_Ratio_750_L_15_R_20.png","5_Ratio_750_L_15_R_20.png","7_Ratio_750_L_3_R_4.png"]],"Rat900":[["1_Ratio_900_L_10_R_9.png","10_Ratio_900_L_20_R_18.png","2_Ratio_900_L_20_R_18.png","4_Ratio_900_L_20_R_18.png","8_Ratio_900_L_20_R_18.png"],["11_Ratio_900_L_18_R_20.png","12_Ratio_900_L_18_R_20.png","13_Ratio_900_L_18_R_20.png","14_Ratio_900_L_18_R_20.png","15_Ratio_900_L_9_R_10.png","3_Ratio_900_L_9_R_10.png","5_Ratio_900_L_9_R_10.png","6_Ratio_900_L_9_R_10.png","7_Ratio_900_L_9_R_10.png","9_Ratio_900_L_18_R_20.png"]],"Rat1000":[["10_Ratio_1000_L_16_R_16.png","11_Ratio_1000_L_6_R_6.png","12_Ratio_1000_L_14_R_14.png","13_Ratio_1000_L_20_R_20.png","15_Ratio_1000_L_15_R_15.png","2_Ratio_1000_L_17_R_17.png","4_Ratio_1000_L_9_R_9.png","5_Ratio_1000_L_6_R_6.png","6_Ratio_1000_L_19_R_19.png","8_Ratio_1000_L_14_R_14.png","9_Ratio_1000_L_25_R_25.png"],["1_Ratio_1000_L_1_R_1.png","14_Ratio_1000_L_17_R_17.png","3_Ratio_1000_L_17_R_17.png","7_Ratio_1000_L_6_R_6.png"]]}},{"start_time":1551887508719,"click_time":1551887510037,"finger_time":1551887509477,"fix_duration":600.4195068744226,"trial":1,"RT":758,"MT":560,"sideResp":2,"stimulus":"img/750/equaldotanddens/R/5_Ratio_750_L_15_R_20.png","xmouse":[792,792,792,792,792,792,792,792,792,792,792,792,792,792,792,792,792,792,792,792,792,792,792,792,792,792,792,792,792,792,792,792,792,792,792,793,808,836,866,892,938,944,946,946,946,946,952,959,966,968,969,973,977,989,1005,1030,1034,1040,1043,1048,1056,1057,1057,1057,1057,1060],"ymouse":[603,603,603,604,605,607,607,608,608,608,608,608,608,608,608,608,608,608,608,609,609,610,610,611,611,611,611,611,611,611,611,611,611,611,611,609,588,555,525,491,414,379,338,329,311,287,264,246,230,215,191,179,168,157,145,119,110,99,90,84,75,72,71,71,71,71],"timestamp_mouse":[36,37,57,77,97,118,137,158,178,198,218,237,258,278,297,317,338,359,377,397,418,439,457,478,499,517,537,558,577,599,617,638,658,677,698,718,737,758,778,798,818,837,858,879,898,918,938,958,978,997,1017,1038,1058,1078,1098,1118,1137,1158,1177,1198,1217,1237,1258,1278,1297,1318],"xSR":741.5,"ySR":573.95,"xT1":424.9,"yT1":0,"xT2":1058.1,"yT2":0,"toosoon":0,"cond_shown":"equaldotanddens","ratio_trial":750,"smaller_num":"15","larger_num":"20","correct_side":2,"subjID":"SamuelArturoArizaRamos13","gender":"0","age":"11","school":"6"},{"start_time":1551887512046,"click_time":1551887512797,"finger_time":1551887512677,"fix_duration":1207.216035096001,"trial":2,"RT":631,"MT":120,"sideResp":1,"stimulus":"img/750/equaldotsize/L/13_Ratio_750_L_8_R_6.png","xmouse":[788,787,787,787,787,787,787,787,787,787,787,787,787,787,787,787,787,787,787,787,787,787,787,787,787,787,787,787,786,774,756,732,702,632,591,550,506,437],"ymouse":[641,641,641,641,641,641,641,641,641,641,641,641,641,641,641,641,641,641,641,641,641,641,641,641,641,641,641,641,640,613,587,545,496,376,306,242,176,85],"timestamp_mouse":[10,32,51,72,91,111,131,151,171,190,210,231,251,270,291,311,330,351,372,390,410,432,450,471,491,512,530,551,571,591,610,631,651,672,690,711,731,751],"xSR":741.5,"ySR":573.95,"xT1":424.9,"yT1":0,"xT2":1058.1,"yT2":0,"toosoon":0,"cond_shown":"equaldotsize","ratio_trial":750,"smaller_num":"6","larger_num":"8","correct_side":1,"subjID":"SamuelArturoArizaRamos13","gender":"0","age":"11","school":"6"},{"start_time":1551887514697,"click_time":1551887515718,"finger_time":1551887515256,"fix_duration":959.9286399108597,"trial":3,"RT":559,"MT":462,"sideResp":2,"stimulus":"img/250/equaldotanddens/R/12_Ratio_250_L_5_R_20.png","xmouse":[777,777,777,777,777,777,777,777,777,777,777,777,777,777,777,777,777,777,777,777,777,777,777,777,777,777,778,803,823,843,867,910,927,937,957,963,981,998,1003,1005,1008,1012,1019,1026,1032,1040,1045,1049,1051,1052,1053,1063],"ymouse":[621,621,621,621,621,621,621,621,621,621,621,621,621,621,621,621,621,621,621,621,621,621,621,621,621,621,621,589,569,547,525,478,451,425,380,365,325,286,271,254,236,219,184,166,153,136,125,112,107,105,101,88],"timestamp_mouse":[8,20,40,60,79,101,121,140,160,181,201,219,239,260,279,299,321,340,361,379,399,420,440,459,480,499,520,540,559,580,600,621,640,661,679,700,719,740,760,779,799,821,840,861,880,900,920,940,959,980,1000,1021],"xSR":741.5,"ySR":573.95,"xT1":424.9,"yT1":0,"xT2":1058.1,"yT2":0,"toosoon":0,"cond_shown":"equaldotanddens","ratio_trial":250,"smaller_num":"5","larger_num":"20","correct_side":2,"subjID":"SamuelArturoArizaRamos13","gender":"0","age":"11","school":"6"},{"start_time":1551887516788,"click_time":1551887517757,"finger_time":1551887517437,"fix_duration":250,"trial":4,"RT":649,"MT":320,"sideResp":2,"stimulus":"img/250/equaldotsize/R/9_Ratio_250_L_3_R_12.png","xmouse":[767,767,767,767,767,768,769,771,774,776,777,778,778,778,778,778,778,778,778,778,778,778,778,778,778,778,778,779,784,794,800,827,865,893,914,929,942,957,964,974,984,998,1017,1024,1029,1034,1041,1064,1075],"ymouse":[625,625,625,625,625,625,625,627,630,631,632,633,633,633,633,633,633,633,633,633,633,633,633,633,633,633,633,633,629,613,606,577,535,503,468,435,396,325,304,281,260,232,196,178,162,145,131,103,93],"timestamp_mouse":[9,31,49,68,90,109,128,148,170,189,210,229,249,269,290,309,329,350,369,389,409,429,449,468,489,509,529,548,569,588,609,629,649,669,690,709,729,748,770,788,809,829,849,868,888,909,929,949,969],"xSR":741.5,"ySR":573.95,"xT1":424.9,"yT1":0,"xT2":1058.1,"yT2":0,"toosoon":0,"cond_shown":"equaldotsize","ratio_trial":250,"smaller_num":"3","larger_num":"12","correct_side":2,"subjID":"SamuelArturoArizaRamos13","gender":"0","age":"11","school":"6"},{"start_time":1551887518849,"click_time":1551887519837,"finger_time":1551887519438,"fix_duration":250,"trial":5,"RT":589,"MT":399,"sideResp":1,"stimulus":"img/900/equaldotanddens/L/8_Ratio_900_L_20_R_18.png","xmouse":[824,824,824,824,824,824,824,824,824,824,824,824,824,824,824,824,824,824,824,824,824,824,824,827,828,829,829,829,829,829,829,827,818,806,778,759,738,708,665,647,627,607,588,570,545,534,521,501,490,478],"ymouse":[626,626,626,626,626,626,626,626,626,626,626,626,626,626,626,626,626,626,626,626,625,623,620,617,611,606,596,594,584,567,555,541,523,499,446,420,393,356,309,287,265,246,226,208,178,161,145,119,105,88],"timestamp_mouse":[10,29,48,68,89,107,129,149,169,189,208,229,249,268,289,307,327,348,368,389,407,428,449,468,487,507,527,548,568,589,607,628,648,667,687,708,728,749,769,787,808,827,848,868,887,908,928,947,967,988],"xSR":741.5,"ySR":573.95,"xT1":424.9,"yT1":0,"xT2":1058.1,"yT2":0,"toosoon":0,"cond_shown":"equaldotanddens","ratio_trial":900,"smaller_num":"18","larger_num":"20","correct_side":1,"subjID":"SamuelArturoArizaRamos13","gender":"0","age":"11","school":"6"},{"start_time":1551887521844,"click_time":1551887523396,"finger_time":1551887522517,"fix_duration":1124.3134662912166,"trial":6,"RT":673,"MT":879,"sideResp":1,"stimulus":"img/500/equaldotanddens/L/5_Ratio_500_L_4_R_2.png","xmouse":[813,813,812,811,811,810,810,809,808,808,807,806,806,804,804,804,803,802,802,802,802,802,802,802,802,802,801,800,800,796,796,794,794,794,806,820,837,840,840,836,833,822,807,794,754,730,706,686,652,601,574,537,502,468,396,366,340,338,338,354,365,372,377,380,380,380,381,382,384,387,389,392,395,398,401,404,413,430],"ymouse":[619,619,619,619,619,619,619,619,619,619,619,619,620,620,620,620,620,620,620,620,620,620,620,620,620,620,620,620,617,610,601,591,581,568,535,516,494,478,458,445,431,413,396,377,342,323,305,288,262,223,202,174,150,124,69,48,30,29,27,19,16,14,11,10,10,10,10,10,11,14,17,18,20,21,23,24,27,31],"timestamp_mouse":[13,34,52,74,92,112,132,153,172,194,212,234,254,273,293,313,332,352,374,393,414,432,452,473,493,513,533,553,573,593,612,633,653,673,692,713,733,752,772,793,813,834,853,872,892,913,932,954,973,994,1012,1032,1052,1073,1092,1112,1132,1154,1173,1193,1213,1232,1252,1274,1294,1313,1333,1353,1373,1393,1412,1433,1453,1473,1492,1514,1533,1552],"xSR":741.5,"ySR":573.95,"xT1":424.9,"yT1":0,"xT2":1058.1,"yT2":0,"toosoon":0,"cond_shown":"equaldotanddens","ratio_trial":500,"smaller_num":"2","larger_num":"4","correct_side":1,"subjID":"SamuelArturoArizaRamos13","gender":"0","age":"11","school":"6"},{"start_time":1551887525521,"click_time":1551887526518,"finger_time":1551887526117,"fix_duration":1263.4158383927277,"trial":7,"RT":596,"MT":401,"sideResp":2,"stimulus":"img/250/equaldotsize/R/11_Ratio_250_L_3_R_12.png","xmouse":[785,785,785,785,785,785,785,785,785,785,785,785,785,785,785,785,785,785,785,785,785,785,785,785,785,785,788,798,816,840,881,902,921,945,960,984,994,1000,1006,1012,1019,1023,1027,1030,1035,1046,1048,1051,1054,1065],"ymouse":[637,637,637,637,637,637,637,637,637,637,637,637,637,637,637,637,637,637,637,637,637,637,637,637,637,637,636,622,598,566,512,483,451,412,384,326,301,278,250,225,172,150,130,113,94,74,67,63,58,49],"timestamp_mouse":[15,36,56,77,96,115,137,157,177,196,217,236,256,277,297,316,337,357,375,396,416,436,456,475,496,516,535,556,576,596,616,636,656,676,696,716,735,755,776,795,815,837,856,875,895,916,936,957,976,997],"xSR":741.5,"ySR":573.95,"xT1":424.9,"yT1":0,"xT2":1058.1,"yT2":0,"toosoon":0,"cond_shown":"equaldotsize","ratio_trial":250,"smaller_num":"3","larger_num":"12","correct_side":2,"subjID":"SamuelArturoArizaRamos13","gender":"0","age":"11","school":"6"},{"start_time":1551887528059,"click_time":1551887530317,"finger_time":1551887529757,"fix_duration":581.375070339792,"trial":8,"RT":1698,"MT":560,"sideResp":2,"stimulus":"img/750/randomdotsizeEA/L/14_Ratio_750_L_8_R_6.png","xmouse":[798,798,798,798,798,798,798,798,798,798,798,798,798,798,798,798,798,798,798,798,798,798,798,798,798,798,798,798,798,798,798,798,798,798,798,798,798,798,798,798,798,798,798,798,798,798,798,798,798,798,798,798,798,798,798,798,798,798,798,798,798,798,798,798,798,798,798,798,798,798,798,798,798,798,798,798,798,798,798,798,798,798,802,811,826,856,869,902,939,954,966,973,977,981,981,983,986,987,989,989,989,990,992,1003,1009,1013,1020,1028,1042,1047,1051,1055,1060],"ymouse":[638,638,638,638,638,638,638,638,638,638,638,638,638,638,638,638,638,638,638,638,638,638,638,638,638,638,638,638,638,638,638,638,638,638,638,638,638,638,638,638,638,638,638,638,638,638,638,638,638,638,638,638,638,638,638,638,638,638,638,638,638,638,638,638,638,638,638,638,638,638,638,638,638,638,638,638,638,638,638,638,638,635,622,604,572,516,496,440,364,325,289,256,224,164,140,120,99,92,88,88,88,88,86,81,78,74,69,63,57,55,53,52,51],"timestamp_mouse":[17,37,59,77,99,117,137,157,177,198,217,237,257,278,298,317,337,358,377,399,418,438,458,477,499,518,539,558,579,599,617,638,659,678,697,719,739,757,777,798,819,838,858,878,899,919,937,958,979,997,1017,1039,1057,1078,1098,1118,1138,1159,1179,1198,1218,1237,1259,1278,1297,1317,1339,1358,1378,1398,1418,1439,1458,1478,1499,1518,1537,1557,1578,1599,1618,1637,1658,1677,1698,1718,1737,1758,1777,1797,1819,1838,1858,1877,1897,1918,1938,1958,1977,1997,2019,2038,2058,2077,2099,2117,2137,2157,2178,2198,2218,2238,2258],"xSR":741.5,"ySR":573.95,"xT1":424.9,"yT1":0,"xT2":1058.1,"yT2":0,"toosoon":0,"cond_shown":"randomdotsizeEA","ratio_trial":750,"smaller_num":"6","larger_num":"8","correct_side":1,"subjID":"SamuelArturoArizaRamos13","gender":"0","age":"11","school":"6"},{"start_time":1551887535260,"click_time":1551887536837,"finger_time":1551887536096,"fix_duration":802.4637143572314,"trial":9,"RT":836,"MT":741,"sideResp":2,"stimulus":"img/900/equaldotanddens/R/13_Ratio_900_L_18_R_20.png","xmouse":[790,790,790,790,790,790,790,790,790,790,790,790,790,790,790,790,790,790,790,790,790,790,790,790,790,790,790,790,790,790,790,790,790,790,790,790,790,790,787,776,754,725,686,581,519,465,429,383,359,357,357,360,363,363,364,366,370,381,424,456,494,539,595,718,780,835,881,900,908,912,921,933,947,977,988,1000,1020,1046,1103],"ymouse":[646,646,646,646,646,646,646,646,646,646,646,646,646,646,646,646,646,646,646,646,646,646,646,646,646,646,646,646,646,646,646,646,646,646,646,646,646,646,643,636,622,603,584,539,520,508,493,473,454,447,442,436,430,427,426,426,424,419,404,389,374,354,333,271,241,211,182,170,161,154,146,137,126,105,97,89,75,65,39],"timestamp_mouse":[17,36,57,76,96,116,137,157,178,197,217,237,257,277,297,317,336,356,378,396,418,438,458,477,496,518,536,556,577,597,617,638,657,677,697,718,736,758,778,796,817,836,857,876,897,916,937,957,977,997,1017,1036,1058,1077,1098,1117,1136,1157,1178,1196,1218,1237,1258,1276,1297,1317,1337,1357,1378,1396,1417,1437,1456,1476,1497,1517,1536,1556,1577],"xSR":741.5,"ySR":573.95,"xT1":424.9,"yT1":0,"xT2":1058.1,"yT2":0,"toosoon":0,"cond_shown":"equaldotanddens","ratio_trial":900,"smaller_num":"18","larger_num":"20","correct_side":2,"subjID":"SamuelArturoArizaRamos13","gender":"0","age":"11","school":"6"},{"start_time":1551887538211,"click_time":1551887539217,"finger_time":1551887538856,"fix_duration":532.1165417217803,"trial":10,"RT":645,"MT":361,"sideResp":1,"stimulus":"img/750/equaldotanddens/L/6_Ratio_750_L_24_R_18.png","xmouse":[791,791,791,791,791,792,792,792,792,792,792,792,792,792,792,792,792,792,792,792,792,792,792,792,792,792,792,792,792,792,792,792,787,781,768,753,713,686,657,602,564,511,497,493,492,492,486,476,463,448,443],"ymouse":[606,606,606,606,604,602,600,599,599,599,599,599,599,599,599,599,599,599,599,599,599,599,599,599,599,598,595,594,591,589,586,577,569,560,543,528,486,463,438,394,354,296,275,255,240,219,165,144,122,106,88],"timestamp_mouse":[8,37,45,66,86,107,125,146,165,187,207,225,246,266,285,305,326,346,365,385,406,426,445,465,486,505,525,546,565,587,605,626,645,667,686,706,725,745,766,787,806,825,845,866,886,906,925,947,965,986,1006],"xSR":741.5,"ySR":573.95,"xT1":424.9,"yT1":0,"xT2":1058.1,"yT2":0,"toosoon":0,"cond_shown":"equaldotanddens","ratio_trial":750,"smaller_num":"18","larger_num":"24","correct_side":1,"subjID":"SamuelArturoArizaRamos13","gender":"0","age":"11","school":"6"},{"start_time":1551887541047,"click_time":1551887542198,"finger_time":1551887541518,"fix_duration":708.465755081066,"trial":11,"RT":471,"MT":680,"sideResp":1,"stimulus":"img/500/equaldotsize/L/13_Ratio_500_L_12_R_6.png","xmouse":[800,800,800,798,798,798,798,798,798,798,798,798,798,798,798,798,798,798,798,798,797,793,790,777,768,752,728,698,646,582,560,544,533,520,484,465,452,441,434,426,422,419,414,409,403,403,403,403,403,405,406,410,415,417,422,422,424,426],"ymouse":[589,589,589,589,589,589,589,589,589,589,589,589,590,590,590,590,590,590,590,590,590,585,580,565,558,547,531,508,469,422,404,391,377,358,312,288,266,252,235,217,208,198,187,174,151,141,132,124,107,100,92,86,80,77,74,73,72,71],"timestamp_mouse":[10,30,49,69,89,111,130,151,169,190,211,231,250,270,290,310,330,351,369,389,411,430,450,471,490,510,529,549,570,591,610,631,650,669,689,709,729,749,769,790,810,829,849,869,889,911,930,949,971,990,1010,1030,1049,1069,1089,1110,1130,1151],"xSR":741.5,"ySR":573.95,"xT1":424.9,"yT1":0,"xT2":1058.1,"yT2":0,"toosoon":0,"cond_shown":"equaldotsize","ratio_trial":500,"smaller_num":"6","larger_num":"12","correct_side":1,"subjID":"SamuelArturoArizaRamos13","gender":"0","age":"11","school":"6"},{"start_time":1551887544048,"click_time":1551887544718,"finger_time":1551887544536,"fix_duration":749.9340831551339,"trial":12,"RT":488,"MT":182,"sideResp":2,"stimulus":"img/250/equaldotsize/R/6_Ratio_250_L_6_R_24.png","xmouse":[801,801,801,801,801,801,801,801,801,801,801,801,801,801,801,801,801,801,801,801,802,803,809,821,861,881,901,935,961,1009,1026,1050,1071,1110],"ymouse":[634,634,634,634,634,634,634,634,634,634,634,634,634,634,634,634,634,634,634,634,634,628,613,582,494,447,405,351,316,250,216,176,139,71],"timestamp_mouse":[10,31,48,69,89,108,129,150,168,189,209,230,248,270,289,309,329,348,370,389,408,429,449,469,488,509,529,550,569,588,609,628,649,670],"xSR":741.5,"ySR":573.95,"xT1":424.9,"yT1":0,"xT2":1058.1,"yT2":0,"toosoon":0,"cond_shown":"equaldotsize","ratio_trial":250,"smaller_num":"6","larger_num":"24","correct_side":2,"subjID":"SamuelArturoArizaRamos13","gender":"0","age":"11","school":"6"},{"start_time":1551887546716,"click_time":1551887547697,"finger_time":1551887547456,"fix_duration":1017.8658962053272,"trial":13,"RT":740,"MT":241,"sideResp":1,"stimulus":"img/750/equaldotsize/L/8_Ratio_750_L_4_R_3.png","xmouse":[823,820,814,813,808,805,803,802,801,800,800,799,797,795,794,792,784,778,774,770,768,763,762,762,762,762,762,762,762,762,762,762,762,762,762,762,758,752,743,729,710,665,636,603,574,513,504,502,505,507],"ymouse":[638,636,633,633,631,630,629,628,626,626,626,625,624,623,621,619,608,602,596,593,590,587,587,587,587,587,587,587,587,587,587,587,587,587,587,586,581,570,554,530,498,432,390,343,299,200,167,142,117,95],"timestamp_mouse":[1,30,41,61,80,101,121,140,160,181,202,220,241,261,280,300,320,340,360,380,401,422,442,461,480,501,520,540,561,581,601,622,642,660,682,700,721,740,761,781,802,820,841,860,882,902,920,940,961,981],"xSR":741.5,"ySR":573.95,"xT1":424.9,"yT1":0,"xT2":1058.1,"yT2":0,"toosoon":0,"cond_shown":"equaldotsize","ratio_trial":750,"smaller_num":"3","larger_num":"4","correct_side":1,"subjID":"SamuelArturoArizaRamos13","gender":"0","age":"11","school":"6"},{"start_time":1551887549935,"click_time":1551887551318,"finger_time":1551887550497,"fix_duration":1337.6366277237948,"trial":14,"RT":562,"MT":821,"sideResp":1,"stimulus":"img/500/randomdotsizeEA/R/15_Ratio_500_L_1_R_2.png","xmouse":[781,781,781,781,781,781,781,781,781,781,785,787,790,790,790,790,790,790,790,790,790,791,792,794,799,809,816,825,837,848,858,859,859,859,859,859,858,856,853,853,850,846,837,807,774,674,606,534,471,434,388,375,357,354,341,334,333,333,333,333,337,340,347,360,372,396,405,413,419,430],"ymouse":[633,633,633,633,633,633,633,633,633,632,628,626,624,624,624,624,624,624,624,624,624,622,621,619,613,598,589,575,561,547,533,532,532,532,532,534,535,538,538,538,538,535,525,498,465,370,319,267,218,187,138,119,95,91,75,64,62,58,55,52,48,45,42,39,39,38,38,38,38,38],"timestamp_mouse":[9,27,43,62,82,101,121,142,162,182,201,221,241,262,283,302,322,343,362,381,402,422,442,462,482,502,521,543,562,583,601,622,641,662,683,703,722,743,763,782,801,822,842,861,882,901,922,941,962,982,1001,1023,1041,1062,1082,1102,1122,1143,1162,1182,1201,1223,1242,1263,1283,1302,1322,1343,1362,1383],"xSR":741.5,"ySR":573.95,"xT1":424.9,"yT1":0,"xT2":1058.1,"yT2":0,"toosoon":0,"cond_shown":"randomdotsizeEA","ratio_trial":500,"smaller_num":"1","larger_num":"2","correct_side":2,"subjID":"SamuelArturoArizaRamos13","gender":"0","age":"11","school":"6"},{"start_time":1551887554488,"click_time":1551887556176,"finger_time":1551887555777,"fix_duration":250,"trial":15,"RT":1289,"MT":399,"sideResp":2,"stimulus":"img/500/randomdotsizeEA/R/9_Ratio_500_L_2_R_4.png","xmouse":[779,779,779,779,779,779,779,779,779,779,779,779,779,779,779,779,779,779,779,779,779,779,779,779,779,779,779,779,779,779,779,779,779,779,779,779,779,779,779,779,779,779,779,779,779,779,779,779,779,779,779,779,779,779,779,779,779,779,779,779,779,779,792,806,828,857,908,986,1018,1035,1045,1046,1053,1056,1058,1060,1060,1058,1057,1057,1057,1057,1058,1061,1063],"ymouse":[648,648,648,648,648,648,648,648,648,648,648,648,648,648,648,648,648,648,648,648,648,648,648,648,648,648,648,648,648,648,648,648,648,648,648,648,648,648,648,648,648,648,648,648,648,648,648,648,648,648,648,648,648,648,648,648,648,648,648,648,648,647,624,595,561,519,426,298,244,205,181,169,154,149,146,144,138,127,124,121,118,117,111,104,99],"timestamp_mouse":[10,29,48,70,90,108,130,150,168,190,210,228,250,270,288,309,329,349,370,389,409,429,448,469,489,508,530,549,568,588,610,629,648,668,690,708,729,749,768,788,810,828,849,868,888,910,929,948,969,990,1009,1030,1048,1069,1090,1109,1129,1149,1169,1188,1208,1229,1248,1268,1289,1309,1328,1349,1368,1390,1409,1428,1448,1469,1489,1508,1528,1549,1568,1589,1608,1628,1648,1668,1688],"xSR":741.5,"ySR":573.95,"xT1":424.9,"yT1":0,"xT2":1058.1,"yT2":0,"toosoon":0,"cond_shown":"randomdotsizeEA","ratio_trial":500,"smaller_num":"2","larger_num":"4","correct_side":2,"subjID":"SamuelArturoArizaRamos13","gender":"0","age":"11","school":"6"},{"start_time":1551887557721,"click_time":1551887559017,"finger_time":1551887558497,"fix_duration":701.9929500099486,"trial":16,"RT":776,"MT":520,"sideResp":1,"stimulus":"img/250/equaldotanddens/L/7_Ratio_250_L_8_R_2.png","xmouse":[800,800,800,800,800,800,800,800,800,800,800,799,799,798,797,797,797,797,797,797,797,797,797,797,797,797,797,797,797,797,797,796,796,796,796,790,778,758,725,679,562,523,489,466,462,437,430,427,424,423,418,418,418,418,418,418,420,421,423,423,423,423,423,424,426],"ymouse":[637,637,637,637,637,637,637,637,637,637,637,637,638,638,638,639,639,639,639,639,639,639,639,639,639,639,639,639,639,639,639,640,642,642,642,640,630,608,573,522,378,327,286,238,215,158,142,137,130,123,102,87,71,57,37,17,11,7,5,4,4,4,4,4,6],"timestamp_mouse":[17,35,56,77,96,115,136,156,176,197,217,235,255,276,295,315,337,355,376,396,415,437,455,477,496,515,537,556,576,597,615,637,655,676,696,716,735,757,776,795,815,836,856,876,896,916,936,955,975,996,1016,1036,1055,1075,1096,1116,1135,1157,1176,1197,1216,1235,1255,1276,1295],"xSR":741.5,"ySR":573.95,"xT1":424.9,"yT1":0,"xT2":1058.1,"yT2":0,"toosoon":0,"cond_shown":"equaldotanddens","ratio_trial":250,"smaller_num":"2","larger_num":"8","correct_side":1,"subjID":"SamuelArturoArizaRamos13","gender":"0","age":"11","school":"6"},{"start_time":1551887559928,"click_time":1551887560918,"finger_time":1551887560637,"fix_duration":250,"trial":17,"RT":709,"MT":281,"sideResp":1,"stimulus":"img/500/equaldotsize/L/8_Ratio_500_L_8_R_4.png","xmouse":[794,794,794,794,794,794,794,794,794,794,794,794,794,794,794,794,794,794,794,794,794,794,794,794,794,794,794,794,794,794,794,793,785,777,764,714,675,640,606,573,517,501,486,481,479,479,480,485,489,494],"ymouse":[633,633,633,633,633,633,633,633,632,632,632,632,632,632,632,632,632,632,632,632,632,632,633,633,633,633,633,633,633,633,633,633,621,607,588,517,453,399,356,318,254,232,213,200,177,150,135,120,109,95],"timestamp_mouse":[9,33,48,70,89,109,130,148,168,189,209,228,248,269,288,310,329,349,370,389,410,430,449,469,488,508,528,548,570,588,608,630,648,670,689,709,728,749,769,788,808,829,849,869,889,908,928,950,969,990],"xSR":741.5,"ySR":573.95,"xT1":424.9,"yT1":0,"xT2":1058.1,"yT2":0,"toosoon":0,"cond_shown":"equaldotsize","ratio_trial":500,"smaller_num":"4","larger_num":"8","correct_side":1,"subjID":"SamuelArturoArizaRamos13","gender":"0","age":"11","school":"6"},{"start_time":1551887562027,"click_time":1551887563017,"finger_time":1551887562677,"fix_duration":250,"trial":18,"RT":650,"MT":340,"sideResp":1,"stimulus":"img/500/equaldotanddens/L/13_Ratio_500_L_12_R_6.png","xmouse":[828,828,828,827,825,823,823,821,821,821,821,820,820,820,819,819,818,818,818,818,818,818,818,818,818,818,818,818,817,814,783,744,686,619,547,430,397,379,371,371,371,371,371,371,374,390,398,407,415,440],"ymouse":[619,619,620,620,624,626,627,628,630,630,630,630,631,631,632,632,633,633,633,633,633,633,633,633,633,633,633,633,633,631,606,584,549,502,450,358,325,296,257,246,204,193,182,170,158,128,115,101,90,58],"timestamp_mouse":[15,35,50,71,90,109,130,149,170,191,210,229,250,270,290,309,330,349,369,390,410,429,450,469,490,511,530,550,570,590,610,629,650,670,690,709,731,750,769,790,810,829,850,870,889,909,930,950,970,990],"xSR":741.5,"ySR":573.95,"xT1":424.9,"yT1":0,"xT2":1058.1,"yT2":0,"toosoon":0,"cond_shown":"equaldotanddens","ratio_trial":500,"smaller_num":"6","larger_num":"12","correct_side":1,"subjID":"SamuelArturoArizaRamos13","gender":"0","age":"11","school":"6"},{"start_time":1551887564264,"click_time":1551887565217,"finger_time":1551887564776,"fix_duration":407.18604580239037,"trial":19,"RT":512,"MT":441,"sideResp":1,"stimulus":"img/250/equaldotanddens/L/7_Ratio_250_L_8_R_2.png","xmouse":[811,811,811,811,811,811,811,811,811,811,811,811,811,811,811,811,811,811,811,811,811,811,809,789,767,739,678,655,553,515,489,477,470,470,467,462,460,458,458,461,463,466,469,473,473,475,475,475],"ymouse":[633,633,633,633,633,633,633,633,633,633,633,633,633,633,633,633,633,633,633,633,633,631,628,602,582,552,498,477,373,335,300,279,244,232,220,211,204,191,187,182,175,168,157,134,124,112,104,94],"timestamp_mouse":[13,34,54,72,93,113,132,152,174,192,213,233,253,273,292,312,334,352,372,394,413,432,452,472,494,512,532,553,574,592,612,632,653,672,694,713,733,753,772,793,813,832,852,872,894,913,934,953],"xSR":741.5,"ySR":573.95,"xT1":424.9,"yT1":0,"xT2":1058.1,"yT2":0,"toosoon":0,"cond_shown":"equaldotanddens","ratio_trial":250,"smaller_num":"2","larger_num":"8","correct_side":1,"subjID":"SamuelArturoArizaRamos13","gender":"0","age":"11","school":"6"},{"start_time":1551887567144,"click_time":1551887567977,"finger_time":1551887567736,"fix_duration":1105.2349747274507,"trial":20,"RT":592,"MT":241,"sideResp":2,"stimulus":"img/500/equaldotsize/R/15_Ratio_500_L_1_R_2.png","xmouse":[779,779,779,779,779,779,779,779,779,779,779,779,779,779,779,779,779,779,779,779,779,779,779,779,779,779,779,779,780,802,819,840,867,897,911,924,938,953,1000,1027,1052,1069],"ymouse":[618,618,618,618,618,618,618,618,618,618,618,618,618,618,618,618,618,618,618,618,618,618,618,618,618,618,617,615,604,555,526,494,445,383,354,323,289,250,161,122,89,60],"timestamp_mouse":[15,33,53,74,92,114,133,153,172,194,212,232,252,272,294,313,333,354,372,392,413,433,452,474,492,513,532,553,572,592,614,633,653,673,693,713,732,752,773,792,814,833],"xSR":741.5,"ySR":573.95,"xT1":424.9,"yT1":0,"xT2":1058.1,"yT2":0,"toosoon":0,"cond_shown":"equaldotsize","ratio_trial":500,"smaller_num":"1","larger_num":"2","correct_side":2,"subjID":"SamuelArturoArizaRamos13","gender":"0","age":"11","school":"6"},{"start_time":1551887569005,"click_time":1551887570218,"finger_time":1551887569637,"fix_duration":287.23544930579914,"trial":21,"RT":632,"MT":581,"sideResp":1,"stimulus":"img/900/equaldotsize/R/13_Ratio_900_L_18_R_20.png","xmouse":[784,783,782,782,782,782,782,782,782,782,782,782,782,782,782,782,782,782,782,782,782,785,793,799,803,806,811,811,812,817,823,843,853,863,867,870,870,871,872,873,874,877,879,887,893,901,909,911,911,911,911,911,906,898,882,860,790,744,634,561,446],"ymouse":[649,649,647,646,646,646,646,646,646,646,646,646,646,646,646,646,646,646,646,645,634,627,616,609,603,599,595,594,591,586,579,553,539,528,521,518,517,517,517,517,516,510,503,494,485,476,463,462,461,461,461,461,462,462,455,437,371,325,211,138,28],"timestamp_mouse":[12,32,52,71,91,112,131,151,172,192,211,233,251,271,291,313,332,352,371,393,413,431,451,472,492,513,533,552,572,592,612,632,651,673,692,711,731,751,771,792,812,831,852,872,892,911,932,953,972,992,1013,1032,1052,1071,1091,1112,1131,1151,1172,1192,1213],"xSR":741.5,"ySR":573.95,"xT1":424.9,"yT1":0,"xT2":1058.1,"yT2":0,"toosoon":0,"cond_shown":"equaldotsize","ratio_trial":900,"smaller_num":"18","larger_num":"20","correct_side":2,"subjID":"SamuelArturoArizaRamos13","gender":"0","age":"11","school":"6"},{"start_time":1551887571849,"click_time":1551887574117,"finger_time":1551887573158,"fix_duration":250,"trial":22,"RT":1309,"MT":959,"sideResp":2,"stimulus":"img/900/randomdotsizeEA/L/8_Ratio_900_L_20_R_18.png","xmouse":[765,765,765,765,765,765,765,765,765,765,765,765,765,765,765,765,765,765,765,765,765,765,765,765,765,765,765,765,765,765,765,765,765,765,765,765,765,765,765,765,765,765,765,765,765,765,765,765,765,765,765,765,765,765,765,765,765,765,765,765,765,767,767,773,807,840,928,971,1102,1233,1292,1300,1303,1306,1309,1308,1310,1308,1308,1304,1295,1281,1270,1259,1236,1227,1213,1206,1202,1202,1201,1199,1197,1196,1195,1194,1193,1191,1189,1179,1175,1175,1174,1173,1169,1168,1168,1167,1165,1165,1165,1164,1160,1155],"ymouse":[642,642,642,642,642,642,642,642,642,642,642,642,642,642,642,642,642,642,643,643,644,645,646,647,651,652,655,656,656,656,656,658,659,660,661,661,661,661,661,661,661,661,661,661,661,661,661,661,661,661,661,661,661,661,661,661,661,661,661,661,661,661,660,651,606,566,466,401,201,20,0,0,0,0,2,0,2,0,0,0,0,7,17,25,41,50,63,68,71,71,71,72,73,73,74,74,74,74,74,74,74,74,74,73,72,72,72,72,72,72,72,71,69,68],"timestamp_mouse":[14,34,47,67,88,108,129,148,168,188,208,228,248,268,288,309,327,347,368,387,409,427,448,468,487,507,527,547,569,588,607,628,647,667,688,707,729,747,768,788,809,827,848,868,889,907,927,948,968,989,1008,1027,1047,1068,1088,1109,1127,1148,1168,1188,1207,1228,1248,1269,1287,1309,1327,1348,1368,1387,1407,1428,1448,1467,1487,1507,1528,1549,1568,1587,1608,1628,1647,1668,1687,1708,1727,1748,1768,1789,1808,1828,1849,1867,1887,1907,1928,1948,1968,1989,2007,2028,2048,2068,2087,2108,2128,2148,2169,2187,2207,2228,2247,2268],"xSR":741.5,"ySR":573.95,"xT1":424.9,"yT1":0,"xT2":1058.1,"yT2":0,"toosoon":0,"cond_shown":"randomdotsizeEA","ratio_trial":900,"smaller_num":"18","larger_num":"20","correct_side":1,"subjID":"SamuelArturoArizaRamos13","gender":"0","age":"11","school":"6"},{"start_time":1551887575784,"click_time":1551887577277,"finger_time":1551887576777,"fix_duration":825.736574815323,"trial":23,"RT":993,"MT":500,"sideResp":2,"stimulus":"img/750/equaldotsize/R/15_Ratio_750_L_9_R_12.png","xmouse":[787,787,787,787,787,787,787,787,787,787,787,787,787,787,787,787,787,787,787,787,787,787,787,787,787,787,787,787,787,787,787,787,787,787,787,787,787,787,787,787,787,787,787,787,787,787,786,784,795,804,842,947,1065,1085,1085,1070,1058,1053,1053,1055,1055,1055,1053,1052,1052,1052,1052,1052,1052,1052,1052,1052,1053,1057,1060],"ymouse":[640,640,640,640,640,640,640,640,640,640,640,640,640,640,640,640,640,640,640,640,640,640,640,640,639,639,638,637,637,637,637,637,637,637,637,637,637,637,637,637,637,637,637,637,637,636,635,623,592,570,511,367,211,164,129,108,93,79,76,71,67,64,56,54,53,53,53,53,52,50,50,50,50,52,63],"timestamp_mouse":[13,34,53,73,93,112,134,153,174,192,213,232,253,274,293,312,334,352,374,393,413,432,454,474,493,512,534,554,572,593,613,634,653,673,694,712,734,753,774,792,813,834,853,873,893,912,934,952,973,993,1014,1033,1054,1072,1093,1113,1133,1153,1173,1192,1212,1232,1253,1272,1292,1313,1333,1352,1384,1394,1414,1433,1453,1472,1493],"xSR":741.5,"ySR":573.95,"xT1":424.9,"yT1":0,"xT2":1058.1,"yT2":0,"toosoon":0,"cond_shown":"equaldotsize","ratio_trial":750,"smaller_num":"9","larger_num":"12","correct_side":2,"subjID":"SamuelArturoArizaRamos13","gender":"0","age":"11","school":"6"},{"start_time":1551887579555,"click_time":1551887581336,"finger_time":1551887580877,"fix_duration":1298.3340831156324,"trial":24,"RT":1322,"MT":459,"sideResp":1,"stimulus":"img/750/randomdotsizeEA/R/7_Ratio_750_L_3_R_4.png","xmouse":[816,816,816,816,816,816,816,816,816,816,816,816,816,816,816,816,816,816,816,816,816,816,816,816,816,816,816,816,816,816,816,816,816,816,816,816,816,816,816,816,816,816,816,816,816,816,816,816,816,816,816,816,816,816,816,816,816,816,816,816,815,814,811,808,801,797,791,780,730,686,630,561,467,421,385,380,379,378,378,378,378,378,378,379,386,391,398,404,410,429],"ymouse":[612,612,612,612,612,612,612,612,612,612,612,612,612,612,612,612,612,612,612,612,612,612,610,610,610,609,609,609,609,609,609,609,609,609,609,609,609,609,609,609,609,609,609,609,609,609,609,609,609,609,609,609,609,609,609,609,609,609,609,609,607,606,600,594,586,580,573,554,487,427,354,269,150,99,51,42,38,34,32,30,29,29,29,29,34,39,43,49,53,60],"timestamp_mouse":[11,32,41,63,82,102,121,142,161,182,202,221,242,263,282,302,322,341,362,381,402,422,443,461,482,503,522,541,561,582,602,623,641,662,682,703,721,743,761,782,801,821,843,861,883,903,922,942,961,982,1001,1021,1042,1062,1081,1102,1121,1141,1162,1181,1202,1222,1241,1261,1282,1301,1322,1341,1363,1381,1402,1421,1441,1461,1483,1501,1521,1543,1563,1581,1601,1622,1642,1661,1683,1701,1721,1741,1763,1781],"xSR":741.5,"ySR":573.95,"xT1":424.9,"yT1":0,"xT2":1058.1,"yT2":0,"toosoon":0,"cond_shown":"randomdotsizeEA","ratio_trial":750,"smaller_num":"3","larger_num":"4","correct_side":2,"subjID":"SamuelArturoArizaRamos13","gender":"0","age":"11","school":"6"},{"start_time":1551887586599,"click_time":1551887587677,"finger_time":1551887587196,"fix_duration":1341.8014862739697,"trial":25,"RT":597,"MT":481,"sideResp":2,"stimulus":"img/750/equaldotsize/L/14_Ratio_750_L_8_R_6.png","xmouse":[803,803,803,803,803,803,803,803,803,803,803,803,803,803,803,803,803,803,803,803,803,803,803,803,803,803,803,803,801,796,790,783,783,788,795,802,814,823,834,858,868,877,878,879,880,885,906,920,948,969,995,1053,1078,1091],"ymouse":[603,603,603,603,603,603,603,603,603,603,603,603,603,603,603,603,603,603,603,603,603,603,603,603,603,603,603,602,600,573,548,511,499,484,469,458,427,408,387,356,342,331,330,329,326,322,306,294,265,235,201,136,111,98],"timestamp_mouse":[18,39,58,77,98,119,137,157,177,199,219,237,257,279,297,317,339,357,377,397,418,437,457,479,498,518,537,559,578,597,617,638,658,677,698,718,737,758,778,799,818,838,857,879,898,917,937,958,978,999,1017,1038,1057,1078],"xSR":741.5,"ySR":573.95,"xT1":424.9,"yT1":0,"xT2":1058.1,"yT2":0,"toosoon":0,"cond_shown":"equaldotsize","ratio_trial":750,"smaller_num":"6","larger_num":"8","correct_side":1,"subjID":"SamuelArturoArizaRamos13","gender":"0","age":"11","school":"6"},{"start_time":1551887591085,"click_time":1551887592637,"finger_time":1551887592176,"fix_duration":886.1224858892242,"trial":26,"RT":1091,"MT":461,"sideResp":1,"stimulus":"img/900/randomdotsizeEA/L/10_Ratio_900_L_20_R_18.png","xmouse":[780,780,780,780,780,780,780,780,780,780,780,780,780,780,779,776,774,771,770,768,768,768,768,768,768,768,768,768,768,768,768,768,768,768,768,768,768,768,768,768,768,768,768,768,768,768,768,768,768,768,767,766,755,743,719,686,627,541,501,466,439,418,413,413,415,418,420,423,424,427,431,436,442,444,447,449,451,454],"ymouse":[638,638,638,638,638,638,638,638,638,638,638,638,638,638,638,638,638,638,637,637,637,637,637,637,637,637,637,637,637,637,637,637,637,637,637,637,637,637,637,637,637,637,637,637,637,637,637,637,637,637,633,631,608,584,552,509,446,376,345,319,298,280,261,252,242,221,204,182,171,162,153,145,129,120,114,109,101,95],"timestamp_mouse":[11,38,52,71,92,111,132,151,171,191,211,232,251,273,291,311,331,352,371,392,411,432,451,471,491,512,531,552,573,593,613,631,651,673,692,711,731,751,771,792,813,833,852,873,892,912,932,953,971,992,1011,1032,1051,1072,1091,1111,1132,1152,1171,1191,1212,1232,1251,1271,1293,1312,1332,1353,1372,1393,1412,1431,1451,1472,1492,1512,1532,1552],"xSR":741.5,"ySR":573.95,"xT1":424.9,"yT1":0,"xT2":1058.1,"yT2":0,"toosoon":0,"cond_shown":"randomdotsizeEA","ratio_trial":900,"smaller_num":"18","larger_num":"20","correct_side":1,"subjID":"SamuelArturoArizaRamos13","gender":"0","age":"11","school":"6"},{"start_time":1551887595327,"click_time":1551887596797,"finger_time":1551887596297,"fix_duration":250,"trial":27,"RT":970,"MT":500,"sideResp":2,"stimulus":"img/750/randomdotsizeEA/R/15_Ratio_750_L_9_R_12.png","xmouse":[778,778,778,778,778,778,778,778,778,778,778,778,778,778,778,778,778,778,778,778,778,778,778,778,778,778,778,778,778,778,778,778,778,778,777,777,777,777,777,777,777,777,777,777,777,779,783,792,804,820,859,874,882,882,879,882,899,919,937,951,959,960,963,969,982,1006,1010,1012,1014,1017,1028,1036,1045,1059],"ymouse":[638,638,638,638,638,638,638,638,638,638,638,638,638,638,638,638,638,638,638,638,638,638,638,638,638,638,638,638,638,638,638,635,634,633,633,633,633,633,633,633,633,633,633,633,632,622,612,593,570,543,475,441,405,376,335,285,256,232,207,186,160,152,143,137,130,119,116,114,110,108,101,98,94,85],"timestamp_mouse":[11,35,50,69,90,110,130,150,169,190,210,230,249,269,290,309,329,351,369,389,411,429,451,469,489,509,529,549,570,589,611,629,649,670,689,710,731,751,769,791,809,829,849,870,889,910,929,950,970,990,1010,1030,1050,1071,1090,1110,1129,1150,1170,1190,1209,1229,1249,1269,1289,1309,1329,1349,1369,1389,1410,1429,1450,1470],"xSR":741.5,"ySR":573.95,"xT1":424.9,"yT1":0,"xT2":1058.1,"yT2":0,"toosoon":0,"cond_shown":"randomdotsizeEA","ratio_trial":750,"smaller_num":"9","larger_num":"12","correct_side":2,"subjID":"SamuelArturoArizaRamos13","gender":"0","age":"11","school":"6"},{"start_time":1551887600235,"click_time":1551887601297,"finger_time":1551887600936,"fix_duration":1097.194076088686,"trial":28,"RT":701,"MT":361,"sideResp":1,"stimulus":"img/250/equaldotsize/L/14_Ratio_250_L_12_R_3.png","xmouse":[791,791,791,791,791,791,791,791,791,791,791,791,791,791,791,791,791,791,791,791,791,791,791,791,791,791,791,791,791,789,787,783,779,770,742,718,693,664,637,608,584,572,561,553,543,521,511,505,498,477,467,456,449,443],"ymouse":[634,634,634,634,634,634,634,634,634,634,634,634,634,634,634,634,634,634,634,634,634,634,634,634,634,634,634,634,633,630,628,623,617,611,590,572,552,531,506,467,409,383,355,324,296,244,218,196,178,139,125,111,102,95],"timestamp_mouse":[11,22,42,62,83,101,121,142,163,181,201,222,241,262,281,302,322,343,361,383,401,422,442,462,483,502,521,542,562,582,603,621,643,662,683,701,722,741,762,782,802,821,842,862,881,901,923,941,961,983,1001,1022,1041,1062],"xSR":741.5,"ySR":573.95,"xT1":424.9,"yT1":0,"xT2":1058.1,"yT2":0,"toosoon":0,"cond_shown":"equaldotsize","ratio_trial":250,"smaller_num":"3","larger_num":"12","correct_side":1,"subjID":"SamuelArturoArizaRamos13","gender":"0","age":"11","school":"6"},{"start_time":1551887603020,"click_time":1551887603957,"finger_time":1551887603656,"fix_duration":922.8600775644626,"trial":29,"RT":636,"MT":301,"sideResp":2,"stimulus":"img/500/equaldotanddens/R/9_Ratio_500_L_2_R_4.png","xmouse":[817,817,816,814,812,812,812,812,812,812,810,808,808,807,807,807,807,807,807,807,807,807,807,807,807,807,807,807,807,807,811,821,828,835,844,864,881,894,911,933,1003,1036,1068,1100,1119,1146,1150],"ymouse":[632,632,631,630,630,630,630,630,630,630,629,628,628,628,628,628,628,628,628,628,628,628,628,628,628,628,628,626,623,617,585,566,551,533,517,465,431,392,353,311,219,189,163,140,125,100,93],"timestamp_mouse":[16,36,57,77,97,116,136,157,176,196,217,237,257,278,296,317,338,356,378,397,416,437,457,477,497,516,538,556,576,596,617,636,656,677,697,716,736,756,778,797,817,836,857,876,896,916,937],"xSR":741.5,"ySR":573.95,"xT1":424.9,"yT1":0,"xT2":1058.1,"yT2":0,"toosoon":0,"cond_shown":"equaldotanddens","ratio_trial":500,"smaller_num":"2","larger_num":"4","correct_side":2,"subjID":"SamuelArturoArizaRamos13","gender":"0","age":"11","school":"6"},{"start_time":1551887606348,"click_time":1551887608517,"finger_time":1551887607036,"fix_duration":250,"trial":30,"RT":688,"MT":1481,"sideResp":2,"stimulus":"img/250/equaldotsize/R/12_Ratio_250_L_5_R_20.png","xmouse":[781,781,781,781,781,781,781,781,781,781,781,781,781,781,781,781,781,781,781,781,781,781,781,781,781,781,781,781,781,781,786,792,804,825,849,856,863,871,895,913,934,955,980,1029,1040,1050,1057,1064,1066,1066,1066,1066,1066,1066,1066,1066,1066,1066,1066,1066,1066,1066,1066,1066,1066,1066,1066,1066,1066,1066,1066,1066,1066,1066,1066,1066,1066,1060,1041,1041,1041,1041,1041,1041,1041,1041,1041,1041,1041,1041,1041,1041,1041,1041,1041,1041,1041,1041,1041,1041,1041,1042,1045,1065,1073,1081,1089,1100,1121],"ymouse":[654,654,654,654,654,654,654,654,654,654,654,654,654,654,654,654,654,654,654,654,654,654,654,654,654,654,654,654,653,647,640,631,615,586,554,535,517,499,450,423,396,367,342,281,257,236,216,200,193,193,193,193,193,193,193,193,193,193,193,193,193,193,193,193,193,193,193,193,193,193,193,193,193,193,193,193,193,193,201,201,201,201,201,201,201,201,201,201,201,201,201,201,201,201,201,201,201,201,201,201,199,197,193,160,148,137,126,107,68],"timestamp_mouse":[10,30,48,68,89,109,128,149,168,189,209,229,249,269,288,308,329,348,368,388,409,430,448,470,489,509,528,549,569,588,609,629,648,669,688,708,728,748,769,788,808,829,849,869,888,908,929,949,969,988,1008,1029,1048,1068,1088,1108,1130,1149,1169,1188,1210,1229,1249,1268,1289,1309,1329,1349,1370,1388,1408,1429,1449,1468,1489,1509,1530,1549,1569,1588,1609,1629,1649,1668,1689,1709,1728,1748,1768,1789,1809,1829,1848,1869,1888,1908,1930,1949,1969,1988,2009,2028,2050,2069,2088,2108,2128,2149,2169],"xSR":741.5,"ySR":573.95,"xT1":424.9,"yT1":0,"xT2":1058.1,"yT2":0,"toosoon":0,"cond_shown":"equaldotsize","ratio_trial":250,"smaller_num":"5","larger_num":"20","correct_side":2,"subjID":"SamuelArturoArizaRamos13","gender":"0","age":"11","school":"6"},{"start_time":1551887610752,"click_time":1551887612077,"finger_time":1551887611736,"fix_duration":1035.7897969071137,"trial":31,"RT":984,"MT":341,"sideResp":2,"stimulus":"img/750/randomdotsizeEA/L/14_Ratio_750_L_8_R_6.png","xmouse":[782,782,782,782,782,782,782,782,782,782,782,782,782,782,782,782,783,783,783,783,783,783,783,783,783,783,783,783,783,783,783,783,783,783,783,783,783,783,783,783,783,783,783,783,783,783,783,783,787,813,833,855,896,928,986,1009,1032,1055,1071,1094,1105,1111,1117,1123,1135,1140,1144],"ymouse":[622,622,622,622,622,622,622,622,622,622,622,622,622,621,617,617,617,617,617,617,616,616,616,616,616,616,616,616,616,616,616,616,615,614,614,614,613,613,613,613,613,613,613,613,613,613,610,609,604,571,544,512,458,412,335,302,273,246,224,194,180,169,160,141,115,102,92],"timestamp_mouse":[10,28,46,66,84,104,124,146,166,184,204,226,244,265,286,306,326,345,365,384,405,424,446,464,485,506,524,545,564,586,604,624,645,665,684,704,725,744,765,785,804,824,845,865,886,904,925,945,966,984,1005,1025,1045,1064,1086,1104,1124,1145,1165,1184,1204,1225,1245,1265,1286,1305,1325],"xSR":741.5,"ySR":573.95,"xT1":424.9,"yT1":0,"xT2":1058.1,"yT2":0,"toosoon":0,"cond_shown":"randomdotsizeEA","ratio_trial":750,"smaller_num":"6","larger_num":"8","correct_side":1,"subjID":"SamuelArturoArizaRamos13","gender":"0","age":"11","school":"6"},{"start_time":1551887614542,"click_time":1551887615897,"finger_time":1551887615456,"fix_duration":1465.130079975058,"trial":32,"RT":914,"MT":441,"sideResp":2,"stimulus":"img/500/randomdotsizeEA/R/15_Ratio_500_L_1_R_2.png","xmouse":[783,783,783,783,783,783,783,783,783,783,783,783,783,783,783,783,783,783,779,774,771,771,771,771,771,771,771,771,771,771,771,771,771,771,771,771,771,771,770,767,765,765,765,765,765,765,770,786,812,909,1018,1059,1141,1162,1166,1166,1166,1171,1188,1194,1197,1197,1197,1197,1189,1182,1168,1155],"ymouse":[613,613,613,613,613,613,613,613,613,613,613,613,613,613,613,613,613,613,609,603,599,598,598,598,598,598,598,598,598,598,598,598,598,598,598,598,598,598,595,586,582,580,580,579,575,572,561,537,502,379,270,232,152,128,102,94,85,76,52,39,32,27,27,26,28,32,45,61],"timestamp_mouse":[15,35,55,74,96,114,135,155,176,194,215,235,255,275,294,314,335,354,374,394,415,435,454,474,495,515,535,554,575,596,614,635,654,676,695,714,734,754,775,794,815,834,856,874,894,914,934,955,974,994,1015,1035,1054,1074,1096,1115,1135,1154,1176,1195,1214,1234,1256,1274,1295,1314,1334,1355],"xSR":741.5,"ySR":573.95,"xT1":424.9,"yT1":0,"xT2":1058.1,"yT2":0,"toosoon":0,"cond_shown":"randomdotsizeEA","ratio_trial":500,"smaller_num":"1","larger_num":"2","correct_side":2,"subjID":"SamuelArturoArizaRamos13","gender":"0","age":"11","school":"6"},{"start_time":1551887617740,"click_time":1551887619438,"finger_time":1551887618597,"fix_duration":822.8433923625495,"trial":33,"RT":857,"MT":841,"sideResp":2,"stimulus":"img/750/equaldotanddens/R/2_Ratio_750_L_6_R_8.png","xmouse":[802,802,802,802,802,802,802,802,802,802,802,802,802,802,802,802,802,802,802,802,802,802,802,802,802,802,802,802,802,802,802,802,802,802,802,802,802,802,802,802,802,802,801,785,737,702,673,653,645,644,644,644,644,644,644,647,660,686,713,780,805,828,849,856,876,898,927,964,1000,1048,1057,1060,1064,1077,1098,1105,1109,1112,1114,1113,1113,1113,1115,1116,1118],"ymouse":[579,579,579,579,579,579,579,579,579,579,579,579,579,579,579,579,579,579,579,579,579,579,579,579,579,579,579,579,579,579,579,579,579,579,579,579,579,579,579,579,579,578,572,534,441,392,354,330,322,322,322,322,322,322,322,322,325,333,337,339,336,329,315,308,285,267,248,231,216,204,202,202,201,192,177,169,164,158,153,136,125,117,105,100,90],"timestamp_mouse":[16,39,56,77,96,116,136,158,176,198,217,237,257,276,297,317,336,356,377,398,416,437,458,478,497,518,537,556,578,598,617,638,658,678,697,717,736,756,778,798,816,836,857,876,897,917,938,957,978,998,1017,1038,1056,1076,1098,1117,1138,1156,1177,1197,1217,1238,1258,1277,1297,1316,1337,1356,1377,1396,1417,1436,1457,1477,1497,1517,1536,1557,1576,1596,1618,1636,1656,1677,1697],"xSR":741.5,"ySR":573.95,"xT1":424.9,"yT1":0,"xT2":1058.1,"yT2":0,"toosoon":0,"cond_shown":"equaldotanddens","ratio_trial":750,"smaller_num":"6","larger_num":"8","correct_side":2,"subjID":"SamuelArturoArizaRamos13","gender":"0","age":"11","school":"6"},{"start_time":1551887620429,"click_time":1551887621637,"finger_time":1551887621297,"fix_duration":250,"trial":34,"RT":868,"MT":340,"sideResp":2,"stimulus":"img/900/randomdotsizeEA/L/1_Ratio_900_L_10_R_9.png","xmouse":[761,761,765,773,777,779,779,779,779,780,780,780,780,780,780,780,780,780,780,780,780,780,780,780,781,781,781,781,781,781,781,781,781,781,781,781,781,781,781,781,790,798,810,827,845,886,902,917,929,952,997,1016,1034,1050,1057,1071,1077,1083,1093,1098,1110],"ymouse":[661,655,640,631,627,625,625,625,625,625,626,627,629,632,636,636,636,636,636,636,636,636,635,635,635,635,635,635,635,635,635,635,635,635,635,635,635,635,635,634,620,610,594,570,545,492,468,439,410,359,296,269,242,218,200,171,158,142,120,107,86],"timestamp_mouse":[8,32,47,68,87,108,127,148,167,187,209,227,247,268,289,307,327,347,369,387,407,428,448,467,488,508,528,549,568,587,609,627,647,667,687,709,727,747,767,788,807,827,847,867,888,907,927,948,968,988,1008,1027,1047,1067,1088,1107,1128,1148,1167,1188,1207],"xSR":741.5,"ySR":573.95,"xT1":424.9,"yT1":0,"xT2":1058.1,"yT2":0,"toosoon":0,"cond_shown":"randomdotsizeEA","ratio_trial":900,"smaller_num":"9","larger_num":"10","correct_side":1,"subjID":"SamuelArturoArizaRamos13","gender":"0","age":"11","school":"6"},{"start_time":1551887625054,"click_time":1551887625897,"finger_time":1551887625536,"fix_duration":1156.3299001633732,"trial":35,"RT":482,"MT":361,"sideResp":2,"stimulus":"img/250/equaldotanddens/R/11_Ratio_250_L_3_R_12.png","xmouse":[787,787,787,787,787,787,787,787,787,787,787,787,787,787,787,787,787,787,787,787,787,787,787,787,789,794,812,816,832,858,870,880,889,909,918,930,945,961,991,1031,1048,1057,1063],"ymouse":[583,583,583,583,583,583,583,583,583,583,583,583,583,583,583,583,583,583,583,583,583,583,582,577,572,557,519,502,464,410,383,363,344,295,272,246,217,190,147,97,82,75,72],"timestamp_mouse":[19,31,42,62,83,104,123,143,163,183,202,223,242,262,282,303,322,342,363,382,403,423,442,464,482,503,522,543,562,584,603,622,642,664,682,702,722,744,763,782,803,823,842],"xSR":741.5,"ySR":573.95,"xT1":424.9,"yT1":0,"xT2":1058.1,"yT2":0,"toosoon":0,"cond_shown":"equaldotanddens","ratio_trial":250,"smaller_num":"3","larger_num":"12","correct_side":2,"subjID":"SamuelArturoArizaRamos13","gender":"0","age":"11","school":"6"},{"start_time":1551887628264,"click_time":1551887629417,"finger_time":1551887629037,"fix_duration":1067.3005288425338,"trial":36,"RT":773,"MT":380,"sideResp":1,"stimulus":"img/750/equaldotanddens/L/14_Ratio_750_L_8_R_6.png","xmouse":[788,788,788,788,788,788,788,788,788,788,788,788,788,788,788,788,788,788,788,788,788,788,788,788,788,788,788,788,788,788,788,788,788,788,788,788,788,785,763,743,720,689,651,593,576,564,557,557,557,557,557,557,555,550,546,534,525,509],"ymouse":[606,606,606,606,606,606,606,606,606,606,606,606,606,606,606,606,606,606,606,606,606,606,606,606,606,606,606,606,606,606,606,606,606,606,606,604,603,595,538,497,449,383,319,223,189,165,150,138,136,135,133,130,122,114,109,97,88,75],"timestamp_mouse":[12,32,53,73,93,112,133,152,172,192,213,232,253,274,292,313,332,352,372,394,412,432,454,473,492,512,532,553,572,594,614,633,653,672,693,712,733,752,773,792,812,832,852,872,893,913,934,953,972,993,1013,1033,1053,1072,1092,1113,1133,1153],"xSR":741.5,"ySR":573.95,"xT1":424.9,"yT1":0,"xT2":1058.1,"yT2":0,"toosoon":0,"cond_shown":"equaldotanddens","ratio_trial":750,"smaller_num":"6","larger_num":"8","correct_side":1,"subjID":"SamuelArturoArizaRamos13","gender":"0","age":"11","school":"6"},{"start_time":1551887631925,"click_time":1551887633197,"finger_time":1551887632817,"fix_duration":1447.0341542313013,"trial":37,"RT":892,"MT":380,"sideResp":1,"stimulus":"img/250/randomdotsizeEA/L/7_Ratio_250_L_8_R_2.png","xmouse":[814,814,814,814,814,814,814,814,814,814,814,814,814,814,814,814,814,814,814,814,814,814,814,814,814,814,814,814,814,814,814,814,814,814,814,814,814,817,819,820,820,820,811,808,801,801,800,800,800,800,800,799,795,786,767,691,654,620,589,537,518,501,487,473],"ymouse":[631,631,631,631,631,631,631,631,631,631,631,631,631,631,631,631,631,631,631,631,631,631,631,631,631,631,631,631,631,631,631,631,631,631,631,631,628,620,615,611,603,596,582,580,571,570,570,570,570,570,569,566,556,540,511,411,365,319,277,207,181,149,118,99],"timestamp_mouse":[15,36,52,72,93,113,132,151,173,192,212,233,251,273,293,311,331,351,372,391,411,433,451,472,492,512,531,551,572,592,612,631,653,671,691,712,731,752,771,792,811,832,851,871,892,912,933,951,973,993,1011,1031,1052,1071,1092,1113,1131,1152,1171,1192,1211,1232,1252,1272],"xSR":741.5,"ySR":573.95,"xT1":424.9,"yT1":0,"xT2":1058.1,"yT2":0,"toosoon":0,"cond_shown":"randomdotsizeEA","ratio_trial":250,"smaller_num":"2","larger_num":"8","correct_side":1,"subjID":"SamuelArturoArizaRamos13","gender":"0","age":"11","school":"6"},{"start_time":1551887634289,"click_time":1551887635517,"finger_time":1551887635117,"fix_duration":250,"trial":38,"RT":828,"MT":400,"sideResp":1,"stimulus":"img/900/randomdotsizeEA/L/2_Ratio_900_L_20_R_18.png","xmouse":[777,778,778,778,778,778,778,778,778,778,778,778,778,778,778,778,778,778,778,778,778,778,778,778,778,778,778,778,778,778,778,778,778,778,778,778,779,780,781,781,781,781,778,774,763,743,721,662,637,615,602,590,574,571,568,566,556,553,547,538,528,496],"ymouse":[641,640,640,640,640,640,640,640,640,640,640,640,640,640,640,640,640,640,640,640,640,640,640,640,640,640,640,640,640,640,640,639,639,637,637,637,635,633,629,623,612,572,537,494,450,403,367,295,272,254,244,236,227,222,218,213,192,177,160,136,113,67],"timestamp_mouse":[10,28,49,67,88,107,127,148,168,187,207,229,249,267,287,308,328,348,367,389,408,427,449,467,489,508,528,548,567,588,608,628,648,667,689,709,728,748,767,789,808,828,847,867,888,909,928,949,967,987,1007,1029,1047,1068,1087,1107,1128,1148,1168,1188,1208,1228],"xSR":741.5,"ySR":573.95,"xT1":424.9,"yT1":0,"xT2":1058.1,"yT2":0,"toosoon":0,"cond_shown":"randomdotsizeEA","ratio_trial":900,"smaller_num":"18","larger_num":"20","correct_side":1,"subjID":"SamuelArturoArizaRamos13","gender":"0","age":"11","school":"6"},{"start_time":1551887636751,"click_time":1551887637798,"finger_time":1551887637516,"fix_duration":532.0184297229918,"trial":39,"RT":765,"MT":282,"sideResp":2,"stimulus":"img/900/equaldotanddens/L/1_Ratio_900_L_10_R_9.png","xmouse":[785,785,785,785,785,785,785,785,785,785,785,785,785,785,785,785,785,785,785,785,785,785,785,785,785,785,785,785,785,785,785,785,785,785,786,794,804,814,830,872,907,938,962,1000,1014,1025,1040,1051,1066,1073,1079,1084,1092],"ymouse":[627,627,627,627,627,627,627,627,627,627,627,627,627,627,627,627,627,627,627,627,627,627,627,627,627,627,627,627,627,627,627,627,627,627,626,613,599,585,566,500,454,412,377,295,266,245,216,195,159,143,130,117,98],"timestamp_mouse":[13,28,45,66,85,105,127,146,167,185,206,225,247,266,286,305,325,347,366,385,406,427,446,465,487,507,526,546,567,587,606,626,645,666,686,705,726,746,765,785,807,825,845,866,885,905,925,945,966,985,1007,1025,1047],"xSR":741.5,"ySR":573.95,"xT1":424.9,"yT1":0,"xT2":1058.1,"yT2":0,"toosoon":0,"cond_shown":"equaldotanddens","ratio_trial":900,"smaller_num":"9","larger_num":"10","correct_side":1,"subjID":"SamuelArturoArizaRamos13","gender":"0","age":"11","school":"6"},{"start_time":1551887639681,"click_time":1551887640838,"finger_time":1551887640356,"fix_duration":1023.3891469690889,"trial":40,"RT":675,"MT":482,"sideResp":2,"stimulus":"img/500/equaldotsize/R/9_Ratio_500_L_2_R_4.png","xmouse":[769,769,769,769,769,769,769,769,769,769,769,769,769,769,769,769,769,769,769,769,769,769,769,769,769,769,769,769,769,769,769,769,782,805,835,859,932,954,977,995,1011,1047,1063,1079,1089,1095,1100,1100,1100,1100,1106,1118,1120,1122,1122,1122,1119,1107],"ymouse":[614,614,614,614,614,614,614,614,614,614,614,614,614,614,614,614,614,614,614,614,614,614,614,614,613,613,613,613,613,612,611,610,589,565,544,521,453,428,404,377,355,309,285,266,252,241,227,211,197,185,165,139,130,122,115,110,107,99],"timestamp_mouse":[16,36,55,75,95,116,136,156,175,195,215,237,256,275,295,316,335,357,377,396,417,435,456,476,495,516,536,557,575,595,615,635,655,675,696,717,736,755,776,795,816,836,855,875,895,916,936,955,975,995,1015,1036,1055,1075,1096,1115,1135,1157],"xSR":741.5,"ySR":573.95,"xT1":424.9,"yT1":0,"xT2":1058.1,"yT2":0,"toosoon":0,"cond_shown":"equaldotsize","ratio_trial":500,"smaller_num":"2","larger_num":"4","correct_side":2,"subjID":"SamuelArturoArizaRamos13","gender":"0","age":"11","school":"6"},{"start_time":1551887641911,"click_time":1551887642636,"finger_time":1551887642536,"fix_duration":352.7420966472962,"trial":41,"RT":625,"MT":100,"sideResp":1,"stimulus":"img/500/equaldotanddens/L/13_Ratio_500_L_12_R_6.png","xmouse":[787,787,787,787,787,787,787,787,787,787,787,787,787,787,787,787,787,787,787,787,787,787,787,787,787,787,787,787,787,787,784,769,747,713,631,578,520],"ymouse":[619,619,619,619,619,619,619,619,619,619,619,619,619,619,619,619,619,619,619,619,619,619,619,619,619,619,618,617,617,612,588,504,443,367,229,151,80],"timestamp_mouse":[10,34,46,65,85,106,125,145,166,185,205,225,245,266,285,306,327,346,366,385,406,427,446,465,485,505,525,545,565,586,605,625,646,666,685,706,725],"xSR":741.5,"ySR":573.95,"xT1":424.9,"yT1":0,"xT2":1058.1,"yT2":0,"toosoon":0,"cond_shown":"equaldotanddens","ratio_trial":500,"smaller_num":"6","larger_num":"12","correct_side":1,"subjID":"SamuelArturoArizaRamos13","gender":"0","age":"11","school":"6"},{"start_time":1551887645784,"click_time":1551887646798,"finger_time":1551887646436,"fix_duration":825.8606072253331,"trial":42,"RT":652,"MT":362,"sideResp":1,"stimulus":"img/250/equaldotanddens/L/15_Ratio_250_L_12_R_3.png","xmouse":[796,796,796,796,795,795,795,795,795,795,795,795,795,795,795,795,795,795,795,795,795,795,795,795,795,794,794,791,785,782,770,758,711,674,632,582,546,514,510,510,510,512,519,524,525,527,529,529,525,519,510],"ymouse":[615,615,615,615,615,615,615,615,615,615,615,615,615,615,615,615,615,615,615,615,615,615,615,615,614,613,612,608,603,600,591,579,536,498,454,401,361,291,268,252,233,225,207,198,188,171,152,125,114,105,92],"timestamp_mouse":[13,33,53,72,93,113,133,153,174,192,213,233,253,274,293,313,333,352,372,394,413,434,452,474,492,512,532,552,573,593,613,633,652,672,693,713,733,752,772,792,813,835,854,873,893,914,933,953,975,994,1014],"xSR":741.5,"ySR":573.95,"xT1":424.9,"yT1":0,"xT2":1058.1,"yT2":0,"toosoon":0,"cond_shown":"equaldotanddens","ratio_trial":250,"smaller_num":"3","larger_num":"12","correct_side":1,"subjID":"SamuelArturoArizaRamos13","gender":"0","age":"11","school":"6"},{"start_time":1551887649719,"click_time":1551887650699,"finger_time":1551887650297,"fix_duration":399.6243121749459,"trial":43,"RT":578,"MT":402,"sideResp":1,"stimulus":"img/750/equaldotanddens/L/6_Ratio_750_L_24_R_18.png","xmouse":[774,773,772,769,767,766,766,766,766,766,766,766,766,766,766,766,766,766,766,766,766,766,766,766,766,766,764,761,751,734,691,665,642,617,583,551,539,531,525,520,504,497,489,479,467,457,451,446,439],"ymouse":[605,605,605,607,607,607,607,607,607,607,607,607,607,607,607,607,607,607,607,607,607,607,607,607,607,607,605,594,571,544,473,438,409,384,356,332,322,311,300,282,248,233,215,187,166,138,125,112,99],"timestamp_mouse":[29,39,59,79,99,118,139,160,179,198,219,238,260,278,298,319,339,359,379,398,420,440,459,478,500,518,538,559,578,598,619,638,659,678,698,720,739,760,779,799,819,839,859,879,898,919,939,958,979],"xSR":741.5,"ySR":573.95,"xT1":424.9,"yT1":0,"xT2":1058.1,"yT2":0,"toosoon":0,"cond_shown":"equaldotanddens","ratio_trial":750,"smaller_num":"18","larger_num":"24","correct_side":1,"subjID":"SamuelArturoArizaRamos13","gender":"0","age":"11","school":"6"},{"start_time":1551887651710,"click_time":1551887653038,"finger_time":1551887652298,"fix_duration":250,"trial":44,"RT":588,"MT":740,"sideResp":1,"stimulus":"img/750/equaldotsize/L/8_Ratio_750_L_4_R_3.png","xmouse":[764,764,765,765,765,765,766,766,766,766,766,766,766,768,768,768,768,769,769,769,769,770,770,770,770,771,780,787,794,807,825,869,893,913,949,968,996,1007,1013,1020,1025,1026,1026,1026,1024,1020,981,952,915,875,844,793,770,754,751,739,697,674,645,608,575,537,531,524,520,517,508],"ymouse":[663,663,661,660,659,659,658,658,657,656,656,656,655,653,651,651,648,647,644,642,641,640,639,637,636,632,614,595,583,563,541,482,450,423,379,355,316,303,294,284,277,275,275,275,275,277,301,318,337,361,378,408,418,418,418,405,349,317,277,233,201,159,146,133,123,114,89],"timestamp_mouse":[23,30,49,69,87,107,129,147,169,189,207,227,248,267,287,308,327,347,367,387,408,428,448,467,489,508,528,547,569,588,609,627,649,668,688,708,727,747,769,788,808,829,849,869,888,907,927,947,968,988,1007,1027,1048,1068,1088,1107,1128,1147,1169,1188,1207,1227,1249,1268,1287,1308,1328],"xSR":741.5,"ySR":573.95,"xT1":424.9,"yT1":0,"xT2":1058.1,"yT2":0,"toosoon":0,"cond_shown":"equaldotsize","ratio_trial":750,"smaller_num":"3","larger_num":"4","correct_side":1,"subjID":"SamuelArturoArizaRamos13","gender":"0","age":"11","school":"6"},{"start_time":1551887654927,"click_time":1551887656038,"finger_time":1551887655478,"fix_duration":846.4107167397723,"trial":45,"RT":551,"MT":560,"sideResp":2,"stimulus":"img/250/equaldotsize/R/10_Ratio_250_L_4_R_16.png","xmouse":[774,774,774,774,774,774,774,774,774,774,774,774,774,774,774,774,774,774,774,774,774,774,774,774,777,788,798,814,832,856,921,952,976,988,1006,1022,1030,1034,1038,1038,1038,1038,1038,1038,1038,1038,1038,1038,1038,1038,1039,1041,1042,1043,1045,1059],"ymouse":[635,635,634,633,631,630,630,630,630,627,627,626,626,625,624,623,623,623,623,623,623,622,620,619,616,600,586,569,543,511,426,383,349,310,247,183,155,130,105,81,30,15,5,0,0,0,0,0,0,4,11,17,23,26,29,34],"timestamp_mouse":[10,36,50,71,91,112,131,150,172,192,210,231,251,272,290,310,331,350,371,390,412,431,450,472,491,511,530,551,572,591,610,630,650,671,691,711,731,752,771,791,810,830,850,870,890,911,930,951,970,990,1011,1031,1051,1070,1091,1111],"xSR":741.5,"ySR":573.95,"xT1":424.9,"yT1":0,"xT2":1058.1,"yT2":0,"toosoon":0,"cond_shown":"equaldotsize","ratio_trial":250,"smaller_num":"4","larger_num":"16","correct_side":2,"subjID":"SamuelArturoArizaRamos13","gender":"0","age":"11","school":"6"},{"start_time":1551887658888,"click_time":1551887659978,"finger_time":1551887659438,"fix_duration":549.0536192041409,"trial":46,"RT":550,"MT":540,"sideResp":2,"stimulus":"img/500/equaldotanddens/R/1_Ratio_500_L_9_R_18.png","xmouse":[796,796,796,796,796,796,796,796,796,796,796,796,796,796,796,796,796,796,796,796,796,796,796,796,797,802,810,836,854,866,884,903,943,960,977,997,1012,1014,1014,1020,1024,1026,1029,1029,1029,1029,1031,1034,1037,1039,1041,1043,1049,1055,1060],"ymouse":[633,632,632,631,631,631,631,631,631,631,631,631,631,631,631,631,631,631,631,631,631,631,630,628,627,614,603,565,541,517,493,468,400,368,334,290,230,168,141,116,94,72,45,36,28,21,19,18,17,16,16,16,18,23,27],"timestamp_mouse":[11,29,50,70,89,109,129,149,170,189,210,229,249,269,290,310,330,349,371,389,409,430,450,470,489,510,530,550,570,589,610,629,649,670,690,710,730,749,769,790,810,830,850,869,889,911,929,950,969,989,1009,1029,1050,1069,1090],"xSR":741.5,"ySR":573.95,"xT1":424.9,"yT1":0,"xT2":1058.1,"yT2":0,"toosoon":0,"cond_shown":"equaldotanddens","ratio_trial":500,"smaller_num":"9","larger_num":"18","correct_side":2,"subjID":"SamuelArturoArizaRamos13","gender":"0","age":"11","school":"6"},{"start_time":1551887661409,"click_time":1551887662997,"finger_time":1551887662337,"fix_duration":250,"trial":47,"RT":928,"MT":660,"sideResp":1,"stimulus":"img/250/randomdotsizeEA/L/3_Ratio_250_L_8_R_2.png","xmouse":[812,812,812,812,812,812,812,812,812,812,812,814,815,815,815,815,815,815,817,817,817,817,817,817,817,816,814,814,814,814,814,814,814,814,814,814,814,814,814,814,814,814,814,814,814,814,802,769,759,723,703,668,661,654,644,635,610,594,577,572,567,561,556,548,537,528,482,443,394,351,322,331,344,357,371,386,417,427,435,440],"ymouse":[600,600,600,600,600,600,600,601,602,602,602,602,602,602,602,602,602,602,602,602,602,601,599,596,595,592,589,589,589,589,589,589,589,589,589,589,589,589,589,589,589,589,589,589,588,587,566,541,533,515,508,503,497,491,484,468,434,415,394,393,388,382,375,364,350,338,311,296,280,267,253,231,214,198,169,150,122,111,100,88],"timestamp_mouse":[10,38,49,69,89,110,129,148,169,188,208,228,249,269,290,308,329,348,369,389,409,428,448,470,489,509,528,550,570,588,609,628,649,669,690,709,729,749,770,788,810,829,848,869,888,910,928,950,969,989,1010,1028,1048,1068,1088,1109,1129,1149,1169,1189,1209,1229,1248,1268,1288,1308,1328,1349,1369,1389,1408,1428,1448,1469,1489,1508,1529,1549,1569,1588],"xSR":741.5,"ySR":573.95,"xT1":424.9,"yT1":0,"xT2":1058.1,"yT2":0,"toosoon":0,"cond_shown":"randomdotsizeEA","ratio_trial":250,"smaller_num":"2","larger_num":"8","correct_side":1,"subjID":"SamuelArturoArizaRamos13","gender":"0","age":"11","school":"6"},{"start_time":1551887668458,"click_time":1551887669819,"finger_time":1551887669237,"fix_duration":719.0702537378393,"trial":48,"RT":779,"MT":582,"sideResp":2,"stimulus":"img/250/equaldotsize/R/4_Ratio_250_L_3_R_12.png","xmouse":[799,799,799,799,798,797,795,792,789,789,789,789,789,789,789,789,789,789,789,789,789,789,789,789,789,789,789,789,789,789,789,789,789,789,789,789,789,795,819,840,863,892,921,948,981,991,995,995,977,951,943,940,940,942,956,965,978,986,996,1002,1005,1007,1010,1017,1031,1039,1044,1050,1060],"ymouse":[627,627,627,627,627,629,635,643,651,655,655,655,655,655,655,655,655,655,655,652,650,648,646,644,642,641,640,640,640,640,640,640,640,640,640,638,635,629,594,567,535,500,456,411,323,284,259,235,204,169,157,147,138,131,120,117,112,108,103,101,101,100,98,95,88,85,81,77,72],"timestamp_mouse":[8,26,40,61,80,99,120,141,160,180,200,219,241,260,280,299,319,341,360,380,399,420,439,459,479,500,520,540,560,580,600,619,640,659,681,699,720,740,761,779,800,819,840,860,879,900,919,939,959,979,1000,1020,1039,1060,1079,1100,1120,1141,1160,1180,1200,1219,1240,1259,1279,1299,1319,1339,1361],"xSR":741.5,"ySR":573.95,"xT1":424.9,"yT1":0,"xT2":1058.1,"yT2":0,"toosoon":0,"cond_shown":"equaldotsize","ratio_trial":250,"smaller_num":"3","larger_num":"12","correct_side":2,"subjID":"SamuelArturoArizaRamos13","gender":"0","age":"11","school":"6"},{"start_time":1551887673595,"click_time":1551887675157,"finger_time":1551887674257,"fix_duration":636.9639337005028,"trial":49,"RT":662,"MT":900,"sideResp":2,"stimulus":"img/750/equaldotanddens/R/15_Ratio_750_L_9_R_12.png","xmouse":[786,786,786,786,786,786,786,786,786,786,786,786,786,786,786,786,786,786,786,786,786,786,786,786,786,786,786,786,786,786,785,784,761,739,711,676,604,567,534,502,478,463,460,460,462,464,468,483,504,540,580,650,756,810,853,889,921,954,961,966,970,979,989,993,996,997,1005,1014,1023,1027,1031,1037,1049,1054,1061,1069,1082,1085,1088],"ymouse":[644,644,644,644,644,644,644,644,644,644,644,644,644,644,644,644,644,644,644,644,644,644,644,644,644,644,644,644,644,644,643,639,609,577,543,507,455,426,398,373,357,340,325,319,316,313,311,308,308,311,318,329,329,318,310,295,280,255,245,238,234,222,208,200,193,186,172,163,157,153,145,139,126,122,117,113,103,100,97],"timestamp_mouse":[3,34,43,63,82,103,123,143,162,182,203,223,244,263,282,303,323,344,364,383,403,423,443,463,482,503,522,543,563,584,603,623,642,662,684,702,723,742,764,783,803,822,843,863,883,903,923,943,964,983,1004,1023,1044,1062,1084,1103,1123,1142,1163,1183,1202,1223,1243,1263,1283,1303,1324,1342,1362,1382,1403,1422,1442,1462,1482,1503,1524,1542,1562],"xSR":741.5,"ySR":573.95,"xT1":424.9,"yT1":0,"xT2":1058.1,"yT2":0,"toosoon":0,"cond_shown":"equaldotanddens","ratio_trial":750,"smaller_num":"9","larger_num":"12","correct_side":2,"subjID":"SamuelArturoArizaRamos13","gender":"0","age":"11","school":"6"},{"start_time":1551887681027,"click_time":1551887682298,"finger_time":1551887681818,"fix_duration":1049.2888016287047,"trial":50,"RT":791,"MT":480,"sideResp":1,"stimulus":"img/900/randomdotsizeEA/R/15_Ratio_900_L_9_R_10.png","xmouse":[791,791,791,791,791,791,791,791,791,791,791,791,791,791,791,791,791,791,791,791,791,791,791,791,791,791,791,791,791,791,791,791,791,791,791,791,791,789,779,710,657,589,526,472,429,370,356,352,352,354,354,359,361,364,366,373,378,381,387,416,430,444,456,467],"ymouse":[645,645,645,645,645,645,645,645,645,645,645,645,645,645,645,645,645,645,645,645,645,645,645,645,645,645,645,645,645,645,645,645,645,645,645,645,641,635,614,532,487,436,399,367,340,301,290,281,273,250,233,213,199,184,177,168,162,160,156,133,122,112,102,94],"timestamp_mouse":[26,32,52,71,90,111,132,150,172,190,212,232,251,270,291,311,330,352,370,391,412,431,450,471,491,510,531,551,571,590,612,632,651,672,692,710,731,751,770,791,811,831,851,871,890,911,931,951,972,991,1011,1030,1051,1070,1091,1111,1131,1151,1170,1191,1210,1231,1252,1271],"xSR":741.5,"ySR":573.95,"xT1":424.9,"yT1":0,"xT2":1058.1,"yT2":0,"toosoon":0,"cond_shown":"randomdotsizeEA","ratio_trial":900,"smaller_num":"9","larger_num":"10","correct_side":2,"subjID":"SamuelArturoArizaRamos13","gender":"0","age":"11","school":"6"},{"start_time":1551887684398,"click_time":1551887685618,"finger_time":1551887685178,"fix_duration":876.6992815893781,"trial":51,"RT":780,"MT":440,"sideResp":1,"stimulus":"img/900/randomdotsizeEA/L/2_Ratio_900_L_20_R_18.png","xmouse":[788,789,789,789,789,789,789,789,789,789,789,789,789,789,789,789,789,789,789,789,789,789,789,789,789,789,789,789,789,789,789,789,789,789,789,789,789,789,789,778,744,716,650,624,600,582,546,532,519,513,512,512,510,505,501,498,498,499,499,499,497,489],"ymouse":[589,589,589,589,589,589,589,589,589,589,589,589,589,589,589,589,589,589,589,589,589,589,589,589,589,589,589,589,589,589,589,589,589,589,589,589,589,589,587,571,522,485,396,362,332,305,262,238,221,212,203,179,166,155,145,138,135,132,128,122,115,99],"timestamp_mouse":[1,32,40,60,79,99,121,141,160,179,200,221,240,259,281,300,320,341,360,380,400,420,441,460,480,501,521,539,560,581,601,620,640,661,680,700,721,739,760,780,801,819,839,860,881,900,921,939,959,980,1001,1020,1039,1060,1079,1100,1119,1140,1160,1181,1201,1220],"xSR":741.5,"ySR":573.95,"xT1":424.9,"yT1":0,"xT2":1058.1,"yT2":0,"toosoon":0,"cond_shown":"randomdotsizeEA","ratio_trial":900,"smaller_num":"18","larger_num":"20","correct_side":1,"subjID":"SamuelArturoArizaRamos13","gender":"0","age":"11","school":"6"},{"start_time":1551887686832,"click_time":1551887688158,"finger_time":1551887687318,"fix_duration":353.4608074805382,"trial":52,"RT":486,"MT":840,"sideResp":1,"stimulus":"img/500/equaldotanddens/L/4_Ratio_500_L_18_R_9.png","xmouse":[799,799,799,799,799,799,799,799,800,800,800,800,802,802,802,802,802,802,802,802,804,805,810,821,852,861,867,868,868,868,868,868,868,868,861,818,779,731,680,502,434,369,314,270,215,209,209,209,209,213,228,237,246,253,260,273,282,298,323,347,378,386,393,394,398,419,430],"ymouse":[638,638,638,638,638,638,638,638,638,638,638,638,638,638,638,638,638,638,638,638,638,637,633,625,602,594,591,591,591,591,591,591,590,587,576,529,488,436,369,187,136,96,69,54,42,41,41,38,36,31,17,11,5,3,0,0,0,0,0,0,0,0,0,1,3,11,14],"timestamp_mouse":[8,29,45,66,86,107,126,145,165,185,207,226,245,265,286,305,327,346,365,385,406,425,445,466,486,505,525,547,567,585,605,625,646,665,685,705,727,746,766,786,805,826,846,866,886,906,926,946,965,985,1005,1026,1047,1066,1085,1106,1126,1146,1166,1185,1205,1225,1245,1265,1285,1305,1326],"xSR":741.5,"ySR":573.95,"xT1":424.9,"yT1":0,"xT2":1058.1,"yT2":0,"toosoon":0,"cond_shown":"equaldotanddens","ratio_trial":500,"smaller_num":"9","larger_num":"18","correct_side":1,"subjID":"SamuelArturoArizaRamos13","gender":"0","age":"11","school":"6"},{"start_time":1551887690417,"click_time":1551887691337,"finger_time":1551887691017,"fix_duration":1038.5375793211604,"trial":53,"RT":600,"MT":320,"sideResp":1,"stimulus":"img/250/equaldotanddens/L/1_Ratio_250_L_8_R_2.png","xmouse":[792,792,792,792,792,792,792,792,792,792,792,792,792,792,792,792,792,792,792,792,792,792,792,792,792,792,791,786,781,764,747,696,664,639,616,603,589,585,580,574,566,555,554,550,547,537,520],"ymouse":[638,638,638,638,640,640,640,640,640,640,640,640,640,640,640,640,640,640,640,640,640,640,640,640,641,641,641,639,635,599,563,453,386,342,310,291,275,267,258,242,224,186,169,149,132,111,67],"timestamp_mouse":[8,30,42,60,82,101,121,141,162,180,201,221,240,260,281,300,320,342,361,380,401,421,440,461,482,501,520,540,561,580,600,622,640,661,681,700,721,741,760,781,801,820,840,860,880,901,920],"xSR":741.5,"ySR":573.95,"xT1":424.9,"yT1":0,"xT2":1058.1,"yT2":0,"toosoon":0,"cond_shown":"equaldotanddens","ratio_trial":250,"smaller_num":"2","larger_num":"8","correct_side":1,"subjID":"SamuelArturoArizaRamos13","gender":"0","age":"11","school":"6"},{"start_time":1551887697672,"click_time":1551887699797,"finger_time":1551887698277,"fix_duration":833.4006412977544,"trial":54,"RT":605,"MT":1520,"sideResp":2,"stimulus":"img/250/equaldotanddens/R/6_Ratio_250_L_6_R_24.png","xmouse":[774,774,774,774,774,774,774,774,774,774,774,774,774,774,774,774,774,774,774,774,774,774,774,774,774,774,774,776,792,813,840,883,937,1008,1026,1035,1020,1001,990,990,996,1006,1011,1011,1011,1011,1011,1011,1011,1011,1011,1011,1011,1011,1011,1011,1011,1011,1011,1011,1011,1011,1011,1011,1011,1011,1011,1011,1011,1011,1011,1011,1004,983,983,983,983,983,983,983,983,983,983,983,983,983,983,983,984,984,984,986,987,994,996,997,998,1003,1010,1012,1017,1022,1024,1035,1040,1047,1062],"ymouse":[632,632,632,632,632,632,632,632,632,632,632,632,632,632,632,632,632,632,632,632,632,632,632,632,632,632,632,632,615,593,563,516,447,350,306,234,190,150,95,74,62,59,65,65,65,65,65,65,65,65,65,65,65,65,65,65,65,65,65,65,65,65,65,65,65,65,65,65,65,65,65,65,56,56,56,56,56,56,56,56,56,56,56,56,56,56,55,55,55,55,53,53,53,53,53,53,52,49,42,40,38,35,34,33,31,30,28],"timestamp_mouse":[11,31,46,65,86,105,125,146,166,186,206,227,245,265,286,305,325,346,366,386,406,426,447,465,485,506,527,545,566,585,605,626,647,665,686,705,725,747,765,785,806,826,846,865,886,906,926,946,965,985,1006,1026,1045,1066,1086,1106,1127,1146,1166,1185,1206,1227,1246,1267,1286,1306,1325,1347,1366,1385,1405,1426,1446,1467,1486,1507,1525,1546,1566,1586,1607,1625,1646,1666,1685,1706,1726,1745,1765,1785,1806,1825,1846,1865,1885,1905,1926,1946,1966,1985,2006,2026,2046,2066,2086,2105,2125],"xSR":741.5,"ySR":573.95,"xT1":424.9,"yT1":0,"xT2":1058.1,"yT2":0,"toosoon":0,"cond_shown":"equaldotanddens","ratio_trial":250,"smaller_num":"6","larger_num":"24","correct_side":2,"subjID":"SamuelArturoArizaRamos13","gender":"0","age":"11","school":"6"},{"start_time":1551887701706,"click_time":1551887702999,"finger_time":1551887702538,"fix_duration":567.5581570200585,"trial":55,"RT":832,"MT":461,"sideResp":2,"stimulus":"img/250/randomdotsizeEA/R/13_Ratio_250_L_2_R_8.png","xmouse":[805,805,803,802,802,800,799,798,797,797,797,797,797,797,797,797,797,797,797,797,797,797,797,797,797,797,797,797,797,797,797,791,785,781,778,776,776,776,776,776,780,807,824,841,860,881,905,918,930,945,963,998,1003,1003,1003,1003,1003,1003,1004,1007,1010,1018,1026,1040,1069],"ymouse":[637,637,637,636,636,636,636,636,636,636,636,636,636,636,636,636,636,636,636,636,636,636,636,636,636,636,636,636,636,635,633,626,622,619,617,615,612,611,606,596,579,516,482,448,414,369,309,275,244,210,166,86,63,43,38,35,33,31,29,27,27,27,27,28,33],"timestamp_mouse":[11,32,52,71,93,113,131,151,172,192,211,231,251,271,291,311,333,352,372,391,411,431,452,473,493,512,532,551,571,592,611,632,652,672,693,711,732,751,771,791,812,832,851,872,893,912,931,951,973,991,1012,1032,1052,1071,1092,1111,1131,1151,1172,1192,1212,1231,1252,1272,1292],"xSR":741.5,"ySR":573.95,"xT1":424.9,"yT1":0,"xT2":1058.1,"yT2":0,"toosoon":0,"cond_shown":"randomdotsizeEA","ratio_trial":250,"smaller_num":"2","larger_num":"8","correct_side":2,"subjID":"SamuelArturoArizaRamos13","gender":"0","age":"11","school":"6"},{"start_time":1551887704089,"click_time":1551887704978,"finger_time":1551887704638,"fix_duration":250,"trial":56,"RT":549,"MT":340,"sideResp":1,"stimulus":"img/250/equaldotanddens/L/14_Ratio_250_L_12_R_3.png","xmouse":[786,786,786,786,786,786,786,786,786,786,786,786,786,786,786,786,786,786,786,786,786,786,786,786,785,778,767,731,702,670,637,601,535,517,510,505,501,497,497,495,492,490,488,488,488],"ymouse":[612,612,612,612,612,612,612,611,609,608,608,608,608,608,608,608,608,608,608,608,608,608,608,607,606,595,581,530,495,450,410,366,298,277,258,243,222,196,182,165,150,133,108,100,93],"timestamp_mouse":[11,33,49,69,88,108,129,149,169,188,209,228,248,268,288,310,329,349,369,389,408,430,448,469,488,509,528,549,568,589,609,629,649,669,689,709,729,748,769,789,808,830,848,870,889],"xSR":741.5,"ySR":573.95,"xT1":424.9,"yT1":0,"xT2":1058.1,"yT2":0,"toosoon":0,"cond_shown":"equaldotanddens","ratio_trial":250,"smaller_num":"3","larger_num":"12","correct_side":1,"subjID":"SamuelArturoArizaRamos13","gender":"0","age":"11","school":"6"},{"start_time":1551887706350,"click_time":1551887707278,"finger_time":1551887706839,"fix_duration":250,"trial":57,"RT":489,"MT":439,"sideResp":2,"stimulus":"img/500/equaldotsize/R/9_Ratio_500_L_2_R_4.png","xmouse":[818,818,818,818,818,818,818,818,818,818,818,818,817,817,817,817,817,815,815,815,815,815,815,817,831,850,868,889,914,973,999,1027,1058,1074,1118,1133,1147,1162,1172,1186,1190,1193,1193,1193,1190,1171,1156],"ymouse":[623,623,622,621,621,621,621,621,621,621,621,621,620,620,618,618,617,617,617,617,616,615,612,606,573,548,522,495,468,400,365,331,289,267,225,208,187,168,147,110,100,93,82,77,57,30,11],"timestamp_mouse":[10,28,47,69,88,107,127,149,168,188,209,228,248,269,288,308,328,348,369,389,409,428,449,468,489,508,528,549,569,588,608,628,649,668,688,708,728,748,768,788,809,828,849,868,890,908,928],"xSR":741.5,"ySR":573.95,"xT1":424.9,"yT1":0,"xT2":1058.1,"yT2":0,"toosoon":0,"cond_shown":"equaldotsize","ratio_trial":500,"smaller_num":"2","larger_num":"4","correct_side":2,"subjID":"SamuelArturoArizaRamos13","gender":"0","age":"11","school":"6"},{"start_time":1551887709092,"click_time":1551887710138,"finger_time":1551887709698,"fix_duration":672.0650689585506,"trial":58,"RT":606,"MT":440,"sideResp":2,"stimulus":"img/500/equaldotsize/R/1_Ratio_500_L_9_R_18.png","xmouse":[812,812,812,812,812,812,812,812,812,812,812,812,812,812,812,812,813,813,813,813,811,811,811,811,811,811,811,811,814,820,827,834,849,854,863,879,894,939,960,981,1000,1014,1028,1028,1033,1037,1040,1041,1042,1042,1045,1050,1067],"ymouse":[611,611,611,611,611,611,611,611,611,611,611,611,611,611,611,611,611,611,611,609,608,608,608,608,608,608,608,607,598,585,569,554,527,514,493,453,417,328,291,262,235,209,155,134,118,107,101,99,98,95,93,86,72],"timestamp_mouse":[13,26,46,67,87,108,126,146,167,186,207,226,246,266,286,306,326,346,366,386,407,427,446,466,486,506,527,547,566,586,606,626,646,666,687,708,727,746,766,787,807,826,846,866,886,907,927,946,966,986,1007,1027,1046],"xSR":741.5,"ySR":573.95,"xT1":424.9,"yT1":0,"xT2":1058.1,"yT2":0,"toosoon":0,"cond_shown":"equaldotsize","ratio_trial":500,"smaller_num":"9","larger_num":"18","correct_side":2,"subjID":"SamuelArturoArizaRamos13","gender":"0","age":"11","school":"6"},{"start_time":1551887711968,"click_time":1551887713119,"finger_time":1551887712679,"fix_duration":1008.2101795670561,"trial":59,"RT":711,"MT":440,"sideResp":1,"stimulus":"img/750/randomdotsizeEA/R/5_Ratio_750_L_15_R_20.png","xmouse":[818,818,818,818,818,818,818,818,818,818,818,818,818,818,818,818,818,818,818,818,818,818,818,818,818,818,818,818,818,818,818,818,816,801,781,751,709,643,497,452,411,383,348,324,320,317,315,315,315,315,317,317,319,328,344,371,398,425],"ymouse":[635,635,635,635,635,635,635,635,635,635,635,635,635,635,635,635,635,635,635,635,635,634,634,634,634,634,634,634,634,634,634,633,631,610,590,560,506,431,285,243,201,169,130,99,90,81,74,66,52,48,46,45,44,44,44,44,44,44],"timestamp_mouse":[11,30,50,70,90,110,131,151,170,190,210,231,251,270,290,311,330,350,370,390,410,430,450,470,490,510,531,551,570,590,610,630,651,670,690,711,730,750,770,790,810,831,851,870,891,910,930,950,970,990,1010,1030,1050,1070,1090,1110,1131,1151],"xSR":741.5,"ySR":573.95,"xT1":424.9,"yT1":0,"xT2":1058.1,"yT2":0,"toosoon":0,"cond_shown":"randomdotsizeEA","ratio_trial":750,"smaller_num":"15","larger_num":"20","correct_side":2,"subjID":"SamuelArturoArizaRamos13","gender":"0","age":"11","school":"6"},{"start_time":1551887718364,"click_time":1551887719439,"finger_time":1551887719058,"fix_duration":1343.8556640378197,"trial":60,"RT":694,"MT":381,"sideResp":1,"stimulus":"img/900/equaldotanddens/L/10_Ratio_900_L_20_R_18.png","xmouse":[790,790,790,790,790,790,790,790,790,790,790,790,790,790,790,790,790,790,790,790,790,790,790,790,790,790,790,790,788,788,787,786,783,759,733,685,625,548,427,388,357,340,340,340,340,344,356,367,384,387,391,398,410,432],"ymouse":[622,622,622,622,622,622,622,622,622,622,622,622,622,622,622,622,622,622,622,622,622,622,622,622,622,622,622,621,618,616,615,613,608,575,540,479,405,331,220,194,181,176,176,176,175,173,163,155,136,131,124,110,98,65],"timestamp_mouse":[14,34,54,75,94,115,134,154,175,194,215,234,254,274,294,315,334,354,375,394,414,434,455,474,495,514,534,554,574,594,615,635,654,675,694,714,734,755,774,794,814,835,854,874,894,914,935,955,974,994,1015,1035,1054,1075],"xSR":741.5,"ySR":573.95,"xT1":424.9,"yT1":0,"xT2":1058.1,"yT2":0,"toosoon":0,"cond_shown":"equaldotanddens","ratio_trial":900,"smaller_num":"18","larger_num":"20","correct_side":1,"subjID":"SamuelArturoArizaRamos13","gender":"0","age":"11","school":"6"},{"start_time":1551887720721,"click_time":1551887721819,"finger_time":1551887721118,"fix_duration":381.1722045177615,"trial":61,"RT":397,"MT":701,"sideResp":2,"stimulus":"img/750/randomdotsizeEA/R/2_Ratio_750_L_6_R_8.png","xmouse":[760,760,762,762,764,767,770,774,776,778,778,778,778,778,778,778,778,778,778,778,779,779,781,781,784,785,785,785,785,785,787,790,803,810,836,869,885,903,924,948,992,1013,1030,1046,1064,1084,1092,1095,1100,1102,1104,1104,1104,1102,1099],"ymouse":[610,610,608,606,603,598,589,582,577,575,575,575,575,575,575,575,575,575,575,573,569,566,564,562,558,556,556,556,556,556,556,556,556,553,535,493,469,445,411,381,320,288,259,235,194,162,148,138,131,124,115,111,107,102,95],"timestamp_mouse":[32,37,57,78,98,117,137,157,178,198,218,237,258,277,297,317,337,358,378,397,417,438,457,478,497,517,538,557,578,597,617,637,657,678,697,718,737,758,777,797,817,838,858,877,897,917,937,958,978,997,1017,1037,1058,1078,1098],"xSR":741.5,"ySR":573.95,"xT1":424.9,"yT1":0,"xT2":1058.1,"yT2":0,"toosoon":0,"cond_shown":"randomdotsizeEA","ratio_trial":750,"smaller_num":"6","larger_num":"8","correct_side":2,"subjID":"SamuelArturoArizaRamos13","gender":"0","age":"11","school":"6"},{"start_time":1551887723090,"click_time":1551887724298,"finger_time":1551887723838,"fix_duration":250,"trial":62,"RT":748,"MT":460,"sideResp":2,"stimulus":"img/500/equaldotanddens/R/14_Ratio_500_L_5_R_10.png","xmouse":[824,824,824,824,824,824,824,823,821,821,820,820,818,818,818,817,817,817,817,817,817,817,817,817,817,817,817,817,817,817,817,817,817,817,817,825,830,871,905,936,983,1027,1083,1099,1110,1112,1113,1111,1110,1110,1108,1105,1103,1101,1099,1097,1096,1093,1092,1090,1086],"ymouse":[651,651,651,651,651,651,650,647,646,645,645,643,640,639,637,637,637,636,636,636,636,636,636,636,636,636,636,636,636,636,636,636,636,634,631,615,606,516,454,399,333,287,222,201,180,168,158,144,142,139,136,132,129,126,125,124,121,116,113,108,98],"timestamp_mouse":[10,28,49,68,89,109,128,148,169,188,209,228,248,268,288,308,328,348,368,388,408,428,449,468,489,508,528,548,568,589,608,628,648,669,688,710,728,748,768,788,809,829,848,869,889,909,929,948,968,988,1009,1028,1048,1069,1089,1108,1129,1148,1169,1188,1208],"xSR":741.5,"ySR":573.95,"xT1":424.9,"yT1":0,"xT2":1058.1,"yT2":0,"toosoon":0,"cond_shown":"equaldotanddens","ratio_trial":500,"smaller_num":"5","larger_num":"10","correct_side":2,"subjID":"SamuelArturoArizaRamos13","gender":"0","age":"11","school":"6"},{"start_time":1551887725859,"click_time":1551887726518,"finger_time":1551887726398,"fix_duration":740.6693289374733,"trial":63,"RT":539,"MT":120,"sideResp":1,"stimulus":"img/250/equaldotsize/L/3_Ratio_250_L_8_R_2.png","xmouse":[797,797,797,797,797,797,797,797,797,797,797,797,797,797,797,797,797,797,797,797,797,797,797,797,795,785,764,649,589,538,503,478,456],"ymouse":[619,619,619,619,619,619,619,619,619,619,619,619,619,619,619,619,619,619,619,619,619,619,618,615,610,593,561,382,276,190,147,119,99],"timestamp_mouse":[19,39,59,79,99,120,139,159,179,199,220,241,259,279,299,319,339,359,380,399,419,439,459,479,499,520,539,560,579,599,619,640,659],"xSR":741.5,"ySR":573.95,"xT1":424.9,"yT1":0,"xT2":1058.1,"yT2":0,"toosoon":0,"cond_shown":"equaldotsize","ratio_trial":250,"smaller_num":"2","larger_num":"8","correct_side":1,"subjID":"SamuelArturoArizaRamos13","gender":"0","age":"11","school":"6"},{"start_time":1551887728561,"click_time":1551887729738,"finger_time":1551887729178,"fix_duration":1022.703401854591,"trial":64,"RT":617,"MT":560,"sideResp":2,"stimulus":"img/900/equaldotsize/R/6_Ratio_900_L_9_R_10.png","xmouse":[764,764,764,764,764,764,764,764,764,764,764,764,764,764,764,764,764,764,764,764,764,764,764,764,764,764,764,768,774,786,799,812,830,849,864,883,908,938,986,999,1007,1011,1011,1011,1011,1011,1011,1011,1013,1015,1022,1029,1045,1064,1074,1083,1088,1090,1090],"ymouse":[610,610,610,610,610,610,610,610,610,610,610,610,610,610,610,610,610,610,610,610,610,610,610,610,610,610,608,602,593,579,560,543,520,492,473,449,419,389,339,323,309,305,305,308,308,308,308,308,304,296,283,263,230,184,163,139,124,105,97],"timestamp_mouse":[17,38,57,77,97,117,138,157,177,197,217,237,257,277,297,317,337,358,377,397,418,437,457,477,497,517,537,558,577,597,617,639,657,678,697,718,737,757,777,797,817,837,857,878,897,917,937,957,977,997,1017,1037,1057,1079,1097,1117,1138,1158,1177],"xSR":741.5,"ySR":573.95,"xT1":424.9,"yT1":0,"xT2":1058.1,"yT2":0,"toosoon":0,"cond_shown":"equaldotsize","ratio_trial":900,"smaller_num":"9","larger_num":"10","correct_side":2,"subjID":"SamuelArturoArizaRamos13","gender":"0","age":"11","school":"6"},{"start_time":1551887731585,"click_time":1551887732458,"finger_time":1551887732178,"fix_duration":825.4445241834235,"trial":65,"RT":593,"MT":280,"sideResp":1,"stimulus":"img/500/equaldotsize/L/10_Ratio_500_L_4_R_2.png","xmouse":[812,812,812,812,812,812,812,812,812,812,812,812,812,812,812,812,812,812,812,812,812,812,810,805,799,794,788,769,756,741,724,658,611,560,529,506,486,482,479,479,479,482,485,489],"ymouse":[645,645,645,645,645,645,645,645,645,645,645,645,645,645,645,645,645,645,645,645,645,645,641,637,635,630,625,609,592,573,546,413,347,279,239,210,165,154,147,140,134,114,107,99],"timestamp_mouse":[13,33,53,74,94,114,133,154,174,193,214,234,254,274,294,313,333,354,373,394,414,433,454,473,494,514,533,553,574,593,613,634,653,673,693,714,734,753,773,794,814,834,853,873],"xSR":741.5,"ySR":573.95,"xT1":424.9,"yT1":0,"xT2":1058.1,"yT2":0,"toosoon":0,"cond_shown":"equaldotsize","ratio_trial":500,"smaller_num":"2","larger_num":"4","correct_side":1,"subjID":"SamuelArturoArizaRamos13","gender":"0","age":"11","school":"6"},{"start_time":1551887733590,"click_time":1551887735019,"finger_time":1551887734238,"fix_duration":250,"trial":66,"RT":648,"MT":781,"sideResp":1,"stimulus":"img/750/randomdotsizeEA/L/1_Ratio_750_L_20_R_15.png","xmouse":[748,748,748,748,748,748,749,749,749,749,749,749,749,750,750,751,753,753,753,753,755,755,756,756,757,758,759,760,762,763,763,758,748,748,749,750,750,750,751,752,753,757,762,768,775,781,785,785,784,781,768,728,689,654,621,585,543,446,401,368,360,367,376,382,385,386,388,397,403,410,419,434],"ymouse":[641,641,641,641,641,643,643,643,643,643,643,643,643,643,643,643,641,641,641,641,640,640,636,635,634,633,631,628,625,616,602,574,545,535,531,528,527,526,526,524,523,518,512,506,500,493,489,487,484,482,479,470,462,458,452,437,417,356,314,276,248,177,153,140,129,121,115,98,89,79,75,62],"timestamp_mouse":[8,35,49,69,88,108,128,149,168,189,208,228,248,268,288,308,329,349,368,388,409,428,448,468,488,508,529,548,568,589,608,628,648,668,688,708,728,748,769,789,808,828,848,868,889,908,928,948,968,988,1008,1028,1048,1068,1088,1108,1128,1148,1168,1188,1210,1229,1248,1268,1289,1309,1328,1348,1368,1389,1409,1428],"xSR":741.5,"ySR":573.95,"xT1":424.9,"yT1":0,"xT2":1058.1,"yT2":0,"toosoon":0,"cond_shown":"randomdotsizeEA","ratio_trial":750,"smaller_num":"15","larger_num":"20","correct_side":1,"subjID":"SamuelArturoArizaRamos13","gender":"0","age":"11","school":"6"},{"start_time":1551887741639,"click_time":1551887742718,"finger_time":1551887742338,"fix_duration":1380.5999478128258,"trial":67,"RT":699,"MT":380,"sideResp":1,"stimulus":"img/250/randomdotsizeEA/L/15_Ratio_250_L_12_R_3.png","xmouse":[785,785,785,785,785,785,785,785,785,785,785,785,785,785,785,785,785,785,785,785,785,785,785,785,785,785,785,785,785,785,784,781,776,766,721,683,645,621,601,578,573,572,569,568,568,565,564,562,549,537,523,504,488,470],"ymouse":[596,596,596,596,596,596,596,596,596,597,597,597,597,597,597,597,597,597,597,598,600,600,600,600,600,600,600,600,600,600,598,593,585,576,512,462,414,380,355,319,310,305,301,296,285,278,269,261,218,192,166,137,110,86],"timestamp_mouse":[27,39,59,79,99,120,140,159,180,199,219,240,260,279,300,319,340,359,379,399,419,439,459,480,500,520,540,559,579,600,619,640,660,679,699,719,740,759,779,799,819,839,859,879,899,919,939,959,979,999,1019,1039,1059,1079],"xSR":741.5,"ySR":573.95,"xT1":424.9,"yT1":0,"xT2":1058.1,"yT2":0,"toosoon":0,"cond_shown":"randomdotsizeEA","ratio_trial":250,"smaller_num":"3","larger_num":"12","correct_side":1,"subjID":"SamuelArturoArizaRamos13","gender":"0","age":"11","school":"6"},{"start_time":1551887744431,"click_time":1551887745318,"finger_time":1551887744899,"fix_duration":791.3694272067847,"trial":68,"RT":468,"MT":419,"sideResp":1,"stimulus":"img/250/equaldotsize/L/5_Ratio_250_L_24_R_6.png","xmouse":[804,804,804,804,804,804,804,804,804,804,804,804,804,804,804,804,804,804,804,804,804,800,794,778,725,690,654,624,597,569,564,557,547,540,526,523,523,523,523,523,516,509,502,497,492],"ymouse":[605,605,605,605,605,605,605,605,605,605,605,605