[{"start_time":1551886948448,"click_time":1551886953502,"finger_time":1551886948460,"fix_duration":1322.4255162764357,"trial":0,"RT":12,"MT":5042,"sideResp":1,"stimulus":[],"xmouse":[765,765,765,765,765,765,765,765,765,765,765,765,765,765,765,765,765,765,765,765,765,765,765,765,765,765,765,765,765,765,765,767,776,779,779,779,779,779,779,779,779,779,779,779,779,779,779,779,779,779,779,779,779,779,779,779,779,779,779,779,779,779,779,779,779,779,780,782,783,783,784,784,784,784,784,784,784,784,784,784,784,784,784,784,784,784,784,784,784,784,784,784,784,784,784,784,785,788,792,795,797,798,799,799,800,801,804,809,811,812,812,812,812,812,812,812,812,812,812,812,812,812,812,812,812,812,812,812,812,812,812,812,812,812,812,812,812,805,797,792,790,787,786,786,786,786,786,786,786,786,788,790,794,797,797,797,797,797,797,797,797,797,797,797,797,797,797,797,797,797,797,797,797,797,797,797,797,797,797,797,797,797,797,797,797,797,797,797,797,797,797,797,797,797,797,797,797,797,797,797,797,797,797,797,797,797,797,797,797,797,797,797,780,776,776,776,776,775,775,775,775,775,775,775,775,775,775,774,757,731,702,678,663,653,647,641,634,614,608,604,598,596,591,580,573,567,560,547,545,544,540,534,518],"ymouse":[552,552,552,552,552,551,551,551,551,551,551,551,551,551,551,551,551,551,551,551,551,551,551,551,551,551,551,551,551,551,551,553,566,577,585,595,606,627,629,636,636,636,636,636,636,636,636,636,636,636,636,636,636,636,636,636,636,636,636,636,636,636,636,636,636,633,632,626,624,623,623,623,623,623,623,623,623,623,623,623,623,623,623,623,623,623,623,623,623,623,623,623,623,623,623,623,623,623,623,624,624,625,625,625,627,628,628,631,631,632,632,632,632,632,632,632,632,632,632,632,632,632,632,632,632,632,632,632,632,632,632,632,632,632,632,632,634,636,640,642,643,644,645,645,645,645,645,645,645,645,645,645,645,645,645,645,645,645,645,645,645,645,645,645,645,645,645,645,645,645,645,645,645,645,645,645,645,645,645,645,645,645,645,645,645,645,645,645,645,645,645,645,645,645,645,645,645,645,645,645,645,645,645,645,645,645,645,645,645,645,645,644,637,634,633,632,631,631,631,631,631,631,631,631,631,631,631,630,622,610,598,582,562,514,481,443,403,292,254,221,196,177,161,138,130,123,117,110,110,109,108,105,99],"timestamp_mouse":[12,33,53,73,93,113,133,152,174,194,213,234,253,272,293,312,332,353,373,394,413,433,453,474,493,512,533,553,573,592,613,633,653,672,694,714,733,753,772,792,813,834,853,872,892,914,933,952,972,993,1013,1033,1053,1074,1094,1113,1134,1152,1173,1192,1213,1232,1254,1272,1293,1312,1333,1353,1372,1392,1413,1432,1453,1472,1493,1513,1534,1552,1572,1592,1612,1632,1652,1673,1692,1713,1733,1753,1773,1792,1812,1833,1853,1874,1893,1913,1932,1953,1972,1992,2012,2032,2053,2073,2093,2112,2133,2152,2173,2192,2212,2232,2252,2272,2293,2313,2332,2352,2373,2394,2413,2432,2453,2473,2492,2512,2532,2553,2573,2594,2612,2632,2654,2672,2694,2713,2732,2752,2772,2792,2812,2832,2853,2873,2894,2913,2932,2953,2972,2992,3014,3033,3052,3073,3093,3113,3133,3154,3172,3194,3212,3234,3252,3272,3293,3314,3332,3352,3373,3393,3412,3433,3452,3473,3493,3512,3534,3553,3574,3593,3614,3634,3653,3672,3692,3713,3733,3753,3773,3792,3813,3832,3854,3873,3894,3913,3933,3952,3972,3994,4014,4034,4054,4074,4093,4114,4133,4153,4172,4193,4213,4233,4252,4272,4293,4312,4333,4353,4372,4392,4412,4434,4452,4473,4493,4513,4532,4552,4573,4592,4612,4632,4653,4672,4693,4713,4733,4753,4773,4792,4812,4832,4853,4872,4892,4912,4934,4953,4972,4992,5012,5032,5054],"xSR":741.5,"ySR":449.15000000000003,"xT1":424.9,"yT1":0,"xT2":1058.1,"yT2":0,"toosoon":0,"cond_shown":"Incongruent","ratio_trial":300,"L_num":8,"L_den":10,"R_num":9,"R_den":18,"correct_side":1,"subjID":"SamuelArturoArizaRamos13","gender":"0","age":"11","school":"6","test":{"fix_dur":[250,1500],"timestim":1000,"targets_dim":[100,100],"targets_relative_coord":[0.3,0.7],"size_stim":[880,420],"start_dim":[100,100],"size_start":[300,300],"size_fix":60,"samplingrate":20,"img_types":["Congruent","Incongruent"],"ratios":[100,200,300],"rep_conds":19,"nTrials":120,"trials_to_rest":500,"Trials_order":[95,42,31,109,81,62,96,88,40,6,1,118,50,73,58,107,57,64,39,87,48,5,26,69,7,66,108,21,0,91,54,8,4,29,49,9,83,60,15,24,41,43,84,59,77,111,104,80,61,92,102,18,11,97,105,78,36,34,116,25,14,82,65,30,33,98,100,74,32,37,63,113,51,2,67,79,75,101,89,56,68,53,22,110,10,86,38,44,23,72,93,76,19,3,20,47,94,16,71,70,114,45,115,28,119,85,35,103,13,46,52,117,27,106,12,99,55,17,90,112],"cond_shown":["Incongruent","Congruent","Incongruent","Incongruent","Incongruent","Congruent","Congruent","Congruent","Congruent","Congruent","Incongruent","Congruent","Congruent","Incongruent","Congruent","Incongruent","Incongruent","Congruent","Incongruent","Incongruent","Congruent","Incongruent","Congruent","Incongruent","Incongruent","Congruent","Congruent","Incongruent","Congruent","Incongruent","Congruent","Congruent","Congruent","Incongruent","Incongruent","Incongruent","Incongruent","Congruent","Incongruent","Congruent","Incongruent","Incongruent","Congruent","Incongruent","Incongruent","Incongruent","Congruent","Congruent","Incongruent","Congruent","Congruent","Congruent","Incongruent","Incongruent","Incongruent","Congruent","Congruent","Congruent","Congruent","Incongruent","Congruent","Congruent","Incongruent","Congruent","Incongruent","Congruent","Congruent","Congruent","Congruent","Incongruent","Incongruent","Incongruent","Incongruent","Congruent","Incongruent","Incongruent","Incongruent","Incongruent","Incongruent","Congruent","Congruent","Incongruent","Congruent","Congruent","Congruent","Congruent","Congruent","Congruent","Incongruent","Congruent","Incongruent","Congruent","Incongruent","Incongruent","Congruent","Incongruent","Congruent","Congruent","Incongruent","Congruent","Congruent","Incongruent","Incongruent","Congruent","Incongruent","Incongruent","Incongruent","Incongruent","Incongruent","Congruent","Congruent","Incongruent","Incongruent","Congruent","Congruent","Incongruent","Incongruent","Incongruent","Congruent","Congruent"],"ratio_trial":[300,100,100,100,200,200,100,300,300,100,100,300,200,100,300,300,200,300,200,200,100,300,200,200,100,100,100,200,100,100,100,200,300,300,100,200,300,100,200,100,300,100,100,300,300,200,200,200,100,200,100,100,300,100,200,100,100,300,200,100,200,300,300,100,200,200,300,200,200,100,200,300,200,200,100,100,200,300,300,200,200,300,300,200,300,200,200,200,300,100,200,300,100,200,200,300,300,300,300,300,100,200,100,300,300,100,300,100,100,300,300,200,200,300,100,200,100,300,100,300],"left_num":[8,6,10,17,7,7,4,1,20,8,13,1,5,6,4,1,4,3,4,11,1,2,3,6,17,2,2,1,2,9,9,14,8,13,9,7,13,7,9,2,13,11,9,8,1,1,3,9,9,16,1,4,2,10,7,10,4,8,15,6,14,7,4,8,1,6,5,6,3,17,7,4,9,3,9,10,6,4,4,3,21,3,1,3,20,5,20,5,8,2,7,2,9,6,3,8,3,1,8,1,3,7,9,11,13,8,4,6,17,20,4,9,7,18,7,14,9,4,2,8],"right_num":[9,15,8,10,14,18,15,7,13,2,6,11,14,13,13,2,6,4,14,3,3,6,14,3,10,6,11,2,11,14,8,6,10,12,13,14,12,9,8,6,12,9,8,14,2,3,14,4,6,9,18,15,6,9,6,3,6,10,4,11,6,20,2,2,3,7,6,11,7,10,14,2,8,11,14,8,3,2,8,9,2,4,8,9,13,14,9,14,9,6,14,12,14,3,7,14,4,7,9,11,4,8,6,4,12,6,8,3,10,14,13,8,4,9,15,6,20,8,11,1],"left_den":[10,12,25,30,10,15,10,20,25,16,26,5,10,10,20,2,5,6,6,20,2,4,6,20,30,5,5,3,5,15,15,28,15,26,15,10,26,14,15,5,26,22,15,10,2,2,10,20,18,30,2,10,4,25,15,25,8,15,25,10,28,14,20,16,2,12,25,20,10,30,10,20,15,10,15,25,20,20,5,12,30,6,30,12,25,10,25,10,10,5,10,10,15,20,10,10,6,20,10,5,20,10,18,22,26,16,5,12,30,25,20,15,15,20,14,30,10,5,5,16],"right_den":[18,25,16,15,28,27,30,20,26,5,10,22,20,26,26,10,10,5,30,4,5,30,20,6,15,12,22,15,22,28,16,20,12,15,26,28,15,15,10,12,15,15,16,28,10,10,28,16,10,27,30,30,30,18,9,10,10,12,10,22,20,25,4,5,10,10,12,22,14,15,28,4,10,22,28,16,6,4,16,20,4,20,24,20,26,20,15,20,18,12,28,24,28,6,14,28,5,20,18,22,16,16,10,20,15,10,16,5,15,28,26,10,6,15,25,9,25,16,22,5],"correct_side":[1,2,2,2,1,2,2,2,1,1,2,2,2,1,2,1,1,2,1,2,2,1,2,2,2,2,2,1,2,1,1,1,2,2,1,1,2,2,2,2,2,2,1,1,1,1,2,1,2,1,2,2,1,2,2,1,2,2,1,1,1,2,2,1,1,2,2,2,2,2,1,2,2,2,1,2,2,2,1,2,1,1,2,2,1,2,1,2,1,2,1,2,1,2,2,1,2,2,1,2,2,1,2,1,2,2,1,2,2,1,2,2,2,1,2,2,1,1,2,1],"img_shown":["img2/300/Incongruent/L/I_Dist_300_LN_8_LD_10_RN_9_RD_18_0.png","img2/100/Congruent/R/C_Dist_100_LN_6_LD_12_RN_15_RD_25_1.png","img2/100/Incongruent/R/I_Dist_100_LN_10_LD_25_RN_8_RD_16_1.png","img2/100/Incongruent/R/I_Dist_100_LN_17_LD_30_RN_10_RD_15_1.png","img2/200/Incongruent/L/I_Dist_200_LN_7_LD_10_RN_14_RD_28_0.png","img2/200/Congruent/R/C_Dist_200_LN_7_LD_15_RN_18_RD_27_1.png","img2/100/Congruent/R/C_Dist_100_LN_4_LD_10_RN_15_RD_30_1.png","img2/300/Congruent/R/C_Dist_300_LN_1_LD_20_RN_7_RD_20_1.png","img2/300/Congruent/L/C_Dist_300_LN_20_LD_25_RN_13_RD_26_0.png","img2/100/Congruent/L/C_Dist_100_LN_8_LD_16_RN_2_RD_5_0.png","img2/100/Incongruent/R/I_Dist_100_LN_13_LD_26_RN_6_RD_10_1.png","img2/300/Congruent/R/C_Dist_300_LN_1_LD_5_RN_11_RD_22_1.png","img2/200/Congruent/R/C_Dist_200_LN_5_LD_10_RN_14_RD_20_1.png","img2/100/Incongruent/L/I_Dist_100_LN_6_LD_10_RN_13_RD_26_0.png","img2/300/Congruent/R/C_Dist_300_LN_4_LD_20_RN_13_RD_26_1.png","img2/300/Incongruent/L/I_Dist_300_LN_1_LD_2_RN_2_RD_10_0.png","img2/200/Incongruent/L/I_Dist_200_LN_4_LD_5_RN_6_RD_10_0.png","img2/300/Congruent/R/C_Dist_300_LN_3_LD_6_RN_4_RD_5_1.png","img2/200/Incongruent/L/I_Dist_200_LN_4_LD_6_RN_14_RD_30_0.png","img2/200/Incongruent/R/I_Dist_200_LN_11_LD_20_RN_3_RD_4_1.png","img2/100/Congruent/R/C_Dist_100_LN_1_LD_2_RN_3_RD_5_1.png","img2/300/Incongruent/L/I_Dist_300_LN_2_LD_4_RN_6_RD_30_0.png","img2/200/Congruent/R/C_Dist_200_LN_3_LD_6_RN_14_RD_20_1.png","img2/200/Incongruent/R/I_Dist_200_LN_6_LD_20_RN_3_RD_6_1.png","img2/100/Incongruent/R/I_Dist_100_LN_17_LD_30_RN_10_RD_15_1.png","img2/100/Congruent/R/C_Dist_100_LN_2_LD_5_RN_6_RD_12_1.png","img2/100/Congruent/R/C_Dist_100_LN_2_LD_5_RN_11_RD_22_1.png","img2/200/Incongruent/L/I_Dist_200_LN_1_LD_3_RN_2_RD_15_0.png","img2/100/Congruent/R/C_Dist_100_LN_2_LD_5_RN_11_RD_22_1.png","img2/100/Incongruent/L/I_Dist_100_LN_9_LD_15_RN_14_RD_28_0.png","img2/100/Congruent/L/C_Dist_100_LN_9_LD_15_RN_8_RD_16_0.png","img2/200/Congruent/L/C_Dist_200_LN_14_LD_28_RN_6_RD_20_0.png","img2/300/Congruent/R/C_Dist_300_LN_8_LD_15_RN_10_RD_12_1.png","img2/300/Incongruent/R/I_Dist_300_LN_13_LD_26_RN_12_RD_15_1.png","img2/100/Incongruent/L/I_Dist_100_LN_9_LD_15_RN_13_RD_26_0.png","img2/200/Incongruent/L/I_Dist_200_LN_7_LD_10_RN_14_RD_28_0.png","img2/300/Incongruent/R/I_Dist_300_LN_13_LD_26_RN_12_RD_15_1.png","img2/100/Congruent/R/C_Dist_100_LN_7_LD_14_RN_9_RD_15_1.png","img2/200/Incongruent/R/I_Dist_200_LN_9_LD_15_RN_8_RD_10_1.png","img2/100/Congruent/R/C_Dist_100_LN_2_LD_5_RN_6_RD_12_1.png","img2/300/Incongruent/R/I_Dist_300_LN_13_LD_26_RN_12_RD_15_1.png","img2/100/Incongruent/R/I_Dist_100_LN_11_LD_22_RN_9_RD_15_1.png","img2/100/Congruent/L/C_Dist_100_LN_9_LD_15_RN_8_RD_16_0.png","img2/300/Incongruent/L/I_Dist_300_LN_8_LD_10_RN_14_RD_28_0.png","img2/300/Incongruent/L/I_Dist_300_LN_1_LD_2_RN_2_RD_10_0.png","img2/200/Incongruent/L/I_Dist_200_LN_1_LD_2_RN_3_RD_10_0.png","img2/200/Congruent/R/C_Dist_200_LN_3_LD_10_RN_14_RD_28_1.png","img2/200/Congruent/L/C_Dist_200_LN_9_LD_20_RN_4_RD_16_0.png","img2/100/Incongruent/R/I_Dist_100_LN_9_LD_18_RN_6_RD_10_1.png","img2/200/Congruent/L/C_Dist_200_LN_16_LD_30_RN_9_RD_27_0.png","img2/100/Congruent/R/C_Dist_100_LN_1_LD_2_RN_18_RD_30_1.png","img2/100/Congruent/R/C_Dist_100_LN_4_LD_10_RN_15_RD_30_1.png","img2/300/Incongruent/L/I_Dist_300_LN_2_LD_4_RN_6_RD_30_0.png","img2/100/Incongruent/R/I_Dist_100_LN_10_LD_25_RN_9_RD_18_1.png","img2/200/Incongruent/R/I_Dist_200_LN_7_LD_15_RN_6_RD_9_1.png","img2/100/Congruent/L/C_Dist_100_LN_10_LD_25_RN_3_RD_10_0.png","img2/100/Congruent/R/C_Dist_100_LN_4_LD_8_RN_6_RD_10_1.png","img2/300/Congruent/R/C_Dist_300_LN_8_LD_15_RN_10_RD_12_1.png","img2/200/Congruent/L/C_Dist_200_LN_15_LD_25_RN_4_RD_10_0.png","img2/100/Incongruent/L/I_Dist_100_LN_6_LD_10_RN_11_RD_22_0.png","img2/200/Congruent/L/C_Dist_200_LN_14_LD_28_RN_6_RD_20_0.png","img2/300/Congruent/R/C_Dist_300_LN_7_LD_14_RN_20_RD_25_1.png","img2/300/Incongruent/R/I_Dist_300_LN_4_LD_20_RN_2_RD_4_1.png","img2/100/Congruent/L/C_Dist_100_LN_8_LD_16_RN_2_RD_5_0.png","img2/200/Incongruent/L/I_Dist_200_LN_1_LD_2_RN_3_RD_10_0.png","img2/200/Congruent/R/C_Dist_200_LN_6_LD_12_RN_7_RD_10_1.png","img2/300/Congruent/R/C_Dist_300_LN_5_LD_25_RN_6_RD_12_1.png","img2/200/Congruent/R/C_Dist_200_LN_6_LD_20_RN_11_RD_22_1.png","img2/200/Congruent/R/C_Dist_200_LN_3_LD_10_RN_7_RD_14_1.png","img2/100/Incongruent/R/I_Dist_100_LN_17_LD_30_RN_10_RD_15_1.png","img2/200/Incongruent/L/I_Dist_200_LN_7_LD_10_RN_14_RD_28_0.png","img2/300/Incongruent/R/I_Dist_300_LN_4_LD_20_RN_2_RD_4_1.png","img2/200/Incongruent/R/I_Dist_200_LN_9_LD_15_RN_8_RD_10_1.png","img2/200/Congruent/R/C_Dist_200_LN_3_LD_10_RN_11_RD_22_1.png","img2/100/Incongruent/L/I_Dist_100_LN_9_LD_15_RN_14_RD_28_0.png","img2/100/Incongruent/R/I_Dist_100_LN_10_LD_25_RN_8_RD_16_1.png","img2/200/Incongruent/R/I_Dist_200_LN_6_LD_20_RN_3_RD_6_1.png","img2/300/Incongruent/R/I_Dist_300_LN_4_LD_20_RN_2_RD_4_1.png","img2/300/Incongruent/L/I_Dist_300_LN_4_LD_5_RN_8_RD_16_0.png","img2/200/Congruent/R/C_Dist_200_LN_3_LD_12_RN_9_RD_20_1.png","img2/200/Congruent/L/C_Dist_200_LN_21_LD_30_RN_2_RD_4_0.png","img2/300/Incongruent/L/I_Dist_300_LN_3_LD_6_RN_4_RD_20_0.png","img2/300/Congruent/R/C_Dist_300_LN_1_LD_30_RN_8_RD_24_1.png","img2/200/Congruent/R/C_Dist_200_LN_3_LD_12_RN_9_RD_20_1.png","img2/300/Congruent/L/C_Dist_300_LN_20_LD_25_RN_13_RD_26_0.png","img2/200/Congruent/R/C_Dist_200_LN_5_LD_10_RN_14_RD_20_1.png","img2/200/Congruent/L/C_Dist_200_LN_20_LD_25_RN_9_RD_15_0.png","img2/200/Congruent/R/C_Dist_200_LN_5_LD_10_RN_14_RD_20_1.png","img2/300/Incongruent/L/I_Dist_300_LN_8_LD_10_RN_9_RD_18_0.png","img2/100/Congruent/R/C_Dist_100_LN_2_LD_5_RN_6_RD_12_1.png","img2/200/Incongruent/L/I_Dist_200_LN_7_LD_10_RN_14_RD_28_0.png","img2/300/Congruent/R/C_Dist_300_LN_2_LD_10_RN_12_RD_24_1.png","img2/100/Incongruent/L/I_Dist_100_LN_9_LD_15_RN_14_RD_28_0.png","img2/200/Incongruent/R/I_Dist_200_LN_6_LD_20_RN_3_RD_6_1.png","img2/200/Congruent/R/C_Dist_200_LN_3_LD_10_RN_7_RD_14_1.png","img2/300/Incongruent/L/I_Dist_300_LN_8_LD_10_RN_14_RD_28_0.png","img2/300/Congruent/R/C_Dist_300_LN_3_LD_6_RN_4_RD_5_1.png","img2/300/Congruent/R/C_Dist_300_LN_1_LD_20_RN_7_RD_20_1.png","img2/300/Incongruent/L/I_Dist_300_LN_8_LD_10_RN_9_RD_18_0.png","img2/300/Congruent/R/C_Dist_300_LN_1_LD_5_RN_11_RD_22_1.png","img2/100/Congruent/R/C_Dist_100_LN_3_LD_20_RN_4_RD_16_1.png","img2/200/Incongruent/L/I_Dist_200_LN_7_LD_10_RN_8_RD_16_0.png","img2/100/Incongruent/R/I_Dist_100_LN_9_LD_18_RN_6_RD_10_1.png","img2/300/Congruent/L/C_Dist_300_LN_11_LD_22_RN_4_RD_20_0.png","img2/300/Incongruent/R/I_Dist_300_LN_13_LD_26_RN_12_RD_15_1.png","img2/100/Incongruent/R/I_Dist_100_LN_8_LD_16_RN_6_RD_10_1.png","img2/300/Incongruent/L/I_Dist_300_LN_4_LD_5_RN_8_RD_16_0.png","img2/100/Incongruent/R/I_Dist_100_LN_6_LD_12_RN_3_RD_5_1.png","img2/100/Incongruent/R/I_Dist_100_LN_17_LD_30_RN_10_RD_15_1.png","img2/300/Congruent/L/C_Dist_300_LN_20_LD_25_RN_14_RD_28_0.png","img2/300/Congruent/R/C_Dist_300_LN_4_LD_20_RN_13_RD_26_1.png","img2/200/Incongruent/R/I_Dist_200_LN_9_LD_15_RN_8_RD_10_1.png","img2/200/Incongruent/R/I_Dist_200_LN_7_LD_15_RN_4_RD_6_1.png","img2/300/Congruent/L/C_Dist_300_LN_18_LD_20_RN_9_RD_15_0.png","img2/100/Congruent/R/C_Dist_100_LN_7_LD_14_RN_15_RD_25_1.png","img2/200/Incongruent/R/I_Dist_200_LN_14_LD_30_RN_6_RD_9_1.png","img2/100/Incongruent/L/I_Dist_100_LN_9_LD_10_RN_20_RD_25_0.png","img2/300/Incongruent/L/I_Dist_300_LN_4_LD_5_RN_8_RD_16_0.png","img2/100/Congruent/R/C_Dist_100_LN_2_LD_5_RN_11_RD_22_1.png","img2/300/Congruent/L/C_Dist_300_LN_8_LD_16_RN_1_RD_5_0.png"],"dist100_C":[["C_Dist_100_LN_10_LD_25_RN_3_RD_10_0.png","C_Dist_100_LN_11_LD_22_RN_4_RD_10_0.png","C_Dist_100_LN_11_LD_22_RN_6_RD_15_0.png","C_Dist_100_LN_15_LD_25_RN_13_RD_26_0.png","C_Dist_100_LN_3_LD_6_RN_2_RD_5_0.png","C_Dist_100_LN_6_LD_20_RN_5_RD_25_0.png","C_Dist_100_LN_8_LD_16_RN_2_RD_5_0.png","C_Dist_100_LN_9_LD_15_RN_8_RD_16_0.png"],["C_Dist_100_LN_1_LD_2_RN_18_RD_30_1.png","C_Dist_100_LN_1_LD_2_RN_3_RD_5_1.png","C_Dist_100_LN_12_LD_30_RN_13_RD_26_1.png","C_Dist_100_LN_2_LD_5_RN_11_RD_22_1.png","C_Dist_100_LN_2_LD_5_RN_6_RD_12_1.png","C_Dist_100_LN_3_LD_20_RN_4_RD_16_1.png","C_Dist_100_LN_4_LD_10_RN_15_RD_30_1.png","C_Dist_100_LN_4_LD_8_RN_6_RD_10_1.png","C_Dist_100_LN_6_LD_12_RN_15_RD_25_1.png","C_Dist_100_LN_7_LD_14_RN_15_RD_25_1.png","C_Dist_100_LN_7_LD_14_RN_9_RD_15_1.png"]],"dist100_I":[["I_Dist_100_LN_1_LD_2_RN_8_RD_20_0.png","I_Dist_100_LN_2_LD_4_RN_6_RD_15_0.png","I_Dist_100_LN_2_LD_4_RN_8_RD_20_0.png","I_Dist_100_LN_3_LD_5_RN_11_RD_22_0.png","I_Dist_100_LN_3_LD_5_RN_8_RD_16_0.png","I_Dist_100_LN_3_LD_6_RN_4_RD_10_0.png","I_Dist_100_LN_3_LD_9_RN_7_RD_30_0.png","I_Dist_100_LN_4_LD_8_RN_8_RD_20_0.png","I_Dist_100_LN_6_LD_10_RN_11_RD_22_0.png","I_Dist_100_LN_6_LD_10_RN_13_RD_26_0.png","I_Dist_100_LN_6_LD_10_RN_7_RD_14_0.png","I_Dist_100_LN_9_LD_10_RN_20_RD_25_0.png","I_Dist_100_LN_9_LD_15_RN_13_RD_26_0.png","I_Dist_100_LN_9_LD_15_RN_14_RD_28_0.png"],["I_Dist_100_LN_10_LD_25_RN_8_RD_16_1.png","I_Dist_100_LN_10_LD_25_RN_9_RD_18_1.png","I_Dist_100_LN_11_LD_22_RN_9_RD_15_1.png","I_Dist_100_LN_12_LD_24_RN_9_RD_15_1.png","I_Dist_100_LN_12_LD_30_RN_2_RD_4_1.png","I_Dist_100_LN_13_LD_26_RN_12_RD_20_1.png","I_Dist_100_LN_13_LD_26_RN_6_RD_10_1.png","I_Dist_100_LN_17_LD_30_RN_10_RD_15_1.png","I_Dist_100_LN_6_LD_12_RN_3_RD_5_1.png","I_Dist_100_LN_8_LD_16_RN_6_RD_10_1.png","I_Dist_100_LN_8_LD_20_RN_1_RD_2_1.png","I_Dist_100_LN_9_LD_18_RN_6_RD_10_1.png"]],"dist100_S":[["E_Dist_100_LN_2_LD_12_RN_2_RD_30_0.png","E_Dist_100_LN_6_LD_10_RN_6_RD_12_0.png"],["E_Dist_100_LN_6_LD_12_RN_6_RD_10_1.png"]],"dist200_C":[["C_Dist_200_LN_11_LD_22_RN_3_RD_10_0.png","C_Dist_200_LN_12_LD_15_RN_6_RD_10_0.png","C_Dist_200_LN_12_LD_20_RN_6_RD_15_0.png","C_Dist_200_LN_14_LD_28_RN_6_RD_20_0.png","C_Dist_200_LN_15_LD_25_RN_4_RD_10_0.png","C_Dist_200_LN_16_LD_20_RN_12_RD_20_0.png","C_Dist_200_LN_16_LD_30_RN_9_RD_27_0.png","C_Dist_200_LN_20_LD_25_RN_9_RD_15_0.png","C_Dist_200_LN_21_LD_30_RN_2_RD_4_0.png","C_Dist_200_LN_4_LD_10_RN_3_RD_15_0.png","C_Dist_200_LN_4_LD_8_RN_3_RD_10_0.png","C_Dist_200_LN_6_LD_15_RN_3_RD_15_0.png","C_Dist_200_LN_7_LD_21_RN_2_RD_15_0.png","C_Dist_200_LN_8_LD_15_RN_2_RD_6_0.png","C_Dist_200_LN_8_LD_15_RN_3_RD_9_0.png","C_Dist_200_LN_8_LD_15_RN_7_RD_21_0.png","C_Dist_200_LN_9_LD_20_RN_4_RD_16_0.png"],["C_Dist_200_LN_1_LD_2_RN_21_RD_30_1.png","C_Dist_200_LN_13_LD_26_RN_14_RD_20_1.png","C_Dist_200_LN_3_LD_10_RN_11_RD_22_1.png","C_Dist_200_LN_3_LD_10_RN_14_RD_28_1.png","C_Dist_200_LN_3_LD_10_RN_7_RD_14_1.png","C_Dist_200_LN_3_LD_12_RN_9_RD_20_1.png","C_Dist_200_LN_3_LD_6_RN_14_RD_20_1.png","C_Dist_200_LN_5_LD_10_RN_14_RD_20_1.png","C_Dist_200_LN_6_LD_12_RN_7_RD_10_1.png","C_Dist_200_LN_6_LD_20_RN_11_RD_22_1.png","C_Dist_200_LN_7_LD_15_RN_18_RD_27_1.png","C_Dist_200_LN_9_LD_30_RN_13_RD_26_1.png"]],"dist200_I":[["I_Dist_200_LN_1_LD_2_RN_3_RD_10_0.png","I_Dist_200_LN_1_LD_3_RN_2_RD_15_0.png","I_Dist_200_LN_3_LD_4_RN_11_RD_20_0.png","I_Dist_200_LN_4_LD_5_RN_6_RD_10_0.png","I_Dist_200_LN_4_LD_6_RN_14_RD_30_0.png","I_Dist_200_LN_7_LD_10_RN_12_RD_24_0.png","I_Dist_200_LN_7_LD_10_RN_14_RD_28_0.png","I_Dist_200_LN_7_LD_10_RN_8_RD_16_0.png"],["I_Dist_200_LN_11_LD_20_RN_3_RD_4_1.png","I_Dist_200_LN_14_LD_30_RN_12_RD_18_1.png","I_Dist_200_LN_14_LD_30_RN_6_RD_9_1.png","I_Dist_200_LN_3_LD_10_RN_1_RD_2_1.png","I_Dist_200_LN_4_LD_30_RN_1_RD_3_1.png","I_Dist_200_LN_6_LD_20_RN_3_RD_6_1.png","I_Dist_200_LN_7_LD_15_RN_4_RD_6_1.png","I_Dist_200_LN_7_LD_15_RN_6_RD_9_1.png","I_Dist_200_LN_9_LD_15_RN_8_RD_10_1.png"]],"dist200_S":[["E_Dist_200_LN_3_LD_6_RN_3_RD_10_0.png"],["E_Dist_200_LN_3_LD_10_RN_3_RD_6_1.png"]],"dist300_C":[["C_Dist_300_LN_11_LD_22_RN_1_RD_5_0.png","C_Dist_300_LN_11_LD_22_RN_2_RD_10_0.png","C_Dist_300_LN_11_LD_22_RN_4_RD_20_0.png","C_Dist_300_LN_12_LD_24_RN_2_RD_10_0.png","C_Dist_300_LN_18_LD_20_RN_9_RD_15_0.png","C_Dist_300_LN_20_LD_25_RN_13_RD_26_0.png","C_Dist_300_LN_20_LD_25_RN_14_RD_28_0.png","C_Dist_300_LN_20_LD_25_RN_5_RD_10_0.png","C_Dist_300_LN_20_LD_25_RN_8_RD_16_0.png","C_Dist_300_LN_20_LD_25_RN_9_RD_18_0.png","C_Dist_300_LN_24_LD_30_RN_2_RD_4_0.png","C_Dist_300_LN_24_LD_30_RN_8_RD_16_0.png","C_Dist_300_LN_3_LD_6_RN_2_RD_10_0.png","C_Dist_300_LN_4_LD_10_RN_1_RD_10_0.png","C_Dist_300_LN_4_LD_5_RN_2_RD_4_0.png","C_Dist_300_LN_8_LD_16_RN_1_RD_5_0.png","C_Dist_300_LN_9_LD_10_RN_3_RD_5_0.png"],["C_Dist_300_LN_1_LD_20_RN_7_RD_20_1.png","C_Dist_300_LN_1_LD_3_RN_19_RD_30_1.png","C_Dist_300_LN_1_LD_30_RN_8_RD_24_1.png","C_Dist_300_LN_1_LD_5_RN_11_RD_22_1.png","C_Dist_300_LN_1_LD_5_RN_3_RD_6_1.png","C_Dist_300_LN_1_LD_5_RN_6_RD_12_1.png","C_Dist_300_LN_2_LD_10_RN_12_RD_24_1.png","C_Dist_300_LN_2_LD_20_RN_10_RD_25_1.png","C_Dist_300_LN_3_LD_12_RN_11_RD_20_1.png","C_Dist_300_LN_3_LD_6_RN_4_RD_5_1.png","C_Dist_300_LN_4_LD_20_RN_13_RD_26_1.png","C_Dist_300_LN_5_LD_25_RN_6_RD_12_1.png","C_Dist_300_LN_5_LD_25_RN_7_RD_14_1.png","C_Dist_300_LN_7_LD_14_RN_20_RD_25_1.png","C_Dist_300_LN_8_LD_15_RN_10_RD_12_1.png"]],"dist300_I":[["I_Dist_300_LN_1_LD_2_RN_2_RD_10_0.png","I_Dist_300_LN_1_LD_2_RN_3_RD_15_0.png","I_Dist_300_LN_2_LD_4_RN_6_RD_30_0.png","I_Dist_300_LN_3_LD_6_RN_4_RD_20_0.png","I_Dist_300_LN_4_LD_5_RN_6_RD_12_0.png","I_Dist_300_LN_4_LD_5_RN_8_RD_16_0.png","I_Dist_300_LN_7_LD_10_RN_8_RD_20_0.png","I_Dist_300_LN_8_LD_10_RN_14_RD_28_0.png","I_Dist_300_LN_8_LD_10_RN_9_RD_18_0.png"],["I_Dist_300_LN_13_LD_26_RN_12_RD_15_1.png","I_Dist_300_LN_4_LD_20_RN_2_RD_4_1.png"]],"dist300_S":[["E_Dist_300_LN_9_LD_12_RN_9_RD_20_0.png"],["E_Dist_300_LN_18_LD_30_RN_18_RD_20_1.png","E_Dist_300_LN_3_LD_10_RN_3_RD_5_1.png","E_Dist_300_LN_9_LD_20_RN_9_RD_12_1.png"]],"dist500_C":[["C_Dist_500_LN_10_LD_13_RN_7_RD_26_0.png","C_Dist_500_LN_10_LD_15_RN_4_RD_24_0.png","C_Dist_500_LN_12_LD_16_RN_3_RD_12_0.png","C_Dist_500_LN_12_LD_18_RN_4_RD_24_0.png","C_Dist_500_LN_15_LD_18_RN_5_RD_15_0.png","C_Dist_500_LN_15_LD_20_RN_1_RD_4_0.png","C_Dist_500_LN_18_LD_27_RN_1_RD_6_0.png","C_Dist_500_LN_20_LD_24_RN_1_RD_3_0.png","C_Dist_500_LN_20_LD_24_RN_3_RD_9_0.png","C_Dist_500_LN_20_LD_24_RN_7_RD_21_0.png","C_Dist_500_LN_20_LD_28_RN_3_RD_14_0.png","C_Dist_500_LN_21_LD_28_RN_6_RD_24_0.png","C_Dist_500_LN_22_LD_28_RN_2_RD_7_0.png","C_Dist_500_LN_25_LD_30_RN_9_RD_27_0.png","C_Dist_500_LN_4_LD_6_RN_1_RD_6_0.png","C_Dist_500_LN_5_LD_6_RN_2_RD_6_0.png","C_Dist_500_LN_6_LD_9_RN_1_RD_6_0.png","C_Dist_500_LN_7_LD_10_RN_1_RD_5_0.png","C_Dist_500_LN_8_LD_12_RN_1_RD_6_0.png","C_Dist_500_LN_8_LD_12_RN_4_RD_24_0.png"],["C_Dist_500_LN_1_LD_4_RN_12_RD_16_1.png","C_Dist_500_LN_1_LD_4_RN_9_RD_12_1.png","C_Dist_500_LN_1_LD_9_RN_11_RD_18_1.png","C_Dist_500_LN_10_LD_24_RN_22_RD_24_1.png","C_Dist_500_LN_2_LD_12_RN_10_RD_15_1.png","C_Dist_500_LN_2_LD_12_RN_12_RD_18_1.png","C_Dist_500_LN_2_LD_12_RN_4_RD_6_1.png","C_Dist_500_LN_2_LD_24_RN_7_RD_12_1.png","C_Dist_500_LN_2_LD_5_RN_18_RD_20_1.png","C_Dist_500_LN_2_LD_5_RN_9_RD_10_1.png","C_Dist_500_LN_2_LD_8_RN_12_RD_16_1.png","C_Dist_500_LN_2_LD_8_RN_21_RD_28_1.png","C_Dist_500_LN_3_LD_10_RN_4_RD_5_1.png","C_Dist_500_LN_3_LD_12_RN_15_RD_20_1.png","C_Dist_500_LN_3_LD_30_RN_6_RD_10_1.png","C_Dist_500_LN_3_LD_8_RN_14_RD_16_1.png","C_Dist_500_LN_4_LD_16_RN_15_RD_20_1.png","C_Dist_500_LN_4_LD_24_RN_12_RD_18_1.png","C_Dist_500_LN_5_LD_14_RN_6_RD_7_1.png","C_Dist_500_LN_7_LD_21_RN_20_RD_24_1.png","C_Dist_500_LN_7_LD_28_RN_12_RD_16_1.png","C_Dist_500_LN_7_LD_28_RN_9_RD_12_1.png","C_Dist_500_LN_9_LD_27_RN_20_RD_24_1.png"]],"dist500_I":[["I_Dist_500_LN_2_LD_3_RN_4_RD_24_0.png","I_Dist_500_LN_5_LD_6_RN_6_RD_18_0.png","I_Dist_500_LN_7_LD_8_RN_9_RD_24_0.png"],["I_Dist_500_LN_7_LD_21_RN_5_RD_6_1.png"]],"dist500_S":[["E_Dist_500_LN_6_LD_8_RN_6_RD_24_0.png"],["E_Dist_500_LN_2_LD_12_RN_2_RD_3_1.png","E_Dist_500_LN_6_LD_24_RN_6_RD_8_1.png"]]}},{"start_time":1551886957627,"click_time":1551886959702,"finger_time":1551886959040,"fix_duration":1305.523754477962,"trial":1,"RT":1413,"MT":662,"sideResp":2,"stimulus":[],"xmouse":[791,791,791,791,791,791,791,791,791,791,791,791,791,791,791,791,791,791,791,791,791,791,791,791,791,791,791,791,791,791,791,791,791,791,791,791,791,791,791,791,791,791,791,791,791,791,791,791,791,791,791,791,791,791,791,791,791,791,791,791,791,791,791,791,791,791,791,791,791,817,831,843,854,881,885,891,898,904,924,928,931,936,942,954,961,973,983,992,1002,1005,1010,1019,1026,1035,1045,1045,1045,1046,1050,1052,1055,1056,1057,1059],"ymouse":[641,641,641,641,641,641,641,641,641,641,641,641,641,641,641,641,641,641,641,641,641,641,641,641,641,641,641,641,641,641,641,641,641,641,641,641,641,641,641,641,641,641,641,641,641,641,641,641,641,641,641,641,641,641,641,641,641,641,641,641,641,641,641,641,641,641,641,640,636,592,568,537,506,436,403,371,333,300,229,210,195,182,169,143,134,122,111,104,95,94,94,94,98,101,101,101,101,101,98,94,90,88,83,78],"timestamp_mouse":[18,43,55,73,94,114,134,155,173,193,213,233,255,274,293,314,333,355,373,393,414,434,454,473,494,514,535,553,574,594,613,633,654,674,693,713,734,753,775,793,814,833,853,875,894,914,934,953,975,994,1015,1033,1054,1074,1093,1113,1135,1154,1173,1195,1215,1234,1254,1275,1293,1315,1333,1353,1373,1393,1413,1434,1454,1474,1493,1514,1534,1554,1574,1594,1613,1633,1653,1674,1693,1714,1733,1753,1774,1793,1814,1834,1854,1873,1893,1913,1933,1954,1974,1995,2014,2033,2053,2074],"xSR":741.5,"ySR":573.95,"xT1":424.9,"yT1":0,"xT2":1058.1,"yT2":0,"toosoon":0,"cond_shown":"Congruent","ratio_trial":100,"L_num":6,"L_den":12,"R_num":15,"R_den":25,"correct_side":2,"subjID":"SamuelArturoArizaRamos13","gender":"0","school":"6","age":"11"},{"start_time":1551886961763,"click_time":1551886963501,"finger_time":1551886963100,"fix_duration":861.0279764787767,"trial":2,"RT":1337,"MT":401,"sideResp":2,"stimulus":[],"xmouse":[781,781,781,781,781,781,781,781,781,781,781,781,781,781,781,781,781,781,781,781,781,781,781,781,781,781,781,781,781,781,781,781,781,781,781,781,781,781,781,781,781,781,781,781,781,781,781,781,781,781,781,781,781,781,781,781,781,781,781,781,781,781,781,782,804,832,862,915,933,950,963,974,990,999,1004,1009,1011,1014,1017,1018,1025,1038,1061,1073,1082,1089,1094],"ymouse":[637,637,637,637,637,637,637,637,637,637,637,637,637,637,637,637,637,637,637,637,637,637,637,637,637,637,637,637,637,637,637,637,637,637,637,637,637,637,637,637,637,637,637,637,637,637,637,637,637,637,637,637,637,637,637,637,637,637,637,637,637,637,637,633,612,580,547,473,426,382,341,268,227,209,194,183,167,164,158,156,157,145,128,120,113,104,91],"timestamp_mouse":[17,37,59,78,97,119,138,157,178,199,219,238,259,278,297,317,337,359,377,398,417,439,458,477,498,518,538,557,578,598,617,638,657,679,699,718,739,758,777,799,817,838,857,879,898,918,938,958,978,997,1017,1038,1059,1077,1098,1117,1138,1158,1177,1198,1218,1237,1258,1277,1298,1318,1337,1357,1378,1398,1418,1438,1458,1477,1498,1518,1538,1557,1578,1598,1618,1638,1658,1677,1697,1717,1737],"xSR":741.5,"ySR":573.95,"xT1":424.9,"yT1":0,"xT2":1058.1,"yT2":0,"toosoon":0,"cond_shown":"Incongruent","ratio_trial":100,"L_num":10,"L_den":25,"R_num":8,"R_den":16,"correct_side":2,"subjID":"SamuelArturoArizaRamos13","gender":"0","school":"6","age":"11"},{"start_time":1551886965705,"click_time":1551886967382,"finger_time":1551886966821,"fix_duration":983.4481933497269,"trial":3,"RT":1116,"MT":561,"sideResp":2,"stimulus":[],"xmouse":[790,790,790,790,790,790,790,790,790,790,790,790,790,790,790,790,790,790,790,790,790,790,790,790,790,790,790,790,790,790,790,790,790,790,790,790,790,790,790,790,790,790,790,790,790,790,790,790,790,790,790,790,790,791,831,868,896,925,959,1049,1092,1125,1157,1181,1212,1217,1220,1221,1222,1222,1222,1222,1221,1217,1208,1204,1197,1190,1183,1168,1163,1160,1159,1158],"ymouse":[652,652,652,652,652,652,652,652,652,652,652,652,652,652,652,652,652,652,652,652,652,652,652,652,652,652,652,652,652,652,652,652,652,652,652,652,652,652,652,652,652,652,652,652,652,652,652,652,652,652,652,652,651,651,602,552,515,475,430,311,245,196,153,108,42,28,21,17,17,17,17,16,15,14,14,14,15,20,23,32,38,43,46,49],"timestamp_mouse":[17,39,55,75,96,116,137,156,175,195,216,235,257,276,295,317,337,356,375,396,415,435,456,476,496,516,535,555,577,595,616,636,656,675,696,717,737,755,777,796,816,837,855,876,895,916,935,955,977,995,1015,1036,1055,1076,1095,1116,1136,1157,1176,1195,1215,1236,1255,1277,1296,1316,1335,1355,1376,1396,1417,1435,1455,1476,1495,1515,1536,1557,1575,1595,1615,1635,1657,1677],"xSR":741.5,"ySR":573.95,"xT1":424.9,"yT1":0,"xT2":1058.1,"yT2":0,"toosoon":0,"cond_shown":"Incongruent","ratio_trial":100,"L_num":17,"L_den":30,"R_num":10,"R_den":15,"correct_side":2,"subjID":"SamuelArturoArizaRamos13","gender":"0","school":"6","age":"11"},{"start_time":1551886970907,"click_time":1551886972841,"finger_time":1551886972261,"fix_duration":704.8587180227081,"trial":4,"RT":1354,"MT":580,"sideResp":2,"stimulus":[],"xmouse":[804,804,804,804,804,804,804,804,804,804,804,804,804,804,804,804,804,804,804,804,804,804,804,804,804,804,804,804,804,804,804,804,804,804,804,804,804,804,804,804,804,804,804,804,804,804,804,804,804,804,804,804,804,804,804,804,804,804,804,804,804,804,804,804,804,816,834,866,911,1015,1069,1111,1139,1160,1176,1182,1183,1185,1186,1188,1191,1191,1191,1191,1191,1191,1191,1191,1189,1185,1178,1172,1168,1166,1163,1159,1156],"ymouse":[628,628,628,628,628,628,628,628,628,628,628,628,628,628,628,628,628,628,628,628,628,628,628,628,628,628,628,628,628,628,628,628,628,628,628,628,628,628,628,628,628,628,628,628,628,628,628,628,628,628,628,628,628,628,628,628,628,628,628,628,628,628,628,628,627,609,585,545,482,338,270,200,152,117,74,64,62,62,61,58,56,52,49,48,48,48,48,48,48,49,50,53,56,57,58,59,62],"timestamp_mouse":[14,40,54,75,93,114,134,153,174,194,213,235,253,275,295,314,335,354,374,393,413,434,455,474,495,515,533,553,574,594,614,635,653,674,695,714,734,753,775,794,813,835,853,873,894,914,934,954,974,993,1013,1033,1054,1075,1095,1113,1134,1155,1173,1195,1215,1234,1254,1273,1293,1314,1333,1354,1373,1393,1413,1434,1453,1474,1493,1513,1534,1554,1574,1594,1613,1634,1654,1673,1695,1715,1733,1753,1773,1793,1813,1834,1853,1873,1893,1913,1934],"xSR":741.5,"ySR":573.95,"xT1":424.9,"yT1":0,"xT2":1058.1,"yT2":0,"toosoon":0,"cond_shown":"Incongruent","ratio_trial":200,"L_num":7,"L_den":10,"R_num":14,"R_den":28,"correct_side":1,"subjID":"SamuelArturoArizaRamos13","gender":"0","school":"6","age":"11"},{"start_time":1551886974131,"click_time":1551886975400,"finger_time":1551886974981,"fix_duration":250,"trial":5,"RT":850,"MT":419,"sideResp":2,"stimulus":[],"xmouse":[759,759,759,759,759,759,759,759,759,759,759,759,759,759,759,759,759,759,759,759,759,759,759,759,759,759,759,759,759,759,759,759,759,759,759,759,759,759,759,759,759,759,774,814,826,834,842,849,866,872,877,882,888,905,926,940,954,966,999,1017,1030,1043,1055,1070],"ymouse":[577,577,577,577,577,577,577,577,577,577,577,577,577,577,577,577,577,577,577,577,577,577,577,577,577,577,577,577,577,577,577,577,577,577,577,577,577,577,577,577,577,577,570,528,499,471,446,427,393,380,367,355,341,308,277,255,231,205,150,128,106,88,69,50],"timestamp_mouse":[10,31,53,70,89,110,130,150,170,189,211,231,249,269,289,310,330,351,369,389,410,430,449,470,490,509,530,550,570,590,611,630,650,671,690,711,730,751,769,789,810,829,850,870,890,909,929,950,969,989,1010,1030,1049,1070,1091,1109,1130,1150,1170,1190,1210,1230,1249,1269],"xSR":741.5,"ySR":573.95,"xT1":424.9,"yT1":0,"xT2":1058.1,"yT2":0,"toosoon":0,"cond_shown":"Congruent","ratio_trial":200,"L_num":7,"L_den":15,"R_num":18,"R_den":27,"correct_side":2,"subjID":"SamuelArturoArizaRamos13","gender":"0","school":"6","age":"11"},{"start_time":1551886978857,"click_time":1551886981601,"finger_time":1551886980201,"fix_duration":575.6222431936702,"trial":6,"RT":1344,"MT":1400,"sideResp":1,"stimulus":[],"xmouse":[785,785,785,785,785,784,783,779,772,771,771,771,771,771,771,771,771,771,771,771,771,770,769,769,769,769,769,769,769,769,769,769,769,769,769,769,769,769,769,769,769,769,769,769,769,769,769,769,769,769,769,769,769,769,769,769,769,769,769,769,769,769,769,769,771,783,801,845,880,901,920,935,948,968,977,980,983,984,984,984,984,984,984,984,984,984,982,967,953,938,920,901,869,852,837,824,811,799,785,785,785,785,784,784,783,783,782,779,778,775,771,764,736,720,696,672,648,592,555,534,519,503,491,486,484,482,481,481,481,481,481,481,481,480,479,474,471,467],"ymouse":[672,672,672,672,672,672,672,672,671,670,670,670,670,670,670,670,670,670,670,670,670,670,670,669,669,669,669,669,669,669,669,669,669,669,669,669,669,669,669,669,669,669,669,669,669,669,669,669,669,669,669,669,669,669,669,669,669,669,669,669,669,669,669,668,659,645,624,565,510,473,439,403,369,323,304,295,290,286,286,286,286,286,286,286,286,286,286,294,304,321,347,379,449,486,525,561,597,626,655,655,655,655,655,655,654,651,650,643,638,631,620,605,559,533,498,461,419,330,273,243,215,188,155,146,139,133,131,131,131,131,131,131,130,128,123,115,108,96],"timestamp_mouse":[11,23,43,63,85,103,123,143,164,183,203,224,244,265,283,304,323,344,363,385,404,423,445,464,484,505,524,543,564,583,603,625,644,664,684,703,724,744,763,785,804,824,844,864,883,905,925,944,964,985,1003,1023,1044,1063,1083,1103,1124,1143,1163,1183,1205,1223,1245,1263,1283,1303,1323,1344,1364,1383,1404,1423,1443,1463,1484,1504,1524,1544,1564,1585,1604,1623,1645,1663,1683,1704,1724,1744,1763,1784,1804,1823,1844,1863,1883,1904,1924,1943,1964,1984,2004,2023,2043,2063,2083,2103,2123,2144,2163,2183,2204,2223,2244,2263,2283,2304,2325,2344,2363,2383,2404,2424,2444,2463,2483,2504,2523,2544,2565,2583,2604,2625,2644,2663,2683,2704,2725,2744],"xSR":741.5,"ySR":573.95,"xT1":424.9,"yT1":0,"xT2":1058.1,"yT2":0,"toosoon":0,"cond_shown":"Congruent","ratio_trial":100,"L_num":4,"L_den":10,"R_num":15,"R_den":30,"correct_side":2,"subjID":"SamuelArturoArizaRamos13","gender":"0","school":"6","age":"11"},{"start_time":1551886985202,"click_time":1551886987241,"finger_time":1551886986640,"fix_duration":1220.385637211496,"trial":7,"RT":1438,"MT":601,"sideResp":2,"stimulus":[],"xmouse":[777,777,777,777,777,777,777,777,777,777,777,777,777,777,777,777,777,777,777,777,777,777,777,777,777,777,777,777,777,777,777,777,777,777,777,777,777,777,777,777,777,777,777,777,777,777,777,777,777,777,777,777,777,777,777,777,777,777,777,777,777,777,777,777,777,777,777,777,777,777,797,812,828,841,853,875,890,905,916,922,935,939,945,952,966,971,979,986,991,998,1010,1014,1020,1024,1033,1038,1044,1048,1054,1062,1061,1066],"ymouse":[626,626,626,626,626,626,626,626,626,626,626,626,626,626,626,626,626,626,626,626,626,626,626,626,626,626,626,626,626,626,626,626,626,626,626,626,626,626,626,626,626,626,626,626,626,626,626,626,626,626,626,626,626,626,626,626,626,626,626,626,626,626,626,626,626,626,626,626,626,624,591,560,528,500,471,412,378,349,326,308,281,274,268,261,248,240,233,225,218,206,192,186,177,168,152,143,134,127,120,105,104,96],"timestamp_mouse":[34,38,58,79,98,119,138,159,179,198,218,240,259,278,300,318,339,359,379,399,418,439,459,480,498,519,540,558,579,599,618,640,658,678,700,719,739,759,778,799,818,838,859,878,900,918,940,958,979,999,1019,1038,1060,1078,1098,1119,1138,1159,1179,1199,1220,1239,1259,1279,1299,1320,1339,1358,1379,1398,1418,1438,1458,1478,1498,1518,1539,1559,1579,1598,1619,1639,1658,1679,1699,1718,1738,1758,1779,1798,1819,1839,1858,1879,1899,1918,1939,1959,1979,1999,2018,2039],"xSR":741.5,"ySR":573.95,"xT1":424.9,"yT1":0,"xT2":1058.1,"yT2":0,"toosoon":0,"cond_shown":"Congruent","ratio_trial":300,"L_num":1,"L_den":20,"R_num":7,"R_den":20,"correct_side":2,"subjID":"SamuelArturoArizaRamos13","gender":"0","school":"6","age":"11"},{"start_time":1551886988272,"click_time":1551886989701,"finger_time":1551886989481,"fix_duration":250,"trial":8,"RT":1209,"MT":220,"sideResp":1,"stimulus":[],"xmouse":[810,810,810,810,810,810,810,810,810,810,810,810,810,810,810,810,810,810,810,810,810,810,810,810,810,810,810,810,810,810,810,810,810,810,810,810,810,810,810,810,810,810,810,810,810,810,810,810,810,810,810,810,810,810,810,809,800,779,767,759,748,733,723,711,693,673,634,600,578,557,538,501],"ymouse":[622,622,622,622,622,622,622,622,622,622,622,622,622,622,622,622,622,622,622,622,622,622,622,622,622,622,622,622,622,622,622,622,622,622,622,622,622,622,622,622,622,622,622,622,622,622,622,622,622,622,622,622,622,622,622,622,617,601,591,577,561,520,492,463,421,380,291,225,180,143,112,58],"timestamp_mouse":[11,32,49,68,88,109,129,149,169,188,208,228,248,269,288,308,329,349,368,389,410,428,450,468,488,509,528,549,568,588,609,628,649,670,690,709,728,748,768,788,808,830,849,869,890,909,929,949,969,989,1008,1029,1048,1068,1090,1109,1129,1149,1168,1189,1209,1228,1248,1269,1289,1309,1329,1349,1368,1389,1408,1429],"xSR":741.5,"ySR":573.95,"xT1":424.9,"yT1":0,"xT2":1058.1,"yT2":0,"toosoon":0,"cond_shown":"Congruent","ratio_trial":300,"L_num":20,"L_den":25,"R_num":13,"R_den":26,"correct_side":1,"subjID":"SamuelArturoArizaRamos13","gender":"0","school":"6","age":"11"},{"start_time":1551886991183,"click_time":1551886993081,"finger_time":1551886992520,"fix_duration":360.87422439063965,"trial":9,"RT":1337,"MT":561,"sideResp":1,"stimulus":[],"xmouse":[773,773,773,774,778,781,783,784,784,784,784,784,784,784,784,784,784,784,784,784,784,784,784,784,784,784,784,784,784,784,784,784,784,784,784,784,784,784,784,784,784,784,784,784,784,784,784,784,784,784,784,784,784,784,784,784,784,784,784,784,784,784,784,784,781,774,740,716,694,672,652,614,602,590,578,560,550,540,533,528,520,514,512,511,509,506,504,504,504,504,504,504,503,502,500],"ymouse":[630,630,630,631,631,631,631,631,631,631,631,631,631,631,631,631,631,631,631,631,631,631,631,631,631,631,631,631,631,631,631,631,631,631,631,631,631,631,631,631,631,631,631,631,631,631,631,631,631,631,631,631,631,631,631,631,631,631,631,631,631,631,631,631,622,607,537,495,450,406,367,285,254,230,207,175,161,149,138,133,125,122,120,117,115,113,111,111,111,111,111,111,108,104,99],"timestamp_mouse":[34,38,57,78,98,118,137,158,179,198,217,237,258,279,297,318,338,359,377,397,419,437,459,477,497,519,537,559,577,598,618,637,658,679,699,717,737,757,778,798,818,837,858,878,899,919,937,958,979,998,1017,1039,1057,1077,1098,1119,1137,1157,1178,1197,1218,1237,1258,1277,1297,1317,1337,1358,1378,1398,1417,1437,1458,1477,1497,1518,1537,1558,1578,1598,1618,1637,1658,1679,1698,1718,1738,1758,1778,1798,1818,1839,1857,1878,1898],"xSR":741.5,"ySR":573.95,"xT1":424.9,"yT1":0,"xT2":1058.1,"yT2":0,"toosoon":0,"cond_shown":"Congruent","ratio_trial":100,"L_num":8,"L_den":16,"R_num":2,"R_den":5,"correct_side":1,"subjID":"SamuelArturoArizaRamos13","gender":"0","school":"6","age":"11"},{"start_time":1551886994453,"click_time":1551886996101,"finger_time":1551886995780,"fix_duration":370.3479771087577,"trial":10,"RT":1327,"MT":321,"sideResp":1,"stimulus":[],"xmouse":[809,809,809,809,809,809,809,809,809,809,809,809,809,809,809,809,809,809,809,809,809,809,809,808,806,805,804,804,803,803,801,801,801,800,800,800,800,800,800,800,800,800,800,800,800,800,800,800,800,800,800,800,800,800,800,800,800,800,800,800,800,800,799,790,783,773,753,725,711,696,687,677,665,647,633,614,602,578,567,554,540,529,519],"ymouse":[637,637,637,637,637,637,637,637,637,637,637,637,637,637,637,637,637,637,637,637,637,637,637,637,637,637,637,637,637,636,636,636,636,636,636,636,636,636,636,636,636,636,636,636,636,636,636,636,636,636,636,636,636,636,636,636,636,636,636,636,636,636,633,620,604,578,535,470,439,403,370,344,318,259,230,203,177,126,110,96,85,79,75],"timestamp_mouse":[10,31,48,68,87,108,129,148,168,187,208,228,248,269,288,309,328,348,367,388,409,429,448,467,487,507,529,548,568,587,607,628,648,668,688,707,727,748,767,788,808,829,849,868,889,908,928,947,967,989,1008,1028,1047,1068,1087,1107,1128,1148,1167,1188,1209,1227,1247,1267,1289,1308,1327,1348,1367,1388,1409,1428,1447,1467,1489,1509,1528,1548,1567,1587,1607,1628,1648],"xSR":741.5,"ySR":573.95,"xT1":424.9,"yT1":0,"xT2":1058.1,"yT2":0,"toosoon":0,"cond_shown":"Incongruent","ratio_trial":100,"L_num":13,"L_den":26,"R_num":6,"R_den":10,"correct_side":2,"subjID":"SamuelArturoArizaRamos13","gender":"0","school":"6","age":"11"},{"start_time":1551886997413,"click_time":1551886999380,"finger_time":1551886997481,"fix_duration":250,"trial":11,"RT":68,"MT":1899,"sideResp":2,"stimulus":[],"xmouse":[822,822,822,822,822,822,823,823,823,823,823,823,823,823,823,821,819,818,818,817,815,814,814,812,812,812,811,811,811,810,810,810,810,810,810,810,810,810,810,810,810,810,810,810,810,810,810,810,808,801,797,793,791,790,785,783,780,779,779,779,779,779,779,779,779,779,779,779,779,779,779,779,781,787,816,834,853,870,889,908,940,953,964,968,972,979,981,982,982,987,991,997,1008,1018,1025,1043,1050,1055,1059],"ymouse":[668,670,673,676,678,680,680,680,680,680,680,675,672,669,667,663,660,657,653,653,647,644,642,639,637,632,629,626,624,621,621,621,621,621,621,621,621,621,621,621,621,621,621,621,621,621,621,621,621,617,615,613,612,611,610,609,608,608,608,608,608,608,608,608,608,608,608,608,608,608,608,607,603,594,561,536,510,481,447,389,318,280,241,209,176,143,136,132,130,119,109,99,85,71,58,33,26,20,19],"timestamp_mouse":[12,35,48,68,88,107,127,147,168,189,208,227,247,268,287,307,328,348,368,387,408,427,448,468,487,507,527,548,568,588,607,629,647,668,688,709,728,749,767,788,809,828,847,868,888,908,928,947,968,988,1008,1027,1048,1067,1088,1107,1128,1147,1168,1188,1207,1228,1249,1267,1288,1308,1328,1348,1369,1387,1407,1427,1448,1468,1488,1507,1528,1548,1568,1587,1608,1627,1648,1668,1687,1707,1727,1747,1767,1788,1807,1828,1848,1867,1887,1907,1928,1948,1967],"xSR":741.5,"ySR":573.95,"xT1":424.9,"yT1":0,"xT2":1058.1,"yT2":0,"toosoon":0,"cond_shown":"Congruent","ratio_trial":300,"L_num":1,"L_den":5,"R_num":11,"R_den":22,"correct_side":2,"subjID":"SamuelArturoArizaRamos13","gender":"0","school":"6","age":"11"},{"start_time":1551887001399,"click_time":1551887002962,"finger_time":1551887002420,"fix_duration":1137.6898757621423,"trial":12,"RT":1021,"MT":542,"sideResp":2,"stimulus":[],"xmouse":[788,788,788,788,788,788,788,788,788,788,788,788,788,788,788,788,788,788,788,788,788,788,788,788,788,788,788,788,788,788,788,788,788,788,788,788,788,788,788,788,788,788,788,788,788,788,788,788,788,794,809,851,863,878,891,898,908,914,916,919,929,935,941,946,953,970,979,990,1002,1011,1026,1036,1042,1046,1047,1049,1050,1053,1059],"ymouse":[654,654,654,654,654,654,654,654,654,654,654,654,654,654,654,654,654,654,654,654,654,654,654,654,654,654,654,654,654,654,654,654,654,654,654,654,654,654,654,654,654,654,654,654,654,654,654,654,653,648,634,573,540,501,462,429,361,333,314,302,277,262,249,237,221,179,161,142,121,105,79,59,51,46,44,42,42,42,42],"timestamp_mouse":[9,32,42,61,82,101,121,142,161,181,202,221,242,261,282,302,322,341,361,381,402,422,441,462,482,502,521,543,561,581,603,622,643,663,682,701,722,742,761,782,801,821,842,861,881,902,922,941,961,982,1001,1021,1041,1061,1081,1101,1121,1142,1162,1182,1201,1221,1242,1262,1282,1302,1321,1341,1362,1382,1402,1422,1442,1462,1482,1502,1521,1542,1562],"xSR":741.5,"ySR":573.95,"xT1":424.9,"yT1":0,"xT2":1058.1,"yT2":0,"toosoon":0,"cond_shown":"Congruent","ratio_trial":200,"L_num":5,"L_den":10,"R_num":14,"R_den":20,"correct_side":2,"subjID":"SamuelArturoArizaRamos13","gender":"0","school":"6","age":"11"},{"start_time":1551887003973,"click_time":1551887005900,"finger_time":1551887005420,"fix_duration":250,"trial":13,"RT":1447,"MT":480,"sideResp":2,"stimulus":[],"xmouse":[802,802,802,802,802,802,802,802,802,802,802,802,802,802,802,802,802,802,802,802,802,802,802,802,802,802,802,802,802,802,802,802,802,802,802,802,802,802,802,802,802,802,802,802,802,802,802,802,802,802,802,802,802,802,802,802,802,802,802,802,802,802,802,802,802,802,802,802,802,802,805,833,861,878,894,906,932,944,957,968,978,995,999,1004,1006,1011,1021,1033,1044,1052,1058,1062,1062,1062,1062,1063,1068],"ymouse":[642,642,642,642,642,642,642,642,642,642,642,642,642,642,642,642,642,642,642,642,642,642,642,642,642,642,642,642,642,642,642,642,642,642,642,642,642,642,642,642,642,642,642,642,642,642,642,642,642,642,642,642,642,642,642,642,642,642,642,642,642,642,642,642,642,642,642,642,642,642,636,597,544,507,468,432,362,329,298,274,251,214,204,190,183,176,155,143,129,118,109,101,101,101,101,100,99],"timestamp_mouse":[7,29,47,68,88,108,127,147,167,189,207,227,248,268,287,307,327,348,367,389,408,428,447,467,489,508,528,547,569,588,607,629,649,667,688,708,728,747,769,789,807,827,847,868,888,907,927,948,968,987,1008,1029,1048,1068,1088,1108,1128,1147,1167,1188,1209,1227,1247,1268,1289,1308,1327,1348,1367,1388,1407,1427,1447,1468,1488,1507,1528,1547,1568,1587,1607,1627,1648,1668,1687,1707,1727,1747,1768,1788,1807,1828,1847,1867,1888,1908,1927],"xSR":741.5,"ySR":573.95,"xT1":424.9,"yT1":0,"xT2":1058.1,"yT2":0,"toosoon":0,"cond_shown":"Incongruent","ratio_trial":100,"L_num":6,"L_den":10,"R_num":13,"R_den":26,"correct_side":1,"subjID":"SamuelArturoArizaRamos13","gender":"0","school":"6","age":"11"},{"start_time":1551887007478,"click_time":1551887009000,"finger_time":1551887008801,"fix_duration":797.7655399689318,"trial":14,"RT":1323,"MT":199,"sideResp":2,"stimulus":[],"xmouse":[814,814,814,814,814,814,814,814,814,814,814,814,814,814,814,814,814,814,814,814,814,814,814,814,814,814,814,814,814,814,814,814,814,814,814,814,814,814,814,814,814,814,814,814,814,814,814,814,814,814,814,814,814,814,814,814,814,814,814,814,814,814,814,814,817,824,857,871,886,901,913,950,970,997,1025,1044,1072],"ymouse":[613,613,613,613,613,613,613,613,613,613,613,613,613,613,613,613,613,613,613,613,613,613,613,613,613,613,613,613,613,613,613,613,613,613,613,613,613,613,613,613,613,613,613,613,613,613,613,613,613,613,613,613,613,613,613,613,613,613,613,613,613,613,613,613,609,599,547,521,490,458,427,352,307,263,211,170,95],"timestamp_mouse":[10,37,42,63,83,102,123,143,162,183,204,222,244,263,284,302,322,344,362,383,402,423,442,462,483,504,522,544,564,583,603,623,643,663,682,703,723,742,763,783,802,824,842,862,883,902,924,943,963,982,1002,1024,1042,1062,1083,1104,1123,1142,1163,1182,1203,1222,1243,1263,1282,1303,1323,1342,1363,1382,1402,1423,1442,1463,1482,1503,1522],"xSR":741.5,"ySR":573.95,"xT1":424.9,"yT1":0,"xT2":1058.1,"yT2":0,"toosoon":0,"cond_shown":"Congruent","ratio_trial":300,"L_num":4,"L_den":20,"R_num":13,"R_den":26,"correct_side":2,"subjID":"SamuelArturoArizaRamos13","gender":"0","school":"6","age":"11"},{"start_time":1551887010842,"click_time":1551887012601,"finger_time":1551887012081,"fix_duration":1180.5909792695006,"trial":15,"RT":1239,"MT":520,"sideResp":2,"stimulus":[],"xmouse":[780,780,780,780,780,780,780,780,780,780,780,780,780,780,780,780,780,780,780,780,780,780,780,780,780,780,780,780,780,780,780,780,780,780,780,780,780,780,780,780,780,780,780,780,780,780,780,780,780,780,780,780,780,780,780,780,780,785,810,815,833,848,876,892,908,926,947,968,1002,1020,1025,1028,1032,1033,1036,1041,1046,1051,1054,1056,1059,1060,1065,1068,1070,1072,1073,1074],"ymouse":[653,653,653,653,653,653,653,653,653,653,653,653,653,653,653,653,653,653,653,653,653,653,653,653,653,653,653,653,653,653,653,653,653,653,653,653,653,653,653,653,653,653,653,653,653,653,653,653,653,653,653,653,653,653,653,653,653,645,613,608,587,568,532,510,486,462,435,408,362,336,325,318,309,304,297,286,273,250,227,212,200,186,154,139,124,114,105,95],"timestamp_mouse":[19,40,59,78,100,120,139,158,179,198,220,239,260,279,299,320,339,359,379,398,419,440,459,479,500,518,539,560,579,599,619,639,659,679,698,720,738,759,779,799,819,840,858,878,900,920,939,959,979,1000,1019,1040,1059,1078,1099,1120,1140,1158,1179,1198,1219,1239,1258,1278,1298,1318,1340,1359,1380,1399,1418,1438,1458,1479,1498,1519,1540,1558,1579,1598,1618,1639,1658,1678,1699,1719,1738,1758],"xSR":741.5,"ySR":573.95,"xT1":424.9,"yT1":0,"xT2":1058.1,"yT2":0,"toosoon":0,"cond_shown":"Incongruent","ratio_trial":300,"L_num":1,"L_den":2,"R_num":2,"R_den":10,"correct_side":1,"subjID":"SamuelArturoArizaRamos13","gender":"0","school":"6","age":"11"},{"start_time":1551887015369,"click_time":1551887017141,"finger_time":1551887016822,"fix_duration":1346.0422117882206,"trial":16,"RT":1453,"MT":319,"sideResp":2,"stimulus":[],"xmouse":[769,769,769,769,769,769,769,769,769,769,769,769,769,769,769,769,769,769,769,769,769,769,769,769,769,769,769,769,769,769,769,769,769,769,769,769,769,769,769,769,769,769,769,769,769,769,769,769,769,769,769,769,769,769,769,769,769,769,769,769,769,769,769,769,769,769,769,769,769,769,769,774,791,806,820,834,864,878,896,914,936,955,982,1004,1019,1032,1051,1057,1063],"ymouse":[610,610,610,610,610,610,610,610,610,610,610,610,610,610,610,610,610,610,610,610,610,610,610,610,610,610,610,610,610,610,610,610,610,610,610,610,610,610,610,610,610,610,610,610,610,610,610,610,610,610,610,610,610,610,610,610,610,610,610,610,610,610,610,610,610,610,610,610,610,610,609,598,565,536,507,476,411,382,348,319,287,255,193,147,121,102,75,63,54],"timestamp_mouse":[11,31,51,72,92,111,132,151,172,191,211,233,251,272,292,311,332,351,373,393,412,433,452,472,491,512,532,551,571,593,611,632,651,672,691,711,732,752,772,792,811,832,851,873,892,913,931,951,972,992,1011,1032,1051,1073,1093,1113,1132,1153,1171,1191,1212,1231,1251,1272,1292,1311,1331,1352,1371,1391,1411,1431,1453,1472,1493,1512,1532,1551,1571,1591,1612,1632,1653,1672,1691,1712,1731,1751,1772],"xSR":741.5,"ySR":573.95,"xT1":424.9,"yT1":0,"xT2":1058.1,"yT2":0,"toosoon":0,"cond_shown":"Incongruent","ratio_trial":200,"L_num":4,"L_den":5,"R_num":6,"R_den":10,"correct_side":1,"subjID":"SamuelArturoArizaRamos13","gender":"0","school":"6","age":"11"},{"start_time":1551887021685,"click_time":1551887023400,"finger_time":1551887023101,"fix_duration":864.425200690649,"trial":17,"RT":1416,"MT":299,"sideResp":2,"stimulus":[],"xmouse":[773,773,773,773,773,773,773,773,773,773,773,773,773,773,773,773,773,773,773,773,773,773,773,773,773,773,773,773,773,773,773,773,773,773,773,773,773,773,773,773,773,773,773,773,773,773,773,773,773,773,773,773,773,773,773,773,773,773,773,773,773,773,773,773,773,773,773,773,773,774,813,842,868,882,879,905,919,940,954,971,1000,1012,1022,1034,1047,1074],"ymouse":[619,619,619,619,619,619,619,619,619,619,619,619,619,619,619,619,619,619,619,619,619,619,619,619,619,619,619,619,619,619,619,619,619,619,619,619,619,619,619,619,619,619,619,619,619,619,619,619,619,619,619,619,619,619,619,619,619,619,619,619,619,619,619,619,619,619,619,619,619,618,564,525,490,464,464,440,414,365,337,305,248,219,193,165,131,76],"timestamp_mouse":[17,36,57,77,97,116,135,156,175,196,216,236,255,276,297,315,337,356,376,397,416,436,456,477,495,516,536,556,577,595,616,635,656,675,696,716,736,755,777,795,817,835,856,876,895,916,935,955,977,996,1015,1037,1056,1076,1097,1116,1136,1156,1176,1197,1215,1235,1255,1277,1296,1316,1336,1355,1377,1395,1415,1435,1456,1476,1495,1515,1536,1556,1576,1595,1615,1635,1656,1676,1697,1715],"xSR":741.5,"ySR":573.95,"xT1":424.9,"yT1":0,"xT2":1058.1,"yT2":0,"toosoon":0,"cond_shown":"Congruent","ratio_trial":300,"L_num":3,"L_den":6,"R_num":4,"R_den":5,"correct_side":2,"subjID":"SamuelArturoArizaRamos13","gender":"0","school":"6","age":"11"},{"start_time":1551887025797,"click_time":1551887027262,"finger_time":1551887026720,"fix_duration":1376.0713935910028,"trial":18,"RT":923,"MT":542,"sideResp":2,"stimulus":[],"xmouse":[821,821,821,821,821,821,821,821,821,821,821,821,821,821,821,821,821,821,821,821,821,821,821,821,820,819,812,812,812,812,812,812,812,812,812,812,812,812,812,812,814,814,814,815,816,824,843,848,857,870,901,908,914,922,928,934,948,958,969,980,990,1030,1047,1064,1079,1102,1114,1121,1128,1131,1133,1136,1137,1138],"ymouse":[634,634,634,634,634,634,634,634,634,634,634,634,634,634,634,634,634,634,634,633,629,628,628,628,628,628,629,629,629,629,629,629,629,629,629,629,629,629,629,629,629,629,629,629,629,632,633,632,626,621,603,597,588,579,570,561,543,529,512,493,465,383,346,312,276,212,185,167,152,141,126,109,102,98],"timestamp_mouse":[11,33,44,64,83,103,124,143,165,184,203,224,244,263,284,304,324,343,363,384,404,423,443,463,483,503,524,544,563,584,604,624,643,663,684,704,724,743,763,783,805,824,843,863,884,903,923,945,964,983,1005,1023,1044,1064,1083,1104,1123,1143,1164,1183,1203,1223,1244,1264,1284,1305,1323,1343,1363,1383,1403,1423,1443,1465],"xSR":741.5,"ySR":573.95,"xT1":424.9,"yT1":0,"xT2":1058.1,"yT2":0,"toosoon":0,"cond_shown":"Incongruent","ratio_trial":200,"L_num":4,"L_den":6,"R_num":14,"R_den":30,"correct_side":1,"subjID":"SamuelArturoArizaRamos13","gender":"0","school":"6","age":"11"},{"start_time":1551887029972,"click_time":1551887031880,"finger_time":1551887031460,"fix_duration":250,"trial":19,"RT":1488,"MT":420,"sideResp":1,"stimulus":[],"xmouse":[829,829,827,825,824,823,819,817,816,812,809,803,802,802,802,802,802,802,802,802,802,802,802,802,802,802,802,802,802,802,802,802,802,802,802,802,802,802,802,802,802,802,802,802,802,802,802,801,798,798,798,798,798,798,798,798,798,798,798,798,798,798,798,798,798,798,798,798,798,798,797,797,772,756,743,732,713,704,691,681,663,632,614,602,590,576,558,522,506,491,477,444,436,434,431,431],"ymouse":[626,626,626,626,627,627,628,629,630,631,632,635,635,635,635,635,635,635,635,635,635,635,635,635,635,635,635,635,635,635,635,635,635,635,635,635,635,635,635,635,635,635,635,635,635,635,635,636,636,636,636,636,636,636,636,636,636,636,636,636,636,636,636,636,636,636,636,636,636,636,636,636,602,583,564,545,508,490,473,459,436,390,353,329,303,279,257,209,187,168,149,117,110,104,100,98],"timestamp_mouse":[10,34,49,68,89,109,129,148,168,189,210,229,248,269,289,309,328,350,368,389,410,429,450,468,489,510,528,548,569,588,609,628,648,670,690,709,729,748,769,789,808,829,850,868,889,909,928,948,968,988,1008,1030,1048,1069,1089,1110,1128,1148,1168,1190,1208,1229,1248,1269,1289,1309,1329,1348,1368,1388,1408,1429,1448,1468,1488,1509,1529,1548,1569,1588,1609,1629,1648,1669,1689,1708,1728,1748,1768,1789,1810,1829,1848,1869,1889,1908],"xSR":741.5,"ySR":573.95,"xT1":424.9,"yT1":0,"xT2":1058.1,"yT2":0,"toosoon":0,"cond_shown":"Incongruent","ratio_trial":200,"L_num":11,"L_den":20,"R_num":3,"R_den":4,"correct_side":2,"subjID":"SamuelArturoArizaRamos13","gender":"0","school":"6","age":"11"},{"start_time":1551887033433,"click_time":1551887034761,"finger_time":1551887034401,"fix_duration":250,"trial":20,"RT":968,"MT":360,"sideResp":2,"stimulus":[],"xmouse":[764,764,764,764,764,764,764,764,764,764,764,764,764,764,764,764,764,764,764,764,764,764,764,764,764,764,764,764,764,764,764,764,764,764,764,764,764,764,764,764,764,764,764,765,778,786,794,807,828,835,842,849,858,874,900,914,926,936,958,969,980,994,1006,1031,1047,1058,1067],"ymouse":[622,622,622,622,622,622,622,622,622,622,622,622,622,622,622,622,622,622,622,622,622,622,622,622,622,622,622,622,622,622,622,622,622,622,622,622,622,622,622,622,622,622,622,622,617,608,595,580,540,526,508,493,474,450,398,371,345,322,276,257,241,217,191,134,103,72,53],"timestamp_mouse":[19,34,48,68,88,108,127,149,168,189,207,227,248,268,288,309,328,349,369,387,407,428,449,467,488,508,528,547,569,588,607,628,649,667,687,709,727,747,769,788,808,828,847,868,888,908,928,947,968,987,1008,1028,1047,1068,1087,1108,1127,1148,1168,1187,1208,1227,1248,1267,1288,1308,1328],"xSR":741.5,"ySR":573.95,"xT1":424.9,"yT1":0,"xT2":1058.1,"yT2":0,"toosoon":0,"cond_shown":"Congruent","ratio_trial":100,"L_num":1,"L_den":2,"R_num":3,"R_den":5,"correct_side":2,"subjID":"SamuelArturoArizaRamos13","gender":"0","school":"6","age":"11"},{"start_time":1551887036419,"click_time":1551887038440,"finger_time":1551887038001,"fix_duration":656.5928403536725,"trial":21,"RT":1582,"MT":439,"sideResp":2,"stimulus":[],"xmouse":[782,782,782,782,782,782,782,782,782,782,782,782,782,782,782,782,782,782,782,782,782,782,782,782,782,782,782,782,782,782,782,782,782,782,782,782,782,782,782,782,782,782,782,782,782,782,782,782,782,782,782,782,782,782,782,782,782,782,782,782,782,782,782,782,782,782,782,782,782,782,782,782,782,782,782,782,788,804,823,860,883,888,889,889,889,889,889,889,890,893,909,920,935,950,978,991,1005,1021,1042,1063,1113,1131],"ymouse":[645,645,645,645,645,645,645,645,645,645,645,645,645,645,645,645,645,645,645,645,645,645,645,645,645,645,645,645,645,645,645,645,645,645,645,645,645,645,645,645,645,645,645,645,645,645,645,645,645,645,645,645,645,645,645,645,645,645,645,645,645,645,645,645,645,645,645,645,645,645,645,645,645,645,645,645,640,629,611,563,532,524,524,524,524,524,524,524,521,519,492,468,435,396,326,292,261,234,207,178,110,83],"timestamp_mouse":[10,31,43,61,82,102,123,142,162,181,203,221,242,261,283,301,321,341,362,382,403,423,441,461,482,502,521,543,563,581,602,622,641,662,682,701,721,741,763,781,801,822,842,863,881,902,922,941,962,982,1001,1022,1041,1062,1081,1101,1122,1141,1162,1182,1201,1222,1241,1262,1281,1302,1322,1342,1361,1381,1402,1421,1442,1463,1482,1501,1521,1542,1561,1582,1601,1622,1643,1661,1682,1701,1721,1741,1761,1781,1801,1821,1842,1862,1882,1902,1921,1942,1962,1982,2002,2021],"xSR":741.5,"ySR":573.95,"xT1":424.9,"yT1":0,"xT2":1058.1,"yT2":0,"toosoon":0,"cond_shown":"Incongruent","ratio_trial":300,"L_num":2,"L_den":4,"R_num":6,"R_den":30,"correct_side":1,"subjID":"SamuelArturoArizaRamos13","gender":"0","school":"6","age":"11"},{"start_time":1551887040897,"click_time":1551887043041,"finger_time":1551887042382,"fix_duration":776.1495594570794,"trial":22,"RT":1485,"MT":659,"sideResp":1,"stimulus":[],"xmouse":[810,810,810,810,810,810,810,810,810,810,810,810,810,810,810,810,810,810,810,810,810,810,810,810,810,810,810,810,810,810,810,810,810,810,810,810,810,810,810,810,810,810,810,810,810,810,810,810,810,810,810,810,810,810,810,810,810,810,810,810,810,810,810,810,810,810,810,810,810,810,810,797,779,764,748,720,675,658,641,626,612,606,602,590,576,558,511,502,495,488,476,472,471,471,471,471,471,471,471,471,471,471,471,471,471,471,471,470],"ymouse":[644,644,644,644,644,644,644,644,644,644,644,644,644,644,644,644,644,644,644,644,644,644,644,644,644,644,644,644,644,644,644,644,644,644,644,644,644,644,644,644,644,644,644,644,644,644,644,644,644,644,644,644,644,644,644,644,644,644,644,644,644,644,644,644,644,644,644,644,644,644,642,621,599,578,558,519,460,426,390,354,298,270,242,214,187,166,118,112,109,107,103,102,100,100,100,100,100,100,100,100,100,100,100,100,100,100,100,98],"timestamp_mouse":[15,36,44,64,84,104,124,143,164,184,204,223,243,263,283,303,324,344,364,383,404,424,444,463,485,505,525,544,564,583,604,624,644,664,683,704,724,743,763,785,803,824,843,863,884,903,924,943,964,985,1004,1023,1044,1063,1084,1103,1124,1144,1164,1183,1204,1223,1243,1263,1283,1304,1323,1344,1363,1383,1404,1423,1444,1463,1485,1504,1525,1544,1564,1583,1604,1624,1644,1664,1684,1704,1724,1743,1764,1783,1804,1823,1843,1863,1884,1905,1923,1943,1964,1984,2004,2023,2043,2064,2085,2104,2124,2143],"xSR":741.5,"ySR":573.95,"xT1":424.9,"yT1":0,"xT2":1058.1,"yT2":0,"toosoon":0,"cond_shown":"Congruent","ratio_trial":200,"L_num":3,"L_den":6,"R_num":14,"R_den":20,"correct_side":2,"subjID":"SamuelArturoArizaRamos13","gender":"0","school":"6","age":"11"},{"start_time":1551887044566,"click_time":1551887046260,"finger_time":1551887045800,"fix_duration":463.75675175613105,"trial":23,"RT":1234,"MT":460,"sideResp":2,"stimulus":[],"xmouse":[798,798,798,796,795,795,793,791,790,788,786,786,785,783,782,781,780,780,779,778,777,776,776,776,776,776,776,776,776,776,776,776,776,776,776,776,776,776,776,776,776,776,776,776,776,776,776,776,776,776,776,776,776,776,776,776,776,776,783,798,819,853,900,919,936,953,970,1001,1011,1020,1027,1030,1036,1041,1048,1051,1053,1060,1062,1063,1066,1070,1077,1079,1080],"ymouse":[642,642,642,642,642,642,641,641,640,639,639,638,638,638,636,636,636,636,635,635,635,634,634,634,634,634,634,634,634,634,634,634,634,634,634,634,634,634,634,634,634,634,634,634,634,634,634,634,634,634,634,634,634,634,634,634,634,633,630,623,612,582,525,493,459,423,386,326,303,282,266,254,223,210,197,182,170,152,147,140,133,124,105,101,98],"timestamp_mouse":[14,34,54,74,95,114,135,154,174,194,215,235,255,275,295,314,334,354,375,394,415,435,455,474,494,515,535,555,575,594,616,636,654,675,694,714,735,754,776,795,816,835,856,875,895,915,936,954,975,996,1014,1034,1054,1075,1094,1114,1134,1154,1174,1194,1214,1234,1254,1275,1294,1315,1334,1354,1375,1395,1414,1435,1454,1474,1495,1514,1534,1554,1574,1595,1615,1634,1654,1674,1694],"xSR":741.5,"ySR":573.95,"xT1":424.9,"yT1":0,"xT2":1058.1,"yT2":0,"toosoon":0,"cond_shown":"Incongruent","ratio_trial":200,"L_num":6,"L_den":20,"R_num":3,"R_den":6,"correct_side":2,"subjID":"SamuelArturoArizaRamos13","gender":"0","school":"6","age":"11"},{"start_time":1551887047624,"click_time":1551887049601,"finger_time":1551887048982,"fix_duration":622.9041748070008,"trial":24,"RT":1358,"MT":619,"sideResp":1,"stimulus":[],"xmouse":[813,813,813,813,813,813,813,813,813,813,813,813,813,813,813,813,813,813,813,813,813,813,813,813,813,813,813,813,813,813,813,813,813,813,813,813,813,813,813,813,813,813,813,813,813,813,813,813,813,813,813,813,813,813,813,813,813,813,813,813,813,813,813,813,813,813,819,849,862,913,930,942,957,989,1003,1018,1032,1045,1057,1057,1057,1057,1057,1017,973,916,863,805,754,684,675,669,663,655,626,608,585,561,517],"ymouse":[643,643,643,643,643,643,643,643,643,643,643,643,643,643,643,643,643,643,643,643,643,643,643,643,643,643,643,643,643,643,643,643,643,643,643,643,643,643,643,643,643,643,643,643,643,643,643,643,643,643,643,643,643,643,643,643,643,643,643,643,643,643,643,643,643,642,634,602,589,523,494,463,429,362,333,304,278,256,237,237,237,237,237,252,267,279,288,288,288,266,262,256,247,236,194,167,137,108,47],"timestamp_mouse":[21,41,58,77,96,117,136,157,176,198,217,237,257,277,297,316,337,356,376,396,416,437,456,476,496,517,537,556,576,597,617,638,657,676,696,716,738,756,777,796,818,837,858,876,896,916,937,957,977,997,1018,1036,1057,1077,1097,1116,1138,1156,1176,1196,1216,1237,1256,1277,1296,1317,1338,1358,1377,1397,1417,1436,1457,1477,1496,1516,1536,1557,1577,1597,1616,1637,1657,1677,1696,1717,1736,1756,1776,1797,1816,1836,1856,1876,1896,1917,1937,1957,1977],"xSR":741.5,"ySR":573.95,"xT1":424.9,"yT1":0,"xT2":1058.1,"yT2":0,"toosoon":0,"cond_shown":"Incongruent","ratio_trial":100,"L_num":17,"L_den":30,"R_num":10,"R_den":15,"correct_side":2,"subjID":"SamuelArturoArizaRamos13","gender":"0","school":"6","age":"11"},{"start_time":1551887053215,"click_time":1551887055120,"finger_time":1551887054720,"fix_duration":931.8681389129839,"trial":25,"RT":1505,"MT":400,"sideResp":2,"stimulus":[],"xmouse":[780,778,778,777,777,777,776,776,776,776,776,776,776,776,776,776,776,776,776,776,776,776,776,776,776,776,776,776,776,776,776,776,776,776,776,776,776,776,776,776,776,776,776,776,775,775,775,775,775,775,775,775,775,775,775,775,775,775,775,775,775,775,775,775,775,775,775,775,775,775,775,775,775,778,790,834,865,882,906,925,972,993,1007,1021,1028,1036,1039,1045,1052,1061,1065,1068,1070,1072,1072,1077],"ymouse":[639,638,638,637,637,637,637,637,637,637,637,637,637,637,637,637,637,637,637,637,637,637,637,637,637,637,637,637,637,637,637,637,637,637,637,637,637,637,637,637,637,637,637,637,637,637,637,637,637,637,637,637,637,637,637,637,637,637,637,637,637,637,637,637,637,637,637,637,637,637,637,637,633,629,617,572,542,510,473,437,351,322,293,272,251,211,192,171,156,134,121,115,110,105,100,84],"timestamp_mouse":[11,36,45,66,87,106,127,145,167,186,205,226,246,266,287,306,325,346,365,386,406,425,447,465,487,505,525,546,566,585,605,626,645,665,687,705,727,745,767,785,806,827,847,866,887,906,925,946,967,985,1006,1025,1045,1065,1085,1105,1125,1146,1165,1185,1206,1226,1245,1265,1285,1306,1327,1345,1366,1386,1405,1425,1446,1465,1485,1505,1525,1545,1565,1585,1605,1626,1646,1666,1685,1705,1726,1745,1767,1786,1805,1826,1845,1865,1885,1905],"xSR":741.5,"ySR":573.95,"xT1":424.9,"yT1":0,"xT2":1058.1,"yT2":0,"toosoon":0,"cond_shown":"Congruent","ratio_trial":100,"L_num":2,"L_den":5,"R_num":6,"R_den":12,"correct_side":2,"subjID":"SamuelArturoArizaRamos13","gender":"0","school":"6","age":"11"},{"start_time":1551887058260,"click_time":1551887059341,"finger_time":1551887059021,"fix_duration":977.0238865331017,"trial":26,"RT":761,"MT":320,"sideResp":2,"stimulus":[],"xmouse":[799,799,799,799,799,799,799,799,799,799,799,799,799,799,799,799,799,799,799,799,799,799,799,799,799,799,799,799,799,799,799,799,799,799,799,799,799,799,829,850,869,889,926,939,949,959,969,993,1009,1019,1031,1041,1059,1068,1070],"ymouse":[615,615,615,615,615,615,615,615,615,615,615,615,615,615,615,615,615,615,615,615,615,615,615,615,615,615,615,615,615,615,615,615,615,615,615,615,612,610,568,543,514,487,438,417,394,370,345,292,247,221,195,169,121,100,80],"timestamp_mouse":[8,20,40,61,80,100,120,141,162,180,200,221,241,260,281,301,320,341,361,380,400,421,440,460,481,500,522,540,560,581,601,621,641,661,680,700,720,741,761,781,800,820,841,860,881,901,920,940,960,981,1000,1021,1041,1060,1081],"xSR":741.5,"ySR":573.95,"xT1":424.9,"yT1":0,"xT2":1058.1,"yT2":0,"toosoon":0,"cond_shown":"Congruent","ratio_trial":100,"L_num":2,"L_den":5,"R_num":11,"R_den":22,"correct_side":2,"subjID":"SamuelArturoArizaRamos13","gender":"0","school":"6","age":"11"},{"start_time":1551887061854,"click_time":1551887063361,"finger_time":1551887063101,"fix_duration":1452.030290528729,"trial":27,"RT":1247,"MT":260,"sideResp":2,"stimulus":[],"xmouse":[777,777,777,777,777,777,777,777,777,777,777,777,777,777,777,777,777,777,777,777,777,777,777,777,777,777,777,777,777,777,777,777,777,777,777,777,777,777,777,777,777,777,777,777,777,777,777,777,777,777,777,777,777,777,777,777,777,777,777,783,799,820,861,882,909,931,953,1000,1012,1022,1038,1054,1066,1086,1093,1102],"ymouse":[633,633,633,633,633,633,633,633,633,633,633,633,633,633,633,633,633,633,633,633,633,633,633,633,633,633,633,633,633,633,633,633,633,633,633,633,633,633,633,633,633,633,633,633,633,633,633,633,633,633,633,633,633,633,633,633,633,633,633,628,604,578,511,472,430,385,349,263,235,209,187,166,149,117,103,88],"timestamp_mouse":[13,35,47,68,87,107,127,147,166,187,208,226,246,268,287,307,328,346,367,386,407,426,447,468,486,507,526,547,567,586,606,627,646,666,686,708,726,746,766,786,806,826,846,867,888,907,926,946,966,987,1007,1026,1047,1067,1086,1106,1127,1146,1166,1186,1206,1227,1247,1266,1286,1307,1327,1347,1367,1386,1407,1426,1446,1466,1487,1507],"xSR":741.5,"ySR":573.95,"xT1":424.9,"yT1":0,"xT2":1058.1,"yT2":0,"toosoon":0,"cond_shown":"Incongruent","ratio_trial":200,"L_num":1,"L_den":3,"R_num":2,"R_den":15,"correct_side":1,"subjID":"SamuelArturoArizaRamos13","gender":"0","school":"6","age":"11"},{"start_time":1551887069013,"click_time":1551887071601,"finger_time":1551887071040,"fix_duration":390.9060851162931,"trial":28,"RT":2027,"MT":561,"sideResp":2,"stimulus":[],"xmouse":[786,786,786,786,786,786,786,786,786,786,786,786,786,786,786,786,786,786,786,786,786,786,786,786,786,786,786,786,786,786,786,786,786,786,786,786,786,786,786,786,786,786,786,786,786,786,786,786,786,786,786,786,786,786,786,786,786,786,786,786,786,786,786,786,786,786,786,786,786,786,786,786,786,786,786,786,786,786,786,786,786,786,786,786,786,786,786,786,786,786,786,786,786,786,786,786,786,787,788,821,840,859,873,888,905,907,910,912,913,923,930,935,939,942,944,944,944,944,944,944,944,949,957,975,995,1031,1046,1057,1067,1086],"ymouse":[647,647,647,647,647,647,647,647,647,647,647,647,647,647,647,647,647,647,647,647,647,647,647,647,647,647,647,647,647,647,647,647,647,647,647,647,647,647,647,647,647,647,647,647,647,647,647,647,647,647,647,647,647,647,647,647,647,647,647,647,647,647,647,647,647,647,647,647,647,647,647,647,647,647,647,647,647,647,647,647,647,647,647,647,647,647,647,647,647,647,647,647,647,647,647,647,647,646,644,603,578,549,520,489,440,423,409,398,391,369,356,338,321,301,284,269,267,267,267,267,264,259,248,230,208,165,145,129,115,88],"timestamp_mouse":[16,38,47,67,87,107,127,147,168,187,207,228,248,268,289,307,327,347,367,388,407,428,447,467,488,508,527,548,567,589,608,628,649,667,687,707,728,747,769,788,807,827,847,869,888,908,928,949,968,988,1007,1027,1049,1067,1087,1108,1127,1147,1167,1187,1207,1228,1247,1268,1288,1308,1327,1348,1368,1388,1407,1428,1447,1467,1488,1507,1528,1547,1569,1587,1607,1627,1648,1668,1689,1707,1727,1748,1769,1788,1809,1828,1847,1869,1887,1908,1927,1947,1968,1988,2008,2027,2047,2068,2088,2107,2128,2147,2168,2188,2207,2228,2248,2267,2287,2307,2327,2348,2369,2388,2407,2427,2447,2467,2487,2507,2527,2548,2568,2588],"xSR":741.5,"ySR":573.95,"xT1":424.9,"yT1":0,"xT2":1058.1,"yT2":0,"toosoon":0,"cond_shown":"Congruent","ratio_trial":100,"L_num":2,"L_den":5,"R_num":11,"R_den":22,"correct_side":2,"subjID":"SamuelArturoArizaRamos13","gender":"0","school":"6","age":"11"},{"start_time":1551887075273,"click_time":1551887077340,"finger_time":1551887076861,"fix_duration":1029.912548589793,"trial":29,"RT":1588,"MT":479,"sideResp":1,"stimulus":[],"xmouse":[757,757,757,757,757,757,757,757,757,757,757,757,757,757,757,757,757,757,757,757,757,757,757,757,757,757,757,757,757,757,757,757,757,757,757,757,757,757,757,757,757,757,757,757,757,757,757,757,757,757,757,757,757,757,757,757,757,757,757,757,757,757,757,757,757,757,757,757,757,757,757,757,757,757,757,757,757,757,751,738,723,712,687,678,669,663,654,627,611,591,576,566,553,543,533,525,519,513,512,511,508,502,498,494],"ymouse":[607,607,607,607,607,607,607,607,607,607,607,607,607,607,607,607,607,607,607,607,607,607,607,607,607,607,607,607,607,607,607,607,607,607,607,607,607,607,607,607,607,607,607,607,607,607,607,607,607,607,607,607,607,607,607,607,607,607,607,607,607,607,607,607,607,607,607,607,607,607,607,607,607,607,607,607,607,607,598,579,559,543,512,499,483,474,463,426,400,360,322,286,217,192,168,152,133,124,121,117,113,106,101,98],"timestamp_mouse":[10,33,47,69,88,108,128,148,168,187,207,229,248,268,287,307,329,348,368,388,407,427,447,467,488,508,527,548,567,588,608,628,647,667,687,707,727,748,769,787,809,828,848,868,887,907,927,947,967,989,1007,1027,1047,1067,1088,1107,1128,1148,1167,1187,1209,1227,1248,1268,1287,1308,1329,1347,1368,1387,1408,1428,1448,1468,1488,1507,1527,1548,1567,1588,1608,1627,1647,1667,1689,1708,1727,1748,1767,1788,1807,1828,1847,1878,1888,1908,1928,1947,1967,1988,2008,2028,2047,2067],"xSR":741.5,"ySR":573.95,"xT1":424.9,"yT1":0,"xT2":1058.1,"yT2":0,"toosoon":0,"cond_shown":"Incongruent","ratio_trial":100,"L_num":9,"L_den":15,"R_num":14,"R_den":28,"correct_side":1,"subjID":"SamuelArturoArizaRamos13","gender":"0","school":"6","age":"11"},{"start_time":1551887079773,"click_time":1551887081780,"finger_time":1551887081140,"fix_duration":1192.1827003121643,"trial":30,"RT":1367,"MT":640,"sideResp":1,"stimulus":[],"xmouse":[760,760,760,760,760,760,760,760,760,760,760,760,760,760,760,760,760,760,760,760,760,760,760,760,760,760,760,760,760,760,760,760,760,760,760,760,760,760,760,760,760,760,760,760,760,760,760,760,760,760,760,760,760,760,760,760,760,760,760,760,760,760,760,760,760,760,760,750,731,706,683,636,595,558,518,477,400,371,357,357,357,357,357,358,358,358,358,358,358,361,372,389,393,398,403,407,414,417,420,422,425],"ymouse":[638,638,638,638,638,638,638,638,638,638,638,638,638,638,638,638,638,638,638,638,638,638,638,638,638,638,638,638,638,638,638,638,638,638,638,638,638,638,638,638,638,638,638,638,638,638,638,638,638,638,638,638,638,638,638,638,638,638,638,638,638,638,638,638,638,638,638,628,613,590,561,499,430,367,302,238,109,72,48,41,39,37,33,30,26,24,20,20,20,20,22,31,33,36,37,40,42,43,44,46,46],"timestamp_mouse":[11,27,47,69,88,108,127,147,168,188,208,229,248,267,289,307,327,348,367,387,408,427,447,467,487,508,528,547,568,587,607,627,648,667,688,708,728,748,768,787,807,827,847,867,888,908,927,947,967,987,1007,1027,1048,1067,1087,1108,1129,1147,1167,1187,1207,1228,1248,1267,1287,1307,1328,1348,1367,1387,1408,1428,1447,1468,1487,1508,1528,1547,1567,1587,1609,1628,1647,1667,1688,1708,1728,1748,1768,1788,1808,1828,1847,1867,1887,1908,1928,1947,1967,1988,2007],"xSR":741.5,"ySR":573.95,"xT1":424.9,"yT1":0,"xT2":1058.1,"yT2":0,"toosoon":0,"cond_shown":"Congruent","ratio_trial":100,"L_num":9,"L_den":15,"R_num":8,"R_den":16,"correct_side":1,"subjID":"SamuelArturoArizaRamos13","gender":"0","school":"6","age":"11"},{"start_time":1551887085578,"click_time":1551887088021,"finger_time":1551887087000,"fix_duration":1236.8315105811957,"trial":31,"RT":1422,"MT":1021,"sideResp":1,"stimulus":[],"xmouse":[783,783,783,783,783,783,783,783,783,783,783,783,783,783,783,783,783,783,783,783,783,783,783,783,783,783,783,783,783,783,783,783,783,783,783,783,783,783,783,783,783,783,783,783,783,783,783,783,783,783,783,783,783,783,783,783,783,783,783,783,783,783,783,783,783,783,783,783,782,776,753,700,673,652,646,638,619,607,594,582,569,543,529,520,512,501,484,479,476,473,472,470,470,470,470,470,470,470,470,470,470,470,470,470,470,470,470,470,470,470,470,470,470,470,470,470,470,470,470,469,467,466,461],"ymouse":[662,662,662,662,662,662,662,662,662,662,662,662,662,662,662,662,662,662,662,662,662,662,662,662,662,662,662,662,662,662,662,662,662,662,662,662,662,662,662,662,662,662,662,662,662,662,662,662,662,662,662,662,662,662,662,662,662,662,662,662,662,662,662,662,662,662,662,662,661,659,649,614,593,567,554,536,489,461,430,401,370,310,275,255,232,215,186,173,164,155,148,141,140,140,140,140,140,140,140,140,140,140,140,140,140,140,140,140,140,140,140,140,140,140,140,140,140,140,136,128,119,110,87],"timestamp_mouse":[11,22,42,63,82,102,122,142,162,183,203,222,242,263,282,303,324,342,362,382,402,422,443,463,484,502,522,542,562,583,604,623,642,662,682,702,722,742,763,783,802,822,842,862,884,902,924,942,963,982,1002,1023,1043,1063,1084,1102,1122,1142,1164,1183,1202,1223,1243,1262,1283,1303,1323,1343,1362,1384,1402,1422,1444,1463,1483,1503,1523,1542,1562,1582,1603,1623,1643,1663,1683,1703,1723,1742,1763,1784,1803,1822,1842,1862,1883,1902,1923,1943,1962,1983,2002,2023,2043,2063,2083,2103,2124,2143,2163,2182,2202,2223,2242,2263,2283,2302,2323,2342,2362,2382,2402,2422,2443],"xSR":741.5,"ySR":573.95,"xT1":424.9,"yT1":0,"xT2":1058.1,"yT2":0,"toosoon":0,"cond_shown":"Congruent","ratio_trial":200,"L_num":14,"L_den":28,"R_num":6,"R_den":20,"correct_side":1,"subjID":"SamuelArturoArizaRamos13","gender":"0","school":"6","age":"11"},{"start_time":1551887089572,"click_time":1551887091200,"finger_time":1551887090382,"fix_duration":370.9323119172476,"trial":32,"RT":810,"MT":818,"sideResp":2,"stimulus":[],"xmouse":[780,780,780,780,780,780,780,780,780,780,780,780,780,780,780,780,780,780,780,780,780,780,780,780,780,780,780,780,780,780,780,780,780,780,780,780,780,769,754,743,738,737,737,737,737,737,737,737,737,737,737,737,737,737,737,737,737,737,737,738,746,764,773,779,786,793,803,812,823,837,850,879,898,913,928,943,974,992,1007,1026,1040,1065],"ymouse":[626,626,626,626,626,626,626,626,626,626,626,626,626,626,626,626,626,626,626,626,626,626,626,626,626,626,626,626,626,626,626,626,626,626,626,626,625,622,616,611,611,611,611,611,611,611,611,611,611,611,611,611,611,611,611,611,611,611,611,611,612,619,622,622,620,614,588,565,536,505,474,401,351,320,283,252,182,143,109,77,48,6],"timestamp_mouse":[9,32,48,70,88,109,128,149,168,188,210,228,249,268,289,308,328,348,370,388,408,429,449,469,488,510,528,550,568,588,609,628,649,668,688,709,729,749,769,789,810,829,848,868,889,910,930,949,969,988,1010,1029,1050,1069,1090,1108,1128,1148,1168,1188,1209,1229,1248,1268,1289,1309,1328,1348,1369,1389,1408,1428,1448,1469,1489,1509,1528,1549,1570,1589,1608,1628],"xSR":741.5,"ySR":573.95,"xT1":424.9,"yT1":0,"xT2":1058.1,"yT2":0,"toosoon":0,"cond_shown":"Congruent","ratio_trial":300,"L_num":8,"L_den":15,"R_num":10,"R_den":12,"correct_side":2,"subjID":"SamuelArturoArizaRamos13","gender":"0","school":"6","age":"11"},{"start_time":1551887092292,"click_time":1551887093920,"finger_time":1551887093560,"fix_duration":250,"trial":33,"RT":1268,"MT":360,"sideResp":2,"stimulus":[],"xmouse":[815,815,815,815,815,815,815,815,815,815,815,815,815,815,815,815,815,815,815,815,815,815,815,815,815,815,815,815,815,815,815,815,815,815,815,815,815,815,812,809,807,807,807,807,807,807,807,807,807,807,807,807,807,807,807,807,807,807,807,807,807,809,826,847,873,890,921,927,931,931,934,938,941,945,949,969,982,993,1005,1019,1052,1066],"ymouse":[655,655,655,655,655,655,655,655,655,655,655,655,655,655,655,655,655,655,655,655,655,655,655,655,655,655,655,655,655,655,655,655,655,655,655,655,655,655,654,654,653,653,653,653,653,653,653,653,653,653,652,652,652,652,652,652,652,652,652,652,651,641,622,593,558,516,410,372,347,325,291,276,259,237,212,144,123,109,97,84,61,50],"timestamp_mouse":[14,44,48,68,90,108,129,148,169,188,208,229,250,268,289,309,330,348,368,389,408,430,449,469,490,509,529,549,569,589,610,629,649,669,688,709,728,748,770,789,808,828,848,869,888,908,929,950,968,990,1008,1029,1048,1069,1089,1108,1129,1148,1168,1189,1208,1228,1249,1268,1288,1308,1329,1349,1368,1388,1409,1428,1449,1468,1489,1509,1528,1549,1569,1588,1609,1628],"xSR":741.5,"ySR":573.95,"xT1":424.9,"yT1":0,"xT2":1058.1,"yT2":0,"toosoon":0,"cond_shown":"Incongruent","ratio_trial":300,"L_num":13,"L_den":26,"R_num":12,"R_den":15,"correct_side":2,"subjID":"SamuelArturoArizaRamos13","gender":"0","school":"6","age":"11"},{"start_time":1551887095232,"click_time":1551887096921,"finger_time":1551887096681,"fix_duration":250,"trial":34,"RT":1449,"MT":240,"sideResp":1,"stimulus":[],"xmouse":[812,812,812,812,812,812,812,810,805,803,802,802,802,802,802,802,802,802,802,802,802,802,802,802,802,802,802,802,802,802,802,802,802,802,802,802,802,802,802,802,802,802,802,802,802,802,802,802,802,802,802,802,802,802,802,802,802,802,802,802,802,802,802,802,802,802,802,802,802,799,787,775,758,736,695,683,663,645,636,595,578,562,547,535,498],"ymouse":[610,610,610,610,610,610,610,611,614,615,615,615,615,615,615,615,615,615,615,615,615,615,615,615,615,615,615,615,615,615,615,615,615,615,615,615,615,615,615,615,615,615,615,615,615,615,615,615,615,615,615,615,615,615,615,615,615,615,615,615,615,615,615,615,615,615,615,615,615,611,599,582,558,531,467,434,400,352,335,245,211,177,148,120,69],"timestamp_mouse":[11,34,48,69,88,108,128,149,169,188,210,229,248,268,290,308,329,350,368,389,408,429,448,469,488,508,529,548,569,589,609,628,649,668,689,709,728,748,769,789,809,828,848,869,888,908,929,950,968,988,1008,1029,1048,1068,1088,1108,1129,1148,1168,1190,1208,1228,1249,1268,1288,1310,1328,1348,1368,1388,1408,1429,1449,1468,1488,1509,1528,1548,1568,1588,1609,1629,1648,1668,1688],"xSR":741.5,"ySR":573.95,"xT1":424.9,"yT1":0,"xT2":1058.1,"yT2":0,"toosoon":0,"cond_shown":"Incongruent","ratio_trial":100,"L_num":9,"L_den":15,"R_num":13,"R_den":26,"correct_side":1,"subjID":"SamuelArturoArizaRamos13","gender":"0","school":"6","age":"11"},{"start_time":1551887099093,"click_time":1551887100961,"finger_time":1551887100540,"fix_duration":1091.6922771248064,"trial":35,"RT":1447,"MT":421,"sideResp":1,"stimulus":[],"xmouse":[794,794,794,794,794,794,794,794,794,794,794,794,794,794,794,794,794,794,794,794,794,794,794,794,794,794,794,794,794,794,794,794,794,794,794,794,794,794,794,794,794,794,794,794,794,794,794,794,794,794,794,794,794,794,794,794,794,794,794,794,794,794,794,794,794,794,794,794,798,802,804,805,807,808,810,809,800,783,765,740,712,677,670,658,648,621,609,600,591,580,567,544,528,515],"ymouse":[629,629,629,629,629,629,629,629,629,629,629,629,629,629,629,629,629,629,629,629,629,629,629,629,629,629,629,629,629,629,629,629,629,629,629,629,629,629,629,629,629,629,629,629,629,629,629,629,629,629,629,629,629,629,629,629,629,629,629,629,629,629,629,629,629,629,629,626,617,606,597,579,568,559,547,511,490,463,439,409,379,329,306,282,259,202,179,160,142,126,109,83,72,67],"timestamp_mouse":[14,41,48,67,88,109,127,148,167,188,208,227,247,268,287,307,327,347,368,388,407,428,449,468,489,507,527,549,568,587,608,627,649,667,687,707,727,747,768,787,807,828,848,868,887,908,928,949,967,987,1007,1027,1048,1069,1087,1108,1128,1148,1169,1187,1208,1227,1248,1268,1288,1308,1327,1347,1368,1387,1407,1427,1447,1468,1487,1508,1527,1548,1567,1588,1608,1627,1648,1667,1687,1708,1727,1747,1768,1787,1808,1827,1848,1868],"xSR":741.5,"ySR":573.95,"xT1":424.9,"yT1":0,"xT2":1058.1,"yT2":0,"toosoon":0,"cond_shown":"Incongruent","ratio_trial":200,"L_num":7,"L_den":10,"R_num":14,"R_den":28,"correct_side":1,"subjID":"SamuelArturoArizaRamos13","gender":"0","school":"6","age":"11"},{"start_time":1551887102229,"click_time":1551887103601,"finger_time":1551887103281,"fix_duration":427.0654225018642,"trial":36,"RT":1052,"MT":320,"sideResp":2,"stimulus":[],"xmouse":[788,788,788,788,788,788,788,788,788,788,788,788,788,788,788,788,788,788,788,788,788,788,788,788,788,788,788,788,788,788,788,788,788,788,788,788,788,788,788,788,788,788,788,788,788,788,788,788,789,799,810,823,837,863,875,890,902,916,945,962,973,983,993,1010,1015,1025,1034,1044,1060],"ymouse":[630,630,630,630,630,630,630,630,630,630,630,630,630,630,630,630,630,630,630,630,630,630,630,630,630,630,630,630,630,630,630,630,630,630,630,630,630,630,630,630,630,630,630,630,630,630,630,630,630,618,604,585,564,511,483,454,425,396,334,291,268,244,221,182,162,138,115,92,57],"timestamp_mouse":[11,38,52,71,92,111,131,152,171,193,213,232,252,271,291,313,331,351,372,391,412,432,452,472,492,511,532,551,572,592,613,632,651,672,691,712,731,751,772,791,812,833,851,872,892,911,932,951,971,991,1011,1032,1052,1072,1091,1113,1132,1152,1172,1191,1212,1232,1252,1272,1291,1313,1332,1352,1372],"xSR":741.5,"ySR":573.95,"xT1":424.9,"yT1":0,"xT2":1058.1,"yT2":0,"toosoon":0,"cond_shown":"Incongruent","ratio_trial":300,"L_num":13,"L_den":26,"R_num":12,"R_den":15,"correct_side":2,"subjID":"SamuelArturoArizaRamos13","gender":"0","school":"6","age":"11"},{"start_time":1551887105179,"click_time":1551887106560,"finger_time":1551887106101,"fix_duration":777.5565614034415,"trial":37,"RT":922,"MT":459,"sideResp":2,"stimulus":[],"xmouse":[808,808,808,808,808,808,808,808,808,808,808,808,808,808,808,808,808,808,808,808,808,808,808,808,808,808,808,808,808,808,808,808,808,808,808,808,808,808,808,808,808,808,808,808,809,809,849,871,893,907,926,946,994,1004,1008,1008,1008,1008,1008,1008,1008,1008,1014,1024,1033,1042,1050,1066,1077,1083],"ymouse":[620,620,620,620,620,620,620,620,620,620,620,620,620,620,620,620,620,620,620,620,620,620,620,620,620,620,620,620,620,620,620,620,620,620,620,620,620,620,620,620,620,620,620,620,620,613,559,517,472,426,384,338,242,216,203,196,196,196,196,196,196,195,187,178,166,153,139,117,103,94],"timestamp_mouse":[7,38,42,62,81,102,121,141,161,182,203,221,241,263,281,301,321,342,362,382,402,421,441,462,481,501,522,542,562,583,601,623,642,661,682,701,722,741,761,781,803,821,842,862,881,902,922,941,962,982,1001,1021,1041,1061,1081,1102,1122,1142,1161,1182,1202,1221,1241,1262,1281,1302,1321,1341,1362,1381],"xSR":741.5,"ySR":573.95,"xT1":424.9,"yT1":0,"xT2":1058.1,"yT2":0,"toosoon":0,"cond_shown":"Congruent","ratio_trial":100,"L_num":7,"L_den":14,"R_num":9,"R_den":15,"correct_side":2,"subjID":"SamuelArturoArizaRamos13","gender":"0","school":"6","age":"11"},{"start_time":1551887107949,"click_time":1551887109560,"finger_time":1551887109220,"fix_duration":546.9071686017926,"trial":38,"RT":1271,"MT":340,"sideResp":2,"stimulus":[],"xmouse":[795,795,795,795,795,795,795,795,795,795,795,795,795,795,795,795,795,795,795,795,795,795,795,795,795,795,795,795,795,795,795,795,795,795,795,795,795,795,795,795,795,795,795,795,795,795,795,795,795,795,795,795,795,795,795,795,795,795,795,795,795,801,822,885,915,939,956,973,994,999,1005,1009,1012,1020,1021,1022,1024,1035,1045,1057,1068],"ymouse":[612,612,612,612,612,612,612,612,612,612,612,612,612,612,612,612,612,612,612,612,612,612,612,612,612,612,612,612,612,612,612,612,612,612,612,612,612,612,612,612,612,612,612,612,612,612,612,612,612,612,612,612,612,612,612,612,612,612,612,612,612,608,592,538,506,471,432,396,319,283,250,226,206,182,181,179,174,147,126,103,82],"timestamp_mouse":[11,34,53,71,92,112,131,151,173,192,211,231,253,272,292,312,333,352,372,391,412,432,453,472,491,513,532,552,572,593,611,631,651,672,691,713,732,752,771,791,811,833,852,871,891,911,933,952,971,991,1013,1032,1053,1071,1092,1111,1131,1151,1171,1191,1211,1231,1251,1271,1291,1312,1331,1352,1371,1392,1412,1432,1451,1472,1491,1512,1533,1552,1572,1591,1611],"xSR":741.5,"ySR":573.95,"xT1":424.9,"yT1":0,"xT2":1058.1,"yT2":0,"toosoon":0,"cond_shown":"Incongruent","ratio_trial":200,"L_num":9,"L_den":15,"R_num":8,"R_den":10,"correct_side":2,"subjID":"SamuelArturoArizaRamos13","gender":"0","school":"6","age":"11"},{"start_time":1551887110974,"click_time":1551887112982,"finger_time":1551887112720,"fix_duration":572.6419186928134,"trial":39,"RT":1746,"MT":262,"sideResp":2,"stimulus":[],"xmouse":[820,820,820,820,820,820,820,820,820,820,820,820,820,820,820,820,820,820,820,820,820,820,820,820,820,820,820,820,820,820,820,820,820,820,820,820,820,820,820,820,820,820,820,820,820,820,820,820,820,820,820,820,820,820,820,820,820,820,820,820,820,820,820,820,820,820,820,820,820,820,820,820,820,820,820,820,820,820,820,820,820,820,820,820,823,824,828,841,858,872,887,924,951,968,986,1001,1026,1037,1049,1056,1063],"ymouse":[600,600,600,600,600,600,600,600,600,600,600,600,600,600,600,600,600,600,600,600,600,600,600,600,600,600,600,600,600,600,600,600,600,600,600,600,600,600,600,600,600,600,600,600,600,600,600,600,600,600,600,600,600,600,600,600,600,600,600,600,600,600,600,600,600,600,600,600,600,600,600,600,600,600,600,600,600,600,600,600,600,600,600,600,600,597,584,565,539,508,471,396,332,285,244,203,133,102,76,55,37],"timestamp_mouse":[14,42,46,66,88,107,127,147,166,187,207,228,247,266,286,306,326,346,367,386,406,426,446,466,486,507,526,546,566,586,607,626,646,667,687,707,726,746,766,787,806,828,846,868,888,907,926,946,966,986,1007,1026,1046,1066,1088,1106,1126,1147,1166,1187,1206,1227,1246,1268,1287,1307,1326,1346,1367,1386,1407,1428,1446,1467,1486,1506,1527,1547,1566,1586,1607,1626,1646,1668,1687,1706,1727,1746,1766,1787,1806,1827,1847,1867,1886,1906,1927,1946,1967,1986,2008],"xSR":741.5,"ySR":573.95,"xT1":424.9,"yT1":0,"xT2":1058.1,"yT2":0,"toosoon":0,"cond_shown":"Congruent","ratio_trial":100,"L_num":2,"L_den":5,"R_num":6,"R_den":12,"correct_side":2,"subjID":"SamuelArturoArizaRamos13","gender":"0","school":"6","age":"11"},{"start_time":1551887114132,"click_time":1551887115720,"finger_time":1551887115461,"fix_duration":250,"trial":40,"RT":1329,"MT":259,"sideResp":1,"stimulus":[],"xmouse":[774,774,774,774,774,774,774,774,774,774,774,774,774,774,774,774,774,774,774,774,774,774,774,774,774,774,774,774,774,774,774,774,774,774,774,774,774,774,774,774,774,774,774,774,774,774,774,774,774,774,774,774,774,774,774,774,774,774,774,774,774,774,774,774,768,753,735,716,684,672,659,651,647,626,605,590,575,559,533,523],"ymouse":[627,627,627,627,627,627,627,627,627,627,627,627,627,627,627,627,627,627,627,627,627,627,627,627,627,627,627,627,627,627,627,627,627,627,627,627,627,627,627,627,627,627,627,627,627,627,627,627,627,627,627,627,627,627,627,627,627,627,627,627,627,627,627,627,621,602,575,546,481,450,414,380,348,284,233,197,168,141,106,94],"timestamp_mouse":[10,34,49,70,88,108,128,149,169,188,209,228,249,268,288,310,329,349,368,388,408,428,448,468,488,509,528,548,569,588,608,629,648,668,689,708,729,748,769,788,809,828,848,868,889,908,928,948,970,988,1008,1029,1050,1069,1089,1108,1128,1148,1169,1190,1208,1229,1249,1268,1288,1308,1329,1349,1369,1388,1408,1428,1448,1469,1488,1508,1528,1548,1569,1588],"xSR":741.5,"ySR":573.95,"xT1":424.9,"yT1":0,"xT2":1058.1,"yT2":0,"toosoon":0,"cond_shown":"Incongruent","ratio_trial":300,"L_num":13,"L_den":26,"R_num":12,"R_den":15,"correct_side":2,"subjID":"SamuelArturoArizaRamos13","gender":"0","school":"6","age":"11"},{"start_time":1551887118104,"click_time":1551887119800,"finger_time":1551887119440,"fix_duration":1301.947043126976,"trial":41,"RT":1336,"MT":360,"sideResp":2,"stimulus":[],"xmouse":[788,788,788,788,788,788,788,788,788,788,788,788,788,788,788,788,788,788,788,788,788,788,788,788,788,788,788,788,788,788,788,788,788,788,788,788,788,788,788,788,788,788,788,788,788,788,788,788,788,788,788,788,788,788,788,788,788,788,788,788,788,788,788,788,792,819,841,867,889,919,925,931,944,960,985,990,997,1004,1008,1016,1037,1049,1061,1074,1087],"ymouse":[644,644,644,644,644,644,644,644,644,644,644,644,644,644,644,644,644,644,644,644,644,644,644,644,644,644,644,644,644,644,644,644,644,644,644,644,644,644,644,644,644,644,644,644,644,644,644,644,644,644,644,644,644,644,644,644,644,644,644,644,644,644,644,643,639,597,562,525,488,413,372,345,314,285,229,216,200,187,176,163,138,126,114,107,98],"timestamp_mouse":[34,36,57,77,96,116,136,156,176,196,217,236,256,276,297,316,338,356,376,398,417,436,457,476,497,518,537,557,577,597,617,636,657,678,697,717,736,757,776,796,816,837,856,876,897,916,937,956,976,996,1016,1036,1056,1076,1097,1117,1137,1157,1176,1196,1217,1236,1257,1277,1296,1316,1336,1356,1376,1396,1416,1436,1456,1477,1497,1516,1536,1557,1576,1596,1616,1637,1657,1676,1696],"xSR":741.5,"ySR":573.95,"xT1":424.9,"yT1":0,"xT2":1058.1,"yT2":0,"toosoon":0,"cond_shown":"Incongruent","ratio_trial":100,"L_num":11,"L_den":22,"R_num":9,"R_den":15,"correct_side":2,"subjID":"SamuelArturoArizaRamos13","gender":"0","school":"6","age":"11"},{"start_time":1551887123204,"click_time":1551887124981,"finger_time":1551887124581,"fix_duration":1182.835395172087,"trial":42,"RT":1377,"MT":400,"sideResp":1,"stimulus":[],"xmouse":[770,770,770,770,770,770,770,770,770,770,770,770,770,770,769,769,769,769,772,772,772,772,771,771,771,771,771,771,771,771,771,771,771,771,768,767,767,767,767,767,767,767,767,767,767,767,767,767,767,767,767,767,767,767,767,767,767,767,767,767,767,767,767,767,767,766,761,745,719,695,647,634,619,607,598,597,596,596,596,591,576,564,549,539,518,510,503,496,486],"ymouse":[658,658,658,658,658,658,658,658,658,658,658,658,658,658,658,658,658,658,661,661,666,666,666,666,666,666,666,666,666,666,666,666,666,666,666,666,666,666,666,666,666,666,666,666,666,666,666,666,666,666,666,666,666,666,666,666,666,666,666,666,666,666,666,666,666,666,658,636,599,557,451,413,382,358,335,332,329,328,327,306,274,248,219,191,151,135,119,109,92],"timestamp_mouse":[31,36,56,78,97,116,137,156,177,196,216,236,256,277,296,317,336,356,376,396,417,436,456,476,496,516,537,556,577,597,617,638,657,677,696,717,736,756,777,797,817,838,857,877,897,916,937,958,977,997,1016,1038,1057,1076,1097,1117,1137,1158,1177,1198,1216,1236,1257,1277,1296,1316,1337,1357,1377,1397,1416,1436,1458,1477,1497,1516,1536,1557,1576,1597,1616,1636,1657,1677,1696,1716,1736,1757,1777],"xSR":741.5,"ySR":573.95,"xT1":424.9,"yT1":0,"xT2":1058.1,"yT2":0,"toosoon":0,"cond_shown":"Congruent","ratio_trial":100,"L_num":9,"L_den":15,"R_num":8,"R_den":16,"correct_side":1,"subjID":"SamuelArturoArizaRamos13","gender":"0","school":"6","age":"11"},{"start_time":1551887126702,"click_time":1551887128360,"finger_time":1551887127840,"fix_duration":798.9545491946236,"trial":43,"RT":1138,"MT":520,"sideResp":1,"stimulus":[],"xmouse":[757,757,757,757,757,757,757,757,757,757,757,757,757,757,757,757,757,757,757,757,757,757,757,757,757,757,757,757,757,757,757,757,757,757,757,757,757,757,757,757,757,757,757,757,757,757,757,757,757,757,757,757,757,757,757,757,758,734,709,689,663,652,642,632,623,599,585,575,565,557,541,533,530,529,528,522,517,513,510,505,501,497,494,491],"ymouse":[638,638,638,638,638,638,638,638,638,638,638,638,638,638,638,638,638,638,638,638,638,638,638,638,638,638,638,638,638,638,638,638,638,638,638,638,638,638,638,638,638,638,638,638,638,638,638,638,638,638,638,638,638,638,638,638,641,618,595,571,528,505,481,458,437,390,350,324,299,273,234,216,207,202,200,196,191,186,177,166,139,124,110,99],"timestamp_mouse":[1,34,38,58,80,98,118,138,159,178,198,219,239,258,280,298,318,338,359,378,399,419,438,460,479,500,519,538,559,580,599,618,640,659,679,698,719,738,759,779,799,818,839,858,879,900,918,939,959,979,999,1018,1038,1060,1079,1098,1118,1138,1159,1179,1198,1218,1238,1259,1279,1299,1318,1338,1358,1378,1399,1418,1438,1458,1479,1498,1518,1538,1559,1578,1598,1618,1638,1658],"xSR":741.5,"ySR":573.95,"xT1":424.9,"yT1":0,"xT2":1058.1,"yT2":0,"toosoon":0,"cond_shown":"Incongruent","ratio_trial":300,"L_num":8,"L_den":10,"R_num":14,"R_den":28,"correct_side":1,"subjID":"SamuelArturoArizaRamos13","gender":"0","school":"6","age":"11"},{"start_time":1551887130046,"click_time":1551887133100,"finger_time":1551887132121,"fix_duration":842.2295103493107,"trial":44,"RT":2075,"MT":979,"sideResp":1,"stimulus":[],"xmouse":[784,784,784,784,784,784,784,784,784,784,784,784,784,784,784,784,784,784,784,784,784,784,784,784,784,784,784,784,784,784,784,784,784,784,784,784,784,784,784,784,784,784,784,784,784,784,784,789,800,807,809,805,806,808,813,816,819,821,824,826,827,829,834,835,836,836,836,836,836,836,836,836,836,836,836,836,832,829,828,826,823,822,820,819,819,819,819,819,819,819,819,819,819,819,819,819,819,819,820,825,826,827,828,831,831,831,831,831,831,831,831,832,832,840,846,850,854,857,857,857,857,857,857,857,857,858,858,861,866,868,869,869,869,869,861,846,827,785,743,713,682,649,607,594,577,562,545,538,532,531,530,528,519],"ymouse":[623,623,623,623,623,623,623,623,623,623,623,623,623,623,623,623,623,623,623,623,623,623,623,623,623,623,623,623,623,623,623,623,623,623,623,623,623,623,623,623,623,623,623,623,623,623,623,622,619,616,612,616,617,615,615,615,614,612,610,608,607,605,599,595,594,593,593,593,593,593,593,593,593,593,593,592,592,592,592,592,592,592,592,592,592,592,592,592,592,592,592,592,592,592,592,592,592,592,592,587,581,578,575,571,571,571,571,571,571,571,571,571,569,558,553,544,540,537,537,537,537,537,537,537,537,537,537,534,530,529,528,527,526,525,522,515,508,483,447,414,379,337,258,222,183,149,113,78,66,64,61,60,55],"timestamp_mouse":[14,34,55,75,94,116,134,154,174,194,215,236,255,274,295,315,334,356,374,395,415,435,455,474,494,514,535,556,574,594,615,634,654,674,694,714,734,755,775,795,814,834,854,874,896,915,935,954,974,994,1014,1034,1055,1074,1094,1114,1136,1154,1174,1194,1214,1235,1254,1274,1295,1315,1334,1355,1375,1395,1414,1436,1455,1475,1494,1514,1534,1554,1574,1594,1614,1634,1654,1675,1694,1714,1735,1754,1774,1794,1815,1834,1854,1875,1894,1915,1935,1954,1975,1994,2014,2034,2055,2075,2094,2115,2136,2155,2175,2194,2214,2234,2255,2274,2294,2314,2335,2355,2374,2395,2414,2436,2455,2474,2494,2516,2534,2554,2574,2595,2615,2634,2654,2674,2694,2715,2735,2754,2774,2794,2815,2836,2854,2874,2894,2914,2934,2955,2974,2994,3015,3036,3054],"xSR":741.5,"ySR":573.95,"xT1":424.9,"yT1":0,"xT2":1058.1,"yT2":0,"toosoon":0,"cond_shown":"Incongruent","ratio_trial":300,"L_num":1,"L_den":2,"R_num":2,"R_den":10,"correct_side":1,"subjID":"SamuelArturoArizaRamos13","gender":"0","school":"6","age":"11"},{"start_time":1551887136726,"click_time":1551887138482,"finger_time":1551887138100,"fix_duration":1424.6967613981483,"trial":45,"RT":1374,"MT":382,"sideResp":1,"stimulus":[],"xmouse":[779,779,779,779,779,779,779,779,779,779,779,779,779,779,779,779,779,779,779,779,779,779,779,779,779,779,779,779,779,779,779,779,779,779,779,779,779,779,779,779,779,779,779,779,779,779,779,779,779,779,779,779,779,779,779,779,779,779,779,779,779,779,779,779,779,788,801,816,842,846,846,846,844,828,792,765,733,706,680,669,659,646,628,576,548,529,514,498],"ymouse":[637,637,637,637,637,637,637,637,637,637,637,637,637,637,637,637,637,637,637,637,637,637,637,637,637,637,637,637,637,637,637,637,637,637,637,637,637,637,637,637,637,637,637,637,637,637,637,637,637,637,637,637,637,637,637,637,637,637,637,637,637,637,637,637,636,624,603,577,519,497,487,476,471,458,436,415,391,371,338,319,298,279,252,188,151,127,105,86],"timestamp_mouse":[14,39,55,74,94,116,135,154,174,195,214,235,255,275,295,315,334,355,374,395,415,434,456,474,494,514,534,554,575,595,615,635,654,675,694,715,734,754,774,795,814,834,855,874,895,916,934,955,974,994,1015,1035,1054,1074,1094,1115,1135,1154,1174,1195,1214,1234,1254,1274,1295,1314,1336,1354,1374,1394,1416,1436,1454,1474,1494,1515,1534,1555,1575,1594,1615,1634,1654,1674,1694,1714,1735,1755],"xSR":741.5,"ySR":573.95,"xT1":424.9,"yT1":0,"xT2":1058.1,"yT2":0,"toosoon":0,"cond_shown":"Incongruent","ratio_trial":200,"L_num":1,"L_den":2,"R_num":3,"R_den":10,"correct_side":1,"subjID":"SamuelArturoArizaRamos13","gender":"0","school":"6","age":"11"},{"start_time":1551887141885,"click_time":1551887144100,"finger_time":1551887143500,"fix_duration":1243.8113022989762,"trial":46,"RT":1615,"MT":600,"sideResp":2,"stimulus":[],"xmouse":[780,780,780,780,780,780,780,780,780,780,780,780,780,780,780,780,780,780,780,780,780,780,780,780,780,780,780,780,780,780,780,780,780,780,780,780,780,780,780,780,780,780,780,780,780,780,780,780,780,780,780,780,780,780,780,780,780,780,780,780,780,780,780,780,780,780,780,780,780,780,780,780,780,780,780,780,780,780,780,792,837,1007,1078,1104,1112,1120,1146,1158,1207,1232,1240,1240,1240,1240,1236,1220,1215,1213,1208,1203,1194,1190,1186,1184,1180,1176,1172,1170,1164,1160,1156],"ymouse":[618,618,618,618,618,618,618,618,618,618,618,618,618,618,618,618,618,618,618,618,618,618,618,618,618,618,618,618,618,618,618,618,618,618,618,618,618,618,618,618,618,618,618,618,618,618,618,618,618,618,618,618,618,618,618,618,618,618,618,618,618,618,618,618,618,618,618,618,618,618,618,618,618,618,618,618,618,618,617,601,553,326,236,194,171,141,111,101,67,51,47,47,47,45,44,37,34,34,34,35,38,40,41,42,43,44,47,48,52,55,58],"timestamp_mouse":[16,35,55,76,97,116,135,155,175,195,215,236,256,275,295,316,335,356,375,396,417,435,455,476,496,516,536,555,575,595,615,636,656,675,695,715,735,756,775,795,815,835,856,877,897,916,935,955,975,997,1016,1035,1057,1075,1095,1116,1136,1155,1175,1196,1215,1236,1255,1275,1295,1316,1335,1355,1375,1396,1415,1436,1455,1475,1495,1515,1535,1555,1576,1595,1615,1635,1655,1676,1695,1715,1735,1756,1775,1795,1815,1835,1856,1875,1896,1915,1935,1955,1976,1996,2015,2035,2055,2076,2095,2116,2137,2155,2175,2195,2215],"xSR":741.5,"ySR":573.95,"xT1":424.9,"yT1":0,"xT2":1058.1,"yT2":0,"toosoon":0,"cond_shown":"Congruent","ratio_trial":200,"L_num":3,"L_den":10,"R_num":14,"R_den":28,"correct_side":2,"subjID":"SamuelArturoArizaRamos13","gender":"0","school":"6","age":"11"},{"start_time":1551887145472,"click_time":1551887147320,"finger_time":1551887147000,"fix_duration":250,"trial":47,"RT":1528,"MT":320,"sideResp":1,"stimulus":[],"xmouse":[772,772,772,772,772,772,772,772,772,772,772,772,772,772,772,772,772,772,772,772,772,772,772,772,772,772,772,772,772,772,772,772,772,772,772,772,772,772,772,772,772,772,772,772,772,772,772,772,772,772,772,772,772,772,772,772,772,772,772,772,772,772,772,772,772,772,772,770,765,763,762,760,760,760,759,756,727,687,643,631,602,530,486,457,443,440,437,437,437,435,434,434,434],"ymouse":[647,647,647,647,647,647,647,647,647,647,647,647,647,647,647,647,647,647,647,647,647,647,647,647,647,647,647,647,647,647,647,647,647,647,647,647,647,647,647,647,647,647,647,647,647,647,647,647,647,647,647,647,647,647,647,647,647,647,647,647,647,647,647,647,647,647,646,641,631,626,624,623,623,623,623,622,604,566,509,480,415,284,227,190,166,151,127,123,116,108,105,100,99],"timestamp_mouse":[8,38,49,69,88,109,130,148,168,189,210,229,248,270,289,308,329,349,369,388,409,429,450,468,489,509,529,548,568,588,608,629,648,668,688,708,728,748,768,789,809,829,848,868,889,908,928,948,968,989,1009,1028,1049,1069,1088,1108,1128,1149,1168,1189,1209,1229,1249,1268,1288,1309,1329,1349,1368,1389,1408,1428,1448,1469,1488,1510,1528,1548,1571,1588,1609,1628,1649,1669,1688,1709,1729,1748,1769,1790,1809,1828,1848],"xSR":741.5,"ySR":573.95,"xT1":424.9,"yT1":0,"xT2":1058.1,"yT2":0,"toosoon":0,"cond_shown":"Congruent","ratio_trial":200,"L_num":9,"L_den":20,"R_num":4,"R_den":16,"correct_side":1,"subjID":"SamuelArturoArizaRamos13","gender":"0","school":"6","age":"11"},{"start_time":1551887149787,"click_time":1551887152060,"finger_time":1551887151400,"fix_duration":265.07041929697175,"trial":48,"RT":1613,"MT":660,"sideResp":2,"stimulus":[],"xmouse":[822,822,819,817,817,817,817,817,817,817,817,817,817,817,817,817,817,817,817,817,817,817,817,817,817,817,817,817,817,817,817,817,817,817,817,817,817,817,817,817,817,817,817,817,817,817,817,817,817,817,817,817,817,817,817,817,817,817,817,817,817,817,817,817,817,817,817,817,817,817,817,817,817,817,817,817,817,817,817,822,856,895,920,939,951,957,957,960,966,973,987,990,993,995,996,1002,1007,1012,1018,1020,1026,1029,1031,1037,1041,1048,1051,1054,1056,1058,1064,1065,1069,1071],"ymouse":[593,593,599,600,600,600,600,600,600,600,600,600,600,600,600,600,