[{"start_time":1551880550233,"click_time":1551880584226,"finger_time":1551880550246,"fix_duration":923.0501229070402,"trial":0,"RT":13,"MT":33980,"sideResp":2,"stimulus":[],"xmouse":[855,855,855,855,855,855,855,855,855,855,855,854,854,854,854,854,854,854,854,854,854,854,855,855,855,855,855,855,855,855,855,855,855,855,855,855,855,855,855,855,855,856,858,859,860,861,863,863,863,863,863,863,863,863,863,863,863,863,863,863,863,863,863,863,863,863,863,863,863,863,863,863,863,863,863,863,863,863,863,863,863,863,863,863,863,863,863,863,858,851,844,827,815,811,807,807,806,805,805,805,806,806,807,807,807,807,807,807,806,805,806,809,812,812,812,812,811,811,811,811,811,811,811,812,812,812,812,812,812,812,812,812,812,811,811,811,811,811,811,811,810,810,810,810,810,810,810,810,810,810,810,810,810,810,810,810,810,810,810,810,810,810,810,810,810,810,810,810,810,810,810,810,810,810,810,810,810,810,810,810,810,810,810,810,810,810,810,810,810,810,810,810,810,810,810,810,810,810,810,810,810,810,810,810,810,810,810,810,810,810,810,810,810,810,810,810,808,805,800,795,791,790,790,790,790,790,790,790,790,790,790,790,787,781,771,754,732,730,730,730,730,730,730,730,730,730,730,730,730,730,730,730,730,730,730,730,730,730,730,730,730,731,733,734,735,735,736,738,740,744,748,755,757,757,755,753,752,752,752,752,752,752,752,753,754,756,759,761,762,763,764,767,773,778,784,789,805,813,823,828,832,838,841,843,844,844,843,837,825,811,794,769,758,754,752,752,751,749,748,748,746,744,742,739,736,735,731,730,728,726,724,720,718,716,716,716,712,711,709,707,706,706,706,706,707,708,710,711,712,713,715,722,729,735,740,747,760,766,771,774,776,776,777,777,777,780,783,800,806,810,812,812,812,812,812,812,812,812,812,812,812,812,812,812,812,812,812,812,812,812,812,812,812,812,812,812,812,812,812,812,812,812,812,812,812,812,812,812,812,812,812,813,813,813,813,814,814,816,817,817,818,818,819,820,821,823,826,826,827,827,827,828,828,828,828,828,828,828,828,828,828,828,828,829,835,845,860,896,919,942,964,1010,1037,1082,1118,1152,1195,1209,1217,1221,1225,1236,1241,1241,1241,1241,1232,1198,1130,1038,938,757,670,632,602,578,563,563,563,563,563,563,563,570,589,612,661,688,717,746,779,832,850,854,854,854,854,854,854,854,854,854,854,851,827,809,801,801,801,801,801,801,801,801,801,801,801,801,801,801,801,801,801,801,801,801,801,801,801,801,801,801,801,801,801,801,801,801,801,801,801,801,801,801,801,801,801,801,801,801,801,801,801,801,801,801,801,801,801,801,801,801,801,801,801,801,801,801,801,801,801,801,801,801,801,801,801,801,801,801,801,801,801,801,801,801,801,802,805,806,809,815,819,825,832,846,877,891,901,907,908,909,911,912,914,915,915,915,915,915,913,911,906,901,894,883,859,845,832,821,807,803,799,799,799,799,799,799,799,799,799,799,797,794,789,787,786,786,787,788,788,789,792,792,793,793,793,795,796,798,798,798,799,799,799,799,799,799,799,799,799,799,799,799,799,799,799,799,799,799,799,799,799,799,799,799,799,799,799,799,799,799,799,799,788,767,759,759,773,789,813,828,828,828,828,828,828,828,828,828,828,828,827,827,827,827,827,827,827,826,825,825,825,825,824,824,823,818,816,816,816,815,806,803,803,803,803,803,803,803,803,803,803,803,803,803,803,803,803,803,803,803,802,802,802,802,802,802,802,802,802,802,802,802,802,802,802,802,802,802,802,802,802,802,802,803,803,803,803,803,803,803,803,803,803,803,803,803,803,803,803,803,803,803,803,803,803,803,803,803,803,803,803,803,803,803,803,803,803,803,803,803,803,803,803,803,803,803,803,803,803,803,803,803,803,803,803,803,803,803,803,803,803,803,803,803,803,803,803,803,803,803,803,803,803,803,803,803,803,803,803,803,803,803,803,803,803,803,803,803,803,803,803,803,803,803,803,803,803,803,803,803,803,803,803,803,803,803,803,803,803,803,803,803,803,803,803,803,803,803,803,803,803,803,803,803,803,803,803,803,803,803,803,803,803,803,803,803,803,803,803,803,803,803,803,803,803,803,803,803,803,803,803,803,803,803,803,803,803,803,803,803,803,803,803,803,803,803,803,803,803,803,803,803,803,803,803,803,803,803,803,803,803,803,803,803,803,803,803,803,803,803,803,803,803,803,803,803,803,803,803,803,803,803,803,803,803,803,803,803,803,803,803,803,803,803,803,803,803,803,803,803,803,803,803,803,803,803,803,803,803,803,803,803,803,803,803,803,803,803,803,803,803,803,803,803,803,803,803,803,803,803,803,803,803,803,803,803,803,803,803,803,803,803,803,803,803,803,803,803,803,803,803,803,803,803,803,803,803,803,803,803,803,803,803,803,803,803,803,803,803,803,803,803,803,803,803,803,803,803,803,803,803,803,803,803,803,803,803,803,803,803,803,803,803,803,803,803,803,803,803,803,803,803,803,803,803,803,803,803,803,803,803,803,803,803,803,803,803,803,803,803,803,803,803,803,803,803,803,803,803,803,803,803,803,803,803,803,803,803,803,803,803,803,803,803,803,803,803,803,803,803,803,798,797,796,796,795,795,794,793,792,789,788,787,787,786,785,784,783,783,783,782,782,781,780,780,780,780,779,778,777,776,776,776,776,776,776,776,776,776,776,776,776,776,777,783,788,791,796,803,813,851,920,982,1030,1077,1103,1137,1162,1186,1206,1227,1227,1227,1227,1227,1227,1227,1224,1213,1169,1136,1117,1101,1097,1092,1091,1089,1089,1087,1086,1082,1078,1075,1071,1069,1066,1065,1061,1060,1059,1059,1059,1059,1059,1059,1057,1041,999,925,758,678,659,657,657,657,657,657,657,657,657,663,689,729,764,788,800,800,800,800,800,800,800,800,800,800,800,800,800,800,800,800,800,800,800,800,800,800,800,800,800,800,800,800,800,800,800,800,800,800,800,800,800,800,800,800,800,800,800,800,800,800,800,800,800,800,800,800,800,800,800,800,800,800,800,800,800,800,800,800,800,800,800,800,800,800,800,800,800,800,800,800,800,800,800,800,799,799,799,799,799,799,799,799,799,799,799,798,797,797,797,797,797,797,797,797,797,797,797,796,796,796,796,796,796,796,796,796,796,796,796,796,796,796,796,796,796,796,796,796,796,796,796,796,796,796,796,796,796,796,796,796,796,796,796,796,796,796,796,796,796,796,796,794,793,792,790,790,790,790,790,790,790,790,790,790,790,790,790,790,790,790,790,790,790,790,790,790,790,790,790,790,790,790,790,790,790,790,790,790,790,790,790,790,790,790,790,790,790,790,790,790,790,790,790,790,790,790,793,794,795,796,796,796,796,796,796,796,796,796,796,796,796,796,796,796,796,796,796,796,796,796,796,796,796,796,796,796,796,796,796,796,796,796,796,796,796,796,796,796,796,796,796,796,796,796,796,794,793,792,792,792,792,792,792,792,792,792,792,792,792,792,792,789,787,783,782,782,782,782,782,786,793,799,802,803,803,803,803,803,803,800,791,783,779,779,779,779,779,782,787,802,804,807,809,809,809,809,809,805,797,760,759,759,759,760,774,800,824,840,851,851,851,851,851,818,798,784,783,783,783,806,823,834,834,834,834,821,806,799,799,802,817,828,832,832,832,822,810,808,808,819,830,830,830,824,819,819,819,819,819,824,824,824,824,824,824,823,823,823,823,823,822,817,803,776,774,774,776,779,786,788,788,788,785,782,781,781,781,781,781,781,781,781,781,783,786,786,786,786,786,786,786,786,786,786,786,786,786,786,786,786,786,787,787,787,787,787,787,787,787,789,789,789,789,789,789,789,789,789,789,789,790,790,790,790,800,810,818,830,865,890,909,937,960,1000,1015,1026,1034,1040,1044,1045,1045,1046,1046,1046,1047,1051,1061],"ymouse":[365,365,365,365,365,365,365,365,365,366,366,366,366,366,366,367,368,368,368,369,370,371,379,381,385,389,392,394,394,395,395,395,396,396,396,396,396,396,396,396,396,397,397,396,394,392,390,390,390,390,390,390,390,390,390,390,390,390,390,390,390,390,390,390,390,390,390,390,390,390,390,390,390,390,390,390,390,390,390,390,390,390,390,390,390,390,390,390,394,398,403,417,434,445,451,457,463,471,473,474,475,481,489,495,507,521,541,589,604,613,620,627,633,633,633,634,634,634,634,634,633,632,629,628,628,628,627,627,627,627,627,626,626,625,624,624,624,624,624,624,624,624,624,624,624,624,624,624,624,624,624,624,624,624,624,623,621,620,620,619,619,619,619,618,617,616,616,616,616,616,616,616,616,616,616,616,616,616,616,616,616,616,616,615,615,615,615,615,615,615,615,615,615,615,615,615,615,615,615,615,615,615,615,615,615,615,615,615,615,615,615,615,615,615,615,615,614,614,614,614,614,614,614,614,614,614,614,614,614,614,614,614,614,614,613,611,608,607,607,607,607,607,607,607,607,607,607,607,607,607,607,607,607,607,607,607,607,607,606,606,604,602,598,597,595,594,592,588,584,579,571,556,545,534,525,516,502,495,490,484,478,473,463,460,457,454,448,446,444,443,441,440,438,435,433,431,424,418,410,405,398,385,376,371,365,360,348,339,332,326,321,314,313,313,313,313,313,313,313,313,313,315,319,323,328,332,340,342,346,350,357,367,374,379,383,389,408,419,430,443,452,457,467,473,478,480,484,485,486,488,490,501,513,526,540,556,581,590,597,601,603,604,604,604,604,608,610,617,619,620,620,620,620,620,620,620,620,620,620,620,620,620,620,620,620,620,620,620,620,620,620,620,620,620,620,620,620,620,620,620,620,620,620,620,620,620,620,620,620,620,620,620,620,620,620,618,617,611,609,607,605,604,601,597,592,589,582,578,577,576,575,574,574,574,574,574,574,574,574,574,574,574,574,574,574,572,572,572,572,572,572,572,572,575,580,586,594,596,596,596,596,596,596,596,596,596,596,596,596,596,596,596,596,596,596,593,592,592,592,592,592,592,592,592,592,592,592,592,592,592,592,592,592,592,592,592,592,592,592,592,592,592,592,592,590,587,586,586,586,586,586,586,586,586,586,586,586,586,586,586,586,586,586,586,586,586,586,586,586,586,586,586,586,586,586,586,586,586,586,586,586,586,586,586,586,586,586,586,586,586,586,586,586,586,586,586,586,586,586,586,586,586,586,586,586,586,586,586,586,586,586,586,586,586,586,586,586,586,586,586,586,586,586,586,586,586,586,585,585,585,585,583,583,580,579,577,575,575,575,574,573,573,571,570,568,565,559,545,540,535,531,528,523,521,518,515,504,498,494,491,487,486,486,486,486,486,486,486,486,486,486,486,488,500,516,526,535,545,548,550,553,556,564,566,569,572,575,581,586,591,595,599,601,601,601,601,601,601,601,601,601,601,601,601,601,601,601,601,601,601,601,601,601,601,601,601,601,601,601,601,601,601,601,601,618,649,660,660,643,621,588,570,570,570,570,570,570,570,570,570,570,579,581,582,582,582,582,582,582,583,583,584,584,584,584,584,584,587,588,588,588,588,593,595,596,596,596,596,596,596,596,596,596,596,596,596,596,596,596,596,596,596,595,595,595,595,595,595,595,595,595,595,595,595,595,595,595,595,595,595,595,595,595,595,595,594,594,594,594,594,594,594,594,594,594,594,594,594,594,594,594,594,594,594,594,594,594,594,594,594,594,594,594,594,594,594,594,594,594,594,594,594,594,594,594,594,594,594,594,594,594,594,594,594,594,594,594,594,594,594,594,594,594,594,594,594,594,594,594,594,594,594,594,594,594,594,594,594,594,594,594,594,594,594,594,594,594,594,594,594,594,594,594,594,594,594,594,594,594,594,594,594,594,594,594,594,594,594,594,594,594,594,594,594,594,594,594,594,594,594,594,594,594,594,594,594,594,594,594,594,594,594,594,594,594,594,594,594,594,594,594,594,594,594,594,594,594,594,594,594,594,594,594,594,594,594,594,594,594,594,594,594,594,594,594,594,594,594,594,594,594,594,594,594,594,594,594,594,594,594,594,594,594,594,594,594,594,594,594,594,594,594,594,594,594,594,594,594,594,594,594,594,594,594,594,594,594,594,594,594,594,594,594,594,594,594,594,594,594,594,594,594,594,594,594,594,594,594,594,594,594,594,594,594,594,594,594,594,594,594,594,594,594,594,594,594,594,594,594,594,594,594,594,594,594,594,594,594,594,594,594,594,594,594,594,594,594,594,594,594,594,594,594,594,594,594,594,594,594,594,594,594,594,594,594,594,594,594,594,594,594,594,594,594,594,594,594,594,594,594,594,594,594,594,594,594,594,594,594,594,594,594,594,594,594,594,594,594,594,594,594,594,594,594,594,594,594,594,594,594,594,594,594,594,594,594,594,594,594,594,594,594,594,594,594,594,594,594,594,594,594,594,594,594,594,594,594,594,594,594,594,594,594,594,594,594,594,594,594,594,594,594,597,605,606,607,608,610,610,612,612,614,618,619,620,622,623,625,625,626,626,626,627,627,629,629,630,630,630,630,632,635,637,637,637,637,637,637,637,637,637,637,637,637,637,638,638,637,636,635,634,633,633,648,665,684,714,737,763,779,789,798,804,804,804,804,804,804,804,804,800,786,777,769,765,764,762,761,761,761,761,760,759,758,758,757,757,756,756,756,756,756,756,756,756,755,755,755,754,743,721,675,649,642,642,642,642,642,642,642,642,642,642,642,642,642,642,642,642,642,642,642,642,642,642,642,642,642,642,642,642,642,642,642,642,642,642,642,642,642,642,642,642,642,642,642,642,642,642,642,642,642,642,642,642,642,642,642,642,642,642,642,642,642,642,642,642,642,642,642,642,642,642,642,642,642,642,642,642,642,642,642,642,642,642,642,642,642,642,642,642,642,642,642,642,642,642,642,642,642,642,539,539,539,539,539,539,642,642,642,641,641,641,641,641,641,641,641,641,641,538,538,538,538,538,538,538,538,538,538,538,538,538,538,538,538,538,538,538,538,538,538,538,538,538,538,538,538,538,538,538,538,538,538,538,538,641,641,641,641,641,641,641,641,641,641,641,641,641,641,641,641,641,641,641,641,641,641,641,641,641,641,641,641,641,641,641,641,641,641,641,641,641,641,641,641,641,641,641,641,641,641,641,641,641,641,641,641,641,641,641,641,641,641,641,641,640,636,630,624,618,616,613,613,613,613,613,613,613,613,613,613,613,613,613,613,613,613,613,613,613,613,613,613,613,613,613,613,613,613,613,613,613,613,613,613,613,613,613,613,613,613,613,613,613,613,613,613,613,613,613,613,613,613,613,613,613,613,613,613,613,613,613,613,615,618,623,624,624,624,624,624,614,602,592,587,586,586,586,586,586,586,588,599,610,614,614,614,614,614,609,602,588,586,585,584,584,584,584,584,589,599,648,653,653,653,653,634,607,591,579,573,573,573,573,574,615,634,646,647,647,647,607,580,568,567,567,572,599,627,640,641,637,616,597,590,590,590,606,628,631,631,610,589,586,586,586,590,590,590,590,589,580,579,579,579,579,579,578,578,578,578,578,578,578,586,620,623,623,624,623,612,609,609,609,611,616,620,620,620,620,620,620,620,620,620,618,615,615,615,615,615,615,615,615,615,615,615,615,615,615,615,615,615,613,613,613,613,613,613,613,613,609,608,608,608,608,608,608,608,608,608,608,606,605,600,595,563,541,519,492,411,334,278,216,162,77,49,31,20,14,9,9,9,9,9,9,9,9,9],"timestamp_mouse":[13,32,52,72,92,113,133,153,173,192,212,233,252,272,292,313,333,353,372,392,413,432,453,473,493,512,532,552,572,592,612,632,653,673,692,713,732,752,772,793,812,833,853,873,893,913,932,952,973,992,1012,1033,1052,1072,1093,1112,1132,1152,1172,1192,1214,1233,1252,1272,1293,1312,1332,1353,1372,1393,1413,1433,1452,1472,1493,1512,1532,1552,1573,1592,1613,1633,1653,1672,1693,1712,1733,1753,1772,1793,1813,1832,1852,1872,1893,1912,1932,1952,1972,1992,2012,2033,2052,2072,2092,2113,2132,2153,2173,2193,2212,2232,2252,2273,2293,2312,2332,2352,2372,2393,2412,2432,2452,2473,2492,2514,2532,2552,2574,2592,2612,2632,2652,2672,2693,2713,2733,2752,2772,2792,2812,2833,2852,2872,2892,2912,2933,2952,2973,2993,3012,3032,3053,3073,3092,3112,3132,3152,3172,3192,3212,3232,3252,3273,3293,3312,3332,3352,3372,3392,3413,3432,3454,3472,3492,3513,3533,3552,3572,3592,3612,3632,3652,3672,3693,3713,3733,3752,3772,3792,3813,3832,3853,3872,3892,3913,3932,3952,3973,3992,4014,4032,4052,4074,4092,4113,4132,4152,4173,4193,4212,4233,4252,4273,4292,4312,4333,4353,4373,4392,4412,4432,4453,4472,4493,4512,4532,4552,4573,4592,4612,4633,4652,4672,4693,4713,4733,4752,4772,4792,4813,4833,4852,4873,4893,4912,4933,4952,4973,4992,5012,5033,5052,5073,5093,5113,5133,5153,5172,5192,5213,5232,5252,5273,5293,5312,5332,5352,5373,5393,5413,5432,5452,5472,5492,5512,5533,5552,5572,5592,5612,5632,5652,5673,5692,5712,5732,5752,5773,5792,5813,5833,5852,5872,5893,5913,5932,5952,5972,5992,6013,6032,6052,6072,6093,6112,6132,6152,6172,6192,6212,6233,6252,6272,6293,6312,6332,6352,6373,6393,6412,6432,6452,6473,6493,6513,6532,6552,6572,6593,6612,6632,6652,6673,6693,6712,6732,6752,6773,6793,6813,6832,6853,6873,6892,6912,6932,6952,6973,6992,7012,7032,7052,7073,7092,7112,7133,7152,7172,7192,7212,7233,7252,7272,7293,7313,7332,7352,7372,7393,7412,7433,7452,7472,7492,7513,7534,7552,7573,7592,7613,7632,7653,7672,7693,7713,7733,7753,7773,7792,7813,7832,7852,7872,7894,7913,7933,7952,7972,7993,8012,8034,8053,8072,8092,8112,8132,8152,8172,8192,8213,8233,8252,8273,8293,8312,8332,8352,8373,8393,8412,8432,8453,8473,8493,8514,8533,8552,8572,8594,8613,8633,8653,8672,8694,8712,8733,8753,8772,8792,8813,8832,8853,8872,8892,8913,8932,8953,8972,8994,9013,9033,9052,9072,9093,9112,9133,9152,9173,9192,9213,9232,9252,9273,9293,9313,9333,9352,9373,9392,9412,9432,9452,9472,9493,9512,9532,9552,9572,9592,9612,9633,9652,9672,9692,9712,9732,9752,9772,9792,9812,9832,9853,9872,9892,9912,9932,9952,9972,9992,10012,10033,10052,10072,10092,10112,10133,10152,10172,10192,10213,10232,10253,10273,10292,10312,10332,10352,10372,10392,10412,10433,10453,10473,10493,10512,10533,10552,10573,10593,10612,10632,10653,10673,10693,10712,10732,10752,10773,10793,10812,10832,10852,10873,10893,10913,10933,10953,10972,10992,11013,11032,11053,11073,11092,11112,11132,11152,11172,11192,11212,11232,11252,11273,11292,11312,11332,11353,11373,11392,11413,11432,11453,11472,11493,11512,11532,11552,11573,11593,11613,11633,11652,11672,11692,11712,11733,11753,11772,11793,11813,11832,11853,11872,11894,11913,11933,11952,11973,11992,12012,12032,12053,12073,12094,12112,12132,12152,12172,12192,12214,12233,12252,12272,12293,12312,12333,12352,12373,12392,12413,12433,12452,12472,12492,12513,12532,12552,12572,12594,12613,12633,12652,12672,12692,12712,12733,12752,12772,12793,12813,12832,12853,12872,12893,12914,12933,12952,12972,12993,13013,13032,13053,13072,13092,13113,13133,13152,13173,13193,13212,13232,13253,13272,13292,13313,13332,13353,13373,13392,13414,13432,13452,13473,13493,13513,13533,13553,13572,13592,13613,13632,13652,13673,13693,13712,13733,13753,13773,13792,13812,13833,13852,13872,13892,13913,13933,13953,13973,13992,14013,14033,14054,14072,14092,14112,14132,14152,14173,14192,14213,14232,14253,14273,14293,14312,14333,14353,14372,14392,14412,14433,14454,14473,14492,14513,14533,14552,14572,14593,14612,14632,14652,14672,14694,14712,14732,14753,14772,14792,14812,14832,14852,14874,14892,14913,14932,14952,14972,14993,15013,15032,15052,15073,15093,15112,15132,15152,15173,15192,15213,15233,15253,15273,15293,15313,15332,15353,15373,15393,15412,15433,15453,15473,15492,15512,15532,15552,15574,15592,15613,15633,15652,15672,15692,15712,15733,15753,15772,15792,15813,15832,15852,15872,15893,15912,15933,15953,15972,15994,16013,16032,16052,16074,16092,16113,16134,16152,16172,16193,16212,16233,16252,16274,16293,16313,16333,16353,16372,16393,16413,16433,16452,16472,16492,16512,16533,16552,16572,16593,16612,16633,16652,16672,16693,16712,16734,16752,16772,16793,16812,16832,16853,16873,16892,16914,16933,16952,16972,16992,17013,17032,17053,17073,17093,17113,17132,17152,17172,17193,17213,17232,17252,17274,17293,17313,17334,17353,17373,17392,17412,17433,17453,17472,17492,17512,17534,17553,17573,17593,17612,17633,17652,17673,17692,17713,17732,17754,17773,17793,17812,17833,17853,17872,17892,17912,17932,17952,17972,17992,18013,18034,18053,18072,18093,18112,18133,18153,18172,18193,18214,18233,18252,18273,18293,18312,18332,18352,18374,18392,18413,18432,18453,18473,18493,18513,18533,18552,18572,18593,18613,18632,18653,18672,18693,18713,18733,18753,18772,18792,18812,18834,18853,18872,18893,18913,18934,18953,18972,18992,19013,19032,19052,19072,19093,19113,19133,19153,19173,19193,19212,19232,19253,19273,19293,19313,19333,19352,19373,19392,19413,19432,19453,19472,19492,19512,19533,19552,19573,19593,19613,19633,19653,19673,19693,19713,19733,19753,19773,19792,19813,19833,19852,19873,19893,19912,19933,19952,19973,19993,20013,20033,20052,20073,20094,20113,20132,20152,20172,20193,20212,20232,20252,20272,20292,20313,20332,20353,20373,20392,20413,20433,20453,20472,20492,20513,20533,20553,20573,20592,20612,20633,20652,20673,20693,20713,20733,20752,20772,20793,20812,20832,20852,20872,20893,20913,20933,20952,20973,20994,21013,21033,21052,21073,21093,21112,21133,21152,21173,21194,21213,21232,21252,21272,21293,21313,21332,21353,21372,21392,21413,21432,21452,21473,21493,21512,21533,21553,21572,21593,21612,21632,21653,21672,21693,21712,21733,21753,21772,21792,21812,21833,21852,21872,21893,21913,21933,21953,21974,21992,22013,22032,22053,22073,22093,22113,22133,22152,22172,22192,22213,22232,22252,22272,22292,22312,22333,22352,22373,22393,22412,22433,22452,22473,22493,22512,22533,22552,22572,22594,22613,22633,22653,22673,22694,22713,22732,22752,22772,22793,22813,22833,22853,22872,22892,22914,22932,22952,22972,22993,23012,23032,23052,23072,23093,23113,23132,23152,23172,23193,23212,23232,23252,23272,23293,23312,23333,23354,23372,23392,23412,23432,23452,23473,23493,23512,23533,23553,23573,23593,23612,23633,23652,23673,23692,23712,23732,23752,23773,23793,23813,23833,23852,23872,23892,23912,23933,23952,23972,23993,24012,24032,24053,24072,24092,24113,24132,24152,24173,24193,24212,24232,24253,24273,24292,24312,24333,24353,24372,24392,24413,24433,24453,24473,24492,24513,24533,24552,24573,24592,24613,24632,24652,24672,24693,24712,24732,24753,24772,24793,24812,24833,24852,24872,24893,24913,24932,24952,24972,24992,25012,25033,25052,25073,25092,25112,25132,25153,25172,25192,25212,25233,25253,25273,25293,25312,25333,25352,25372,25392,25414,25432,25453,25473,25492,25512,25532,25553,25573,25592,25612,25632,25652,25673,25693,25713,25733,25752,25773,25793,25812,25834,25853,25872,25892,25912,25932,25952,25973,25993,26013,26033,26052,26072,26093,26112,26133,26152,26174,26193,26212,26232,26252,26273,26293,26313,26332,26352,26372,26393,26413,26433,26452,26473,26493,26513,26533,26553,26574,26592,26612,26633,26653,26673,26693,26712,26732,26752,26773,26792,26813,26833,26853,26873,26893,26912,26932,26953,26972,26992,27012,27033,27053,27072,27093,27112,27133,27153,27172,27192,27212,27232,27252,27272,27292,27312,27333,27352,27373,27393,27412,27432,27452,27472,27492,27512,27533,27552,27572,27593,27612,27632,27652,27672,27692,27712,27733,27753,27772,27792,27813,27832,27852,27872,27892,27912,27933,27953,27973,27992,28014,28034,28052,28072,28093,28113,28132,28152,28173,28193,28212,28233,28252,28272,28293,28313,28333,28353,28372,28392,28412,28432,28453,28472,28492,28512,28532,28553,28572,28592,28613,28633,28652,28672,28692,28712,28733,28752,28772,28793,28812,28832,28853,28874,28893,28913,28932,28953,28973,28992,29012,29034,29052,29072,29093,29112,29132,29153,29172,29193,29212,29232,29252,29272,29293,29313,29332,29353,29372,29392,29413,29432,29454,29472,29492,29512,29532,29552,29573,29592,29613,29633,29652,29672,29693,29712,29733,29752,29773,29793,29812,29832,29853,29873,29892,29912,29933,29953,29972,29993,30012,30033,30052,30072,30093,30112,30132,30152,30172,30193,30213,30232,30252,30272,30292,30312,30333,30353,30372,30393,30413,30432,30453,30472,30492,30512,30534,30553,30572,30592,30612,30632,30652,30672,30692,30713,30732,30753,30773,30792,30813,30832,30852,30873,30892,30914,30933,30953,30973,30993,31013,31032,31052,31073,31093,31112,31132,31153,31172,31192,31212,31233,31253,31272,31293,31313,31333,31352,31372,31392,31412,31451,31452,31473,31492,31513,31532,31553,31573,31592,31613,31632,31653,31672,31692,31712,31733,31752,31773,31793,31812,31832,31853,31872,31892,31912,31932,31952,31972,31992,32013,32033,32052,32072,32093,32112,32132,32152,32172,32192,32212,32232,32252,32272,32292,32313,32333,32353,32372,32393,32412,32432,32453,32473,32493,32512,32533,32552,32572,32592,32613,32632,32653,32673,32692,32712,32732,32753,32772,32793,32812,32832,32852,32873,32893,32914,32932,32952,32972,32994,33012,33033,33052,33072,33092,33113,33132,33153,33172,33192,33213,33233,33252,33272,33292,33313,33332,33352,33372,33392,33412,33432,33453,33472,33494,33512,33532,33552,33573,33592,33612,33634,33652,33672,33693,33712,33732,33752,33772,33793,33813,33833,33852,33873,33892,33912,33933,33952,33973,33992],"xSR":741.5,"ySR":449.15000000000003,"xT1":424.9,"yT1":0,"xT2":1058.1,"yT2":0,"toosoon":0,"cond_shown":"Incongruent","ratio_trial":200,"L_num":7,"L_den":10,"R_num":14,"R_den":28,"correct_side":1,"subjID":"SamuelBarretoBarrera6f","gender":"0","age":"11","school":"6","test":{"fix_dur":[250,1500],"timestim":1000,"targets_dim":[100,100],"targets_relative_coord":[0.3,0.7],"size_stim":[880,420],"start_dim":[100,100],"size_start":[300,300],"size_fix":60,"samplingrate":20,"img_types":["Congruent","Incongruent"],"ratios":[100,200,300],"rep_conds":19,"nTrials":120,"trials_to_rest":500,"Trials_order":[3,18,92,37,66,30,20,114,58,0,83,42,89,107,79,60,9,109,99,25,24,115,22,39,13,31,11,51,47,32,1,26,19,86,7,116,118,104,69,94,8,87,97,61,12,119,57,44,106,34,46,28,88,62,54,111,67,74,90,78,45,95,70,36,6,53,100,5,108,98,85,4,63,49,84,16,65,75,52,68,82,91,72,117,38,10,71,110,76,81,112,48,96,2,27,59,23,73,93,15,41,55,77,64,103,56,50,40,113,21,17,14,35,43,80,101,105,33,29,102],"cond_shown":["Incongruent","Congruent","Congruent","Incongruent","Congruent","Congruent","Congruent","Congruent","Congruent","Congruent","Incongruent","Congruent","Incongruent","Incongruent","Incongruent","Congruent","Incongruent","Incongruent","Incongruent","Incongruent","Congruent","Incongruent","Congruent","Incongruent","Incongruent","Incongruent","Incongruent","Incongruent","Incongruent","Congruent","Incongruent","Congruent","Incongruent","Congruent","Incongruent","Congruent","Congruent","Congruent","Incongruent","Congruent","Congruent","Incongruent","Incongruent","Incongruent","Congruent","Incongruent","Incongruent","Congruent","Congruent","Congruent","Congruent","Congruent","Congruent","Congruent","Congruent","Incongruent","Incongruent","Congruent","Congruent","Congruent","Incongruent","Incongruent","Congruent","Congruent","Congruent","Incongruent","Congruent","Incongruent","Congruent","Congruent","Incongruent","Congruent","Incongruent","Incongruent","Congruent","Congruent","Incongruent","Incongruent","Congruent","Congruent","Congruent","Incongruent","Congruent","Incongruent","Congruent","Congruent","Incongruent","Congruent","Congruent","Incongruent","Congruent","Congruent","Congruent","Congruent","Incongruent","Incongruent","Incongruent","Incongruent","Incongruent","Incongruent","Incongruent","Incongruent","Incongruent","Congruent","Incongruent","Congruent","Congruent","Congruent","Incongruent","Incongruent","Incongruent","Congruent","Incongruent","Incongruent","Congruent","Incongruent","Incongruent","Incongruent","Incongruent","Congruent"],"ratio_trial":[200,100,200,100,100,100,200,100,300,100,300,100,300,300,100,100,200,100,200,100,100,100,300,200,100,100,300,200,300,200,100,200,100,200,100,200,300,200,200,300,200,200,100,100,100,300,200,200,300,300,300,300,300,200,100,200,100,200,100,100,200,300,300,100,100,300,300,300,100,200,100,300,200,100,100,300,300,200,300,200,300,100,100,200,200,300,300,200,300,200,300,100,100,200,200,300,300,100,200,200,300,100,300,300,100,200,200,300,300,200,300,200,300,100,200,300,200,200,300,100],"left_num":[7,8,6,4,10,9,7,1,1,9,3,11,13,4,10,12,7,3,6,12,3,2,1,14,3,13,4,14,13,3,9,7,4,3,6,15,3,3,7,24,5,3,6,6,7,8,14,5,1,11,24,1,11,3,7,4,12,11,8,2,4,3,7,7,2,4,7,4,7,13,3,8,3,13,11,4,4,6,20,12,11,3,6,11,3,1,2,20,1,7,7,11,9,7,14,8,4,1,3,7,2,2,13,20,9,15,13,24,2,7,13,8,3,12,3,8,7,3,3,3],"right_num":[14,2,7,8,3,8,18,18,7,8,4,4,12,2,8,13,14,11,3,9,4,6,11,6,7,12,2,12,12,14,6,18,8,7,11,4,2,14,6,2,14,1,13,3,15,9,12,14,19,4,2,3,4,11,9,1,9,3,2,6,14,4,20,9,11,2,20,2,15,14,4,1,1,6,6,13,2,3,13,6,1,7,5,3,7,8,6,9,3,14,20,6,8,18,6,14,2,8,1,4,6,8,12,13,14,4,14,8,6,6,12,7,4,2,11,9,4,11,4,4],"left_den":[10,16,12,8,25,15,15,2,20,15,6,22,26,20,25,30,10,5,20,24,20,4,5,30,9,26,20,30,26,10,18,15,8,10,10,25,6,6,15,30,10,10,10,12,14,10,30,10,3,22,30,5,22,10,14,30,24,22,16,5,6,6,14,14,5,20,14,20,14,26,6,16,10,26,22,20,20,20,25,15,22,9,20,20,10,30,4,25,5,10,14,22,15,15,30,10,20,2,10,15,4,4,26,25,15,25,26,30,4,15,26,15,6,30,10,10,15,4,6,20],"right_den":[28,5,10,20,10,16,27,30,20,16,20,10,15,4,16,26,28,22,6,15,16,15,22,9,30,20,4,18,15,28,10,27,20,14,22,10,10,20,9,4,20,2,26,5,25,18,18,20,30,20,4,6,20,22,15,3,15,10,5,12,30,20,25,15,22,4,25,4,25,20,10,5,2,10,15,26,4,6,26,10,5,30,25,4,14,24,30,15,6,28,25,15,16,27,9,28,4,20,2,6,30,20,15,26,28,10,20,16,30,9,15,21,20,4,22,18,6,20,20,16],"correct_side":[1,1,2,1,1,1,2,2,2,1,1,1,2,2,2,2,1,1,2,2,2,1,2,2,1,2,2,2,2,2,2,2,1,2,1,1,1,2,2,1,2,2,1,2,2,1,2,2,2,1,1,2,1,2,2,2,2,1,1,2,1,1,2,2,2,2,2,2,2,2,1,1,2,2,1,2,2,2,1,1,1,1,1,2,2,2,1,1,2,1,2,1,1,2,2,1,2,1,2,2,1,1,2,1,1,1,2,1,1,2,2,1,1,2,2,1,2,1,1,2],"img_shown":["img2/200/Incongruent/L/I_Dist_200_LN_7_LD_10_RN_14_RD_28_0.png","img2/100/Congruent/L/C_Dist_100_LN_8_LD_16_RN_2_RD_5_0.png","img2/200/Congruent/R/C_Dist_200_LN_6_LD_12_RN_7_RD_10_1.png","img2/100/Incongruent/L/I_Dist_100_LN_4_LD_8_RN_8_RD_20_0.png","img2/100/Congruent/L/C_Dist_100_LN_10_LD_25_RN_3_RD_10_0.png","img2/100/Congruent/L/C_Dist_100_LN_9_LD_15_RN_8_RD_16_0.png","img2/200/Congruent/R/C_Dist_200_LN_7_LD_15_RN_18_RD_27_1.png","img2/100/Congruent/R/C_Dist_100_LN_1_LD_2_RN_18_RD_30_1.png","img2/300/Congruent/R/C_Dist_300_LN_1_LD_20_RN_7_RD_20_1.png","img2/100/Congruent/L/C_Dist_100_LN_9_LD_15_RN_8_RD_16_0.png","img2/300/Incongruent/L/I_Dist_300_LN_3_LD_6_RN_4_RD_20_0.png","img2/100/Congruent/L/C_Dist_100_LN_11_LD_22_RN_4_RD_10_0.png","img2/300/Incongruent/R/I_Dist_300_LN_13_LD_26_RN_12_RD_15_1.png","img2/300/Incongruent/R/I_Dist_300_LN_4_LD_20_RN_2_RD_4_1.png","img2/100/Incongruent/R/I_Dist_100_LN_10_LD_25_RN_8_RD_16_1.png","img2/100/Congruent/R/C_Dist_100_LN_12_LD_30_RN_13_RD_26_1.png","img2/200/Incongruent/L/I_Dist_200_LN_7_LD_10_RN_14_RD_28_0.png","img2/100/Incongruent/L/I_Dist_100_LN_3_LD_5_RN_11_RD_22_0.png","img2/200/Incongruent/R/I_Dist_200_LN_6_LD_20_RN_3_RD_6_1.png","img2/100/Incongruent/R/I_Dist_100_LN_12_LD_24_RN_9_RD_15_1.png","img2/100/Congruent/R/C_Dist_100_LN_3_LD_20_RN_4_RD_16_1.png","img2/100/Incongruent/L/I_Dist_100_LN_2_LD_4_RN_6_RD_15_0.png","img2/300/Congruent/R/C_Dist_300_LN_1_LD_5_RN_11_RD_22_1.png","img2/200/Incongruent/R/I_Dist_200_LN_14_LD_30_RN_6_RD_9_1.png","img2/100/Incongruent/L/I_Dist_100_LN_3_LD_9_RN_7_RD_30_0.png","img2/100/Incongruent/R/I_Dist_100_LN_13_LD_26_RN_12_RD_20_1.png","img2/300/Incongruent/R/I_Dist_300_LN_4_LD_20_RN_2_RD_4_1.png","img2/200/Incongruent/R/I_Dist_200_LN_14_LD_30_RN_12_RD_18_1.png","img2/300/Incongruent/R/I_Dist_300_LN_13_LD_26_RN_12_RD_15_1.png","img2/200/Congruent/R/C_Dist_200_LN_3_LD_10_RN_14_RD_28_1.png","img2/100/Incongruent/R/I_Dist_100_LN_9_LD_18_RN_6_RD_10_1.png","img2/200/Congruent/R/C_Dist_200_LN_7_LD_15_RN_18_RD_27_1.png","img2/100/Incongruent/L/I_Dist_100_LN_4_LD_8_RN_8_RD_20_0.png","img2/200/Congruent/R/C_Dist_200_LN_3_LD_10_RN_7_RD_14_1.png","img2/100/Incongruent/L/I_Dist_100_LN_6_LD_10_RN_11_RD_22_0.png","img2/200/Congruent/L/C_Dist_200_LN_15_LD_25_RN_4_RD_10_0.png","img2/300/Congruent/L/C_Dist_300_LN_3_LD_6_RN_2_RD_10_0.png","img2/200/Congruent/R/C_Dist_200_LN_3_LD_6_RN_14_RD_20_1.png","img2/200/Incongruent/R/I_Dist_200_LN_7_LD_15_RN_6_RD_9_1.png","img2/300/Congruent/L/C_Dist_300_LN_24_LD_30_RN_2_RD_4_0.png","img2/200/Congruent/R/C_Dist_200_LN_5_LD_10_RN_14_RD_20_1.png","img2/200/Incongruent/R/I_Dist_200_LN_3_LD_10_RN_1_RD_2_1.png","img2/100/Incongruent/L/I_Dist_100_LN_6_LD_10_RN_13_RD_26_0.png","img2/100/Incongruent/R/I_Dist_100_LN_6_LD_12_RN_3_RD_5_1.png","img2/100/Congruent/R/C_Dist_100_LN_7_LD_14_RN_15_RD_25_1.png","img2/300/Incongruent/L/I_Dist_300_LN_8_LD_10_RN_9_RD_18_0.png","img2/200/Incongruent/R/I_Dist_200_LN_14_LD_30_RN_12_RD_18_1.png","img2/200/Congruent/R/C_Dist_200_LN_5_LD_10_RN_14_RD_20_1.png","img2/300/Congruent/R/C_Dist_300_LN_1_LD_3_RN_19_RD_30_1.png","img2/300/Congruent/L/C_Dist_300_LN_11_LD_22_RN_4_RD_20_0.png","img2/300/Congruent/L/C_Dist_300_LN_24_LD_30_RN_2_RD_4_0.png","img2/300/Congruent/R/C_Dist_300_LN_1_LD_5_RN_3_RD_6_1.png","img2/300/Congruent/L/C_Dist_300_LN_11_LD_22_RN_4_RD_20_0.png","img2/200/Congruent/R/C_Dist_200_LN_3_LD_10_RN_11_RD_22_1.png","img2/100/Congruent/R/C_Dist_100_LN_7_LD_14_RN_9_RD_15_1.png","img2/200/Incongruent/R/I_Dist_200_LN_4_LD_30_RN_1_RD_3_1.png","img2/100/Incongruent/R/I_Dist_100_LN_12_LD_24_RN_9_RD_15_1.png","img2/200/Congruent/L/C_Dist_200_LN_11_LD_22_RN_3_RD_10_0.png","img2/100/Congruent/L/C_Dist_100_LN_8_LD_16_RN_2_RD_5_0.png","img2/100/Congruent/R/C_Dist_100_LN_2_LD_5_RN_6_RD_12_1.png","img2/200/Incongruent/L/I_Dist_200_LN_4_LD_6_RN_14_RD_30_0.png","img2/300/Incongruent/L/I_Dist_300_LN_3_LD_6_RN_4_RD_20_0.png","img2/300/Congruent/R/C_Dist_300_LN_7_LD_14_RN_20_RD_25_1.png","img2/100/Congruent/R/C_Dist_100_LN_7_LD_14_RN_9_RD_15_1.png","img2/100/Congruent/R/C_Dist_100_LN_2_LD_5_RN_11_RD_22_1.png","img2/300/Incongruent/R/I_Dist_300_LN_4_LD_20_RN_2_RD_4_1.png","img2/300/Congruent/R/C_Dist_300_LN_7_LD_14_RN_20_RD_25_1.png","img2/300/Incongruent/R/I_Dist_300_LN_4_LD_20_RN_2_RD_4_1.png","img2/100/Congruent/R/C_Dist_100_LN_7_LD_14_RN_15_RD_25_1.png","img2/200/Congruent/R/C_Dist_200_LN_13_LD_26_RN_14_RD_20_1.png","img2/100/Incongruent/L/I_Dist_100_LN_3_LD_6_RN_4_RD_10_0.png","img2/300/Congruent/L/C_Dist_300_LN_8_LD_16_RN_1_RD_5_0.png","img2/200/Incongruent/R/I_Dist_200_LN_3_LD_10_RN_1_RD_2_1.png","img2/100/Incongruent/R/I_Dist_100_LN_13_LD_26_RN_6_RD_10_1.png","img2/100/Congruent/L/C_Dist_100_LN_11_LD_22_RN_6_RD_15_0.png","img2/300/Congruent/R/C_Dist_300_LN_4_LD_20_RN_13_RD_26_1.png","img2/300/Incongruent/R/I_Dist_300_LN_4_LD_20_RN_2_RD_4_1.png","img2/200/Incongruent/R/I_Dist_200_LN_6_LD_20_RN_3_RD_6_1.png","img2/300/Congruent/L/C_Dist_300_LN_20_LD_25_RN_13_RD_26_0.png","img2/200/Congruent/L/C_Dist_200_LN_12_LD_15_RN_6_RD_10_0.png","img2/300/Congruent/L/C_Dist_300_LN_11_LD_22_RN_1_RD_5_0.png","img2/100/Incongruent/L/I_Dist_100_LN_3_LD_9_RN_7_RD_30_0.png","img2/100/Congruent/L/C_Dist_100_LN_6_LD_20_RN_5_RD_25_0.png","img2/200/Incongruent/R/I_Dist_200_LN_11_LD_20_RN_3_RD_4_1.png","img2/200/Congruent/R/C_Dist_200_LN_3_LD_10_RN_7_RD_14_1.png","img2/300/Congruent/R/C_Dist_300_LN_1_LD_30_RN_8_RD_24_1.png","img2/300/Incongruent/L/I_Dist_300_LN_2_LD_4_RN_6_RD_30_0.png","img2/200/Congruent/L/C_Dist_200_LN_20_LD_25_RN_9_RD_15_0.png","img2/300/Congruent/R/C_Dist_300_LN_1_LD_5_RN_3_RD_6_1.png","img2/200/Incongruent/L/I_Dist_200_LN_7_LD_10_RN_14_RD_28_0.png","img2/300/Congruent/R/C_Dist_300_LN_7_LD_14_RN_20_RD_25_1.png","img2/100/Congruent/L/C_Dist_100_LN_11_LD_22_RN_6_RD_15_0.png","img2/100/Congruent/L/C_Dist_100_LN_9_LD_15_RN_8_RD_16_0.png","img2/200/Congruent/R/C_Dist_200_LN_7_LD_15_RN_18_RD_27_1.png","img2/200/Incongruent/R/I_Dist_200_LN_14_LD_30_RN_6_RD_9_1.png","img2/300/Incongruent/L/I_Dist_300_LN_8_LD_10_RN_14_RD_28_0.png","img2/300/Incongruent/R/I_Dist_300_LN_4_LD_20_RN_2_RD_4_1.png","img2/100/Incongruent/L/I_Dist_100_LN_1_LD_2_RN_8_RD_20_0.png","img2/200/Incongruent/R/I_Dist_200_LN_3_LD_10_RN_1_RD_2_1.png","img2/200/Incongruent/R/I_Dist_200_LN_7_LD_15_RN_4_RD_6_1.png","img2/300/Incongruent/L/I_Dist_300_LN_2_LD_4_RN_6_RD_30_0.png","img2/100/Incongruent/L/I_Dist_100_LN_2_LD_4_RN_8_RD_20_0.png","img2/300/Incongruent/R/I_Dist_300_LN_13_LD_26_RN_12_RD_15_1.png","img2/300/Congruent/L/C_Dist_300_LN_20_LD_25_RN_13_RD_26_0.png","img2/100/Incongruent/L/I_Dist_100_LN_9_LD_15_RN_14_RD_28_0.png","img2/200/Congruent/L/C_Dist_200_LN_15_LD_25_RN_4_RD_10_0.png","img2/200/Congruent/R/C_Dist_200_LN_13_LD_26_RN_14_RD_20_1.png","img2/300/Congruent/L/C_Dist_300_LN_24_LD_30_RN_8_RD_16_0.png","img2/300/Incongruent/L/I_Dist_300_LN_2_LD_4_RN_6_RD_30_0.png","img2/200/Incongruent/R/I_Dist_200_LN_7_LD_15_RN_6_RD_9_1.png","img2/300/Incongruent/R/I_Dist_300_LN_13_LD_26_RN_12_RD_15_1.png","img2/200/Congruent/L/C_Dist_200_LN_8_LD_15_RN_7_RD_21_0.png","img2/300/Incongruent/L/I_Dist_300_LN_3_LD_6_RN_4_RD_20_0.png","img2/100/Incongruent/R/I_Dist_100_LN_12_LD_30_RN_2_RD_4_1.png","img2/200/Congruent/R/C_Dist_200_LN_3_LD_10_RN_11_RD_22_1.png","img2/300/Incongruent/L/I_Dist_300_LN_8_LD_10_RN_9_RD_18_0.png","img2/200/Incongruent/R/I_Dist_200_LN_7_LD_15_RN_4_RD_6_1.png","img2/200/Incongruent/L/I_Dist_200_LN_3_LD_4_RN_11_RD_20_0.png","img2/300/Incongruent/L/I_Dist_300_LN_3_LD_6_RN_4_RD_20_0.png","img2/100/Congruent/R/C_Dist_100_LN_3_LD_20_RN_4_RD_16_1.png"],"dist100_C":[["C_Dist_100_LN_10_LD_25_RN_3_RD_10_0.png","C_Dist_100_LN_11_LD_22_RN_4_RD_10_0.png","C_Dist_100_LN_11_LD_22_RN_6_RD_15_0.png","C_Dist_100_LN_15_LD_25_RN_13_RD_26_0.png","C_Dist_100_LN_3_LD_6_RN_2_RD_5_0.png","C_Dist_100_LN_6_LD_20_RN_5_RD_25_0.png","C_Dist_100_LN_8_LD_16_RN_2_RD_5_0.png","C_Dist_100_LN_9_LD_15_RN_8_RD_16_0.png"],["C_Dist_100_LN_1_LD_2_RN_18_RD_30_1.png","C_Dist_100_LN_1_LD_2_RN_3_RD_5_1.png","C_Dist_100_LN_12_LD_30_RN_13_RD_26_1.png","C_Dist_100_LN_2_LD_5_RN_11_RD_22_1.png","C_Dist_100_LN_2_LD_5_RN_6_RD_12_1.png","C_Dist_100_LN_3_LD_20_RN_4_RD_16_1.png","C_Dist_100_LN_4_LD_10_RN_15_RD_30_1.png","C_Dist_100_LN_4_LD_8_RN_6_RD_10_1.png","C_Dist_100_LN_6_LD_12_RN_15_RD_25_1.png","C_Dist_100_LN_7_LD_14_RN_15_RD_25_1.png","C_Dist_100_LN_7_LD_14_RN_9_RD_15_1.png"]],"dist100_I":[["I_Dist_100_LN_1_LD_2_RN_8_RD_20_0.png","I_Dist_100_LN_2_LD_4_RN_6_RD_15_0.png","I_Dist_100_LN_2_LD_4_RN_8_RD_20_0.png","I_Dist_100_LN_3_LD_5_RN_11_RD_22_0.png","I_Dist_100_LN_3_LD_5_RN_8_RD_16_0.png","I_Dist_100_LN_3_LD_6_RN_4_RD_10_0.png","I_Dist_100_LN_3_LD_9_RN_7_RD_30_0.png","I_Dist_100_LN_4_LD_8_RN_8_RD_20_0.png","I_Dist_100_LN_6_LD_10_RN_11_RD_22_0.png","I_Dist_100_LN_6_LD_10_RN_13_RD_26_0.png","I_Dist_100_LN_6_LD_10_RN_7_RD_14_0.png","I_Dist_100_LN_9_LD_10_RN_20_RD_25_0.png","I_Dist_100_LN_9_LD_15_RN_13_RD_26_0.png","I_Dist_100_LN_9_LD_15_RN_14_RD_28_0.png"],["I_Dist_100_LN_10_LD_25_RN_8_RD_16_1.png","I_Dist_100_LN_10_LD_25_RN_9_RD_18_1.png","I_Dist_100_LN_11_LD_22_RN_9_RD_15_1.png","I_Dist_100_LN_12_LD_24_RN_9_RD_15_1.png","I_Dist_100_LN_12_LD_30_RN_2_RD_4_1.png","I_Dist_100_LN_13_LD_26_RN_12_RD_20_1.png","I_Dist_100_LN_13_LD_26_RN_6_RD_10_1.png","I_Dist_100_LN_17_LD_30_RN_10_RD_15_1.png","I_Dist_100_LN_6_LD_12_RN_3_RD_5_1.png","I_Dist_100_LN_8_LD_16_RN_6_RD_10_1.png","I_Dist_100_LN_8_LD_20_RN_1_RD_2_1.png","I_Dist_100_LN_9_LD_18_RN_6_RD_10_1.png"]],"dist100_S":[["E_Dist_100_LN_2_LD_12_RN_2_RD_30_0.png","E_Dist_100_LN_6_LD_10_RN_6_RD_12_0.png"],["E_Dist_100_LN_6_LD_12_RN_6_RD_10_1.png"]],"dist200_C":[["C_Dist_200_LN_11_LD_22_RN_3_RD_10_0.png","C_Dist_200_LN_12_LD_15_RN_6_RD_10_0.png","C_Dist_200_LN_12_LD_20_RN_6_RD_15_0.png","C_Dist_200_LN_14_LD_28_RN_6_RD_20_0.png","C_Dist_200_LN_15_LD_25_RN_4_RD_10_0.png","C_Dist_200_LN_16_LD_20_RN_12_RD_20_0.png","C_Dist_200_LN_16_LD_30_RN_9_RD_27_0.png","C_Dist_200_LN_20_LD_25_RN_9_RD_15_0.png","C_Dist_200_LN_21_LD_30_RN_2_RD_4_0.png","C_Dist_200_LN_4_LD_10_RN_3_RD_15_0.png","C_Dist_200_LN_4_LD_8_RN_3_RD_10_0.png","C_Dist_200_LN_6_LD_15_RN_3_RD_15_0.png","C_Dist_200_LN_7_LD_21_RN_2_RD_15_0.png","C_Dist_200_LN_8_LD_15_RN_2_RD_6_0.png","C_Dist_200_LN_8_LD_15_RN_3_RD_9_0.png","C_Dist_200_LN_8_LD_15_RN_7_RD_21_0.png","C_Dist_200_LN_9_LD_20_RN_4_RD_16_0.png"],["C_Dist_200_LN_1_LD_2_RN_21_RD_30_1.png","C_Dist_200_LN_13_LD_26_RN_14_RD_20_1.png","C_Dist_200_LN_3_LD_10_RN_11_RD_22_1.png","C_Dist_200_LN_3_LD_10_RN_14_RD_28_1.png","C_Dist_200_LN_3_LD_10_RN_7_RD_14_1.png","C_Dist_200_LN_3_LD_12_RN_9_RD_20_1.png","C_Dist_200_LN_3_LD_6_RN_14_RD_20_1.png","C_Dist_200_LN_5_LD_10_RN_14_RD_20_1.png","C_Dist_200_LN_6_LD_12_RN_7_RD_10_1.png","C_Dist_200_LN_6_LD_20_RN_11_RD_22_1.png","C_Dist_200_LN_7_LD_15_RN_18_RD_27_1.png","C_Dist_200_LN_9_LD_30_RN_13_RD_26_1.png"]],"dist200_I":[["I_Dist_200_LN_1_LD_2_RN_3_RD_10_0.png","I_Dist_200_LN_1_LD_3_RN_2_RD_15_0.png","I_Dist_200_LN_3_LD_4_RN_11_RD_20_0.png","I_Dist_200_LN_4_LD_5_RN_6_RD_10_0.png","I_Dist_200_LN_4_LD_6_RN_14_RD_30_0.png","I_Dist_200_LN_7_LD_10_RN_12_RD_24_0.png","I_Dist_200_LN_7_LD_10_RN_14_RD_28_0.png","I_Dist_200_LN_7_LD_10_RN_8_RD_16_0.png"],["I_Dist_200_LN_11_LD_20_RN_3_RD_4_1.png","I_Dist_200_LN_14_LD_30_RN_12_RD_18_1.png","I_Dist_200_LN_14_LD_30_RN_6_RD_9_1.png","I_Dist_200_LN_3_LD_10_RN_1_RD_2_1.png","I_Dist_200_LN_4_LD_30_RN_1_RD_3_1.png","I_Dist_200_LN_6_LD_20_RN_3_RD_6_1.png","I_Dist_200_LN_7_LD_15_RN_4_RD_6_1.png","I_Dist_200_LN_7_LD_15_RN_6_RD_9_1.png","I_Dist_200_LN_9_LD_15_RN_8_RD_10_1.png"]],"dist200_S":[["E_Dist_200_LN_3_LD_6_RN_3_RD_10_0.png"],["E_Dist_200_LN_3_LD_10_RN_3_RD_6_1.png"]],"dist300_C":[["C_Dist_300_LN_11_LD_22_RN_1_RD_5_0.png","C_Dist_300_LN_11_LD_22_RN_2_RD_10_0.png","C_Dist_300_LN_11_LD_22_RN_4_RD_20_0.png","C_Dist_300_LN_12_LD_24_RN_2_RD_10_0.png","C_Dist_300_LN_18_LD_20_RN_9_RD_15_0.png","C_Dist_300_LN_20_LD_25_RN_13_RD_26_0.png","C_Dist_300_LN_20_LD_25_RN_14_RD_28_0.png","C_Dist_300_LN_20_LD_25_RN_5_RD_10_0.png","C_Dist_300_LN_20_LD_25_RN_8_RD_16_0.png","C_Dist_300_LN_20_LD_25_RN_9_RD_18_0.png","C_Dist_300_LN_24_LD_30_RN_2_RD_4_0.png","C_Dist_300_LN_24_LD_30_RN_8_RD_16_0.png","C_Dist_300_LN_3_LD_6_RN_2_RD_10_0.png","C_Dist_300_LN_4_LD_10_RN_1_RD_10_0.png","C_Dist_300_LN_4_LD_5_RN_2_RD_4_0.png","C_Dist_300_LN_8_LD_16_RN_1_RD_5_0.png","C_Dist_300_LN_9_LD_10_RN_3_RD_5_0.png"],["C_Dist_300_LN_1_LD_20_RN_7_RD_20_1.png","C_Dist_300_LN_1_LD_3_RN_19_RD_30_1.png","C_Dist_300_LN_1_LD_30_RN_8_RD_24_1.png","C_Dist_300_LN_1_LD_5_RN_11_RD_22_1.png","C_Dist_300_LN_1_LD_5_RN_3_RD_6_1.png","C_Dist_300_LN_1_LD_5_RN_6_RD_12_1.png","C_Dist_300_LN_2_LD_10_RN_12_RD_24_1.png","C_Dist_300_LN_2_LD_20_RN_10_RD_25_1.png","C_Dist_300_LN_3_LD_12_RN_11_RD_20_1.png","C_Dist_300_LN_3_LD_6_RN_4_RD_5_1.png","C_Dist_300_LN_4_LD_20_RN_13_RD_26_1.png","C_Dist_300_LN_5_LD_25_RN_6_RD_12_1.png","C_Dist_300_LN_5_LD_25_RN_7_RD_14_1.png","C_Dist_300_LN_7_LD_14_RN_20_RD_25_1.png","C_Dist_300_LN_8_LD_15_RN_10_RD_12_1.png"]],"dist300_I":[["I_Dist_300_LN_1_LD_2_RN_2_RD_10_0.png","I_Dist_300_LN_1_LD_2_RN_3_RD_15_0.png","I_Dist_300_LN_2_LD_4_RN_6_RD_30_0.png","I_Dist_300_LN_3_LD_6_RN_4_RD_20_0.png","I_Dist_300_LN_4_LD_5_RN_6_RD_12_0.png","I_Dist_300_LN_4_LD_5_RN_8_RD_16_0.png","I_Dist_300_LN_7_LD_10_RN_8_RD_20_0.png","I_Dist_300_LN_8_LD_10_RN_14_RD_28_0.png","I_Dist_300_LN_8_LD_10_RN_9_RD_18_0.png"],["I_Dist_300_LN_13_LD_26_RN_12_RD_15_1.png","I_Dist_300_LN_4_LD_20_RN_2_RD_4_1.png"]],"dist300_S":[["E_Dist_300_LN_9_LD_12_RN_9_RD_20_0.png"],["E_Dist_300_LN_18_LD_30_RN_18_RD_20_1.png","E_Dist_300_LN_3_LD_10_RN_3_RD_5_1.png","E_Dist_300_LN_9_LD_20_RN_9_RD_12_1.png"]],"dist500_C":[["C_Dist_500_LN_10_LD_13_RN_7_RD_26_0.png","C_Dist_500_LN_10_LD_15_RN_4_RD_24_0.png","C_Dist_500_LN_12_LD_16_RN_3_RD_12_0.png","C_Dist_500_LN_12_LD_18_RN_4_RD_24_0.png","C_Dist_500_LN_15_LD_18_RN_5_RD_15_0.png","C_Dist_500_LN_15_LD_20_RN_1_RD_4_0.png","C_Dist_500_LN_18_LD_27_RN_1_RD_6_0.png","C_Dist_500_LN_20_LD_24_RN_1_RD_3_0.png","C_Dist_500_LN_20_LD_24_RN_3_RD_9_0.png","C_Dist_500_LN_20_LD_24_RN_7_RD_21_0.png","C_Dist_500_LN_20_LD_28_RN_3_RD_14_0.png","C_Dist_500_LN_21_LD_28_RN_6_RD_24_0.png","C_Dist_500_LN_22_LD_28_RN_2_RD_7_0.png","C_Dist_500_LN_25_LD_30_RN_9_RD_27_0.png","C_Dist_500_LN_4_LD_6_RN_1_RD_6_0.png","C_Dist_500_LN_5_LD_6_RN_2_RD_6_0.png","C_Dist_500_LN_6_LD_9_RN_1_RD_6_0.png","C_Dist_500_LN_7_LD_10_RN_1_RD_5_0.png","C_Dist_500_LN_8_LD_12_RN_1_RD_6_0.png","C_Dist_500_LN_8_LD_12_RN_4_RD_24_0.png"],["C_Dist_500_LN_1_LD_4_RN_12_RD_16_1.png","C_Dist_500_LN_1_LD_4_RN_9_RD_12_1.png","C_Dist_500_LN_1_LD_9_RN_11_RD_18_1.png","C_Dist_500_LN_10_LD_24_RN_22_RD_24_1.png","C_Dist_500_LN_2_LD_12_RN_10_RD_15_1.png","C_Dist_500_LN_2_LD_12_RN_12_RD_18_1.png","C_Dist_500_LN_2_LD_12_RN_4_RD_6_1.png","C_Dist_500_LN_2_LD_24_RN_7_RD_12_1.png","C_Dist_500_LN_2_LD_5_RN_18_RD_20_1.png","C_Dist_500_LN_2_LD_5_RN_9_RD_10_1.png","C_Dist_500_LN_2_LD_8_RN_12_RD_16_1.png","C_Dist_500_LN_2_LD_8_RN_21_RD_28_1.png","C_Dist_500_LN_3_LD_10_RN_4_RD_5_1.png","C_Dist_500_LN_3_LD_12_RN_15_RD_20_1.png","C_Dist_500_LN_3_LD_30_RN_6_RD_10_1.png","C_Dist_500_LN_3_LD_8_RN_14_RD_16_1.png","C_Dist_500_LN_4_LD_16_RN_15_RD_20_1.png","C_Dist_500_LN_4_LD_24_RN_12_RD_18_1.png","C_Dist_500_LN_5_LD_14_RN_6_RD_7_1.png","C_Dist_500_LN_7_LD_21_RN_20_RD_24_1.png","C_Dist_500_LN_7_LD_28_RN_12_RD_16_1.png","C_Dist_500_LN_7_LD_28_RN_9_RD_12_1.png","C_Dist_500_LN_9_LD_27_RN_20_RD_24_1.png"]],"dist500_I":[["I_Dist_500_LN_2_LD_3_RN_4_RD_24_0.png","I_Dist_500_LN_5_LD_6_RN_6_RD_18_0.png","I_Dist_500_LN_7_LD_8_RN_9_RD_24_0.png"],["I_Dist_500_LN_7_LD_21_RN_5_RD_6_1.png"]],"dist500_S":[["E_Dist_500_LN_6_LD_8_RN_6_RD_24_0.png"],["E_Dist_500_LN_2_LD_12_RN_2_RD_3_1.png","E_Dist_500_LN_6_LD_24_RN_6_RD_8_1.png"]]}},{"start_time":1551880585857,"click_time":1551880587226,"finger_time":1551880587085,"fix_duration":250,"trial":1,"RT":1228,"MT":141,"sideResp":1,"stimulus":[],"xmouse":[819,819,819,819,819,819,819,819,819,819,819,819,819,819,819,819,819,819,819,819,819,820,818,813,801,793,787,780,776,776,776,776,776,776,776,776,776,776,776,776,776,776,776,776,776,776,776,776,776,776,776,776,776,776,776,776,776,776,776,771,756,733,698,624,585,550,520],"ymouse":[644,644,644,644,644,644,644,644,644,644,644,644,644,644,644,644,644,644,644,644,644,642,638,631,614,602,592,584,578,578,578,578,578,578,578,578,578,578,578,578,578,578,578,578,578,578,578,578,578,578,578,578,578,578,578,578,578,578,578,571,550,516,455,305,213,115,7],"timestamp_mouse":[8,78,89,109,128,148,168,188,209,229,248,268,289,308,328,349,368,388,409,430,448,468,489,508,529,549,569,589,608,628,648,668,688,708,728,749,768,789,810,829,849,869,888,908,928,948,969,988,1009,1028,1049,1068,1089,1108,1128,1149,1170,1189,1209,1228,1248,1268,1288,1309,1328,1348,1369],"xSR":741.5,"ySR":573.95,"xT1":424.9,"yT1":0,"xT2":1058.1,"yT2":0,"toosoon":0,"cond_shown":"Congruent","ratio_trial":100,"L_num":8,"L_den":16,"R_num":2,"R_den":5,"correct_side":1,"subjID":"SamuelBarretoBarrera6f","gender":"0","school":"6","age":"11"},{"start_time":1551880589282,"click_time":1551880591065,"finger_time":1551880590666,"fix_duration":1236.046006671327,"trial":2,"RT":1384,"MT":399,"sideResp":2,"stimulus":[],"xmouse":[779,779,779,780,781,781,782,782,782,782,782,783,783,783,783,783,783,783,783,783,783,783,783,783,783,783,783,783,783,783,783,783,783,783,783,783,783,783,783,783,783,783,783,783,783,783,783,783,783,783,783,783,783,783,783,783,783,783,783,783,783,783,783,783,784,785,786,788,796,828,902,964,1031,1097,1159,1258,1289,1306,1318,1330,1333,1333,1333,1328,1308,1258,1229,1197,1172,1158],"ymouse":[669,669,669,669,669,669,668,668,668,668,668,667,667,667,667,667,667,667,667,667,667,667,667,667,667,667,667,667,667,667,667,667,667,667,667,667,667,667,667,667,667,667,667,667,667,667,667,667,667,667,667,667,667,667,667,667,667,667,667,667,667,667,667,667,665,662,658,651,628,571,474,397,316,236,161,41,0,0,0,0,0,0,0,0,0,0,0,1,5,7],"timestamp_mouse":[13,23,43,63,84,104,123,143,163,183,204,223,243,263,284,303,324,343,365,383,403,423,443,463,483,503,523,543,563,583,603,623,643,664,683,703,723,743,763,783,803,823,843,864,883,903,923,943,963,983,1003,1023,1043,1063,1084,1103,1123,1143,1163,1183,1203,1223,1243,1263,1283,1303,1323,1343,1363,1384,1403,1423,1443,1464,1483,1504,1524,1543,1563,1584,1603,1624,1643,1663,1684,1703,1723,1743,1763,1783],"xSR":741.5,"ySR":573.95,"xT1":424.9,"yT1":0,"xT2":1058.1,"yT2":0,"toosoon":0,"cond_shown":"Congruent","ratio_trial":200,"L_num":6,"L_den":12,"R_num":7,"R_den":10,"correct_side":2,"subjID":"SamuelBarretoBarrera6f","gender":"0","school":"6","age":"11"},{"start_time":1551880594066,"click_time":1551880595766,"finger_time":1551880595445,"fix_duration":839.6037221498487,"trial":3,"RT":1379,"MT":321,"sideResp":1,"stimulus":[],"xmouse":[805,805,805,805,805,805,805,805,805,805,805,805,805,805,805,805,805,805,805,805,805,805,805,805,805,805,805,805,805,805,805,805,805,805,805,805,805,805,805,805,805,805,805,805,805,805,805,805,805,805,805,805,805,805,805,805,805,805,805,805,805,805,805,805,805,805,804,802,800,796,794,794,792,785,774,760,731,717,704,687,666,579,559,543,528,493],"ymouse":[582,582,582,582,582,582,582,582,582,582,582,582,582,582,582,582,582,582,582,582,582,582,582,582,582,582,582,582,582,582,582,582,582,582,582,582,582,582,582,582,582,582,582,582,582,582,582,582,582,582,582,582,582,582,582,582,582,582,582,582,582,582,582,582,582,582,582,579,574,560,542,473,438,404,373,342,293,274,259,243,228,168,154,136,119,85],"timestamp_mouse":[1,20,41,59,79,99,120,139,159,179,199,220,239,259,279,300,319,339,359,379,399,420,440,459,479,500,519,540,560,579,599,620,640,659,679,699,719,740,759,780,799,819,839,860,879,900,919,939,959,979,1000,1019,1039,1059,1080,1100,1119,1139,1159,1179,1199,1219,1240,1259,1279,1299,1319,1339,1359,1379,1399,1420,1439,1460,1479,1499,1520,1539,1560,1580,1600,1620,1639,1659,1680,1700],"xSR":741.5,"ySR":573.95,"xT1":424.9,"yT1":0,"xT2":1058.1,"yT2":0,"toosoon":0,"cond_shown":"Incongruent","ratio_trial":100,"L_num":4,"L_den":8,"R_num":8,"R_den":20,"correct_side":1,"subjID":"SamuelBarretoBarrera6f","gender":"0","school":"6","age":"11"},{"start_time":1551880597037,"click_time":1551880597766,"finger_time":1551880597626,"fix_duration":250,"trial":4,"RT":589,"MT":140,"sideResp":1,"stimulus":[],"xmouse":[806,806,806,806,806,806,806,806,806,806,806,806,806,806,806,806,806,806,806,806,806,806,806,806,806,806,806,805,802,793,771,673,636,598,564,541,519],"ymouse":[585,585,585,585,585,585,585,585,585,585,585,585,585,585,585,585,585,585,585,585,585,585,585,585,585,585,585,584,578,562,527,371,305,238,175,118,72],"timestamp_mouse":[12,28,48,69,88,108,129,149,168,188,208,228,248,269,290,308,329,348,368,389,408,428,449,470,489,508,528,548,569,589,608,629,648,669,688,708,729],"xSR":741.5,"ySR":573.95,"xT1":424.9,"yT1":0,"xT2":1058.1,"yT2":0,"toosoon":0,"cond_shown":"Congruent","ratio_trial":100,"L_num":10,"L_den":25,"R_num":3,"R_den":10,"correct_side":1,"subjID":"SamuelBarretoBarrera6f","gender":"0","school":"6","age":"11"},{"start_time":1551880600753,"click_time":1551880601606,"finger_time":1551880601186,"fix_duration":1484.2555070324581,"trial":5,"RT":433,"MT":420,"sideResp":2,"stimulus":[],"xmouse":[796,796,796,796,796,796,796,796,796,796,796,796,796,796,796,796,796,796,798,802,819,830,842,852,860,868,890,900,910,922,936,963,981,992,1004,1006,1013,1020,1026,1033,1042,1058,1065],"ymouse":[626,626,626,626,626,626,626,626,626,626,626,626,626,626,626,626,626,626,620,609,578,559,541,521,505,487,436,413,386,357,326,262,228,202,165,154,104,85,68,55,44,36,34],"timestamp_mouse":[12,39,52,72,92,112,132,152,172,192,213,233,253,273,292,312,332,352,372,392,413,433,453,473,493,513,533,553,572,593,612,632,653,673,693,712,733,752,773,792,812,832,853],"xSR":741.5,"ySR":573.95,"xT1":424.9,"yT1":0,"xT2":1058.1,"yT2":0,"toosoon":0,"cond_shown":"Congruent","ratio_trial":100,"L_num":9,"L_den":15,"R_num":8,"R_den":16,"correct_side":1,"subjID":"SamuelBarretoBarrera6f","gender":"0","school":"6","age":"11"},{"start_time":1551880603614,"click_time":1551880604786,"finger_time":1551880604545,"fix_duration":828.6572852901838,"trial":6,"RT":931,"MT":241,"sideResp":1,"stimulus":[],"xmouse":[771,771,771,771,771,771,771,771,771,771,771,771,771,771,771,771,771,771,771,771,771,771,771,771,771,771,771,771,771,771,771,771,771,771,771,771,771,771,771,771,771,771,771,771,771,758,739,689,665,639,612,588,542,523,512,505,502,500,500],"ymouse":[637,637,637,637,637,637,637,637,637,637,637,637,637,637,637,637,637,637,637,637,637,637,637,637,637,637,637,637,637,637,637,637,637,637,637,637,637,637,637,637,637,637,637,637,630,617,601,554,521,483,437,395,294,241,205,175,150,129,86],"timestamp_mouse":[11,38,51,71,91,111,131,152,171,192,212,232,252,271,291,313,331,352,372,392,411,431,451,472,493,511,531,552,571,591,613,631,652,673,693,712,733,751,772,791,813,831,851,872,892,913,931,952,971,992,1012,1033,1052,1072,1092,1112,1132,1152,1171],"xSR":741.5,"ySR":573.95,"xT1":424.9,"yT1":0,"xT2":1058.1,"yT2":0,"toosoon":0,"cond_shown":"Congruent","ratio_trial":200,"L_num":7,"L_den":15,"R_num":18,"R_den":27,"correct_side":2,"subjID":"SamuelBarretoBarrera6f","gender":"0","school":"6","age":"11"},{"start_time":1551880607497,"click_time":1551880608386,"finger_time":1551880608027,"fix_duration":250,"trial":7,"RT":530,"MT":359,"sideResp":2,"stimulus":[],"xmouse":[762,762,762,762,762,762,762,762,762,762,762,762,762,762,762,762,762,762,762,762,762,762,762,764,784,807,833,857,883,933,942,951,956,958,958,958,958,958,960,976,988,1003,1028,1062,1148],"ymouse":[669,669,669,669,669,669,669,669,669,669,669,669,669,669,669,669,669,669,669,669,669,669,667,662,622,578,526,467,400,242,201,172,156,149,149,149,149,149,149,141,136,130,120,105,68],"timestamp_mouse":[9,41,49,70,88,108,129,148,168,188,208,228,249,268,289,308,329,349,368,389,409,428,448,469,488,508,530,550,568,588,608,629,648,669,688,708,729,750,768,788,809,829,848,868,889],"xSR":741.5,"ySR":573.95,"xT1":424.9,"yT1":0,"xT2":1058.1,"yT2":0,"toosoon":0,"cond_shown":"Congruent","ratio_trial":100,"L_num":1,"L_den":2,"R_num":18,"R_den":30,"correct_side":2,"subjID":"SamuelBarretoBarrera6f","gender":"0","school":"6","age":"11"},{"start_time":1551880610342,"click_time":1551880611566,"finger_time":1551880611486,"fix_duration":1014.6001003501157,"trial":8,"RT":1144,"MT":80,"sideResp":1,"stimulus":[],"xmouse":[792,792,792,792,792,792,792,792,792,792,792,792,792,792,792,792,792,792,792,792,792,792,792,792,792,792,792,792,792,792,792,792,792,792,792,792,792,792,792,792,792,792,792,792,792,792,792,792,792,792,792,792,792,792,792,792,792,757,713,651,585,456],"ymouse":[624,624,624,624,624,624,624,624,624,624,624,624,624,624,624,624,624,624,624,624,624,624,624,624,624,624,624,624,624,624,624,624,624,624,624,624,624,624,624,624,624,624,624,624,624,624,624,624,624,624,624,624,624,624,621,616,601,497,415,323,228,41],"timestamp_mouse":[3,25,44,64,83,103,123,144,164,183,204,224,243,264,284,304,324,345,364,384,403,425,445,463,483,503,524,543,563,585,603,624,644,664,685,704,723,743,763,784,804,824,844,863,883,904,923,944,963,983,1004,1024,1044,1063,1084,1105,1124,1144,1164,1185,1204,1224],"xSR":741.5,"ySR":573.95,"xT1":424.9,"yT1":0,"xT2":1058.1,"yT2":0,"toosoon":0,"cond_shown":"Congruent","ratio_trial":300,"L_num":1,"L_den":20,"R_num":7,"R_den":20,"correct_side":2,"subjID":"SamuelBarretoBarrera6f","gender":"0","school":"6","age":"11"},{"start_time":1551880613802,"click_time":1551880614526,"finger_time":1551880614426,"fix_duration":975.2823405039427,"trial":9,"RT":624,"MT":100,"sideResp":2,"stimulus":[],"xmouse":[795,795,795,795,795,795,795,795,795,795,795,795,795,795,795,795,795,795,795,795,795,795,795,795,795,795,795,795,795,804,818,848,884,963,1027,1076,1131],"ymouse":[648,648,648,648,648,648,648,648,648,648,648,648,648,648,648,648,648,648,648,648,648,648,648,648,648,648,648,648,645,621,592,539,475,332,200,107,4],"timestamp_mouse":[10,34,43,64,84,104,125,145,164,184,204,224,243,264,284,305,324,343,363,383,403,425,443,464,483,504,523,544,563,583,604,624,643,664,683,704,724],"xSR":741.5,"ySR":573.95,"xT1":424.9,"yT1":0,"xT2":1058.1,"yT2":0,"toosoon":0,"cond_shown":"Congruent","ratio_trial":100,"L_num":9,"L_den":15,"R_num":8,"R_den":16,"correct_side":1,"subjID":"SamuelBarretoBarrera6f","gender":"0","school":"6","age":"11"},{"start_time":1551880616730,"click_time":1551880617366,"finger_time":1551880617285,"fix_duration":963.1720813220127,"trial":10,"RT":555,"MT":81,"sideResp":1,"stimulus":[],"xmouse":[823,823,823,823,823,823,823,823,823,823,823,823,823,823,823,823,823,823,823,823,823,823,823,823,823,824,801,768,708,633,533,474],"ymouse":[655,655,655,655,655,655,655,655,655,655,655,655,655,655,655,655,655,655,655,655,655,655,655,655,655,653,600,527,428,299,153,70],"timestamp_mouse":[16,38,56,76,96,116,135,155,175,195,215,236,256,276,296,315,335,355,375,395,417,436,456,476,496,516,536,555,575,595,615,635],"xSR":741.5,"ySR":573.95,"xT1":424.9,"yT1":0,"xT2":1058.1,"yT2":0,"toosoon":0,"cond_shown":"Incongruent","ratio_trial":300,"L_num":3,"L_den":6,"R_num":4,"R_den":20,"correct_side":1,"subjID":"SamuelBarretoBarrera6f","gender":"0","school":"6","age":"11"},{"start_time":1551880619317,"click_time":1551880621326,"finger_time":1551880619847,"fix_duration":250,"trial":11,"RT":530,"MT":1479,"sideResp":1,"stimulus":[],"xmouse":[835,835,835,835,835,835,835,835,835,835,835,835,835,835,835,835,835,835,833,832,831,827,816,811,804,798,791,779,771,769,768,768,767,767,767,767,767,767,767,767,767,767,767,767,767,767,766,766,757,753,750,747,745,745,745,745,745,745,740,732,715,684,584,513,438,365,291,216,98,94,94,94,98,141,196,272,358,441,569,581,583,583,583,583,579,563,526,464,331,313,311,311,311,311,313,320,329,344,395,418,438],"ymouse":[655,655,655,655,655,655,655,655,655,655,655,655,655,655,655,655,655,655,653,650,647,641,621,610,595,581,563,535,498,484,474,469,465,464,464,464,464,464,464,464,464,464,464,464,464,464,464,468,518,543,566,585,599,599,599,599,599,596,567,534,477,404,221,111,0,0,0,0,0,0,0,0,1,70,126,175,215,247,280,281,281,281,281,281,273,253,219,169,64,52,50,50,50,50,49,48,47,45,44,44,44],"timestamp_mouse":[8,34,48,69,88,109,130,148,168,189,208,228,248,268,288,308,328,349,370,389,408,430,449,469,489,509,530,548,569,589,609,628,649,668,689,709,729,750,768,788,808,830,848,868,888,908,928,949,969,989,1009,1029,1049,1068,1088,1109,1129,1148,1169,1188,1209,1230,1249,1268,1288,1308,1328,1349,1368,1389,1409,1429,1448,1469,1489,1510,1528,1548,1569,1588,1610,1630,1648,1668,1688,1708,1729,1749,1770,1789,1809,1829,1850,1868,1888,1909,1929,1948,1968,1989,2009],"xSR":741.5,"ySR":573.95,"xT1":424.9,"yT1":0,"xT2":1058.1,"yT2":0,"toosoon":0,"cond_shown":"Congruent","ratio_trial":100,"L_num":11,"L_den":22,"R_num":4,"R_den":10,"correct_side":1,"subjID":"SamuelBarretoBarrera6f","gender":"0","school":"6","age":"11"},{"start_time":1551880623358,"click_time":1551880626026,"finger_time":1551880624885,"fix_duration":891.7220503090704,"trial":12,"RT":1527,"MT":1141,"sideResp":1,"stimulus":[],"xmouse":[793,793,793,793,793,793,793,793,793,793,793,793,793,793,793,793,793,793,793,793,793,793,793,793,793,793,793,793,793,793,793,793,793,793,793,793,793,793,793,793,793,793,793,793,793,793,793,793,793,793,793,793,793,793,793,793,793,793,793,793,793,793,793,793,793,793,795,796,796,796,798,798,801,803,804,804,796,791,786,781,771,724,681,625,558,441,325,309,305,305,305,329,379,467,594,826,1178,1304,1401,1468,1499,1514,1514,1514,1514,1514,1509,1495,1470,1417,1232,1122,1016,924,847,789,731,721,711,698,659,639,622,607,594,585,580,578,576,572,568,549,536,522],"ymouse":[645,645,645,645,645,645,645,645,645,645,645,645,645,645,645,645,645,645,645,645,645,645,645,645,645,645,645,645,645,645,645,645,645,645,645,645,645,645,645,645,645,645,645,645,645,645,645,645,645,645,645,645,645,645,645,645,645,645,645,645,645,645,645,645,645,645,643,641,641,640,638,636,628,618,612,597,571,548,518,483,435,310,231,137,27,0,0,0,0,0,0,31,90,166,250,369,517,572,611,642,657,667,667,667,667,667,668,668,657,634,556,496,435,375,320,274,203,187,173,158,126,109,93,79,67,62,60,60,60,59,59,59,59,59],"timestamp_mouse":[8,39,47,67,88,107,127,147,167,188,207,228,248,267,288,308,327,347,369,388,407,427,448,469,487,508,528,548,567,587,609,628,647,669,687,707,728,747,768,788,809,828,849,867,889,907,929,948,967,988,1007,1029,1047,1067,1088,1109,1127,1147,1167,1187,1208,1227,1247,1268,1289,1308,1328,1347,1369,1388,1409,1427,1448,1468,1488,1508,1527,1547,1567,1587,1607,1627,1648,1668,1689,1708,1729,1747,1767,1789,1807,1827,1848,1869,1888,1908,1928,1948,1967,1988,2007,2027,2048,2068,2088,2107,2127,2148,2168,2189,2207,2227,2247,2267,2287,2308,2327,2348,2368,2387,2408,2428,2447,2468,2487,2509,2527,2548,2568,2588,2607,2627,2647,2668],"xSR":741.5,"ySR":573.95,"xT1":424.9,"yT1":0,"xT2":1058.1,"yT2":0,"toosoon":0,"cond_shown":"Incongruent","ratio_trial":300,"L_num":13,"L_den":26,"R_num":12,"R_den":15,"correct_side":2,"subjID":"SamuelBarretoBarrera6f","gender":"0","school":"6","age":"11"},{"start_time":1551880628315,"click_time":1551880629646,"finger_time":1551880629346,"fix_duration":1388.5349810531925,"trial":13,"RT":1031,"MT":300,"sideResp":2,"stimulus":[],"xmouse":[812,812,812,812,812,812,812,812,812,812,812,812,812,812,812,812,812,812,812,812,812,812,812,812,812,812,812,812,812,812,812,812,812,812,812,812,812,812,812,812,812,812,812,812,812,812,812,813,824,832,841,852,866,896,914,936,957,979,1028,1044,1059,1070,1089,1097,1105,1116,1129],"ymouse":[634,634,634,634,634,634,634,634,634,634,634,634,634,634,634,634,634,634,634,634,634,634,634,634,634,634,634,634,634,634,634,634,634,634,634,634,634,634,634,634,634,634,634,634,634,634,634,633,615,601,584,562,538,479,447,410,375,340,268,244,222,203,165,148,130,114,98],"timestamp_mouse":[10,39,51,71,92,110,132,150,171,191,210,230,250,271,290,312,331,351,371,390,411,431,451,472,491,511,531,550,570,590,611,630,650,671,690,712,730,750,771,790,811,831,850,871,891,910,930,951,971,990,1011,1031,1050,1070,1090,1111,1131,1152,1171,1191,1211,1231,1251,1270,1292,1311,1331],"xSR":741.5,"ySR":573.95,"xT1":424.9,"yT1":0,"xT2":1058.1,"yT2":0,"toosoon":0,"cond_shown":"Incongruent","ratio_trial":300,"L_num":4,"L_den":20,"R_num":2,"R_den":4,"correct_side":2,"subjID":"SamuelBarretoBarrera6f","gender":"0","school":"6","age":"11"},{"start_time":1551880631959,"click_time":1551880633166,"finger_time":1551880632885,"fix_duration":793.0895003208938,"trial":14,"RT":926,"MT":281,"sideResp":1,"stimulus":[],"xmouse":[777,777,777,777,777,777,777,777,777,777,777,777,777,777,777,777,777,777,777,777,777,777,777,777,777,777,777,777,777,777,777,777,777,777,777,777,777,777,777,777,778,780,782,782,783,784,776,763,747,723,675,650,627,606,583,562,528,517,506,498,474],"ymouse":[639,639,639,639,639,639,639,639,639,639,639,639,639,639,639,639,639,639,639,639,639,639,639,639,639,639,639,639,639,639,639,639,639,639,639,639,639,639,639,639,638,632,629,623,613,580,542,511,476,433,351,313,279,247,214,186,138,126,112,104,84],"timestamp_mouse":[9,35,47,67,86,107,126,146,168,186,207,226,246,267,286,306,328,346,367,386,406,427,446,466,486,508,526,548,566,586,607,626,648,667,687,707,728,746,767,786,808,827,846,867,887,907,926,947,967,987,1008,1027,1046,1067,1086,1106,1128,1147,1166,1186,1207],"xSR":741.5,"ySR":573.95,"xT1":424.9,"yT1":0,"xT2":1058.1,"yT2":0,"toosoon":0,"cond_shown":"Incongruent","ratio_trial":100,"L_num":10,"L_den":25,"R_num":8,"R_den":16,"correct_side":2,"subjID":"SamuelBarretoBarrera6f","gender":"0","school":"6","age":"11"},{"start_time":1551880635212,"click_time":1551880635767,"finger_time":1551880635706,"fix_duration":826.610309096079,"trial":15,"RT":494,"MT":61,"sideResp":2,"stimulus":[],"xmouse":[782,782,782,782,782,782,782,782,782,782,782,782,782,782,782,782,782,782,782,782,782,782,781,794,832,902,1002,1129],"ymouse":[632,632,632,632,632,632,632,632,632,632,632,632,632,632,632,632,632,632,632,632,632,632,630,589,510,384,228,42],"timestamp_mouse":[14,42,54,74,93,113,135,155,173,193,214,233,254,274,293,313,335,353,373,394,413,434,454,474,494,514,533,554],"xSR":741.5,"ySR":573.95,"xT1":424.9,"yT1":0,"xT2":1058.1,"yT2":0,"toosoon":0,"cond_shown":"Congruent","ratio_trial":100,"L_num":12,"L_den":30,"R_num":13,"R_den":26,"correct_side":2,"subjID":"SamuelBarretoBarrera6f","gender":"0","school":"6","age":"11"},{"start_time":1551880637657,"click_time":1551880638207,"finger_time":1551880638007,"fix_duration":449.2049712380211,"trial":16,"RT":350,"MT":200,"sideResp":2,"stimulus":[],"xmouse":[806,806,806,806,806,806,806,806,806,806,806,806,807,809,811,825,835,846,859,874,893,942,961,977,991,1014,1054,1078],"ymouse":[641,641,641,641,641,641,641,641,641,641,641,641,640,638,633,611,595,576,553,525,488,386,345,305,263,209,112,56],"timestamp_mouse":[10,41,49,68,88,110,129,149,169,190,209,229,249,268,288,309,329,350,369,389,408,428,448,468,490,509,529,550],"xSR":741.5,"ySR":573.95,"xT1":424.9,"yT1":0,"xT2":1058.1,"yT2":0,"toosoon":0,"cond_shown":"Incongruent","ratio_trial":200,"L_num":7,"L_den":10,"R_num":14,"R_den":28,"correct_side":1,"subjID":"SamuelBarretoBarrera6f","gender":"0","school":"6","age":"11"},{"start_time":1551880640276,"click_time":1551880641266,"finger_time":1551880640805,"fix_duration":1088.5465390693425,"trial":17,"RT":529,"MT":461,"sideResp":1,"stimulus":[],"xmouse":[809,809,809,803,796,796,796,796,796,796,796,796,796,796,796,796,795,794,789,782,779,775,773,771,762,758,752,746,739,697,637,598,567,546,492,454,417,388,369,353,353,353,353,352,352,361,375,390,403,430],"ymouse":[658,658,658,658,658,658,658,658,658,658,658,658,658,658,658,658,657,656,652,648,645,641,638,633,612,596,570,541,491,346,209,115,25,0,0,0,0,0,0,0,0,0,0,0,5,23,36,46,54,73],"timestamp_mouse":[10,40,50,70,90,110,129,150,170,191,211,229,251,270,289,309,329,349,369,390,410,430,449,470,491,510,529,549,571,590,610,629,649,670,690,709,730,750,770,790,810,830,850,870,889,909,930,950,971,989],"xSR":741.5,"ySR":573.95,"xT1":424.9,"yT1":0,"xT2":1058.1,"yT2":0,"toosoon":0,"cond_shown":"Incongruent","ratio_trial":100,"L_num":3,"L_den":5,"R_num":11,"R_den":22,"correct_side":1,"subjID":"SamuelBarretoBarrera6f","gender":"0","school":"6","age":"11"},{"start_time":1551880645858,"click_time":1551880648006,"finger_time":1551880647326,"fix_duration":250,"trial":18,"RT":1468,"MT":680,"sideResp":1,"stimulus":[],"xmouse":[803,802,802,802,802,802,802,802,802,802,802,802,802,802,802,802,802,802,802,802,802,802,802,802,802,802,802,802,802,802,802,802,802,802,802,802,802,802,802,802,802,802,802,802,802,802,802,802,802,802,802,802,802,802,802,802,802,802,802,802,802,802,802,802,802,802,802,802,802,801,797,788,783,777,769,757,727,713,702,694,685,678,676,673,671,668,666,664,661,657,651,648,646,642,639,630,623,616,609,600,578,555,539,523,510,488,482,476],"ymouse":[638,638,638,638,638,638,638,638,638,638,638,638,638,638,638,638,638,638,638,638,638,638,638,638,638,638,638,638,638,638,638,638,638,638,638,638,638,638,638,638,638,638,638,638,638,638,638,638,638,638,638,638,638,638,638,638,638,638,638,638,638,638,638,638,638,638,638,638,637,635,622,600,583,564,541,520,480,462,449,438,426,416,412,409,406,401,397,393,389,383,371,365,359,352,343,323,310,298,284,267,228,197,178,161,144,115,106,95],"timestamp_mouse":[9,39,48,68,89,108,127,149,168,188,208,227,248,269,287,309,328,349,367,387,408,427,448,467,487,507,528,547,567,589,607,627,648,667,687,708,727,747,768,787,808,829,848,868,888,907,928,947,967,987,1008,1029,1048,1067,1087,1107,1127,1147,1167,1189,1209,1227,1247,1268,1288,1308,1328,1347,1367,1389,1408,1428,1448,1468,1487,1507,1528,1548,1568,1587,1608,1627,1648,1667,1687,1708,1727,1748,1768,1787,1808,1827,1847,1867,1889,1908,1928,1948,1968,1987,2007,2027,2048,2068,2088,2108,2127,2148],"xSR":741.5,"ySR":573.95,"xT1":424.9,"yT1":0,"xT2":1058.1,"yT2":0,"toosoon":0,"cond_shown":"Incongruent","ratio_trial":200,"L_num":6,"L_den":20,"R_num":3,"R_den":6,"correct_side":2,"subjID":"SamuelBarretoBarrera6f","gender":"0","school":"6","age":"11"},{"start_time":1551880651438,"click_time":1551880653286,"finger_time":1551880652926,"fix_duration":850.9512626378158,"trial":19,"RT":1488,"MT":360,"sideResp":2,"stimulus":[],"xmouse":[802,802,802,802,802,802,802,802,802,802,802,802,802,802,802,802,802,802,802,802,802,802,802,802,802,802,802,802,802,802,802,802,802,802,802,802,802,802,802,802,802,802,802,802,802,802,802,802,802,802,802,802,802,802,802,802,802,802,802,802,802,802,802,802,802,802,802,802,803,803,803,804,804,802,798,791,782,777,775,775,775,784,799,811,826,844,886,909,927,946,966,1037,1064],"ymouse":[653,653,653,653,653,653,653,653,653,653,653,653,653,653,653,653,653,653,653,653,653,653,653,653,653,653,653,653,653,653,653,653,653,653,653,653,653,653,653,653,653,653,653,653,653,653,653,653,653,653,653,653,653,653,653,653,653,653,653,653,653,653,653,653,653,653,653,653,653,651,647,627,601,582,560,539,503,487,472,460,446,414,385,364,341,316,266,239,213,183,151,65,35],"timestamp_mouse":[8,43,48,67,88,109,127,148,167,189,208,227,248,268,289,308,327,349,367,389,407,428,447,467,489,508,528,547,568,587,607,628,648,669,687,708,728,748,767,787,808,827,847,867,889,908,929,947,967,988,1008,1027,1049,1067,1088,1107,1128,1149,1169,1187,1207,1228,1248,1267,1287,1307,1328,1347,1368,1388,1407,1427,1447,1468,1488,1508,1528,1547,1567,1587,1608,1628,1647,1667,1688,1709,1728,1747,1767,1787,1808,1828,1847],"xSR":741.5,"ySR":573.95,"xT1":424.9,"yT1":0,"xT2":1058.1,"yT2":0,"toosoon":0,"cond_shown":"Incongruent","ratio_trial":100,"L_num":12,"L_den":24,"R_num":9,"R_den":15,"correct_side":2,"subjID":"SamuelBarretoBarrera6f","gender":"0","school":"6","age":"11"},{"start_time":1551880656281,"click_time":1551880658125,"finger_time":1551880657786,"fix_duration":253.39359892472558,"trial":20,"RT":1505,"MT":339,"sideResp":1,"stimulus":[],"xmouse":[808,808,808,808,808,808,808,808,808,808,808,808,808,808,808,808,808,808,808,808,808,808,808,808,808,808,808,808,808,808,808,808,808,808,808,808,809,809,809,809,809,809,809,809,809,809,809,809,809,809,809,809,809,809,809,809,809,809,809,809,809,809,809,809,809,809,809,810,810,810,810,810,809,803,796,770,754,735,713,686,642,606,582,557,535,483,467,462,462,461,459,455,452],"ymouse":[662,662,662,662,662,662,662,662,662,662,662,662,662,662,662,662,662,662,662,662,662,662,662,662,662,662,662,662,662,662,662,662,662,662,662,662,661,661,660,660,660,660,660,660,660,660,660,660,660,660,660,660,660,660,659,659,659,659,659,659,659,659,659,659,659,659,659,658,657,656,648,638,626,608,584,493,433,365,287,197,33,0,0,0,0,0,0,0,0,0,0,0,2],"timestamp_mouse":[11,24,45,65,85,104,124,144,164,185,204,226,244,265,284,306,324,344,364,386,404,424,444,464,486,504,525,544,564,585,604,624,646,664,684,704,725,745,764,786,805,825,844,864,884,904,924,944,964,984,1005,1024,1044,1065,1085,1104,1125,1145,1164,1184,1205,1224,1244,1265,1284,1304,1324,1345,1365,1384,1405,1425,1444,1466,1484,1505,1525,1545,1564,1585,1604,1624,1644,1664,1684,1704,1724,1745,1764,1786,1804,1824,1844],"xSR":741.5,"ySR":573.95,"xT1":424.9,"yT1":0,"xT2":1058.1,"yT2":0,"toosoon":0,"cond_shown":"Congruent","ratio_trial":100,"L_num":3,"L_den":20,"R_num":4,"R_den":16,"correct_side":2,"subjID":"SamuelBarretoBarrera6f","gender":"0","school":"6","age":"11"},{"start_time":1551880660997,"click_time":1551880662385,"finger_time":1551880662166,"fix_duration":1389.595948300338,"trial":21,"RT":1169,"MT":219,"sideResp":2,"stimulus":[],"xmouse":[828,828,828,828,828,828,828,828,828,828,828,828,828,828,828,828,828,828,828,828,828,828,828,828,828,828,828,828,828,828,828,828,828,828,828,828,828,828,828,828,828,828,828,828,828,828,828,828,828,828,828,828,828,829,829,830,832,834,841,845,851,856,863,871,910,936,964,991,1017,1067],"ymouse":[608,608,608,608,608,608,608,608,608,608,608,608,608,608,608,608,608,608,608,608,608,608,608,608,608,608,608,608,608,608,608,608,608,608,608,608,608,608,608,608,608,608,608,608,608,608,608,608,608,608,608,608,608,604,603,600,595,590,573,559,541,523,498,468,344,277,213,153,96,9],"timestamp_mouse":[9,35,49,68,90,110,129,148,168,188,208,230,250,268,290,309,328,348,369,389,408,428,448,468,488,510,528,548,569,588,608,630,648,668,689,708,728,749,769,788,810,828,848,868,890,909,929,950,969,990,1009,1029,1048,1069,1088,1108,1128,1149,1169,1188,1208,1229,1248,1268,1288,1309,1328,1349,1368,1388],"xSR":741.5,"ySR":573.95,"xT1":424.9,"yT1":0,"xT2":1058.1,"yT2":0,"toosoon":0,"cond_shown":"Incongruent","ratio_trial":100,"L_num":2,"L_den":4,"R_num":6,"R_den":15,"correct_side":1,"subjID":"SamuelBarretoBarrera6f","gender":"0","school":"6","age":"11"},{"start_time":1551880664666,"click_time":1551880665545,"finger_time":1551880665485,"fix_duration":1438.8549687747163,"trial":22,"RT":819,"MT":60,"sideResp":1,"stimulus":[],"xmouse":[798,798,798,798,798,798,798,798,798,798,798,798,798,798,798,798,798,798,798,798,798,798,798,798,798,798,798,798,798,798,798,799,799,799,799,799,799,797,796,795,792,751,690,603,485],"ymouse":[659,659,659,659,659,659,659,659,659,659,659,659,659,659,659,659,659,659,659,659,659,659,659,659,659,659,659,659,659,657,656,655,655,655,655,655,654,654,654,654,650,543,426,263,60],"timestamp_mouse":[1,19,39,61,80,99,119,140,159,179,200,219,239,259,280,300,320,341,361,381,401,419,439,459,481,501,520,539,559,581,600,620,640,659,679,701,719,739,759,779,799,819,840,860,879],"xSR":741.5,"ySR":573.95,"xT1":424.9,"yT1":0,"xT2":1058.1,"yT2":0,"toosoon":0,"cond_shown":"Congruent","ratio_trial":300,"L_num":1,"L_den":5,"R_num":11,"R_den":22,"correct_side":2,"subjID":"SamuelBarretoBarrera6f","gender":"0","school":"6","age":"11"},{"start_time":1551880667952,"click_time":1551880668765,"finger_time":1551880668606,"fix_duration":1045.1548697219914,"trial":23,"RT":654,"MT":159,"sideResp":2,"stimulus":[],"xmouse":[788,788,788,788,788,788,788,788,788,788,788,788,788,788,788,788,788,788,788,788,788,788,788,788,788,788,788,788,790,791,794,807,815,822,829,843,924,973,1020,1057,1095],"ymouse":[634,634,634,634,634,634,634,634,634,634,634,634,634,634,634,634,634,634,634,634,634,634,634,634,634,634,634,634,631,629,624,594,572,546,521,489,365,299,229,162,98],"timestamp_mouse":[13,36,54,73,93,113,133,154,174,193,213,234,253,275,294,313,334,353,375,393,413,433,453,473,493,513,534,553,573,594,613,633,654,674,693,713,734,754,774,794,813],"xSR":741.5,"ySR":573.95,"xT1":424.9,"yT1":0,"xT2":1058.1,"yT2":0,"toosoon":0,"cond_shown":"Incongruent","ratio_trial":200,"L_num":14,"L_den":30,"R_num":6,"R_den":9,"correct_side":2,"subjID":"SamuelBarretoBarrera6f","gender":"0","school":"6","age":"11"},{"start_time":1551880671175,"click_time":1551880673106,"finger_time":1551880673066,"fix_duration":767.5471491135409,"trial":24,"RT":1891,"MT":40,"sideResp":1,"stimulus":[],"xmouse":[801,801,801,801,801,801,801,801,801,801,801,801,801,801,801,801,801,801,801,801,801,801,801,801,801,801,801,801,801,801,801,801,801,801,801,801,801,801,801,801,801,801,801,801,801,801,801,801,801,801,801,801,801,801,801,801,801,801,801,801,801,801,801,801,801,801,801,801,801,801,801,801,801,801,801,801,801,801,801,801,801,801,801,801,801,801,801,801,801,801,801,801,797,782,724,528,457],"ymouse":[656,656,656,656,656,656,656,656,656,656,656,656,656,656,656,656,656,656,656,656,656,656,656,656,656,656,656,656,656,656,656,656,656,656,656,656,656,656,656,656,656,656,656,656,656,656,656,656,656,656,656,656,656,656,656,656,656,656,656,656,656,656,656,656,656,656,656,656,656,656,656,656,656,656,656,656,656,656,656,656,656,656,656,656,656,656,656,656,656,656,656,655,649,631,540,205,74],"timestamp_mouse":[11,41,50,71,91,111,131,150,171,192,211,230,252,270,291,311,330,351,371,391,410,430,451,471,490,511,530,550,571,590,610,630,650,671,690,710,732,750,770,790,811,831,851,872,890,910,930,952,970,990,1010,1031,1050,1072,1090,1111,1130,1152,1171,1190,1212,1231,1252,1271,1291,1311,1330,1350,1371,1390,1410,1431,1450,1470,1491,1510,1530,1551,1571,1590,1610,1631,1651,1670,1690,1711,1730,1750,1772,1792,1810,1831,1850,1871,1891,1910,1930],"xSR":741.5,"ySR":573.95,"xT1":424.9,"yT1":0,"xT2":1058.1,"yT2":0,"toosoon":0,"cond_shown":"Incongruent","ratio_trial":100,"L_num":3,"L_den":9,"R_num":7,"R_den":30,"correct_side":1,"subjID":"SamuelBarretoBarrera6f","gender":"0","school":"6","age":"11"},{"start_time":1551880683852,"click_time":1551880685285,"finger_time":1551880684266,"fix_duration":603.5399282610183,"trial":25,"RT":414,"MT":1019,"sideResp":2,"stimulus":[],"xmouse":[745,745,745,745,745,745,745,745,745,745,745,745,745,745,745,745,745,745,748,750,790,832,887,970,1063,1292,1398,1477,1544,1544,1544,1544,1544,1544,1544,1533,1487,1440,1390,1345,1300,1241,1235,1233,1233,1233,1233,1230,1224,1214,1198,1150,1142,1140,1138,1138,1159,1177,1196,1210,1219,1229,1231,1231,1231,1231,1231,1221,1206,1184,1161,1112],"ymouse":[609,609,609,609,609,609,609,609,609,609,609,609,609,609,609,609,609,609,606,604,562,508,420,300,178,0,0,0,0,0,0,0,0,0,0,156,259,369,485,600,705,846,862,865,865,865,851,827,798,761,704,525,455,384,313,245,110,55,8,0,0,0,0,0,0,0,1,17,33,49,60,71],"timestamp_mouse":[14,41,53,75,93,113,133,154,173,194,214,233,253,274,293,313,333,354,373,394,414,433,453,474,493,514,533,553,574,593,613,634,654,674,695,713,733,753,773,793,814,833,853,873,894,914,933,955,973,994,1013,1033,1053,1074,1093,1113,1133,1153,1173,1193,1213,1234,1254,1273,1294,1314,1333,1353,1374,1393,1413,1433],"xSR":741.5,"ySR":573.95,"xT1":424.9,"yT1":0,"xT2":1058.1,"yT2":0,"toosoon":0,"cond_shown":"Incongruent","ratio_trial":100,"L_num":13,"L_den":26,"R_num":12,"R_den":20,"correct_side":2,"subjID":"SamuelBarretoBarrera6f","gender":"0","school":"6","age":"11"},{"start_time":1551880688118,"click_time":1551880689185,"finger_time":1551880688466,"fix_duration":491.8052239864392,"trial":26,"RT":348,"MT":719,"sideResp":1,"stimulus":[],"xmouse":[792,792,792,792,792,792,792,792,792,792,792,792,792,792,792,792,792,792,792,789,783,771,758,722,706,692,680,658,637,629,621,616,602,593,582,568,547,509,467,450,437,433,432,432,432,432,432,432,432,432,435,440,445,452],"ymouse":[590,590,590,590,590,590,590,590,590,590,590,590,590,590,589,587,580,552,521,494,464,413,369,247,189,138,102,55,20,9,0,0,0,0,0,0,0,0,0,0,0,0,0,0,0,0,0,0,0,0,0,0,0,2],"timestamp_mouse":[9,31,48,68,87,107,129,147,168,188,207,229,248,269,288,308,327,348,367,388,408,427,447,467,487,508,527,547,568,588,608,627,648,667,688,708,727,747,768,787,807,828,848,868,888,907,927,947,967,987,1007,1028,1047,1067],"xSR":741.5,"ySR":573.95,"xT1":424.9,"yT1":0,"xT2":1058.1,"yT2":0,"toosoon":0,"cond_shown":"Incongruent","ratio_trial":300,"L_num":4,"L_den":20,"R_num":2,"R_den":4,"correct_side":2,"subjID":"SamuelBarretoBarrera6f","gender":"0","school":"6","age":"11"},{"start_time":1551880690979,"click_time":1551880691926,"finger_time":1551880691385,"fix_duration":612.5656048747956,"trial":27,"RT":406,"MT":541,"sideResp":2,"stimulus":[],"xmouse":[782,782,782,782,782,782,782,782,782,782,782,782,782,782,782,782,782,782,786,796,835,856,873,899,936,946,954,959,962,965,970,971,971,971,970,970,970,970,970,970,977,990,1002,1015,1040,1053,1057,1059],"ymouse":[616,616,616,616,616,616,616,616,616,616,616,616,616,616,616,616,616,609,600,579,500,444,382,297,213,189,169,156,145,136,117,111,105,102,100,100,100,100,100,97,92,85,78,71,63,62,61,61],"timestamp_mouse":[8,42,47,67,87,107,127,146,167,186,206,227,247,267,287,307,326,346,366,386,406,427,447,466,487,506,527,547,567,586,606,626,647,666,688,706,728,748,766,787,806,828,847,867,887,906,926,947],"xSR":741.5,"ySR":573.95,"xT1":424.9,"yT1":0,"xT2":1058.1,"yT2":0,"toosoon":0,"cond_shown":"Incongruent","ratio_trial":200,"L_num":14,"L_den":30,"R_num":12,"R_den":18,"correct_side":2,"subjID":"SamuelBarretoBarrera6f","gender":"0","school":"6","age":"11"},{"start_time":1551880694813,"click_time":1551880695345,"finger_time":1551880695245,"fix_duration":925.4841776033547,"trial":28,"RT":432,"MT":100,"sideResp":1,"stimulus":[],"xmouse":[784,784,784,784,784,784,784,784,784,784,784,784,784,784,784,784,783,782,768,759,748,735,721,649,605,556,494],"ymouse":[663,663,663,663,663,663,663,663,663,663,663,663,663,663,663,663,658,655,636,622,606,585,555,387,290,182,70],"timestamp_mouse":[12,32,54,73,92,113,133,152,174,192,212,234,252,272,294,312,332,352,372,393,413,432,452,472,492,513,532],"xSR":741.5,"ySR":573.95,"xT1":424.9,"yT1":0,"xT2":1058.1,"yT2":0,"toosoon":0,"cond_shown":"Incongruent","ratio_trial":300,"L_num":13,"L_den":26,"R_num":12,"R_den":15,"correct_side":2,"subjID":"SamuelBarretoBarrera6f","gender":"0","school":"6","age":"11"},{"start_time":1551880698786,"click_time":1551880699906,"finger_time":1551880699226,"fix_duration":718.4376529615602,"trial":29,"RT":440,"MT":680,"sideResp":2,"stimulus":[],"xmouse":[807,807,807,807,807,807,807,807,807,807,807,807,807,807,807,807,807,807,807,807,812,817,822,829,844,852,860,870,881,890,912,924,936,944,956,956,956,956,956,956,956,958,960,961,969,976,982,991,1000,1021,1030,1035,1038,1042,1046,1054,1063],"ymouse":[617,617,617,617,617,617,617,617,617,617,617,617,617,617,617,617,617,617,614,610,591,574,555,534,482,458,430,404,379,357,307,279,241,211,170,169,169,169,169,169,167,163,160,157,146,139,131,121,107,79,69,63,60,58,56,52,47],"timestamp_mouse":[1,19,42,59,79,99,120,139,160,179,200,219,239,261,280,300,319,340,359,379,399,420,440,460,479,500,520,540,559,579,599,619,640,660,680,699,720,739,760,780,799,820,840,860,880,899,919,940,959,980,999,1019,1040,1060,1080,1099,1119],"xSR":741.5,"ySR":573.95,"xT1":424.9,"yT1":0,"xT2":1058.1,"yT2":0,"toosoon":0,"cond_shown":"Congruent","ratio_trial":200,"L_num":3,"L_den":10,"R_num":14,"R_den":28,"correct_side":2,"subjID":"SamuelBarretoBarrera6f","gender":"0","school":"6","age":"11"},{"start_time":1551880701757,"click_time":1551880702685,"finger_time":1551880702526,"fix_duration":250,"trial":30,"RT":769,"MT":159,"sideResp":2,"stimulus":[],"xmouse":[774,774,774,774,774,774,774,774,774,774,774,774,774,774,774,774,774,774,774,774,774,774,774,774,774,774,774,774,774,774,774,774,774,774,774,787,801,818,839,864,937,977,1012,1050,1080,1125,1152],"ymouse":[628,628,628,628,628,628,628,628,628,628,628,628,628,628,628,628,628,628,628,628,628,628,628,628,628,628,628,628,628,628,628,628,628,628,628,621,608,592,570,540,457,409,357,300,247,142,74],"timestamp_mouse":[9,40,49,68,88,108,128,148,168,189,210,229,249,269,288,308,329,350,369,390,408,428,449,468,488,508,529,548,568,588,610,628,649,669,690,709,728,748,769,788,808,828,848,868,890,909,928],"xSR":741.5,"ySR":573.95,"xT1":424.9,"yT1":0,"xT2":1058.1,"yT2":0,"toosoon":0,"cond_shown":"Incongruent","ratio_trial":100,"L_num":9,"L_den":18,"R_num":6,"R_den":10,"correct_side":2,"subjID":"SamuelBarretoBarrera6f","gender":"0","school":"6","age":"11"},{"start_time":1551880711333,"click_time":1551880713265,"finger_time":1551880712805,"fix_duration":1085.3587312072307,"trial":31,"RT":1472,"MT":460,"sideResp":1,"stimulus":[],"xmouse":[800,800,800,800,800,800,800,800,800,800,800,800,800,800,800,800,800,800,800,800,800,800,800,800,800,800,800,800,800,800,800,800,800,800,800,800,800,800,800,800,800,800,800,800,800,800,800,800,800,800,800,800,800,800,800,800,800,800,800,800,800,800,800,800,800,800,800,800,800,801,801,803,804,804,804,799,781,766,755,745,735,714,699,685,666,643,584,567,551,540,532,519,512,505,500,494,490],"ymouse":[616,616,616,616,616,616,616,616,616,616,616,616,616,616,616,616,616,616,616,616,616,616,616,616,616,616,616,616,616,616,616,616,616,616,616,616,616,616,616,616,616,616,616,616,616,616,616,616,616,616,616,616,616,616,616,616,616,616,616,616,616,616,616,616,616,616,616,616,616,611,608,594,583,571,557,542,510,487,471,454,438,405,387,371,351,331,280,261,242,222,204,169,151,133,116,101,88],"timestamp_mouse":[12,36,53,73,92,113,133,152,172,192,212,232,254,272,293,313,332,353,372,392,413,432,452,473,493,512,532,552,574,594,613,632,653,672,692,713,732,752,773,792,812,832,853,873,893,913,933,952,972,993,1012,1034,1052,1072,1093,1114,1133,1152,1173,1192,1213,1232,1252,1272,1292,1313,1332,1352,1372,1393,1413,1433,1452,1472,1492,1512,1533,1552,1572,1592,1612,1633,1652,1672,1692,1713,1733,1752,1772,1792,1812,1832,1852,1873,1893,1914,1932],"xSR":741.5,"ySR":573.95,"xT1":424.9,"yT1":0,"xT2":1058.1,"yT2":0,"toosoon":0,"cond_shown":"Congruent","ratio_trial":200,"L_num":7,"L_den":15,"R_num":18,"R_den":27,"correct_side":2,"subjID":"SamuelBarretoBarrera6f","gender":"0","school":"6","age":"11"},{"start_time":1551880716432,"click_time":1551880716985,"finger_time":1551880716965,"fix_duration":1124.3110240247709,"trial":32,"RT":533,"MT":20,"sideResp":2,"stimulus":[],"xmouse":[804,804,804,804,804,804,804,804,804,804,804,804,804,804,804,804,804,804,804,804,804,804,804,804,803,803,826,1074],"ymouse":[640,640,640,640,640,640,640,640,640,640,640,640,640,640,640,640,640,640,640,640,640,640,640,640,639,631,552,80],"timestamp_mouse":[14,33,54,74,93,114,133,153,173,195,214,234,254,273,293,314,333,353,373,394,413,435,454,473,495,513,533,553],"xSR":741.5,"ySR":573.95,"xT1":424.9,"yT1":0,"xT2":1058.1,"yT2":0,"toosoon":0,"cond_shown":"Incongruent","ratio_trial":100,"L_num":4,"L_den":8,"R_num":8,"R_den":20,"correct_side":1,"subjID":"SamuelBarretoBarrera6f","gender":"0","school":"6","age":"11"},{"start_time":1551880718872,"click_time":1551880720026,"finger_time":1551880719185,"fix_duration":466.12810249086834,"trial":33,"RT":313,"MT":841,"sideResp":1,"stimulus":[],"xmouse":[824,824,824,824,824,824,824,824,824,824,824,824,824,815,802,658,536,406,269,49,0,1,16,52,287,418,552,667,741,746,751,751,750,750,750,744,724,680,607,392,330,263,184,142,48,38,68,162,425,802,911,932,932,917,834,741,626,510],"ymouse":[650,650,650,650,650,650,650,650,650,650,650,650,650,624,598,385,214,15,0,0,0,0,0,2,136,211,287,349,399,406,421,423,423,423,423,413,388,349,303,186,143,90,13,0,0,0,0,24,113,212,230,233,233,233,218,184,137,87],"timestamp_mouse":[13,44,53,73,93,113,133,153,173,195,213,233,254,273,293,313,333,354,374,394,413,433,453,474,494,513,533,554,573,593,613,633,654,674,693,713,733,754,773,795,813,833,854,874,893,913,935,955,973,994,1014,1033,1053,1073,1094,1113,1134,1154],"xSR":741.5,"ySR":573.95,"xT1":424.9,"yT1":0,"xT2":1058.1,"yT2":0,"toosoon":0,"cond_shown":"Congruent","ratio_trial":200,"L_num":3,"L_den":10,"R_num":7,"R_den":14,"correct_side":2,"subjID":"SamuelBarretoBarrera6f","gender":"0","school":"6","age":"11"},{"start_time":1551880726215,"click_time":1551880727065,"finger_time":1551880726365,"fix_duration":250,"trial":34,"RT":150,"MT":700,"sideResp":2,"stimulus":[],"xmouse":[772,772,772,772,776,786,804,890,937,949,911,751,188,0,0,3,143,1050,1568,1568,1568,1568,945,603,348,305,332,928,1303,1513,1547,1518,1318,531,439,446,582,1036,1185,1223,1223,1208,1119],"ymouse":[607,607,607,607,607,604,597,554,506,448,364,248,0,0,0,0,0,0,0,0,0,0,0,0,0,0,2,8,11,15,15,15,0,0,0,0,0,5,31,40,40,40,46],"timestamp_mouse":[10,31,49,70,89,109,129,150,169,189,209,230,249,269,289,310,330,351,369,390,409,429,450,469,489,510,529,550,569,589,610,630,649,669,689,710,729,750,769,789,810,830,850],"xSR":741.5,"ySR":573.95,"xT1":424.9,"yT1":0,"xT2":1058.1,"yT2":0,"toosoon":0,"cond_shown":"Incongruent","ratio_trial":100,"L_num":6,"L_den":10,"R_num":11,"R_den":22,"correct_side":1,"subjID":"SamuelBarretoBarrera6f","gender":"0","school":"6","age":"11"},{"start_time":1551880728652,"click_time":1551880746486,"finger_time":1551880734404,"fix_duration":506.3388786446869,"trial":35,"RT":5752,"MT":12082,"sideResp":2,"stimulus":[],"xmouse":[805,805,805,805,805,805,805,805,805,805,805,805,805,805,805,805,805,805,805,805,805,805,805,805,805,805,805,805,805,805,805,805,805,805,805,805,805,805,805,805,805,805,805,805,805,805,805,805,805,805,805,805,805,805,805,805,805,805,805,805,805,805,804,804,804,804,804,804,804,804,804,804,804,804,804,804,804,804,804,804,804,804,804,804,804,804,804,804,804,804,804,804,804,804,804,803,802,801,798,796,793,790,790,790,790,790,790,790,790,790,790,790,790,790,790,790,790,790,790,790,790,790,790,790,790,790,790,790,790,790,790,790,790,790,790,790,790,790,790,790,790,790,790,790,790,790,790,790,790,790,790,790,790,790,790,790,790,790,790,790,790,790,790,790,790,790,790,790,790,790,790,790,790,790,790,790,790,790,790,790,790,790,790,790,790,790,790,790,790,790,790,790,790,790,790,790,790,790,790,790,790,790,790,790,790,790,790,790,790,790,790,790,790,790,790,790,790,790,790,790,790,790,790,790,789,789,789,789,789,789,789,789,789,789,789,789,789,789,789,789,789,789,789,789,789,789,789,789,789,789,789,789,789,789,789,789,789,789,789,789,789,789,789,789,789,789,789,789,789,789,789,789,789,789,789,789,789,789,789,789,789,789,789,789,786,779,780,794,819,869,938,959,959,959,959,959,959,958,950,935,868,843,825,813,807,800,779,773,767,764,758,758,757,757,757,769,781,792,799,802,803,803,804,796,757,671,458,367,315,276,259,276,276,272,254,244,251,295,392,602,944,944,944,944,944,944,944,944,944,944,944,1384,1355,1327,1294,1277,1271,1269,1268,1265,1250,1229,1218,1208,1204,1203,1203,1203,1203,1203,1203,1203,1203,1203,1203,1203,1203,1203,1203,1202,1202,1201,1201,1201,1201,1201,1201,1201,1201,1201,1201,1201,1201,1201,1201,1201,1201,1201,1201,1201,1201,1201,1201,1201,1201,1201,1201,1201,1201,1201,1201,1201,1200,1195,1180,1142,1128,1121,1116,1114,1112,1098,1095,1094,1094,1094,1094,1092,1083,1071,1013,989,967,952,939,926,903,896,892,884,873,843,839,836,836,836,836,836,836,832,817,814,811,811,811,810,810,810,810,810,810,809,809,809,809,808,808,808,808,808,808,808,808,808,808,808,808,808,808,808,809,809,809,809,809,809,809,809,809,810,810,810,810,810,810,810,811,811,811,811,811,811,811,811,811,811,811,811,811,811,811,811,811,811,811,812,812,812,812,812,812,812,812,812,812,812,812,812,812,812,812,812,812,811,811,810,810,810,810,810,810,810,810,810,810,813,822,841,876,926,1042,1074,1094,1117,1137,1176,1197,1224,1261,1301,1429,1481,1535,1571,1571,1571,1571,1571,1571,1571,1571,1571,1571,1571,1571,1571,1571,1570,1544,1518,1483,1480,1480,1480,1483,1491,1497,1503,1508,1517,1530,1540,1540,1541,1543,1544,1530,1512,1500,1498,1498,1572,1572,1572,1572,1572,1572,1572,1572,1573,1407,1326,1228,1131,1029,924,923,923,934,998,1370,1535,1535,1535,1535,1535,1535,1535,1535,1568,1362,1220,1060,1060,1060,1060,1060,1060,1060,1060,1060,386,448,527,617,790,849,886,913,931,974,988,999,1005,1011,1023,1028,1031,1031,1032,1029,963,933,901,874,822,800,781,764,753,745,745,745,745,745,745,747,752,760,771,808,827,844,859,869,877,887,890,890,890,890,890,890,890,890,890,890,887,878,868,859,849,848,844,843,842,842,842,842,842,845,847,848,848,848,848,848,848,848,848,840,828,821,813,804,798,798,798,798,797,795,794,794,794,794,794,794,794,794,794,794,794,794,794,794,794,794,794,794,794,794,794,794,794,794,794,794,794,794,794,794,794,801,807,812,881,985,1126,1266,1400,1526,1526,1526,1526,1526,1526,1526,1526,1526,1526,1526,1526,1526,1526,1526,1526,1526,1526,1526,1526,1526,1526,1526,1526,1526,1526,1526,1526,1526,1526,1526,1526,1526,1526,1526,1526,1526,1526,1526,1526,1526,1526,1526,1526,1526,1526,1526,1526,1526,1526,1526,1526,1526,1526,1526,1526,1526,1526,1526,1526,1526,1526,1526,1526,1526,1526,1526,1526,1526,1526,1526,1526,1526,1526,1526,1526,1526,1526,1526,1526,1526,1526,1526,1526,1526,1526,1526,1526,1526,1526,1526,1526,1526,1526,1526,1569,1555,1542,1532,1518,1483,1450,1424,1391,1365,1329,1321,1314,1306,1293,1263,1248,1243,1241,1241,1240,1238,1231,1218,1200,1167,1151],"ymouse":[603,603,603,603,603,603,603,603,603,603,603,603,603,603,603,603,603,603,603,603,603,603,603,603,603,603,603,603,603,603,603,603,603,603,603,603,603,603,603,603,603,603,603,603,603,603,603,603,603,603,603,603,603,603,603,603,603,603,603,603,603,603,603,603,603,603,603,603,603,603,603,603,603,603,603,603,603,603,603,603,603,603,603,603,603,603,603,603,603,603,603,603,603,603,603,603,603,603,603,603,603,603,603,603,603,603,603,603,603,603,603,603,603,603,603,603,603,603,603,603,603,603,603,603,603,603,603,603,603,603,603,603,603,603,603,603,603,603,603,603,603,603,603,603,603,603,603,603,603,603,603,603,603,603,603,603,603,603,603,603,603,603,603,603,603,603,603,603,603,603,603,603,603,603,603,603,603,603,603,603,603,603,603,603,603,603,603,603,603,603,603,603,603,603,603,603,603,603,603,603,603,603,603,603,603,603,603,603,603,603,603,603,603,603,603,603,603,603,603,603,603,603,603,603,603,603,602,602,602,602,602,602,602,602,602,602,602,602,602,602,602,602,602,602,602,602,602,602,602,602,602,602,602,602,602,602,602,602,602,602,602,602,602,602,602,602,602,602,602,602,602,602,602,602,602,602,602,602,602,602,602,602,602,602,606,633,656,675,684,693,694,694,694,694,694,694,694,694,689,679,649,638,631,626,624,623,620,619,618,618,618,618,618,618,620,630,633,636,637,637,637,637,633,614,564,488,330,234,136,13,0,0,0,0,0,0,0,40,143,371,771,771,771,771,771,771,771,771,771,771,771,863,852,843,833,828,826,825,825,825,825,822,820,819,818,818,818,818,818,818,818,817,816,815,815,815,814,814,814,813,813,810,808,808,808,808,808,808,808,808,808,808,808,808,808,808,808,808,808,808,808,808,808,808,808,808,808,808,808,808,808,808,808,807,807,804,804,804,804,804,804,808,810,811,811,811,811,811,801,789,766,760,755,751,749,746,736,732,730,729,727,720,717,714,710,706,694,688,679,666,640,633,628,626,625,624,624,624,624,624,624,624,624,624,624,624,624,624,624,625,625,626,626,626,627,627,627,628,628,628,628,628,628,628,628,629,629,629,629,630,630,630,630,630,630,631,631,631,631,631,631,631,631,631,631,631,632,632,632,632,632,632,634,638,640,642,642,642,642,642,642,642,642,642,642,642,642,642,642,642,642,639,636,634,632,631,631,630,630,629,629,629,629,629,627,623,620,610,586,549,415,364,313,262,214,129,92,51,8,0,0,0,0,0,0,0,0,0,0,0,0,0,0,0,0,0,0,21,21,19,0,0,0,0,0,0,0,0,0,0,0,0,0,0,13,69,113,149,165,166,166,79,79,79,79,79,79,79,79,0,0,0,0,0,0,0,0,0,0,2,84,127,127,127,127,127,127,127,127,528,743,802,850,850,850,850,850,850,850,850,850,873,848,824,797,748,735,727,720,713,689,680,670,663,653,637,629,623,621,615,608,578,569,561,555,547,544,542,540,540,540,540,540,540,540,540,542,545,550,560,592,608,620,630,640,650,663,667,668,668,668,668,668,668,668,668,669,669,668,665,660,653,653,652,651,651,651,651,651,651,651,652,653,653,653,653,654,654,654,654,654,654,654,654,654,654,654,654,654,654,647,643,641,640,640,640,640,640,640,640,640,640,640,640,640,640,640,640,640,640,640,640,640,640,640,640,640,640,640,640,640,638,624,608,589,480,362,213,37,0,0,0,0,0,0,0,0,0,0,0,0,0,0,0,0,0,0,0,0,0,0,0,0,0,0,0,0,0,0,0,0,0,0,0,0,0,0,0,0,0,0,0,0,0,0,0,0,0,0,0,0,0,0,0,0,0,0,0,0,0,0,0,0,0,0,0,0,0,0,0,0,0,0,0,0,0,0,0,0,0,0,0,0,0,0,0,0,0,0,0,0,0,0,0,0,103,101,99,99,99,99,99,99,99,99,98,98,97,95,94,90,88,87,86,86,86,86,86,85,82,78,76],"timestamp_mouse":[13,35,53,73,92,114,132,153,173,192,213,233,252,273,294,312,333,352,372,393,414,433,453,473,492,514,532,552,573,594,613,634,653,673,692,713,732,753,772,792,812,833,852,873,892,913,933,952,973,992,1012,1033,1053,1074,1093,1112,1133,1153,1173,1193,1212,1233,1253,1272,1292,1313,1334,1352,1373,1393,1413,1434,1453,1472,1493,1512,1533,1553,1573,1592,1614,1632,1653,1673,1694,1712,1732,1753,1772,1793,1812,1834,1853,1872,1894,1913,1932,1952,1972,1993,2012,2032,2052,2073,2092,2112,2132,2152,2173,2192,2212,2232,2252,2272,2292,2313,2332,2352,2372,2393,2414,2432,2455,2472,2492,2513,2532,2553,2574,2592,2613,2634,2652,2673,2692,2712,2732,2752,2773,2792,2812,2832,2852,2872,2892,2912,2933,2952,2972,2992,3012,3033,3052,3073,3092,3114,3132,3152,3172,3192,3213,3233,3254,3272,3292,3312,3332,3353,3372,3392,3412,3432,3453,3473,3493,3513,3532,3553,3572,3592,3612,3632,3652,3672,3693,3714,3732,3752,3774,3792,3812,3832,3852,3872,3892,3912,3933,3952,3973,3994,4013,4032,4052,4073,4093,4113,4132,4152,4174,4194,4212,4232,4252,4272,4292,4312,4334,4353,4373,4392,4412,4432,4452,4473,4494,4513,4532,4552,4573,4593,4612,4632,4653,4672,4692,4712,4733,4752,4774,4793,4812,4832,4852,4872,4892,4912,4933,4952,4974,4993,5012,5032,5052,5073,5092,5112,5132,5153,5173,5192,5212,5232,5253,5274,5293,5313,5334,5352,5373,5392,5412,5432,5454,5472,5493,5512,5532,5553,5574,5592,5612,5632,5652,5673,5692,5713,5732,5752,5772,5792,5813,5832,5853,5872,5892,5912,5933,5952,5972,5992,6013,6033,6052,6073,6092,6112,6132,6152,6173,6193,6213,6232,6253,6273,6292,6312,6332,6353,6373,6392,6414,6434,6452,6472,6492,6513,6532,6552,6572,6593,6613,6633,6653,6673,6694,6713,6733,6753,6773,6792,6812,6832,6852,6873,6893,6913,6932,6952,6972,6992,7012,7033,7052,7073,7093,7113,7132,7153,7172,7192,7212,7233,7252,7273,7292,7312,7332,7354,7372,7393,7413,7432,7452,7472,7493,7512,7532,7553,7572,7592,7612,7632,7653,7672,7692,7712,7732,7752,7772,7793,7812,7833,7853,7872,7893,7912,7933,7952,7972,7992,8013,8034,8054,8073,8093,8112,8132,8152,8172,8194,8213,8232,8252,8272,8292,8313,8332,8352,8372,8393,8412,8434,8452,8473,8492,8513,8532,8553,8573,8592,8613,8632,8652,8674,8693,8712,8732,8752,8773,8792,8813,8832,8853,8873,8893,8912,8932,8952,8972,8993,9013,9032,9052,9073,9093,9113,9132,9152,9172,9192,9212,9232,9252,9273,9293,9313,9332,9352,9373,9392,9412,9433,9452,9472,9492,9512,9532,9552,9572,9594,9613,9632,9653,9672,9692,9712,9732,9752,9772,9794,9812,9832,9852,9872,9892,9913,9933,9953,9973,9993,10012,10033,10052,10073,10094,10112,10132,10154,10172,10192,10212,10232,10252,10273,10292,10312,10332,10353,10372,10392,10412,10432,10454,10472,10494,10512,10532,10553,10574,10592,10612,10632,10652,10672,10693,10713,10732,10752,10772,10792,10813,10832,10853,10872,10892,10913,10932,10953,10973,10992,11013,11033,11052,11072,11093,11112,11132,11152,11173,11194,11213,11232,11252,11272,11292,11313,11332,11352,11372,11392,11412,11434,11452,11473,11492,11514,11533,11552,11572,11592,11612,11632,11652,11673,11692,11713,11732,11752,11772,11792,11812,11832,11852,11872,11892,11912,11933,11952,11972,11993,12012,12033,12052,12074,12093,12113,12133,12153,12173,12194,12213,12232,12252,12272,12293,12313,12332,12353,12373,12392,12412,12432,12453,12472,12492,12513,12532,12553,12572,12592,12612,12633,12654,12672,12692,12713,12733,12752,12773,12792,12812,12832,12852,12873,12893,12913,12932,12952,12972,12993,13012,13032,13052,13072,13093,13112,13133,13152,13172,13193,13212,13232,13252,13272,13293,13312,13332,13352,13372,13393,13412,13433,13453,13472,13493,13513,13532,13553,13572,13592,13613,13632,13652,13672,13693,13712,13732,13752,13773,13793,13812,13834,13852,13873,13892,13912,13933,13952,13972,13993,14012,14032,14052,14073,14093,14112,14132,14152,14173,14192,14213,14232,14252,14274,14292,14312,14333,14353,14372,14392,14412,14434,14452,14472,14493,14512,14534,14553,14573,14593,14612,14633,14652,14673,14693,14712,14732,14752,14772,14792,14812,14832,14852,14873,14892,14912,14934,14953,14973,14993,15013,15033,15054,15074,15093,15112,15132,15154,15172,15194,15213,15234,15252,15272,15292,15312,15332,15352,15372,15392,15412,15433,15454,15473,15493,15513,15532,15553,15572,15592,15612,15633,15652,15672,15693,15712,15733,15753,15772,15792,15812,15832,15853,15873,15893,15912,15932,15952,15972,15992,16013,16032,16052,16073,16092,16113,16132,16152,16173,16192,16212,16232,16253,16273,16292,16313,16332,16352,16372,16392,16413,16433,16452,16472,16492,16513,16533,16553,16572,16592,16612,16633,16653,16673,16692,16713,16733,16752,16773,16792,16813,16832,16853,16872,16892,16912,16932,16952,16972,16993,17012,17032,17052,17072,17092,17113,17132,17153,17172,17192,17213,17232,17252,17272,17292,17314,17332,17354,17372,17392,17413,17432,17453,17472,17492,17513,17532,17553,17573,17593,17612,17632,17652,17672,17693,17714,17732,17752,17773,17793,17812,17833],"xSR":741.5,"ySR":573.95,"xT1":424.9,"yT1":0,"xT2":1058.1,"yT2":0,"toosoon":0,"cond_shown":"Congruent","ratio_trial":200,"L_num":15,"L_den":25,"R_num":4,"R_den":10,"correct_side":1,"subjID":"SamuelBarretoBarrera6f","gender":"0","school":"6","age":"11"},{"start_time":1551880753541,"click_time":1551880755384,"finger_time":1551880753925,"fix_duration":1495.3530830716588,"trial":36,"RT":384,"MT":1459,"sideResp":1,"stimulus":[],"xmouse":[768,768,768,768,768,768,768,768,768,768,768,768,768,768,768,768,768,769,744,664,547,189,36,0,0,0,0,0,18,92,205,326,326,326,326,326,326,326,326,326,326,326,326,326,326,326,326,326,326,326,693,704,713,721,732,743,752,752,752,752,752,752,752,752,753,753,754,754,753,753,750,725,696,658,634,614,547,505,454,401,352,303,208,176,162,157,177,196,220,247,277,382,435],"ymouse":[608,608,608,608,608,608,608,608,608,608,608,608,608,608,608,608,608,608,591,524,359,0,0,0,0,0,0,0,38,220,457,705,705,705,705,705,705,705,705,705,705,705,705,705,705,705,705,705,705,705,871,848,834,826,817,807,791,787,786,786,786,786,786,783,780,774,747,714,695,675,654,597,562,530,510,486,385,315,225,121,11,0,0,0,0,0,0,0,5,15,26,61,72],"timestamp_mouse":[9,37,43,63,84,103,123,145,164,183,204,224,243,263,284,303,323,343,363,384,403,424,443,464,483,504,524,544,564,584,603,624,643,664,683,704,723,744,763,783,804,825,845,864,884,903,924,943,963,983,1004,1024,1043,1065,1084,1103,1124,1143,1163,1183,1203,1223,1243,1263,1284,1304,1323,1344,1363,1384,1403,1423,1443,1465,1484,1504,1523,1543,1563,1583,1603,1623,1643,1664,1683,1703,1724,1743,1763,1783,1803,1823,1843],"xSR":741.5,"ySR":573.95,"xT1":424.9,"yT1":0,"xT2":1058.1,"yT2":0,"toosoon":0,"cond_shown":"Congruent","ratio_trial":300,"L_num":3,"L_den":6,"R_num":2,"R_den":10,"correct_side":1,"subjID":"SamuelBarretoBarrera6f","gender":"0","school":"6","age":"11"},{"start_time":1551880757404,"click_time":1551880758665,"finger_time":1551880757844,"fix_duration":1138.3631977475636,"trial":37,"RT":440,"MT":821,"sideResp":2,"stimulus":[],"xmouse":[806,806,806,806,806,806,806,806,806,806,806,806,806,806,806,806,806,806,806,806,806,806,811,870,943,997,1198,1368,1530,1530,1530,1530,1530,1571,1517,1438,1328,1206,1206,1206,1206,1206,1206,1059,1065,1056,1013,937,798,776,773,775,781,829,859,897,938,965,1008,1023,1037,1047,1054,1059],"ymouse":[583,583,583,583,583,583,583,583,583,583,583,583,583,583,583,583,583,583,583,583,583,583,570,390,203,85,0,0,0,0,0,0,0,91,233,416,614,802,802,802,802,802,802,750,657,561,453,338,122,61,33,20,15,15,15,15,15,15,10,9,9,9,9,9],"timestamp_mouse":[12,23,44,60,80,101,120,140,160,180,200,221,240,260,281,300,320,341,361,382,401,421,440,460,480,501,520,540,562,580,600,620,641,663,680,701,721,742,761,780,802,820,841,860,880,900,921,941,961,981,1000,1021,1041,1061,1080,1100,1121,1141,1160,1180,1200,1221,1240,1261],"xSR":741.5,"ySR":573.95,"xT1