[{"start_time":1551881801004,"click_time":1551881802335,"finger_time":1551881801715,"fix_duration":746.4733693609678,"trial":0,"RT":711,"MT":620,"sideResp":2,"stimulus":"img/750/randomdotsizeEA/R/2_Ratio_750_L_6_R_8.png","xmouse":[817,817,817,817,817,817,817,817,817,817,817,817,817,817,817,817,817,817,817,817,817,817,817,817,817,817,817,817,817,817,818,821,824,828,830,836,846,850,856,861,865,876,884,894,904,918,941,952,962,970,979,999,1006,1011,1017,1021,1029,1033,1036,1038,1040,1042,1049,1051,1053,1055,1059],"ymouse":[644,644,644,644,644,644,644,644,644,644,644,644,644,644,644,644,644,644,644,644,644,644,644,644,644,644,644,644,644,644,635,621,604,589,574,558,521,504,485,467,449,411,385,365,341,317,275,257,239,223,207,173,161,152,143,136,126,120,116,113,110,107,98,96,94,91,85],"timestamp_mouse":[11,31,51,71,91,111,131,153,172,192,211,231,251,272,291,313,332,351,371,391,411,431,452,472,492,511,532,552,572,591,612,631,651,671,691,711,731,751,771,791,812,830,851,871,891,911,931,950,971,991,1011,1031,1052,1071,1091,1112,1131,1150,1171,1191,1211,1231,1251,1271,1292,1311,1331],"xSR":741.5,"ySR":573.95,"xT1":424.9,"yT1":0,"xT2":1058.1,"yT2":0,"toosoon":0,"cond_shown":"randomdotsizeEA","ratio_trial":750,"smaller_num":"6","larger_num":"8","correct_side":2,"subjID":"samuelbarreto23","gender":"0","age":"11","school":"6","test":{"fix_dur":[250,1500],"timestim":300,"targets_dim":[100,100],"targets_relative_coord":[0.3,0.7],"size_stim":[880,420],"start_dim":[100,100],"size_start":[300,300],"size_fix":60,"samplingrate":20,"img_types":["equaldotsize","equaldotanddens","randomdotsizeEA"],"ratios":[250,500,750,900],"rep_conds":9,"nTrials":120,"trials_to_rest":500,"Trials_order":[32,79,29,38,74,94,117,76,40,69,104,93,52,11,16,49,99,98,106,51,85,65,41,114,42,25,119,20,113,96,34,80,35,118,62,17,67,63,56,84,78,19,18,39,115,45,103,92,100,116,9,59,2,0,97,73,37,30,111,4,70,26,7,10,12,8,1,105,21,23,31,110,43,107,55,88,44,6,50,102,54,47,89,64,72,27,87,48,91,58,53,46,36,60,71,83,82,15,75,61,68,77,33,14,108,109,81,5,101,24,86,112,22,57,95,28,66,3,13,90],"cond_shown":["randomdotsizeEA","equaldotanddens","randomdotsizeEA","randomdotsizeEA","randomdotsizeEA","equaldotanddens","equaldotsize","equaldotanddens","equaldotanddens","equaldotsize","randomdotsizeEA","equaldotsize","equaldotanddens","randomdotsizeEA","equaldotanddens","equaldotanddens","equaldotsize","randomdotsizeEA","equaldotanddens","equaldotsize","equaldotanddens","randomdotsizeEA","randomdotsizeEA","equaldotsize","equaldotsize","equaldotanddens","randomdotsizeEA","randomdotsizeEA","randomdotsizeEA","equaldotsize","equaldotanddens","randomdotsizeEA","randomdotsizeEA","equaldotanddens","randomdotsizeEA","randomdotsizeEA","equaldotanddens","equaldotsize","randomdotsizeEA","equaldotsize","equaldotsize","equaldotanddens","equaldotsize","equaldotsize","equaldotanddens","equaldotsize","equaldotanddens","randomdotsizeEA","equaldotanddens","randomdotsizeEA","equaldotsize","randomdotsizeEA","randomdotsizeEA","equaldotsize","equaldotanddens","equaldotanddens","equaldotanddens","equaldotsize","equaldotsize","equaldotanddens","equaldotanddens","randomdotsizeEA","equaldotanddens","equaldotanddens","equaldotsize","randomdotsizeEA","equaldotanddens","equaldotsize","equaldotsize","randomdotsizeEA","equaldotanddens","randomdotsizeEA","equaldotanddens","randomdotsizeEA","equaldotanddens","equaldotanddens","randomdotsizeEA","equaldotsize","randomdotsizeEA","equaldotsize","equaldotsize","randomdotsizeEA","randomdotsizeEA","equaldotanddens","equaldotsize","equaldotsize","equaldotsize","equaldotsize","equaldotanddens","equaldotanddens","randomdotsizeEA","equaldotanddens","equaldotsize","equaldotsize","randomdotsizeEA","randomdotsizeEA","equaldotanddens","equaldotsize","equaldotsize","equaldotanddens","randomdotsizeEA","randomdotsizeEA","equaldotsize","randomdotsizeEA","equaldotsize","equaldotanddens","equaldotsize","randomdotsizeEA","randomdotsizeEA","equaldotsize","randomdotsizeEA","equaldotanddens","equaldotanddens","equaldotsize","randomdotsizeEA","equaldotanddens","equaldotsize","equaldotsize","equaldotanddens","equaldotsize"],"ratio_trial":[750,750,500,250,250,900,900,500,500,900,750,900,500,900,500,250,500,250,900,500,250,500,500,750,750,250,900,750,500,250,900,750,900,900,250,500,750,500,750,250,750,750,750,500,750,900,750,750,500,750,900,900,250,250,250,250,250,750,500,500,900,250,750,900,250,750,250,900,900,900,750,250,750,900,750,500,750,750,250,750,750,900,500,500,250,500,500,250,750,900,500,900,250,250,900,900,900,500,500,250,750,500,900,250,250,250,900,500,500,250,250,500,900,900,900,500,750,500,250,750],"smaller_num":["6","6","2","2","2","9","9","6","6","18","15","9","9","18","6","2","2","2","18","4","2","2","5","6","15","2","18","3","10","4","9","15","18","9","5","5","6","2","3","4","15","12","9","2","6","18","18","3","2","3","18","18","6","6","5","2","6","18","2","9","18","1","3","18","6","3","3","18","9","9","18","2","3","9","6","1","6","3","3","3","3","18","1","2","3","3","3","2","15","18","3","18","6","2","18","9","18","5","3","3","3","9","18","3","6","3","18","6","2","6","5","3","9","18","18","9","15","1","2","6"],"larger_num":["8","8","4","8","8","10","10","12","12","20","20","10","18","20","12","8","4","8","20","8","8","4","10","8","20","8","20","4","20","16","10","20","20","10","20","10","8","4","4","16","20","16","12","4","8","20","24","4","4","4","20","20","24","24","20","8","24","24","4","18","20","4","4","20","24","4","12","20","10","10","24","8","4","10","8","2","8","4","12","4","4","20","2","4","12","6","6","8","20","20","6","20","24","8","20","10","20","10","6","12","4","18","20","12","24","12","20","12","4","24","20","6","10","20","20","18","20","2","8","8"],"correct_side":[2,1,1,1,1,2,2,1,1,1,1,1,2,1,1,2,2,1,1,1,2,1,1,1,1,1,1,2,2,2,2,2,2,1,2,1,2,1,1,2,1,2,2,1,2,1,1,1,1,2,1,1,2,1,2,2,2,1,1,1,1,2,2,1,1,1,2,1,2,2,1,1,2,1,1,2,2,1,1,1,1,1,2,2,1,2,2,1,2,1,2,1,1,1,2,1,2,2,2,1,1,1,1,2,1,2,1,1,1,2,2,2,1,2,2,2,1,2,2,2],"img_shown":["img/750/randomdotsizeEA/R/2_Ratio_750_L_6_R_8.png","img/750/equaldotanddens/L/13_Ratio_750_L_8_R_6.png","img/500/randomdotsizeEA/L/5_Ratio_500_L_4_R_2.png","img/250/randomdotsizeEA/L/7_Ratio_250_L_8_R_2.png","img/250/randomdotsizeEA/L/7_Ratio_250_L_8_R_2.png","img/900/equaldotanddens/R/7_Ratio_900_L_9_R_10.png","img/900/equaldotsize/R/15_Ratio_900_L_9_R_10.png","img/500/equaldotanddens/L/11_Ratio_500_L_12_R_6.png","img/500/equaldotanddens/L/11_Ratio_500_L_12_R_6.png","img/900/equaldotsize/L/8_Ratio_900_L_20_R_18.png","img/750/randomdotsizeEA/L/1_Ratio_750_L_20_R_15.png","img/900/equaldotsize/L/1_Ratio_900_L_10_R_9.png","img/500/equaldotanddens/R/6_Ratio_500_L_9_R_18.png","img/900/randomdotsizeEA/L/4_Ratio_900_L_20_R_18.png","img/500/equaldotanddens/L/13_Ratio_500_L_12_R_6.png","img/250/equaldotanddens/R/13_Ratio_250_L_2_R_8.png","img/500/equaldotsize/R/9_Ratio_500_L_2_R_4.png","img/250/randomdotsizeEA/L/3_Ratio_250_L_8_R_2.png","img/900/equaldotanddens/L/2_Ratio_900_L_20_R_18.png","img/500/equaldotsize/L/8_Ratio_500_L_8_R_4.png","img/250/equaldotanddens/R/13_Ratio_250_L_2_R_8.png","img/500/randomdotsizeEA/L/10_Ratio_500_L_4_R_2.png","img/500/randomdotsizeEA/L/7_Ratio_500_L_10_R_5.png","img/750/equaldotsize/L/13_Ratio_750_L_8_R_6.png","img/750/equaldotsize/L/1_Ratio_750_L_20_R_15.png","img/250/equaldotanddens/L/7_Ratio_250_L_8_R_2.png","img/900/randomdotsizeEA/L/10_Ratio_900_L_20_R_18.png","img/750/randomdotsizeEA/R/12_Ratio_750_L_3_R_4.png","img/500/randomdotsizeEA/R/3_Ratio_500_L_10_R_20.png","img/250/equaldotsize/R/10_Ratio_250_L_4_R_16.png","img/900/equaldotanddens/R/6_Ratio_900_L_9_R_10.png","img/750/randomdotsizeEA/R/4_Ratio_750_L_15_R_20.png","img/900/randomdotsizeEA/R/9_Ratio_900_L_18_R_20.png","img/900/equaldotanddens/L/1_Ratio_900_L_10_R_9.png","img/250/randomdotsizeEA/R/12_Ratio_250_L_5_R_20.png","img/500/randomdotsizeEA/L/7_Ratio_500_L_10_R_5.png","img/750/equaldotanddens/R/2_Ratio_750_L_6_R_8.png","img/500/equaldotsize/L/10_Ratio_500_L_4_R_2.png","img/750/randomdotsizeEA/L/8_Ratio_750_L_4_R_3.png","img/250/equaldotsize/R/10_Ratio_250_L_4_R_16.png","img/750/equaldotsize/L/1_Ratio_750_L_20_R_15.png","img/750/equaldotanddens/R/11_Ratio_750_L_12_R_16.png","img/750/equaldotsize/R/15_Ratio_750_L_9_R_12.png","img/500/equaldotsize/L/10_Ratio_500_L_4_R_2.png","img/750/equaldotanddens/R/2_Ratio_750_L_6_R_8.png","img/900/equaldotsize/L/10_Ratio_900_L_20_R_18.png","img/750/equaldotanddens/L/6_Ratio_750_L_24_R_18.png","img/750/randomdotsizeEA/L/10_Ratio_750_L_4_R_3.png","img/500/equaldotanddens/L/10_Ratio_500_L_4_R_2.png","img/750/randomdotsizeEA/R/12_Ratio_750_L_3_R_4.png","img/900/equaldotsize/L/4_Ratio_900_L_20_R_18.png","img/900/randomdotsizeEA/L/2_Ratio_900_L_20_R_18.png","img/250/randomdotsizeEA/R/6_Ratio_250_L_6_R_24.png","img/250/equaldotsize/L/5_Ratio_250_L_24_R_6.png","img/250/equaldotanddens/R/12_Ratio_250_L_5_R_20.png","img/250/equaldotanddens/R/13_Ratio_250_L_2_R_8.png","img/250/equaldotanddens/R/6_Ratio_250_L_6_R_24.png","img/750/equaldotsize/L/6_Ratio_750_L_24_R_18.png","img/500/equaldotsize/L/5_Ratio_500_L_4_R_2.png","img/500/equaldotanddens/L/4_Ratio_500_L_18_R_9.png","img/900/equaldotanddens/L/10_Ratio_900_L_20_R_18.png","img/250/randomdotsizeEA/R/8_Ratio_250_L_1_R_4.png","img/750/equaldotanddens/R/7_Ratio_750_L_3_R_4.png","img/900/equaldotanddens/L/10_Ratio_900_L_20_R_18.png","img/250/equaldotsize/L/5_Ratio_250_L_24_R_6.png","img/750/randomdotsizeEA/L/10_Ratio_750_L_4_R_3.png","img/250/equaldotanddens/R/4_Ratio_250_L_3_R_12.png","img/900/equaldotsize/L/10_Ratio_900_L_20_R_18.png","img/900/equaldotsize/R/5_Ratio_900_L_9_R_10.png","img/900/randomdotsizeEA/R/3_Ratio_900_L_9_R_10.png","img/750/equaldotanddens/L/6_Ratio_750_L_24_R_18.png","img/250/randomdotsizeEA/L/1_Ratio_250_L_8_R_2.png","img/750/equaldotanddens/R/7_Ratio_750_L_3_R_4.png","img/900/randomdotsizeEA/L/1_Ratio_900_L_10_R_9.png","img/750/equaldotanddens/L/14_Ratio_750_L_8_R_6.png","img/500/equaldotanddens/R/15_Ratio_500_L_1_R_2.png","img/750/randomdotsizeEA/R/2_Ratio_750_L_6_R_8.png","img/750/equaldotsize/L/9_Ratio_750_L_4_R_3.png","img/250/randomdotsizeEA/L/15_Ratio_250_L_12_R_3.png","img/750/equaldotsize/L/8_Ratio_750_L_4_R_3.png","img/750/equaldotsize/L/8_Ratio_750_L_4_R_3.png","img/900/randomdotsizeEA/L/4_Ratio_900_L_20_R_18.png","img/500/randomdotsizeEA/R/12_Ratio_500_L_1_R_2.png","img/500/equaldotanddens/R/9_Ratio_500_L_2_R_4.png","img/250/equaldotsize/L/15_Ratio_250_L_12_R_3.png","img/500/equaldotsize/R/2_Ratio_500_L_3_R_6.png","img/500/equaldotsize/R/2_Ratio_500_L_3_R_6.png","img/250/equaldotsize/L/3_Ratio_250_L_8_R_2.png","img/750/equaldotanddens/R/4_Ratio_750_L_15_R_20.png","img/900/equaldotanddens/L/2_Ratio_900_L_20_R_18.png","img/500/randomdotsizeEA/R/2_Ratio_500_L_3_R_6.png","img/900/equaldotanddens/L/10_Ratio_900_L_20_R_18.png","img/250/equaldotsize/L/5_Ratio_250_L_24_R_6.png","img/250/equaldotsize/L/7_Ratio_250_L_8_R_2.png","img/900/randomdotsizeEA/R/11_Ratio_900_L_18_R_20.png","img/900/randomdotsizeEA/L/1_Ratio_900_L_10_R_9.png","img/900/equaldotanddens/R/9_Ratio_900_L_18_R_20.png","img/500/equaldotsize/R/14_Ratio_500_L_5_R_10.png","img/500/equaldotsize/R/2_Ratio_500_L_3_R_6.png","img/250/equaldotanddens/L/14_Ratio_250_L_12_R_3.png","img/750/randomdotsizeEA/L/10_Ratio_750_L_4_R_3.png","img/500/randomdotsizeEA/L/4_Ratio_500_L_18_R_9.png","img/900/equaldotsize/L/4_Ratio_900_L_20_R_18.png","img/250/randomdotsizeEA/R/11_Ratio_250_L_3_R_12.png","img/250/equaldotsize/L/5_Ratio_250_L_24_R_6.png","img/250/equaldotanddens/R/4_Ratio_250_L_3_R_12.png","img/900/equaldotsize/L/4_Ratio_900_L_20_R_18.png","img/500/randomdotsizeEA/L/13_Ratio_500_L_12_R_6.png","img/500/randomdotsizeEA/L/10_Ratio_500_L_4_R_2.png","img/250/equaldotsize/R/6_Ratio_250_L_6_R_24.png","img/250/randomdotsizeEA/R/12_Ratio_250_L_5_R_20.png","img/500/equaldotanddens/R/2_Ratio_500_L_3_R_6.png","img/900/equaldotanddens/L/1_Ratio_900_L_10_R_9.png","img/900/equaldotsize/R/11_Ratio_900_L_18_R_20.png","img/900/randomdotsizeEA/R/12_Ratio_900_L_18_R_20.png","img/500/equaldotanddens/R/1_Ratio_500_L_9_R_18.png","img/750/equaldotsize/L/1_Ratio_750_L_20_R_15.png","img/500/equaldotsize/R/15_Ratio_500_L_1_R_2.png","img/250/equaldotanddens/R/13_Ratio_250_L_2_R_8.png","img/750/equaldotsize/R/2_Ratio_750_L_6_R_8.png"],"Rat0":[["12_Ratio_0_L_9_R_0.png","13_Ratio_0_L_6_R_0.png","5_Ratio_0_L_2_R_0.png","6_Ratio_0_L_4_R_0.png","8_Ratio_0_L_6_R_0.png"],["1_Ratio_0_L_0_R_17.png","10_Ratio_0_L_0_R_22.png","11_Ratio_0_L_0_R_1.png","14_Ratio_0_L_0_R_24.png","15_Ratio_0_L_0_R_4.png","2_Ratio_0_L_0_R_5.png","3_Ratio_0_L_0_R_17.png","4_Ratio_0_L_0_R_7.png","7_Ratio_0_L_0_R_19.png","9_Ratio_0_L_0_R_15.png"]],"Rat250":[["1_Ratio_250_L_8_R_2.png","14_Ratio_250_L_12_R_3.png","15_Ratio_250_L_12_R_3.png","2_Ratio_250_L_16_R_4.png","3_Ratio_250_L_8_R_2.png","5_Ratio_250_L_24_R_6.png","7_Ratio_250_L_8_R_2.png"],["10_Ratio_250_L_4_R_16.png","11_Ratio_250_L_3_R_12.png","12_Ratio_250_L_5_R_20.png","13_Ratio_250_L_2_R_8.png","4_Ratio_250_L_3_R_12.png","6_Ratio_250_L_6_R_24.png","8_Ratio_250_L_1_R_4.png","9_Ratio_250_L_3_R_12.png"]],"Rat500":[["10_Ratio_500_L_4_R_2.png","11_Ratio_500_L_12_R_6.png","13_Ratio_500_L_12_R_6.png","4_Ratio_500_L_18_R_9.png","5_Ratio_500_L_4_R_2.png","7_Ratio_500_L_10_R_5.png","8_Ratio_500_L_8_R_4.png"],["1_Ratio_500_L_9_R_18.png","12_Ratio_500_L_1_R_2.png","14_Ratio_500_L_5_R_10.png","15_Ratio_500_L_1_R_2.png","2_Ratio_500_L_3_R_6.png","3_Ratio_500_L_10_R_20.png","6_Ratio_500_L_9_R_18.png","9_Ratio_500_L_2_R_4.png"]],"Rat750":[["1_Ratio_750_L_20_R_15.png","10_Ratio_750_L_4_R_3.png","13_Ratio_750_L_8_R_6.png","14_Ratio_750_L_8_R_6.png","6_Ratio_750_L_24_R_18.png","8_Ratio_750_L_4_R_3.png","9_Ratio_750_L_4_R_3.png"],["11_Ratio_750_L_12_R_16.png","12_Ratio_750_L_3_R_4.png","15_Ratio_750_L_9_R_12.png","2_Ratio_750_L_6_R_8.png","3_Ratio_750_L_15_R_20.png","4_Ratio_750_L_15_R_20.png","5_Ratio_750_L_15_R_20.png","7_Ratio_750_L_3_R_4.png"]],"Rat900":[["1_Ratio_900_L_10_R_9.png","10_Ratio_900_L_20_R_18.png","2_Ratio_900_L_20_R_18.png","4_Ratio_900_L_20_R_18.png","8_Ratio_900_L_20_R_18.png"],["11_Ratio_900_L_18_R_20.png","12_Ratio_900_L_18_R_20.png","13_Ratio_900_L_18_R_20.png","14_Ratio_900_L_18_R_20.png","15_Ratio_900_L_9_R_10.png","3_Ratio_900_L_9_R_10.png","5_Ratio_900_L_9_R_10.png","6_Ratio_900_L_9_R_10.png","7_Ratio_900_L_9_R_10.png","9_Ratio_900_L_18_R_20.png"]],"Rat1000":[["10_Ratio_1000_L_16_R_16.png","11_Ratio_1000_L_6_R_6.png","12_Ratio_1000_L_14_R_14.png","13_Ratio_1000_L_20_R_20.png","15_Ratio_1000_L_15_R_15.png","2_Ratio_1000_L_17_R_17.png","4_Ratio_1000_L_9_R_9.png","5_Ratio_1000_L_6_R_6.png","6_Ratio_1000_L_19_R_19.png","8_Ratio_1000_L_14_R_14.png","9_Ratio_1000_L_25_R_25.png"],["1_Ratio_1000_L_1_R_1.png","14_Ratio_1000_L_17_R_17.png","3_Ratio_1000_L_17_R_17.png","7_Ratio_1000_L_6_R_6.png"]]}},{"start_time":1551881804305,"click_time":1551881805516,"finger_time":1551881805035,"fix_duration":1087.136090965113,"trial":1,"RT":730,"MT":481,"sideResp":1,"stimulus":"img/750/equaldotanddens/L/13_Ratio_750_L_8_R_6.png","xmouse":[800,800,800,800,800,800,800,800,800,800,800,800,800,800,800,800,800,800,800,800,800,800,800,800,800,800,800,800,798,798,797,795,795,794,791,789,782,776,769,755,730,674,645,610,573,530,435,387,337,323,319,318,318,320,324,334,353,372,391,414,430],"ymouse":[620,620,620,620,620,620,620,620,620,620,620,620,620,620,620,620,620,620,620,620,620,620,620,620,620,620,620,620,617,614,609,599,594,588,581,575,551,532,514,488,452,363,303,242,176,106,0,0,0,0,0,0,0,0,0,0,0,0,3,7,9],"timestamp_mouse":[10,39,50,70,90,110,130,151,170,191,210,230,251,270,290,311,330,351,370,390,410,430,450,470,490,510,530,551,570,590,611,629,650,670,690,710,730,750,770,791,811,832,852,872,892,911,931,951,972,992,1011,1033,1053,1073,1092,1113,1132,1151,1172,1192,1211],"xSR":741.5,"ySR":573.95,"xT1":424.9,"yT1":0,"xT2":1058.1,"yT2":0,"toosoon":0,"cond_shown":"equaldotanddens","ratio_trial":750,"smaller_num":"6","larger_num":"8","correct_side":1,"subjID":"samuelbarreto23","gender":"0","age":"11","school":"6"},{"start_time":1551881807049,"click_time":1551881808236,"finger_time":1551881807737,"fix_duration":250,"trial":2,"RT":688,"MT":499,"sideResp":1,"stimulus":"img/500/randomdotsizeEA/L/5_Ratio_500_L_4_R_2.png","xmouse":[791,791,791,790,790,790,790,790,790,790,790,790,790,790,790,790,790,790,790,790,790,790,790,790,790,790,790,790,790,790,790,789,791,797,826,840,854,864,871,876,876,876,876,876,876,876,876,876,872,868,828,750,710,691,650,621,595,571,546,519],"ymouse":[614,614,614,614,614,614,614,614,614,614,614,614,614,614,614,614,614,614,614,614,614,614,614,614,614,614,614,614,614,614,614,614,599,576,508,478,452,436,424,413,410,410,410,410,410,410,410,410,409,408,398,371,354,342,295,256,210,168,116,80],"timestamp_mouse":[9,35,48,67,88,108,129,148,169,188,208,227,248,267,287,309,327,347,367,387,407,428,448,467,487,508,528,548,567,587,608,627,647,668,688,707,727,747,769,787,808,827,849,868,887,908,928,947,967,988,1009,1027,1048,1068,1087,1107,1127,1148,1167,1187],"xSR":741.5,"ySR":573.95,"xT1":424.9,"yT1":0,"xT2":1058.1,"yT2":0,"toosoon":0,"cond_shown":"randomdotsizeEA","ratio_trial":500,"smaller_num":"2","larger_num":"4","correct_side":1,"subjID":"samuelbarreto23","gender":"0","age":"11","school":"6"},{"start_time":1551881811825,"click_time":1551881812697,"finger_time":1551881812457,"fix_duration":1327.7236098987553,"trial":3,"RT":632,"MT":240,"sideResp":1,"stimulus":"img/250/randomdotsizeEA/L/7_Ratio_250_L_8_R_2.png","xmouse":[797,797,797,797,797,797,797,797,797,797,797,797,797,797,797,797,797,797,797,797,797,797,797,797,797,797,797,797,797,782,740,712,689,670,637,614,594,576,562,541,530,524,518],"ymouse":[635,635,635,635,635,635,635,635,635,635,635,635,635,635,635,635,635,635,635,635,635,635,635,635,635,635,635,635,634,614,576,539,495,442,325,271,228,192,171,141,122,111,99],"timestamp_mouse":[12,63,75,92,112,132,151,173,193,211,231,253,273,292,312,332,351,371,391,411,432,451,472,492,512,531,551,572,592,611,632,651,672,691,712,731,751,772,793,811,831,851,872],"xSR":741.5,"ySR":573.95,"xT1":424.9,"yT1":0,"xT2":1058.1,"yT2":0,"toosoon":0,"cond_shown":"randomdotsizeEA","ratio_trial":250,"smaller_num":"2","larger_num":"8","correct_side":1,"subjID":"samuelbarreto23","gender":"0","age":"11","school":"6"},{"start_time":1551881814119,"click_time":1551881815177,"finger_time":1551881814797,"fix_duration":480.95115305682435,"trial":4,"RT":678,"MT":380,"sideResp":1,"stimulus":"img/250/randomdotsizeEA/L/7_Ratio_250_L_8_R_2.png","xmouse":[836,836,836,836,836,836,836,836,836,836,836,836,836,836,836,836,836,836,836,836,836,836,836,836,836,836,836,836,836,836,830,818,803,789,779,749,716,686,659,638,611,595,580,561,544,522,518,517,516,516,513,510,508],"ymouse":[637,637,637,637,637,637,637,637,637,637,637,637,637,637,637,637,637,637,637,637,637,637,637,637,637,637,637,637,637,637,631,614,593,570,545,468,394,348,309,275,232,211,194,175,161,137,129,124,121,117,106,101,96],"timestamp_mouse":[18,38,59,77,99,118,138,157,177,198,219,237,258,278,298,318,339,358,377,397,417,438,458,478,497,519,537,557,578,597,618,637,659,678,698,717,737,757,778,797,817,837,857,877,899,917,938,957,978,998,1017,1038,1058],"xSR":741.5,"ySR":573.95,"xT1":424.9,"yT1":0,"xT2":1058.1,"yT2":0,"toosoon":0,"cond_shown":"randomdotsizeEA","ratio_trial":250,"smaller_num":"2","larger_num":"8","correct_side":1,"subjID":"samuelbarreto23","gender":"0","age":"11","school":"6"},{"start_time":1551881817078,"click_time":1551881817977,"finger_time":1551881817737,"fix_duration":899.2960746146248,"trial":5,"RT":659,"MT":240,"sideResp":2,"stimulus":"img/900/equaldotanddens/R/7_Ratio_900_L_9_R_10.png","xmouse":[782,782,782,782,782,782,782,782,782,782,782,782,782,782,782,782,782,782,782,782,782,782,782,782,782,782,782,782,782,782,784,786,792,797,802,808,815,837,858,876,896,925,1014,1057,1087],"ymouse":[587,587,587,587,587,587,587,587,587,587,587,587,587,587,587,587,587,587,587,587,587,587,587,587,587,587,587,587,587,587,585,581,570,562,552,536,518,467,417,377,331,271,148,94,48],"timestamp_mouse":[18,40,59,78,99,120,139,159,179,200,220,238,259,278,300,318,340,358,378,398,418,439,458,479,499,519,539,559,579,599,620,639,659,678,699,718,740,758,779,798,820,839,859,878,899],"xSR":741.5,"ySR":573.95,"xT1":424.9,"yT1":0,"xT2":1058.1,"yT2":0,"toosoon":0,"cond_shown":"equaldotanddens","ratio_trial":900,"smaller_num":"9","larger_num":"10","correct_side":2,"subjID":"samuelbarreto23","gender":"0","age":"11","school":"6"},{"start_time":1551881819710,"click_time":1551881820537,"finger_time":1551881820336,"fix_duration":671.8775735500748,"trial":6,"RT":626,"MT":201,"sideResp":1,"stimulus":"img/900/equaldotsize/R/15_Ratio_900_L_9_R_10.png","xmouse":[810,810,810,810,810,810,810,810,810,810,810,810,810,810,810,810,810,810,810,810,810,810,810,810,810,810,810,810,808,807,801,793,778,757,730,699,633,611,585,561,524],"ymouse":[601,601,601,601,601,601,601,601,601,601,601,601,601,601,601,601,601,601,601,601,601,601,601,601,601,601,601,601,599,595,573,552,517,480,432,381,267,225,182,145,92],"timestamp_mouse":[8,50,66,86,107,126,146,167,186,206,227,247,266,288,306,327,348,367,386,406,428,447,466,488,507,526,547,566,588,607,626,646,667,687,707,726,746,766,787,807,827],"xSR":741.5,"ySR":573.95,"xT1":424.9,"yT1":0,"xT2":1058.1,"yT2":0,"toosoon":0,"cond_shown":"equaldotsize","ratio_trial":900,"smaller_num":"9","larger_num":"10","correct_side":2,"subjID":"samuelbarreto23","gender":"0","age":"11","school":"6"},{"start_time":1551881822630,"click_time":1551881841616,"finger_time":1551881823296,"fix_duration":991.0036793061286,"trial":7,"RT":666,"MT":18320,"sideResp":2,"stimulus":"img/500/equaldotanddens/L/11_Ratio_500_L_12_R_6.png","xmouse":[785,785,785,785,785,785,785,785,785,785,785,785,785,785,785,785,785,785,785,785,785,785,785,785,785,785,785,785,785,785,785,785,785,785,785,785,785,785,785,785,785,785,785,785,785,785,785,785,785,785,785,785,785,785,785,785,785,785,785,785,785,785,785,785,785,785,785,785,785,785,785,785,785,785,785,785,785,785,785,785,779,775,770,767,764,761,761,760,760,759,752,745,736,724,713,696,687,675,658,640,625,625,625,625,625,625,625,625,625,625,625,625,625,625,625,625,625,625,625,625,625,625,625,625,625,625,625,625,625,625,625,625,625,625,625,625,625,625,625,625,625,625,625,625,625,625,625,625,625,625,625,625,625,625,625,625,625,625,625,625,625,625,625,625,625,625,625,625,625,625,625,625,625,625,625,625,625,625,625,625,625,625,625,625,625,625,625,625,625,625,625,625,625,625,625,625,625,625,625,625,625,625,625,625,625,625,625,625,625,625,625,625,625,625,625,625,625,625,625,625,625,625,625,625,625,625,625,625,625,625,625,625,625,625,625,625,625,625,625,625,625,625,625,625,625,625,625,625,625,439,485,499,509,521,539,588,614,638,663,688,723,729,739,754,768,797,805,809,809,809,809,809,809,809,809,809,809,809,809,809,809,809,809,809,809,809,809,809,809,809,809,809,809,809,809,809,809,809,809,809,809,809,809,809,809,809,809,809,809,809,809,809,809,809,809,809,809,809,809,809,809,809,809,809,809,809,809,809,809,809,809,809,809,809,809,809,809,809,809,809,809,809,809,809,809,809,809,809,809,808,808,807,807,807,807,807,807,807,807,807,807,807,807,807,807,807,807,807,807,807,807,807,807,807,807,807,807,807,807,807,807,807,806,802,792,773,763,761,760,759,759,759,759,759,759,760,760,760,755,749,706,686,681,681,679,676,674,672,670,669,669,669,669,669,669,669,669,669,669,669,669,669,669,669,669,669,669,669,669,669,669,669,669,669,669,669,669,669,669,669,669,669,669,669,669,669,669,669,669,669,669,669,669,669,669,669,669,669,669,669,669,669,669,669,669,669,669,669,669,669,669,669,669,669,669,669,669,669,669,669,669,669,669,669,669,669,669,669,669,669,669,669,669,669,669,669,669,669,669,669,669,669,669,669,669,669,669,669,669,669,669,669,669,669,669,669,669,669,669,669,669,669,669,669,669,669,669,669,669,669,669,669,669,715,735,764,771,772,772,772,772,772,773,774,776,776,776,776,776,776,776,776,776,776,776,776,776,776,776,776,776,776,776,776,776,776,776,776,776,776,776,776,776,776,776,776,776,776,776,776,776,776,776,776,776,776,776,776,776,776,776,776,776,776,776,776,776,776,776,776,776,776,776,776,776,776,776,776,776,776,776,776,776,776,774,769,759,753,750,749,749,749,749,749,749,749,749,749,749,749,749,749,749,749,749,749,749,749,749,749,749,749,749,749,749,749,749,749,749,749,749,749,749,749,749,749,749,755,765,778,790,818,825,829,829,830,830,830,830,830,830,830,830,830,830,830,830,830,830,830,830,830,830,830,830,830,830,830,830,830,830,830,830,830,830,830,830,830,830,830,830,830,830,830,830,830,830,830,830,830,830,830,830,830,830,830,830,830,830,830,830,830,830,830,830,830,830,830,830,830,830,830,830,830,830,830,830,830,830,830,830,830,830,830,830,830,830,830,830,830,830,830,830,830,830,830,830,830,830,830,830,830,830,830,830,830,830,830,830,830,830,830,830,830,830,830,830,830,830,830,830,830,830,822,810,775,774,774,774,770,765,764,764,764,764,764,764,764,764,764,764,764,764,764,764,764,764,764,764,764,764,764,764,764,764,764,764,764,766,768,771,774,775,777,781,788,791,794,797,798,798,798,798,798,798,798,798,798,798,798,798,798,798,798,798,798,798,798,798,798,798,798,798,798,798,798,798,798,798,798,798,798,798,798,798,798,798,798,798,798,798,798,798,798,798,798,798,798,798,798,798,798,798,798,798,798,798,798,798,798,798,798,798,798,798,798,798,798,798,798,798,798,798,799,800,801,802,802,802,803,803,803,803,803,803,803,803,803,803,803,803,803,806,806,806,806,806,806,806,806,807,807,807,807,807,808,810,814,818,834,858,883,910,945,998,1028,1062,1092,1119],"ymouse":[602,602,602,602,602,602,602,602,602,602,602,602,602,602,602,602,602,602,602,602,602,602,602,602,602,602,602,602,602,602,602,602,602,498,498,497,495,494,491,489,484,483,482,481,481,481,481,481,481,481,481,481,481,481,481,481,481,481,481,481,481,481,481,481,481,481,481,481,481,481,481,481,481,481,481,481,481,481,481,484,498,507,519,527,534,541,543,544,545,547,557,567,577,592,606,624,631,639,653,669,687,687,687,687,687,687,687,687,687,687,687,687,687,687,687,687,687,687,687,687,687,687,687,687,687,687,687,687,687,687,687,687,687,687,687,687,687,687,687,687,687,687,687,687,687,687,687,687,687,687,687,687,687,687,687,687,687,687,687,687,687,687,687,687,687,687,687,687,687,687,687,687,687,687,687,687,687,687,687,687,687,687,687,687,687,687,687,687,687,687,687,687,687,687,687,687,687,687,687,687,687,687,687,687,687,687,687,687,687,687,687,687,687,687,687,687,687,687,687,687,687,687,687,687,687,687,687,687,687,687,687,687,687,687,687,687,687,687,687,687,687,687,687,687,687,687,687,687,687,685,674,671,668,666,659,646,639,632,628,624,611,609,608,606,605,603,603,603,603,603,603,603,603,603,603,603,603,603,603,603,603,603,603,603,603,603,603,603,603,603,603,603,603,603,603,603,603,603,603,603,603,603,603,603,603,603,603,603,603,603,603,603,603,603,603,603,603,603,603,603,603,603,603,603,603,603,603,603,603,603,603,603,603,603,603,603,603,603,603,603,603,603,603,603,603,603,603,603,603,603,603,604,604,604,604,604,604,604,604,604,604,604,604,604,604,604,604,604,604,604,604,604,604,604,604,604,604,604,604,604,604,604,604,605,606,609,612,613,613,614,614,614,614,614,614,614,614,614,618,622,643,655,660,663,666,672,674,677,681,686,686,686,686,686,686,686,686,686,686,686,686,686,686,686,686,686,686,686,686,686,686,686,686,686,686,686,686,686,686,686,686,686,686,686,686,686,686,686,686,686,686,686,686,686,686,686,686,686,686,686,686,686,686,686,686,686,686,686,686,686,686,686,686,686,686,686,686,686,686,686,686,686,686,686,686,686,686,686,686,686,686,686,686,686,686,686,686,686,686,686,686,686,686,686,686,686,686,686,686,686,686,686,686,686,686,686,686,686,686,686,686,686,686,686,686,686,686,686,686,686,686,686,686,679,670,658,655,654,654,654,654,654,653,653,652,652,652,652,652,652,652,652,652,652,652,652,652,652,652,652,652,652,652,652,652,652,652,652,652,652,652,652,652,652,652,652,652,652,652,652,652,652,652,652,652,652,652,652,652,652,652,652,652,652,652,652,652,652,652,652,652,652,652,652,652,652,652,652,652,652,652,652,652,652,652,653,655,657,658,658,658,658,658,658,658,658,658,658,761,761,761,761,761,761,761,761,761,761,761,761,761,761,761,761,761,761,761,761,761,761,761,761,761,761,761,761,761,752,738,720,700,652,641,636,634,633,633,633,633,633,633,633,633,633,633,633,633,633,633,633,633,633,633,633,633,633,633,633,633,633,633,633,633,633,633,633,633,633,633,633,633,633,633,633,633,633,633,633,633,633,633,633,633,633,633,633,633,633,633,633,633,633,633,633,633,633,633,633,633,633,633,633,633,633,633,633,633,633,633,633,633,633,633,633,633,633,633,633,633,633,633,633,633,633,633,633,633,633,633,633,633,633,633,633,633,633,633,633,633,633,633,633,633,633,633,633,633,633,633,633,633,633,633,632,631,609,603,599,590,578,557,553,552,552,552,552,552,552,552,552,552,552,552,552,552,552,552,552,552,552,552,552,552,552,552,552,552,552,555,559,564,569,570,572,574,578,579,581,583,583,583,583,583,583,583,583,583,583,583,583,583,583,583,583,583,583,583,583,583,583,583,583,583,583,583,583,583,583,583,583,583,583,583,583,583,583,583,583,583,583,583,583,583,583,583,583,583,583,583,583,583,583,583,583,583,583,583,583,583,583,583,583,583,583,583,583,583,583,583,583,583,583,583,585,606,611,614,614,614,616,616,616,616,616,616,616,616,616,616,616,616,619,631,631,631,631,631,631,631,631,634,634,634,634,634,634,633,627,622,600,563,519,471,410,286,208,150,103,56],"timestamp_mouse":[11,36,46,66,87,106,126,146,166,186,206,226,248,267,287,307,327,347,368,386,406,426,446,466,487,506,527,548,566,586,606,626,646,666,686,706,726,746,767,787,806,828,846,867,887,907,926,948,966,988,1007,1026,1046,1067,1086,1107,1128,1146,1166,1187,1207,1226,1246,1267,1286,1308,1328,1346,1366,1388,1407,1426,1446,1466,1487,1507,1528,1547,1567,1587,1607,1626,1646,1667,1687,1707,1726,1746,1766,1786,1807,1828,1846,1868,1887,1907,1927,1946,1966,1987,2008,2026,2046,2066,2088,2106,2126,2146,2166,2187,2206,2227,2246,2267,2287,2306,2327,2347,2368,2387,2406,2426,2446,2466,2487,2507,2527,2548,2568,2587,2607,2627,2646,2667,2687,2706,2728,2748,2766,2787,2806,2827,2847,2868,2888,2907,2928,2948,2966,2986,3006,3026,3046,3067,3087,3107,3126,3147,3167,3186,3208,3226,3246,3267,3287,3306,3326,3347,3367,3387,3406,3427,3446,3467,3487,3507,3528,3547,3568,3588,3606,3627,3646,3667,3687,3707,3727,3747,3768,3786,3808,3827,3847,3867,3886,3907,3927,3946,3967,3987,4007,4026,4046,4066,4087,4107,4127,4146,4166,4186,4207,4226,4247,4267,4286,4307,4327,4347,4367,4386,4408,4427,4447,4466,4486,4506,4526,4546,4567,4588,4607,4626,4647,4667,4687,4708,4728,4748,4767,4787,4807,4828,4847,4867,4887,4907,4926,4946,4967,4987,5007,5028,5046,5067,5086,5107,5126,5146,5166,5187,5207,5227,5247,5266,5287,5307,5326,5347,5366,5386,5407,5427,5447,5466,5486,5507,5527,5548,5566,5586,5607,5626,5647,5667,5687,5707,5727,5747,5767,5786,5808,5826,5846,5866,5886,5907,5927,5948,5966,5986,6006,6026,6047,6066,6086,6107,6128,6147,6168,6187,6208,6227,6246,6266,6286,6307,6328,6346,6367,6388,6406,6427,6447,6468,6487,6508,6527,6547,6568,6586,6607,6627,6647,6667,6687,6707,6727,6746,6768,6786,6808,6826,6847,6867,6886,6907,6926,6948,6966,6986,7007,7026,7046,7068,7086,7107,7126,7147,7166,7186,7208,7227,7246,7268,7286,7306,7328,7346,7367,7386,7406,7428,7446,7466,7488,7506,7527,7546,7567,7587,7608,7627,7646,7667,7687,7706,7727,7746,7766,7788,7807,7827,7846,7868,7888,7906,7928,7946,7966,7987,8006,8027,8047,8066,8086,8107,8136,8148,8168,8186,8206,8226,8246,8266,8287,8308,8327,8347,8366,8386,8406,8427,8447,8468,8488,8507,8526,8546,8567,8587,8607,8626,8646,8667,8687,8707,8726,8749,8768,8787,8807,8827,8846,8866,8886,8907,8927,8946,8967,8987,9007,9027,9047,9066,9087,9107,9127,9147,9168,9187,9207,9227,9246,9266,9287,9308,9327,9348,9367,9387,9407,9427,9446,9466,9486,9508,9528,9548,9568,9586,9607,9626,9647,9667,9687,9707,9726,9746,9767,9787,9806,9826,9846,9867,9888,9908,9927,9947,9966,9987,10006,10027,10048,10067,10087,10107,10127,10146,10167,10187,10206,10226,10246,10266,10286,10308,10326,10346,10367,10386,10407,10428,10448,10467,10487,10506,10527,10546,10567,10586,10607,10628,10647,10667,10688,10706,10726,10748,10767,10787,10807,10826,10848,10867,10886,10907,10926,10946,10967,10986,11008,11026,11047,11067,11086,11107,11126,11146,11168,11187,11206,11226,11248,11267,11287,11307,11328,11347,11368,11386,11407,11428,11446,11466,11487,11507,11528,11546,11567,11587,11608,11627,11647,11667,11686,11707,11726,11746,11767,11786,11807,11827,11846,11868,11888,11907,11927,11946,11968,11987,12007,12026,12048,12068,12087,12107,12126,12147,12168,12186,12206,12228,12246,12268,12287,12306,12326,12347,12367,12386,12407,12427,12447,12467,12487,12508,12527,12547,12567,12587,12606,12626,12647,12668,12688,12707,12727,12746,12767,12787,12808,12827,12847,12868,12887,12906,12926,12947,12968,12987,13007,13027,13046,13067,13086,13107,13126,13146,13167,13186,13207,13226,13247,13267,13286,13307,13326,13347,13366,13386,13406,13427,13446,13467,13488,13506,13527,13547,13568,13586,13606,13628,13646,13668,13687,13707,13726,13748,13767,13788,13806,13826,13847,13867,13888,13906,13926,13947,13967,13988,14006,14026,14047,14066,14087,14108,14127,14146,14167,14187,14207,14227,14246,14267,14288,14307,14326,14348,14368,14387,14407,14428,14448,14466,14488,14507,14526,14546,14568,14587,14607,14628,14647,14668,14686,14707,14727,14746,14766,14788,14806,14828,14848,14866,14886,14906,14927,14946,14966,14988,15008,15026,15046,15068,15087,15107,15126,15148,15166,15187,15206,15226,15248,15266,15287,15307,15328,15346,15367,15386,15406,15427,15447,15466,15487,15507,15527,15547,15567,15586,15607,15627,15646,15668,15687,15706,15726,15746,15767,15787,15806,15827,15847,15868,15886,15907,15926,15947,15967,15987,16007,16026,16047,16067,16087,16107,16126,16147,16167,16188,16207,16226,16247,16266,16286,16307,16327,16347,16367,16387,16406,16426,16447,16467,16486,16506,16526,16547,16568,16588,16606,16628,16647,16667,16688,16707,16727,16746,16766,16786,16806,16827,16847,16868,16887,16906,16927,16946,16967,16987,17006,17026,17046,17068,17086,17106,17126,17147,17167,17187,17206,17226,17247,17266,17287,17307,17358,17368,17386,17408,17427,17447,17468,17487,17507,17527,17546,17567,17587,17607,17627,17647,17668,17686,17706,17727,17746,17768,17786,17806,17826,17848,17866,17886,17907,17927,17947,17966,17986,18006,18028,18047,18066,18087,18106,18126,18147,18167,18186,18207,18228,18246,18266,18287,18307,18327,18346,18367,18387,18408,18427,18447,18481,18486,18506,18527,18546,18566,18586,18612,18626,18647,18667,18688,18706,18727,18747,18767,18787,18806,18827,18848,18867,18887,18907,18926,18946,18967,18986],"xSR":741.5,"ySR":573.95,"xT1":424.9,"yT1":0,"xT2":1058.1,"yT2":0,"toosoon":0,"cond_shown":"equaldotanddens","ratio_trial":500,"smaller_num":"6","larger_num":"12","correct_side":1,"subjID":"samuelbarreto23","gender":"0","age":"11","school":"6"},{"start_time":1551881843501,"click_time":1551881844737,"finger_time":1551881844176,"fix_duration":862.2061521821237,"trial":8,"RT":675,"MT":561,"sideResp":1,"stimulus":"img/500/equaldotanddens/L/11_Ratio_500_L_12_R_6.png","xmouse":[833,833,833,833,833,833,833,833,833,833,833,833,833,833,833,833,833,833,833,833,833,833,833,833,833,833,833,833,833,830,827,790,758,719,678,638,554,492,455,417,378,335,332,331,331,331,331,331,332,335,341,354,363,375,386,394,401,405,407,408,409,433],"ymouse":[643,643,643,643,643,643,643,643,643,643,643,643,643,643,643,643,643,643,643,643,643,643,643,643,643,643,643,643,643,643,643,616,588,549,496,438,311,209,150,91,38,0,0,0,0,0,0,0,0,0,0,0,0,0,0,0,0,1,1,1,1,5],"timestamp_mouse":[15,35,57,77,95,116,137,156,176,197,215,236,256,277,297,317,336,355,377,397,415,436,456,475,495,517,536,556,577,596,615,635,655,675,695,716,735,757,775,796,815,836,855,875,897,916,936,956,975,996,1015,1035,1055,1075,1096,1115,1136,1156,1175,1195,1217,1236],"xSR":741.5,"ySR":573.95,"xT1":424.9,"yT1":0,"xT2":1058.1,"yT2":0,"toosoon":0,"cond_shown":"equaldotanddens","ratio_trial":500,"smaller_num":"6","larger_num":"12","correct_side":1,"subjID":"samuelbarreto23","gender":"0","age":"11","school":"6"},{"start_time":1551881846509,"click_time":1551881847597,"finger_time":1551881847236,"fix_duration":690.8117494654781,"trial":9,"RT":727,"MT":361,"sideResp":1,"stimulus":"img/900/equaldotsize/L/8_Ratio_900_L_20_R_18.png","xmouse":[801,801,801,801,801,801,801,801,801,801,801,801,801,801,801,801,801,801,801,801,801,801,801,801,801,801,801,801,801,801,801,801,800,795,784,757,743,732,719,704,680,671,665,658,649,627,607,595,581,568,538,522,507,492],"ymouse":[600,600,600,600,600,600,600,600,600,600,600,600,600,600,600,600,600,600,600,600,600,600,600,600,600,600,600,600,600,600,600,600,596,590,575,540,515,496,476,454,418,405,392,375,358,325,296,276,254,230,180,151,123,98],"timestamp_mouse":[10,48,67,87,108,127,147,169,188,209,227,248,269,288,307,328,349,368,389,407,427,447,467,488,508,528,548,567,589,608,628,648,668,687,709,727,747,767,787,807,827,847,868,887,908,927,947,967,987,1008,1027,1048,1067,1087],"xSR":741.5,"ySR":573.95,"xT1":424.9,"yT1":0,"xT2":1058.1,"yT2":0,"toosoon":0,"cond_shown":"equaldotsize","ratio_trial":900,"smaller_num":"18","larger_num":"20","correct_side":1,"subjID":"samuelbarreto23","gender":"0","age":"11","school":"6"},{"start_time":1551881849817,"click_time":1551881850697,"finger_time":1551881850436,"fix_duration":1277.7961917415976,"trial":10,"RT":619,"MT":261,"sideResp":1,"stimulus":"img/750/randomdotsizeEA/L/1_Ratio_750_L_20_R_15.png","xmouse":[826,826,826,826,826,826,826,826,826,826,826,826,826,826,826,826,825,825,825,825,825,825,825,825,825,825,822,818,812,803,789,777,741,718,692,668,615,586,557,533,516,488,482,479,477],"ymouse":[593,593,593,593,593,593,593,593,593,593,593,593,593,593,593,593,593,593,593,593,593,593,593,593,593,593,593,593,593,592,584,572,526,494,458,418,334,293,242,209,182,133,117,108,98],"timestamp_mouse":[8,19,40,59,79,99,119,139,159,180,200,220,240,260,279,300,319,340,360,379,401,420,439,459,481,500,519,539,561,580,599,619,639,659,680,699,719,739,759,779,799,820,841,859,880],"xSR":741.5,"ySR":573.95,"xT1":424.9,"yT1":0,"xT2":1058.1,"yT2":0,"toosoon":0,"cond_shown":"randomdotsizeEA","ratio_trial":750,"smaller_num":"15","larger_num":"20","correct_side":1,"subjID":"samuelbarreto23","gender":"0","age":"11","school":"6"},{"start_time":1551881853710,"click_time":1551881854797,"finger_time":1551881854516,"fix_duration":612.0902625969163,"trial":11,"RT":806,"MT":281,"sideResp":1,"stimulus":"img/900/equaldotsize/L/1_Ratio_900_L_10_R_9.png","xmouse":[771,771,771,771,771,771,771,771,771,771,771,771,771,771,771,771,771,771,771,771,771,771,771,771,771,771,771,771,771,771,771,771,771,771,771,772,764,756,745,732,705,691,675,659,640,604,584,569,556,545,520,509,497,486],"ymouse":[652,652,652,652,652,652,652,652,652,652,652,652,652,652,652,652,652,652,652,652,652,652,652,652,652,652,652,652,652,652,652,652,652,652,652,647,635,622,602,583,537,513,484,458,424,354,307,272,241,214,156,128,104,81],"timestamp_mouse":[9,47,68,87,107,126,147,167,187,206,228,246,266,286,308,328,348,367,387,408,427,447,468,487,506,528,546,568,587,607,628,647,667,688,706,726,748,766,787,806,826,846,866,886,907,926,947,966,987,1006,1026,1046,1066,1087],"xSR":741.5,"ySR":573.95,"xT1":424.9,"yT1":0,"xT2":1058.1,"yT2":0,"toosoon":0,"cond_shown":"equaldotsize","ratio_trial":900,"smaller_num":"9","larger_num":"10","correct_side":1,"subjID":"samuelbarreto23","gender":"0","age":"11","school":"6"},{"start_time":1551881856276,"click_time":1551881857236,"finger_time":1551881856876,"fix_duration":637.5715319453265,"trial":12,"RT":600,"MT":360,"sideResp":2,"stimulus":"img/500/equaldotanddens/R/6_Ratio_500_L_9_R_18.png","xmouse":[829,829,829,829,829,829,829,829,829,829,829,829,829,829,829,829,829,829,829,829,829,829,829,829,829,829,829,829,830,831,834,837,841,847,853,860,869,882,894,923,932,945,955,976,991,1009,1029,1051,1084],"ymouse":[610,610,610,610,610,610,610,610,610,610,610,610,610,610,610,610,610,610,610,610,610,610,610,610,610,610,610,610,603,581,562,540,514,443,407,365,321,277,231,132,111,91,79,62,57,55,52,49,45],"timestamp_mouse":[9,20,42,62,81,101,122,140,160,181,201,221,240,261,282,300,321,341,360,380,401,420,441,460,480,500,520,540,560,581,600,620,640,660,680,701,721,741,760,780,800,821,840,860,881,900,921,942,960],"xSR":741.5,"ySR":573.95,"xT1":424.9,"yT1":0,"xT2":1058.1,"yT2":0,"toosoon":0,"cond_shown":"equaldotanddens","ratio_trial":500,"smaller_num":"9","larger_num":"18","correct_side":2,"subjID":"samuelbarreto23","gender":"0","age":"11","school":"6"},{"start_time":1551881859688,"click_time":1551881861337,"finger_time":1551881860877,"fix_duration":250,"trial":13,"RT":1189,"MT":460,"sideResp":2,"stimulus":"img/900/randomdotsizeEA/L/4_Ratio_900_L_20_R_18.png","xmouse":[803,803,803,803,803,803,803,803,803,803,803,803,803,803,803,803,803,803,803,803,803,803,803,803,803,803,803,803,803,803,803,803,803,803,803,803,803,803,803,803,803,803,803,803,803,803,803,803,803,803,803,803,803,803,804,808,813,821,826,826,827,827,828,828,829,830,832,846,864,880,901,927,955,1016,1040,1057,1066,1076,1078,1079,1082,1086,1095],"ymouse":[636,636,636,636,636,636,636,636,636,636,636,636,636,636,636,636,636,636,636,636,636,636,636,636,636,636,636,636,636,636,636,636,636,636,636,636,636,636,636,636,636,636,636,636,636,636,636,636,636,636,636,636,636,632,630,621,612,587,577,573,570,570,568,568,567,564,558,536,511,487,455,410,360,251,211,181,161,142,136,133,126,118,95],"timestamp_mouse":[9,40,48,69,90,109,128,148,169,189,210,229,249,268,288,308,329,348,369,389,409,430,448,469,490,509,529,549,568,588,608,629,649,669,689,708,728,749,768,790,810,829,849,870,889,908,930,948,968,988,1008,1030,1048,1068,1089,1108,1129,1148,1169,1189,1210,1229,1248,1268,1288,1309,1328,1348,1369,1389,1409,1429,1448,1468,1489,1509,1528,1548,1568,1588,1608,1628,1648],"xSR":741.5,"ySR":573.95,"xT1":424.9,"yT1":0,"xT2":1058.1,"yT2":0,"toosoon":0,"cond_shown":"randomdotsizeEA","ratio_trial":900,"smaller_num":"18","larger_num":"20","correct_side":1,"subjID":"samuelbarreto23","gender":"0","age":"11","school":"6"},{"start_time":1551881869410,"click_time":1551881870159,"finger_time":1551881870018,"fix_duration":250,"trial":14,"RT":608,"MT":141,"sideResp":1,"stimulus":"img/500/equaldotanddens/L/13_Ratio_500_L_12_R_6.png","xmouse":[776,776,776,776,776,776,776,776,776,776,776,776,776,776,776,776,776,776,776,776,776,776,776,776,776,775,770,765,759,752,735,695,672,633,605,582,534,513],"ymouse":[658,658,658,658,658,658,658,658,658,658,658,658,658,658,658,658,658,658,658,658,658,658,658,658,658,658,642,624,605,579,543,446,389,302,237,183,85,43],"timestamp_mouse":[10,43,48,68,87,107,129,148,168,188,207,229,247,268,287,308,328,347,367,387,408,428,448,467,489,507,527,547,567,588,608,627,648,667,687,707,727,748],"xSR":741.5,"ySR":573.95,"xT1":424.9,"yT1":0,"xT2":1058.1,"yT2":0,"toosoon":0,"cond_shown":"equaldotanddens","ratio_trial":500,"smaller_num":"6","larger_num":"12","correct_side":1,"subjID":"samuelbarreto23","gender":"0","age":"11","school":"6"},{"start_time":1551881872092,"click_time":1551881872859,"finger_time":1551881872658,"fix_duration":853.647673536172,"trial":15,"RT":566,"MT":201,"sideResp":2,"stimulus":"img/250/equaldotanddens/R/13_Ratio_250_L_2_R_8.png","xmouse":[792,792,792,792,792,792,792,792,792,792,792,792,792,792,792,792,792,792,792,792,792,792,792,792,792,793,799,813,828,845,864,919,946,978,1003,1025,1066,1081],"ymouse":[589,589,589,589,589,589,589,589,589,589,589,589,589,589,589,589,589,589,589,589,589,589,589,589,589,589,581,557,531,503,468,375,327,271,229,187,113,93],"timestamp_mouse":[9,47,67,87,106,125,147,167,186,207,226,247,265,285,306,326,346,366,385,405,426,446,465,485,507,527,546,566,585,606,626,646,665,685,705,726,745,767],"xSR":741.5,"ySR":573.95,"xT1":424.9,"yT1":0,"xT2":1058.1,"yT2":0,"toosoon":0,"cond_shown":"equaldotanddens","ratio_trial":250,"smaller_num":"2","larger_num":"8","correct_side":2,"subjID":"samuelbarreto23","gender":"0","age":"11","school":"6"},{"start_time":1551881877483,"click_time":1551881878278,"finger_time":1551881877878,"fix_duration":1422.8554700199265,"trial":16,"RT":395,"MT":400,"sideResp":2,"stimulus":"img/500/equaldotsize/R/9_Ratio_500_L_2_R_4.png","xmouse":[821,821,821,821,821,821,821,821,820,819,819,819,818,818,818,818,818,817,817,817,817,817,814,812,810,807,804,791,786,783,780,778,781,790,809,841,886,989,1049,1071],"ymouse":[618,618,618,618,618,618,618,618,617,617,617,617,617,617,617,616,614,601,580,569,558,548,525,509,491,474,456,414,396,380,360,337,286,258,226,193,158,90,47,29],"timestamp_mouse":[15,37,55,74,94,116,134,156,174,194,214,235,255,274,295,314,335,354,375,395,416,435,454,475,495,514,536,554,575,595,615,634,655,675,694,715,736,755,775,795],"xSR":741.5,"ySR":573.95,"xT1":424.9,"yT1":0,"xT2":1058.1,"yT2":0,"toosoon":0,"cond_shown":"equaldotsize","ratio_trial":500,"smaller_num":"2","larger_num":"4","correct_side":2,"subjID":"samuelbarreto23","gender":"0","age":"11","school":"6"},{"start_time":1551881880160,"click_time":1551881880897,"finger_time":1551881880658,"fix_duration":1041.9088196078335,"trial":17,"RT":498,"MT":239,"sideResp":1,"stimulus":"img/250/randomdotsizeEA/L/3_Ratio_250_L_8_R_2.png","xmouse":[782,782,782,782,782,782,782,782,782,782,782,782,782,782,782,782,782,782,782,782,782,780,779,772,764,757,748,738,706,691,674,656,638,590,567,544,522],"ymouse":[616,616,616,616,616,616,616,616,616,616,616,616,616,616,616,616,616,616,616,616,616,612,608,588,560,539,512,479,394,350,302,257,212,114,76,43,18],"timestamp_mouse":[18,51,58,77,97,117,137,158,178,197,218,238,258,278,298,317,337,358,378,397,418,438,458,478,498,517,539,558,577,597,617,638,657,677,698,717,737],"xSR":741.5,"ySR":573.95,"xT1":424.9,"yT1":0,"xT2":1058.1,"yT2":0,"toosoon":0,"cond_shown":"randomdotsizeEA","ratio_trial":250,"smaller_num":"2","larger_num":"8","correct_side":1,"subjID":"samuelbarreto23","gender":"0","age":"11","school":"6"},{"start_time":1551881882678,"click_time":1551881883398,"finger_time":1551881883138,"fix_duration":1018.7335490587684,"trial":18,"RT":460,"MT":260,"sideResp":2,"stimulus":"img/900/equaldotanddens/L/2_Ratio_900_L_20_R_18.png","xmouse":[751,751,751,751,751,751,751,751,751,751,751,751,751,751,751,751,751,751,752,754,759,764,769,780,785,792,800,806,841,860,883,912,943,1006,1032,1057,1080],"ymouse":[646,646,646,646,646,646,646,646,646,646,646,646,646,646,646,646,646,646,647,641,631,618,602,566,546,523,498,471,385,341,297,251,198,105,67,35,9],"timestamp_mouse":[1,19,39,59,80,99,119,141,159,180,201,219,240,261,280,300,319,340,359,380,399,420,440,460,480,499,519,539,559,580,599,619,639,659,680,700,720],"xSR":741.5,"ySR":573.95,"xT1":424.9,"yT1":0,"xT2":1058.1,"yT2":0,"toosoon":0,"cond_shown":"equaldotanddens","ratio_trial":900,"smaller_num":"18","larger_num":"20","correct_side":1,"subjID":"samuelbarreto23","gender":"0","age":"11","school":"6"},{"start_time":1551881885020,"click_time":1551881885977,"finger_time":1551881885499,"fix_duration":900.9133319844348,"trial":19,"RT":479,"MT":478,"sideResp":1,"stimulus":"img/500/equaldotsize/L/8_Ratio_500_L_8_R_4.png","xmouse":[795,795,795,795,795,795,795,795,795,795,795,795,795,795,795,795,795,795,795,795,795,784,769,755,741,701,678,649,618,566,532,521,516,510,490,474,457,446,445,445,445,445,453,463,474,477,477],"ymouse":[625,625,625,625,625,625,625,625,625,625,625,625,625,625,625,625,625,625,625,625,625,602,562,515,461,333,257,182,114,5,0,0,0,0,0,0,0,0,0,0,0,0,0,0,0,0,1],"timestamp_mouse":[46,58,78,98,117,139,157,177,199,218,237,258,277,297,319,338,357,378,397,417,437,457,479,497,518,537,557,578,598,617,637,657,677,697,719,738,758,779,797,818,837,857,878,897,918,937,957],"xSR":741.5,"ySR":573.95,"xT1":424.9,"yT1":0,"xT2":1058.1,"yT2":0,"toosoon":0,"cond_shown":"equaldotsize","ratio_trial":500,"smaller_num":"4","larger_num":"8","correct_side":1,"subjID":"samuelbarreto23","gender":"0","age":"11","school":"6"},{"start_time":1551881887956,"click_time":1551881888638,"finger_time":1551881888478,"fix_duration":537.6690811525591,"trial":20,"RT":522,"MT":160,"sideResp":2,"stimulus":"img/250/equaldotanddens/R/13_Ratio_250_L_2_R_8.png","xmouse":[798,798,798,798,798,798,798,798,798,798,798,798,798,798,798,798,798,798,798,798,798,798,798,798,800,805,815,826,838,884,916,951,992,1027,1085],"ymouse":[602,602,602,602,602,602,602,602,602,602,602,602,602,602,602,602,602,602,602,602,602,602,602,602,599,585,570,549,526,447,391,327,258,194,68],"timestamp_mouse":[10,32,42,63,81,102,121,142,161,182,203,222,242,262,282,302,322,343,361,382,401,421,443,461,481,502,521,542,561,581,601,621,641,662,682],"xSR":741.5,"ySR":573.95,"xT1":424.9,"yT1":0,"xT2":1058.1,"yT2":0,"toosoon":0,"cond_shown":"equaldotanddens","ratio_trial":250,"smaller_num":"2","larger_num":"8","correct_side":2,"subjID":"samuelbarreto23","gender":"0","age":"11","school":"6"},{"start_time":1551881890090,"click_time":1551881890859,"finger_time":1551881890518,"fix_duration":250,"trial":21,"RT":428,"MT":341,"sideResp":1,"stimulus":"img/500/randomdotsizeEA/L/10_Ratio_500_L_4_R_2.png","xmouse":[815,815,815,815,815,815,815,815,815,815,815,815,815,815,815,815,815,815,815,812,806,799,797,792,790,785,780,779,774,769,761,734,714,697,680,657,573,518],"ymouse":[601,601,601,601,601,601,601,601,601,601,601,601,601,601,601,601,601,601,597,585,563,530,516,502,491,477,443,432,418,404,388,347,318,293,269,235,136,92],"timestamp_mouse":[8,48,68,87,109,128,147,168,188,208,227,248,267,288,308,329,347,368,388,408,428,448,467,488,508,528,547,568,587,608,628,648,667,688,707,728,747,768],"xSR":741.5,"ySR":573.95,"xT1":424.9,"yT1":0,"xT2":1058.1,"yT2":0,"toosoon":0,"cond_shown":"randomdotsizeEA","ratio_trial":500,"smaller_num":"2","larger_num":"4","correct_side":1,"subjID":"samuelbarreto23","gender":"0","age":"11","school":"6"},{"start_time":1551881893660,"click_time":1551881894499,"finger_time":1551881894117,"fix_duration":621.6261369845861,"trial":22,"RT":457,"MT":382,"sideResp":1,"stimulus":"img/500/randomdotsizeEA/L/7_Ratio_500_L_10_R_5.png","xmouse":[793,793,793,793,793,793,793,793,793,793,793,793,793,793,793,793,793,793,790,777,766,757,751,739,731,724,717,709,692,686,678,670,662,633,616,601,582,566,557,544,532,510],"ymouse":[645,645,645,645,645,645,645,645,645,645,645,645,645,645,645,645,645,645,636,618,601,584,570,540,523,506,488,471,421,400,372,344,312,231,190,155,124,98,83,68,66,61],"timestamp_mouse":[17,40,59,77,98,117,139,158,177,199,218,237,257,277,297,317,339,357,377,399,417,439,457,477,498,517,537,558,577,597,618,639,657,677,698,718,737,757,777,798,817,838],"xSR":741.5,"ySR":573.95,"xT1":424.9,"yT1":0,"xT2":1058.1,"yT2":0,"toosoon":0,"cond_shown":"randomdotsizeEA","ratio_trial":500,"smaller_num":"5","larger_num":"10","correct_side":1,"subjID":"samuelbarreto23","gender":"0","age":"11","school":"6"},{"start_time":1551881896437,"click_time":1551881898017,"finger_time":1551881897089,"fix_duration":1279.9736882436825,"trial":23,"RT":652,"MT":928,"sideResp":1,"stimulus":"img/750/equaldotsize/L/13_Ratio_750_L_8_R_6.png","xmouse":[814,814,814,814,814,814,814,814,814,814,814,814,814,814,814,814,814,814,814,814,814,814,814,814,814,814,814,815,815,815,815,815,815,813,807,790,780,766,752,739,711,687,671,652,632,581,550,532,514,500,487,485,484,483,483,482,481,481,481,480,480,480,480,480,480,480,480,480,480,480,480,480,480,480,480,481,481,482,483,485],"ymouse":[621,621,621,621,621,621,621,621,621,621,621,621,621,621,621,621,621,621,621,621,621,621,621,621,621,621,621,621,618,612,589,578,566,554,541,513,499,481,465,449,412,383,368,351,333,289,259,236,216,199,179,171,167,165,163,161,159,158,156,155,150,147,145,144,142,140,140,140,139,139,136,135,133,132,130,121,117,110,103,94],"timestamp_mouse":[11,21,43,62,80,101,120,140,160,181,201,220,240,261,281,301,320,341,361,380,400,422,440,461,480,501,520,540,560,582,600,620,652,660,681,700,722,741,760,780,801,821,840,860,880,900,921,941,962,982,1000,1021,1041,1061,1080,1100,1121,1142,1162,1180,1200,1220,1241,1261,1282,1301,1321,1340,1360,1381,1401,1420,1440,1460,1480,1501,1521,1541,1561,1580],"xSR":741.5,"ySR":573.95,"xT1":424.9,"yT1":0,"xT2":1058.1,"yT2":0,"toosoon":0,"cond_shown":"equaldotsize","ratio_trial":750,"smaller_num":"6","larger_num":"8","correct_side":1,"subjID":"samuelbarreto23","gender":"0","age":"11","school":"6"},{"start_time":1551881900274,"click_time":1551881901138,"finger_time":1551881900917,"fix_duration":1373.7667236015336,"trial":24,"RT":643,"MT":221,"sideResp":1,"stimulus":"img/750/equaldotsize/L/1_Ratio_750_L_20_R_15.png","xmouse":[807,807,807,807,807,807,807,807,807,807,807,807,807,807,807,807,807,807,807,807,807,807,807,807,807,807,807,807,807,807,808,804,797,770,747,725,698,674,607,584,563,544,525,488],"ymouse":[603,603,603,603,603,603,603,603,603,603,603,603,603,603,603,603,603,603,603,603,603,603,603,603,603,603,603,603,603,603,596,581,561,489,454,412,365,322,219,186,158,134,115,88],"timestamp_mouse":[10,33,44,63,85,104,124,145,164,184,203,223,244,264,285,304,323,343,364,385,405,424,444,464,483,504,524,544,564,584,604,623,643,663,684,703,723,744,764,783,803,823,843,863],"xSR":741.5,"ySR":573.95,"xT1":424.9,"yT1":0,"xT2":1058.1,"yT2":0,"toosoon":0,"cond_shown":"equaldotsize","ratio_trial":750,"smaller_num":"15","larger_num":"20","correct_side":1,"subjID":"samuelbarreto23","gender":"0","age":"11","school":"6"},{"start_time":1551881902594,"click_time":1551881903837,"finger_time":1551881903277,"fix_duration":456.062702806589,"trial":25,"RT":683,"MT":560,"sideResp":1,"stimulus":"img/250/equaldotanddens/L/7_Ratio_250_L_8_R_2.png","xmouse":[829,829,829,829,829,829,829,829,829,829,829,829,829,829,829,829,829,829,829,829,829,829,829,829,829,829,829,829,829,829,829,826,816,810,799,789,781,767,759,748,733,720,693,672,654,634,607,558,539,523,509,493,465,457,457,457,457,457,457,457,457,460,465],"ymouse":[610,610,610,610,610,610,610,610,610,610,610,610,610,610,610,610,610,610,610,610,610,610,610,610,610,610,610,610,610,610,610,607,591,578,558,536,514,463,434,404,372,344,298,271,253,238,219,190,179,168,159,151,136,132,132,132,132,132,131,129,124,118,99],"timestamp_mouse":[20,25,54,64,84,103,123,144,164,184,205,223,244,263,284,303,325,343,363,385,403,423,444,463,483,505,523,545,564,583,604,625,643,664,683,704,723,743,763,784,803,825,844,864,883,904,924,944,964,983,1003,1023,1043,1064,1085,1104,1124,1144,1163,1183,1203,1223,1243],"xSR":741.5,"ySR":573.95,"xT1":424.9,"yT1":0,"xT2":1058.1,"yT2":0,"toosoon":0,"cond_shown":"equaldotanddens","ratio_trial":250,"smaller_num":"2","larger_num":"8","correct_side":1,"subjID":"samuelbarreto23","gender":"0","age":"11","school":"6"},{"start_time":1551881905037,"click_time":1551881906337,"finger_time":1551881905737,"fix_duration":297.089978877636,"trial":26,"RT":700,"MT":600,"sideResp":1,"stimulus":"img/900/randomdotsizeEA/L/10_Ratio_900_L_20_R_18.png","xmouse":[815,815,815,815,815,815,815,815,815,815,815,815,815,815,815,815,815,815,815,815,815,815,815,815,815,815,815,815,815,815,815,815,815,815,814,811,808,804,800,794,781,765,752,736,714,663,642,623,607,594,578,567,562,558,552,546,542,539,534,527,514,509,506,505,501,479],"ymouse":[593,593,593,593,593,593,593,593,593,593,593,593,593,593,593,593,593,593,593,593,593,593,593,593,593,593,593,593,593,593,593,593,593,591,586,573,562,551,538,524,494,466,446,426,400,345,321,298,277,260,227,203,190,176,164,149,143,137,132,125,115,109,106,105,103,95],"timestamp_mouse":[9,22,41,60,80,100,120,142,161,181,201,221,241,260,280,301,321,342,361,380,401,421,440,461,481,502,521,541,562,580,601,622,641,662,680,700,722,741,760,781,800,821,841,860,880,901,920,940,960,981,1001,1021,1040,1060,1080,1100,1121,1142,1162,1180,1200,1221,1241,1261,1281,1300],"xSR":741.5,"ySR":573.95,"xT1":424.9,"yT1":0,"xT2":1058.1,"yT2":0,"toosoon":0,"cond_shown":"randomdotsizeEA","ratio_trial":900,"smaller_num":"18","larger_num":"20","correct_side":1,"subjID":"samuelbarreto23","gender":"0","age":"11","school":"6"},{"start_time":1551881908389,"click_time":1551881909219,"finger_time":1551881908977,"fix_duration":1129.501059403691,"trial":27,"RT":588,"MT":242,"sideResp":2,"stimulus":"img/750/randomdotsizeEA/R/12_Ratio_750_L_3_R_4.png","xmouse":[763,768,770,772,772,772,772,772,772,772,772,772,772,772,772,772,772,772,772,772,772,772,772,772,772,772,772,775,777,783,790,799,825,852,875,899,930,996,1022,1044,1060,1070],"ymouse":[583,583,584,584,584,584,584,584,584,584,584,584,584,584,584,584,584,584,584,584,584,584,584,584,584,584,584,583,580,571,560,545,503,460,423,378,332,229,186,147,114,93],"timestamp_mouse":[10,28,57,69,89,109,128,148,170,190,209,229,248,269,288,310,328,349,370,389,409,430,450,468,489,510,529,548,568,588,608,628,648,669,688,708,728,749,769,788,808,830],"xSR":741.5,"ySR":573.95,"xT1":424.9,"yT1":0,"xT2":1058.1,"yT2":0,"toosoon":0,"cond_shown":"randomdotsizeEA","ratio_trial":750,"smaller_num":"3","larger_num":"4","correct_side":2,"subjID":"samuelbarreto23","gender":"0","age":"11","school":"6"},{"start_time":1551881910684,"click_time":1551881911877,"finger_time":1551881911337,"fix_duration":505.9734537494485,"trial":28,"RT":653,"MT":540,"sideResp":2,"stimulus":"img/500/randomdotsizeEA/R/3_Ratio_500_L_10_R_20.png","xmouse":[789,789,789,789,789,789,789,789,789,789,789,789,789,789,789,789,789,789,789,789,789,789,789,789,789,789,789,789,789,789,789,789,799,813,828,843,861,910,928,948,971,986,1014,1024,1034,1045,1053,1069,1070,1073,1074,1076,1082,1085,1086,1086,1086,1086,1086,1088],"ymouse":[586,586,586,586,586,586,586,586,586,586,586,586,586,586,586,586,586,586,586,586,586,586,586,586,586,586,586,586,586,586,586,585,572,552,532,511,486,402,359,308,256,204,124,88,55,30,8,0,0,0,0,0,0,0,0,0,0,0,0,1],"timestamp_mouse":[15,33,53,73,94,113,133,154,173,194,214,233,253,273,295,315,334,354,374,395,414,434,455,474,493,513,534,554,573,593,613,634,653,673,694,713,734,753,773,794,815,835,853,873,893,914,934,954,974,994,1014,1033,1053,1073,1093,1114,1135,1153,1174,1193],"xSR":741.5,"ySR":573.95,"xT1":424.9,"yT1":0,"xT2":1058.1,"yT2":0,"toosoon":0,"cond_shown":"randomdotsizeEA","ratio_trial":500,"smaller_num":"10","larger_num":"20","correct_side":2,"subjID":"samuelbarreto23","gender":"0","age":"11","school":"6"},{"start_time":1551881913069,"click_time":1551881914238,"finger_time":1551881913659,"fix_duration":250,"trial":29,"RT":590,"MT":579,"sideResp":2,"stimulus":"img/250/equaldotsize/R/10_Ratio_250_L_4_R_16.png","xmouse":[824,824,824,824,824,824,824,824,824,824,824,824,824,824,824,824,824,824,824,824,824,824,824,824,824,824,824,825,839,857,883,911,960,986,1006,1025,1040,1069,1083,1086,1088,1088,1088,1089,1089,1092,1093,1093,1093,1094,1094,1094,1095,1096,1098,1101,1103,1109],"ymouse":[611,611,611,611,611,611,611,611,611,611,611,611,611,611,611,611,611,611,611,611,611,611,611,611,611,611,611,600,558,510,448,386,263,204,146,90,46,0,0,0,0,0,0,0,0,0,0,0,0,0,0,0,0,0,0,0,0,3],"timestamp_mouse":[10,51,69,89,108,130,149,168,190,208,228,248,270,288,309,328,349,368,388,409,429,449,470,488,509,529,549,569,590,608,628,649,669,689,709,728,750,768,789,808,829,849,869,890,910,928,949,969,989,1008,1028,1049,1069,1088,1109,1128,1149,1168],"xSR":741.5,"ySR":573.95,"xT1":424.9,"yT1":0,"xT2":1058.1,"yT2":0,"toosoon":0,"cond_shown":"equaldotsize","ratio_trial":250,"smaller_num":"4","larger_num":"16","correct_side":2,"subjID":"samuelbarreto23","gender":"0","age":"11","school":"6"},{"start_time":1551881915488,"click_time":1551881916437,"finger_time":1551881916137,"fix_duration":250,"trial":30,"RT":649,"MT":300,"sideResp":2,"stimulus":"img/900/equaldotanddens/R/6_Ratio_900_L_9_R_10.png","xmouse":[791,791,791,791,791,791,791,791,791,791,791,791,791,791,791,791,791,791,791,791,791,791,791,791,791,791,791,791,791,791,792,795,815,830,850,870,889,955,975,995,1010,1021,1037,1044,1051,1056,1063,1075],"ymouse":[593,593,593,593,593,593,593,593,593,593,593,593,593,593,593,593,593,593,593,593,593,593,593,593,593,593,593,593,593,593,589,584,547,523,491,457,416,299,263,228,202,181,146,132,118,109,100,84],"timestamp_mouse":[9,33,51,69,90,110,129,150,170,189,210,230,251,269,289,310,329,350,370,391,411,429,450,469,491,510,530,550,570,591,610,629,649,670,690,710,731,749,769,789,810,829,849,870,891,910,930,949],"xSR":741.5,"ySR":573.95,"xT1":424.9,"yT1":0,"xT2":1058.1,"yT2":0,"toosoon":0,"cond_shown":"equaldotanddens","ratio_trial":900,"smaller_num":"9","larger_num":"10","correct_side":2,"subjID":"samuelbarreto23","gender":"0","age":"11","school":"6"},{"start_time":1551881918988,"click_time":1551881919798,"finger_time":1551881919578,"fix_duration":1428.9491701910977,"trial":31,"RT":590,"MT":220,"sideResp":2,"stimulus":"img/750/randomdotsizeEA/R/4_Ratio_750_L_15_R_20.png","xmouse":[808,807,807,807,807,807,807,807,807,807,807,807,807,807,807,807,807,807,807,807,807,807,807,807,807,807,805,807,813,825,839,859,914,944,966,994,1009,1043,1057,1069,1081],"ymouse":[608,609,609,609,609,609,609,609,609,609,609,609,609,609,609,609,609,609,609,609,609,609,609,609,609,609,609,605,589,568,544,509,402,352,303,250,213,150,126,104,83],"timestamp_mouse":[10,29,53,71,90,109,130,149,171,191,210,230,249,271,290,310,329,350,369,390,411,430,449,470,490,510,530,549,569,590,610,630,649,671,689,710,731,749,769,790,810],"xSR":741.5,"ySR":573.95,"xT1":424.9,"yT1":0,"xT2":1058.1,"yT2":0,"toosoon":0,"cond_shown":"randomdotsizeEA","ratio_trial":750,"smaller_num":"15","larger_num":"20","correct_side":2,"subjID":"samuelbarreto23","gender":"0","age":"11","school":"6"},{"start_time":1551881920968,"click_time":1551881922078,"finger_time":1551881921717,"fix_duration":428.58314957813093,"trial":32,"RT":749,"MT":361,"sideResp":2,"stimulus":"img/900/randomdotsizeEA/R/9_Ratio_900_L_18_R_20.png","xmouse":[767,767,767,767,767,767,767,767,767,767,767,767,767,767,767,767,767,767,767,767,767,767,767,767,767,767,767,767,767,767,767,767,767,767,769,775,787,806,851,877,895,915,930,959,968,973,976,979,981,985,989,997,1006,1030,1052,1066],"ymouse":[621,621,621,621,621,621,621,621,621,621,621,621,621,621,621,621,621,621,621,621,621,621,621,621,621,621,621,621,621,621,621,621,621,621,619,606,584,549,465,415,375,327,289,227,213,205,201,198,195,189,183,176,165,138,114,98],"timestamp_mouse":[9,35,49,70,89,111,129,150,170,189,209,229,251,269,289,310,330,350,370,389,411,430,449,470,489,509,529,549,570,589,611,630,650,671,689,709,730,749,769,789,810,831,850,869,889,909,930,949,969,989,1009,1029,1050,1069,1090,1110],"xSR":741.5,"ySR":573.95,"xT1":424.9,"yT1":0,"xT2":1058.1,"yT2":0,"toosoon":0,"cond_shown":"randomdotsizeEA","ratio_trial":900,"smaller_num":"18","larger_num":"20","correct_side":2,"subjID":"samuelbarreto23","gender":"0","age":"11","school":"6"},{"start_time":1551881923567,"click_time":1551881924797,"finger_time":1551881924298,"fix_duration":668.794295427394,"trial":33,"RT":731,"MT":499,"sideResp":1,"stimulus":"img/900/equaldotanddens/L/1_Ratio_900_L_10_R_9.png","xmouse":[778,778,778,778,778,778,778,778,778,778,778,778,778,778,778,778,778,778,778,778,778,778,778,778,778,778,778,778,778,778,778,784,797,805,811,819,825,843,851,861,870,875,882,883,882,879,873,856,848,835,819,796,747,709,685,663,639,595,569,544,518],"ymouse":[652,652,652,652,652,652,652,652,652,652,652,652,652,652,652,652,652,652,652,652,652,652,652,652,652,652,652,652,652,651,648,638,611,593,578,564,552,520,506,489,473,458,436,423,419,412,405,387,380,369,355,341,311,285,265,245,220,168,139,109,79],"timestamp_mouse":[16,51,71,90,111,131,150,171,190,212,231,251,272,290,310,331,352,371,391,411,432,452,471,491,511,531,550,572,592,612,631,651,670,691,710,731,751,771,791,811,830,851,870,890,910,930,951,971,992,1010,1030,1050,1070,1091,1111,1130,1150,1170,1190,1211,1230],"xSR":741.5,"ySR":573.95,"xT1":424.9,"yT1":0,"xT2":1058.1,"yT2":0,"toosoon":0,"cond_shown":"equaldotanddens","ratio_trial":900,"smaller_num":"9","larger_num":"10","correct_side":1,"subjID":"samuelbarreto23","gender":"0","age":"11","school":"6"},{"start_time":1551881926171,"click_time":1551881927017,"finger_time":1551881926698,"fix_duration":532.791921357063,"trial":34,"RT":527,"MT":319,"sideResp":2,"stimulus":"img/250/randomdotsizeEA/R/12_Ratio_250_L_5_R_20.png","xmouse":[766,766,766,766,766,766,766,766,766,766,766,766,766,766,766,766,766,766,766,766,766,766,766,766,769,773,779,787,800,835,860,883,905,946,968,981,991,1002,1021,1033,1044,1053,1060],"ymouse":[609,609,609,609,609,609,609,609,609,609,609,609,609,609,609,609,609,609,609,609,609,609,609,609,601,587,568,546,514,435,381,327,281,198,157,136,117,104,83,76,72,68,65],"timestamp_mouse":[9,36,47,67,87,108,126,146,167,186,208,228,246,266,287,306,327,347,368,388,407,426,447,466,486,506,527,546,566,586,607,627,647,666,687,706,726,746,766,786,807,827,846],"xSR":741.5,"ySR":573.95,"xT1":424.9,"yT1":0,"xT2":1058.1,"yT2":0,"toosoon":0,"cond_shown":"randomdotsizeEA","ratio_trial":250,"smaller_num":"5","larger_num":"20","correct_side":2,"subjID":"samuelbarreto23","gender":"0","age":"11","school":"6"},{"start_time":1551881929065,"click_time":1551881930277,"finger_time":1551881929818,"fix_duration":1326.7122730512358,"trial":35,"RT":753,"MT":459,"sideResp":1,"stimulus":"img/500/randomdotsizeEA/L/7_Ratio_500_L_10_R_5.png","xmouse":[747,747,747,747,747,747,749,753,773,789,794,795,795,795,795,795,795,795,795,795,795,795,795,795,795,795,795,795,795,795,795,795,795,795,788,781,776,768,743,726,713,701,684,649,629,607,581,547,499,488,487,487,487,486,484,479,476,476,476,475,475],"ymouse":[644,644,644,644,644,644,644,644,644,644,644,644,644,644,644,644,644,644,644,644,644,644,644,644,644,644,644,644,644,644,644,644,644,640,621,603,580,557,474,431,385,339,279,179,133,96,57,17,0,0,0,0,0,0,0,0,0,0,0,0,3],"timestamp_mouse":[15,50,54,73,93,113,133,153,173,193,212,232,253,274,292,312,334,352,373,393,414,434,453,474,494,514,532,554,572,593,614,633,653,673,693,712,733,753,773,793,812,832,852,873,893,913,932,953,973,993,1013,1034,1053,1072,1092,1113,1132,1152,1172,1193,1212],"xSR":741.5,"ySR":573.95,"xT1":424.9,"yT1":0,"xT2":1058.1,"yT2":0,"toosoon":0,"cond_shown":"randomdotsizeEA","ratio_trial":500,"smaller_num":"5","larger_num":"10","correct_side":1,"subjID":"samuelbarreto23","gender":"0","age":"11","school":"6"},{"start_time":1551881931335,"click_time":1551881933639,"finger_time":1551881933338,"fix_duration":476.33437751020904,"trial":36,"RT":2003,"MT":301,"sideResp":2,"stimulus":"img/750/equaldotanddens/R/2_Ratio_750_L_6_R_8.png","xmouse":[767,767,767,767,767,767,767,768,768,768,768,768,768,768,768,768,768,768,768,768,768,768,768,768,768,768,768,768,768,768,768,768,768,768,768,768,768,768,768,768,768,768,768,768,768,768,768,768,768,768,768,768,768,768,768,768,768,768,768,768,768,768,768,768,768,768,768,768,768,768,768,768,768,768,768,768,768,768,768,768,768,768,768,768,768,768,768,768,768,768,768,768,768,768,768,768,768,768,768,770,777,784,791,799,809,831,855,875,895,918,971,999,1023,1047,1071,1109],"ymouse":[599,599,599,599,599,599,599,600,600,600,600,600,600,600,600,600,600,600,600,600,600,600,600,600,600,600,600,600,600,600,600,600,600,600,600,600,600,600,600,600,600,600,600,600,600,600,600,600,600,600,600,600,600,600,600,600,600,600,600,600,600,600,600,600,600,600,600,600,600,600,600,600,600,600,600,600,600,600,600,600,600,600,600,600,600,600,600,600,600,600,600,600,600,600,600,600,600,600,600,594,572,555,535,513,489,430,379,342,310,279,219,191,169,149,128,96],"timestamp_mouse":[9,34,44,63,83,102,124,143,162,182,203,223,243,263,283,303,322,342,363,383,403,422,444,462,484,502,523,543,563,583,604,623,643,664,684,704,723,743,762,784,803,824,844,863,884,904,923,943,962,983,1002,1022,1042,1063,1084,1104,1123,1143,1164,1184,1202,1224,1243,1263,1284,1304,1322,1342,1364,1382,1403,1423,1444,1464,1484,1503,1523,1544,1563,1583,1603,1624,1643,1664,1682,1702,1723,1743,1764,1782,1802,1823,1844,1863,1884,1902,1923,1943,1963,1983,2003,2022,2044,2063,2083,2102,2124,2143,2162,2184,2202,2222,2243,2262,2283,2304],"xSR":741.5,"ySR":573.95,"xT1":424.9,"yT1":0,"xT2":1058.1,"yT2":0,"toosoon":0,"cond_shown":"equaldotanddens","ratio_trial":750,"smaller_num":"6","larger_num":"8","correct_side":2,"subjID":"samuelbarreto23","gender":"0","age":"11","school":"6"},{"start_time":1551881935534,"click_time":1551881936238,"finger_time":1551881936097,"fix_duration":775.2551823449458,"trial":37,"RT":563,"MT":141,"sideResp":1,"stimulus":"img/500/equaldotsize/L/10_Ratio_500_L_4_R_2.png","xmouse":[798,798,798,798,798,798,798,798,798,798,798,798,798,798,798,798,798,798,798,798,798,798,798,798,798,797,793,780,761,736,684,653,623,589,551,493],"ymouse":[648,648,648,648,648,648,648,648,648,648,648,648,648,648,648,648,648,648,648,648,648,648,648,648,648,648,618,574,509,440,314,263,217,170,122,44],"timestamp_mouse":[11,25,44,63,84,104,124,144,165,183,205,224,244,264,285,303,324,344,363,384,403,424,444,464,483,504,523,544,563,583,603,624,644,665,685,704],"xSR":741.5,"ySR":573.95,"xT1":424.9,"yT1":0,"xT2":1058.1,"yT2":0,"toosoon":0,"cond_shown":"equaldotsize","ratio_trial":500,"smaller_num":"2","larger_num":"4","correct_side":1,"subjID":"samuelbarreto23","gender":"0","age":"11","school":"6"},{"start_time":1551881938124,"click_time":1551881939477,"finger_time":1551881938938,"fix_duration":905.6983550002844,"trial":38,"RT":814,"MT":539,"sideResp":1,"stimulus":"img/750/randomdotsizeEA/L/8_Ratio_750_L_4_R_3.png","xmouse":[794,794,794,794,794,794,794,794,794,794,794,794,794,794,794,794,794,794,794,794,794,794,794,794,794,794,794,794,794,794,794,794,794,794,794,794,793,790,788,787,783,779,775,767,762,755,751,747,743,739,733,727,723,718,714,698,689,680,673,666,653,645,635,623,607,556,540,521],"ymouse":[640,640,640,640,640,640,640,640,640,640,640,640,640,640,640,640,640,640,640,640,640,640,640,640,640,640,640,640,640,640,640,640,640,640,640,635,629,620,609,598,570,556,542,527,515,488,474,460,444,429,400,383,367,349,335,292,275,259,247,234,210,195,178,159,136,78,63,46],"timestamp_mouse":[14,33,55,74,94,113,135,154,173,193,213,234,254,273,294,314,333,353,373,395,414,435,453,475,494,515,533,554,575,593,613,635,653,673,693,713,735,753,774,794,814,834,854,874,895,914,934,953,974,993,1013,1033,1053,1073,1095,1114,1135,1153,1173,1193,1213,1235,1254,1274,1295,1313,1333,1353],"xSR":741.5,"ySR":573.95,"xT1":424.9,"yT1":0,"xT2":1058.1,"yT2":0,"toosoon":0,"cond_shown":"randomdotsizeEA","ratio_trial":750,"smaller_num":"3","larger_num":"4","correct_side":1,"subjID":"samuelbarreto23","gender":"0","age":"11","school":"6"},{"start_time":1551881941802,"click_time":1551881942597,"finger_time":1551881942337,"fix_duration":1364.4872834047808,"trial":39,"RT":535,"MT":260,"sideResp":2,"stimulus":"img/250/equaldotsize/R/10_Ratio_250_L_4_R_16.png","xmouse":[780,780,780,780,780,780,780,780,780,780,780,780,780,780,780,780,780,780,780,780,780,781,781,781,782,793,805,826,858,891,973,999,1018,1036,1051,1073,1083,1089,1099],"ymouse":[592,592,592,592,592,592,592,592,592,592,592,592,592,592,592,592,592,592,592,592,592,592,592,592,590,570,551,517,470,422,304,261,229,197,172,135,118,107,95],"timestamp_mouse":[40,56,76,95,115,137,155,175,197,216,237,256,276,296,315,335,356,377,396,417,437,455,475,496,515,535,557,576,596,616,636,656,675,695,715,735,757,776,795],"xSR":741.5,"ySR":573.95,"xT1":424.9,"yT1":0,"xT2":1058.1,"yT2":0,"toosoon":0,"cond_shown":"equaldotsize","ratio_trial":250,"smaller_num":"4","larger_num":"16","correct_side":2,"subjID":"samuelbarreto23","gender":"0","age":"11","school":"6"},{"start_time":1551881944932,"click_time":1551881946018,"finger_time":1551881945797,"fix_duration":1393.0808228105673,"trial":40,"RT":865,"MT":221,"sideResp":2,"stimulus":"img/750/equaldotsize/L/1_Ratio_750_L_20_R_15.png","xmouse":[795,795,795,795,795,795,795,795,795,795,795,795,795,795,795,795,795,795,795,795,795,795,795,795,795,795,795,795,795,795,795,795,795,795,795,795,795,795,795,795,795,799,809,829,859,935,988,1023,1055,1074,1092,1110,1117,1127,1136],"ymouse":[635,635,635,635,635,635,635,635,635,635,635,635,635,635,635,635,635,635,635,635,635,635,635,635,635,635,635,635,635,635,635,635,635,635,635,635,635,635,635,633,629,619,600,567,526,421,344,293,249,214,183,140,122,107,92],"timestamp_mouse":[10,36,46,65,86,105,127,146,167,186,205,227,246,265,287,306,326,345,367,387,406,426,446,467,485,505,527,545,566,585,607,627,647,665,685,705,727,746,767,786,805,825,846,865,886,906,926,946,966,985,1005,1025,1046,1065,1085],"xSR":741.5,"ySR":573.95,"xT1":424.9,"yT1":0,"xT2":1058.1,"yT2":0,"toosoon":0,"cond_shown":"equaldotsize","ratio_trial":750,"smaller_num":"15","larger_num":"20","correct_side":1,"subjID":"samuelbarreto23","gender":"0","age":"11","school":"6"},{"start_time":1551881950031,"click_time":1551881951038,"finger_time":1551881950818,"fix_duration":250,"trial":41,"RT":787,"MT":220,"sideResp":1,"stimulus":"img/750/equaldotanddens/R/11_Ratio_750_L_12_R_16.png","xmouse":[810,810,810,810,810,810,810,810,810,810,810,810,810,810,810,810,810,810,810,810,810,810,810,810,810,810,810,810,810,810,810,810,810,810,810,810,809,806,802,772,726,697,678,660,616,580,524,494,470,435],"ymouse":[632,632,632,632,632,632,632,632,632,632,632,632,632,632,632,632,632,632,632,632,632,632,632,632,632,632,632,632,632,632,632,632,632,632,632,625,607,586,561,485,408,359,325,293,232,198,154,129,108,78],"timestamp_mouse":[9,49,67,87,108,128,146,166,187,207,228,247,267,287,306,327,346,367,387,406,427,448,467,486,507,527,547,568,586,608,628,647,668,687,707,726,748,767,787,806,826,847,868,886,907,927,947,967,988,1007],"xSR":741.5,"ySR":573.95,"xT1":424.9,"yT1":0,"xT2":1058.1,"yT2":0,"toosoon":0,"cond_shown":"equaldotanddens","ratio_trial":750,"smaller_num":"12","larger_num":"16","correct_side":2,"subjID":"samuelbarreto23","gender":"0","age":"11","school":"6"},{"start_time":1551881953348,"click_time":1551881954178,"finger_time":1551881953959,"fix_duration":1388.8967448206226,"trial":42,"RT":611,"MT":219,"sideResp":2,"stimulus":"img/750/equaldotsize/R/15_Ratio_750_L_9_R_12.png","xmouse":[782,782,782,782,782,782,782,782,782,782,782,782,782,782,782,782,782,782,782,782,782,782,782,782,782,782,783,784,785,791,799,810,819,832,869,895,912,934,955,1013,1043,1067],"ymouse":[653,653,653,653,653,653,653,653,653,653,653,653,653,653,653,653,653,653,653,653,653,653,653,653,653,653,651,646,635,594,565,527,489,450,366,305,267,228,195,130,104,82],"timestamp_mouse":[10,36,49,70,90,110,130,151,169,191,210,230,249,271,291,310,330,349,369,390,409,430,450,470,490,510,529,549,570,589,611,629,650,671,690,709,730,751,770,789,809,830],"xSR":741.5,"ySR":573.95,"xT1":424.9,"yT1":0,"xT2":1058.1,"yT2":0,"toosoon":0,"cond_shown":"equaldotsize","ratio_trial":750,"smaller_num":"9","larger_num":"12","correct_side":2,"subjID":"samuelbarreto23","gender":"0","age":"11","school":"6"},{"start_time":1551881955470,"click_time":1551881957138,"finger_time":1551881956558,"fix_duration":250.70266733711256,"trial":43,"RT":1088,"MT":580,"sideResp":1,"stimulus":"img/500/equaldotsize/L/10_Ratio_500_L_4_R_2.png","xmouse":[802,802,802,802,802,802,802,802,802,802,802,802,802,802,802,802,802,802,802,802,802,802,802,802,802,802,802,802,802,802,802,802,802,802,802,802,802,802,802,802,802,802,802,802,802,802,802,802,802,802,802,800,795,780,769,748,728,708,649,617,579,545,521,490,479,474,466,461,455,455,455,455,455,459,464,467,468,468,468,468,468,468,468,468],"ymouse":[643,643,643,643,643,643,643,643,643,643,643,643,643,643,643,643,643,643,643,643,643,643,643,643,643,643,643,643,643,643,643,643,643,643,643,643,643,643,643,643,643,643,643,643,643,643,643,643,643,643,643,638,629,584,541,475,402,324,141,70,4,0,0,0,0,0,0,0,0,0,0,0,0,0,0,0,0,0,0,0,0,0,0,4],"timestamp_mouse":[10,42,49,67,89,107,129,148,168,188,207,228,248,268,287,308,328,348,367,388,409,428,447,468,488,507,529,548,569,587,607,629,649,668,688,707,728,748,769,789,807,829,849,867,888,909,927,949,968,987,1009,1027,1047,1067,1088,1108,1129,1148,1167,1187,1208,1227,1247,1268,1287,1307,1329,1348,1367,1388,1409,1428,1449,1468,1487,1507,1527,1547,1567,1587,1607,1629,1648,1668],"xSR":741.5,"ySR":573.95,"xT1":424.9,"yT1":0,"xT2":1058.1,"yT2":0,"toosoon":0,"cond_shown":"equaldotsize","ratio_trial":500,"smaller_num":"2","larger_num":"4","correct_side":1,"subjID":"samuelbarreto23","gender":"0","age":"11","school":"6"},{"start_time":1551881959293,"click_time":1551881960038,"finger_time":1551881959777,"fix_duration":934.7200414224193,"trial":44,"RT":484,"MT":261,"sideResp":2,"stimulus":"img/750/equaldotanddens/R/2_Ratio_750_L_6_R_8.png","xmouse":[786,786,786,786,786,786,786,786,786,786,786,786,786,786,786,786,786,786,786,786,786,786,786,789,797,815,836,891,911,925,945,960,987,1004,1018,1031,1043,1070],"ymouse":[607,607,607,607,607,607,607,607,607,607,607,607,607,607,607,607,607,607,607,607,607,607,607,595,567,527,483,369,326,291,247,210,145,116,90,68,48,15],"timestamp_mouse":[10,25,45,65,85,104,126,146,164,184,205,225,244,264,285,304,324,346,365,386,406,424,445,464,484,506,524,544,565,585,604,624,645,664,684,705,725,745],"xSR":741.5,"ySR":573.95,"xT1":424.9,"yT1":0,"xT2":1058.1,"yT2":0,"toosoon":0,"cond_shown":"equaldotanddens","ratio_trial":750,"smaller_num":"6","larger_num":"8","correct_side":2,"subjID":"samuelbarreto23","gender":"0","age":"11","school":"6"},{"start_time":1551881961626,"click_time":1551881962678,"finger_time":1551881962318,"fix_duration":646.1248139659938,"trial":45,"RT":692,"MT":360,"sideResp":2,"stimulus":"img/900/equaldotsize/L/10_Ratio_900_L_20_R_18.png","xmouse":[826,826,826,826,826,826,826,826,826,826,826,826,826,826,826,826,826,826,826,826,826,826,826,826,826,826,826,826,826,826,826,826,826,832,839,869,890,909,934,952,994,1009,1023,1034,1046,1066,1077,1085,1091,1098,1108,1114,1115],"ymouse":[588,588,588,588,588,588,588,588,588,588,588,588,588,588,588,588,588,588,588,588,588,588,588,588,588,588,588,588,588,588,588,588,587,576,565,525,494,460,420,390,319,295,271,251,230,193,175,158,144,132,114,103,98],"timestamp_mouse":[12,51,51,73,92,113,131,152,172,193,212,233,253,271,292,312,331,352,373,392,412,432,452,472,491,513,532,552,572,591,611,633,651,671,692,712,732,751,771,792,811,833,852,871,891,911,932,951,972,993,1012,1033,1052],"xSR":741.5,"ySR":573.95,"xT1":424.9,"yT1":0,"xT2":1058.1,"yT2":0,"toosoon":0,"cond_shown":"equaldotsize","ratio_trial":900,"smaller_num":"18","larger_num":"20","correct_side":1,"subjID":"samuelbarreto23","gender":"0","age":"11","school":"6"},{"start_time":1551881964619,"click_time":1551881965598,"finger_time":1551881965217,"fix_duration":921.4973015688605,"trial":46,"RT":598,"MT":381,"sideResp":1,"stimulus":"img/750/equaldotanddens/L/6_Ratio_750_L_24_R_18.png","xmouse":[766,766,766,766,766,766,766,766,766,766,766,766,766,766,766,766,766,766,766,766,766,766,766,766,766,766,766,766,766,765,752,730,712,689,661,605,579,558,537,517,462,445,431,427,426,426,426,426,426],"ymouse":[589,589,589,589,589,589,589,589,589,589,589,589,589,589,589,589,589,589,589,589,589,589,589,589,589,589,589,587,581,562,502,421,363,297,233,106,51,0,0,0,0,0,0,0,0,0,0,0,4],"timestamp_mouse":[19,39,59,78,98,119,139,160,178,198,220,238,260,279,299,320,339,359,379,399,419,438,459,478,500,518,540,559,578,598,619,639,659,680,698,718,738,760,779,799,819,839,859,879,898,919,938,959,979],"xSR":741.5,"ySR":573.95,"xT1":424.9,"yT1":0,"xT2":1058.1,"yT2":0,"toosoon":0,"cond_shown":"equaldotanddens","ratio_trial":750,"smaller_num":"18","larger_num":"24","correct_side":1,"subjID":"samuelbarreto23","gender":"0","age":"11","school":"6"},{"start_time":1551881967499,"click_time":1551881968718,"finger_time":1551881968219,"fix_duration":738.5717423535831,"trial":47,"RT":720,"MT":499,"sideResp":1,"stimulus":"img/750/randomdotsizeEA/L/10_Ratio_750_L_4_R_3.png","xmouse":[784,784,784,784,784,784,784,784,784,784,784,784,784,784,784,784,784,784,784,784,784,784,784,784,784,784,784,784,784,784,784,784,784,784,784,783,775,754,749,741,732,721,694,679,657,637,612,583,508,479,455,438,432,432,432,432,432,432,432,437,444,456],"ymouse":[596,596,596,596,596,596,596,596,596,596,596,596,596,596,596,596,596,596,596,596,596,596,596,596,596,596,596,596,596,596,596,596,596,596,591,586,571,517,493,465,430,392,307,257,211,162,115,74,0,0,0,0,0,0,0,0,0,0,0,0,0,1],"timestamp_mouse":[1,19,45,59,78,98,120,139,159,178,199,219,238,258,278,298,319,339,359,379,399,418,439,458,479,500,518,538,559,578,600,618,638,658,678,700,720,739,759,778,799,818,838,860,879,900,918,938,958,979,999,1018,1038,1059,1079,1099,1119,1140,1159,1180,1199,1219],"xSR":741.5,"ySR":573.95,"xT1":424.9,"yT1":0,"xT2":1058.1,"yT2":0,"toosoon":0,"cond_shown":"randomdotsizeEA","ratio_trial":750,"smaller_num":"3","larger_num":"4","correct_side":1,"subjID":"samuelbarreto23","gender":"0","age":"11","school":"6"},{"start_time":1551881970896,"click_time":1551881971838,"finger_time":1551881971477,"fix_duration":976.8596780478191,"trial":48,"RT":581,"MT":361,"sideResp":1,"stimulus":"img/500/equaldotanddens/L/10_Ratio_500_L_4_R_2.png","xmouse":[804,804,804,804,804,804,804,804,804,804,804,804,804,804,804,804,804,804,804,804,804,804,804,804,804,804,801,785,772,760,749,734,696,675,656,636,621,600,587,580,579,579,579,579,576,572,567,516],"ymouse":[619,619,619,619,619,619,619,619,619,619,619,619,619,619,619,619,619,619,619,619,619,619,619,619,619,619,617,593,574,553,534,508,442,405,370,334,299,232,186,162,149,137,119,112,103,95,87,63],"timestamp_mouse":[10,23,43,62,81,103,123,143,162,182,202,221,241,261,283,302,323,342,363,383,401,422,443,462,482,501,522,542,561,581,602,622,642,663,681,703,721,742,763,782,802,822,841,862,882,902,923,942],"xSR":741.5,"ySR":573.95,"xT1":424.9,"yT1":0,"xT2":1058.1,"yT2":0,"toosoon":0,"cond_shown":"equaldotanddens","ratio_trial":500,"smaller_num":"2","larger_num":"4","correct_side":1,"subjID":"samuelbarreto23","gender":"0","age":"11","school":"6"},{"start_time":1551881973575,"click_time":1551881974618,"finger_time":1551881974197,"fix_duration":636.578268458797,"trial":49,"RT":622,"MT":421,"sideResp":2,"stimulus":"img/750/randomdotsizeEA/R/12_Ratio_750_L_3_R_4.png","xmouse":[798,798,798,798,798,798,798,798,798,798,798,798,798,798,798,798,798,798,798,798,798,798,798,798,798,798,798,798,798,802,804,811,833,855,872,886,903,936,953,966,979,989,1007,1019,1025,1030,1035,1040,1045,1051,1056,1060],"ymouse":[596,596,596,596,596,596,596,596,596,596,596,596,596,596,596,596,596,596,596,596,596,596,596,596,596,596,596,596,596,583,573,544,486,443,411,381,348,292,266,243,221,201,173,156,148,139,129,105,94,85,77,70],"timestamp_mouse":[10,46,62,82,102,123,144,163,184,203,223,242,264,282,302,324,342,363,383,404,422,443,462,484,502,522,542,563,584,602,622,643,662,684,703,723,744,762,783,802,822,842,862,884,903,924,944,963,984,1002,1022,1043],"xSR":741.5,"ySR":573.95,"xT1":424.9,"yT1":0,"xT2":1058.1,"yT2":0,"toosoon":0,"cond_shown":"randomdotsizeEA","ratio_trial":750,"smaller_num":"3","larger_num":"4","correct_side":2,"subjID":"samuelbarreto23","gender":"0","age":"11","school":"6"},{"start_time":1551881976790,"click_time":1551881977557,"finger_time":1551881977357,"fix_duration":1231.0443688467396,"trial":50,"RT":567,"MT":200,"sideResp":2,"stimulus":"img/900/equaldotsize/L/4_Ratio_900_L_20_R_18.png","xmouse":[772,772,772,772,772,772,772,772,772,772,772,772,772,772,772,772,772,772,772,772,772,772,772,772,772,775,777,795,817,842,871,900,953,989,1009,1029,1044,1067,1076],"ymouse":[633,633,633,633,633,633,633,633,633,633,633,633,633,633,633,633,633,633,633,633,633,633,633,633,633,627,621,581,541,496,436,386,279,215,183,155,133,101,90],"timestamp_mouse":[9,37,47,68,87,109,127,149,167,187,209,228,248,268,288,308,328,349,369,387,408,429,447,469,488,508,527,547,567,588,609,627,647,668,687,708,727,749,767],"xSR":741.5,"ySR":573.95,"xT1":424.9,"yT1":0,"xT2":1058.1,"yT2":0,"toosoon":0,"cond_shown":"equaldotsize","ratio_trial":900,"smaller_num":"18","larger_num":"20","correct_side":1,"subjID":"samuelbarreto23","gender":"0","age":"11","school":"6"},{"start_time":1551881979427,"click_time":1551881980759,"finger_time":1551881980358,"fix_duration":987.7231276033252,"trial":51,"RT":931,"MT":401,"sideResp":1,"stimulus":"img/900/randomdotsizeEA/L/2_Ratio_900_L_20_R_18.png","xmouse":[766,766,766,766,766,766,766,766,766,766,766,766,766,766,766,766,766,766,766,766,766,766,766,766,766,766,766,766,766,766,766,766,766,766,766,766,766,766,766,766,766,766,766,767,770,771,772,774,776,769,731,696,657,627,594,577,561,545,536,529,529,529,529,529,526,522],"ymouse":[627,627,627,627,627,627,627,627,627,627,627,627,627,627,627,627,627,627,627,627,627,627,627,627,627,627,627,627,627,627,627,627,627,627,627,627,627,627,627,627,627,627,627,614,582,562,544,524,503,424,312,253,214,188,154,129,107,84,72,62,61,61,61,61,57,53],"timestamp_mouse":[10,53,70,91,111,132,152,171,191,210,230,251,271,290,312,331,350,371,391,411,432,450,472,490,511,532,550,572,591,611,632,650,670,692,710,730,752,770,791,812,831,852,870,890,911,931,951,972,992,1011,1031,1050,1071,1090,1110,1130,1150,1172,1191,1210,1231,1250,1272,1292,1312,1332],"xSR":741.5,"ySR":573.95,"xT1":424.9,"yT1":0,"xT2":1058.1,"yT2":0,"toosoon":0,"cond_shown":"randomdotsizeEA","ratio_trial":900,"smaller_num":"18","larger_num":"20","correct_side":1,"subjID":"samuelbarreto23","gender":"0","age":"11","school":"6"},{"start_time":1551881982327,"click_time":1551881983157,"finger_time":1551881982817,"fix_duration":508.77162933399046,"trial":52,"RT":490,"MT":340,"sideResp":2,"stimulus":"img/250/randomdotsizeEA/R/6_Ratio_250_L_6_R_24.png","xmouse":[832,832,832,832,830,826,823,818,816,815,815,815,815,815,815,815,815,815,815,815,814,818,827,838,855,901,943,970,994,1015,1053,1068,1084,1098,1111,1134,1146,1151,1154,1156,1156,1156],"ymouse":[648,648,648,648,648,648,648,648,648,648,648,648,648,648,648,648,648,648,648,648,646,626,606,582,553,480,415,367,325,290,235,218,201,191,181,165,153,146,138,129,105,92],"timestamp_mouse":[11,40,52,72,91,110,131,152,170,191,211,231,251,271,291,311,332,351,371,392,411,431,451,470,490,511,532,551,572,592,611,630,650,671,692,711,731,750,771,790,810,830],"xSR":741.5,"ySR":573.95,"xT1":424.9,"yT1":0,"xT2":1058.1,"yT2":0,"toosoon":0,"cond_shown":"randomdotsizeEA","ratio_trial":250,"smaller_num":"6","larger_num":"24","correct_side":2,"subjID":"samuelbarreto23","gender":"0","age":"11","school":"6"},{"start_time":1551881985749,"click_time":1551881986659,"finger_time":1551881986279,"fix_duration":250,"trial":53,"RT":530,"MT":380,"sideResp":1,"stimulus":"img/250/equaldotsize/L/5_Ratio_250_L_24_R_6.png","xmouse":[806,806,806,806,806,806,806,806,806,806,806,806,806,806,806,806,806,806,806,806,806,806,807,809,809,809,806,801,786,778,763,751,735,707,693,670,652,637,616,611,606,595,581,547,509],"ymouse":[644,644,644,644,644,644,644,644,644,644,644,644,644,644,644,644,644,644,644,644,644,643,638,608,588,561,522,483,384,335,285,242,207,153,134,111,99,90,80,77,76,75,73,69,62],"timestamp_mouse":[8,49,69,89,110,128,148,168,190,208,228,248,269,290,308,329,349,369,388,410,430,451,471,490,510,530,550,569,591,611,630,650,670,690,709,730,750,770,790,809,830,850,870,890,910],"xSR":741.5,"ySR":573.95,"xT1":424.9,"yT1":0,"xT2":1058.1,"yT2":0,"toosoon":0,"cond_shown":"equaldotsize","ratio_trial":250,"smaller_num":"6","larger_num":"24","correct_side":1,"subjID":"samuelbarreto23","gender":"0","age":"11","school":"6"},{"start_time":1551881988743,"click_time":1551881989659,"finger_time":1551881989280,"fix_duration":1402.2761052174512,"trial":54,"RT":537,"MT":379,"sideResp":2,"stimulus":"img/250/equaldotanddens/R/12_Ratio_250_L_5_R_20.png","xmouse":[824,824,824,824,824,824,824,824,824,824,824,824,824,824,824,824,824,824,824,824,824,824,824,824,828,834,842,852,863,894,912,927,945,959,985,998,1005,1009,1014,1024,1031,1038,1047,1061,1082,1091],"ymouse":[623,623,623,623,623,623,623,623,623,623,623,623,623,623,623,623,623,623,623,623,623,623,623,623,614,591,563,528,492,412,372,334,291,259,201,174,160,150,141,128,123,119,116,111,102,96],"timestamp_mouse":[19,40,56,76,96,116,136,157,176,196,217,235,256,277,296,317,336,356,376,396,417,435,456,476,496,516,537,557,577,596,616,636,656,677,697,716,735,757,777,796,817,836,856,876,896,916],"xSR":741.5,"ySR":573.95,"xT1":424.9,"yT1":0,"xT2":1058.1,"yT2":0,"toosoon":0,"cond_shown":"equaldotanddens","ratio_trial":250,"smaller_num":"5","larger_num":"20","correct_side":2,"subjID":"samuelbarreto23","gender":"0","age":"11","school":"6"},{"start_time":1551881990811,"click_time":1551881992039,"finger_time":1551881991359,"fix_duration":271.93072095945934,"trial":55,"RT":548,"MT":680,"sideResp":2,"stimulus":"img/250/equaldotanddens/R/13_Ratio_250_L_2_R_8.png","xmouse":[775,775,775,775,775,775,775,775,775,775,775,775,775,775,775,775,775,775,775,775,775,775,775,775,779,789,799,808,821,831,856,877,893,911,925,947,954,960,966,974,978,986,990,998,1009,1029,1040,1053,1063,1071,1089,1099,1103,1106,1109,1115,1117,1118,1120,1120,1123],"ymouse":[614,614,614,614,614,614,614,614,614,614,614,614,614,614,614,614,614,614,614,614,614,614,614,614,608,590,572,553,530,506,446,399,366,337,311,273,257,245,233,219,213,205,200,196,190,176,169,162,157,153,143,137,132,127,123,112,108,106,103,100,95],"timestamp_mouse":[9,54,69,88,109,128,149,168,189,208,228,249,269,288,308,328,348,369,388,408,428,448,468,488,509,528,548,569,588,608,628,649,669,688,708,729,749,768,789,809,827,847,867,888,908,928,948,968,987,1008,1028,1048,1068,1087,1108,1127,1148,1168,1188,1208,1228],"xSR":741.5,"ySR":573.95,"xT1":424.9,"yT1":0,"xT2":1058.1,"yT2":0,"toosoon":0,"cond_shown":"equaldotanddens","ratio_trial":250,"smaller_num":"2","larger_num":"8","correct_side":2,"subjID":"samuelbarreto23","gender":"0","age":"11","school":"6"},{"start_time":1551881993381,"click_time":1551881994060,"finger_time":1551881993799,"fix_duration":559.4858440634314,"trial":56,"RT":418,"MT":261,"sideResp":2,"stimulus":"img/250/equaldotanddens/R/6_Ratio_250_L_6_R_24.png","xmouse":[828,828,828,828,828,828,828,828,828,828,828,828,828,828,828,828,828,827,831,835,846,862,892,910,923,934,949,974,985,995,1006,1020,1045,1059],"ymouse":[653,653,653,653,653,653,653,653,653,653,653,653,653,653,653,653,653,653,640,632,608,576,499,433,390,351,314,257,230,207,182,159,105,84],"timestamp_mouse":[37,38,59,78,98,118,138,159,179,199,218,239,258,278,298,318,338,357,378,398,418,438,458,479,499,517,538,559,578,598,619,637,657,679],"xSR":741.5,"ySR":573.95,"xT1":424.9,"yT1":0,"xT2":1058.1,"yT2":0,"toosoon":0,"cond_shown":"equaldotanddens","ratio_trial":250,"smaller_num":"6","larger_num":"24","correct_side":2,"subjID":"samuelbarreto23","gender":"0","age":"11","school":"6"},{"start_time":1551881997898,"click_time":1551881998659,"finger_time":1551881998439,"fix_duration":1336.6952554408024,"trial":57,"RT":541,"MT":220,"sideResp":1,"stimulus":"img/750/equaldotsize/L/6_Ratio_750_L_24_R_18.png","xmouse":[795,795,795,795,795,795,795,795,795,795,795,795,795,795,795,795,795,795,795,795,795,795,795,795,795,792,788,777,763,750,734,722,694,674,649,613,580,532,523],"ymouse":[616,616,616,616,616,616,616,616,616,616,616,616,616,616,616,616,616,616,616,616,616,616,615,610,602,592,577,540,507,482,453,428,369,323,264,200,139,47,26],"timestamp_mouse":[9,21,59,61,81,100,122,141,162,181,201,221,242,261,281,301,321,340,362,381,401,421,441,461,482,502,520,541,562,581,601,621,641,661,681,701,721,741,761],"xSR":741.5,"ySR":573.95,"xT1":424.9,"yT1":0,"xT2":1058.1,"yT2":0,"toosoon":0,"cond_shown":"equaldotsize","ratio_trial":750,"smaller_num":"18","larger_num":"24","correct_side":1,"subjID":"samuelbarreto23","gender":"0","age":"11","school":"6"},{"start_time":1551881999731,"click_time":1551882000960,"finger_time":1551882000419,"fix_duration":250,"trial":58,"RT":688,"MT":541,"sideResp":1,"stimulus":"img/500/equaldotsize/L/5_Ratio_500_L_4_R_2.png","xmouse":[786,786,786,786,786,786,786,786,786,786,786,786,786,786,786,786,786,786,786,786,786,786,786,786,786,786,786,786,786,786,786,779,772,761,750,726,715,701,691,677,653,640,628,618,608,589,568,557,549,545,526,510,494,482,473,466,465,464,462,457,439,429],"ymouse":[626,626,626,626,626,626,626,626,626,626,626,626,626,626,626,626,626,626,626,626,626,626,626,626,626,626,626,626,626,626,621,607,595,577,561,517,497,472,449,418,361,337,317,300,288,269,258,252,247,242,224,211,198,188,179,167,159,151,143,132,105,92],"timestamp_mouse":[9,37,48,69,89,108,129,149,168,189,209,227,249,268,289,308,329,348,368,388,409,428,448,468,489,509,528,548,568,588,608,629,648,667,688,708,728,748,768,789,808,829,848,868,889,909,929,948,969,988,1008,1028,1048,1068,1088,1108,1129,1148,1167,1189,1208,1229],"xSR":741.5,"ySR":573.95,"xT1":424.9,"yT1":0,"xT2":1058.1,"yT2":0,"toosoon":0,"cond_shown":"equaldotsize","ratio_trial":500,"smaller_num":"2","larger_num":"4","correct_side":1,"subjID":"samuelbarreto23","gender":"0","age":"11","school":"6"},{"start_time":1551882004289,"click_time":1551882005099,"finger_time":1551882004839,"fix_duration":729.8743593447579,"trial":59,"RT":550,"MT":260,"sideResp":1,"stimulus":"img/500/equaldotanddens/L/4_Ratio_500_L_18_R_9.png","xmouse":[819,819,819,819,819,819,819,819,819,819,819,819,819,819,819,819,819,819,819,819,819,819,819,819,817,815,802,790,776,760,743,694,666,641,620,599,564,543,529,515],"ymouse":[616,616,616,616,616,616,616,616,616,616,616,616,616,616,616,616,616,616,616,616,616,616,616,616,611,606,562,533,500,463,420,323,273,228,191,157,108,89,78,69],"timestamp_mouse":[10,55,70,90,109,131,149,171,190,211,229,250,271,290,310,330,350,371,389,411,431,451,470,490,510,530,550,570,590,610,631,650,669,690,710,730,750,770,790,810],"xSR":741.5,"ySR":573.95,"xT1":424.9,"yT1":0,"xT2":1058.1,"yT2":0,"toosoon":0,"cond_shown":"equaldotanddens","ratio_trial":500,"smaller_num":"9","larger_num":"18","correct_side":1,"subjID":"samuelbarreto23","gender":"0","age":"11","school":"6"},{"start_time":1551882005991,"click_time":1551882007099,"finger_time":1551882006659,"fix_duration":250,"trial":60,"RT":668,"MT":440,"sideResp":2,"stimulus":"img/900/equaldotanddens/L/10_Ratio_900_L_20_R_18.png","xmouse":[820,820,820,820,820,820,820,820,820,820,820,820,820,820,820,820,820,820,820,820,820,820,820,820,820,820,820,821,822,822,823,825,831,833,840,846,854,869,877,885,893,901,916,928,933,940,947,968,980,998,1014,1030,1070,1079,1089,1098],"ymouse":[649,649,649,649,649,649,649,649,649,649,649,649,649,649,649,649,649,649,649,649,649,649,649,649,649,649,649,647,643,637,629,618,578,558,536,512,485,433,407,378,352,325,282,261,252,239,228,199,188,174,159,144,115,108,101,95],"timestamp_mouse":[8,28,48,68,87,108,129,149,168,188,207,229,249,267,289,309,329,348,369,389,409,428,449,469,489,509,528,548,568,589,609,629,648,668,687,708,729,748,769,789,808,828,847,868,888,908,929,948,967,988,1008,1028,1048,1069,1088,1108],"xSR":741.5,"ySR":573.95,"xT1":424.9,"yT1":0,"xT2":1058.1,"yT2":0,"toosoon":0,"cond_shown":"equaldotanddens","ratio_trial":900,"smaller_num":"18","larger_num":"20","correct_side":1,"subjID":"samuelbarreto23","gender":"0","age":"11","school":"6"},{"start_time":1551882009479,"click_time":1551882010279,"finger_time":1551882010099,"fix_duration":1098.0451900921475,"trial":61,"RT":620,"MT":180,"sideResp":2,"stimulus":"img/250/randomdotsizeEA/R/8_Ratio_250_L_1_R_4.png","xmouse":[785,785,785,785,785,785,785,785,785,785,785,785,785,785,785,785,785,785,785,785,785,785,785,785,785,785,786,786,792,797,801,809,821,851,872,901,931,963,1020,1055,1076],"ymouse":[638,638,638,638,638,638,638,638,638,638,638,638,638,638,638,638,638,638,638,638,638,638,638,638,638,638,635,633,614,601,587,566,541,468,424,374,321,265,166,98,61],"timestamp_mouse":[4,22,58,60,80,101,120,140,160,181,200,221,240,260,281,300,320,340,360,379,401,420,441,460,480,500,521,540,560,580,601,620,641,659,680,700,720,741,759,779,800],"xSR":741.5,"ySR":573.95,"xT1":424.9,"yT1":0,"xT2":1058.1,"yT2":0,"toosoon":0,"cond_shown":"randomdotsizeEA","ratio_trial":250,"smaller_num":"1","larger_num":"4","correct_side":2,"subjID":"samuelbarreto23","gender":"0","age":"11","school":"6"},{"start_time":1551882011660,"click_time":1551882012739,"finger_time":1551882012318,"fix_duration":278.24370544529955,"trial":62,"RT":658,"MT":421,"sideResp":2,"stimulus":"img/750/equaldotanddens/R/7_Ratio_750_L_3_R_4.png","xmouse":[792,792,792,792,792,792,792,792,792,792,792,792,792,792,792,792,792,792,792,792,792,792,792,792,792,792,792,792,792,793,796,800,808,819,852,871,886,901,915,943,954,963,973,980,989,991,994,996,1000,1015,1024,1034,1046,1054,1072],"ymouse":[652,652,652,652,652,652,652,652,652,652,652,652,652,652,652,652,652,652,652,652,652,652,652,652,652,652,652,652,650,641,630,615,593,565,487,439,392,345,299,207,180,158,140,125,111,107,104,103,100,92,88,84,78,75,66],"timestamp_mouse":[1,19,42,60,79,99,118,140,158,179,199,218,239,258,280,300,318,339,359,379,399,419,439,459,479,499,519,539,560,579,599,619,640,658,679,700,719,739,759,778,799,819,839,859,878,899,918,939,959,979,999,1019,1039,1060,1079],"xSR":741.5,"ySR":573.95,"xT1":424.9,"yT1":0,"xT2":1058.1,"yT2":0,"toosoon":0,"cond_shown":"equaldotanddens","ratio_trial":750,"smaller_num":"3","larger_num":"4","correct_side":2,"subjID":"samuelbarreto23","gender":"0","age":"11","school":"6"},{"start_time":1551882014562,"click_time":1551882015479,"finger_time":1551882015220,"fix_duration":940.3542646197151,"trial":63,"RT":658,"MT":259,"sideResp":1,"stimulus":"img/900/equaldotanddens/L/10_Ratio_900_L_20_R_18.png","xmouse":[779,779,779,779,779,779,779,779,779,779,779,779,779,779,779,779,779,779,779,779,779,779,779,779,779,779,779,779,779,779,775,768,760,732,715,694,664,631,580,562,550,543,539,530,525,524],"ymouse":[623,623,623,623,623,623,623,623,623,623,623,623,623,623,623,623,623,623,623,623,623,623,623,623,623,623,623,623,623,616,599,579,551,459,411,367,314,265,191,166,147,132,121,98,87,83],"timestamp_mouse":[21,37,57,78,97,116,138,158,177,197,218,237,257,278,297,317,337,358,377,397,417,437,458,477,498,517,537,557,578,597,617,638,658,677,697,717,738,757,777,797,817,838,858,877,897,917],"xSR":741.5,"ySR":573.95,"xT1":424.9,"yT1":0,"xT2":1058.1,"yT2":0,"toosoon":0,"cond_shown":"equaldotanddens","ratio_trial":900,"smaller_num":"18","larger_num":"20","correct_side":1,"subjID":"samuelbarreto23","gender":"0","age":"11","school":"6"},{"start_time":1551882016785,"click_time":1551882018040,"finger_time":1551882017380,"fix_duration":343.81390386933396,"trial":64,"RT":595,"MT":660,"sideResp":1,"stimulus":"img/250/equaldotsize/L/5_Ratio_250_L_24_R_6.png","xmouse":[793,793,793,793,793,793,793,793,793,793,793,793,793,793,793,793,793,793,793,793,793,793,793,793,792,791,790,785,783,778,773,767,752,745,736,728,718,701,691,677,665,655,634,618,603,589,578,557,543,528,515,505,500,500,500,500,500,500,500,500,500,500,499],"ymouse":[653,653,653,653,653,653,653,653,653,653,653,653,653,653,653,653,653,653,653,653,653,653,653,653,649,643,634,606,590,572,554,534,484,460,438,415,392,348,328,308,291,274,240,216,198,183,170,147,135,124,115,108,102,101,101,101,101,101,101,101,101,101,98],"timestamp_mouse":[14,46,55,73,94,115,134,155,173,195,215,235,254,274,294,314,334,354,374,393,414,434,453,474,494,514,534,553,574,595,615,633,653,675,694,714,734,754,774,794,814,834,854,874,895,915,935,953,975,994,1014,1035,1054,1074,1095,1113,1134,1155,1174,1194,1215,1234,1254],"xSR":741.5,"ySR":573.95,"xT1":424.9,"yT1":0,"xT2":1058.1,"yT2":0,"toosoon":0,"cond_shown":"equaldotsize","ratio_trial":250,"smaller_num":"6","larger_num":"24","correct_side":1,"subjID":"samuelbarreto23","gender":"0","age":"11","school":"6"},{"start_time":1551882020229,"click_time":1551882021220,"finger_time":1551882020838,"fix_duration":1347.4002772564609,"trial":65,"RT":609,"MT":382,"sideResp":2,"stimulus":"img/750/randomdotsizeEA/L/10_Ratio_750_L_4_R_3.png","xmouse":[818,818,818,818,818,818,818,818,818,818,818,818,818,818,818,818,818,818,818,818,818,818,818,818,818,818,818,821,829,836,850,859,869,881,891,916,930,942,953,965,992,1003,1014,1024,1032,1051,1059,1068,1077,1087],"ymouse":[635,635,635,635,635,635,635,635,635,635,635,635,635,635,635,635,635,635,635,635,635,635,635,635,635,635,627,617,599,577,522,468,432,391,358,302,279,261,243,229,198,184,172,161,151,132,123,112,101,91],"timestamp_mouse":[14,34,51,70,90,109,130,149,170,189,210,231,250,270,290,311,329,350,370,390,410,430,450,471,490,509,531,549,570,590,609,631,650,671,690,710,730,750,770,791,810,831,850,870,890,910,929,950,971,991],"xSR":741.5,"ySR":573.95,"xT1":424.9,"yT1":0,"xT2":1058.1,"yT2":0,"toosoon":0,"cond_shown":"randomdotsizeEA","ratio_trial":750,"smaller_num":"3","larger_num":"4","correct_side":1,"subjID":"samuelbarreto23","gender":"0","age":"11","school":"6"},{"start_time":1551882022591,"click_time":1551882023420,"finger_time":1551882023139,"fix_duration":450.99280655786833,"trial":66,"RT":548,"MT":281,"sideResp":2,