[{"start_time":1551881183106,"click_time":1551881184093,"finger_time":1551881183951,"fix_duration":250,"trial":0,"RT":845,"MT":142,"sideResp":1,"stimulus":"img/250/equaldotanddens/L/2_Ratio_250_L_16_R_4.png","xmouse":[803,803,803,803,803,803,803,803,803,803,803,803,803,803,803,803,803,803,803,803,803,803,803,803,803,803,803,803,803,803,803,803,803,803,803,803,803,803,802,798,793,784,772,733,709,675,640,612,533,503],"ymouse":[507,507,507,507,507,507,507,507,507,507,507,507,507,507,507,507,507,507,507,507,507,507,507,507,507,507,507,507,507,507,507,507,507,507,507,507,507,507,507,497,478,456,427,350,307,260,211,172,79,54],"timestamp_mouse":[9,44,45,66,86,105,126,147,166,185,205,225,246,266,285,305,325,347,365,385,406,425,445,465,486,506,525,546,566,586,607,626,646,666,685,706,726,746,765,786,806,826,845,865,885,905,926,946,965,986],"xSR":741.5,"ySR":481,"xT1":424.9,"yT1":0,"xT2":1058.1,"yT2":0,"toosoon":0,"cond_shown":"equaldotanddens","ratio_trial":250,"smaller_num":"4","larger_num":"16","correct_side":1,"subjID":"SamuelBarretoBarrera23","gender":"0","age":"11","school":"6","test":{"fix_dur":[250,1500],"timestim":300,"targets_dim":[100,100],"targets_relative_coord":[0.3,0.7],"size_stim":[880,420],"start_dim":[100,100],"size_start":[300,300],"size_fix":60,"samplingrate":20,"img_types":["equaldotsize","equaldotanddens","randomdotsizeEA"],"ratios":[250,500,750,900],"rep_conds":9,"nTrials":120,"trials_to_rest":500,"Trials_order":[49,38,81,92,46,39,19,51,70,105,42,87,21,110,26,18,13,43,75,11,40,118,50,58,66,28,54,30,84,71,31,100,77,16,37,67,53,65,33,56,35,104,113,64,48,4,86,109,106,88,45,60,73,98,6,10,63,5,8,93,85,55,112,96,79,74,47,102,27,36,68,2,107,97,89,111,119,41,62,95,17,15,23,7,29,32,82,52,99,44,25,114,117,34,3,90,91,14,101,12,20,76,69,80,116,22,1,0,83,103,9,61,115,78,24,57,94,72,108,59],"cond_shown":["equaldotanddens","randomdotsizeEA","equaldotsize","randomdotsizeEA","equaldotanddens","equaldotsize","equaldotanddens","equaldotsize","equaldotanddens","equaldotsize","equaldotsize","equaldotsize","equaldotsize","randomdotsizeEA","randomdotsizeEA","equaldotsize","equaldotanddens","equaldotanddens","equaldotsize","randomdotsizeEA","equaldotanddens","equaldotanddens","randomdotsizeEA","equaldotanddens","equaldotsize","equaldotanddens","equaldotsize","equaldotsize","equaldotsize","randomdotsizeEA","equaldotanddens","equaldotanddens","randomdotsizeEA","equaldotanddens","equaldotanddens","equaldotanddens","randomdotsizeEA","randomdotsizeEA","equaldotsize","randomdotsizeEA","randomdotsizeEA","randomdotsizeEA","randomdotsizeEA","equaldotanddens","equaldotsize","equaldotanddens","randomdotsizeEA","equaldotanddens","equaldotanddens","equaldotanddens","equaldotsize","equaldotsize","equaldotanddens","randomdotsizeEA","equaldotsize","equaldotanddens","equaldotsize","randomdotsizeEA","randomdotsizeEA","equaldotsize","equaldotanddens","equaldotanddens","equaldotanddens","equaldotsize","equaldotanddens","randomdotsizeEA","randomdotsizeEA","equaldotsize","equaldotsize","equaldotsize","randomdotsizeEA","randomdotsizeEA","randomdotsizeEA","equaldotanddens","randomdotsizeEA","equaldotsize","randomdotsizeEA","randomdotsizeEA","randomdotsizeEA","randomdotsizeEA","randomdotsizeEA","equaldotsize","randomdotsizeEA","equaldotanddens","randomdotsizeEA","randomdotsizeEA","equaldotanddens","equaldotanddens","equaldotsize","randomdotsizeEA","equaldotanddens","equaldotsize","equaldotsize","equaldotanddens","equaldotsize","equaldotsize","equaldotanddens","randomdotsizeEA","randomdotsizeEA","equaldotsize","randomdotsizeEA","equaldotanddens","equaldotsize","randomdotsizeEA","randomdotsizeEA","equaldotanddens","equaldotanddens","equaldotsize","randomdotsizeEA","equaldotanddens","equaldotsize","equaldotanddens","equaldotanddens","equaldotsize","equaldotsize","equaldotsize","equaldotanddens","equaldotsize","equaldotsize","randomdotsizeEA"],"ratio_trial":[250,250,900,750,900,500,750,500,900,900,750,500,900,250,250,750,250,750,500,900,500,900,250,900,750,500,750,750,250,900,750,500,500,500,250,750,500,500,900,750,900,750,500,500,250,500,250,250,900,500,900,250,250,250,750,900,500,500,750,900,250,750,500,250,750,250,900,750,500,250,750,250,900,250,500,500,900,500,250,900,500,500,900,750,500,750,900,500,500,750,250,750,900,900,500,750,750,250,500,250,750,500,900,750,750,900,250,250,900,750,900,250,750,750,250,900,900,250,250,900],"smaller_num":["4","2","9","9","18","6","18","1","9","9","3","10","9","1","2","3","6","12","10","18","2","18","4","9","15","4","3","3","3","18","3","1","6","3","3","15","6","3","18","12","18","3","10","5","5","5","3","3","18","1","9","6","3","6","15","18","5","10","9","18","2","3","2","3","3","2","9","6","4","1","3","3","9","4","1","5","9","1","4","9","6","6","18","9","5","15","18","6","4","15","1","3","18","9","10","15","15","3","2","6","12","6","9","12","3","18","1","4","9","6","18","1","3","15","6","18","9","6","2","18"],"larger_num":["16","8","10","12","20","12","24","2","10","10","4","20","10","4","8","4","24","16","20","20","4","20","16","10","20","8","4","4","12","20","4","2","12","6","12","20","12","6","20","16","20","4","20","10","20","10","12","12","20","2","10","24","12","24","20","20","10","20","12","20","8","4","4","12","4","8","10","8","8","4","4","12","10","16","2","10","10","2","16","10","12","12","20","12","10","20","20","12","8","20","4","4","20","10","20","20","20","12","4","24","16","12","10","16","4","20","4","16","10","8","20","4","4","20","24","20","10","24","8","20"],"correct_side":[1,1,1,2,1,1,1,2,2,1,1,2,2,2,1,2,2,2,2,2,1,1,1,1,2,1,2,1,1,1,2,2,1,2,2,2,1,2,1,2,1,1,2,2,2,2,2,2,1,2,2,1,2,1,2,1,2,2,2,1,1,2,1,2,1,2,1,2,1,2,1,1,2,2,2,2,2,2,1,2,1,1,1,2,2,2,1,1,1,1,2,1,2,1,2,2,2,1,2,2,2,1,2,2,2,1,2,2,2,1,1,2,1,2,2,2,2,2,1,2],"img_shown":["img/250/equaldotanddens/L/2_Ratio_250_L_16_R_4.png","img/250/randomdotsizeEA/L/7_Ratio_250_L_8_R_2.png","img/900/equaldotsize/L/1_Ratio_900_L_10_R_9.png","img/750/randomdotsizeEA/R/15_Ratio_750_L_9_R_12.png","img/900/equaldotanddens/L/4_Ratio_900_L_20_R_18.png","img/500/equaldotsize/L/11_Ratio_500_L_12_R_6.png","img/750/equaldotanddens/L/6_Ratio_750_L_24_R_18.png","img/500/equaldotsize/R/15_Ratio_500_L_1_R_2.png","img/900/equaldotanddens/R/3_Ratio_900_L_9_R_10.png","img/900/equaldotsize/L/1_Ratio_900_L_10_R_9.png","img/750/equaldotsize/L/10_Ratio_750_L_4_R_3.png","img/500/equaldotsize/R/3_Ratio_500_L_10_R_20.png","img/900/equaldotsize/R/6_Ratio_900_L_9_R_10.png","img/250/randomdotsizeEA/R/8_Ratio_250_L_1_R_4.png","img/250/randomdotsizeEA/L/3_Ratio_250_L_8_R_2.png","img/750/equaldotsize/R/7_Ratio_750_L_3_R_4.png","img/250/equaldotanddens/R/6_Ratio_250_L_6_R_24.png","img/750/equaldotanddens/R/11_Ratio_750_L_12_R_16.png","img/500/equaldotsize/R/3_Ratio_500_L_10_R_20.png","img/900/randomdotsizeEA/R/9_Ratio_900_L_18_R_20.png","img/500/equaldotanddens/L/10_Ratio_500_L_4_R_2.png","img/900/equaldotanddens/L/8_Ratio_900_L_20_R_18.png","img/250/randomdotsizeEA/L/2_Ratio_250_L_16_R_4.png","img/900/equaldotanddens/L/1_Ratio_900_L_10_R_9.png","img/750/equaldotsize/R/3_Ratio_750_L_15_R_20.png","img/500/equaldotanddens/L/8_Ratio_500_L_8_R_4.png","img/750/equaldotsize/R/12_Ratio_750_L_3_R_4.png","img/750/equaldotsize/L/8_Ratio_750_L_4_R_3.png","img/250/equaldotsize/L/14_Ratio_250_L_12_R_3.png","img/900/randomdotsizeEA/L/8_Ratio_900_L_20_R_18.png","img/750/equaldotanddens/R/12_Ratio_750_L_3_R_4.png","img/500/equaldotanddens/R/12_Ratio_500_L_1_R_2.png","img/500/randomdotsizeEA/L/13_Ratio_500_L_12_R_6.png","img/500/equaldotanddens/R/2_Ratio_500_L_3_R_6.png","img/250/equaldotanddens/R/11_Ratio_250_L_3_R_12.png","img/750/equaldotanddens/R/3_Ratio_750_L_15_R_20.png","img/500/randomdotsizeEA/L/11_Ratio_500_L_12_R_6.png","img/500/randomdotsizeEA/R/2_Ratio_500_L_3_R_6.png","img/900/equaldotsize/L/8_Ratio_900_L_20_R_18.png","img/750/randomdotsizeEA/R/11_Ratio_750_L_12_R_16.png","img/900/randomdotsizeEA/L/2_Ratio_900_L_20_R_18.png","img/750/randomdotsizeEA/L/8_Ratio_750_L_4_R_3.png","img/500/randomdotsizeEA/R/3_Ratio_500_L_10_R_20.png","img/500/equaldotanddens/R/14_Ratio_500_L_5_R_10.png","img/250/equaldotsize/R/12_Ratio_250_L_5_R_20.png","img/500/equaldotanddens/R/14_Ratio_500_L_5_R_10.png","img/250/randomdotsizeEA/R/4_Ratio_250_L_3_R_12.png","img/250/equaldotanddens/R/9_Ratio_250_L_3_R_12.png","img/900/equaldotanddens/L/10_Ratio_900_L_20_R_18.png","img/500/equaldotanddens/R/12_Ratio_500_L_1_R_2.png","img/900/equaldotsize/R/15_Ratio_900_L_9_R_10.png","img/250/equaldotsize/L/5_Ratio_250_L_24_R_6.png","img/250/equaldotanddens/R/4_Ratio_250_L_3_R_12.png","img/250/randomdotsizeEA/L/5_Ratio_250_L_24_R_6.png","img/750/equaldotsize/R/3_Ratio_750_L_15_R_20.png","img/900/equaldotanddens/L/4_Ratio_900_L_20_R_18.png","img/500/equaldotsize/R/14_Ratio_500_L_5_R_10.png","img/500/randomdotsizeEA/R/3_Ratio_500_L_10_R_20.png","img/750/randomdotsizeEA/R/15_Ratio_750_L_9_R_12.png","img/900/equaldotsize/L/2_Ratio_900_L_20_R_18.png","img/250/equaldotanddens/L/7_Ratio_250_L_8_R_2.png","img/750/equaldotanddens/R/12_Ratio_750_L_3_R_4.png","img/500/equaldotanddens/L/10_Ratio_500_L_4_R_2.png","img/250/equaldotsize/R/4_Ratio_250_L_3_R_12.png","img/750/equaldotanddens/L/8_Ratio_750_L_4_R_3.png","img/250/randomdotsizeEA/R/13_Ratio_250_L_2_R_8.png","img/900/randomdotsizeEA/L/1_Ratio_900_L_10_R_9.png","img/750/equaldotsize/R/2_Ratio_750_L_6_R_8.png","img/500/equaldotsize/L/8_Ratio_500_L_8_R_4.png","img/250/equaldotsize/R/8_Ratio_250_L_1_R_4.png","img/750/randomdotsizeEA/L/10_Ratio_750_L_4_R_3.png","img/250/randomdotsizeEA/L/15_Ratio_250_L_12_R_3.png","img/900/randomdotsizeEA/R/15_Ratio_900_L_9_R_10.png","img/250/equaldotanddens/R/10_Ratio_250_L_4_R_16.png","img/500/randomdotsizeEA/R/12_Ratio_500_L_1_R_2.png","img/500/equaldotsize/R/14_Ratio_500_L_5_R_10.png","img/900/randomdotsizeEA/R/6_Ratio_900_L_9_R_10.png","img/500/randomdotsizeEA/R/12_Ratio_500_L_1_R_2.png","img/250/randomdotsizeEA/L/2_Ratio_250_L_16_R_4.png","img/900/randomdotsizeEA/R/7_Ratio_900_L_9_R_10.png","img/500/randomdotsizeEA/L/13_Ratio_500_L_12_R_6.png","img/500/equaldotsize/L/13_Ratio_500_L_12_R_6.png","img/900/randomdotsizeEA/L/8_Ratio_900_L_20_R_18.png","img/750/equaldotanddens/R/15_Ratio_750_L_9_R_12.png","img/500/randomdotsizeEA/R/14_Ratio_500_L_5_R_10.png","img/750/randomdotsizeEA/R/5_Ratio_750_L_15_R_20.png","img/900/equaldotanddens/L/10_Ratio_900_L_20_R_18.png","img/500/equaldotanddens/L/11_Ratio_500_L_12_R_6.png","img/500/equaldotsize/L/8_Ratio_500_L_8_R_4.png","img/750/randomdotsizeEA/L/1_Ratio_750_L_20_R_15.png","img/250/equaldotanddens/R/8_Ratio_250_L_1_R_4.png","img/750/equaldotsize/L/9_Ratio_750_L_4_R_3.png","img/900/equaldotsize/R/12_Ratio_900_L_18_R_20.png","img/900/equaldotanddens/L/1_Ratio_900_L_10_R_9.png","img/500/equaldotsize/R/3_Ratio_500_L_10_R_20.png","img/750/equaldotsize/R/3_Ratio_750_L_15_R_20.png","img/750/equaldotanddens/R/5_Ratio_750_L_15_R_20.png","img/250/randomdotsizeEA/L/14_Ratio_250_L_12_R_3.png","img/500/randomdotsizeEA/R/9_Ratio_500_L_2_R_4.png","img/250/equaldotsize/R/6_Ratio_250_L_6_R_24.png","img/750/randomdotsizeEA/R/11_Ratio_750_L_12_R_16.png","img/500/equaldotanddens/L/11_Ratio_500_L_12_R_6.png","img/900/equaldotsize/R/7_Ratio_900_L_9_R_10.png","img/750/randomdotsizeEA/R/11_Ratio_750_L_12_R_16.png","img/750/randomdotsizeEA/R/7_Ratio_750_L_3_R_4.png","img/900/equaldotanddens/L/2_Ratio_900_L_20_R_18.png","img/250/equaldotanddens/R/8_Ratio_250_L_1_R_4.png","img/250/equaldotsize/R/10_Ratio_250_L_4_R_16.png","img/900/randomdotsizeEA/R/5_Ratio_900_L_9_R_10.png","img/750/equaldotanddens/L/14_Ratio_750_L_8_R_6.png","img/900/equaldotsize/L/10_Ratio_900_L_20_R_18.png","img/250/equaldotanddens/R/8_Ratio_250_L_1_R_4.png","img/750/equaldotanddens/L/9_Ratio_750_L_4_R_3.png","img/750/equaldotsize/R/4_Ratio_750_L_15_R_20.png","img/250/equaldotsize/R/6_Ratio_250_L_6_R_24.png","img/900/equaldotsize/R/14_Ratio_900_L_18_R_20.png","img/900/equaldotanddens/R/5_Ratio_900_L_9_R_10.png","img/250/equaldotsize/R/6_Ratio_250_L_6_R_24.png","img/250/equaldotsize/L/7_Ratio_250_L_8_R_2.png","img/900/randomdotsizeEA/R/11_Ratio_900_L_18_R_20.png"],"Rat0":[["12_Ratio_0_L_9_R_0.png","13_Ratio_0_L_6_R_0.png","5_Ratio_0_L_2_R_0.png","6_Ratio_0_L_4_R_0.png","8_Ratio_0_L_6_R_0.png"],["1_Ratio_0_L_0_R_17.png","10_Ratio_0_L_0_R_22.png","11_Ratio_0_L_0_R_1.png","14_Ratio_0_L_0_R_24.png","15_Ratio_0_L_0_R_4.png","2_Ratio_0_L_0_R_5.png","3_Ratio_0_L_0_R_17.png","4_Ratio_0_L_0_R_7.png","7_Ratio_0_L_0_R_19.png","9_Ratio_0_L_0_R_15.png"]],"Rat250":[["1_Ratio_250_L_8_R_2.png","14_Ratio_250_L_12_R_3.png","15_Ratio_250_L_12_R_3.png","2_Ratio_250_L_16_R_4.png","3_Ratio_250_L_8_R_2.png","5_Ratio_250_L_24_R_6.png","7_Ratio_250_L_8_R_2.png"],["10_Ratio_250_L_4_R_16.png","11_Ratio_250_L_3_R_12.png","12_Ratio_250_L_5_R_20.png","13_Ratio_250_L_2_R_8.png","4_Ratio_250_L_3_R_12.png","6_Ratio_250_L_6_R_24.png","8_Ratio_250_L_1_R_4.png","9_Ratio_250_L_3_R_12.png"]],"Rat500":[["10_Ratio_500_L_4_R_2.png","11_Ratio_500_L_12_R_6.png","13_Ratio_500_L_12_R_6.png","4_Ratio_500_L_18_R_9.png","5_Ratio_500_L_4_R_2.png","7_Ratio_500_L_10_R_5.png","8_Ratio_500_L_8_R_4.png"],["1_Ratio_500_L_9_R_18.png","12_Ratio_500_L_1_R_2.png","14_Ratio_500_L_5_R_10.png","15_Ratio_500_L_1_R_2.png","2_Ratio_500_L_3_R_6.png","3_Ratio_500_L_10_R_20.png","6_Ratio_500_L_9_R_18.png","9_Ratio_500_L_2_R_4.png"]],"Rat750":[["1_Ratio_750_L_20_R_15.png","10_Ratio_750_L_4_R_3.png","13_Ratio_750_L_8_R_6.png","14_Ratio_750_L_8_R_6.png","6_Ratio_750_L_24_R_18.png","8_Ratio_750_L_4_R_3.png","9_Ratio_750_L_4_R_3.png"],["11_Ratio_750_L_12_R_16.png","12_Ratio_750_L_3_R_4.png","15_Ratio_750_L_9_R_12.png","2_Ratio_750_L_6_R_8.png","3_Ratio_750_L_15_R_20.png","4_Ratio_750_L_15_R_20.png","5_Ratio_750_L_15_R_20.png","7_Ratio_750_L_3_R_4.png"]],"Rat900":[["1_Ratio_900_L_10_R_9.png","10_Ratio_900_L_20_R_18.png","2_Ratio_900_L_20_R_18.png","4_Ratio_900_L_20_R_18.png","8_Ratio_900_L_20_R_18.png"],["11_Ratio_900_L_18_R_20.png","12_Ratio_900_L_18_R_20.png","13_Ratio_900_L_18_R_20.png","14_Ratio_900_L_18_R_20.png","15_Ratio_900_L_9_R_10.png","3_Ratio_900_L_9_R_10.png","5_Ratio_900_L_9_R_10.png","6_Ratio_900_L_9_R_10.png","7_Ratio_900_L_9_R_10.png","9_Ratio_900_L_18_R_20.png"]],"Rat1000":[["10_Ratio_1000_L_16_R_16.png","11_Ratio_1000_L_6_R_6.png","12_Ratio_1000_L_14_R_14.png","13_Ratio_1000_L_20_R_20.png","15_Ratio_1000_L_15_R_15.png","2_Ratio_1000_L_17_R_17.png","4_Ratio_1000_L_9_R_9.png","5_Ratio_1000_L_6_R_6.png","6_Ratio_1000_L_19_R_19.png","8_Ratio_1000_L_14_R_14.png","9_Ratio_1000_L_25_R_25.png"],["1_Ratio_1000_L_1_R_1.png","14_Ratio_1000_L_17_R_17.png","3_Ratio_1000_L_17_R_17.png","7_Ratio_1000_L_6_R_6.png"]]}},{"start_time":1551881185512,"click_time":1551881186771,"finger_time":1551881186392,"fix_duration":357.6177187763264,"trial":1,"RT":880,"MT":379,"sideResp":1,"stimulus":"img/250/randomdotsizeEA/L/7_Ratio_250_L_8_R_2.png","xmouse":[829,829,829,829,829,829,829,829,829,829,829,829,829,829,829,829,829,829,829,829,829,829,829,829,829,829,829,829,829,829,829,829,829,829,829,829,829,829,829,829,826,825,819,797,782,763,748,730,710,686,651,613,591,558,548,541,536,531,504,496,491,490,488,486],"ymouse":[505,505,505,505,505,505,505,505,505,505,505,505,505,505,505,505,505,505,505,505,506,506,506,506,506,506,506,506,506,506,506,506,506,506,506,506,506,506,506,506,502,499,487,460,443,426,411,383,336,297,253,212,192,167,159,154,150,147,132,128,124,122,117,99],"timestamp_mouse":[1,19,40,59,80,101,121,139,160,181,200,220,240,259,279,300,320,340,360,381,399,419,440,460,479,501,521,539,559,581,600,619,640,659,680,699,719,739,759,780,801,820,840,859,880,899,919,940,959,980,999,1019,1039,1059,1079,1099,1120,1140,1159,1179,1199,1221,1240,1259],"xSR":741.5,"ySR":449.15000000000003,"xT1":424.9,"yT1":0,"xT2":1058.1,"yT2":0,"toosoon":0,"cond_shown":"randomdotsizeEA","ratio_trial":250,"smaller_num":"2","larger_num":"8","correct_side":1,"subjID":"SamuelBarretoBarrera23","gender":"0","age":"11","school":"6"},{"start_time":1551881189063,"click_time":1551881189932,"finger_time":1551881189712,"fix_duration":1390.0698174099841,"trial":2,"RT":649,"MT":220,"sideResp":2,"stimulus":"img/900/equaldotsize/L/1_Ratio_900_L_10_R_9.png","xmouse":[792,792,792,792,792,792,792,792,792,792,792,792,792,792,792,792,792,792,792,792,792,792,792,792,792,792,792,792,792,792,792,796,811,830,857,905,936,964,989,1011,1053,1063,1067,1068],"ymouse":[475,475,475,475,475,475,475,475,475,475,475,475,475,475,475,475,475,475,475,475,475,475,475,475,475,475,475,475,475,475,475,465,439,405,366,295,253,221,193,167,119,107,102,99],"timestamp_mouse":[8,40,48,68,89,109,128,148,170,188,210,229,250,268,289,309,330,348,368,388,408,428,450,468,489,509,529,550,569,588,608,629,649,669,689,708,728,748,769,789,809,829,848,869],"xSR":741.5,"ySR":449.15000000000003,"xT1":424.9,"yT1":0,"xT2":1058.1,"yT2":0,"toosoon":0,"cond_shown":"equaldotsize","ratio_trial":900,"smaller_num":"9","larger_num":"10","correct_side":1,"subjID":"SamuelBarretoBarrera23","gender":"0","age":"11","school":"6"},{"start_time":1551881191524,"click_time":1551881192792,"finger_time":1551881192371,"fix_duration":791.6538728261665,"trial":3,"RT":847,"MT":421,"sideResp":1,"stimulus":"img/750/randomdotsizeEA/R/15_Ratio_750_L_9_R_12.png","xmouse":[772,772,772,772,772,772,772,772,772,772,772,772,772,772,772,772,772,772,772,772,772,772,772,772,772,772,772,772,772,772,772,772,772,772,772,772,772,772,772,772,772,767,717,651,571,500,431,378,378,378,378,378,378,378,378,378,378,378,378,378,378,378,378,470],"ymouse":[519,519,519,519,519,519,519,519,519,519,519,519,519,519,519,519,519,519,519,519,519,519,519,519,519,519,519,519,519,519,519,519,519,519,519,519,519,519,519,519,519,518,466,398,318,223,127,36,36,36,36,36,36,36,36,36,36,36,36,36,36,36,36,7],"timestamp_mouse":[10,36,48,68,88,107,129,147,168,189,208,228,249,268,288,307,329,347,368,387,408,427,449,467,487,507,528,547,568,588,607,628,647,667,687,708,728,748,768,787,809,828,847,867,887,908,927,948,968,987,1007,1028,1047,1068,1088,1108,1127,1148,1169,1188,1208,1229,1249,1268],"xSR":741.5,"ySR":449.15000000000003,"xT1":424.9,"yT1":0,"xT2":1058.1,"yT2":0,"toosoon":0,"cond_shown":"randomdotsizeEA","ratio_trial":750,"smaller_num":"9","larger_num":"12","correct_side":2,"subjID":"SamuelBarretoBarrera23","gender":"0","age":"11","school":"6"},{"start_time":1551881194269,"click_time":1551881195733,"finger_time":1551881195393,"fix_duration":436.84836523142366,"trial":4,"RT":1124,"MT":340,"sideResp":2,"stimulus":"img/900/equaldotanddens/L/4_Ratio_900_L_20_R_18.png","xmouse":[797,797,797,797,797,797,797,797,797,797,797,797,797,797,797,797,797,797,797,797,797,797,797,797,797,797,797,797,797,797,797,797,797,797,797,797,797,797,797,797,797,797,797,797,797,797,797,797,797,797,797,799,804,812,820,839,849,856,865,880,900,914,928,941,957,988,1003,1019,1035,1049,1080,1093,1106,1114],"ymouse":[536,536,536,536,536,536,536,536,536,536,536,536,536,536,536,536,536,536,536,536,536,536,536,536,536,536,536,536,536,536,536,536,536,536,536,536,536,536,536,536,536,536,536,536,536,536,536,536,536,536,536,532,521,508,495,467,453,442,432,413,385,369,350,330,310,266,244,221,198,176,131,116,103,94],"timestamp_mouse":[8,23,43,69,84,105,124,143,164,184,203,223,243,263,283,303,324,343,363,383,405,423,444,464,484,503,524,543,564,583,603,623,644,665,683,703,723,743,764,783,803,823,843,863,884,903,923,943,963,984,1003,1023,1044,1063,1083,1103,1124,1143,1163,1183,1203,1224,1244,1263,1283,1303,1323,1344,1364,1383,1403,1424,1443,1464],"xSR":741.5,"ySR":449.15000000000003,"xT1":424.9,"yT1":0,"xT2":1058.1,"yT2":0,"toosoon":0,"cond_shown":"equaldotanddens","ratio_trial":900,"smaller_num":"18","larger_num":"20","correct_side":1,"subjID":"SamuelBarretoBarrera23","gender":"0","age":"11","school":"6"},{"start_time":1551881201906,"click_time":1551881203112,"finger_time":1551881202693,"fix_duration":472.6344570579045,"trial":5,"RT":787,"MT":419,"sideResp":1,"stimulus":"img/500/equaldotsize/L/11_Ratio_500_L_12_R_6.png","xmouse":[777,777,777,777,777,777,777,777,777,777,777,777,777,777,777,777,777,777,777,777,777,777,777,777,777,777,777,777,777,777,777,777,777,777,777,777,777,775,756,737,717,692,676,653,643,636,636,641,648,648,648,647,638,607,581,562,550,546,537,529,515],"ymouse":[509,509,509,509,509,509,509,509,509,509,509,509,509,509,509,509,509,509,509,509,509,509,509,509,509,509,509,509,509,509,509,509,509,509,509,509,509,507,486,463,439,408,383,345,328,311,296,276,226,208,192,177,159,121,101,86,77,74,72,71,70],"timestamp_mouse":[9,27,47,66,87,106,127,147,166,187,206,227,246,266,286,306,326,347,367,387,406,426,446,467,486,506,526,546,567,586,606,626,647,666,686,706,727,748,766,787,806,827,846,866,887,907,927,946,967,987,1006,1027,1046,1066,1086,1106,1127,1147,1166,1187,1206],"xSR":741.5,"ySR":449.15000000000003,"xT1":424.9,"yT1":0,"xT2":1058.1,"yT2":0,"toosoon":0,"cond_shown":"equaldotsize","ratio_trial":500,"smaller_num":"6","larger_num":"12","correct_side":1,"subjID":"SamuelBarretoBarrera23","gender":"0","age":"11","school":"6"},{"start_time":1551881205242,"click_time":1551881206773,"finger_time":1551881205993,"fix_duration":1246.9804572719283,"trial":6,"RT":751,"MT":780,"sideResp":2,"stimulus":"img/750/equaldotanddens/L/6_Ratio_750_L_24_R_18.png","xmouse":[808,808,808,808,808,808,808,808,808,808,808,808,808,808,808,808,808,808,808,808,808,808,808,808,808,808,808,808,808,808,808,808,808,808,808,808,808,807,802,799,795,790,788,787,786,786,786,786,786,787,789,795,800,807,818,834,873,895,918,940,965,1037,1068,1103,1134,1159,1190,1194,1194,1194,1194,1194,1194,1190,1181,1170,1148],"ymouse":[503,503,503,503,503,503,503,503,503,503,503,503,503,503,503,503,503,503,503,503,503,503,503,503,503,503,503,503,503,503,503,503,503,503,503,496,469,444,418,397,378,342,332,327,322,319,314,312,309,307,306,302,300,297,294,289,274,265,256,250,244,235,230,225,219,211,190,181,173,163,155,133,120,108,93,80,57],"timestamp_mouse":[11,45,50,70,92,110,131,151,171,191,210,230,251,270,290,310,330,351,371,391,410,430,450,471,490,510,531,550,570,591,610,630,650,671,692,710,730,751,770,791,811,830,850,871,890,911,932,950,971,992,1011,1030,1050,1070,1091,1112,1130,1150,1170,1190,1211,1230,1251,1270,1290,1312,1330,1351,1371,1390,1410,1430,1450,1472,1491,1512,1531],"xSR":741.5,"ySR":449.15000000000003,"xT1":424.9,"yT1":0,"xT2":1058.1,"yT2":0,"toosoon":0,"cond_shown":"equaldotanddens","ratio_trial":750,"smaller_num":"18","larger_num":"24","correct_side":1,"subjID":"SamuelBarretoBarrera23","gender":"0","age":"11","school":"6"},{"start_time":1551881208165,"click_time":1551881209373,"finger_time":1551881208912,"fix_duration":250,"trial":7,"RT":747,"MT":461,"sideResp":2,"stimulus":"img/500/equaldotsize/R/15_Ratio_500_L_1_R_2.png","xmouse":[774,774,774,774,774,774,774,774,774,774,774,774,774,774,774,774,774,774,774,774,774,774,774,774,774,774,774,774,774,774,774,774,774,774,774,778,796,832,897,966,1087,1126,1157,1178,1192,1210,1216,1220,1224,1224,1213,1201,1197,1197,1197,1196,1192,1186,1180,1174,1153],"ymouse":[477,477,477,477,477,477,477,477,477,477,477,477,477,477,477,477,477,477,477,477,477,477,477,477,477,477,477,477,477,477,477,477,477,477,477,475,460,430,384,332,243,215,192,173,156,128,117,109,100,93,76,70,68,67,67,67,67,67,67,68,68],"timestamp_mouse":[11,27,52,69,87,107,127,147,168,189,209,227,248,269,287,307,327,348,368,387,407,428,447,469,487,507,529,548,567,587,607,628,647,668,687,708,727,747,767,788,809,828,848,867,888,907,928,947,967,989,1009,1028,1048,1067,1089,1107,1127,1147,1167,1187,1208],"xSR":741.5,"ySR":449.15000000000003,"xT1":424.9,"yT1":0,"xT2":1058.1,"yT2":0,"toosoon":0,"cond_shown":"equaldotsize","ratio_trial":500,"smaller_num":"1","larger_num":"2","correct_side":2,"subjID":"SamuelBarretoBarrera23","gender":"0","age":"11","school":"6"},{"start_time":1551881210895,"click_time":1551881212912,"finger_time":1551881212033,"fix_duration":500.16378264526764,"trial":8,"RT":1138,"MT":879,"sideResp":2,"stimulus":"img/900/equaldotanddens/R/3_Ratio_900_L_9_R_10.png","xmouse":[764,764,764,764,764,764,764,764,764,764,764,764,764,764,764,764,764,764,764,764,764,764,764,764,764,764,764,764,764,764,764,764,764,764,764,764,764,764,764,764,764,764,764,764,764,764,764,764,764,764,764,764,764,767,773,781,789,797,816,825,833,842,854,880,894,910,925,938,963,969,973,978,981,989,992,995,1000,1003,1007,1008,1009,1010,1011,1011,1012,1012,1014,1015,1018,1018,1018,1019,1020,1024,1028,1033,1039,1047,1080,1098,1115],"ymouse":[479,479,479,479,479,479,479,479,479,479,479,479,479,479,479,479,479,479,479,479,479,479,479,479,479,479,479,479,479,479,479,479,479,479,479,479,479,479,479,479,479,479,479,479,479,479,479,479,479,479,479,479,480,474,467,457,446,433,402,387,373,358,342,310,295,280,267,254,231,225,220,216,213,203,199,195,192,189,185,183,181,180,180,178,177,177,176,174,172,171,171,170,169,165,161,157,151,143,118,106,92],"timestamp_mouse":[19,47,57,77,98,119,137,158,178,197,218,238,258,278,298,317,337,357,379,397,417,439,458,478,497,518,537,558,577,597,619,637,657,677,697,718,738,757,778,798,819,838,857,877,898,917,938,959,979,999,1018,1037,1057,1077,1098,1117,1138,1158,1178,1197,1217,1237,1259,1278,1297,1317,1337,1359,1378,1398,1417,1437,1458,1477,1498,1518,1537,1558,1578,1599,1618,1637,1658,1677,1697,1718,1737,1758,1777,1798,1818,1837,1858,1878,1897,1917,1937,1958,1977,1997,2017],"xSR":741.5,"ySR":449.15000000000003,"xT1":424.9,"yT1":0,"xT2":1058.1,"yT2":0,"toosoon":0,"cond_shown":"equaldotanddens","ratio_trial":900,"smaller_num":"9","larger_num":"10","correct_side":2,"subjID":"SamuelBarretoBarrera23","gender":"0","age":"11","school":"6"},{"start_time":1551881214204,"click_time":1551881215372,"finger_time":1551881214953,"fix_duration":488.66864066699145,"trial":9,"RT":749,"MT":419,"sideResp":1,"stimulus":"img/900/equaldotsize/L/1_Ratio_900_L_10_R_9.png","xmouse":[811,811,811,811,811,811,811,811,811,811,811,811,811,811,811,811,811,811,811,811,811,811,811,811,811,811,811,811,811,811,811,811,811,811,814,817,818,818,817,810,804,795,785,754,736,713,691,665,632,615,599,587,576,549,543,539,537,534,512],"ymouse":[498,498,498,498,498,498,498,498,498,498,498,498,498,498,498,498,498,498,498,498,498,498,498,498,498,498,498,498,498,498,498,498,498,494,486,475,461,442,399,379,357,336,314,258,236,214,198,183,162,153,144,136,129,115,111,109,107,99,71],"timestamp_mouse":[10,32,49,68,88,109,128,148,168,189,208,229,248,268,290,308,329,348,369,388,408,428,448,468,488,509,528,549,568,588,609,629,648,668,689,709,728,749,770,788,808,828,848,868,889,908,929,948,969,990,1010,1028,1049,1068,1090,1108,1128,1149,1168],"xSR":741.5,"ySR":449.15000000000003,"xT1":424.9,"yT1":0,"xT2":1058.1,"yT2":0,"toosoon":0,"cond_shown":"equaldotsize","ratio_trial":900,"smaller_num":"9","larger_num":"10","correct_side":1,"subjID":"SamuelBarretoBarrera23","gender":"0","age":"11","school":"6"},{"start_time":1551881217028,"click_time":1551881218373,"finger_time":1551881217832,"fix_duration":1014.6130922306965,"trial":10,"RT":804,"MT":541,"sideResp":1,"stimulus":"img/750/equaldotsize/L/10_Ratio_750_L_4_R_3.png","xmouse":[797,797,797,797,797,797,797,797,797,797,797,797,797,797,797,797,797,797,797,797,797,797,797,797,797,797,797,797,797,797,797,797,797,797,797,797,798,806,818,839,866,886,921,931,937,943,945,946,946,946,946,946,916,884,847,806,779,751,734,715,701,685,638,619,599,578,554,515],"ymouse":[516,516,516,516,516,516,516,516,516,516,516,516,516,516,516,516,516,516,516,516,516,516,516,516,516,516,516,516,516,516,516,516,516,516,516,516,516,508,493,471,443,419,359,338,323,312,307,304,304,304,304,304,291,277,262,243,229,207,194,182,173,165,145,133,122,110,96,75],"timestamp_mouse":[10,25,52,65,84,105,124,145,166,184,204,224,244,265,284,304,324,346,364,384,404,425,445,465,485,505,526,545,565,584,604,626,644,664,685,704,724,744,765,785,804,825,844,865,884,906,925,945,965,984,1004,1025,1045,1065,1084,1104,1126,1146,1165,1184,1204,1225,1245,1265,1284,1304,1325,1345],"xSR":741.5,"ySR":449.15000000000003,"xT1":424.9,"yT1":0,"xT2":1058.1,"yT2":0,"toosoon":0,"cond_shown":"equaldotsize","ratio_trial":750,"smaller_num":"3","larger_num":"4","correct_side":1,"subjID":"SamuelBarretoBarrera23","gender":"0","age":"11","school":"6"},{"start_time":1551881219523,"click_time":1551881220672,"finger_time":1551881220273,"fix_duration":250,"trial":11,"RT":750,"MT":399,"sideResp":2,"stimulus":"img/500/equaldotsize/R/3_Ratio_500_L_10_R_20.png","xmouse":[814,814,814,814,814,814,814,814,814,814,814,814,814,814,814,814,814,814,814,814,814,814,814,814,814,814,814,814,814,814,814,814,814,814,814,823,830,897,930,966,1000,1029,1073,1086,1094,1101,1103,1104,1104,1104,1104,1104,1104,1104,1104,1104,1101,1099],"ymouse":[509,509,509,509,509,509,509,509,509,509,509,509,509,509,509,509,509,509,509,509,509,509,509,509,509,509,509,509,509,509,509,509,509,509,509,499,493,433,400,359,319,280,208,180,161,145,139,132,132,132,132,132,131,127,122,116,105,83],"timestamp_mouse":[9,29,62,69,90,109,130,149,169,189,210,230,249,271,290,309,330,349,370,390,410,429,449,469,489,509,529,549,569,589,610,629,650,670,689,710,729,750,769,789,809,831,849,869,889,909,930,949,969,989,1009,1029,1049,1069,1089,1109,1130,1149],"xSR":741.5,"ySR":449.15000000000003,"xT1":424.9,"yT1":0,"xT2":1058.1,"yT2":0,"toosoon":0,"cond_shown":"equaldotsize","ratio_trial":500,"smaller_num":"10","larger_num":"20","correct_side":2,"subjID":"SamuelBarretoBarrera23","gender":"0","age":"11","school":"6"},{"start_time":1551881222406,"click_time":1551881223453,"finger_time":1551881223172,"fix_duration":933.9920653964869,"trial":12,"RT":766,"MT":281,"sideResp":2,"stimulus":"img/900/equaldotsize/R/6_Ratio_900_L_9_R_10.png","xmouse":[809,809,809,809,809,809,809,809,809,809,809,809,809,809,809,809,809,809,809,809,809,809,809,809,809,809,809,809,809,809,809,809,809,809,809,809,809,813,842,874,901,927,950,988,995,1002,1009,1015,1030,1040,1047,1055,1062],"ymouse":[505,505,505,505,505,505,505,505,505,505,505,505,505,505,505,505,505,505,505,505,505,505,505,505,505,505,505,505,505,505,505,505,505,505,505,505,505,496,458,419,384,348,313,243,223,207,192,178,148,132,116,100,86],"timestamp_mouse":[9,39,47,67,86,106,127,148,166,186,206,227,247,268,287,307,326,346,366,386,406,426,447,467,486,507,526,546,566,588,607,627,646,666,686,706,727,747,766,786,806,827,848,867,887,907,926,947,966,987,1006,1027,1046],"xSR":741.5,"ySR":449.15000000000003,"xT1":424.9,"yT1":0,"xT2":1058.1,"yT2":0,"toosoon":0,"cond_shown":"equaldotsize","ratio_trial":900,"smaller_num":"9","larger_num":"10","correct_side":2,"subjID":"SamuelBarretoBarrera23","gender":"0","age":"11","school":"6"},{"start_time":1551881226922,"click_time":1551881228013,"finger_time":1551881227774,"fix_duration":1027.955501245401,"trial":13,"RT":852,"MT":239,"sideResp":2,"stimulus":"img/250/randomdotsizeEA/R/8_Ratio_250_L_1_R_4.png","xmouse":[801,801,801,801,801,801,801,801,801,801,801,801,801,801,801,801,801,801,801,801,801,801,801,801,801,801,801,801,801,801,801,801,801,801,801,801,801,801,801,802,804,808,825,834,843,851,866,910,934,953,976,999,1037,1051,1064],"ymouse":[481,481,481,481,481,481,481,481,481,481,481,481,481,481,481,481,481,481,481,481,481,481,481,481,481,481,481,481,481,481,481,481,481,481,481,481,481,481,481,477,474,468,436,414,391,359,322,241,203,169,129,94,36,18,2],"timestamp_mouse":[10,41,51,70,90,110,130,150,170,190,210,231,251,270,290,311,332,351,372,390,412,430,450,470,491,510,530,550,570,591,612,631,650,670,690,711,730,751,770,790,811,830,852,871,891,910,931,951,970,990,1011,1032,1050,1072,1091],"xSR":741.5,"ySR":449.15000000000003,"xT1":424.9,"yT1":0,"xT2":1058.1,"yT2":0,"toosoon":0,"cond_shown":"randomdotsizeEA","ratio_trial":250,"smaller_num":"1","larger_num":"4","correct_side":2,"subjID":"SamuelBarretoBarrera23","gender":"0","age":"11","school":"6"},{"start_time":1551881230441,"click_time":1551881231353,"finger_time":1551881231172,"fix_duration":1387.258820568118,"trial":14,"RT":731,"MT":181,"sideResp":1,"stimulus":"img/250/randomdotsizeEA/L/3_Ratio_250_L_8_R_2.png","xmouse":[779,779,779,779,779,779,779,779,779,779,779,779,779,779,779,779,779,779,779,779,779,779,779,779,779,779,779,779,779,779,779,779,779,778,776,770,754,742,724,707,683,617,583,551,525,505],"ymouse":[495,495,495,495,495,495,495,495,495,495,495,495,495,495,495,495,495,495,495,495,495,495,495,495,495,495,495,495,495,495,495,495,495,495,491,478,433,400,357,316,276,191,157,129,105,84],"timestamp_mouse":[11,38,51,72,91,111,132,152,171,192,212,233,251,271,293,313,331,352,372,392,412,431,451,471,491,511,531,551,572,591,611,631,653,671,692,712,731,752,771,792,811,831,852,871,891,912],"xSR":741.5,"ySR":449.15000000000003,"xT1":424.9,"yT1":0,"xT2":1058.1,"yT2":0,"toosoon":0,"cond_shown":"randomdotsizeEA","ratio_trial":250,"smaller_num":"2","larger_num":"8","correct_side":1,"subjID":"SamuelBarretoBarrera23","gender":"0","age":"11","school":"6"},{"start_time":1551881233171,"click_time":1551881234232,"finger_time":1551881233832,"fix_duration":1157.7303750503138,"trial":15,"RT":661,"MT":400,"sideResp":2,"stimulus":"img/750/equaldotsize/R/7_Ratio_750_L_3_R_4.png","xmouse":[823,823,823,823,823,823,823,823,823,823,823,823,823,823,823,823,823,823,823,823,823,823,823,823,823,823,823,823,823,823,824,830,839,847,859,901,918,942,967,991,1030,1040,1048,1051,1052,1053,1055,1056,1059,1060,1068,1073,1079,1085],"ymouse":[538,538,538,538,538,538,538,538,538,538,538,538,538,538,538,538,538,538,538,538,538,538,538,538,538,538,538,538,538,538,528,515,495,473,448,379,356,323,293,264,218,204,193,186,182,177,173,169,161,155,132,119,106,93],"timestamp_mouse":[9,34,43,63,81,102,121,142,163,182,201,221,241,262,281,301,321,342,361,381,401,422,442,461,482,501,522,542,561,582,601,621,641,661,682,702,722,742,762,781,801,821,842,862,882,901,921,942,961,982,1002,1021,1041,1061],"xSR":741.5,"ySR":449.15000000000003,"xT1":424.9,"yT1":0,"xT2":1058.1,"yT2":0,"toosoon":0,"cond_shown":"equaldotsize","ratio_trial":750,"smaller_num":"3","larger_num":"4","correct_side":2,"subjID":"SamuelBarretoBarrera23","gender":"0","age":"11","school":"6"},{"start_time":1551881236110,"click_time":1551881237193,"finger_time":1551881236793,"fix_duration":1095.7972833283443,"trial":16,"RT":683,"MT":400,"sideResp":2,"stimulus":"img/250/equaldotanddens/R/6_Ratio_250_L_6_R_24.png","xmouse":[809,809,809,809,809,809,809,809,809,809,809,809,809,809,809,809,809,809,809,809,809,809,809,809,809,809,809,809,809,809,809,809,815,835,875,919,954,973,1009,1019,1027,1032,1035,1041,1042,1044,1044,1044,1044,1044,1045,1046,1048,1055,1061],"ymouse":[490,490,490,490,490,490,490,490,490,490,490,490,490,490,490,490,490,490,490,490,490,490,490,490,490,490,490,490,490,490,490,490,483,470,440,409,380,354,288,263,241,218,201,173,161,149,140,130,122,120,118,116,114,105,99],"timestamp_mouse":[8,23,43,62,82,103,122,143,162,184,202,222,244,263,282,302,323,342,364,383,403,423,443,463,483,502,523,542,562,582,602,622,643,663,683,703,722,742,762,783,802,823,843,862,883,904,922,943,963,983,1003,1023,1043,1063,1083],"xSR":741.5,"ySR":449.15000000000003,"xT1":424.9,"yT1":0,"xT2":1058.1,"yT2":0,"toosoon":0,"cond_shown":"equaldotanddens","ratio_trial":250,"smaller_num":"6","larger_num":"24","correct_side":2,"subjID":"SamuelBarretoBarrera23","gender":"0","age":"11","school":"6"},{"start_time":1551881238485,"click_time":1551881240054,"finger_time":1551881239273,"fix_duration":250,"trial":17,"RT":788,"MT":781,"sideResp":2,"stimulus":"img/750/equaldotanddens/R/11_Ratio_750_L_12_R_16.png","xmouse":[770,770,770,770,770,770,770,770,770,770,770,770,770,770,770,770,770,770,770,770,770,770,770,770,770,770,770,770,770,770,770,770,770,770,770,770,770,770,770,766,761,754,748,740,725,718,709,702,694,681,676,674,672,671,671,671,671,671,671,676,690,710,733,761,837,889,928,955,979,1016,1022,1028,1033,1047,1084,1102,1117,1127,1132],"ymouse":[475,475,475,475,475,475,475,475,475,475,475,475,475,475,475,475,475,475,475,475,475,475,475,475,475,475,475,475,475,475,475,475,475,475,475,475,475,465,455,401,375,349,322,298,257,240,224,211,200,179,172,169,166,165,165,165,165,165,165,165,169,175,179,184,185,185,185,185,185,177,173,170,166,157,136,124,111,101,85],"timestamp_mouse":[8,33,48,68,88,107,127,147,167,188,207,227,247,267,288,308,329,347,367,388,407,428,448,467,489,509,528,548,569,587,608,628,647,669,688,707,728,748,767,787,807,828,847,867,888,907,927,947,969,988,1007,1028,1048,1067,1087,1108,1127,1147,1168,1187,1208,1228,1247,1268,1288,1308,1327,1348,1368,1388,1408,1427,1448,1468,1487,1507,1527,1549,1569],"xSR":741.5,"ySR":449.15000000000003,"xT1":424.9,"yT1":0,"xT2":1058.1,"yT2":0,"toosoon":0,"cond_shown":"equaldotanddens","ratio_trial":750,"smaller_num":"12","larger_num":"16","correct_side":2,"subjID":"SamuelBarretoBarrera23","gender":"0","age":"11","school":"6"},{"start_time":1551881241243,"click_time":1551881242074,"finger_time":1551881241854,"fix_duration":369.1813200705877,"trial":18,"RT":611,"MT":220,"sideResp":2,"stimulus":"img/500/equaldotsize/R/3_Ratio_500_L_10_R_20.png","xmouse":[814,814,814,814,814,814,814,814,814,814,814,814,814,814,814,814,814,814,814,814,814,814,814,814,814,814,814,817,821,832,844,888,913,940,961,981,1019,1035,1046,1053,1056,1059],"ymouse":[477,477,477,477,477,477,477,477,477,477,477,477,477,477,477,477,477,477,477,477,477,477,477,477,477,477,477,473,468,457,443,389,358,320,273,225,136,105,84,70,60,51],"timestamp_mouse":[11,44,49,70,90,110,130,149,169,190,210,231,250,269,291,311,330,350,369,389,411,430,449,469,489,510,531,550,570,590,611,629,649,670,690,709,730,750,769,790,810,830],"xSR":741.5,"ySR":449.15000000000003,"xT1":424.9,"yT1":0,"xT2":1058.1,"yT2":0,"toosoon":0,"cond_shown":"equaldotsize","ratio_trial":500,"smaller_num":"10","larger_num":"20","correct_side":2,"subjID":"SamuelBarretoBarrera23","gender":"0","age":"11","school":"6"},{"start_time":1551881245458,"click_time":1551881246472,"finger_time":1551881246133,"fix_duration":323.8264519021027,"trial":19,"RT":675,"MT":339,"sideResp":2,"stimulus":"img/900/randomdotsizeEA/R/9_Ratio_900_L_18_R_20.png","xmouse":[811,811,811,811,811,811,811,811,811,811,811,811,811,811,811,811,811,811,811,811,811,811,811,811,811,811,811,811,811,811,816,824,833,845,863,912,935,959,984,1006,1040,1047,1052,1056,1057,1058,1058,1058,1058,1058,1063],"ymouse":[507,507,507,507,507,507,507,507,507,507,507,507,507,507,507,507,507,507,507,507,507,507,507,507,507,507,507,507,507,507,498,490,479,464,439,355,301,243,186,137,53,37,25,17,13,11,11,11,11,11,11],"timestamp_mouse":[15,41,55,75,94,114,135,155,175,195,215,236,255,274,294,314,334,354,374,394,414,434,454,474,494,515,534,555,575,594,614,635,654,675,694,716,734,754,775,794,815,834,855,875,895,914,935,956,975,994,1014],"xSR":741.5,"ySR":449.15000000000003,"xT1":424.9,"yT1":0,"xT2":1058.1,"yT2":0,"toosoon":0,"cond_shown":"randomdotsizeEA","ratio_trial":900,"smaller_num":"18","larger_num":"20","correct_side":2,"subjID":"SamuelBarretoBarrera23","gender":"0","age":"11","school":"6"},{"start_time":1551881248440,"click_time":1551881249613,"finger_time":1551881249213,"fix_duration":845.3848672837304,"trial":20,"RT":773,"MT":400,"sideResp":1,"stimulus":"img/500/equaldotanddens/L/10_Ratio_500_L_4_R_2.png","xmouse":[809,809,809,809,809,809,809,809,809,809,809,809,809,809,809,809,809,809,809,809,809,809,809,809,809,809,809,809,809,809,809,809,809,809,809,809,809,807,803,796,791,770,764,757,752,741,720,710,700,691,677,656,642,630,616,597,543,517,497],"ymouse":[494,494,494,494,494,494,494,494,494,494,494,494,494,494,494,494,494,494,494,494,494,494,494,494,494,494,494,494,494,494,494,494,494,494,490,487,468,452,434,411,391,322,294,252,214,173,104,80,61,45,27,14,9,5,2,0,0,0,5],"timestamp_mouse":[12,42,53,73,93,113,132,153,173,193,212,233,252,272,293,314,332,353,372,392,413,432,453,473,511,513,532,553,573,592,612,632,654,672,692,712,732,752,773,793,813,832,852,872,892,913,932,953,972,993,1012,1033,1053,1073,1092,1113,1133,1152,1173],"xSR":741.5,"ySR":449.15000000000003,"xT1":424.9,"yT1":0,"xT2":1058.1,"yT2":0,"toosoon":0,"cond_shown":"equaldotanddens","ratio_trial":500,"smaller_num":"2","larger_num":"4","correct_side":1,"subjID":"SamuelBarretoBarrera23","gender":"0","age":"11","school":"6"},{"start_time":1551881251344,"click_time":1551881252473,"finger_time":1551881252172,"fix_duration":250,"trial":21,"RT":828,"MT":301,"sideResp":1,"stimulus":"img/900/equaldotanddens/L/8_Ratio_900_L_20_R_18.png","xmouse":[789,789,789,789,789,789,789,789,789,789,789,789,789,789,789,789,789,789,789,789,789,789,789,789,789,789,789,789,789,789,789,789,789,789,789,789,789,789,788,786,780,762,746,728,710,681,642,628,619,612,605,585,570,556,544,535,517],"ymouse":[475,475,475,475,475,475,475,475,475,475,475,475,475,475,475,475,475,475,475,475,475,475,475,475,475,475,475,475,475,475,475,475,475,475,475,475,475,475,475,468,455,414,388,361,337,307,276,265,254,241,226,191,171,153,134,118,81],"timestamp_mouse":[9,28,49,69,88,108,128,148,169,188,209,229,248,269,289,308,329,348,368,388,408,429,448,468,488,509,528,548,568,589,608,629,648,669,688,708,728,748,768,789,808,828,849,869,888,909,928,948,969,989,1009,1028,1049,1068,1088,1109,1129],"xSR":741.5,"ySR":449.15000000000003,"xT1":424.9,"yT1":0,"xT2":1058.1,"yT2":0,"toosoon":0,"cond_shown":"equaldotanddens","ratio_trial":900,"smaller_num":"18","larger_num":"20","correct_side":1,"subjID":"SamuelBarretoBarrera23","gender":"0","age":"11","school":"6"},{"start_time":1551881254661,"click_time":1551881255574,"finger_time":1551881255413,"fix_duration":1426.3689449471465,"trial":22,"RT":752,"MT":161,"sideResp":1,"stimulus":"img/250/randomdotsizeEA/L/2_Ratio_250_L_16_R_4.png","xmouse":[828,828,828,828,828,828,828,828,828,828,828,828,828,828,828,828,828,828,828,828,828,828,828,828,828,828,828,828,828,828,828,828,828,828,829,830,832,832,824,802,723,693,664,625,588,518],"ymouse":[499,499,499,499,499,499,499,499,499,499,499,499,499,499,499,499,499,499,499,499,499,499,499,499,499,499,499,499,499,499,499,499,499,499,499,478,454,423,383,336,208,164,127,90,60,7],"timestamp_mouse":[11,44,51,71,92,112,131,152,171,193,213,231,252,273,292,311,331,352,372,391,413,431,453,472,491,512,533,552,573,591,611,633,651,671,691,713,732,752,773,793,812,832,851,872,893,913],"xSR":741.5,"ySR":449.15000000000003,"xT1":424.9,"yT1":0,"xT2":1058.1,"yT2":0,"toosoon":0,"cond_shown":"randomdotsizeEA","ratio_trial":250,"smaller_num":"4","larger_num":"16","correct_side":1,"subjID":"SamuelBarretoBarrera23","gender":"0","age":"11","school":"6"},{"start_time":1551881256655,"click_time":1551881257853,"finger_time":1551881257373,"fix_duration":320.0510014106491,"trial":23,"RT":718,"MT":480,"sideResp":2,"stimulus":"img/900/equaldotanddens/L/1_Ratio_900_L_10_R_9.png","xmouse":[829,829,829,829,829,829,829,829,829,829,829,829,829,829,829,829,829,829,829,829,829,829,829,829,829,829,829,829,829,829,829,829,829,829,831,834,837,839,841,848,859,865,872,880,888,906,914,923,932,941,953,959,964,974,991,1040,1070,1095,1112,1120],"ymouse":[468,468,468,468,468,468,468,468,468,468,468,468,468,468,468,468,468,468,468,468,468,468,468,468,468,468,468,468,468,468,468,468,467,464,456,443,433,425,412,388,346,324,300,278,256,218,202,188,177,168,160,157,154,151,145,131,120,110,101,96],"timestamp_mouse":[17,37,58,79,97,117,138,157,179,199,217,238,258,277,297,317,338,357,378,399,418,439,459,479,498,518,538,558,578,597,617,638,657,679,698,718,738,759,777,797,818,838,857,878,897,918,938,957,978,998,1017,1038,1058,1079,1098,1117,1137,1158,1179,1198],"xSR":741.5,"ySR":449.15000000000003,"xT1":424.9,"yT1":0,"xT2":1058.1,"yT2":0,"toosoon":0,"cond_shown":"equaldotanddens","ratio_trial":900,"smaller_num":"9","larger_num":"10","correct_side":1,"subjID":"SamuelBarretoBarrera23","gender":"0","age":"11","school":"6"},{"start_time":1551881261033,"click_time":1551881262774,"finger_time":1551881262172,"fix_duration":840.6712833270225,"trial":24,"RT":1139,"MT":602,"sideResp":1,"stimulus":"img/750/equaldotsize/R/3_Ratio_750_L_15_R_20.png","xmouse":[829,829,829,829,829,829,829,829,829,829,829,829,829,829,829,829,829,829,829,829,829,829,829,829,829,829,829,829,829,829,829,829,829,829,829,829,829,829,829,829,829,829,829,829,829,829,829,829,829,829,829,827,821,814,804,794,772,760,749,736,722,709,702,698,695,693,685,680,673,663,655,650,650,650,650,644,627,626,626,626,626,626,626,626,626,481,454],"ymouse":[506,506,506,506,506,506,506,506,506,506,506,506,506,506,506,506,506,506,506,506,506,506,506,506,506,506,506,506,506,506,506,506,506,506,506,506,506,506,506,506,506,506,506,506,506,506,506,506,506,506,506,502,495,489,479,467,437,421,405,386,364,342,333,328,323,319,307,298,289,278,266,221,193,159,120,79,13,1,1,1,1,1,1,1,1,0,21],"timestamp_mouse":[21,40,60,79,100,121,141,160,181,199,221,239,259,279,299,319,341,360,379,400,420,439,461,479,501,520,539,561,579,600,620,640,661,679,699,719,740,759,781,800,819,840,860,879,901,919,939,961,979,999,1021,1040,1060,1081,1101,1119,1139,1160,1180,1200,1219,1240,1261,1279,1300,1320,1340,1360,1380,1400,1419,1439,1461,1479,1500,1519,1540,1560,1579,1599,1620,1640,1661,1680,1701,1721,1741],"xSR":741.5,"ySR":449.15000000000003,"xT1":424.9,"yT1":0,"xT2":1058.1,"yT2":0,"toosoon":0,"cond_shown":"equaldotsize","ratio_trial":750,"smaller_num":"15","larger_num":"20","correct_side":2,"subjID":"SamuelBarretoBarrera23","gender":"0","age":"11","school":"6"},{"start_time":1551881263929,"click_time":1551881264973,"finger_time":1551881264573,"fix_duration":254.2808441121197,"trial":25,"RT":644,"MT":400,"sideResp":1,"stimulus":"img/500/equaldotanddens/L/8_Ratio_500_L_8_R_4.png","xmouse":[827,827,827,827,827,827,827,827,827,827,827,827,827,827,827,829,829,832,834,834,835,835,835,835,835,835,835,835,835,835,835,835,834,821,806,787,769,706,689,677,677,677,677,677,677,677,677,677,677,677,677,677,456],"ymouse":[539,539,539,539,539,539,539,539,539,539,539,539,539,539,539,537,534,525,520,517,515,515,515,515,515,515,515,515,515,514,509,493,420,359,297,232,170,49,17,0,0,0,0,0,0,0,0,0,0,0,0,0,18],"timestamp_mouse":[9,24,44,63,83,103,124,143,164,183,205,224,244,264,285,304,323,344,365,383,405,424,444,464,484,503,523,544,564,583,605,623,644,664,685,703,724,744,765,783,804,823,845,865,884,903,923,944,963,984,1004,1024,1043],"xSR":741.5,"ySR":449.15000000000003,"xT1":424.9,"yT1":0,"xT2":1058.1,"yT2":0,"toosoon":0,"cond_shown":"equaldotanddens","ratio_trial":500,"smaller_num":"4","larger_num":"8","correct_side":1,"subjID":"SamuelBarretoBarrera23","gender":"0","age":"11","school":"6"},{"start_time":1551881266437,"click_time":1551881267432,"finger_time":1551881267113,"fix_duration":622.534955479988,"trial":26,"RT":676,"MT":319,"sideResp":2,"stimulus":"img/750/equaldotsize/R/12_Ratio_750_L_3_R_4.png","xmouse":[796,796,796,796,796,796,796,796,796,796,796,796,796,796,796,796,796,796,796,796,796,796,796,796,796,796,796,796,796,796,796,796,814,849,886,919,963,975,985,991,996,1016,1024,1038,1050,1062,1078,1085,1090,1095],"ymouse":[497,497,497,497,497,497,497,497,497,497,497,497,497,497,497,497,497,497,497,497,497,497,497,497,497,497,497,497,497,497,497,497,478,444,411,375,324,304,290,280,272,249,240,225,211,193,152,129,106,81],"timestamp_mouse":[15,49,56,76,95,115,136,156,177,196,216,235,257,277,295,316,335,356,375,395,416,437,456,475,495,517,536,555,576,596,615,636,657,676,696,716,737,755,775,795,815,835,856,876,896,915,936,956,977,995],"xSR":741.5,"ySR":449.15000000000003,"xT1":424.9,"yT1":0,"xT2":1058.1,"yT2":0,"toosoon":0,"cond_shown":"equaldotsize","ratio_trial":750,"smaller_num":"3","larger_num":"4","correct_side":2,"subjID":"SamuelBarretoBarrera23","gender":"0","age":"11","school":"6"},{"start_time":1551881269093,"click_time":1551881270373,"finger_time":1551881269974,"fix_duration":978.7722050541203,"trial":27,"RT":881,"MT":399,"sideResp":1,"stimulus":"img/750/equaldotsize/L/8_Ratio_750_L_4_R_3.png","xmouse":[796,796,796,796,796,796,796,796,796,796,796,796,796,796,796,796,796,796,796,796,796,796,796,796,796,796,796,796,796,796,796,796,796,796,796,796,796,796,796,796,796,793,789,783,763,754,745,738,733,720,715,705,695,687,669,656,640,624,611,577,565,555,543,535,523],"ymouse":[497,497,497,497,497,497,497,497,497,497,497,497,497,497,497,497,497,497,497,497,497,497,497,497,497,497,497,497,497,497,497,497,497,497,497,497,497,497,497,497,497,495,485,469,423,399,375,352,332,302,294,284,276,267,243,227,208,189,173,130,115,100,87,77,67],"timestamp_mouse":[1,33,39,60,80,100,119,140,160,180,199,220,239,260,279,300,320,339,361,379,400,420,440,460,481,499,519,540,559,580,600,621,640,659,680,699,721,739,759,780,799,820,839,860,881,900,921,939,960,980,1000,1020,1040,1060,1081,1100,1119,1139,1160,1180,1200,1220,1240,1261,1280],"xSR":741.5,"ySR":449.15000000000003,"xT1":424.9,"yT1":0,"xT2":1058.1,"yT2":0,"toosoon":0,"cond_shown":"equaldotsize","ratio_trial":750,"smaller_num":"3","larger_num":"4","correct_side":1,"subjID":"SamuelBarretoBarrera23","gender":"0","age":"11","school":"6"},{"start_time":1551881272309,"click_time":1551881273334,"finger_time":1551881273033,"fix_duration":1034.9007530589215,"trial":28,"RT":724,"MT":301,"sideResp":1,"stimulus":"img/250/equaldotsize/L/14_Ratio_250_L_12_R_3.png","xmouse":[752,752,752,752,752,752,752,752,752,752,752,752,752,752,752,752,752,752,752,752,752,752,752,752,752,752,752,752,752,752,752,752,752,752,751,746,739,713,671,648,622,595,573,533,522,515,511,510,509,508,508,507],"ymouse":[535,535,535,535,535,535,535,535,535,535,535,535,535,535,535,535,535,535,535,535,535,535,535,535,535,535,535,535,535,535,535,535,535,535,526,518,498,454,382,342,302,261,224,165,146,131,122,118,112,108,104,97],"timestamp_mouse":[9,38,44,64,83,104,125,144,164,184,204,224,243,264,283,303,324,343,365,383,404,424,443,465,485,503,525,544,563,584,604,624,643,664,684,705,724,743,763,784,803,824,843,863,883,903,923,945,964,984,1003,1025],"xSR":741.5,"ySR":449.15000000000003,"xT1":424.9,"yT1":0,"xT2":1058.1,"yT2":0,"toosoon":0,"cond_shown":"equaldotsize","ratio_trial":250,"smaller_num":"3","larger_num":"12","correct_side":1,"subjID":"SamuelBarretoBarrera23","gender":"0","age":"11","school":"6"},{"start_time":1551881275300,"click_time":1551881276413,"finger_time":1551881276072,"fix_duration":1046.8954406074602,"trial":29,"RT":772,"MT":341,"sideResp":1,"stimulus":"img/900/randomdotsizeEA/L/8_Ratio_900_L_20_R_18.png","xmouse":[816,816,816,816,816,816,816,816,816,816,816,816,816,816,816,816,816,816,816,816,816,816,816,816,816,816,816,816,816,816,816,816,816,816,816,816,813,810,799,792,787,781,777,764,757,748,741,731,712,704,694,680,659,592,549,507],"ymouse":[477,477,477,477,477,477,477,477,477,477,477,477,477,477,477,477,477,477,477,477,477,477,477,477,477,477,477,477,477,477,477,477,477,477,477,477,477,471,437,413,386,352,325,279,259,239,220,203,173,164,155,147,138,119,107,94],"timestamp_mouse":[13,33,53,73,93,112,133,152,174,192,213,234,253,273,292,313,333,352,373,393,413,432,453,472,493,514,532,552,574,592,612,633,652,672,693,714,734,752,772,793,813,833,854,873,893,912,933,954,972,993,1014,1032,1053,1074,1092,1112],"xSR":741.5,"ySR":449.15000000000003,"xT1":424.9,"yT1":0,"xT2":1058.1,"yT2":0,"toosoon":0,"cond_shown":"randomdotsizeEA","ratio_trial":900,"smaller_num":"18","larger_num":"20","correct_side":1,"subjID":"SamuelBarretoBarrera23","gender":"0","age":"11","school":"6"},{"start_time":1551881280352,"click_time":1551881281612,"finger_time":1551881281173,"fix_duration":1198.0855428993573,"trial":30,"RT":821,"MT":439,"sideResp":2,"stimulus":"img/750/equaldotanddens/R/12_Ratio_750_L_3_R_4.png","xmouse":[774,774,774,774,774,774,774,774,774,774,774,774,774,774,774,774,774,774,774,774,774,774,774,774,774,774,774,774,774,774,774,774,774,774,774,774,774,774,781,786,793,814,825,836,848,861,898,915,933,952,974,1016,1027,1036,1042,1047,1048,1049,1050,1051,1052,1059,1065,1070],"ymouse":[507,507,507,507,507,507,507,507,507,507,507,507,507,507,507,507,507,507,507,507,507,507,507,507,507,507,507,507,507,507,507,507,507,507,507,507,507,507,498,485,468,421,397,378,359,343,295,274,254,236,218,189,180,174,169,160,151,146,142,137,131,114,101,89],"timestamp_mouse":[6,20,41,62,80,100,121,140,162,180,201,220,242,260,282,301,320,340,361,380,402,420,440,460,480,501,521,540,561,582,601,620,641,660,682,700,720,741,761,781,800,821,841,861,881,901,920,940,961,982,1001,1022,1040,1062,1082,1102,1121,1141,1160,1181,1202,1222,1240,1260],"xSR":741.5,"ySR":449.15000000000003,"xT1":424.9,"yT1":0,"xT2":1058.1,"yT2":0,"toosoon":0,"cond_shown":"equaldotanddens","ratio_trial":750,"smaller_num":"3","larger_num":"4","correct_side":2,"subjID":"SamuelBarretoBarrera23","gender":"0","age":"11","school":"6"},{"start_time":1551881283315,"click_time":1551881284672,"finger_time":1551881283933,"fix_duration":941.3493113929098,"trial":31,"RT":618,"MT":739,"sideResp":2,"stimulus":"img/500/equaldotanddens/R/12_Ratio_500_L_1_R_2.png","xmouse":[792,792,792,792,792,792,792,792,792,792,792,792,792,792,792,792,792,792,792,792,792,792,792,792,792,792,792,792,797,807,819,826,837,840,844,846,848,856,859,865,872,880,900,910,922,935,938,962,973,982,991,1005,1009,1013,1017,1019,1023,1032,1037,1041,1044,1047,1056,1062,1069,1077,1085,1103],"ymouse":[484,484,484,484,484,484,484,484,484,484,484,484,484,484,484,484,484,484,484,484,484,484,484,484,484,484,484,484,475,456,434,413,383,372,366,359,354,338,328,314,300,283,251,238,227,217,214,203,198,193,188,179,176,171,167,164,160,148,142,138,133,130,123,120,115,111,107,99],"timestamp_mouse":[18,37,57,77,99,118,139,157,179,199,219,238,259,279,298,317,338,358,377,397,418,438,457,477,498,517,537,557,579,599,618,638,659,678,697,717,738,758,779,798,818,837,858,878,897,918,938,957,978,997,1017,1039,1058,1077,1098,1119,1138,1157,1177,1198,1217,1238,1257,1277,1297,1318,1338,1357],"xSR":741.5,"ySR":449.15000000000003,"xT1":424.9,"yT1":0,"xT2":1058.1,"yT2":0,"toosoon":0,"cond_shown":"equaldotanddens","ratio_trial":500,"smaller_num":"1","larger_num":"2","correct_side":2,"subjID":"SamuelBarretoBarrera23","gender":"0","age":"11","school":"6"},{"start_time":1551881288103,"click_time":1551881289273,"finger_time":1551881288852,"fix_duration":967.8337948157572,"trial":32,"RT":749,"MT":421,"sideResp":1,"stimulus":"img/500/randomdotsizeEA/L/13_Ratio_500_L_12_R_6.png","xmouse":[790,790,790,790,790,790,790,790,790,790,790,790,790,790,790,790,790,790,790,790,790,790,790,790,790,790,790,790,790,790,790,790,790,795,801,809,821,838,856,862,866,867,867,859,851,843,836,820,784,761,726,683,640,558,528,505,486,472,443],"ymouse":[504,504,504,504,504,504,504,504,504,504,504,504,504,504,504,504,504,504,504,504,504,504,504,504,504,504,504,504,504,504,504,504,503,490,483,473,458,433,399,384,371,360,350,333,325,316,309,294,268,253,230,203,178,139,126,118,112,108,99],"timestamp_mouse":[9,36,49,71,89,110,130,149,169,190,209,230,249,271,289,309,331,349,371,390,409,431,449,470,489,510,529,550,570,589,609,629,651,669,691,711,729,749,769,790,810,829,849,870,890,910,931,950,970,990,1010,1031,1051,1070,1089,1109,1130,1150,1170],"xSR":741.5,"ySR":449.15000000000003,"xT1":424.9,"yT1":0,"xT2":1058.1,"yT2":0,"toosoon":0,"cond_shown":"randomdotsizeEA","ratio_trial":500,"smaller_num":"6","larger_num":"12","correct_side":1,"subjID":"SamuelBarretoBarrera23","gender":"0","age":"11","school":"6"},{"start_time":1551881291677,"click_time":1551881292953,"finger_time":1551881292374,"fix_duration":1402.2141135273632,"trial":33,"RT":697,"MT":579,"sideResp":2,"stimulus":"img/500/equaldotanddens/R/2_Ratio_500_L_3_R_6.png","xmouse":[776,776,776,776,776,776,776,776,776,776,776,776,776,776,776,776,776,776,776,776,776,776,776,776,776,776,776,776,776,776,776,776,776,776,784,788,793,800,810,825,834,845,856,869,885,892,899,906,916,924,926,928,931,935,947,956,966,978,990,1017,1027,1038,1050,1064],"ymouse":[482,482,482,482,482,482,482,482,482,482,482,482,482,482,482,482,482,482,482,482,482,482,482,482,482,482,482,482,482,482,482,482,476,471,445,429,412,396,377,357,345,335,325,315,296,283,271,259,244,232,229,226,222,218,203,191,180,167,152,120,109,98,88,79],"timestamp_mouse":[21,41,56,77,95,115,137,155,177,195,215,237,255,275,295,316,335,356,375,395,417,435,457,476,497,515,537,555,575,597,615,637,657,677,697,716,737,755,776,795,816,836,856,876,896,916,935,956,976,996,1017,1037,1056,1076,1096,1116,1137,1155,1176,1195,1216,1236,1256,1275],"xSR":741.5,"ySR":449.15000000000003,"xT1":424.9,"yT1":0,"xT2":1058.1,"yT2":0,"toosoon":0,"cond_shown":"equaldotanddens","ratio_trial":500,"smaller_num":"3","larger_num":"6","correct_side":2,"subjID":"SamuelBarretoBarrera23","gender":"0","age":"11","school":"6"},{"start_time":1551881295133,"click_time":1551881296393,"finger_time":1551881295773,"fix_duration":1059.3988886223444,"trial":34,"RT":640,"MT":620,"sideResp":2,"stimulus":"img/250/equaldotanddens/R/11_Ratio_250_L_3_R_12.png","xmouse":[790,790,790,790,790,790,790,790,790,790,790,790,790,790,790,790,790,790,790,790,790,790,790,790,790,790,790,790,790,791,793,799,815,828,835,843,851,869,875,882,889,899,923,941,961,980,997,1028,1039,1048,1054,1058,1059,1059,1059,1060,1060,1064,1067,1069,1072,1075,1083,1090],"ymouse":[477,477,477,477,477,477,477,477,477,477,477,477,477,477,477,477,477,477,477,477,477,477,477,477,477,477,477,477,477,472,463,450,414,390,373,358,344,319,312,305,297,284,257,239,223,207,192,156,144,134,127,124,123,123,123,122,122,118,115,113,110,108,100,94],"timestamp_mouse":[1,19,39,60,79,100,119,139,161,180,199,221,241,259,280,300,319,341,359,380,400,420,440,460,479,499,520,540,560,581,601,620,640,660,681,699,719,740,760,780,799,819,839,860,881,900,920,939,960,980,1000,1020,1039,1059,1080,1100,1120,1140,1160,1180,1199,1219,1240,1259],"xSR":741.5,"ySR":449.15000000000003,"xT1":424.9,"yT1":0,"xT2":1058.1,"yT2":0,"toosoon":0,"cond_shown":"equaldotanddens","ratio_trial":250,"smaller_num":"3","larger_num":"12","correct_side":2,"subjID":"SamuelBarretoBarrera23","gender":"0","age":"11","school":"6"},{"start_time":1551881298323,"click_time":1551881299453,"finger_time":1551881299033,"fix_duration":927.2596429294291,"trial":35,"RT":710,"MT":420,"sideResp":2,"stimulus":"img/750/equaldotanddens/R/3_Ratio_750_L_15_R_20.png","xmouse":[774,774,774,774,774,774,774,774,774,774,774,774,774,774,774,774,774,774,774,774,774,774,774,774,774,774,774,774,774,776,777,778,784,788,796,809,830,915,946,964,976,985,996,999,1002,1004,1007,1013,1017,1021,1026,1031,1040,1047,1054,1061,1071],"ymouse":[494,494,494,494,494,494,494,494,494,494,494,494,494,494,494,494,494,494,494,494,494,494,494,494,494,494,494,494,494,492,490,488,480,474,463,446,424,351,321,300,281,265,244,239,233,228,222,206,198,188,179,167,150,138,126,114,96],"timestamp_mouse":[10,44,49,69,91,109,130,149,170,191,211,229,250,271,289,310,329,350,369,389,411,429,450,471,489,511,529,550,569,591,611,629,649,671,690,710,731,750,771,790,811,830,850,870,891,910,930,950,971,990,1011,1030,1049,1070,1091,1111,1130],"xSR":741.5,"ySR":449.15000000000003,"xT1":424.9,"yT1":0,"xT2":1058.1,"yT2":0,"toosoon":0,"cond_shown":"equaldotanddens","ratio_trial":750,"smaller_num":"15","larger_num":"20","correct_side":2,"subjID":"SamuelBarretoBarrera23","gender":"0","age":"11","school":"6"},{"start_time":1551881301131,"click_time":1551881302254,"finger_time":1551881301853,"fix_duration":675.5118997082863,"trial":36,"RT":722,"MT":401,"sideResp":1,"stimulus":"img/500/randomdotsizeEA/L/11_Ratio_500_L_12_R_6.png","xmouse":[820,820,820,820,820,820,820,820,820,820,820,820,820,820,820,820,820,820,820,820,820,820,820,820,820,820,820,820,820,820,820,820,820,820,820,813,804,770,752,735,722,710,691,682,673,665,655,627,620,614,607,601,578,561,544,527,499],"ymouse":[483,483,483,483,483,483,483,483,483,483,483,483,483,483,483,483,483,483,483,483,483,483,483,483,483,483,483,483,483,483,483,483,483,481,477,463,442,364,328,299,269,245,205,190,174,164,151,137,134,132,129,126,116,109,102,94,81],"timestamp_mouse":[8,23,42,61,83,101,122,142,162,182,203,222,241,262,282,301,321,343,362,381,403,421,441,461,482,501,523,542,562,583,601,622,643,661,683,703,722,741,761,782,802,821,841,862,883,901,922,941,963,983,1002,1021,1041,1061,1082,1101,1123],"xSR":741.5,"ySR":449.15000000000003,"xT1":424.9,"yT1":0,"xT2":1058.1,"yT2":0,"toosoon":0,"cond_shown":"randomdotsizeEA","ratio_trial":500,"smaller_num":"6","larger_num":"12","correct_side":1,"subjID":"SamuelBarretoBarrera23","gender":"0","age":"11","school":"6"},{"start_time":1551881304085,"click_time":1551881305132,"finger_time":1551881304672,"fix_duration":810.7088333920708,"trial":37,"RT":587,"MT":460,"sideResp":2,"stimulus":"img/500/randomdotsizeEA/R/2_Ratio_500_L_3_R_6.png","xmouse":[756,756,756,756,756,756,756,756,756,756,756,756,756,756,756,756,756,756,756,756,756,756,756,756,756,757,762,769,782,805,819,834,848,861,882,890,897,905,911,928,935,944,952,958,970,977,986,1000,1015,1049,1064,1074,1082],"ymouse":[480,480,480,480,480,480,480,480,480,480,480,480,480,480,480,480,480,480,480,480,480,480,480,480,480,480,474,464,450,429,416,400,384,364,328,312,300,287,277,243,231,220,211,204,188,181,171,161,150,124,113,103,92],"timestamp_mouse":[8,35,49,67,88,108,127,147,168,189,208,227,248,267,287,308,328,348,367,388,409,428,448,468,488,508,529,549,568,587,609,628,647,667,688,708,727,748,768,787,807,827,848,867,888,908,929,948,967,987,1009,1028,1047],"xSR":741.5,"ySR":449.15000000000003,"xT1":424.9,"yT1":0,"xT2":1058.1,"yT2":0,"toosoon":0,"cond_shown":"randomdotsizeEA","ratio_trial":500,"smaller_num":"3","larger_num":"6","correct_side":2,"subjID":"SamuelBarretoBarrera23","gender":"0","age":"11","school":"6"},{"start_time":1551881307420,"click_time":1551881308773,"finger_time":1551881308212,"fix_duration":1246.933969102136,"trial":38,"RT":792,"MT":561,"sideResp":1,"stimulus":"img/900/equaldotsize/L/8_Ratio_900_L_20_R_18.png","xmouse":[804,804,804,804,804,804,804,804,804,804,804,804,804,804,804,804,804,804,804,804,804,804,804,804,804,804,804,804,804,804,804,804,804,804,804,804,803,797,789,776,748,738,690,673,659,646,636,620,614,606,600,595,578,567,555,541,531,527,527,527,527,527,527,527,527,527,526,514],"ymouse":[487,487,487,487,487,487,487,487,487,487,487,487,487,487,487,487,487,487,487,487,487,487,487,487,487,487,487,487,487,487,487,487,487,487,487,487,488,479,466,445,405,392,335,317,297,278,260,225,208,192,175,160,119,99,81,63,52,46,46,46,46,46,46,46,46,46,46,46],"timestamp_mouse":[13,36,52,73,93,113,133,153,173,194,213,232,252,272,292,313,333,354,373,392,412,432,452,472,492,514,533,552,572,592,614,632,652,673,692,713,732,752,774,792,813,834,852,873,892,912,932,953,973,993,1013,1033,1052,1072,1092,1112,1132,1152,1172,1193,1213,1232,1252,1274,1293,1312,1333,1353],"xSR":741.5,"ySR":449.15000000000003,"xT1":424.9,"yT1":0,"xT2":1058.1,"yT2":0,"toosoon":0,"cond_shown":"equaldotsize","ratio_trial":900,"smaller_num":"18","larger_num":"20","correct_side":1,"subjID":"SamuelBarretoBarrera23","gender":"0","age":"11","school":"6"},{"start_time":1551881310404,"click_time":1551881311473,"finger_time":1551881311152,"fix_duration":609.6164369491905,"trial":39,"RT":748,"MT":321,"sideResp":2,"stimulus":"img/750/randomdotsizeEA/R/11_Ratio_750_L_12_R_16.png","xmouse":[765,765,765,765,765,765,765,765,765,765,765,765,765,765,765,765,765,765,765,765,765,765,765,765,765,765,765,765,765,765,765,765,765,765,767,770,775,783,811,828,838,849,859,889,904,919,937,958,995,1011,1024,1034,1048,1059],"ymouse":[474,474,474,474,474,474,474,474,474,474,474,474,474,474,474,474,474,474,474,474,474,474,474,474,474,474,474,474,474,474,474,474,474,474,474,469,460,446,407,385,371,356,341,296,272,245,216,183,125,99,77,60,41,36],"timestamp_mouse":[8,42,48,70,90,108,130,150,169,189,209,229,248,270,288,309,328,349,370,389,409,428,449,468,488,509,530,548,569,589,608,630,648,668,688,710,729,748,769,789,809,829,848,868,889,909,929,949,968,988,1009,1028,1048,1069],"xSR":741.5,"ySR":449.15000000000003,"xT1":424.9,"yT1":0,"xT2":1058.1,"yT2":0,"toosoon":0,"cond_shown":"randomdotsizeEA","ratio_trial":750,"smaller_num":"12","larger_num":"16","correct_side":2,"subjID":"SamuelBarretoBarrera23","gender":"0","age":"11","school":"6"},{"start_time":1551881312645,"click_time":1551881313794,"finger_time":1551881313473,"fix_duration":250,"trial":40,"RT":828,"MT":321,"sideResp":1,"stimulus":"img/900/randomdotsizeEA/L/2_Ratio_900_L_20_R_18.png","xmouse":[783,783,783,783,783,783,783,783,783,783,783,783,783,783,783,783,783,783,783,783,783,783,783,783,783,783,783,783,783,783,783,783,783,782,780,780,775,775,774,773,772,767,758,745,719,686,610,584,567,555,548,531,525,518,512,509,509,509],"ymouse":[486,486,486,486,486,486,486,486,486,486,486,486,486,486,486,486,486,486,486,486,486,486,486,486,486,486,486,486,486,486,486,486,486,487,480,477,464,461,458,457,454,441,427,408,379,349,299,280,265,250,235,197,182,165,148,135,107,92],"timestamp_mouse":[8,42,48,67,87,109,129,148,168,188,207,227,247,268,288,308,329,348,369,388,407,428,449,467,488,508,529,548,568,587,609,628,647,668,688,708,729,748,767,787,809,828,848,868,888,908,928,949,969,988,1008,1028,1048,1067,1089,1108,1128,1149],"xSR":741.5,"ySR":449.15000000000003,"xT1":424.9,"yT1":0,"xT2":1058.1,"yT2":0,"toosoon":0,"cond_shown":"randomdotsizeEA","ratio_trial":900,"smaller_num":"18","larger_num":"20","correct_side":1,"subjID":"SamuelBarretoBarrera23","gender":"0","age":"11","school":"6"},{"start_time":1551881315039,"click_time":1551881316272,"finger_time":1551881316033,"fix_duration":325.16711353161764,"trial":41,"RT":994,"MT":239,"sideResp":1,"stimulus":"img/750/randomdotsizeEA/L/8_Ratio_750_L_4_R_3.png","xmouse":[788,788,788,788,788,788,788,788,788,788,788,788,788,788,788,788,788,788,788,788,788,788,788,788,788,788,788,788,788,788,788,788,788,788,788,788,788,788,788,788,788,788,788,788,788,788,785,781,773,760,746,701,685,671,656,644,618,605,587,567,545,522],"ymouse":[473,473,473,473,473,473,473,473,473,473,473,473,473,473,473,473,473,473,473,473,473,473,473,473,473,473,473,473,473,473,473,473,473,473,473,473,473,473,473,473,473,473,473,473,473,473,472,464,450,431,411,356,335,314,293,272,228,206,180,153,124,85],"timestamp_mouse":[14,41,54,74,94,115,133,153,174,195,214,234,253,274,294,315,334,355,373,394,415,433,455,473,493,513,534,554,574,594,614,633,654,674,695,714,733,754,773,793,814,833,854,874,894,915,935,954,974,994,1015,1034,1054,1073,1094,1114,1134,1154,1174,1193,1214,1233],"xSR":741.5,"ySR":449.15000000000003,"xT1":424.9,"yT1":0,"xT2":1058.1,"yT2":0,"toosoon":0,"cond_shown":"randomdotsizeEA","ratio_trial":750,"smaller_num":"3","larger_num":"4","correct_side":1,"subjID":"SamuelBarretoBarrera23","gender":"0","age":"11","school":"6"},{"start_time":1551881317935,"click_time":1551881318854,"finger_time":1551881318714,"fix_duration":720.9231330524489,"trial":42,"RT":779,"MT":140,"sideResp":2,"stimulus":"img/500/randomdotsizeEA/R/3_Ratio_500_L_10_R_20.png","xmouse":[793,793,793,793,793,793,793,793,793,793,793,793,793,793,793,793,793,793,793,793,793,793,793,793,793,793,793,793,793,793,793,793,793,793,795,798,820,836,854,881,941,974,1003,1028,1052,1070],"ymouse":[517,517,517,517,517,517,517,517,517,517,517,517,517,517,517,517,517,517,517,517,517,517,517,517,517,517,517,517,517,517,517,517,517,517,512,508,473,450,425,390,318,272,221,176,134,98],"timestamp_mouse":[19,40,57,78,97,118,138,159,177,199,219,239,259,279,297,317,338,358,378,397,417,437,459,477,499,517,538,558,578,598,619,637,657,678,699,718,738,757,779,798,819,837,857,878,897,918],"xSR":741.5,"ySR":449.15000000000003,"xT1":424.9,"yT1":0,"xT2":1058.1,"yT2":0,"toosoon":0,"cond_shown":"randomdotsizeEA","ratio_trial":500,"smaller_num":"10","larger_num":"20","correct_side":2,"subjID":"SamuelBarretoBarrera23","gender":"0","age":"11","school":"6"},{"start_time":1551881320339,"click_time":1551881321373,"finger_time":1551881321054,"fix_duration":524.4929347792481,"trial":43,"RT":715,"MT":319,"sideResp":2,"stimulus":"img/500/equaldotanddens/R/14_Ratio_500_L_5_R_10.png","xmouse":[783,783,783,783,783,783,783,783,783,783,783,783,783,783,783,783,783,783,783,783,783,783,783,783,783,783,783,783,783,783,783,783,791,799,821,865,903,922,941,958,974,1000,1015,1028,1040,1052,1070,1075,1079,1082,1086,1095],"ymouse":[481,481,481,481,481,481,481,481,481,481,481,481,481,481,481,481,481,481,481,481,481,481,481,481,481,481,481,481,481,481,481,481,478,471,459,426,394,380,362,344,324,283,259,237,216,194,153,140,129,119,109,90],"timestamp_mouse":[15,34,54,73,93,114,134,155,173,193,214,233,253,274,293,315,334,355,373,394,415,433,455,474,494,514,535,555,573,595,613,634,654,674,695,715,733,754,774,794,814,835,854,873,893,914,934,954,975,994,1014,1034],"xSR":741.5,"ySR":449.15000000000003,"xT1":424.9,"yT1":0,"xT2":1058.1,"yT2":0,"toosoon":0,"cond_shown":"equaldotanddens","ratio_trial":500,"smaller_num":"5","larger_num":"10","correct_side":2,"subjID":"SamuelBarretoBarrera23","gender":"0","age":"11","school":"6"},{"start_time":1551881323211,"click_time":1551881324113,"finger_time":1551881323854,"fix_duration":854.6356023181967,"trial":44,"RT":643,"MT":259,"sideResp":2,"stimulus":"img/250/equaldotsize/R/12_Ratio_250_L_5_R_20.png","xmouse":[794,794,794,794,794,794,794,794,794,794,794,794,794,794,794,794,793,793,793,793,793,793,793,793,793,793,793,793,793,792,792,799,826,884,908,926,942,958,985,998,1013,1026,1038,1062,1067,1074],"ymouse":[478,478,478,478,478,478,478,478,478,478,478,478,478,478,478,478,479,479,479,479,479,479,479,479,479,479,479,479,479,476,473,462,430,369,343,324,306,287,250,229,206,186,167,116,101,85],"timestamp_mouse":[8,22,47,62,82,101,121,142,161,183,201,222,242,262,282,302,322,342,361,382,402,422,442,463,482,503,522,542,562,582,602,621,643,662,682,701,722,742,763,782,801,822,842,862,883,902],"xSR":741.5,"ySR":449.15000000000003,"xT1":424.9,"yT1":0,"xT2":1058.1,"yT2":0,"toosoon":0,"cond_shown":"equaldotsize","ratio_trial":250,"smaller_num":"5","larger_num":"20","correct_side":2,"subjID":"SamuelBarretoBarrera23","gender":"0","age":"11","school":"6"},{"start_time":1551881325305,"click_time":1551881326872,"finger_time":1551881326034,"fix_duration":250,"trial":45,"RT":729,"MT":838,"sideResp":2,"stimulus":"img/500/equaldotanddens/R/14_Ratio_500_L_5_R_10.png","xmouse":[823,823,823,823,823,823,823,821,817,815,814,813,813,813,813,813,813,813,813,813,813,813,813,813,813,813,813,813,813,813,813,813,813,806,796,780,764,743,674,655,642,631,627,625,625,625,625,625,625,625,625,625,625,625,625,625,625,625,625,625,625,625,625,632,654,678,705,748,804,824,841,855,871,904,922,945,974,1030,1128],"ymouse":[505,505,505,505,505,505,505,505,505,505,505,505,505,505,505,505,505,505,505,505,505,505,505,505,505,505,505,505,505,505,505,505,505,501,489,469,443,404,305,279,260,247,240,238,238,238,238,238,238,238,238,238,238,238,238,238,238,238,238,238,238,238,238,237,240,242,243,239,211,193,174,158,146,131,126,120,112,100,79],"timestamp_mouse":[11,33,48,69,88,108,127,148,167,188,208,228,248,269,288,308,328,348,369,387,408,428,447,469,487,508,527,548,569,587,608,628,648,668,688,707,729,749,768,788,807,828,848,868,888,908,929,949,969,989,1007,1027,1048,1069,1089,1108,1129,1149,1167,1189,1209,1227,1249,1268,1289,1308,1328,1348,1368,1387,1407,1429,1448,1468,1487,1509,1528,1547,1567],"xSR":741.5,"ySR":449.15000000000003,"xT1":424.9,"yT1":0,"xT2":1058.1,"yT2":0,"toosoon":0,"cond_shown":"equaldotanddens","ratio_trial":500,"smaller_num":"5","larger_num":"10","correct_side":2,"subjID":"SamuelBarretoBarrera23","gender":"0","age":"11","school":"6"},{"start_time":1551881328551,"click_time":1551881329472,"finger_time":1551881329213,"fix_duration":477.2627670261633,"trial":46,"RT":662,"MT":259,"sideResp":2,"stimulus":"img/250/randomdotsizeEA/R/4_Ratio_250_L_3_R_12.png","xmouse":[794,794,794,794,794,794,794,794,794,794,794,794,794,794,794,794,794,794,794,794,794,794,794,794,794,794,794,794,794,794,794,795,800,806,815,822,855,875,896,914,928,957,971,986,1006,1036,1064],"ymouse":[469,469,469,469,469,469,469,469,469,469,469,469,469,469,469,469,469,469,469,469,469,469,469,469,469,469,469,469,469,469,469,468,458,444,422,396,289,243,201,169,145,97,80,63,51,39,32],"timestamp_mouse":[8,21,50,63,82,102,122,141,161,183,201,222,242,263,283,302,321,341,362,382,402,423,442,462,483,501,523,542,562,583,602,621,642,662,683,702,722,743,762,783,801,821,842,863,882,902,921],"xSR":741.5,"ySR":449.15000000000003,"xT1":424.9,"yT1":0,"xT2":1058.1,"yT2":0,"toosoon":0,"cond_shown":"randomdotsizeEA","ratio_trial":250,"smaller_num":"3","larger_num":"12","correct_side":2,"subjID":"SamuelBarretoBarrera23","gender":"0","age":"11","school":"6"},{"start_time":1551881331296,"click_time":1551881332753,"finger_time":1551881332372,"fix_duration":983.4946780451987,"trial":47,"RT":1076,"MT":381,"sideResp":2,"stimulus":"img/250/equaldotanddens/R/9_Ratio_250_L_3_R_12.png","xmouse":[780,780,780,780,780,780,780,780,780,780,780,780,780,780,780,780,780,780,780,780,780,780,780,780,780,780,780,780,780,780,780,780,780,780,780,780,780,780,780,780,780,780,780,780,780,780,780,780,784,792,800,810,822,845,857,872,886,918,941,955,968,981,991,1010,1017,1023,1031,1041,1063,1072,1079,1088,1095],"ymouse":[485,485,485,485,485,485,485,485,485,485,485,485,485,485,485,485,485,485,485,485,485,485,485,485,485,485,485,485,485,485,485,485,485,485,485,485,485,485,485,485,485,485,485,485,485,485,485,485,483,477,471,463,453,432,418,403,388,351,324,308,297,283,271,245,232,218,202,187,152,138,122,109,96],"timestamp_mouse":[17,38,57,76,97,117,138,158,177,197,218,237,258,276,296,316,337,357,378,398,417,436,457,476,497,516,538,556,577,596,618,636,657,677,697,718,737,756,776,796,818,837,856,878,896,918,937,956,977,997,1017,1037,1058,1076,1098,1117,1138,1158,1176,1197,1217,1238,1256,1278,1297,1316,1336,1357,1377,1397,1416,1438,1457],"xSR":741.5,"ySR":449.15000000000003,"xT1":424.9,"yT1":0,"xT2":1058.1,"yT2":0,"toosoon":0,"cond_shown":"equaldotanddens","ratio_trial":250,"smaller_num":"3","larger_num":"12","correct_side":2,"subjID":"SamuelBarretoBarrera23","gender":"0","age":"11","school":"6"},{"start_time":1551881334702,"click_time":1551881335712,"finger_time":1551881335354,"fix_duration":827.0211486788584,"trial":48,"RT":652,"MT":358,"sideResp":1,"stimulus":"img/900/equaldotanddens/L/10_Ratio_900_L_20_R_18.png","xmouse":[798,798,798,798,798,798,798,798,798,798,798,798,798,798,798,798,798,798,798,798,798,798,798,798,798,798,798,798,798,798,798,787,758,728,699,673,643,620,581,576,571,566,559,551,550,548,548,546,536,527,514],"ymouse":[473,473,473,473,473,473,473,473,473,473,473,473,473,473,473,473,473,473,473,473,473,473,473,473,473,473,473,473,473,473,473,465,439,404,372,340,307,280,232,221,211,200,190,170,163,155,147,140,117,103,89],"timestamp_mouse":[11,40,51,70,91,111,131,151,172,190,211,232,250,272,292,311,330,351,371,391,410,430,451,472,490,512,532,550,571,590,611,631,652,670,690,712,732,752,771,791,811,832,851,871,890,910,932,951,972,991,1010],"xSR":741.5,"ySR":449.15000000000003,"xT1":424.9,"yT1":0,"xT2":1058.1,"yT2":0,"toosoon":0,"cond_shown":"equaldotanddens","ratio_trial":900,"smaller_num":"18","larger_num":"20","correct_side":1,"subjID":"SamuelBarretoBarrera23","gender":"0","age":"11","school":"6"},{"start_time":1551881336924,"click_time":1551881338274,"finger_time":1551881337673,"fix_duration":250,"trial":49,"RT":749,"MT":601,"sideResp":2,"stimulus":"img/500/equaldotanddens/R/12_Ratio_500_L_1_R_2.png","xmouse":[781,781,781,781,781,781,781,781,781,781,781,781,781,781,781,781,781,781,781,781,781,781,781,781,781,781,781,781,781,781,781,781,781,785,788,793,801,825,835,846,861,875,912,935,957,982,1013,1093,1121,1143,1161,1186,1195,1202,1206,1208,1209,1196,1194,1194,1194,1193,1190,1190,1190,1189,1183,1145],"ymouse":[490,490,490,490,490,490,490,490,490,490,490,490,490,490,490,490,490,490,490,490,490,490,490,490,490,490,490,490,490,490,490,490,490,489,483,473,463,437,425,412,400,388,360,344,325,303,274,212,192,173,154,122,109,99,90,83,69,50,47,46,46,46,45,45,45,45,45,45],"timestamp_mouse":[8,32,48,69,89,110,130,150,168,188,210,229,250,268,289,309,330,350,370,388,410,429,450,468,489,510,530,549,569,588,609,628,649,669,689,709,729,749,769,789,810,828,849,870,890,908,929,948,970,989,1009,1030,1048,1069,1089,1109,1130,1149,1170,1189,1210,1229,1249,1270,1289,1308,1329,1349],"xSR":741.5,"ySR":449.15000000000003,"xT1":424.9,"yT1":0,"xT2":1058.1,"yT2":0,"toosoon":0,"cond_shown":"equaldotanddens","ratio_trial":500,"smaller_num":"1","larger_num":"2","correct_side":2,"subjID":"SamuelBarretoBarrera23","gender":"0","age":"11","school":"6"},{"start_time":1551881339549,"click_time":1551881340873,"finger_time":1551881340373,"fix_duration":356.7314104929473,"trial":50,"RT":824,"MT":500,"sideResp":1,"stimulus":"img/900/equaldotsize/R/15_Ratio_900_L_9_R_10.png","xmouse":[769,769,769,769,769,769,769,769,769,769,769,769,769,769,769,769,769,769,769,769,769,769,769,769,769,769,769,769,769,769,769,769,769,769,769,769,769,769,769,763,748,728,720,714,709,702,697,691,688,683,678,667,659,649,642,633,600,589,577,566,556,548,547,547,547,536,505],"ymouse":[490,490,490,490,490,490,490,490,490,490,490,490,490,490,490,490,490,490,490,490,490,490,490,490,490,490,490,490,490,490,490,490,490,490,490,490,490,490,489,484,470,439,421,404,389,366,350,338,329,318,307,280,264,247,228,208,148,127,107,89,75,62,62,62,61,61,58],"timestamp_mouse":[9,38,43,65,84,103,125,143,164,183,204,223,245,263,285,303,324,343,364,385,403,424,445,464,484,503,523,545,563,583,605,623,644,663,684,705,723,745,763,784,803,824,844,865,885,905,924,943,963,984,1003,1023,1044,1064,1084,1105,1124,1144,1164,1184,1203,1224,1244,1264,1285,1303,1324],"xSR":741.5,"ySR":449.15000000000003,"xT1":424.9,"yT1":0,"xT2":1058.1,"yT2":0,"toosoon":0,"cond_shown":"equaldotsize","ratio_trial":900,"smaller_num":"9","larger_num":"10","correct_side":2,"subjID":"SamuelBarretoBarrera23","gender":"0","age":"11","school":"6"},{"start_time":1551881342104,"click_time":1551881343073,"finger_time":1551881342734,"fix_duration":250,"trial":51,"RT":630,"MT":339,"sideResp":1,"stimulus":"img/250/equaldotsize/L/5_Ratio_250_L_24_R_6.png","xmouse":[807,807,807,807,807,807,807,807,807,807,807,807,807,807,807,807,807,807,807,807,807,807,807,807,807,807,807,807,807,807,795,775,747,695,681,674,670,667,660,656,655,652,642,636,626,609,581,537,466],"ymouse":[475,475,475,475,475,475,475,475,475,475,475,475,475,475,475,475,475,475,475,475,475,475,475,475,475,475,475,475,475,474,461,441,414,355,335,317,303,293,272,263,256,248,224,212,197,177,155,122,62],"timestamp_mouse":[9,43,50,68,90,108,129,149,168,189,210,228,248,269,289,308,328,349,369,389,409,429,449,470,489,509,529,550,568,588,609,630,649,669,689,708,728,749,769,790,809,829,850,868,888,909,929,950,969],"xSR":741.5,"ySR":449.15000000000003,"xT1":424.9,"yT1":0,"xT2":1058.1,"yT2":0,"toosoon":0,"cond_shown":"equaldotsize","ratio_trial":250,"smaller_num":"6","larger_num":"24","correct_side":1,"subjID":"SamuelBarretoBarrera23","gender":"0","age":"11","school":"6"},{"start_time":1551881344801,"click_time":1551881345872,"finger_time":1551881345374,"fix_duration":946.5815170415223,"trial":52,"RT":573,"MT":498,"sideResp":2,"stimulus":"img/250/equaldotanddens/R/4_Ratio_250_L_3_R_12.png","xmouse":[776,776,776,776,776,776,776,776,776,776,776,776,776,776,776,776,776,776,776,776,776,776,776,776,776,776,777,779,792,801,812,824,837,872,887,901,913,927,954,965,975,985,993,1005,1008,1012,1018,1022,1029,1031,1034,1039,1043,1062],"ymouse":[472,472,472,472,472,472,472,472,472,472,472,472,472,472,472,472,472,472,472,472,472,472,472,472,472,472,471,466,434,416,398,379,362,312,289,265,244,224,192,179,169,161,154,139,134,129,121,116,107,104,100,96,93,84],"timestamp_mouse":[11,43,51,72,92,112,133,153,173,193,212,232,251,273,292,311,331,353,371,393,411,431,453,471,492,512,531,551,573,593,613,631,651,671,692,712,731,752,771,792,812,833,852,872,891,912,931,951,971,992,1012,1032,1052,1071],"xSR":741.5,"ySR":449.15000000000003,"xT1":424.9,"yT1":0,"xT2":1058.1,"yT2":0,"toosoon":0,"cond_shown":"equaldotanddens","ratio_trial":250,"smaller_num":"3","larger_num":"12","correct_side":2,"subjID":"SamuelBarretoBarrera23","gender":"0","age":"11","school":"6"},{"start_time":1551881347457,"click_time":1551881348573,"finger_time":1551881348112,"fix_duration":642.386706178046,"trial":53,"RT":655,"MT":461,"sideResp":1,"stimulus":"img/250/randomdotsizeEA/L/5_Ratio_250_L_24_R_6.png","xmouse":[791,791,791,791,791,791,791,791,791,791,791,791,791,791,791,791,791,791,791,791,791,791,791,791,791,791,791,791,791,790,777,761,745,734,729,721,717,711,704,678,656,643,632,618,607,590,584,579,576,573,565,558,548,536,525,508],"ymouse":[486,486,486,486,486,486,486,486,486,486,486,486,486,486,486,486,486,486,486,486,486,486,486,486,486,486,486,486,486,486,468,450,430,415,405,390,385,379,370,348,327,317,305,292,280,256,243,230,218,196,161,143,123,105,89,64],"timestamp_mouse":[16,39,55,76,97,116,136,156,176,195,216,236,256,275,297,316,336,357,377,396,417,436,457,476,497,515,537,556,576,596,615,636,655,677,695,716,736,757,776,797,815,836,856,876,896,915,936,956,976,995,1015,1036,1056,1077,1096,1116],"xSR":741.5,"ySR":449.15000000000003,"xT1":424.9,"yT1":0,"xT2":1058.1,"yT2":0,"toosoon":0,"cond_shown":"randomdotsizeEA","ratio_trial":250,"smaller_num":"6","larger_num":"24","correct_side":1,"subjID":"SamuelBarretoBarrera23","gender":"0","age":"11","school":"6"},{"start_time":1551881350350,"click_time":1551881351472,"finger_time":1551881351073,"fix_duration":1015.6138624139331,"trial":54,"RT":723,"MT":399,"sideResp":2,"stimulus":"img/750/equaldotsize/R/3_Ratio_750_L_15_R_20.png","xmouse":[824,824,824,824,824,824,824,824,824,824,824,824,824,824,824,824,824,824,824,824,824,824,824,824,824,824,824,824,824,824,824,825,826,827,829,832,850,860,868,880,892,916,929,946,962,982,1016,1027,1035,1040,1046,1054,1056,1057,1057,1057,1059],"ymouse":[512,512,512,512,512,512,512,512,512,512,512,512,512,512,512,512,512,512,512,512,512,512,512,512,512,512,512,512,512,512,512,512,510,507,501,495,464,447,431,414,393,350,329,308,289,264,210,188,167,147,126,102,96,94,93,92,90],"timestamp_mouse":[8,23,46,63,83,102,124,142,162,184,202,224,242,263,283,302,322,342,364,383,402,424,442,462,483,502,523,542,563,582,604,623,644,664,682,703,723,743,763,784,802,823,844,863,884,903,923,943,962,984,1002,1023,1044,1063,1082,1103,1122],"xSR":741.5,"ySR":449.15000000000003,"xT1":424.9,"yT1":0,"xT2":1058.1,"yT2":0,"toosoon":0,"cond_shown":"equaldotsize","ratio_trial":750,"smaller_num":"15","larger_num":"20","correct_side":2,"subjID":"SamuelBarretoBarrera23","gender":"0","age":"11","school":"6"},{"start_time":1551881354638,"click_time":1551881355533,"finger_time":1551881355373,"fix_duration":703.979991755348,"trial":55,"RT":735,"MT":160,"sideResp":1,"stimulus":"img/900/equaldotanddens/L/4_Ratio_900_L_20_R_18.png","xmouse":[769,769,769,769,769,769,769,769,769,769,769,769,769,769,769,769,769,769,769,769,769,769,769,769,769,769,769,769,769,769,769,769,769,766,760,752,708,687,670,654,641,592,564,536,504],"ymouse":[493,493,493,493,493,493,493,493,493,493,493,493,493,493,493,493,493,493,493,493,493,493,492,492,492,492,492,492,492,492,492,492,492,487,475,457,394,360,328,293,263,183,153,126,98],"timestamp_mouse":[15,37,56,74,95,116,135,155,175,195,215,236,255,276,295,315,335,356,374,395,416,436,456,475,495,514,536,555,575,595,614,636,654,675,694,714,735,755,774,795,815,835,855,874,895],"xSR":741.5,"ySR":449.15000000000003,"xT1":424.9,"yT1":0,"xT2":1058.1,"yT2":0,"toosoon":0,"cond_shown":"equaldotanddens","ratio_trial":900,"smaller_num":"18","larger_num":"20","correct_side":1,"subjID":"SamuelBarretoBarrera23","gender":"0","age":"11","school":"6"},{"start_time":1551881356985,"click_time":1551881358113,"finger_time":1551881357572,"fix_duration":411.5706001428092,"trial":56,"RT":587,"MT":541,"sideResp":2,"stimulus":"img/500/equaldotsize/R/14_Ratio_500_L_5_R_10.png","xmouse":[798,798,798,798,798,798,798,798,798,798,798,798,798,798,798,798,798,798,798,798,798,798,798,798,798,798,797,798,808,818,829,843,854,868,912,928,944,957,969,995,1005,1012,1017,1019,1035,1044,1049,1051,1051,1051,1051,1051,1052,1054,1054,1054,1060],"ymouse":[523,523,523,523,523,523,523,523,523,523,523,523,523,523,523,523,523,523,523,523,523,523,523,523,523,523,518,511,474,446,413,376,340,298,208,175,150,129,111,77,64,52,44,38,36,36,35,34,34,34,34,34,34,36,36,36,38],"timestamp_mouse":[9,36,48,69,88,108,129,148,168,188,209,227,247,268,289,308,327,347,368,388,409,427,449,469,489,507,528,548,569,587,608,629,648,668,688,708,727,749,767,789,808,829,848,868,888,909,928,948,969,987,1007,1028,1048,1068,1087,1108,1128],"xSR":741.5,"ySR":449.15000000000003,"xT1":424.9,"yT1":0,"xT2":1058.1,"yT2":0,"toosoon":0,"cond_shown":"equaldotsize","ratio_trial":500,"smaller_num":"5","larger_num":"10","correct_side":2,"subjID":"SamuelBarretoBarrera23","gender":"0","age":"11","school":"6"},{"start_time":1551881359158,"click_time":1551881360273,"finger_time":1551881359872,"fix_duration":301.93484780974853,"trial":57,"RT":714,"MT":401,"sideResp":2,"stimulus":"img/500/randomdotsizeEA/R/3_Ratio_500_L_10_R_20.png","xmouse":[783,783,783,783,784,786,786,786,786,787,787,787,787,787,787,787,787,787,787,787,787,787,787,787,787,787,787,787,787,787,787,789,792,797,813,829,842,855,871,889,921,935,947,958,967,991,997,1004,1012,1022,1041,1048,1053,1054,1057,1083],"ymouse":[522,522,521,519,516,513,511,510,510,509,509,509,509,509,509,509,509,509,509,509,509,509,509,509,509,509,509,509,509,509,509,504,500,493,470,446,426,402,373,348,302,282,259,241,221,179,163,148,134,123,106,99,94,91,88,80],"timestamp_mouse":[16,36,55,75,95,115,135,154,174,195,214,236,254,276,294,315,334,356,375,395,416,434,455,476,496,516,535,555,575,595,614,635,655,676,696,714,735,755,774,795,815,835,855,874,895,915,934,955,975,995,1015,1034,1055,1074,1094,1114],"xSR":741.5,"ySR":449.15000000000003,"xT1":424.9,"yT1":0,"xT2":1058.1,"yT2":0,"toosoon":0,"cond_shown":"randomdotsizeEA","ratio_trial":500,"smaller_num":"10","larger_num":"20","correct_side":2,"subjID":"SamuelBarretoBarrera23","gender":"0","age":"11","school":"6"},{"start_time":1551881361612,"click_time":1551881362773,"finger_time":1551881362352,"fix_duration":678.0499261864674,"trial":58,"RT":740,"MT":421,"sideResp":2,"stimulus":"img/750/randomdotsizeEA/R/15_Ratio_750_L_9_R_12.png","xmouse":[759,759,759,759,759,759,759,759,759,759,759,759,759,759,759,759,759,759,759,759,759,759,759,759,759,759,759,759,759,759,759,759,759,762,765,772,780,789,811,823,835,846,858,889,900,911,922,932,950,959,966,973,982,1005,1016,1027,1037,1050,1068],"ymouse":[485,485,485,485,485,485,485,485,485,485,485,485,485,485,485,485,485,485,485,485,485,485,485,485,485,485,485,485,485,485,485,485,485,484,479,470,460,449,419,403,383,364,343,288,269,250,229,209,172,155,139,124,112,90,83,77,73,70,66],"timestamp_mouse":[9,21,42,61,80,101,122,142,160,182,200,220,242,260,281,301,321,342,362,380,401,421,441,461,482,501,520,542,561,582,602,620,640,661,680,701,721,740,761,781,802,821,841,861,880,901,921,940,961,982,1002,1021,1041,1061,1080,1101,1121,1140,1161],"xSR":741.5,"ySR":449.15000000000003,"xT1":424.9,"yT1":0,"xT2":1058.1,"yT2":0,"toosoon":0,"cond_shown":"randomdotsizeEA","ratio_trial":750,"smaller_num":"9","larger_num":"12","correct_side":2,"subjID":"SamuelBarretoBarrera23","gender":"0","age":"11","school":"6"},{"start_time":1551881363825,"click_time":1551881365273,"finger_time":1551881364673,"fix_duration":250,"trial":59,"RT":848,"MT":600,"sideResp":1,"stimulus":"img/900/equaldotsize/L/2_Ratio_900_L_20_R_18.png","xmouse":[813,813,813,813,813,813,813,813,813,813,813,813,813,813,813,813,813,813,813,813,813,813,813,813,813,813,813,813,813,813,813,813,813,813,813,813,813,813,811,809,803,794,763,747,727,705,689,662,651,639,628,618,600,593,587,582,565,551,533,514,507,505,504,504,504,504,504,504,504,504,504,503,503],"ymouse":[526,525,525,525,525,525,525,525,525,525,525,525,525,525,525,525,525,525,525,525,525,525,525,525,525,525,525,525,525,525,525,525,525,525,524,524,523,519,515,508,500,487,444,422,393,361,336,287,269,250,238,226,204,197,189,182,163,153,142,131,127,125,124,124,124,124,124,124,124,124,124,120,94],"timestamp_mouse":[10,27,47,69,87,108,127,147,167,188,207,228,247,268,288,309,327,348,368,387,409,427,448,468,488,508,527,547,569,589,608,629,648,668,689,708,728,749,767,788,807,828,848,868,887,909,927,948,968,988,1008,1028,1047,1067,1087,1108,1129,1147,1168,1189,1209,1228,1248,1267,1287,1308,1329,1347,1368,1387,1407,1427,1448],"xSR":741.5,"ySR":449.15000000000003,"xT1":424.9,"yT1":0,"xT2":1058.1,"yT2":0,"toosoon":0,"cond_shown":"equaldotsize","ratio_trial":900,"smaller_num":"18","larger_num":"20","correct_side":1,"subjID":"SamuelBarretoBarrera23","gender":"0","age":"11","school":"6"},{"start_time":1551881366930,"click_time":1551881367933,"finger_time":1551881367554,"fix_duration":837.4140679478027,"trial":60,"RT":624,"MT":379,"sideResp":1,"stimulus":"img/250/equaldotanddens/L/7_Ratio_250_L_8_R_2.png","xmouse":[800,800,800,800,800,800,800,800,800,800,800,800,800,800,800,800,800,800,800,800,800,800,800,800,800,800,800,800,800,796,791,773,763,751,737,723,706,662,650,639,631,621,602,591,582,576,570,557,546,531,517],"ymouse":[505,505,505,505,505,505,505,505,505,505,505,505,505,505,505,505,504,504,503,502,501,500,499,498,498,498,497,491,484,473,459,420,396,371,344,311,277,196,175,157,141,125,100,93,88,87,85,81,78,76,74],"timestamp_mouse":[8,23,44,64,83,102,123,144,162,182,204,222,242,263,283,303,322,342,363,382,403,423,443,464,483,503,524,543,563,582,603,624,642,662,683,703,724,743,763,782,802,823,843,864,884,903,922,942,962,983,1003],"xSR":741.5,"ySR":449.15000000000003,"xT1":424.9,"yT1":0,"xT2":1058.1,"yT2":0,"toosoon":0,"cond_shown":"equaldotanddens","ratio_trial":250,"smaller_num":"2","larger_num":"8","correct_side":1,"subjID":"SamuelBarretoBarrera23","gender":"0","age":"11","school":"6"},{"start_time":1551881369421,"click_time":1551881371754,"finger_time":1551881370694,"fix_duration":568.2397408696671,"trial":61,"RT":1273,"MT":1060,"sideResp":2,"stimulus":"img/750/equaldotanddens/R/12_Ratio_750_L_3_R_4.png","xmouse":[801,801,801,801,801,801,801,801,801,801,801,801,801,801,801,801,801,801,801,801,801,801,801,801,801,801,801,801,801,801,801,801,801,801,801,801,801,801,801,801,801,801,801,801,801,801,801,801,801,801,801,801,801,801,801,801,801,801,801,801,801,801,801,801,801,801,801,801,801,801,801,801,801,801,801,801,801,801,801,801,801,801,801,801,801,801,801,801,801,801,801,801,801,802,803,805,811,817,825,834,842,863,899,920,932,946,958,973,980,989,998,1005,1019,1027,1035,1045,1064],"ymouse":[482,482,482,482,482,482,482,482,482,482,482,482,482,482,482,482,482,482,482,482,482,482,482,482,482,482,482,482,482,482,482,482,482,482,482,482,482,482,482,482,482,482,482,482,482,482,482,482,482,482,482,482,482,482,482,482,482,482,482,482,482,482,482,585,585,585,585,585,585,585,585,585,585,585,585,585,585,585,585,585,585,585,585,585,585,585,585,585,585,585,585,585,585,585,583,579,564,554,539,521,503,466,401,359,330,293,254,201,178,157,139,125,95,83,73,63,49],"timestamp_mouse":[13,34,52,73,92,113,131,152,172,193,212,231,253,271,292,311,332,353,371,392,412,432,452,473,491,511,532,553,573,593,611,633,653,672,693,711,731,752,771,793,813,833,851,873,891,912,933,951,972,993,1012,1033,1051,1073,1092,1113,1131,1152,1171,1193,1213,1231,1253,1273,1292,1313,1331,1352,1371,1392,1412,1432,1451,1473,1492,1513,1533,1553,1572,1592,1612,1633,1651,1673,1693,1711,1731,1752,1772,1792,1812,1832,1852,1871,1891,1911,1932,1952,1972,1993,2012,2031,2052,2071,2091,2112,2131,2152,2171,2192,2211,2233,2253,2272,2292,2313,2333],"xSR":741.5,"ySR":449.15000000000003,"xT1":424.9,"yT1":0,"xT2":1058.1,"yT2":0,"toosoon":0,"cond_shown":"equaldotanddens","ratio_trial":750,"smaller_num":"3","larger_num":"4","correct_side":2,"subjID":"SamuelBarretoBarrera23","gender":"0","age":"11","school":"6"},{"start_time":1551881373086,"click_time":1551881374134,"finger_time":1551881373692,"fix_duration":471.3654655893679,"trial":62,"RT":606,"MT":442,"sideResp":1,"stimulus":"img/500/equaldotanddens/L/10_Ratio_500_L_4_R_2.png","xmouse":[793,793,793,793,793,793,793,793,793,793,793,793,793,793,793,793,793,793,793,793,793,793,793,793,793,793,793,793,790,775,764,753,743,734,718,713,703,693,676,656,639,625,616,608,586,574,568,566,562,549,530,500,481],"ymouse":[602,602,602,602,602,602,602,602,602,602,602,602,602,602,602,602,602,602,602,602,602,602,602,602,602,602,602,602,603,585,569,549,527,499,428,389,349,311,247,209,187,171,160,150,133,127,124,122,121,117,112,104,97],"timestamp_mouse":[10,35,46,68,87,106,127,147,167,187,208,226,246,267,287,307,328,347,367,388,406,427,447,467,487,507,528,546,568,587,606,627,648,666,687,706,727,747,768,786,807,827,847,867,888,906,927,947,969,987,1008,1028,1048],"xSR":741.5,"ySR":573.95,"xT1":424.9,"yT1":0,"xT2":1058.1,"yT2":0,"toosoon":0,"cond_shown":"equaldotanddens","ratio_trial":500,"smaller_num":"2","larger_num":"4","correct_side":1,"subjID":"SamuelBarretoBarrera23","gender":"0","age":"11","school":"6"},{"start_time":1551881376299,"click_time":1551881377454,"finger_time":1551881376893,"fix_duration":1246.5521499129688,"trial":63,"RT":594,"MT":561,"sideResp":2,"stimulus":"img/250/equaldotsize/R/4_Ratio_250_L_3_R_12.png","xmouse":[761,761,761,761,761,761,761,761,761,761,761,761,761,761,761,761,761,761,761,761,761,761,761,761,761,762,765,774,785,790,795,802,808,827,842,858,873,885,909,918,928,938,948,957,961,964,966,970,980,992,1001,1010,1016,1033,1042,1049,1056,1064],"ymouse":[635,635,635,635,635,635,635,635,635,635,635,635,635,635,635,635,635,635,635,635,635,635,635,635,635,633,628,613,585,569,548,525,502,446,404,368,333,306,250,229,212,193,176,154,148,144,142,140,138,135,131,126,122,111,107,102,99,94],"timestamp_mouse":[15,33,54,73,93,115,133,154,173,194,214,233,254,274,293,314,334,353,374,394,414,434,454,474,494,515,533,554,575,594,615,633,654,675,695,715,735,754,775,793,814,835,854,875,894,915,934,953,975,994,1013,1033,1055,1073,1094,1115,1134,1155],"xSR":741.5,"ySR":573.95,"xT1":424.9,"yT1":0,"xT2":1058.1,"yT2":0,"toosoon":0,"cond_shown":"equaldotsize","ratio_trial":250,"smaller_num":"3","larger_num":"12","correct_side":2,"subjID":"SamuelBarretoBarrera23","gender":"0","age":"11","school":"6"},{"start_time":1551881379440,"click_time":1551881380394,"finger_time":1551881380034,"fix_duration":1045.8392882915944,"trial":64,"RT":594,"MT":360,"sideResp":1,"stimulus":"img/750/equaldotanddens/L/8_Ratio_750_L_4_R_3.png","xmouse":[819,819,819,819,819,819,819,819,819,819,819,819,819,819,819,819,819,819,819,819,819,819,819,819,819,817,813,809,806,803,798,793,789,784,777,769,744,725,701,679,655,606,591,577,565,539,527,516],"ymouse":[613,613,613,613,613,613,613,613,613,613,613,613,613,613,613,613,613,613,613,613,613,613,613,613,613,610,600,591,581,571,549,528,511,491,469,445,383,342,297,260,218,133,107,83,62,27,15,7],"timestamp_mouse":[14,34,54,74,94,113,134,153,173,194,212,234,254,273,293,313,334,352,373,394,412,433,452,473,492,513,533,553,573,594,614,632,652,672,693,713,734,754,774,794,813,833,853,873,894,914,933,954],"xSR":741.5,"ySR":573.95,"xT1":424.9,"yT1":0,"xT2":1058.1,"yT2":0,"toosoon":0,"cond_shown":"equaldotanddens","ratio_trial":750,"smaller_num":"3","larger_num":"4","correct_side":1,"subjID":"SamuelBarretoBarrera23","gender":"0","age":"11","school":"6"},{"start_time":1551881381872,"click_time":1551881383014,"finger_time":1551881382514,"fix_duration":717.9402906457726,"trial":65,"RT":642,"MT":500,"sideResp":2,"stimulus":"img/250/randomdotsizeEA/R/13_Ratio_250_L_2_R_8.png","xmouse":[831,831,831,831,831,831,831,831,831,831,831,831,831,831,831,831,831,831,831,831,831,831,831,831,831,831,831,831,831,831,832,837,846,852,859,882,895,908,921,930,945,951,954,958,962,969,970,974,977,981,994,1000,1009,1017,1026,1045,1056,1065],"ymouse":[623,623,623,623,623,623,623,623,623,623,623,623,623,623,623,623,623,623,623,623,623,623,623,623,623,623,623,623,623,623,612,597,577,556,532,473,441,407,366,339,290,276,263,253,245,228,222,213,205,196,159,144,127,111,96,63,45,30],"timestamp_mouse":[8,34,42,61,81,101,121,142,161,180,201,222,241,262,282,302,322,341,361,381,400,422,441,461,481,502,522,541,561,580,601,622,642,661,681,701,721,742,761,781,802,821,842,860,881,900,921,941,961,980,1002,1020,1041,1062,1080,1102,1121,1142],"xSR":741.5,"ySR":573.95,"xT1":424.9,"yT1":0,"xT2":1058.1,"yT2":0,"toosoon":0,"cond_shown":"randomdotsizeEA","ratio_trial":250,"smaller_num":"2","larger_num":"8","correct_side":2,"subjID":"SamuelBarretoBarrera23","gender":"0","age":"11","school":"6"},{"start_time":1551881384680,"click_time":1551881385973,"finger_time":1551881385553,"fix_duration":845.4064154269058,"trial":66,"RT":873,"MT":420,"sideResp":1,"stimulus":"img/900/randomdotsizeEA/L/1_Ratio_900_L_10_R_9.png","xmouse":[806,806,806,806,806,806,806,806,806,806,806,806,806,806,806,806,806,806,806,806,806,806,806,806,806,806,806,806,806,806,806,806,806,806,806,806,806,805,805,802,801,797,795,789,773,763,756,746,725,708,693,678,662,645,613,600,591,584,578,566,561,553,543,528,497],"ymouse":[604,604,604,604,604,604,604,604,604,604,604,604,604,604,604,604,604,604,604,604,604,604,604,604,604,604,604,604,604,604,604,604,604,604,604,604,604,604,603,595,589,581,574,563,535,518,500,477,428,385,353,318,280,242,176,149,130,113,98,81,79,77,76,74,68],"timestamp_mouse":[14,40,53,74,94,112,133,153,172,192,213,233,252,273,292,312,334,353,373,393,414,434,453,473,494,513,534,552,573,592,614,632,653,673,694,712,734,754,773,792,813,833,853,873,894,912,933,952,974,992,1014,1033,1052,1072,1093,1113,1134,1153,1173,1192,1214,1233,1252,1272,1293],"xSR":741.5,"ySR":573.95,"xT1":424.9,"yT1":0,"xT2":1058.1,"yT2":0,"toosoon":0,"cond_shown":"randomdotsizeEA","ratio_trial":900,"smaller_num":"9","larger_num":"10","correct_side":1,"subjID":"SamuelBarretoBarrera23","gender":"0","age":"11","school":"6"},{"start_time":1551881387424,"click_time":1551881388513,"finger_time":1551881388073,"fix_duration":790.9899513656569,"trial":67,"RT":649,"MT":440,"sideResp":2,"stimulus":"img/750/equaldotsize/R/2_Ratio_750_L_6_R_8.png","xmouse":[799,799,799,799,799,799,799,799,799,799,799,799,799,799,799,799,799,799,799,799,799,799,799,799,799,799,799,800,802,804,807,811,826,836,845,862,885,933,954,969,982,996,1004,1006,1006,1007,1008,1014,1025,1033,1041,1058,1062,1067,1071],"ymouse":[647,647,647,647,647,647,647,647,647,647,647,647,647,647,647,647,647,647,647,647,647,647,647,647,647,647,645,639,635,626,619,606,562,537,511,480,442,350,309,269,230,195,169,164,162,160,159,157,152,147,140,119,110,100,96],"timestamp_mouse":[10,44,49,69,89,108,129,149,169,189,210,228,250,270,289,309,330,349,368,390,410,428,449,470,489,508,529,549,569,589,609,629,649,669,690,709,728,749,769,789,808,830,849,869,889,909,929,949,970,990,1009,1030,1048,1069,1088],"xSR":741.5,"ySR":573.95,"xT1":424.9,"yT1":0,"xT2":1058.1,"yT2":0,"toosoon":0,"cond_shown":"equaldotsize","ratio_trial":750,"smaller_num":"6","larger_num":"8","correct_side":2,"subjID":"SamuelBarretoBarrera23","gender":"0","age":"11","school":"6"},{"start_time":1551881389485,"click_time":1551881390373,"finger_time":1551881390092,"fix_duration":250,"trial":68,"RT":607,"MT":281,"sideResp":1,"stimulus":"img/500/equaldotsize/L/8_Ratio_500_L_8_R_4.png","xmouse":[824,824,824,824,824,824,824,824,824,824,824,824,824,824,824,824,824,824,824,824,824,824,824,824,824,824,824,824,824,816,808,797,785,773,739,710,681,659,635,603,578,553,539,532,508],"ymouse":[600,600,600,600,600,600,600,600,600,600,600,600,600,600,600,600,600,600,600,600,600,600,600,600,600,600,600,600,600,589,570,544,504,458,329,266,206,157,102,56,42,32,28,27,23],"timestamp_mouse":[7,28,48,68,88,107,128,147,168,188,208,228,248,268,288,309,327,349,368,387,408,428,448,468,487,509,529,548,568,588,607,629,648,667,689,708,729,748,768,788,808,828,847,867,888],"xSR":741.5,"ySR":573.95,"xT1":424.9,"yT1":0,"xT2":1058.1,"yT2":0,"toosoon":0,"cond_shown":"equaldotsize","ratio_trial":500,"smaller_num":"4","larger_num":"8","correct_side":1,"subjID":"SamuelBarretoBarrera23","gender":"0","age":"11","school":"6"},{"start_time":1551881391891,"click_time":1551881393193,"finger_time":1551881392552,"fix_duration":577.14302877348,"trial":69,"RT":661,"MT":641,"sideResp":1,"stimulus":"img/250/equaldotsize/R/8_Ratio_250_L_1_R_4.png","xmouse":[766,766,766,766,766,766,766,766,766,766,766,766,766,766,766,766,766,766,766,766,766,766,766,766,766,766,766,766,767,769,770,772,774,776,780,782,783,785,785,785,785,785,785,785,785,785,785,785,785,785,785,785,785,785,785,785,785,785,785,760,721,675,617,529,496,472],"ymouse":[638,638,638,638,638,638,638,638,638,638,638,638,638,638,638,638,638,638,638,638,638,638,638,638,638,638,638,637,634,621,611,599,587,572,542,528,520,513,511,