[{"start_time":1551800561474,"click_time":1551800578520,"finger_time":1551800561484,"fix_duration":250,"trial":0,"RT":10,"MT":17036,"sideResp":2,"stimulus":[],"xmouse":[851,851,851,851,851,851,851,849,844,829,820,820,820,820,820,820,820,820,820,820,820,820,820,820,820,820,820,820,820,820,820,820,820,820,820,820,820,820,820,820,820,820,820,820,820,820,825,837,927,1000,1109,1177,1219,1243,1243,1243,1243,1240,1236,1234,1234,1234,1234,1234,1234,1234,1234,1234,1234,1234,1234,1234,1234,1234,1234,1234,1234,1234,1234,1234,1234,1234,1234,1234,1234,1234,1234,1234,1234,1234,1234,1234,1234,1234,1234,1234,1233,1229,1227,1224,1221,1218,1214,1203,1178,1167,1159,1153,1150,1147,1145,1143,1141,1137,1126,1115,1095,1067,1021,938,917,916,916,916,916,916,916,914,911,900,895,889,885,883,883,883,882,881,880,877,877,877,877,877,877,877,880,880,880,880,880,880,880,881,881,881,881,881,881,881,881,881,881,881,881,881,881,881,881,881,881,881,881,881,881,881,881,881,881,881,881,881,884,888,893,894,894,894,895,899,904,904,904,904,904,904,904,904,904,904,904,906,906,909,911,911,911,911,911,911,911,911,911,911,911,911,911,911,911,911,911,911,911,911,911,911,911,911,911,911,911,911,911,911,911,911,911,911,911,911,911,910,910,909,904,902,899,897,894,894,894,894,894,894,894,894,894,894,894,894,894,894,894,894,894,894,894,894,894,894,894,894,894,894,894,894,894,894,894,894,894,894,893,880,871,871,871,871,871,871,871,871,871,871,871,868,865,863,860,856,853,848,843,837,818,813,810,809,809,809,809,808,806,804,799,795,792,791,787,777,774,770,769,769,772,775,776,778,779,780,780,780,780,780,780,780,780,780,780,780,780,780,780,780,780,780,780,780,780,780,780,780,780,780,780,780,780,780,780,780,780,780,780,780,780,780,780,780,780,780,780,780,780,780,780,780,780,780,780,780,780,780,780,780,780,780,780,780,780,780,780,780,780,780,780,780,780,780,780,780,780,780,780,780,780,780,780,780,780,780,780,780,780,780,780,780,780,780,780,780,780,780,780,780,780,780,780,780,780,780,780,780,780,780,780,780,780,780,780,780,780,780,780,780,780,780,780,780,781,782,783,784,784,784,785,785,785,785,786,786,787,787,788,788,789,789,789,789,789,789,789,789,789,789,789,789,789,789,789,789,789,789,789,789,789,789,789,789,789,789,789,789,789,789,790,790,790,790,790,790,790,790,790,790,790,790,790,790,790,790,790,790,790,790,790,790,790,790,790,790,790,790,790,790,790,790,790,790,790,790,790,790,790,790,790,790,790,790,790,790,790,790,790,790,790,790,790,790,790,790,790,790,790,790,790,790,790,790,790,791,791,791,791,796,800,804,807,808,808,805,805,803,801,797,782,775,769,768,767,767,768,769,772,777,781,785,787,791,792,794,794,794,794,794,794,794,794,794,794,794,794,794,794,794,794,794,794,794,794,794,794,794,794,794,794,794,794,794,794,794,794,794,794,794,794,794,794,794,794,794,794,794,794,794,794,794,794,794,794,794,794,794,794,794,794,794,794,794,794,794,794,794,794,794,794,794,794,794,794,794,794,794,794,794,794,794,794,794,794,794,794,794,794,794,794,794,794,794,794,794,794,794,794,794,794,794,794,794,794,794,794,794,794,794,794,794,794,794,794,794,794,794,794,794,794,794,794,794,794,794,794,794,794,794,794,794,794,794,794,794,794,794,794,794,794,794,794,794,794,794,794,794,794,794,794,794,794,794,794,794,794,794,794,794,794,794,794,794,794,794,794,794,794,794,794,794,794,794,794,794,788,779,777,775,774,774,774,775,776,778,780,782,784,788,791,794,798,804,820,832,850,883,910,936,991,1019,1040,1058,1073,1087,1083,1054,981,863,494,342,223,152,119,104,110,128,162,224,443,568,696,807,894,945,936,877,758,566,50,0,0,1,51,455,809,933,946,900,757,533,295,127,112,285,626,1288,1288,1288,1581,1431,1062,537,17,81,294,661,1051,1405,1405,1464,1117,590,0,52,503,864,1125],"ymouse":[531,531,531,531,531,531,531,531,531,533,533,533,533,533,533,533,533,533,533,533,533,533,533,533,533,533,533,533,533,533,533,533,533,533,533,533,533,533,533,533,533,533,533,533,533,533,533,533,534,545,557,567,574,577,577,577,577,577,577,577,577,577,577,577,577,577,577,577,577,577,577,577,577,577,577,577,577,577,577,577,577,577,577,577,577,577,577,577,577,577,577,577,577,577,577,577,577,583,586,589,592,593,595,600,609,613,617,620,623,633,640,645,649,654,663,668,671,673,673,669,665,665,665,665,665,665,665,665,665,669,671,674,676,677,677,678,679,681,682,685,685,685,685,686,686,687,690,690,690,690,690,690,690,690,690,690,690,690,690,690,690,690,690,690,690,690,690,690,690,690,690,690,690,690,690,690,690,690,690,690,690,690,686,680,669,667,667,667,666,664,661,661,661,661,661,661,661,661,661,661,661,659,659,657,655,655,655,655,655,655,655,655,655,655,655,655,655,655,655,655,655,655,655,655,655,655,655,655,655,655,655,655,655,655,655,655,655,655,655,655,655,655,655,655,654,653,653,653,653,653,653,653,653,653,653,653,653,653,653,653,653,653,653,653,653,653,653,653,653,653,653,653,653,653,653,653,653,653,653,653,653,653,653,653,653,653,653,653,653,653,653,653,653,653,653,653,649,646,644,640,639,638,637,637,632,631,629,629,629,629,629,628,626,624,621,619,618,616,611,584,573,558,549,540,529,523,520,515,512,510,510,510,510,510,510,510,510,510,510,510,510,510,510,510,510,510,510,510,510,510,510,510,510,510,510,510,510,510,510,510,510,510,510,510,510,510,510,510,510,510,510,510,510,510,510,510,510,510,510,510,510,510,510,510,510,510,510,510,510,510,510,510,510,510,510,510,510,510,510,510,510,510,510,510,510,510,510,510,510,510,510,510,510,510,510,510,510,510,510,510,510,510,510,510,510,510,510,510,510,510,510,510,510,510,513,515,518,520,522,524,526,528,530,532,537,541,546,551,562,570,574,577,581,585,588,589,591,594,600,602,604,605,606,608,613,613,615,617,620,621,623,623,623,623,623,624,624,624,625,625,625,625,625,625,625,625,625,625,625,625,625,625,625,625,625,625,625,625,625,625,625,625,625,625,625,625,625,625,625,625,625,625,625,625,625,625,625,625,625,625,625,625,625,625,625,625,625,625,625,625,625,625,625,625,625,625,625,625,625,625,625,625,625,625,625,627,627,627,627,627,627,627,627,627,627,627,627,627,627,628,628,628,628,616,604,591,578,566,547,533,526,520,515,508,495,489,483,480,475,474,473,473,473,479,485,490,494,497,499,500,500,500,501,501,501,501,501,501,501,501,501,501,501,501,501,501,501,501,501,501,501,501,501,501,501,501,501,501,501,501,501,501,501,501,501,501,501,501,501,501,501,501,501,501,501,501,501,501,501,501,501,501,501,501,501,501,501,501,501,501,501,501,501,501,501,501,501,501,501,501,501,501,501,501,501,501,501,501,501,501,501,501,501,501,501,501,501,501,501,501,501,501,501,501,501,501,501,501,501,501,501,501,501,501,501,501,501,501,501,501,501,501,501,501,501,501,501,501,501,501,501,501,501,501,501,501,501,501,501,501,501,501,501,501,501,501,501,501,501,501,501,501,501,501,501,501,501,501,501,501,501,501,501,501,501,501,501,501,501,501,501,501,501,501,501,501,501,501,501,501,507,513,517,522,526,527,528,529,531,535,538,542,545,551,556,560,565,572,583,589,597,605,609,609,603,594,583,567,550,493,460,414,354,306,230,226,226,237,251,273,300,322,348,373,405,405,401,384,357,335,315,288,255,226,210,210,205,205,205,205,205,218,220,229,229,232,238,243,243,243,217,148,148,148,194,224,236,236,224,202,137,69,18,6,6,121,201,289,296,262,124,61,30],"timestamp_mouse":[9,26,46,66,86,106,127,145,166,186,207,226,247,265,287,305,325,346,366,387,405,426,446,465,486,507,527,545,565,585,607,625,645,665,687,705,726,746,766,786,805,827,847,865,886,907,927,945,967,985,1006,1025,1046,1067,1086,1107,1127,1146,1166,1186,1207,1226,1246,1266,1285,1305,1326,1346,1367,1385,1406,1427,1446,1466,1486,1506,1525,1546,1567,1585,1606,1626,1645,1666,1687,1707,1727,1746,1765,1786,1805,1826,1846,1866,1885,1907,1925,1946,1966,1986,2006,2026,2046,2066,2086,2106,2126,2146,2166,2186,2205,2226,2246,2266,2287,2306,2326,2346,2365,2385,2407,2426,2446,2466,2485,2505,2526,2547,2568,2585,2605,2626,2645,2666,2685,2706,2727,2745,2766,2787,2807,2827,2847,2866,2886,2907,2926,2947,2966,2986,3005,3027,3046,3066,3086,3106,3125,3146,3167,3185,3206,3226,3247,3267,3286,3307,3327,3347,3365,3386,3405,3426,3447,3467,3485,3506,3526,3546,3565,3586,3605,3626,3645,3665,3685,3706,3727,3746,3766,3785,3807,3826,3847,3866,3885,3905,3926,3947,3967,3986,4006,4025,4047,4066,4087,4106,4126,4145,4165,4186,4206,4227,4246,4266,4285,4305,4326,4345,4365,4387,4406,4427,4446,4465,4486,4505,4526,4547,4565,4585,4606,4626,4646,4667,4685,4707,4725,4745,4767,4786,4806,4827,4845,4866,4886,4907,4927,4946,4967,4985,5005,5025,5045,5066,5085,5106,5127,5146,5167,5185,5206,5226,5247,5267,5285,5305,5326,5346,5367,5385,5406,5425,5445,5465,5486,5507,5527,5547,5567,5585,5606,5626,5645,5665,5687,5707,5726,5746,5766,5785,5806,5827,5846,5866,5885,5906,5926,5946,5966,5986,6007,6025,6045,6065,6085,6106,6126,6146,6166,6187,6206,6225,6247,6266,6286,6307,6326,6347,6366,6387,6405,6425,6445,6465,6487,6506,6526,6546,6567,6587,6605,6626,6646,6667,6686,6707,6727,6746,6766,6787,6806,6827,6845,6865,6886,6906,6927,6946,6967,6987,7007,7026,7047,7067,7086,7105,7126,7146,7167,7186,7206,7226,7247,7266,7286,7306,7326,7346,7365,7387,7407,7425,7446,7466,7486,7507,7527,7546,7566,7587,7605,7625,7645,7667,7686,7706,7727,7745,7766,7787,7806,7826,7845,7866,7887,7906,7925,7946,7966,7986,8007,8025,8045,8066,8086,8107,8126,8147,8167,8185,8206,8227,8246,8266,8286,8306,8326,8347,8367,8386,8406,8427,8446,8466,8485,8507,8525,8546,8566,8587,8605,8626,8647,8666,8685,8707,8726,8745,8767,8786,8807,8825,8847,8866,8887,8907,8926,8946,8967,8986,9005,9025,9045,9067,9085,9106,9126,9146,9167,9185,9205,9225,9245,9265,9285,9305,9325,9345,9366,9385,9405,9426,9446,9467,9487,9507,9526,9545,9566,9586,9606,9627,9646,9666,9685,9706,9727,9746,9767,9785,9805,9825,9845,9866,9886,9905,9926,9947,9967,9986,10006,10026,10045,10065,10086,10107,10126,10146,10166,10186,10206,10226,10245,10265,10286,10305,10326,10345,10365,10386,10407,10427,10447,10465,10485,10506,10526,10545,10567,10585,10605,10626,10646,10667,10687,10707,10727,10745,10767,10785,10806,10826,10845,10865,10886,10906,10926,10947,10966,10986,11007,11026,11046,11066,11085,11106,11127,11146,11166,11186,11207,11226,11246,11267,11285,11305,11325,11346,11366,11386,11406,11425,11446,11466,11486,11506,11526,11546,11567,11585,11607,11627,11646,11667,11687,11706,11725,11746,11767,11785,11806,11827,11845,11867,11886,11905,11925,11946,11965,11986,12005,12026,12047,12067,12085,12105,12127,12146,12165,12187,12206,12226,12245,12265,12285,12305,12325,12346,12365,12386,12406,12425,12446,12466,12486,12506,12527,12546,12567,12585,12607,12626,12646,12665,12686,12705,12726,12747,12766,12785,12805,12826,12845,12866,12886,12905,12926,12947,12966,12986,13007,13026,13045,13067,13086,13105,13126,13146,13165,13186,13206,13225,13246,13265,13286,13305,13325,13345,13365,13387,13405,13426,13447,13466,13485,13506,13526,13547,13566,13585,13605,13627,13646,13665,13687,13706,13725,13746,13767,13787,13805,13826,13845,13866,13885,13906,13927,13945,13965,13986,14007,14025,14047,14066,14086,14107,14127,14145,14165,14186,14206,14226,14245,14265,14285,14307,14326,14346,14366,14385,14405,14426,14447,14465,14486,14505,14527,14545,14567,14586,14606,14625,14645,14667,14685,14706,14725,14747,14767,14785,14807,14827,14845,14866,14886,14905,14926,14947,14967,14986,15006,15026,15045,15066,15085,15106,15125,15146,15167,15185,15205,15226,15246,15265,15287,15305,15325,15345,15365,15386,15406,15427,15447,15466,15485,15506,15526,15546,15567,15586,15606,15625,15646,15666,15686,15706,15726,15746,15766,15786,15806,15825,15846,15866,15886,15906,15926,15946,15966,15987,16005,16026,16046,16065,16086,16106,16126,16146,16165,16185,16206,16226,16247,16265,16286,16306,16327,16346,16366,16386,16405,16426,16446,16467,16485,16506,16525,16546,16566,16585,16607,16626,16647,16666,16685,16706,16727,16746,16767,16786,16806,16825,16845,16868,16885,16907,16926,16946,16966,16985,17006,17027,17045],"xSR":741.5,"ySR":501.8,"xT1":424.9,"yT1":0,"xT2":1058.1,"yT2":0,"toosoon":0,"cond_shown":"Congruent","ratio_trial":300,"L_num":8,"L_den":15,"R_num":10,"R_den":12,"correct_side":2,"subjID":"SamuelAndresCastañedaTapiero33","gender":"No_gender","age":"10","school":"6","test":{"fix_dur":[250,1500],"timestim":1000,"targets_dim":[100,100],"targets_relative_coord":[0.3,0.7],"size_stim":[880,420],"start_dim":[100,100],"size_start":[300,300],"size_fix":60,"samplingrate":20,"img_types":["Congruent","Incongruent"],"ratios":[100,200,300],"rep_conds":19,"nTrials":120,"trials_to_rest":500,"Trials_order":[34,109,47,76,37,96,94,77,8,68,66,107,33,52,74,16,97,103,54,70,32,73,21,93,106,67,91,28,29,99,46,69,11,90,12,62,26,14,83,27,71,38,1,119,75,64,22,45,79,81,111,63,110,98,24,101,2,39,3,82,89,17,117,19,102,85,18,78,48,59,86,95,108,31,118,42,57,49,40,25,114,10,72,6,4,13,5,116,0,43,58,20,105,87,41,80,112,104,55,36,7,15,60,65,115,44,92,53,35,100,30,23,56,9,61,84,51,113,50,88],"cond_shown":["Congruent","Incongruent","Incongruent","Congruent","Incongruent","Congruent","Congruent","Incongruent","Congruent","Congruent","Congruent","Incongruent","Incongruent","Congruent","Congruent","Congruent","Incongruent","Incongruent","Congruent","Congruent","Congruent","Incongruent","Incongruent","Incongruent","Congruent","Incongruent","Incongruent","Congruent","Incongruent","Incongruent","Congruent","Incongruent","Incongruent","Congruent","Congruent","Congruent","Congruent","Congruent","Incongruent","Incongruent","Incongruent","Congruent","Incongruent","Incongruent","Incongruent","Congruent","Congruent","Incongruent","Incongruent","Incongruent","Incongruent","Incongruent","Congruent","Congruent","Congruent","Incongruent","Congruent","Incongruent","Incongruent","Congruent","Incongruent","Incongruent","Incongruent","Incongruent","Congruent","Incongruent","Congruent","Congruent","Congruent","Incongruent","Congruent","Incongruent","Congruent","Incongruent","Congruent","Congruent","Incongruent","Incongruent","Congruent","Incongruent","Congruent","Congruent","Congruent","Congruent","Congruent","Incongruent","Incongruent","Congruent","Congruent","Incongruent","Congruent","Congruent","Incongruent","Incongruent","Incongruent","Congruent","Congruent","Congruent","Incongruent","Congruent","Incongruent","Incongruent","Congruent","Incongruent","Incongruent","Congruent","Congruent","Incongruent","Incongruent","Congruent","Congruent","Incongruent","Congruent","Incongruent","Incongruent","Congruent","Incongruent","Incongruent","Congruent","Congruent"],"ratio_trial":[300,100,300,300,100,100,300,300,200,200,100,300,200,300,200,300,100,100,100,300,200,100,200,200,300,100,100,300,300,200,300,200,300,100,100,200,200,200,300,200,300,200,100,300,200,300,300,200,100,200,200,200,200,200,100,300,200,200,200,300,300,300,200,100,100,100,100,100,100,300,200,300,100,100,300,100,200,100,300,100,100,300,100,100,300,100,300,200,100,100,300,200,200,200,300,200,300,200,100,100,100,200,100,300,100,200,200,300,300,300,100,300,200,200,100,100,200,300,200,300],"left_num":[8,2,4,3,9,1,1,4,9,5,15,13,14,2,4,5,6,3,4,5,3,13,4,7,1,11,11,9,8,1,11,4,4,8,10,8,20,5,13,1,7,8,2,4,4,3,1,3,2,7,1,4,1,8,8,1,7,1,1,3,4,13,7,4,3,4,3,10,4,8,7,13,12,10,3,8,7,6,9,6,6,20,2,11,24,3,4,8,2,3,4,6,4,3,13,1,3,12,11,8,9,4,2,13,3,4,3,4,4,24,1,2,8,4,11,6,14,13,20,1],"right_num":[10,6,6,11,6,3,6,2,4,14,13,12,6,12,3,6,11,11,6,7,14,6,14,4,19,9,9,3,14,3,1,14,2,2,3,7,9,14,12,2,8,2,8,2,6,2,19,1,8,8,2,1,21,7,2,2,2,3,2,4,2,12,14,8,2,8,2,3,15,9,2,12,13,9,2,2,4,13,3,13,5,13,11,6,8,7,2,7,11,8,1,7,14,1,12,21,11,6,9,2,20,14,6,12,7,3,7,2,2,2,18,6,2,1,9,5,6,12,9,6],"left_den":[15,4,5,12,18,2,5,20,20,10,25,26,30,10,10,25,10,5,8,25,6,26,6,15,3,22,22,10,10,2,22,6,20,16,25,15,25,10,26,3,10,15,4,20,5,6,3,10,4,10,3,30,2,15,16,2,21,2,3,6,20,26,10,8,6,8,6,25,10,10,21,26,30,25,6,16,15,10,10,10,20,25,5,22,30,9,20,15,5,5,10,12,6,10,26,2,12,15,22,16,10,6,5,26,9,8,10,20,20,30,2,4,15,30,22,20,30,26,25,5],"right_den":[12,15,12,20,10,5,12,4,16,20,26,15,9,24,15,12,22,22,10,14,20,10,30,6,30,15,15,5,28,10,5,30,4,5,10,21,15,20,15,15,20,6,20,4,10,10,30,2,20,16,15,3,30,21,5,10,15,10,15,5,4,15,28,20,5,20,5,10,30,18,15,15,26,18,10,5,6,26,5,26,25,26,22,15,16,30,4,21,22,16,10,10,30,2,15,30,20,10,15,5,25,30,12,15,30,10,14,4,4,4,30,30,6,3,15,25,9,15,15,12],"correct_side":[2,1,1,2,2,2,2,2,1,2,1,2,2,2,1,2,1,1,2,2,2,2,1,2,2,2,2,1,1,1,1,1,2,1,1,1,1,2,2,1,1,1,1,2,1,1,2,2,1,1,1,2,2,1,1,1,1,1,1,2,2,2,1,1,1,1,1,1,2,1,1,2,2,2,1,1,2,1,1,1,1,1,2,1,1,1,2,1,2,1,1,2,1,2,2,2,2,1,2,1,1,1,2,2,1,1,2,2,2,1,2,1,1,2,2,1,2,2,1,2],"img_shown":["img2/300/Congruent/R/C_Dist_300_LN_8_LD_15_RN_10_RD_12_1.png","img2/100/Incongruent/L/I_Dist_100_LN_2_LD_4_RN_6_RD_15_0.png","img2/300/Incongruent/L/I_Dist_300_LN_4_LD_5_RN_6_RD_12_0.png","img2/300/Congruent/R/C_Dist_300_LN_3_LD_12_RN_11_RD_20_1.png","img2/100/Incongruent/R/I_Dist_100_LN_9_LD_18_RN_6_RD_10_1.png","img2/100/Congruent/R/C_Dist_100_LN_1_LD_2_RN_3_RD_5_1.png","img2/300/Congruent/R/C_Dist_300_LN_1_LD_5_RN_6_RD_12_1.png","img2/300/Incongruent/R/I_Dist_300_LN_4_LD_20_RN_2_RD_4_1.png","img2/200/Congruent/L/C_Dist_200_LN_9_LD_20_RN_4_RD_16_0.png","img2/200/Congruent/R/C_Dist_200_LN_5_LD_10_RN_14_RD_20_1.png","img2/100/Congruent/L/C_Dist_100_LN_15_LD_25_RN_13_RD_26_0.png","img2/300/Incongruent/R/I_Dist_300_LN_13_LD_26_RN_12_RD_15_1.png","img2/200/Incongruent/R/I_Dist_200_LN_14_LD_30_RN_6_RD_9_1.png","img2/300/Congruent/R/C_Dist_300_LN_2_LD_10_RN_12_RD_24_1.png","img2/200/Congruent/L/C_Dist_200_LN_4_LD_10_RN_3_RD_15_0.png","img2/300/Congruent/R/C_Dist_300_LN_5_LD_25_RN_6_RD_12_1.png","img2/100/Incongruent/L/I_Dist_100_LN_6_LD_10_RN_11_RD_22_0.png","img2/100/Incongruent/L/I_Dist_100_LN_3_LD_5_RN_11_RD_22_0.png","img2/100/Congruent/R/C_Dist_100_LN_4_LD_8_RN_6_RD_10_1.png","img2/300/Congruent/R/C_Dist_300_LN_5_LD_25_RN_7_RD_14_1.png","img2/200/Congruent/R/C_Dist_200_LN_3_LD_6_RN_14_RD_20_1.png","img2/100/Incongruent/R/I_Dist_100_LN_13_LD_26_RN_6_RD_10_1.png","img2/200/Incongruent/L/I_Dist_200_LN_4_LD_6_RN_14_RD_30_0.png","img2/200/Incongruent/R/I_Dist_200_LN_7_LD_15_RN_4_RD_6_1.png","img2/300/Congruent/R/C_Dist_300_LN_1_LD_3_RN_19_RD_30_1.png","img2/100/Incongruent/R/I_Dist_100_LN_11_LD_22_RN_9_RD_15_1.png","img2/100/Incongruent/R/I_Dist_100_LN_11_LD_22_RN_9_RD_15_1.png","img2/300/Congruent/L/C_Dist_300_LN_9_LD_10_RN_3_RD_5_0.png","img2/300/Incongruent/L/I_Dist_300_LN_8_LD_10_RN_14_RD_28_0.png","img2/200/Incongruent/L/I_Dist_200_LN_1_LD_2_RN_3_RD_10_0.png","img2/300/Congruent/L/C_Dist_300_LN_11_LD_22_RN_1_RD_5_0.png","img2/200/Incongruent/L/I_Dist_200_LN_4_LD_6_RN_14_RD_30_0.png","img2/300/Incongruent/R/I_Dist_300_LN_4_LD_20_RN_2_RD_4_1.png","img2/100/Congruent/L/C_Dist_100_LN_8_LD_16_RN_2_RD_5_0.png","img2/100/Congruent/L/C_Dist_100_LN_10_LD_25_RN_3_RD_10_0.png","img2/200/Congruent/L/C_Dist_200_LN_8_LD_15_RN_7_RD_21_0.png","img2/200/Congruent/L/C_Dist_200_LN_20_LD_25_RN_9_RD_15_0.png","img2/200/Congruent/R/C_Dist_200_LN_5_LD_10_RN_14_RD_20_1.png","img2/300/Incongruent/R/I_Dist_300_LN_13_LD_26_RN_12_RD_15_1.png","img2/200/Incongruent/L/I_Dist_200_LN_1_LD_3_RN_2_RD_15_0.png","img2/300/Incongruent/L/I_Dist_300_LN_7_LD_10_RN_8_RD_20_0.png","img2/200/Congruent/L/C_Dist_200_LN_8_LD_15_RN_2_RD_6_0.png","img2/100/Incongruent/L/I_Dist_100_LN_2_LD_4_RN_8_RD_20_0.png","img2/300/Incongruent/R/I_Dist_300_LN_4_LD_20_RN_2_RD_4_1.png","img2/200/Incongruent/L/I_Dist_200_LN_4_LD_5_RN_6_RD_10_0.png","img2/300/Congruent/L/C_Dist_300_LN_3_LD_6_RN_2_RD_10_0.png","img2/300/Congruent/R/C_Dist_300_LN_1_LD_3_RN_19_RD_30_1.png","img2/200/Incongruent/R/I_Dist_200_LN_3_LD_10_RN_1_RD_2_1.png","img2/100/Incongruent/L/I_Dist_100_LN_2_LD_4_RN_8_RD_20_0.png","img2/200/Incongruent/L/I_Dist_200_LN_7_LD_10_RN_8_RD_16_0.png","img2/200/Incongruent/L/I_Dist_200_LN_1_LD_3_RN_2_RD_15_0.png","img2/200/Incongruent/R/I_Dist_200_LN_4_LD_30_RN_1_RD_3_1.png","img2/200/Congruent/R/C_Dist_200_LN_1_LD_2_RN_21_RD_30_1.png","img2/200/Congruent/L/C_Dist_200_LN_8_LD_15_RN_7_RD_21_0.png","img2/100/Congruent/L/C_Dist_100_LN_8_LD_16_RN_2_RD_5_0.png","img2/300/Incongruent/L/I_Dist_300_LN_1_LD_2_RN_2_RD_10_0.png","img2/200/Congruent/L/C_Dist_200_LN_7_LD_21_RN_2_RD_15_0.png","img2/200/Incongruent/L/I_Dist_200_LN_1_LD_2_RN_3_RD_10_0.png","img2/200/Incongruent/L/I_Dist_200_LN_1_LD_3_RN_2_RD_15_0.png","img2/300/Congruent/R/C_Dist_300_LN_3_LD_6_RN_4_RD_5_1.png","img2/300/Incongruent/R/I_Dist_300_LN_4_LD_20_RN_2_RD_4_1.png","img2/300/Incongruent/R/I_Dist_300_LN_13_LD_26_RN_12_RD_15_1.png","img2/200/Incongruent/L/I_Dist_200_LN_7_LD_10_RN_14_RD_28_0.png","img2/100/Incongruent/L/I_Dist_100_LN_4_LD_8_RN_8_RD_20_0.png","img2/100/Congruent/L/C_Dist_100_LN_3_LD_6_RN_2_RD_5_0.png","img2/100/Incongruent/L/I_Dist_100_LN_4_LD_8_RN_8_RD_20_0.png","img2/100/Congruent/L/C_Dist_100_LN_3_LD_6_RN_2_RD_5_0.png","img2/100/Congruent/L/C_Dist_100_LN_10_LD_25_RN_3_RD_10_0.png","img2/100/Congruent/R/C_Dist_100_LN_4_LD_10_RN_15_RD_30_1.png","img2/300/Incongruent/L/I_Dist_300_LN_8_LD_10_RN_9_RD_18_0.png","img2/200/Congruent/L/C_Dist_200_LN_7_LD_21_RN_2_RD_15_0.png","img2/300/Incongruent/R/I_Dist_300_LN_13_LD_26_RN_12_RD_15_1.png","img2/100/Congruent/R/C_Dist_100_LN_12_LD_30_RN_13_RD_26_1.png","img2/100/Incongruent/R/I_Dist_100_LN_10_LD_25_RN_9_RD_18_1.png","img2/300/Congruent/L/C_Dist_300_LN_3_LD_6_RN_2_RD_10_0.png","img2/100/Congruent/L/C_Dist_100_LN_8_LD_16_RN_2_RD_5_0.png","img2/200/Incongruent/R/I_Dist_200_LN_7_LD_15_RN_4_RD_6_1.png","img2/100/Incongruent/L/I_Dist_100_LN_6_LD_10_RN_13_RD_26_0.png","img2/300/Congruent/L/C_Dist_300_LN_9_LD_10_RN_3_RD_5_0.png","img2/100/Incongruent/L/I_Dist_100_LN_6_LD_10_RN_13_RD_26_0.png","img2/100/Congruent/L/C_Dist_100_LN_6_LD_20_RN_5_RD_25_0.png","img2/300/Congruent/L/C_Dist_300_LN_20_LD_25_RN_13_RD_26_0.png","img2/100/Congruent/R/C_Dist_100_LN_2_LD_5_RN_11_RD_22_1.png","img2/100/Congruent/L/C_Dist_100_LN_11_LD_22_RN_6_RD_15_0.png","img2/300/Congruent/L/C_Dist_300_LN_24_LD_30_RN_8_RD_16_0.png","img2/100/Incongruent/L/I_Dist_100_LN_3_LD_9_RN_7_RD_30_0.png","img2/300/Incongruent/R/I_Dist_300_LN_4_LD_20_RN_2_RD_4_1.png","img2/200/Congruent/L/C_Dist_200_LN_8_LD_15_RN_7_RD_21_0.png","img2/100/Congruent/R/C_Dist_100_LN_2_LD_5_RN_11_RD_22_1.png","img2/100/Incongruent/L/I_Dist_100_LN_3_LD_5_RN_8_RD_16_0.png","img2/300/Congruent/L/C_Dist_300_LN_4_LD_10_RN_1_RD_10_0.png","img2/200/Congruent/R/C_Dist_200_LN_6_LD_12_RN_7_RD_10_1.png","img2/200/Incongruent/L/I_Dist_200_LN_4_LD_6_RN_14_RD_30_0.png","img2/200/Incongruent/R/I_Dist_200_LN_3_LD_10_RN_1_RD_2_1.png","img2/300/Incongruent/R/I_Dist_300_LN_13_LD_26_RN_12_RD_15_1.png","img2/200/Congruent/R/C_Dist_200_LN_1_LD_2_RN_21_RD_30_1.png","img2/300/Congruent/R/C_Dist_300_LN_3_LD_12_RN_11_RD_20_1.png","img2/200/Congruent/L/C_Dist_200_LN_12_LD_15_RN_6_RD_10_0.png","img2/100/Incongruent/R/I_Dist_100_LN_11_LD_22_RN_9_RD_15_1.png","img2/100/Congruent/L/C_Dist_100_LN_8_LD_16_RN_2_RD_5_0.png","img2/100/Incongruent/L/I_Dist_100_LN_9_LD_10_RN_20_RD_25_0.png","img2/200/Incongruent/L/I_Dist_200_LN_4_LD_6_RN_14_RD_30_0.png","img2/100/Congruent/R/C_Dist_100_LN_2_LD_5_RN_6_RD_12_1.png","img2/300/Incongruent/R/I_Dist_300_LN_13_LD_26_RN_12_RD_15_1.png","img2/100/Incongruent/L/I_Dist_100_LN_3_LD_9_RN_7_RD_30_0.png","img2/200/Congruent/L/C_Dist_200_LN_4_LD_8_RN_3_RD_10_0.png","img2/200/Congruent/R/C_Dist_200_LN_3_LD_10_RN_7_RD_14_1.png","img2/300/Incongruent/R/I_Dist_300_LN_4_LD_20_RN_2_RD_4_1.png","img2/300/Incongruent/R/I_Dist_300_LN_4_LD_20_RN_2_RD_4_1.png","img2/300/Congruent/L/C_Dist_300_LN_24_LD_30_RN_2_RD_4_0.png","img2/100/Congruent/R/C_Dist_100_LN_1_LD_2_RN_18_RD_30_1.png","img2/300/Incongruent/L/I_Dist_300_LN_2_LD_4_RN_6_RD_30_0.png","img2/200/Congruent/L/C_Dist_200_LN_8_LD_15_RN_2_RD_6_0.png","img2/200/Incongruent/R/I_Dist_200_LN_4_LD_30_RN_1_RD_3_1.png","img2/100/Incongruent/R/I_Dist_100_LN_11_LD_22_RN_9_RD_15_1.png","img2/100/Congruent/L/C_Dist_100_LN_6_LD_20_RN_5_RD_25_0.png","img2/200/Incongruent/R/I_Dist_200_LN_14_LD_30_RN_6_RD_9_1.png","img2/300/Incongruent/R/I_Dist_300_LN_13_LD_26_RN_12_RD_15_1.png","img2/200/Congruent/L/C_Dist_200_LN_20_LD_25_RN_9_RD_15_0.png","img2/300/Congruent/R/C_Dist_300_LN_1_LD_5_RN_6_RD_12_1.png"],"dist100_C":[["C_Dist_100_LN_10_LD_25_RN_3_RD_10_0.png","C_Dist_100_LN_11_LD_22_RN_4_RD_10_0.png","C_Dist_100_LN_11_LD_22_RN_6_RD_15_0.png","C_Dist_100_LN_15_LD_25_RN_13_RD_26_0.png","C_Dist_100_LN_3_LD_6_RN_2_RD_5_0.png","C_Dist_100_LN_6_LD_20_RN_5_RD_25_0.png","C_Dist_100_LN_8_LD_16_RN_2_RD_5_0.png","C_Dist_100_LN_9_LD_15_RN_8_RD_16_0.png"],["C_Dist_100_LN_1_LD_2_RN_18_RD_30_1.png","C_Dist_100_LN_1_LD_2_RN_3_RD_5_1.png","C_Dist_100_LN_12_LD_30_RN_13_RD_26_1.png","C_Dist_100_LN_2_LD_5_RN_11_RD_22_1.png","C_Dist_100_LN_2_LD_5_RN_6_RD_12_1.png","C_Dist_100_LN_3_LD_20_RN_4_RD_16_1.png","C_Dist_100_LN_4_LD_10_RN_15_RD_30_1.png","C_Dist_100_LN_4_LD_8_RN_6_RD_10_1.png","C_Dist_100_LN_6_LD_12_RN_15_RD_25_1.png","C_Dist_100_LN_7_LD_14_RN_15_RD_25_1.png","C_Dist_100_LN_7_LD_14_RN_9_RD_15_1.png"]],"dist100_I":[["I_Dist_100_LN_1_LD_2_RN_8_RD_20_0.png","I_Dist_100_LN_2_LD_4_RN_6_RD_15_0.png","I_Dist_100_LN_2_LD_4_RN_8_RD_20_0.png","I_Dist_100_LN_3_LD_5_RN_11_RD_22_0.png","I_Dist_100_LN_3_LD_5_RN_8_RD_16_0.png","I_Dist_100_LN_3_LD_6_RN_4_RD_10_0.png","I_Dist_100_LN_3_LD_9_RN_7_RD_30_0.png","I_Dist_100_LN_4_LD_8_RN_8_RD_20_0.png","I_Dist_100_LN_6_LD_10_RN_11_RD_22_0.png","I_Dist_100_LN_6_LD_10_RN_13_RD_26_0.png","I_Dist_100_LN_6_LD_10_RN_7_RD_14_0.png","I_Dist_100_LN_9_LD_10_RN_20_RD_25_0.png","I_Dist_100_LN_9_LD_15_RN_13_RD_26_0.png","I_Dist_100_LN_9_LD_15_RN_14_RD_28_0.png"],["I_Dist_100_LN_10_LD_25_RN_8_RD_16_1.png","I_Dist_100_LN_10_LD_25_RN_9_RD_18_1.png","I_Dist_100_LN_11_LD_22_RN_9_RD_15_1.png","I_Dist_100_LN_12_LD_24_RN_9_RD_15_1.png","I_Dist_100_LN_12_LD_30_RN_2_RD_4_1.png","I_Dist_100_LN_13_LD_26_RN_12_RD_20_1.png","I_Dist_100_LN_13_LD_26_RN_6_RD_10_1.png","I_Dist_100_LN_17_LD_30_RN_10_RD_15_1.png","I_Dist_100_LN_6_LD_12_RN_3_RD_5_1.png","I_Dist_100_LN_8_LD_16_RN_6_RD_10_1.png","I_Dist_100_LN_8_LD_20_RN_1_RD_2_1.png","I_Dist_100_LN_9_LD_18_RN_6_RD_10_1.png"]],"dist100_S":[["E_Dist_100_LN_2_LD_12_RN_2_RD_30_0.png","E_Dist_100_LN_6_LD_10_RN_6_RD_12_0.png"],["E_Dist_100_LN_6_LD_12_RN_6_RD_10_1.png"]],"dist200_C":[["C_Dist_200_LN_11_LD_22_RN_3_RD_10_0.png","C_Dist_200_LN_12_LD_15_RN_6_RD_10_0.png","C_Dist_200_LN_12_LD_20_RN_6_RD_15_0.png","C_Dist_200_LN_14_LD_28_RN_6_RD_20_0.png","C_Dist_200_LN_15_LD_25_RN_4_RD_10_0.png","C_Dist_200_LN_16_LD_20_RN_12_RD_20_0.png","C_Dist_200_LN_16_LD_30_RN_9_RD_27_0.png","C_Dist_200_LN_20_LD_25_RN_9_RD_15_0.png","C_Dist_200_LN_21_LD_30_RN_2_RD_4_0.png","C_Dist_200_LN_4_LD_10_RN_3_RD_15_0.png","C_Dist_200_LN_4_LD_8_RN_3_RD_10_0.png","C_Dist_200_LN_6_LD_15_RN_3_RD_15_0.png","C_Dist_200_LN_7_LD_21_RN_2_RD_15_0.png","C_Dist_200_LN_8_LD_15_RN_2_RD_6_0.png","C_Dist_200_LN_8_LD_15_RN_3_RD_9_0.png","C_Dist_200_LN_8_LD_15_RN_7_RD_21_0.png","C_Dist_200_LN_9_LD_20_RN_4_RD_16_0.png"],["C_Dist_200_LN_1_LD_2_RN_21_RD_30_1.png","C_Dist_200_LN_13_LD_26_RN_14_RD_20_1.png","C_Dist_200_LN_3_LD_10_RN_11_RD_22_1.png","C_Dist_200_LN_3_LD_10_RN_14_RD_28_1.png","C_Dist_200_LN_3_LD_10_RN_7_RD_14_1.png","C_Dist_200_LN_3_LD_12_RN_9_RD_20_1.png","C_Dist_200_LN_3_LD_6_RN_14_RD_20_1.png","C_Dist_200_LN_5_LD_10_RN_14_RD_20_1.png","C_Dist_200_LN_6_LD_12_RN_7_RD_10_1.png","C_Dist_200_LN_6_LD_20_RN_11_RD_22_1.png","C_Dist_200_LN_7_LD_15_RN_18_RD_27_1.png","C_Dist_200_LN_9_LD_30_RN_13_RD_26_1.png"]],"dist200_I":[["I_Dist_200_LN_1_LD_2_RN_3_RD_10_0.png","I_Dist_200_LN_1_LD_3_RN_2_RD_15_0.png","I_Dist_200_LN_3_LD_4_RN_11_RD_20_0.png","I_Dist_200_LN_4_LD_5_RN_6_RD_10_0.png","I_Dist_200_LN_4_LD_6_RN_14_RD_30_0.png","I_Dist_200_LN_7_LD_10_RN_12_RD_24_0.png","I_Dist_200_LN_7_LD_10_RN_14_RD_28_0.png","I_Dist_200_LN_7_LD_10_RN_8_RD_16_0.png"],["I_Dist_200_LN_11_LD_20_RN_3_RD_4_1.png","I_Dist_200_LN_14_LD_30_RN_12_RD_18_1.png","I_Dist_200_LN_14_LD_30_RN_6_RD_9_1.png","I_Dist_200_LN_3_LD_10_RN_1_RD_2_1.png","I_Dist_200_LN_4_LD_30_RN_1_RD_3_1.png","I_Dist_200_LN_6_LD_20_RN_3_RD_6_1.png","I_Dist_200_LN_7_LD_15_RN_4_RD_6_1.png","I_Dist_200_LN_7_LD_15_RN_6_RD_9_1.png","I_Dist_200_LN_9_LD_15_RN_8_RD_10_1.png"]],"dist200_S":[["E_Dist_200_LN_3_LD_6_RN_3_RD_10_0.png"],["E_Dist_200_LN_3_LD_10_RN_3_RD_6_1.png"]],"dist300_C":[["C_Dist_300_LN_11_LD_22_RN_1_RD_5_0.png","C_Dist_300_LN_11_LD_22_RN_2_RD_10_0.png","C_Dist_300_LN_11_LD_22_RN_4_RD_20_0.png","C_Dist_300_LN_12_LD_24_RN_2_RD_10_0.png","C_Dist_300_LN_18_LD_20_RN_9_RD_15_0.png","C_Dist_300_LN_20_LD_25_RN_13_RD_26_0.png","C_Dist_300_LN_20_LD_25_RN_14_RD_28_0.png","C_Dist_300_LN_20_LD_25_RN_5_RD_10_0.png","C_Dist_300_LN_20_LD_25_RN_8_RD_16_0.png","C_Dist_300_LN_20_LD_25_RN_9_RD_18_0.png","C_Dist_300_LN_24_LD_30_RN_2_RD_4_0.png","C_Dist_300_LN_24_LD_30_RN_8_RD_16_0.png","C_Dist_300_LN_3_LD_6_RN_2_RD_10_0.png","C_Dist_300_LN_4_LD_10_RN_1_RD_10_0.png","C_Dist_300_LN_4_LD_5_RN_2_RD_4_0.png","C_Dist_300_LN_8_LD_16_RN_1_RD_5_0.png","C_Dist_300_LN_9_LD_10_RN_3_RD_5_0.png"],["C_Dist_300_LN_1_LD_20_RN_7_RD_20_1.png","C_Dist_300_LN_1_LD_3_RN_19_RD_30_1.png","C_Dist_300_LN_1_LD_30_RN_8_RD_24_1.png","C_Dist_300_LN_1_LD_5_RN_11_RD_22_1.png","C_Dist_300_LN_1_LD_5_RN_3_RD_6_1.png","C_Dist_300_LN_1_LD_5_RN_6_RD_12_1.png","C_Dist_300_LN_2_LD_10_RN_12_RD_24_1.png","C_Dist_300_LN_2_LD_20_RN_10_RD_25_1.png","C_Dist_300_LN_3_LD_12_RN_11_RD_20_1.png","C_Dist_300_LN_3_LD_6_RN_4_RD_5_1.png","C_Dist_300_LN_4_LD_20_RN_13_RD_26_1.png","C_Dist_300_LN_5_LD_25_RN_6_RD_12_1.png","C_Dist_300_LN_5_LD_25_RN_7_RD_14_1.png","C_Dist_300_LN_7_LD_14_RN_20_RD_25_1.png","C_Dist_300_LN_8_LD_15_RN_10_RD_12_1.png"]],"dist300_I":[["I_Dist_300_LN_1_LD_2_RN_2_RD_10_0.png","I_Dist_300_LN_1_LD_2_RN_3_RD_15_0.png","I_Dist_300_LN_2_LD_4_RN_6_RD_30_0.png","I_Dist_300_LN_3_LD_6_RN_4_RD_20_0.png","I_Dist_300_LN_4_LD_5_RN_6_RD_12_0.png","I_Dist_300_LN_4_LD_5_RN_8_RD_16_0.png","I_Dist_300_LN_7_LD_10_RN_8_RD_20_0.png","I_Dist_300_LN_8_LD_10_RN_14_RD_28_0.png","I_Dist_300_LN_8_LD_10_RN_9_RD_18_0.png"],["I_Dist_300_LN_13_LD_26_RN_12_RD_15_1.png","I_Dist_300_LN_4_LD_20_RN_2_RD_4_1.png"]],"dist300_S":[["E_Dist_300_LN_9_LD_12_RN_9_RD_20_0.png"],["E_Dist_300_LN_18_LD_30_RN_18_RD_20_1.png","E_Dist_300_LN_3_LD_10_RN_3_RD_5_1.png","E_Dist_300_LN_9_LD_20_RN_9_RD_12_1.png"]],"dist500_C":[["C_Dist_500_LN_10_LD_13_RN_7_RD_26_0.png","C_Dist_500_LN_10_LD_15_RN_4_RD_24_0.png","C_Dist_500_LN_12_LD_16_RN_3_RD_12_0.png","C_Dist_500_LN_12_LD_18_RN_4_RD_24_0.png","C_Dist_500_LN_15_LD_18_RN_5_RD_15_0.png","C_Dist_500_LN_15_LD_20_RN_1_RD_4_0.png","C_Dist_500_LN_18_LD_27_RN_1_RD_6_0.png","C_Dist_500_LN_20_LD_24_RN_1_RD_3_0.png","C_Dist_500_LN_20_LD_24_RN_3_RD_9_0.png","C_Dist_500_LN_20_LD_24_RN_7_RD_21_0.png","C_Dist_500_LN_20_LD_28_RN_3_RD_14_0.png","C_Dist_500_LN_21_LD_28_RN_6_RD_24_0.png","C_Dist_500_LN_22_LD_28_RN_2_RD_7_0.png","C_Dist_500_LN_25_LD_30_RN_9_RD_27_0.png","C_Dist_500_LN_4_LD_6_RN_1_RD_6_0.png","C_Dist_500_LN_5_LD_6_RN_2_RD_6_0.png","C_Dist_500_LN_6_LD_9_RN_1_RD_6_0.png","C_Dist_500_LN_7_LD_10_RN_1_RD_5_0.png","C_Dist_500_LN_8_LD_12_RN_1_RD_6_0.png","C_Dist_500_LN_8_LD_12_RN_4_RD_24_0.png"],["C_Dist_500_LN_1_LD_4_RN_12_RD_16_1.png","C_Dist_500_LN_1_LD_4_RN_9_RD_12_1.png","C_Dist_500_LN_1_LD_9_RN_11_RD_18_1.png","C_Dist_500_LN_10_LD_24_RN_22_RD_24_1.png","C_Dist_500_LN_2_LD_12_RN_10_RD_15_1.png","C_Dist_500_LN_2_LD_12_RN_12_RD_18_1.png","C_Dist_500_LN_2_LD_12_RN_4_RD_6_1.png","C_Dist_500_LN_2_LD_24_RN_7_RD_12_1.png","C_Dist_500_LN_2_LD_5_RN_18_RD_20_1.png","C_Dist_500_LN_2_LD_5_RN_9_RD_10_1.png","C_Dist_500_LN_2_LD_8_RN_12_RD_16_1.png","C_Dist_500_LN_2_LD_8_RN_21_RD_28_1.png","C_Dist_500_LN_3_LD_10_RN_4_RD_5_1.png","C_Dist_500_LN_3_LD_12_RN_15_RD_20_1.png","C_Dist_500_LN_3_LD_30_RN_6_RD_10_1.png","C_Dist_500_LN_3_LD_8_RN_14_RD_16_1.png","C_Dist_500_LN_4_LD_16_RN_15_RD_20_1.png","C_Dist_500_LN_4_LD_24_RN_12_RD_18_1.png","C_Dist_500_LN_5_LD_14_RN_6_RD_7_1.png","C_Dist_500_LN_7_LD_21_RN_20_RD_24_1.png","C_Dist_500_LN_7_LD_28_RN_12_RD_16_1.png","C_Dist_500_LN_7_LD_28_RN_9_RD_12_1.png","C_Dist_500_LN_9_LD_27_RN_20_RD_24_1.png"]],"dist500_I":[["I_Dist_500_LN_2_LD_3_RN_4_RD_24_0.png","I_Dist_500_LN_5_LD_6_RN_6_RD_18_0.png","I_Dist_500_LN_7_LD_8_RN_9_RD_24_0.png"],["I_Dist_500_LN_7_LD_21_RN_5_RD_6_1.png"]],"dist500_S":[["E_Dist_500_LN_6_LD_8_RN_6_RD_24_0.png"],["E_Dist_500_LN_2_LD_12_RN_2_RD_3_1.png","E_Dist_500_LN_6_LD_24_RN_6_RD_8_1.png"]]}},{"start_time":1551800582469,"click_time":1551800585720,"finger_time":1551800584681,"fix_duration":346.6389767267043,"trial":1,"RT":2212,"MT":1039,"sideResp":1,"stimulus":[],"xmouse":[783,783,783,783,783,783,783,783,783,783,783,783,783,783,783,783,783,783,783,783,783,783,783,783,783,783,783,783,783,783,783,783,783,783,783,783,783,783,783,783,783,783,783,783,783,783,783,783,783,783,783,783,783,783,783,783,783,783,783,783,783,783,783,783,783,783,783,783,783,783,783,783,783,783,783,783,783,783,783,783,783,783,783,783,783,783,783,783,783,783,783,783,783,783,783,783,783,783,783,783,783,783,783,783,783,783,783,783,783,749,614,492,362,148,85,58,49,49,49,49,49,49,49,49,49,49,49,49,49,49,49,49,49,49,53,74,96,116,135,164,196,224,257,331,353,369,374,377,378,378,378,387,394,400,409,413,415,418,432,445,471,487,502],"ymouse":[531,531,531,531,531,531,531,531,531,531,531,531,531,531,531,531,531,531,531,531,531,531,531,531,531,531,531,531,531,531,531,531,531,531,531,531,531,531,531,531,531,531,531,531,531,531,531,531,531,531,531,531,531,531,531,531,531,531,531,531,531,531,531,531,531,531,531,531,531,531,531,531,531,531,531,531,531,531,531,531,531,531,531,531,531,531,531,531,531,531,531,531,531,531,531,531,531,531,531,531,531,531,531,531,531,531,531,531,530,529,529,529,525,498,488,487,486,486,486,486,486,486,486,486,486,486,486,486,486,486,486,486,486,486,488,498,506,509,509,502,479,459,431,361,324,290,266,247,232,218,214,202,194,183,163,155,149,144,135,126,113,101,87],"timestamp_mouse":[11,49,51,72,90,111,131,152,170,191,212,232,250,270,291,311,331,351,372,391,411,430,451,471,492,512,530,551,571,591,611,631,650,672,690,711,731,751,772,792,810,831,851,871,891,910,930,951,971,992,1011,1030,1050,1072,1091,1111,1131,1150,1172,1190,1211,1231,1250,1270,1291,1310,1330,1350,1371,1391,1411,1432,1450,1471,1491,1512,1531,1551,1570,1592,1611,1630,1650,1672,1691,1710,1732,1750,1771,1792,1810,1832,1851,1870,1892,1910,1932,1950,1972,1990,2012,2030,2051,2072,2090,2111,2131,2150,2170,2191,2211,2231,2251,2272,2290,2311,2331,2351,2372,2391,2410,2430,2451,2471,2492,2511,2530,2551,2572,2590,2611,2631,2652,2670,2690,2711,2731,2751,2770,2790,2811,2830,2851,2872,2890,2911,2932,2950,2970,2991,3011,3031,3050,3071,3090,3111,3132,3151,3171,3190,3211,3230,3250],"xSR":741.5,"ySR":469.95,"xT1":424.9,"yT1":0,"xT2":1058.1,"yT2":0,"toosoon":0,"cond_shown":"Incongruent","ratio_trial":100,"L_num":2,"L_den":4,"R_num":6,"R_den":15,"correct_side":1,"subjID":"SamuelAndresCastañedaTapiero33","gender":"No_gender","school":"6","age":"10"},{"start_time":1551800589212,"click_time":1551800595560,"finger_time":1551800591059,"fix_duration":751.4111316724177,"trial":2,"RT":1847,"MT":4501,"sideResp":1,"stimulus":[],"xmouse":[762,762,762,762,762,762,762,762,762,762,762,762,762,762,762,762,762,762,762,762,762,762,762,762,762,762,762,762,762,762,762,762,762,762,762,762,762,762,762,762,762,762,762,762,762,762,762,762,762,762,762,762,762,762,762,762,762,762,762,762,762,762,762,762,762,762,762,762,762,762,762,762,762,762,762,762,762,762,762,762,762,762,762,762,762,762,762,762,762,768,772,777,800,831,855,880,903,920,920,920,920,920,920,920,920,920,920,920,920,920,920,920,920,920,920,920,920,920,917,905,848,597,354,292,130,70,51,64,89,116,138,153,156,156,156,156,158,169,177,182,183,184,185,185,185,188,192,206,209,213,215,215,216,217,218,220,224,225,225,225,225,225,225,225,225,225,225,225,228,230,232,237,238,239,241,241,242,245,248,251,262,276,351,496,626,774,1034,1135,1210,1258,1285,1309,1315,1318,1320,1320,1320,1311,1298,1284,1271,1265,1261,1261,1261,1261,1261,1259,1259,1258,1257,1256,1256,1256,1256,1256,1255,1249,1243,1234,1217,1196,1069,982,882,753,476,376,313,294,292,292,293,297,318,367,637,839,1039,1187,1284,1311,1294,1123,937,767,671,675,745,818,854,864,844,824,727,660,629,641,720,842,942,968,919,867,702,647,644,722,850,956,981,969,627,454,329,281,280,420,587,731,801,794,645,494,388,366,407,501,595,631,633,534,388,363,356,362,404,446,446,446,445,437,419,408,395,385,379,378,385,395,404,414,447,473,485,495,503,514],"ymouse":[557,557,557,557,557,557,557,557,557,557,557,557,557,557,557,557,557,557,557,557,557,557,557,557,557,557,557,557,557,557,557,557,557,557,557,557,557,557,557,557,557,557,557,557,557,557,557,557,557,557,557,557,557,557,557,557,557,557,557,557,557,557,557,557,557,557,557,557,557,557,557,557,557,557,557,557,557,557,557,557,557,557,557,557,557,557,557,557,557,540,532,513,451,380,340,306,275,253,253,253,253,253,253,253,253,253,253,253,253,253,253,253,253,253,253,253,253,253,252,254,258,240,199,184,136,107,78,65,56,45,35,24,17,14,14,14,14,14,15,17,18,18,26,33,39,44,49,56,58,58,59,59,59,60,60,61,62,63,63,63,63,63,63,63,63,63,63,63,65,67,68,72,73,74,75,75,76,79,82,84,90,97,130,185,225,261,301,316,325,329,329,326,321,315,306,300,293,274,263,256,251,249,248,248,248,248,248,248,248,248,248,248,248,248,248,249,250,253,256,260,266,272,275,275,275,266,235,221,211,208,208,208,207,207,206,206,243,270,299,323,344,354,354,354,354,354,357,359,359,352,338,334,339,343,345,350,355,358,358,358,358,361,365,369,369,369,369,358,350,348,347,346,344,344,342,334,333,313,310,310,310,322,349,368,368,368,356,349,349,349,349,372,386,386,386,381,369,358,358,357,357,355,343,329,313,301,288,254,239,227,220,217,211,205,196,177,151,82],"timestamp_mouse":[22,29,48,69,89,108,128,148,167,189,209,228,247,268,288,309,328,347,369,388,407,427,448,468,488,509,528,548,568,589,607,628,648,669,688,707,728,747,768,787,808,828,848,868,887,908,928,947,967,988,1009,1027,1048,1068,1087,1108,1129,1149,1169,1187,1208,1229,1247,1269,1289,1307,1329,1349,1369,1388,1408,1427,1449,1469,1488,1509,1528,1548,1569,1589,1608,1627,1647,1668,1687,1707,1728,1749,1768,1788,1809,1827,1847,1869,1889,1909,1927,1947,1967,1988,2009,2027,2048,2068,2089,2108,2127,2147,2167,2187,2208,2228,2248,2268,2287,2308,2327,2349,2368,2389,2407,2429,2448,2468,2487,2507,2529,2548,2569,2588,2609,2628,2647,2668,2687,2707,2729,2748,2768,2787,2808,2827,2847,2867,2888,2908,2927,2947,2968,2988,3008,3028,3048,3067,3087,3109,3129,3147,3167,3188,3207,3229,3248,3268,3287,3307,3327,3347,3368,3389,3408,3428,3447,3468,3488,3508,3527,3548,3569,3589,3608,3628,3647,3667,3688,3708,3729,3747,3768,3788,3808,3829,3847,3868,3888,3908,3928,3947,3969,3989,4009,4028,4047,4067,4088,4109,4129,4147,4167,4187,4208,4229,4248,4269,4287,4308,4327,4348,4369,4389,4408,4429,4449,4468,4487,4507,4529,4547,4567,4588,4607,4629,4648,4667,4687,4708,4729,4748,4768,4788,4808,4829,4848,4867,4887,4909,4928,4948,4968,4987,5007,5028,5048,5068,5089,5107,5128,5148,5168,5188,5208,5228,5247,5269,5288,5308,5327,5347,5367,5388,5408,5427,5448,5468,5488,5508,5527,5547,5567,5588,5607,5628,5648,5668,5688,5707,5729,5748,5767,5788,5809,5829,5847,5868,5888,5908,5927,5947,5968,5987,6009,6028,6048,6069,6089,6107,6127,6148,6167,6187,6207,6228,6248,6268,6288,6308,6327,6348],"xSR":741.5,"ySR":469.95,"xT1":424.9,"yT1":0,"xT2":1058.1,"yT2":0,"toosoon":0,"cond_shown":"Incongruent","ratio_trial":300,"L_num":4,"L_den":5,"R_num":6,"R_den":12,"correct_side":1,"subjID":"SamuelAndresCastañedaTapiero33","gender":"No_gender","school":"6","age":"10"},{"start_time":1551800600057,"click_time":1551800602080,"finger_time":1551800601481,"fix_duration":314.457635452806,"trial":3,"RT":1424,"MT":599,"sideResp":1,"stimulus":[],"xmouse":[804,804,804,804,804,804,804,804,804,804,804,804,804,804,804,804,804,804,804,804,804,804,804,804,804,804,804,804,804,804,804,804,804,804,804,804,804,804,804,804,804,804,804,804,804,804,804,804,804,804,804,804,804,804,804,804,804,804,804,804,804,804,804,804,804,804,804,804,793,783,743,714,691,667,583,510,411,411,411,411,411,411,411,411,411,411,411,411,411,411,203,223,241,257,266,270,275,283,299,324,406,425],"ymouse":[543,543,543,543,543,543,543,543,543,543,543,543,543,543,543,543,543,543,543,543,543,543,543,543,543,543,543,543,543,543,543,543,543,543,543,543,543,543,543,543,543,543,543,543,543,543,543,543,543,543,543,543,543,543,543,543,543,543,543,543,543,543,543,543,543,543,543,543,542,540,520,495,457,394,212,117,36,36,36,36,36,36,36,36,36,36,36,36,36,36,13,22,30,39,44,47,49,52,55,57,59,61],"timestamp_mouse":[10,32,42,63,82,103,123,143,163,182,203,223,243,264,282,304,322,343,364,382,403,424,442,462,484,502,522,544,564,582,604,622,644,663,682,704,724,743,764,782,804,824,842,862,883,902,923,942,964,984,1003,1023,1043,1063,1082,1103,1123,1143,1164,1184,1203,1224,1243,1264,1284,1303,1324,1343,1364,1383,1403,1424,1444,1464,1485,1503,1524,1544,1564,1584,1604,1624,1643,1664,1684,1703,1723,1743,1763,1783,1803,1823,1844,1864,1884,1904,1923,1943,1963,1984,2004,2023],"xSR":741.5,"ySR":469.95,"xT1":424.9,"yT1":0,"xT2":1058.1,"yT2":0,"toosoon":0,"cond_shown":"Congruent","ratio_trial":300,"L_num":3,"L_den":12,"R_num":11,"R_den":20,"correct_side":2,"subjID":"SamuelAndresCastañedaTapiero33","gender":"No_gender","school":"6","age":"10"},{"start_time":1551800604703,"click_time":1551800609900,"finger_time":1551800606400,"fix_duration":480.03743156558255,"trial":4,"RT":1697,"MT":3500,"sideResp":2,"stimulus":[],"xmouse":[797,797,797,797,797,797,797,797,797,797,797,797,797,797,797,797,797,797,797,797,797,797,797,797,797,797,797,797,797,797,797,797,797,797,797,797,797,797,797,797,797,797,797,797,797,797,797,797,797,797,797,797,797,797,797,797,797,797,797,797,797,797,797,797,797,797,797,797,797,797,797,797,797,797,797,797,797,797,797,797,797,797,793,757,700,635,564,460,425,416,416,416,416,416,416,416,416,450,494,529,551,565,583,584,584,584,578,566,557,555,555,555,555,555,555,555,555,556,557,558,558,559,565,572,590,637,894,1179,1349,1505,1505,1505,1505,1505,1557,1529,1495,1434,1427,1424,1422,1411,1395,1372,1342,1309,1281,1207,1188,1104,1049,1010,973,970,970,970,970,971,971,968,954,939,913,906,900,896,889,875,860,841,824,794,778,762,745,727,695,676,670,662,658,654,639,627,612,600,586,581,576,571,568,562,560,558,557,557,556,555,554,551,549,533,523,517,515,515,515,515,515,515,515,515,515,515,515,515,515,523,576,680,747,863,886,896,898,899,905,920,935,945,951,956,958,962,969,979,998,1010,1016,1023,1029,1034,1045,1046,1046,1046,1046,1047,1052,1057,1063,1071,1073,1074,1074,1076,1079,1092,1100,1103],"ymouse":[555,555,555,555,555,555,555,555,555,555,555,555,555,555,555,555,555,555,555,555,555,555,555,555,555,555,555,555,555,555,555,555,555,555,555,555,555,555,555,555,555,555,555,555,555,555,555,555,555,555,555,555,555,555,555,555,555,555,555,555,555,555,555,555,555,555,555,555,555,555,555,555,555,555,555,555,555,555,555,555,555,555,554,557,565,566,566,554,548,547,547,547,547,547,547,547,547,519,488,461,438,411,339,294,245,193,152,108,96,94,94,94,94,94,94,94,96,99,104,105,107,109,120,129,144,167,224,259,262,262,262,262,262,262,216,206,195,176,173,172,172,172,172,172,172,172,172,172,172,172,172,172,172,172,172,172,172,172,172,172,172,172,174,176,177,177,178,179,179,179,179,179,179,179,179,179,177,173,171,169,167,167,162,160,159,157,155,154,154,154,154,154,154,154,154,154,154,154,154,154,154,154,154,154,154,154,154,154,154,154,154,154,154,154,154,154,154,155,157,167,176,203,206,207,207,207,207,207,207,207,207,207,207,207,207,205,203,203,203,203,203,202,200,200,200,200,200,199,197,195,194,190,190,189,189,186,181,147,112,96],"timestamp_mouse":[17,37,57,77,98,117,137,157,177,197,218,237,257,277,297,318,338,357,377,397,418,438,457,477,498,517,538,558,577,597,618,637,658,677,697,717,738,758,778,797,817,837,857,877,898,917,938,957,978,997,1017,1038,1058,1077,1097,1117,1138,1158,1178,1198,1218,1237,1258,1278,1297,1317,1337,1357,1378,1397,1417,1438,1458,1478,1498,1517,1537,1558,1579,1598,1618,1638,1658,1677,1697,1718,1738,1757,1777,1798,1817,1838,1857,1878,1898,1918,1938,1957,1977,1998,2017,2037,2057,2078,2097,2117,2137,2157,2178,2197,2218,2237,2258,2278,2297,2317,2339,2357,2378,2397,2418,2437,2457,2478,2498,2518,2538,2557,2578,2597,2618,2638,2657,2677,2698,2717,2737,2757,2777,2798,2817,2838,2857,2878,2898,2918,2937,2957,2978,2997,3018,3038,3058,3078,3097,3118,3137,3157,3177,3197,3217,3238,3257,3277,3298,3318,3338,3357,3377,3398,3418,3438,3457,3478,3497,3518,3538,3557,3578,3597,3618,3637,3657,3678,3697,3717,3738,3757,3777,3797,3818,3838,3857,3878,3897,3918,3939,3957,3978,3997,4018,4038,4057,4077,4097,4117,4137,4158,4178,4198,4218,4238,4257,4278,4297,4317,4338,4357,4377,4397,4417,4438,4457,4477,4497,4518,4539,4557,4577,4597,4617,4638,4657,4677,4697,4717,4738,4757,4777,4797,4817,4837,4858,4878,4898,4917,4937,4957,4977,4997,5017,5038,5057,5078,5098,5117,5137,5157,5177,5197],"xSR":741.5,"ySR":469.95,"xT1":424.9,"yT1":0,"xT2":1058.1,"yT2":0,"toosoon":0,"cond_shown":"Incongruent","ratio_trial":100,"L_num":9,"L_den":18,"R_num":6,"R_den":10,"correct_side":2,"subjID":"SamuelAndresCastañedaTapiero33","gender":"No_gender","school":"6","age":"10"},{"start_time":1551800613303,"click_time":1551800620020,"finger_time":1551800614641,"fix_duration":1222.196764883956,"trial":5,"RT":1338,"MT":5379,"sideResp":2,"stimulus":[],"xmouse":[773,773,773,773,773,773,773,773,773,773,773,773,773,773,773,773,773,773,773,773,773,773,773,773,773,773,773,773,773,773,773,773,773,773,773,773,773,773,773,773,773,773,773,773,773,773,773,773,773,773,773,773,773,773,773,773,773,773,773,773,773,773,773,773,770,763,716,684,670,662,659,658,648,632,612,591,568,526,517,507,498,487,459,455,451,449,449,449,449,449,449,449,449,449,449,449,449,449,449,449,449,449,449,449,449,449,449,449,449,449,449,449,450,450,450,450,450,450,450,450,450,450,450,450,450,450,450,450,450,450,450,450,450,450,450,450,450,450,450,450,450,450,450,450,450,450,450,450,450,450,450,450,450,450,450,450,450,450,450,450,450,450,450,450,450,450,450,450,450,450,450,450,450,450,450,450,450,450,450,450,450,450,450,450,450,450,450,450,450,450,450,450,450,450,450,450,450,450,450,450,450,450,450,450,450,450,450,450,450,454,465,635,781,906,959,1003,1033,1060,1067,1081,1104,1137,1228,1271,1296,1308,1312,1312,1311,1305,1300,1291,1290,1289,1288,1288,1288,1288,1288,1281,1272,1264,1263,1263,1261,1261,1260,1257,1256,1256,1256,1252,1249,1246,1246,1246,1243,1242,1242,1241,1240,1240,1239,1237,1235,1231,1231,1226,1219,1215,1214,1213,1211,1209,1209,1209,1209,1208,1204,1201,1197,1196,1195,1195,1195,1194,1192,1186,1176,1168,1158,1142,1137,1134,1131,1129,1127,1125,1123,1122,1121,1120,1119,1118,1118,1117,1116,1115,1115,1115,1115,1115,1115,1115,1115,1115,1115,1115,1115,1115,1115,1115,1115,1115,1115,1115,1114,1114,1114,1114,1114,1114,1114,1114,1114,1114],"ymouse":[531,531,531,531,531,531,531,531,531,531,531,531,531,531,531,531,531,531,531,531,531,531,531,531,531,531,531,531,531,531,531,531,531,531,531,531,531,531,531,531,531,531,531,531,531,531,531,531,531,531,531,531,531,531,531,531,531,531,531,531,531,531,531,531,531,532,538,538,538,537,537,537,537,537,537,537,536,532,531,531,531,531,529,528,526,525,525,525,525,525,525,525,525,525,525,525,525,525,525,525,525,525,525,525,525,525,525,525,525,525,525,523,523,523,523,523,523,523,523,523,523,523,523,523,523,523,523,523,523,523,523,523,523,523,523,523,523,523,523,523,523,523,523,523,523,523,523,523,523,523,523,523,523,523,523,523,523,523,523,523,523,523,523,523,523,523,523,523,523,523,523,523,523,523,523,523,523,523,523,523,523,523,523,523,523,523,523,523,523,523,523,523,523,523,523,523,523,523,523,523,523,523,523,523,523,523,523,523,523,521,518,457,410,373,352,332,321,312,306,297,285,275,247,227,212,203,197,191,187,180,175,168,167,167,167,167,167,167,167,170,176,182,182,182,183,183,183,184,185,185,185,185,185,185,185,185,186,186,186,186,187,187,187,187,187,188,188,189,190,191,191,191,192,192,192,192,192,192,189,188,186,185,185,185,185,184,183,180,174,171,165,153,149,146,144,142,138,136,132,131,131,129,126,124,123,121,120,118,118,118,118,117,117,115,115,115,114,114,113,113,113,111,111,109,108,107,106,103,102,101,101,100,100,100,100,99],"timestamp_mouse":[18,39,57,77,98,121,138,157,177,199,217,237,257,277,297,317,337,357,377,398,417,437,457,478,498,517,537,558,577,597,617,637,657,677,697,718,737,757,777,798,817,837,857,878,897,917,937,958,977,997,1018,1037,1057,1077,1097,1117,1137,1158,1177,1197,1217,1237,1258,1278,1297,1317,1338,1357,1377,1397,1417,1437,1457,1478,1497,1517,1537,1557,1578,1597,1617,1637,1657,1678,1697,1717,1738,1757,1778,1798,1818,1837,1857,1877,1898,1917,1938,1957,1978,1998,2018,2038,2057,2077,2098,2117,2138,2157,2178,2198,2217,2237,2257,2277,2297,2318,2339,2358,2377,2397,2417,2438,2457,2477,2497,2517,2537,2557,2578,2597,2617,2638,2657,2677,2698,2717,2738,2757,2778,2797,2817,2837,2857,2877,2898,2917,2937,2957,2977,2998,3017,3039,3057,3077,3098,3118,3138,3158,3177,3197,3218,3237,3257,3278,3297,3317,3338,3357,3378,3397,3417,3438,3458,3478,3498,3518,3537,3558,3578,3598,3618,3638,3657,3677,3697,3718,3738,3757,3777,3797,3817,3838,3857,3877,3898,3917,3937,3957,3977,3998,4017,4038,4058,4077,4098,4117,4138,4157,4177,4197,4217,4238,4257,4277,4297,4318,4337,4357,4378,4397,4418,4437,4457,4478,4497,4518,4538,4557,4579,4597,4617,4638,4658,4678,4698,4717,4738,4757,4777,4798,4817,4838,4857,4878,4897,4918,4939,4957,4977,4998,5017,5039,5057,5078,5097,5118,5138,5157,5177,5197,5218,5237,5258,5278,5297,5317,5337,5357,5377,5397,5417,5439,5458,5477,5498,5518,5537,5558,5578,5598,5618,5638,5657,5678,5697,5717,5738,5757,5777,5797,5818,5838,5857,5878,5898,5917,5939,5957,5977,5998,6017,6037,6058,6077,6097,6118,6137,6157,6177,6198,6218,6238,6259,6277,6298,6317,6338,6358,6377,6398,6418,6438,6457,6478,6497,6517,6538,6557,6577,6598,6618,6638,6657,6678,6698,6717],"xSR":741.5,"ySR":469.95,"xT1":424.9,"yT1":0,"xT2":1058.1,"yT2":0,"toosoon":0,"cond_shown":"Congruent","ratio_trial":100,"L_num":1,"L_den":2,"R_num":3,"R_den":5,"correct_side":2,"subjID":"SamuelAndresCastañedaTapiero33","gender":"No_gender","school":"6","age":"10"},{"start_time":1551800633841,"click_time":1551800641960,"finger_time":1551800638660,"fix_duration":1359.576093695533,"trial":6,"RT":4819,"MT":3300,"sideResp":2,"stimulus":[],"xmouse":[800,800,800,800,800,800,800,800,800,800,800,800,800,800,800,800,800,800,800,800,800,800,800,800,800,800,800,800,800,800,800,800,800,800,800,800,800,800,800,800,800,800,800,800,800,800,800,800,800,800,800,800,800,800,800,800,800,800,800,800,800,800,800,800,800,800,800,800,800,800,800,800,800,800,800,800,800,800,800,800,800,800,800,800,800,800,800,800,800,800,800,800,800,800,800,800,800,800,800,800,800,800,800,800,800,800,800,800,800,800,800,800,800,800,800,800,800,800,800,800,800,800,800,800,800,800,800,800,800,800,800,800,800,800,800,800,800,800,800,800,800,800,800,800,800,800,800,800,800,800,800,800,800,800,800,800,800,800,800,800,800,800,800,800,800,800,800,800,800,800,800,800,800,800,800,800,800,800,800,800,800,800,800,800,800,800,800,800,800,800,800,800,800,800,800,800,800,800,800,800,800,800,800,800,800,800,800,800,800,800,800,800,800,800,800,800,800,800,800,800,800,800,800,800,800,800,800,800,800,800,800,800,800,800,801,809,819,829,833,840,854,864,871,877,881,893,900,910,920,930,959,975,989,1001,1014,1026,1028,1029,1031,1033,1035,1037,1040,1042,1045,1049,1051,1054,1057,1061,1064,1066,1068,1070,1070,1070,1070,1070,1071,1071,1073,1075,1075,1077,1077,1079,1080,1081,1082,1083,1083,1084,1085,1085,1086,1086,1086,1086,1087,1087,1088,1088,1088,1088,1088,1089,1089,1089,1090,1090,1090,1090,1091,1091,1091,1091,1091,1091,1091,1091,1091,1091,1091,1091,1091,1091,1091,1091,1091,1091,1091,1091,1091,1091,1091,1091,1091,1091,1091,1091,1091,1091,1091,1091,1092,1092,1092,1092,1092,1093,1093,1093,1093,1093,1094,1094,1094,1094,1094,1094,1095,1095,1095,1095,1095,1095,1095,1095,1095,1095,1095,1095,1095,1095,1095,1095,1095,1095,1095,1095,1095,1095,1095,1095,1095,1095,1095,1095,1095,1095,1095,1095,1095,1095,1095,1095,1095,1095,1095,1095,1095,1095,1095,1095,1095,1095],"ymouse":[544,544,544,544,544,544,544,544,544,544,544,544,544,544,544,544,544,544,544,544,544,544,544,544,544,544,544,544,544,544,544,544,544,544,544,544,544,544,544,544,544,544,544,544,544,544,544,544,544,544,544,544,544,544,544,544,544,544,544,544,544,544,544,544,544,544,544,544,544,544,544,544,544,544,544,544,544,544,544,544,544,544,544,544,544,544,544,544,544,544,544,544,544,544,544,544,544,544,544,544,544,544,544,544,544,544,544,544,544,544,544,544,544,544,544,544,544,544,544,544,544,544,544,544,544,544,544,544,544,544,544,544,544,544,544,544,544,544,544,544,544,544,544,544,544,544,544,544,544,544,544,544,544,544,544,544,544,544,544,544,544,544,544,544,544,544,544,544,544,544,544,544,544,544,544,544,544,544,544,544,544,544,544,544,544,544,544,544,544,544,544,544,544,544,544,544,544,544,544,544,544,544,544,544,544,544,544,544,544,544,544,544,544,544,544,544,544,544,544,544,544,544,544,544,544,544,544,544,544,544,544,544,544,544,544,536,522,510,502,492,467,450,438,429,422,405,395,382,371,360,328,313,301,290,280,269,266,261,258,251,245,241,236,231,226,221,218,215,211,204,199,196,191,186,177,172,169,166,164,163,158,155,152,149,146,142,139,139,138,135,134,133,132,131,129,128,128,128,127,126,125,125,124,123,123,122,121,121,120,120,119,118,118,118,117,116,116,116,116,116,116,116,115,115,115,115,114,114,114,114,114,114,114,114,114,114,114,114,114,114,113,113,113,112,112,111,111,111,110,109,108,108,108,107,106,105,105,105,105,105,104,104,104,104,104,104,104,103,103,103,101,101,101,101,101,101,101,101,101,101,101,101,101,101,101,101,101,101,101,101,101,101,101,101,101,101,101,101,101,100,100,100,100,100,100,99],"timestamp_mouse":[23,39,59,80,100,120,140,160,179,201,219,240,260,279,299,319,339,359,380,399,419,440,460,480,499,519,540,560,581,599,619,639,660,680,700,719,739,760,780,799,820,840,859,880,899,919,940,959,979,1000,1019,1041,1059,1080,1100,1120,1139,1159,1179,1200,1219,1240,1260,1280,1300,1319,1340,1360,1380,1400,1419,1439,1460,1479,1500,1519,1539,1560,1580,1600,1620,1639,1660,1679,1699,1719,1740,1760,1780,1800,1819,1840,1860,1880,1899,1920,1940,1960,1979,2000,2019,2040,2060,2079,2099,2119,2140,2159,2181,2200,2219,2240,2260,2280,2300,2320,2340,2360,2379,2400,2420,2440,2460,2479,2500,2520,2540,2560,2580,2599,2620,2639,2659,2680,2700,2721,2739,2759,2780,2799,2820,2840,2859,2879,2899,2919,2939,2959,2979,3000,3020,3040,3059,3080,3099,3119,3139,3160,3179,3200,3219,3240,3259,3279,3300,3320,3340,3359,3379,3399,3420,3440,3460,3479,3499,3519,3540,3560,3580,3600,3620,3639,3659,3680,3699,3719,3739,3759,3780,3800,3820,3841,3860,3880,3899,3919,3940,3959,3980,3999,4019,4039,4059,4079,4100,4119,4140,4159,4180,4200,4219,4240,4260,4280,4300,4321,4341,4360,4379,4400,4420,4441,4460,4480,4499,4519,4539,4559,4579,4600,4619,4640,4659,4679,4699,4719,4739,4759,4779,4800,4819,4839,4859,4880,4899,4919,4940,4960,4979,4999,5020,5039,5059,5080,5100,5119,5139,5159,5180,5201,5219,5239,5259,5279,5300,5320,5339,5359,5380,5400,5419,5439,5459,5479,5500,5519,5539,5560,5580,5599,5619,5639,5660,5680,5700,5719,5739,5759,5780,5800,5819,5840,5859,5879,5901,5919,5940,5959,5980,5999,6019,6039,6059,6079,6099,6120,6139,6159,6179,6200,6219,6240,6259,6279,6300,6320,6340,6359,6381,6400,6420,6440,6460,6479,6500,6519,6539,6559,6579,6599,6620,6639,6659,6680,6701,6719,6739,6760,6780,6800,6819,6840,6860,6879,6900,6919,6941,6960,6980,7000,7019,7040,7060,7080,7100,7120,7139,7159,7180,7199,7220,7240,7260,7279,7300,7319,7339,7359,7379,7399,7419,7439,7459,7481,7499,7519,7539,7560,7579,7600,7619,7639,7659,7680,7700,7719,7740,7759,7779,7800,7819,7840,7860,7879,7899,7919,7939,7959,7979,7999,8019,8039,8059,8079,8100,8119],"xSR":741.5,"ySR":469.95,"xT1":424.9,"yT1":0,"xT2":1058.1,"yT2":0,"toosoon":0,"cond_shown":"Congruent","ratio_trial":300,"L_num":1,"L_den":5,"R_num":6,"R_den":12,"correct_side":2,"subjID":"SamuelAndresCastañedaTapiero33","gender":"No_gender","school":"6","age":"10"},{"start_time":1551800647412,"click_time":1551800651178,"finger_time":1551800649081,"fix_duration":250,"trial":7,"RT":1669,"MT":2097,"sideResp":2,"stimulus":[],"xmouse":[798,798,798,798,798,798,798,798,798,798,798,798,798,798,798,798,798,798,798,798,798,798,798,798,798,798,798,798,798,798,798,798,798,798,798,798,798,798,798,798,798,798,798,798,798,798,798,798,798,798,798,798,798,798,798,798,798,798,798,798,798,798,798,798,798,798,798,798,798,798,798,798,798,798,798,798,798,798,798,798,798,798,816,959,1040,1138,1138,1138,1138,1138,1138,1138,1138,1138,1138,1138,1138,1138,1138,1138,1138,1138,1138,1138,1138,1138,1138,1138,1138,1138,1138,1138,1138,1138,1138,1138,1138,1138,1138,1138,1138,1138,1138,1138,1138,1138,1138,1138,1138,1138,1138,1138,1138,1138,1138,1138,1138,1138,1138,1138,1138,1138,1138,1399,1359,1316,1271,1265,1265,1265,1274,1295,1300,1301,1301,1299,1293,1264,1244,1221,1203,1193,1184,1179,1175,1171,1168,1164,1163,1162,1162,1162,1162,1161,1160,1159,1157,1154,1153,1151,1150,1149,1148,1147,1147,1146,1146,1146],"ymouse":[561,561,561,561,561,561,561,561,561,561,561,561,561,561,561,561,561,561,561,561,561,561,561,561,561,561,561,561,561,561,561,561,561,561,561,561,561,561,561,561,561,561,561,561,561,561,561,561,561,561,561,561,561,561,561,561,561,561,561,561,561,561,561,561,561,561,561,561,561,561,561,561,561,561,561,561,561,561,561,561,561,561,562,586,636,712,712,712,712,712,712,712,712,712,712,712,712,712,712,712,712,712,712,712,712,712,712,712,712,712,712,712,712,712,712,712,712,712,712,712,712,712,712,712,712,712,712,712,712,712,712,712,712,712,712,712,712,712,712,712,712,712,712,697,625,550,409,368,345,328,309,280,271,267,265,262,259,251,248,243,237,231,224,221,219,216,211,202,191,184,180,171,165,161,157,152,147,135,130,125,121,110,106,103,102,100,100,98],"timestamp_mouse":[15,29,48,69,88,109,130,148,168,188,208,229,249,268,288,308,329,348,370,389,408,428,449,469,489,508,528,548,569,588,608,628,648,668,689,710,729,749,768,789,808,829,849,868,888,909,929,948,968,988,1008,1029,1049,1068,1088,1109,1128,1148,1169,1188,1208,1229,1248,1268,1289,1308,1329,1348,1368,1388,1408,1428,1449,1469,1489,1508,1528,1549,1568,1588,1608,1629,1648,1669,1688,1708,1728,1748,1768,1788,1809,1829,1848,1869,1889,1908,1928,1949,1970,1989,2009,2028,2048,2068,2088,2109,2128,2149,2168,2189,2208,2229,2248,2268,2288,2309,2329,2348,2368,2388,2408,2429,2448,2469,2488,2508,2528,2550,2568,2589,2609,2628,2648,2669,2689,2708,2728,2748,2769,2789,2809,2829,2848,2868,2888,2908,2929,2948,2968,2988,3008,3029,3049,3069,3088,3109,3128,3148,3168,3188,3208,3228,3248,3269,3288,3308,3329,3348,3368,3389,3408,3428,3448,3468,3488,3508,3529,3549,3568,3590,3608,3629,3648,3668,3688,3708,3728,3766],"xSR":741.5,"ySR":469.95,"xT1":424.9,"yT1":0,"xT2":1058.1,"yT2":0,"toosoon":0,"cond_shown":"Incongruent","ratio_trial":300,"L_num":4,"L_den":20,"R_num":2,"R_den":4,"correct_side":2,"subjID":"SamuelAndresCastañedaTapiero33","gender":"No_gender","school":"6","age":"10"},{"start_time":1551800658368,"click_time":1551800662181,"finger_time":1551800660221,"fix_duration":565.9535616437698,"trial":8,"RT":1853,"MT":1960,"sideResp":1,"stimulus":[],"xmouse":[787,787,787,787,787,787,787,787,787,787,787,787,787,787,787,787,787,787,787,787,787,787,787,787,787,787,787,787,787,787,787,787,787,787,787,787,787,787,787,787,787,787,787,787,787,787,787,787,787,787,787,787,787,787,787,787,787,787,787,787,787,787,787,787,787,787,787,787,787,787,787,787,787,787,787,787,787,787,787,787,787,787,787,787,787,787,787,787,787,787,786,779,757,732,692,677,670,666,663,654,650,649,649,649,649,649,649,649,649,649,649,649,649,649,649,649,649,649,649,649,649,649,649,649,649,649,649,649,649,650,651,651,651,651,651,651,651,651,651,651,651,651,651,651,651,651,651,651,651,651,651,651,651,651,651,651,651,651,651,651,651,651,651,651,648,648,648,647,635,623,616,609,609,609,600,600,600,600,600,600,600,600,600,600,600,600,600,600,600,600,493],"ymouse":[560,560,560,560,560,560,560,560,560,560,560,560,560,560,560,560,560,560,560,560,560,560,560,560,560,560,560,560,560,560,560,560,560,560,560,560,560,560,560,560,560,560,560,560,560,560,560,560,560,560,560,560,560,560,560,560,560,560,560,560,560,560,560,560,560,560,560,560,560,560,560,560,560,560,560,560,560,560,560,560,560,560,560,560,560,560,560,560,560,560,560,566,581,594,607,611,613,613,614,614,614,614,614,614,614,614,614,614,614,614,614,614,614,614,614,614,614,614,614,614,614,614,614,614,614,614,614,614,614,613,612,612,612,612,612,612,612,612,612,612,612,612,612,612,612,612,612,612,612,612,612,612,612,612,612,612,612,612,612,612,612,609,603,591,545,508,477,448,372,326,279,227,170,107,7,7,7,7,7,7,7,7,7,7,7,7,7,7,7,7,3],"timestamp_mouse":[12,38,52,74,92,112,132,152,173,192,212,232,253,272,292,312,333,354,373,392,413,432,452,472,492,513,533,552,572,593,612,632,653,672,692,712,732,753,773,792,812,832,852,872,893,912,932,953,974,993,1012,1033,1052,1072,1093,1112,1133,1153,1172,1192,1212,1233,1252,1273,1292,1313,1332,1352,1372,1393,1413,1432,1452,1472,1493,1513,1532,1552,1572,1594,1614,1632,1652,1673,1692,1712,1732,1752,1772,1792,1813,1833,1853,1873,1892,1912,1932,1952,1972,1992,2013,2032,2054,2072,2092,2113,2132,2152,2173,2194,2213,2232,2252,2272,2292,2313,2333,2352,2373,2393,2412,2432,2453,2473,2493,2513,2534,2552,2572,2592,2613,2632,2652,2672,2692,2713,2732,2753,2774,2793,2813,2833,2852,2872,2891,2912,2932,2953,2973,2993,3013,3033,3053,3072,3093,3112,3133,3152,3172,3192,3212,3232,3252,3272,3292,3313,3332,3352,3373,3392,3412,3431,3451,3471,3492,3513,3532,3553,3573,3592,3613,3633,3652,3672,3693,3712,3732,3753,3772,3793,3813],"xSR":741.5,"ySR":469.95,"xT1":424.9,"yT1":0,"xT2":1058.1,"yT2":0,"toosoon":0,"cond_shown":"Congruent","ratio_trial":200,"L_num":9,"L_den":20,"R_num":4,"R_den":16,"correct_side":1,"subjID":"SamuelAndresCastañedaTapiero33","gender":"No_gender","school":"6","age":"10"},{"start_time":1551800666071,"click_time":1551800668541,"finger_time":1551800667360,"fix_duration":250,"trial":9,"RT":1289,"MT":1181,"sideResp":2,"stimulus":[],"xmouse":[776,776,776,776,776,776,776,776,776,776,776,776,776,776,776,776,776,776,776,776,776,776,776,776,776,776,776,776,776,776,776,776,776,776,776,776,776,776,776,776,776,776,776,776,776,776,776,776,776,776,776,776,776,775,775,775,775,775,775,775,775,773,768,760,715,683,657,649,648,659,707,740,754,755,755,757,761,773,857,1034,1127,1419,1558,1558,1558,1558,1558,1558,1558,1580,1566,1561,1557,1556,1557,1557,1545,1516,1469,1322,1281,1244,1207,1184,1164,1162,1162,1162,1162,1163,1164,1165,1165,1165,1165,1165,1164,1163,1163,1163,1163,1162,1161,1155],"ymouse":[530,530,530,530,530,530,530,530,530,530,530,530,530,530,530,530,530,530,530,530,530,530,530,530,530,530,530,530,530,530,530,530,530,530,530,530,530,530,530,530,530,530,530,530,530,530,530,530,530,530,530,530,530,530,530,530,530,530,530,530,530,530,531,535,579,626,662,679,683,679,640,620,614,613,613,615,623,635,654,658,650,587,536,536,536,536,536,536,536,337,321,310,300,295,275,258,236,208,172,97,78,62,50,40,33,32,32,32,32,32,34,37,39,44,45,46,47,48,48,48,48,48,49,50],"timestamp_mouse":[10,36,49,69,90,109,129,149,170,189,209,229,250,270,289,309,330,349,369,389,409,429,449,470,489,509,530,549,570,589,610,629,649,670,689,710,729,749,769,789,809,829,850,870,888,909,929,950,970,989,1009,1029,1049,1068,1089,1109,1130,1150,1170,1189,1210,1230,1249,1269,1289,1309,1329,1349,1370,1389,1409,1429,1449,1469,1489,1510,1529,1550,1570,1589,1609,1629,1648,1670,1689,1709,1729,1749,1769,1788,1809,1829,1848,1870,1889,1909,1929,1949,1969,1989,2009,2028,2049,2069,2089,2110,2129,2149,2169,2191,2209,2229,2249,2269,2289,2309,2329,2350,2370,2389,2409,2430,2450,2470],"xSR":741.5,"ySR":469.95,"xT1":424.9,"yT1":0,"xT2":1058.1,"yT2":0,"toosoon":0,"cond_shown":"Congruent","ratio_trial":200,"L_num":5,"L_den":10,"R_num":14,"R_den":20,"correct_side":2,"subjID":"SamuelAndresCastañedaTapiero33","gender":"No_gender","school":"6","age":"10"},{"start_time":1551800673053,"click_time":1551800676742,"finger_time":1551800674641,"fix_duration":250,"trial":10,"RT":1588,"MT":2101,"sideResp":2,"stimulus":[],"xmouse":[801,801,801,801,801,801,801,801,801,801,801,801,801,801,801,801,801,801,801,801,801,801,801,801,801,801,801,801,801,801,801,801,801,801,801,801,801,801,801,801,801,801,801,801,801,801,801,801,801,801,801,801,801,801,801,801,801,801,801,801,801,801,801,801,801,801,801,801,801,801,801,801,801,801,801,801,804,810,824,845,1034,1287,1427,1548,1548,1548,1548,1564,1549,1539,1525,1516,1510,1503,1495,1479,1466,1450,1425,1231,1053,973,935,925,925,927,931,933,937,943,944,948,951,954,959,968,975,988,1003,1026,1030,1030,1030,1030,1030,1030,1030,1030,1030,1030,1030,1030,1030,1030,1030,1031,1033,1034,1036,1042,1045,1045,1047,1047,1047,1049,1050,1051,1051,1053,1053,1053,1053,1053,1053,1053,1053,1053,1053,1053,1053,1053,1053,1053,1053,1053,1054,1054,1054,1055,1056,1057,1057,1057,1057,1057,1057,1057,1057,1057,1057,1057,1058,1058,1059],"ymouse":[560,560,560,560,560,560,560,560,560,560,560,560,560,560,560,560,560,560,560,560,560,560,560,560,560,560,560,560,560,560,560,560,560,560,560,560,560,560,560,560,560,560,560,560,560,560,560,560,560,560,560,560,560,560,560,560,560,560,560,560,560,560,560,560,560,560,560,560,560,560,560,560,560,560,560,560,560,561,562,563,535,502,488,472,472,472,472,366,345,325,288,266,252,240,229,212,206,201,195,169,126,92,69,57,50,44,43,42,42,38,38,37,36,35,34,33,33,35,41,48,50,50,50,50,50,50,50,51,51,51,51,51,51,51,52,54,55,55,56,57,57,57,57,57,57,57,57,57,57,58,58,58,58,58,58,58,58,58,58,58,58,58,58,58,58,58,58,58,58,58,58,58,58,58,58,58,58,58,58,58,58,58,58,58,58],"timestamp_mouse":[10,37,47,67,88,108,127,147,167,187,207,227,247,267,287,307,327,347,367,387,407,428,446,467,487,507,527,548,567,587,607,628,647,668,687,707,727,747,767,787,807,828,847,867,887,908,928,947,967,987,1008,1027,1047,1068,1088,1107,1127,1147,1167,1188,1207,1227,1247,1267,1287,1307,1327,1347,1367,1388,1408,1427,1447,1467,1487,1508,1528,1547,1567,1588,1607,1628,1647,1667,1688,1707,1727,1748,1768,1787,1806,1826,1847,1868,1887,1907,1927,1948,1968,1988,2007,2028,2047,2068,2087,2107,2128,2147,2167,2188,2207,2227,2246,2267,2288,2307,2327,2347,2367,2388,2407,2427,2447,2468,2487,2507,2528,2547,2567,2588,2607,2629,2647,2667,2688,2707,2727,2748,2767,2787,2807,2827,2848,2868,2887,2907,2927,2947,2967,2988,3007,3028,3048,3068,3088,3107,3127,3148,3167,3188,3207,3227,3247,3267,3287,3307,3327,3347,3367,3387,3407,3427,3448,3467,3487,3507,3527,3547,3566,3588,3607,3627,3647,3667,3688],"xSR":741.5,"ySR":469.95,"xT1":424.9,"yT1":0,"xT2":1058.1,"yT2":0,"toosoon":0,"cond_shown":"Congruent","ratio_trial":100,"L_num":15,"L_den":25,"R_num":13,"R_den":26,"correct_side":1,"subjID":"SamuelAndresCastañedaTapiero33","gender":"No_gender","school":"6","age":"10"},{"start_time":1551800680833,"click_time":1551800683140,"finger_time":1551800682141,"fix_duration":250,"trial":11,"RT":1308,"MT":999,"sideResp":2,"stimulus":[],"xmouse":[830,830,830,830,830,830,830,830,830,830,830,830,830,830,830,830,830,830,830,830,830,830,830,830,830,830,830,830,830,830,830,830,830,830,830,830,830,830,830,830,830,830,830,830,830,830,830,830,830,830,830,830,830,830,830,830,830,830,830,830,830,830,830,830,832,846,860,886,934,970,985,1001,1005,1017,1027,1045,1050,1053,1057,1061,1068,1071,1072,1073,1075,1078,1081,1082,1082,1082,1082,1082,1082,1082,1082,1082,1083,1083,1083,1083,1083,1084,1086,1088,1089,1090,1090,1090,1090,1090,1090,1090,1090,1090,1090,1090],"ymouse":[549,549,549,549,549,549,549,549,549,549,549,549,549,549,549,549,549,549,549,549,549,549,549,549,549,549,549,549,549,549,549,549,549,549,549,549,549,549,549,549,549,549,549,549,549,549,549,549,549,549,549,549,549,549,549,549,549,549,549,549,549,549,549,549,547,527,511,480,431,388,367,323,301,264,237,198,187,179,171,165,152,144,142,138,134,127,117,114,112,111,111,111,111,111,111,111,110,110,110,110,110,109,107,106,105,103,102,102,102,102,102,101,101,100,100,99],"timestamp_mouse":[7,27,47,68,88,108,127,147,168,187,207,228,248,267,287,307,327,347,367,387,408,427,447,468,487,508,527,547,568,588,607,627,647,667,688,708,727,747,768,788,806,828,848,868,888,907,927,948,967,988,1007,1027,1047,1068,1087,1107,1127,1148,1167,1187,1207,1227,1247,1268,1287,1308,1326,1348,1367,1388,1407,1427,1447,1468,1487,1509,1527,1548,1568,1587,1608,1626,1647,1668,1688,1707,1727,1748,1767,1787,1807,1828,1847,1867,1887,1908,1927,1947,1968,1987,2008,2027,2047,2067,2088,2107,2127,2148,2167,2188,2208,2227,2248,2268,2288,2307],"xSR":741.5,"ySR":469.95,"xT1":424.9,"yT1":0,"xT2":1058.1,"yT2":0,"toosoon":0,"cond_shown":"Incongruent","ratio_trial":300,"L_num":13,"L_den":26,"R_num":12,"R_den":15,"correct_side":2,"subjID":"SamuelAndresCastañedaTapiero33","gender":"No_gender","school":"6","age":"10"},{"start_time":1551800685511,"click_time":1551800687341,"finger_time":1551800686880,"fix_duration":250,"trial":12,"RT":1369,"MT":461,"sideResp":2,"stimulus":[],"xmouse":[803,803,803,803,803,803,803,803,803,803,803,803,803,803,803,803,803,803,803,803,803,803,803,803,803,803,803,803,803,803,803,803,803,803,803,803,803,803,803,803,803,803,803,803,803,803,803,803,803,803,803,803,803,803,803,803,803,803,803,803,803,803,803,803,803,807,812,837,857,868,874,878,896,917,943,965,984,1018,1039,1053,1066,1085,1090,1096,1103,1110,1119,1120,1120,1120,1120,1118],"ymouse":[537,537,537,537,537,537,537,537,537,537,537,537,537,537,537,537,537,537,537,537,537,537,537,537,537,537,537,537,537,537,537,537,537,537,537,537,537,537,537,537,537,537,537,537,537,537,537,537,537,537,537,537,537,537,537,537,537,537,537,537,537,537,537,537,537,536,534,519,489,470,454,437,389,351,318,293,273,240,218,206,196,175,161,147,131,118,104,103,103,103,102,99],"timestamp_mouse":[9,34,49,69,88,109,130,150,171,190,210,228,250,270,289,309,330,350,369,390,409,430,450,470,490,510,530,550,569,590,609,630,650,669,689,709,728,750,769,790,809,830,849,869,889,909,930,950,969,989,1009,1029,1049,1070,1089,1109,1129,1148,1170,1189,1210,1230,1249,1270,1289,1310,1329,1349,1369,1389,1409,1429,1449,1469,1489,1509,1529,1549,1570,1589,1609,1631,1649,1669,1690,1709,1729,1749,1770,1790,1809,1830],"xSR":741.5,"ySR":469.95,"xT1":424.9,"yT1":0,"xT2":1058.1,"yT2":0,"toosoon":0,"cond_shown":"Incongruent","ratio_trial":200,"L_num":14,"L_den":30,"R_num":6,"R_den":9,"correct_side":2,"subjID":"SamuelAndresCastañedaTapiero33","gender":"No_gender","school":"6","age":"10"},{"start_time":1551800691727,"click_time":1551800694060,"finger_time":1551800693541,"fix_duration":1305.1666331571075,"trial":13,"RT":1814,"MT":519,"sideResp":2,"stimulus":[],"xmouse":[824,824,824,824,824,824,824,824,824,824,824,824,824,824,824,824,824,824,824,824,824,824,824,824,824,824,824,824,824,824,824,824,824,824,824,824,824,824,824,824,824,824,824,824,824,824,824,824,824,824,824,824,824,824,824,824,824,824,824,824,824,824,824,824,824,824,824,824,824,824,824,824,824,824,824,824,824,824,824,824,824,824,824,824,824,824,824,824,824,824,842,871,910,955,997,1034,1081,1095,1100,1105,1110,1126,1137,1152,1167,1178,1187,1190,1191,1191,1188,1176,1170,1165,1161,1159,1152],"ymouse":[518,518,518,518,518,518,518,518,518,518,518,518,518,518,518,518,518,518,518,518,518,518,518,518,518,518,518,518,518,518,518,518,518,518,518,518,518,518,518,518,518,518,518,518,518,518,518,518,518,518,518,518,518,518,518,518,518,518,518,518,518,518,518,518,518,518,518,518,518,518,518,518,518,518,518,518,518,518,518,518,518,518,518,518,518,518,518,518,518,517,506,490,468,444,421,400,369,352,342,331,319,293,277,261,243,227,201,188,183,180,175,164,155,144,130,111,74],"timestamp_mouse":[14,34,53,73,93,113,134,153,173,194,214,233,254,274,294,314,333,353,373,394,414,433,453,473,494,514,533,553,573,594,613,634,653,673,693,712,733,753,774,794,813,833,854,873,893,914,933,954,974,994,1014,1033,1054,1072,1092,1114,1133,1153,1174,1193,1214,1234,1253,1274,1293,1313,1333,1354,1374,1393,1413,1433,1453,1473,1494,1513,1533,1553,1573,1594,1614,1633,1653,1673,1693,1713,1733,1753,1773,1794,1814,1833,1854,1873,1894,1914,1934,1953,1973,1993,2014,2033,2053,2073,2093,2114,2133,2153,2174,2193,2214,2233,2254,2273,2294,2315,2333],"xSR":741.5,"ySR":469.95,"xT1":424.9,"yT1":0,"xT2":1058.1,"yT2":0,"toosoon":0,"cond_shown":"Congruent","ratio_trial":300,"L_num":2,"L_den":10,"R_num":12,"R_den":24,"correct_side":2,"subjID":"SamuelAndresCastañedaTapiero33","gender":"No_gender","school":"6","age":"10"},{"start_time":1551800697257,"click_time":1551800701601,"finger_time":1551800699301,"fix_duration":255.78705713175464,"trial":14,"RT":2044,"MT":2300,"sideResp":1,"stimulus":[],"xmouse":[780,780,780,780,780,780,780,780,780,780,780,780,780,780,780,780,780,780,780,780,780,780,780,780,780,780,780,780,780,780,780,780,780,780,780,780,780,780,780,780,780,780,780,780,780,780,780,780,780,780,780,780,780,780,780,780,780,780,780,780,780,780,780,780,780,780,780,780,780,780,780,780,780,780,780,780,780,780,780,780,780,780,780,780,780,780,780,780,780,780,780,780,780,780,780,780,780,780,780,780,782,785,796,804,834,854,877,899,924,968,983,991,997,1000,1008,1014,1022,1031,1041,1048,1052,1052,1052,1052,1052,1052,1052,1052,1052,1052,1052,1052,1052,1052,1052,1052,1052,1052,1052,1052,1052,1052,1052,1052,1052,1052,1052,1052,1052,1052,1052,1052,1052,1037,1019,981,966,942,921,900,853,819,796,768,735,728,723,719,714,695,683,663,653,645,633,629,623,618,610,602,584,577,569,563,551,545,540,537,533,531,530,530,530,530,530,530,530,530,530,530,530,530,530,530,530,530,530,530,530,530,530,527,527,526,525,525,525,524],"ymouse":[566,566,566,566,566,566,566,566,566,566,566,566,566,566,566,566,566,566,566,566,566,566,566,566,566,566,566,566,566,566,566,566,566,566,566,566,566,566,566,566,566,566,566,566,566,566,566,566,566,566,566,566,566,566,566,566,566,566,566,566,566,566,566,566,566,566,566,566,566,566,566,566,566,566,566,566,566,566,566,566,566,566,566,566,566,566,566,566,566,566,566,566,566,566,566,566,566,566,566,566,566,569,578,588,621,637,647,653,656,657,657,657,656,656,654,650,647,642,638,635,632,632,632,632,632,632,632,632,632,632,632,632,632,632,632,632,632,632,632,632,632,632,632,632,632,632,632,632,632,632,632,632,632,636,644,662,671,681,689,694,696,688,677,657,612,593,577,568,559,534,523,502,487,470,442,429,410,389,365,338,270,245,220,197,155,134,116,102,88,77,76,76,76,76,76,76,76,76,76,76,76,76,76,76,76,76,76,76,76,76,76,76,76,76,76,76,76,76],"timestamp_mouse":[11,31,44,63,83,104,123,143,163,183,204,223,244,264,283,303,324,344,363,384,404,423,444,463,483,504,523,543,563,583,603,624,644,663,683,703,724,743,763,784,803,823,844,864,883,903,924,944,964,984,1003,1024,1043,1063,1084,1103,1124,1142,1163,1184,1203,1223,1242,1264,1283,1303,1324,1343,1364,1383,1404,1423,1442,1462,1483,1503,1524,1543,1563,1583,1603,1623,1643,1663,1684,1703,1724,1743,1763,1784,1803,1824,1844,1864,1883,1903,1924,1943,1964,1983,2003,2023,2044,2064,2084,2103,2123,2144,2164,2184,2203,2224,2243,2264,2284,2302,2323,2344,2363,2383,2403,2424,2444,2463,2483,2503,2524,2543,2563,2584,2604,2624,2644,2663,2684,2702,2723,2744,2763,2784,2803,2824,2844,2863,2883,2904,2923,2943,2963,2984,3003,3023,3043,3064,3083,3103,3124,3143,3164,3183,3203,3224,3244,3263,3284,3303,3323,3343,3363,3384,3403,3423,3444,3463,3484,3503,3523,3544,3563,3582,3604,3623,3643,3663,3684,3703,3723,3742,3763,3784,3803,3823,3843,3863,3885,3903,3923,3943,3963,3983,4003,4024,4044,4063,4083,4103,4123,4143,4163,4184,4203,4223,4242,4264,4282,4303,4322,4344],"xSR":741.5,"ySR":469.95,"xT1":424.9,"yT1":0,"xT2":1058.1,"yT2":0,"toosoon":0,"cond_shown":"Congruent","ratio_trial":200,"L_num":4,"L_den":10,"R_num":3,"R_den":15,"correct_side":1,"subjID":"SamuelAndresCastañedaTapiero33","gender":"No_gender","school":"6","age":"10"},{"start_time":1551800705096,"click_time":1551800708341,"finger_time":1551800706321,"fix_duration":974.3105158999467,"trial":15,"RT":1225,"MT":2020,"sideResp":2,"stimulus":[],"xmouse":[805,805,805,805,805,805,805,805,805,805,805,805,805,805,805,805,805,805,805,805,805,805,805,805,805,805,805,805,805,805,805,805,805,805,805,805,805,805,805,805,805,805,805,805,805,805,805,805,805,805,805,805,805,805,805,805,805,805,805,805,805,803,795,777,774,774,774,774,769,763,761,761,769,781,795,809,829,860,863,863,865,871,949,1050,1169,1291,1380,1432,1466,1474,1480,1484,1491,1499,1502,1502,1502,1492,1483,1471,1456,1441,1426,1410,1407,1407,1407,1407,1407,1405,1404,1403,1403,1402,1401,1401,1401,1401,1401,1401,1400,1399,1397,1392,1388,1386,1382,1380,1380,1380,1380,1380,1380,1380,1380,1380,1380,1380,1374,1357,1345,1331,1323,1317,1314,1311,1305,1294,1289,1287,1280,1272,1236,1204,1175,1170,1170,1170,1170,1170,1165,1161,1152],"ymouse":[555,555,555,555,555,555,555,555,555,555,555,555,555,555,555,555,555,555,555,555,555,555,555,555,555,555,555,555,555,555,555,555,555,555,555,555,555,555,555,555,555,555,555,555,555,555,555,555,555,555,555,555,555,555,555,555,555,555,555,555,562,577,605,687,706,714,716,716,719,721,721,721,721,721,720,713,697,657,635,620,608,597,561,528,491,449,413,387,357,338,323,309,291,247,227,203,183,150,139,131,129,127,126,123,123,123,123,123,123,123,123,123,123,123,123,123,123,123,123,123,123,124,125,127,129,130,132,133,133,133,133,133,133,133,133,133,133,133,135,138,140,140,140,140,140,140,140,137,129,127,112,100,68,50,37,35,34,34,34,34,34,35,36],"timestamp_mouse":[12,24,45,64,85,104,124,145,165,184,205,224,245,264,284,304,324,344,364,384,404,424,445,465,484,504,525,544,564,585,603,624,645,664,684,704,724,745,765,784,804,825,844,865,884,904,925,945,965,983,1004,1025,1044,1064,1085,1104,1124,1144,1164,1185,1204,1225,1244,1264,1284,1304,1324,1345,1364,1385,1405,1424,1445,1464,1484,1505,1524,1545,1564,1584,1604,1624,1645,1664,1685,1704,1724,1745,1764,1784,1804,1824,1844,1864,1884,1905,1924,1946,1964,1984,2004,2024,2045,2064,2084,2104,2125,2145,2165,2185,2204,2224,2245,2263,2284,2304,2324,2344,2365,2384,2405,2425,2444,2463,2484,2504,2524,2544,2564,2584,2605,2624,2644,2665,2684,2704,2725,2745,2764,2783,2805,2824,2844,2864,2884,2905,2924,2945,2964,2984,3005,3024,3045,3064,3084,3104,3125,3145,3165,3185,3204,3225,3245],"xSR":741.5,"ySR":469.95,"xT1":424.9,"yT1":0,"xT2":1058.1,"yT2":0,"toosoon":0,"cond_shown":"Congruent","ratio_trial":300,"L_num":5,"L_den":25,"R_num":6,"R_den":12,"correct_side":2,"subjID":"SamuelAndresCastañedaTapiero33","gender":"No_gender","school":"6","age":"10"},{"start_time":1551800712998,"click_time":1551800717321,"finger_time":1551800714321,"fix_duration":396.37057664758544,"trial":16,"RT":1323,"MT":3000,"sideResp":1,"stimulus":[],"xmouse":[763,763,763,763,763,763,763,763,763,763,763,763,763,763,763,763,763,763,763,763,763,763,763,763,763,763,763,763,763,763,763,763,763,763,763,763,763,763,763,763,763,763,763,763,763,763,763,763,763,763,763,763,763,763,763,763,763,763,763,763,763,763,763,763,763,752,732,706,659,648,644,644,644,644,643,642,641,634,629,625,623,623,623,623,623,623,623,623,623,623,623,623,623,623,623,623,623,623,623,623,623,623,623,623,623,623,623,623,623,623,623,623,623,623,623,623,623,623,623,623,623,623,623,623,623,623,623,623,623,623,623,623,623,623,623,623,623,624,624,624,625,625,625,625,625,625,625,625,625,625,625,625,625,625,625,625,625,626,626,626,626,626,626,626,626,626,626,626,626,626,626,626,626,626,626,626,626,627,627,627,627,627,627,627,628,628,628,628,628,628,626,621,613,570,529,504,485,472,460,457,454,451,447,446,446,446,448,458,469,473,476,477,479,481,481,481,478],"ymouse":[550,550,550,550,550,550,550,550,550,550,550,550,550,550,550,550,550,550,550,550,550,550,550,550,550,550,550,550,550,550,550,550,550,550,550,550,550,550,550,550,550,550,550,550,550,550,550,550,550,550,550,550,550,550,550,550,550,550,550,550,550,550,550,550,550,550,555,562,571,572,572,572,572,572,572,563,551,520,509,499,494,494,494,494,494,494,494,494,494,494,494,494,494,494,494,494,494,494,494,494,493,493,493,493,493,493,493,493,493,493,493,493,493,493,493,493,493,493,493,493,493,493,492,490,488,488,488,488,488,488,488,488,488,488,488,487,487,487,487,486,485,485,485,485,485,485,485,485,485,485,485,485,485,485,485,485,484,484,484,484,484,484,484,483,483,483,483,483,483,483,483,483,483,482,482,482,481,480,479,478,478,478,477,477,477,477,477,477,476,472,460,442,415,332,274,242,219,203,183,176,172,165,154,148,147,147,146,143,141,138,137,136,134,128,120,105,81],"timestamp_mouse":[10,22,42,62,83,102,122,143,162,183,203,222,242,263,281,302,322,342,363,383,401,423,442,462,483,502,523,542,563,582,602,623,642,662,683,703,721,741,763,782,802,822,843,863,883,902,923,943,963,983,1001,1021,1043,1063,1082,1102,1123,1142,1162,1183,1202,1223,1242,1263,1282,1303,1323,1342,1362,1383,1402,1422,1443,1462,1483,1503,1522,1544,1562,1582,1603,1623,1643,1662,1682,1702,1722,1743,1762,1782,1802,1823,1843,1862,1883,1903,1922,1943,1961,1983,2003,2023,2042,2062,2082,2103,2122,2143,2162,2182,2203,2222,2243,2263,2282,2302,2322,2343,2362,2383,2402,2422,2442,2462,2482,2502,2522,2542,2562,2582,2602,2621,2642,2662,2683,2702,2723,2743,2762,2782,2802,2822,2843,2862,2883,2903,2922,2943,2962,2982,3002,3022,3042,3062,3082,3102,3122,3143,3162,3183,3202,3222,3242,3263,3283,3302,3322,3343,3362,3383,3402,3423,3443,3462,3482,3503,3523,3543,3563,3583,3602,3622,3642,3662,3682,3703,3722,3742,3763,3782,3802,3823,3842,3862,3882,3902,3923,3943,3962,3982,4003,4023,4043,4062,4082,4103,4123,4142,4162,4186,4202,4222,4243,4262,4282,4303,4322],"xSR":741.5,"ySR":469.95,"xT1":424.9,"yT1":0,"xT2":1058.1,"yT2":0,"toosoon":0,"cond_shown":"Incongruent","ratio_trial":100,"L_num":6,"L_den":10,"R_num":11,"R_den":22,"correct_side":1,"subjID":"SamuelAndresCastañedaTapiero33","gender":"No_gender","school":"6","age":"10"},{"start_time":1551800722790,"click_time":1551800724220,"finger_time":1551800724101,"fix_duration":1267.9465990482893,"trial":17,"RT":1311,"MT":119,"sideResp":1,"stimulus":[],"xmouse":[802,802,802,802,802,802,802,802,802,802,802,802,802,802,802,802,802,802,802,802,802,802,802,802,802,802,802,802,802,802,802,802,802,802,802,802,802,802,802,802,802,802,802,802,802,802,802,802,802,802,802,802,802,802,802,802,802,802,802,802,800,796,791,776,754,737,720,681,653,610,559,500],"ymouse":[556,556,556,556,556,556,556,556,556,556,556,556,556,556,556,556,556,556,556,556,556,556,556,556,556,556,556,556,556,556,556,556,556,556,556,556,556,556,556,556,556,556,556,556,556,556,556,556,556,556,556,556,556,556,556,556,556,556,556,555,552,546,538,508,478,452,420,331,266,194,118,53],"timestamp_mouse":[12,30,51,71,90,111,131,150,170,190,210,231,251,270,290,311,330,351,370,390,411,431,450,471,491,510,530,551,570,590,610,631,650,670,691,710,731,750,770,790,811,831,850,871,891,910,931,951,971,990,1010,1030,1051,1071,1091,1110,1131,1150,1171,1190,1210,1230,1251,1271,1290,1311,1330,1351,1370,1390,1410,1430],"xSR":741.5,"ySR":469.95,"xT1":424.9,"yT1":0,"xT2":1058.1,"yT2":0,"toosoon":0,"cond_shown":"Incongruent","ratio_trial":100,"L_num":3,"L_den":5,"R_num":11,"R_den":22,"correct_side":1,"subjID":"SamuelAndresCastañedaTapiero33","gender":"No_gender","school":"6","age":"10"},{"start_time":1551800728142,"click_time":1551800730820,"finger_time":1551800729421,"fix_duration":1301.0679374894933,"trial":18,"RT":1279,"MT":1399,"sideResp":2,"stimulus":[],"xmouse":[790,790,790,790,790,790,790,790,790,790,790,790,790,790,790,790,790,790,790,790,790,790,790,790,790,790,790,790,790,790,790,790,790,790,790,790,790,790,790,790,790,790,790,790,790,790,790,790,790,790,790,790,787,786,780,779,778,778,778,778,778,778,776,776,770,765,762,758,753,751,745,743,741,740,738,737,735,730,722,710,673,649,629,614,608,605,605,605,609,620,626,629,631,634,651,671,689,708,731,799,846,895,932,956,1005,1039,1062,1084,1108,1163,1185,1201,1210,1214,1215,1215,1215,1215,1215,1211,1191,1174,1155,1138,1132,1132,1132,1132,1132,1132,1132,1132,1132,1131],"ymouse":[536,536,536,536,536,536,536,536,536,536,536,536,536,536,536,536,536,536,536,536,536,536,536,536,536,536,536,536,536,536,536,536,536,536,536,536,536,536,536,536,536,536,536,536,536,536,536,536,536,536,536,536,539,542,551,554,555,556,557,560,563,565,568,570,577,583,585,590,595,598,603,604,605,606,606,606,606,606,602,594,571,553,538,524,515,503,500,495,486,454,434,418,403,388,355,332,315,300,281,237,212,192,178,170,161,153,146,139,133,123,121,117,115,112,111,111,111,110,110,110,108,105,103,101,101,101,101,101,101,101,101,101,101,99],"timestamp_mouse":[31,39,58,78,99,118,138,159,178,198,218,238,259,278,298,318,339,358,378,400,418,439,458,478,499,518,538,559,578,598,619,639,658,678,698,718,738,760,779,798,819,838,858,878,898,918,939,958,978,998,1019,1038,1058,1078,1099,1119,1138,1159,1179,1199,1219,1239,1258,1279,1299,1318,1338,1359,1378,1400,1419,1438,1459,1479,1500,1518,1538,1559,1579,1599,1618,1639,1658,1678,1699,1718,1739,1759,1778,1799,1818,1839,1859,1878,1899,1918,1939,1959,1979,1999,2018,2038,2059,2079,2099,2118,2138,2158,2178,2199,2218,2238,2258,2278,2299,2318,2339,2357,2378,2398,2418,2438,2459,2479,2499,2518,2538,2558,2579,2599,2618,2638,2659,2678],"xSR":741.5,"ySR":469.95,"xT1":424.9,"yT1":0,"xT2":1058.1,"yT2":0,"toosoon":0,"cond_shown":"Congruent","ratio_trial":100,"L_num":4,"L_den":8,"R_num":6,"R_den":10,"correct_side":2,"subjID":"SamuelAndresCastañedaTapiero33","gender":"No_gender","school":"6","age":"10"},{"start_time":1551800733532,"click_time":1551800736101,"finger_time":1551800735181,"fix_duration":250,"trial":19,"RT":1649,"MT":920,"sideResp":2,"stimulus":[],"xmouse":[814,814,814,814,814,814,814,814,814,814,814,814,814,814,814,814,814,814,814,814,814,814,814,814,814,814,814,814,814,814,814,814,814,814,814,814,814,814,814,814,814,814,814,814,814,814,814,814,814,814,814,814,814,814,814,814,814,814,814,814,814,814,814,814,814,814,814,814,814,814,814,814,814,814,814,814,814,814,814,814,814,814,844,921,958,994,1025,1045,1060,1072,1082,1102,1108,1108,1108,1109,1113,1119,1126,1127,1129,1130,1130,1130,1131,1131,1130,1128,1127,1123,1117,1115,1114,1114,1114,1114,1114,1114,1114,1114,1114,1114,1114,1114,1114,1114,1114,1115,1115],"ymouse":[560,560,560,560,560,560,560,560,560,560,560,560,560,560,560,560,560,560,560,560,560,560,560,560,560,560,560,560,560,560,560,560,560,560,560,560,560,560,560,560,560,560,560,560,560,560,560,560,560,560,560,560,560,560,560,560,560,560,560,560,560,560,560,560,560,560,560,560,560,560,560,560,560,560,560,560,560,560,560,560,560,560,551,521,502,470,441,415,388,365,340,290,266,256,252,242,233,216,203,196,192,186,184,181,179,175,171,167,164,158,150,145,140,135,131,127,123,123,122,121,119,118,116,115,113,111,106,100,94],"timestamp_mouse":[13,43,49,68,88,108,129,149,168,188,209,229,249,267,287,308,328,349,370,389,408,429,449,468,489,509,529,549,569,588,609,629,648,668,688,709,729,748,769,789,808,828,848,868,888,908,929,948,969,988,1009,1030,1049,1068,1088,1109,1129,1148,1169,1189,1209,1228,1248,1268,1288,1309,1329,1348,1368,1388,1409,1429,1448,1469,1489,1508,1528,1549,1569,1588,1608,1629,1649,1668,1688,1709,1728,1748,1769,1788,1808,1829,1848,1868,1888,1910,1928,1948,1969,1988,2008,2029,2048,2069,2089,2108,2128,2148,2169,2188,2209,2228,2249,2269,2288,2308,2329,2349,2368,2389,2410,2428,2448,2469,2489,2508,2528,2548,2568],"xSR":741.5,"ySR":469.95,"xT1":424.9,"yT1":0,"xT2":1058.1,"yT2":0,"toosoon":0,"cond_shown":"Congruent","ratio_trial":300,"L_num":5,"L_den":25,"R_num":7,"R_den":14,"correct_side":2,"subjID":"SamuelAndresCastañedaTapiero33","gender":"No_gender","school":"6","age":"10"},{"start_time":1551800740413,"click_time":1551800743542,"finger_time":1551800741800,"fix_duration":1092.0589514253809,"trial":20,"RT":1387,"MT":1742,"sideResp":2,"stimulus":[],"xmouse":[798,798,798,798,798,798,798,798,798,798,798,798,798,798,798,798,798,798,798,798,798,798,798,798,798,798,798,798,798,798,798,798,798,798,798,798,798,798,798,798,798,798,798,798,798,798,798,798,798,798,798,798,798,798,798,798,798,798,798,798,798,798,798,799,802,804,812,823,841,866,891,930,948,960,970,983,1003,1011,1017,1020,1021,1025,1027,1028,1029,1029,1031,1031,1031,1031,1031,1031,1031,1031,1031,1031,1031,1031,1031,1031,1031,1031,1031,1031,1031,1031,1031,1031,1031,1031,1031,1031,1031,1031,1031,1031,1031,1031,1031,1031,1031,1031,1031,1031,1031,1031,1031,1031,1031,1031,1031,1031,1031,1031,1031,1031,1031,1031,1031,1031,1031,1031,1031,1032,1032,1033,1034,1037,1038,1040,1044,1050,1062,1073,1083,1095,1126],"ymouse":[565,565,565,565,565,565,565,565,565,565,565,565,565,565,565,565,565,565,565,565,565,565,565,565,565,565,565,565,565,565,565,565,565,565,565,565,565,565,565,565,565,565,565,565,565,565,565,565,565,565,565,565,565,565,565,565,565,565,565,565,565,565,565,564,561,560,555,544,523,496,465,409,378,359,341,324,296,285,275,270,267,258,253,252,250,249,245,245,244,243,243,243,243,243,243,243,243,243,243,243,243,243,243,243,243,243,243,243,243,242,242,242,242,242,242,242,242,242,242,242,242,242,242,242,242,242,242,242,242,242,242,242,242,242,242,242,242,242,242,242,242,242,242,241,240,239,238,231,225,218,207,194,166,145,130,110,63],"timestamp_mouse":[10,31,48,67,87,108,127,148,168,187,208,228,248,268,288,307,327,347,368,387,407,428,447,468,487,507,527,548,567,587,608,627,648,667,687,707,729,747,767,787,808,828,847,867,887,907,927,948,967,987,1008,1028,1048,1068,1088,1108,1128,1147,1168,1187,1208,1228,1247,1268,1287,1307,1328,1347,1367,1387,1407,1428,1447,1468,1488,1508,1528,1547,1567,1588,1607,1628,1647,1668,1688,1707,1728,1747,1767,1788,1807,1827,1848,1868,1887,1908,1927,1947,1967,1988,2008,2027,2048,2067,2087,2107,2128,2147,2167,2187,2207,2228,2247,2268,2288,2307,2327,2348,2367,2387,2408,2427,2448,2467,2487,2507,2528,2547,2567,2588,2607,2627,2648,2668,2687,2707,2727,2747,2768,2787,2807,2828,2847,2867,2887,2908,2928,2948,2967,2987,3007,3027,3048,3068,3088,3107,3129],"xSR":741.5,"ySR":469.95,"xT1":424.9,"yT1":0,"xT2":1058.1,"yT2":0,"toosoon":0,"cond_shown":"Congruent","ratio_trial":200,"L_num":3,"L_den":6,"R_num":14,"R_den":20,"correct_side":2,"subjID":"SamuelAndresCastañedaTapiero33","gender":"No_gender","school":"6","age":"10"},{"start_time":1551800745942,"click_time":1551800748162,"finger_time":1551800747760,"fix_duration":300.41163462124496,"trial":21,"RT":1818,"MT":402,"sideResp":2,"stimulus":[],"xmouse":[810,810,810,810,810,810,810,810,810,810,810,810,810,810,810,810,810,810,810,810,810,810,810,810,810,810,810,810,810,810,810,810,810,810,810,810,810,810,810,810,810,810,810,810,810,810,810,810,810,810,810,810,810,810,810,810,810,810,810,810,810,810,810,810,810,808,802,784,778,775,775,775,775,775,775,775,775,775,775,775,775,775,775,776,776,776,776,777,779,785,791,803,818,829,835,839,841,849,857,870,874,881,889,903,944,986,1008,1048,1076,1099,1135],"ymouse":[548,548,548,548,548,548,548,548,548,548,548,548,548,548,548,548,548,548,548,548,548,548,548,548,548,548,548,548,548,548,548,548,548,548,548,548,548,548,548,548,548,548,548,548,548,548,548,548,548,548,548,548,548,548,548,548,548,548,548,548,548,548,548,548,548,548,542,521,510,500,499,497,496,495,495,494,494,494,493,493,493,492,492,492,492,491,491,489,488,479,469,446,409,377,333,309,303,292,286,281,278,274,267,256,227,199,187,160,140,121,82],"timestamp_mouse":[33,39,59,78,98,118,138,159,178,199,218,238,258,279,298,319,338,358,379,398,419,438,458,478,498,518,538,558,578,598,618,638,659,679,699,719,738,759,778,798,818,838,858,878,898,919,938,958,978,999,1019,1038,1058,1078,1099,1119,1138,1159,1179,1198,1219,1239,1258,1278,1298,1318,1338,1358,1378,1399,1419,1439,1458,1478,1498,1518,1539,1558,1578,1598,1619,1639,1658,1678,1698,1720,1738,1759,1778,1799,1818,1838,1858,1877,1898,1918,1938,1959,1978,2000,2018,2039,2059,2079,2099,2118,2138,2158,2178,2198,2219],"xSR":741.5,"ySR":469.95,"xT1":424.9,"yT1":0,"xT2":1058.1,"yT2":0,"toosoon":0,"cond_shown":"Incongruent","ratio_trial":100,"L_num":13,"L_den":26,"R_num":6,"R_den":10,"correct_side":2,"subjID":"SamuelAndresCastañedaTapiero33","gender":"No_gender","school":"6","age":"10"},{"start_time":1551800751024,"click_time":1551800752421,"finger_time":1551800752000,"fix_duration":943.4005302439814,"trial":22,"RT":976,"MT":421,"sideResp":1,"stimulus":[],"xmouse":[816,816,816,816,816,816,816,816,816,816,816,816,816,816,816,816,816,816,816,816,816,816,816,816,816,816,816,816,816,816,816,816,816,816,816,816,816,816,816,816,816,816,816,816,816,816,808,791,764,750,744,743,742,741,738,733,730,725,717,700,643,584,571,549,544,542,535,531,525,521],"ymouse":[530,530,530,530,530,530,530,530,530,530,530,530,530,530,530,530,530,530,530,530,530,530,530,530,530,530,530,530,530,530,530,530,530,530,530,530,530,530,530,530,530,530,530,530,530,529,520,499,467,450,437,433,427,420,408,374,353,324,296,258,193,156,149,134,127,122,112,107,101,96],"timestamp_mouse":[17,37,56,76,96,117,136,157,176,196,216,236,256,277,296,316,337,356,376,396,417,436,457,477,496,516,537,557,576,596,616,637,656,676,697,717,737,757,776,796,816,836,857,877,896,916,936,957,976,996,1017,1036,1056,1077,1096,1118,1136,1157,1176,1197,1217,1236,1256,1277,1297,1317,1336,1357,1376,1397],"xSR":741.5,"ySR":469.95,"xT1":424.9,"yT1":0,"xT2":1058.1,"yT2":0,"toosoon":0,"cond_shown":"Incongruent","ratio_trial":200,"L_num":4,"L_den":6,"R_num":14,"R_den":30,"correct_side":1,"subjID":"SamuelAndresCastañedaTapiero33","gender":"No_gender","school":"6","age":"10"},{"start_time":1551800755256,"click_time":1551800757040,"finger_time":1551800756440,"fix_duration":935.7943036206393,"trial":23,"RT":1184,"MT":600,"sideResp":2,"stimulus":[],"xmouse":[827,827,827,827,827,827,827,827,827,827,827,827,827,827,827,827,827,827,827,827,827,827,827,827,827,827,827,827,827,827,827,827,827,827,827,827,827,827,827,827,827,827,827,827,827,827,827,827,827,827,827,827,827,827,828,830,833,836,839,843,859,868,885,899,913,939,949,961,972,977,994,1007,1017,1031,1062,1079,1098,1113,1120,1124,1126,1126,1128,1128,1129,1129,1130,1130,1130,1130],"ymouse":[532,532,532,532,532,532,532,532,532,532,532,532,532,532,532,532,532,532,532,532,532,532,532,532,532,532,532,532,532,532,532,532,532,532,532,532,532,532,532,532,532,532,532,532,532,532,532,532,532,532,532,532,532,532,532,532,532,531,529,525,504,488,462,444,426,392,376,360,346,338,319,304,289,271,230,206,184,163,148,138,131,129,124,122,117,115,111,108,104,99],"timestamp_mouse":[10,36,44,65,84,105,125,144,165,184,204,224,244,265,285,304,325,345,365,385,405,424,445,464,484,505,525,544,564,585,603,625,644,664,685,704,725,744,764,785,805,824,845,864,885,904,925,945,965,984,1004,1024,1044,1064,1084,1104,1124,1144,1165,1184,1204,1224,1244,1264,1284,1305,1324,1344,1364,1385,1404,1425,1444,1465,1485,1504,1524,1544,1564,1585,1604,1624,1645,1664,1686,1704,1724,1744,1765,1784],"xSR":741.5,"ySR":469.95,"xT1":424.9,"yT1":0,"xT2":1058.1,"yT2":0,"toosoon":0,"cond_shown":"Incongruent","ratio_trial":200,"L_num":7,"L_den":15,"R_num":4,"R_den":6,"correct_side":2,"subjID":"SamuelAndresCastañedaTapiero33","gender":"No_gender","school":"6","age":"10"},{"start_time":1551800765789,"click_time":1551800768561,"finger_time":1551800767441,"fix_duration":447.0510093943625,"trial":24,"RT":1652,"MT":1120,"sideResp":2,"stimulus":[],"xmouse":[798,798,798,798,798,798,798,798,798,798,798,798,798,798,798,798,798,798,798,798,798,798,798,798,798,798,798,798,798,798,798,798,798,798,798,798,798,798,798,798,798,798,798,798,798,798,798,798,798,798,798,798,798,798,798,798,798,798,798,798,798,798,798,798,798,798,798,798,798,798,798,798,798,798,798,798,798,798,798,798,811,822,898,971,1063,1115,1154,1172,1173,1173,1173,1173,1173,1173,1173,1172,1172,1172,1172,1172,1172,1172,1172,1172,1172,1172,1172,1172,1172,1170,1167,1162,1159,1134,1111,1088,1081,1079,1076,1075,1072,1067,1058,1054,1052,1052,1052,1054,1069,1069,1069,1069,1069,1072,1073,1074,1076,1078,1080],"ymouse":[518,518,518,518,518,518,518,518,518,518,518,518,518,518,518,518,518,518,518,518,518,518,518,518,518,518,518,518,518,518,518,518,518,518,518,518,518,518,518,518,518,518,518,518,518,519,520,520,520,520,520,521,522,522,522,522,522,522,522,522,522,522,522,522,522,522,522,522,522,522,522,522,522,522,522,522,522,522,522,522,524,524,508,475,399,332,271,223,214,209,208,208,208,208,208,207,207,207,207,207,207,207,207,207,207,207,207,207,207,204,195,187,179,158,148,141,137,136,134,133,130,126,119,115,114,114,114,113,112,112,112,112,112,110,109,108,106,103,98],"timestamp_mouse":[11,32,51,71,92,111,132,152,171,191,211,231,252,271,291,312,331,351,371,391,411,432,452,471,491,511,532,551,571,591,611,631,652,671,692,712,732,752,772,791,812,832,851,871,891,912,931,952,972,991,1011,1030,1051,1072,1091,1111,1131,1152,1171,1192,1211,1231,1252,1272,1291,1311,1331,1351,1372,1392,1411,1432,1452,1471,1491,1511,1531,1551,1571,1591,1611,1631,1652,1671,1691,1712,1731,1752,1771,1791,1811,1831,1851,1871,1891,1912,1932,1952,1972,1991,2011,2032,2052,2071,2092,2112,2132,2152,2171,2191,2212,2232,2251,2271,2292,2312,2332,2351,2371,2392,2411,2431,2452,2471,2492,2512,2531,2551,2572,2591,2611,2632,2651,2672,2692,2711,2731,2751,2772],"xSR":741.5,"ySR":469.95,"xT1":424.9,"yT1":0,"xT2":1058.1,"yT2":0,"toosoon":0,"cond_shown":"Congruent","ratio_trial":300,"L_num":1,"L_den":3,"R_num":19,"R_den":30,"correct_side":2,"subjID":"SamuelAndresCastañedaTapiero33","gender":"No_gender","school":"6","age":"10"},{"start_time":1551800771909,"click_time":1551800774400,"finger_time":1551800773221,"fix_duration":1046.403476090658,"trial":25,"RT":1312,"MT":1179,"sideResp":2,"stimulus":[],"xmouse":[765,765,765,765,765,765,765,765,765,765,765,765,765,765,765,765,765,765,765,765,765,765,765,765,765,765,765,765,765,765,765,765,765,765,765,765,765,765,765,765,765,765,765,765,765,765,765,765,765,765,765,765,765,765,765,765,765,765,765,765,765,765,764,762,751,730,695,613,579,572,572,572,572,572,572,572,572,571,571,571,571,571,571,571,571,571,571,571,571,571,572,589,617,660,755,887,1061,1070,1074,1076,1078,1097,1119,1144,1167,1191,1216,1220,1221,1221,1221,1221,1221,1221,1221,1221,1221,1221,1221,1221,1221,1221,1221,1221,1150],"ymouse":[546,546,546,546,546,546,546,546,546,546,546,546,546,546,546,546,546,546,546,546,546,546,546,546,546,546,546,546,546,546,546,546,546,546,546,546,546,546,546,546,546,546,546,546,546,546,546,546,546,546,546,546,546,546,546,546,546,546,546,546,546,546,546,546,546,547,547,547,539,535,535,535,535,535,535,535,535,534,534,534,534,534,534,534,534,534,534,534,534,534,534,530,522,511,484,446,351,338,324,310,296,258,225,187,154,117,62,40,4,4,4,4,4,4,4,4,4,4,4,4,4,4,4,4,12],"timestamp_mouse":[11,33,51,71,91,111,131,152,171,191,211,231,252,271,291,311,331,353,372,391,411,431,451,471,492,511,531,551,571,591,611,631,651,672,691,712,731,751,772,791,811,831,851,871,892,911,930,951,971,992,1011,1031,1052,1072,1091,1111,1131,1151,1172,1191,1211,1231,1251,1271,1292,1312,1331,1351,1371,1391,1412,1433,1452,1471,1491,1511,1531,1552,1571,1592,1611,1632,1651,1672,1691,1711,1732,1752,1771,1792,1811,1832,1851,1871,1891,1912,1932,1951,1972,1992,2011,2032,2050,2071,2091,2111,2132,2151,2171,2192,2212,2231,2252,2271,2291,2311,2332,2352,2371,2391,2412,2431,2451,2471,2491],"xSR":741.5,"ySR":469.95,"xT1":424.9,"yT1":0,"xT2":1058.1,"yT2":0,"toosoon":0,"cond_shown":"Incongruent","ratio_trial":100,"L_num":11,"L_den":22,"R_num":9,"R_den":15,"correct_side":2,"subjID":"SamuelAndresCastañedaTapiero33","gender":"No_gender","school":"6","age":"10"},{"start_time":1551800779348,"click_time":1551800781362,"finger_time":1551800780840,"fix_duration":1365.9591244709895,"trial":26,"RT":1492,"MT":522,"sideResp":2,"stimulus":[],"xmouse":[772,772,772,772,772,772,772,772,772,772,772,772,772,772,772,772,772,772,772,772,772,772,772,772,772,772,772,772,772,772,772,772,772,772,772,772,772,772,772,772,772,772,772,772,772,772,772,772,772,772,772,772,772,772,772,772,772,772,772,772,772,772,772,772,772,771,777,789,801,809,816,817,819,823,838,855,864,887,900,912,936,947,958,969,988,998,1005,1011,1015,1021,1023,1025,1031,1036,1040,1042,1043,1045,1048,1052,1061],"ymouse":[556,556,556,556,556,556,556,556,556,556,556,556,556,556,556,556,556,556,556,556,556,556,556,556,556,556,556,556,556,556,556,556,556,556,556,556,556,556,556,556,556,556,556,556,556,556,556,556,556,556,556,556,556,556,556,556,556,556,556,556,556,556,556,556,556,555,546,536,525,518,504,501,495,487,457,424,411,363,333,304,250,229,212,199,171,156,146,138,132,124,120,118,112,108,100,97,95,94,92,90,84],"timestamp_mouse":[18,33,53,73,92,112,132,153,172,193,213,232,252,272,292,313,332,352,372,393,414,433,452,473,492,513,532,553,573,592,612,632,653,673,693,713,732,753,772,793,812,832,852,873,893,912,932,952,972,993,1012,1033,1053,1072,1093,1112,1133,1153,1173,1192,1213,1232,1253,1273,1293,1312,1333,1352,1373,1392,1412,1432,1452,1472,1492,1512,1532,1552,1573,1592,1612,1632,1652,1672,1694,1712,1733,1753,1773,1793,1812,1832,1852,1872,1894,1912,1933,1953,1973,1992,2013],"xSR":741.5,"ySR":469.95,"xT1":424.9,"yT1":0,"xT2":1058.1,"yT2":0,"toosoon":0,"cond_shown":"Incongruent","ratio_trial":100,"L_num":11,"L_den":22,"R_num":9,"R_den":15,"correct_side":2,"subjID":"SamuelAndresCastañedaTapiero33","gender":"No_gender","school":"6","age":"10"},{"start_time":1551800787127,"click_time":1551800789262,"finger