[{"start_time":1551801459402,"click_time":1551801463208,"finger_time":1551801459438,"fix_duration":250,"trial":0,"RT":36,"MT":3770,"sideResp":2,"stimulus":"img/250/randomdotsizeEA/L/3_Ratio_250_L_8_R_2.png","xmouse":[632,632,657,661,667,670,673,683,695,706,717,719,720,722,723,723,723,723,723,723,723,723,723,723,723,723,723,723,723,723,723,723,723,723,723,723,723,723,723,723,723,723,723,723,723,723,723,723,723,724,724,724,724,724,724,724,724,724,724,724,724,724,724,724,724,724,724,724,724,724,724,724,724,724,724,724,724,724,725,726,726,726,726,726,726,726,726,726,726,726,726,726,726,726,726,726,726,726,726,726,726,726,726,726,726,726,726,726,726,726,726,726,725,720,705,695,687,678,674,670,669,669,669,668,665,658,657,656,656,656,656,656,650,643,626,618,609,601,595,592,592,592,591,591,591,591,591,591,591,591,591,591,591,591,591,591,591,591,591,593,594,594,594,594,594,597,600,603,610,652,703,819,890,939,976,1020,1026,1029,1031,1041,1054,1056,1063,1067,1069,1073,1075,1077,1080,1087],"ymouse":[610,610,639,644,650,652,653,653,653,653,653,652,651,650,649,648,648,648,648,648,648,648,648,648,648,648,648,648,648,648,648,647,647,647,647,647,647,647,647,647,647,647,647,647,647,647,647,647,647,647,647,647,647,647,647,647,647,647,647,647,647,647,647,647,647,647,646,646,646,646,646,646,646,646,646,646,646,646,646,645,645,645,645,645,645,645,645,645,645,645,645,645,645,645,645,645,645,645,645,645,645,645,645,645,645,645,645,645,645,645,645,645,642,636,623,614,607,600,595,590,590,590,589,585,579,561,555,553,553,553,551,549,543,538,527,521,516,513,509,506,506,505,504,504,504,503,502,502,502,502,502,502,502,502,502,502,502,501,501,501,501,501,501,501,501,499,496,495,490,467,439,375,343,319,299,277,269,266,264,252,233,227,207,193,179,150,140,130,119,95],"timestamp_mouse":[36,45,64,84,105,124,144,165,185,204,225,245,264,285,306,324,345,365,385,405,424,445,464,484,505,524,544,564,585,604,624,645,664,685,705,725,745,765,784,805,824,845,864,884,905,924,944,964,984,1005,1025,1045,1064,1084,1104,1124,1144,1165,1184,1204,1224,1245,1265,1285,1304,1325,1345,1364,1385,1404,1425,1444,1464,1484,1505,1524,1545,1565,1584,1605,1624,1645,1665,1684,1704,1725,1744,1764,1785,1804,1825,1845,1864,1885,1904,1924,1944,1965,1984,2005,2024,2044,2064,2084,2105,2125,2144,2165,2185,2205,2224,2244,2264,2285,2305,2324,2344,2364,2384,2405,2425,2444,2465,2485,2505,2524,2545,2565,2584,2604,2624,2644,2664,2685,2705,2724,2745,2764,2784,2804,2824,2845,2864,2884,2905,2925,2945,2964,2984,3005,3024,3044,3065,3084,3105,3124,3145,3164,3184,3205,3224,3244,3265,3284,3304,3324,3344,3364,3384,3405,3424,3444,3465,3485,3504,3525,3545,3564,3584,3605,3624,3645,3664,3685,3705,3725,3745,3764,3784,3805],"xSR":741.5,"ySR":501.8,"xT1":424.9,"yT1":0,"xT2":1058.1,"yT2":0,"toosoon":0,"cond_shown":"randomdotsizeEA","ratio_trial":250,"smaller_num":"2","larger_num":"8","correct_side":1,"subjID":"SamuelAndresCastañedaTapiero33","gender":"0","age":"10","school":"6","test":{"fix_dur":[250,1500],"timestim":300,"targets_dim":[100,100],"targets_relative_coord":[0.3,0.7],"size_stim":[880,420],"start_dim":[100,100],"size_start":[300,300],"size_fix":60,"samplingrate":20,"img_types":["equaldotsize","equaldotanddens","randomdotsizeEA"],"ratios":[250,500,750,900],"rep_conds":9,"nTrials":120,"trials_to_rest":500,"Trials_order":[74,38,58,10,64,8,68,42,7,78,17,34,103,111,66,13,32,22,25,2,35,41,115,80,44,98,52,5,82,114,15,27,55,109,105,50,76,91,57,4,0,6,61,43,39,110,112,31,119,83,40,107,20,100,62,84,94,118,86,53,75,72,93,71,117,97,60,11,87,26,36,48,108,19,1,30,14,54,106,37,89,65,56,96,99,90,73,28,45,92,18,51,101,77,16,21,67,46,59,9,23,69,79,104,85,3,70,116,24,47,81,12,95,49,63,88,113,102,33,29],"cond_shown":["randomdotsizeEA","randomdotsizeEA","equaldotanddens","equaldotanddens","equaldotanddens","randomdotsizeEA","randomdotsizeEA","equaldotsize","equaldotanddens","equaldotsize","randomdotsizeEA","equaldotanddens","equaldotanddens","equaldotsize","equaldotsize","equaldotanddens","randomdotsizeEA","equaldotanddens","equaldotanddens","randomdotsizeEA","randomdotsizeEA","randomdotsizeEA","equaldotanddens","randomdotsizeEA","randomdotsizeEA","randomdotsizeEA","equaldotanddens","randomdotsizeEA","equaldotanddens","equaldotsize","equaldotsize","equaldotsize","equaldotanddens","equaldotanddens","equaldotsize","randomdotsizeEA","equaldotanddens","equaldotanddens","equaldotsize","equaldotanddens","equaldotsize","equaldotsize","equaldotanddens","equaldotanddens","equaldotsize","randomdotsizeEA","equaldotanddens","equaldotanddens","randomdotsizeEA","randomdotsizeEA","equaldotanddens","randomdotsizeEA","randomdotsizeEA","equaldotanddens","randomdotsizeEA","equaldotsize","equaldotanddens","equaldotanddens","randomdotsizeEA","randomdotsizeEA","equaldotsize","equaldotsize","equaldotsize","randomdotsizeEA","equaldotsize","equaldotanddens","equaldotsize","randomdotsizeEA","equaldotsize","randomdotsizeEA","equaldotsize","equaldotsize","equaldotsize","equaldotanddens","equaldotanddens","equaldotsize","randomdotsizeEA","equaldotsize","equaldotanddens","equaldotanddens","randomdotsizeEA","randomdotsizeEA","randomdotsizeEA","equaldotsize","equaldotsize","equaldotsize","equaldotanddens","equaldotanddens","equaldotsize","randomdotsizeEA","equaldotsize","equaldotsize","randomdotsizeEA","randomdotsizeEA","equaldotanddens","equaldotsize","equaldotanddens","equaldotanddens","randomdotsizeEA","equaldotsize","randomdotsizeEA","equaldotsize","equaldotanddens","randomdotsizeEA","equaldotanddens","equaldotsize","equaldotanddens","randomdotsizeEA","equaldotsize","randomdotsizeEA","equaldotsize","equaldotsize","randomdotsizeEA","equaldotanddens","equaldotsize","equaldotanddens","randomdotsizeEA","equaldotsize","equaldotsize","randomdotsizeEA"],"ratio_trial":[250,250,900,900,500,750,750,750,750,750,500,900,750,500,750,250,750,900,250,250,900,500,750,750,750,250,500,500,900,750,500,500,750,250,900,250,500,750,900,500,250,750,250,750,500,250,500,750,900,900,500,900,750,500,250,250,900,900,250,500,500,250,900,900,900,250,250,900,500,250,250,250,250,750,250,750,250,750,900,250,500,500,750,250,500,750,250,500,900,750,750,500,500,500,500,900,750,900,900,900,900,900,750,750,250,500,900,750,250,900,900,250,900,250,500,500,500,750,900,500],"smaller_num":["2","4","9","18","6","6","15","18","6","3","1","9","6","10","3","4","18","9","3","5","18","9","6","3","18","3","2","2","9","15","2","10","3","3","9","3","6","15","9","1","4","18","3","15","1","3","5","15","18","18","6","9","15","2","5","3","18","9","2","5","5","3","9","18","18","1","6","18","6","4","4","2","4","6","4","15","2","15","18","5","5","5","15","4","1","9","4","10","9","6","3","1","3","2","2","18","6","9","9","18","9","9","15","12","1","9","18","6","4","18","9","2","18","2","2","2","1","3","18","2"],"larger_num":["8","16","10","20","12","8","20","24","8","4","2","10","8","20","4","16","24","10","12","20","20","18","8","4","24","12","4","4","10","20","4","20","4","12","10","12","12","20","10","2","16","24","12","20","2","12","10","20","20","20","12","10","20","4","20","12","20","10","8","10","10","12","10","20","20","4","24","20","12","16","16","8","16","8","16","20","8","20","20","20","10","10","20","16","2","12","16","20","10","8","4","2","6","4","4","20","8","10","10","20","10","10","20","16","4","18","20","8","16","20","10","8","20","8","4","4","2","4","20","4"],"correct_side":[1,1,1,1,1,1,2,1,2,2,2,2,2,2,1,2,1,1,1,2,1,1,2,1,1,2,1,2,1,2,2,2,1,2,2,2,1,1,2,2,2,1,2,2,2,2,1,2,1,1,1,1,2,1,2,1,1,2,1,2,2,2,1,2,1,2,1,2,1,1,2,1,1,1,1,1,1,2,1,2,1,2,2,1,2,2,1,2,2,2,2,2,2,2,1,1,1,2,1,1,2,2,2,2,2,1,1,1,1,1,2,1,2,1,2,2,2,1,1,1],"img_shown":["img/250/randomdotsizeEA/L/3_Ratio_250_L_8_R_2.png","img/250/randomdotsizeEA/L/2_Ratio_250_L_16_R_4.png","img/900/equaldotanddens/L/1_Ratio_900_L_10_R_9.png","img/900/equaldotanddens/L/2_Ratio_900_L_20_R_18.png","img/500/equaldotanddens/L/11_Ratio_500_L_12_R_6.png","img/750/randomdotsizeEA/L/13_Ratio_750_L_8_R_6.png","img/750/randomdotsizeEA/R/4_Ratio_750_L_15_R_20.png","img/750/equaldotsize/L/6_Ratio_750_L_24_R_18.png","img/750/equaldotanddens/R/2_Ratio_750_L_6_R_8.png","img/750/equaldotsize/R/12_Ratio_750_L_3_R_4.png","img/500/randomdotsizeEA/R/15_Ratio_500_L_1_R_2.png","img/900/equaldotanddens/R/3_Ratio_900_L_9_R_10.png","img/750/equaldotanddens/R/2_Ratio_750_L_6_R_8.png","img/500/equaldotsize/R/3_Ratio_500_L_10_R_20.png","img/750/equaldotsize/L/9_Ratio_750_L_4_R_3.png","img/250/equaldotanddens/R/10_Ratio_250_L_4_R_16.png","img/750/randomdotsizeEA/L/6_Ratio_750_L_24_R_18.png","img/900/equaldotanddens/L/1_Ratio_900_L_10_R_9.png","img/250/equaldotanddens/L/15_Ratio_250_L_12_R_3.png","img/250/randomdotsizeEA/R/12_Ratio_250_L_5_R_20.png","img/900/randomdotsizeEA/L/10_Ratio_900_L_20_R_18.png","img/500/randomdotsizeEA/L/4_Ratio_500_L_18_R_9.png","img/750/equaldotanddens/R/2_Ratio_750_L_6_R_8.png","img/750/randomdotsizeEA/L/9_Ratio_750_L_4_R_3.png","img/750/randomdotsizeEA/L/6_Ratio_750_L_24_R_18.png","img/250/randomdotsizeEA/R/11_Ratio_250_L_3_R_12.png","img/500/equaldotanddens/L/10_Ratio_500_L_4_R_2.png","img/500/randomdotsizeEA/R/9_Ratio_500_L_2_R_4.png","img/900/equaldotanddens/L/1_Ratio_900_L_10_R_9.png","img/750/equaldotsize/R/4_Ratio_750_L_15_R_20.png","img/500/equaldotsize/R/9_Ratio_500_L_2_R_4.png","img/500/equaldotsize/R/3_Ratio_500_L_10_R_20.png","img/750/equaldotanddens/L/8_Ratio_750_L_4_R_3.png","img/250/equaldotanddens/R/4_Ratio_250_L_3_R_12.png","img/900/equaldotsize/R/7_Ratio_900_L_9_R_10.png","img/250/randomdotsizeEA/R/9_Ratio_250_L_3_R_12.png","img/500/equaldotanddens/L/13_Ratio_500_L_12_R_6.png","img/750/equaldotanddens/L/1_Ratio_750_L_20_R_15.png","img/900/equaldotsize/R/5_Ratio_900_L_9_R_10.png","img/500/equaldotanddens/R/15_Ratio_500_L_1_R_2.png","img/250/equaldotsize/R/10_Ratio_250_L_4_R_16.png","img/750/equaldotsize/L/6_Ratio_750_L_24_R_18.png","img/250/equaldotanddens/R/4_Ratio_250_L_3_R_12.png","img/750/equaldotanddens/R/5_Ratio_750_L_15_R_20.png","img/500/equaldotsize/R/15_Ratio_500_L_1_R_2.png","img/250/randomdotsizeEA/R/9_Ratio_250_L_3_R_12.png","img/500/equaldotanddens/L/7_Ratio_500_L_10_R_5.png","img/750/equaldotanddens/R/5_Ratio_750_L_15_R_20.png","img/900/randomdotsizeEA/L/8_Ratio_900_L_20_R_18.png","img/900/randomdotsizeEA/L/4_Ratio_900_L_20_R_18.png","img/500/equaldotanddens/L/11_Ratio_500_L_12_R_6.png","img/900/randomdotsizeEA/L/1_Ratio_900_L_10_R_9.png","img/750/randomdotsizeEA/R/5_Ratio_750_L_15_R_20.png","img/500/equaldotanddens/L/5_Ratio_500_L_4_R_2.png","img/250/randomdotsizeEA/R/12_Ratio_250_L_5_R_20.png","img/250/equaldotsize/L/15_Ratio_250_L_12_R_3.png","img/900/equaldotanddens/L/8_Ratio_900_L_20_R_18.png","img/900/equaldotanddens/R/5_Ratio_900_L_9_R_10.png","img/250/randomdotsizeEA/L/1_Ratio_250_L_8_R_2.png","img/500/randomdotsizeEA/R/14_Ratio_500_L_5_R_10.png","img/500/equaldotsize/R/14_Ratio_500_L_5_R_10.png","img/250/equaldotsize/R/9_Ratio_250_L_3_R_12.png","img/900/equaldotsize/L/1_Ratio_900_L_10_R_9.png","img/900/randomdotsizeEA/R/13_Ratio_900_L_18_R_20.png","img/900/equaldotsize/L/8_Ratio_900_L_20_R_18.png","img/250/equaldotanddens/R/8_Ratio_250_L_1_R_4.png","img/250/equaldotsize/L/5_Ratio_250_L_24_R_6.png","img/900/randomdotsizeEA/R/11_Ratio_900_L_18_R_20.png","img/500/equaldotsize/L/13_Ratio_500_L_12_R_6.png","img/250/randomdotsizeEA/L/2_Ratio_250_L_16_R_4.png","img/250/equaldotsize/R/10_Ratio_250_L_4_R_16.png","img/250/equaldotsize/L/3_Ratio_250_L_8_R_2.png","img/250/equaldotsize/L/2_Ratio_250_L_16_R_4.png","img/750/equaldotanddens/L/14_Ratio_750_L_8_R_6.png","img/250/equaldotanddens/L/2_Ratio_250_L_16_R_4.png","img/750/equaldotsize/L/1_Ratio_750_L_20_R_15.png","img/250/randomdotsizeEA/L/1_Ratio_250_L_8_R_2.png","img/750/equaldotsize/R/5_Ratio_750_L_15_R_20.png","img/900/equaldotanddens/L/10_Ratio_900_L_20_R_18.png","img/250/equaldotanddens/R/12_Ratio_250_L_5_R_20.png","img/500/randomdotsizeEA/L/7_Ratio_500_L_10_R_5.png","img/500/randomdotsizeEA/R/14_Ratio_500_L_5_R_10.png","img/750/randomdotsizeEA/R/4_Ratio_750_L_15_R_20.png","img/250/equaldotsize/L/2_Ratio_250_L_16_R_4.png","img/500/equaldotsize/R/12_Ratio_500_L_1_R_2.png","img/750/equaldotsize/R/15_Ratio_750_L_9_R_12.png","img/250/equaldotanddens/L/2_Ratio_250_L_16_R_4.png","img/500/equaldotanddens/R/3_Ratio_500_L_10_R_20.png","img/900/equaldotsize/R/7_Ratio_900_L_9_R_10.png","img/750/randomdotsizeEA/R/2_Ratio_750_L_6_R_8.png","img/750/equaldotsize/R/12_Ratio_750_L_3_R_4.png","img/500/equaldotsize/R/15_Ratio_500_L_1_R_2.png","img/500/randomdotsizeEA/R/2_Ratio_500_L_3_R_6.png","img/500/randomdotsizeEA/R/9_Ratio_500_L_2_R_4.png","img/500/equaldotanddens/L/5_Ratio_500_L_4_R_2.png","img/900/equaldotsize/L/4_Ratio_900_L_20_R_18.png","img/750/equaldotanddens/L/13_Ratio_750_L_8_R_6.png","img/900/equaldotanddens/R/5_Ratio_900_L_9_R_10.png","img/900/randomdotsizeEA/L/1_Ratio_900_L_10_R_9.png","img/900/equaldotsize/L/10_Ratio_900_L_20_R_18.png","img/900/randomdotsizeEA/R/3_Ratio_900_L_9_R_10.png","img/900/equaldotsize/R/6_Ratio_900_L_9_R_10.png","img/750/equaldotanddens/R/5_Ratio_750_L_15_R_20.png","img/750/randomdotsizeEA/R/11_Ratio_750_L_12_R_16.png","img/250/equaldotanddens/R/8_Ratio_250_L_1_R_4.png","img/500/equaldotsize/L/4_Ratio_500_L_18_R_9.png","img/900/equaldotanddens/L/4_Ratio_900_L_20_R_18.png","img/750/randomdotsizeEA/L/14_Ratio_750_L_8_R_6.png","img/250/equaldotsize/L/2_Ratio_250_L_16_R_4.png","img/900/randomdotsizeEA/L/10_Ratio_900_L_20_R_18.png","img/900/equaldotsize/R/6_Ratio_900_L_9_R_10.png","img/250/equaldotsize/L/3_Ratio_250_L_8_R_2.png","img/900/randomdotsizeEA/R/12_Ratio_900_L_18_R_20.png","img/250/equaldotanddens/L/3_Ratio_250_L_8_R_2.png","img/500/equaldotsize/R/9_Ratio_500_L_2_R_4.png","img/500/equaldotanddens/R/9_Ratio_500_L_2_R_4.png","img/500/randomdotsizeEA/R/15_Ratio_500_L_1_R_2.png","img/750/equaldotsize/L/8_Ratio_750_L_4_R_3.png","img/900/equaldotsize/L/2_Ratio_900_L_20_R_18.png","img/500/randomdotsizeEA/L/10_Ratio_500_L_4_R_2.png"],"Rat0":[["12_Ratio_0_L_9_R_0.png","13_Ratio_0_L_6_R_0.png","5_Ratio_0_L_2_R_0.png","6_Ratio_0_L_4_R_0.png","8_Ratio_0_L_6_R_0.png"],["1_Ratio_0_L_0_R_17.png","10_Ratio_0_L_0_R_22.png","11_Ratio_0_L_0_R_1.png","14_Ratio_0_L_0_R_24.png","15_Ratio_0_L_0_R_4.png","2_Ratio_0_L_0_R_5.png","3_Ratio_0_L_0_R_17.png","4_Ratio_0_L_0_R_7.png","7_Ratio_0_L_0_R_19.png","9_Ratio_0_L_0_R_15.png"]],"Rat250":[["1_Ratio_250_L_8_R_2.png","14_Ratio_250_L_12_R_3.png","15_Ratio_250_L_12_R_3.png","2_Ratio_250_L_16_R_4.png","3_Ratio_250_L_8_R_2.png","5_Ratio_250_L_24_R_6.png","7_Ratio_250_L_8_R_2.png"],["10_Ratio_250_L_4_R_16.png","11_Ratio_250_L_3_R_12.png","12_Ratio_250_L_5_R_20.png","13_Ratio_250_L_2_R_8.png","4_Ratio_250_L_3_R_12.png","6_Ratio_250_L_6_R_24.png","8_Ratio_250_L_1_R_4.png","9_Ratio_250_L_3_R_12.png"]],"Rat500":[["10_Ratio_500_L_4_R_2.png","11_Ratio_500_L_12_R_6.png","13_Ratio_500_L_12_R_6.png","4_Ratio_500_L_18_R_9.png","5_Ratio_500_L_4_R_2.png","7_Ratio_500_L_10_R_5.png","8_Ratio_500_L_8_R_4.png"],["1_Ratio_500_L_9_R_18.png","12_Ratio_500_L_1_R_2.png","14_Ratio_500_L_5_R_10.png","15_Ratio_500_L_1_R_2.png","2_Ratio_500_L_3_R_6.png","3_Ratio_500_L_10_R_20.png","6_Ratio_500_L_9_R_18.png","9_Ratio_500_L_2_R_4.png"]],"Rat750":[["1_Ratio_750_L_20_R_15.png","10_Ratio_750_L_4_R_3.png","13_Ratio_750_L_8_R_6.png","14_Ratio_750_L_8_R_6.png","6_Ratio_750_L_24_R_18.png","8_Ratio_750_L_4_R_3.png","9_Ratio_750_L_4_R_3.png"],["11_Ratio_750_L_12_R_16.png","12_Ratio_750_L_3_R_4.png","15_Ratio_750_L_9_R_12.png","2_Ratio_750_L_6_R_8.png","3_Ratio_750_L_15_R_20.png","4_Ratio_750_L_15_R_20.png","5_Ratio_750_L_15_R_20.png","7_Ratio_750_L_3_R_4.png"]],"Rat900":[["1_Ratio_900_L_10_R_9.png","10_Ratio_900_L_20_R_18.png","2_Ratio_900_L_20_R_18.png","4_Ratio_900_L_20_R_18.png","8_Ratio_900_L_20_R_18.png"],["11_Ratio_900_L_18_R_20.png","12_Ratio_900_L_18_R_20.png","13_Ratio_900_L_18_R_20.png","14_Ratio_900_L_18_R_20.png","15_Ratio_900_L_9_R_10.png","3_Ratio_900_L_9_R_10.png","5_Ratio_900_L_9_R_10.png","6_Ratio_900_L_9_R_10.png","7_Ratio_900_L_9_R_10.png","9_Ratio_900_L_18_R_20.png"]],"Rat1000":[["10_Ratio_1000_L_16_R_16.png","11_Ratio_1000_L_6_R_6.png","12_Ratio_1000_L_14_R_14.png","13_Ratio_1000_L_20_R_20.png","15_Ratio_1000_L_15_R_15.png","2_Ratio_1000_L_17_R_17.png","4_Ratio_1000_L_9_R_9.png","5_Ratio_1000_L_6_R_6.png","6_Ratio_1000_L_19_R_19.png","8_Ratio_1000_L_14_R_14.png","9_Ratio_1000_L_25_R_25.png"],["1_Ratio_1000_L_1_R_1.png","14_Ratio_1000_L_17_R_17.png","3_Ratio_1000_L_17_R_17.png","7_Ratio_1000_L_6_R_6.png"]]}},{"start_time":1551801466109,"click_time":1551801467968,"finger_time":1551801467047,"fix_duration":480.94016026760244,"trial":1,"RT":938,"MT":921,"sideResp":1,"stimulus":"img/250/randomdotsizeEA/L/2_Ratio_250_L_16_R_4.png","xmouse":[781,781,781,781,781,781,781,781,781,781,781,781,781,781,781,781,781,781,781,781,781,781,781,781,781,781,781,781,781,781,781,781,781,781,781,781,781,781,781,781,781,781,781,780,777,769,713,642,561,447,435,433,433,433,433,433,433,433,433,433,433,433,435,437,438,437,432,429,428,428,429,437,445,450,453,455,456,459,459,459,460,462,463,464,466,467,471,473,474,476,480,482,484],"ymouse":[561,561,561,561,561,561,561,561,561,561,561,561,561,561,561,561,561,561,561,561,561,561,561,561,561,561,561,561,561,561,561,561,561,561,561,561,561,561,561,561,561,561,561,562,564,564,564,564,564,564,564,564,564,564,564,564,564,564,564,564,564,564,551,529,486,462,434,407,375,332,312,291,274,262,255,246,240,231,223,205,195,185,179,174,164,159,150,144,138,133,118,109,99],"timestamp_mouse":[32,37,58,77,97,117,138,157,177,197,218,238,257,277,298,317,338,357,378,397,417,437,457,477,497,518,537,557,578,597,618,637,658,677,697,718,738,757,777,798,818,838,857,877,898,918,938,957,977,997,1017,1037,1057,1078,1097,1118,1138,1158,1178,1198,1217,1237,1258,1278,1299,1317,1338,1358,1377,1398,1417,1437,1458,1478,1497,1517,1537,1557,1577,1599,1617,1637,1657,1677,1698,1717,1737,1757,1778,1797,1817,1837,1858],"xSR":741.5,"ySR":469.95,"xT1":424.9,"yT1":0,"xT2":1058.1,"yT2":0,"toosoon":0,"cond_shown":"randomdotsizeEA","ratio_trial":250,"smaller_num":"4","larger_num":"16","correct_side":1,"subjID":"SamuelAndresCastañedaTapiero33","gender":"0","age":"10","school":"6"},{"start_time":1551801470868,"click_time":1551801473626,"finger_time":1551801472026,"fix_duration":1219.7600376972796,"trial":2,"RT":1158,"MT":1600,"sideResp":2,"stimulus":"img/900/equaldotanddens/L/1_Ratio_900_L_10_R_9.png","xmouse":[765,765,765,765,765,765,765,765,765,765,765,765,765,765,765,765,765,765,765,765,765,765,765,765,765,765,765,765,765,765,765,765,765,765,765,765,765,765,765,765,765,765,765,765,765,765,765,765,765,765,765,765,765,768,775,780,792,819,833,848,855,859,865,873,890,907,943,957,971,985,988,989,989,989,990,992,995,1004,1008,1014,1019,1022,1039,1052,1062,1069,1078,1081,1084,1086,1088,1090,1092,1092,1094,1095,1096,1098,1099,1099,1099,1099,1100,1099,1095,1087,1060,1048,1034,1022,1006,976,976,976,976,976,976,976,976,976,976,976,976,976,976,976,976,976,976,979,986,1013,1029,1051,1080,1107,1123,1135],"ymouse":[550,550,550,550,550,550,550,550,550,550,550,550,550,550,550,550,550,550,550,550,550,550,550,550,550,550,550,550,550,550,550,550,550,550,550,550,550,550,550,550,550,550,550,550,550,550,550,550,550,550,550,550,549,545,534,526,508,463,438,413,400,393,383,372,347,324,269,248,232,218,217,217,217,217,217,217,216,209,206,201,197,195,185,178,170,165,159,158,157,157,156,156,155,155,155,155,155,154,154,154,154,154,155,158,164,180,221,260,309,375,493,604,604,604,604,604,604,604,604,604,604,604,604,604,604,604,604,604,604,602,590,551,520,471,404,329,255,69],"timestamp_mouse":[18,39,58,79,98,118,139,158,178,199,218,239,258,278,298,318,338,358,378,400,418,438,458,478,499,518,539,559,578,598,619,640,659,679,698,718,739,759,779,799,819,839,858,879,899,918,939,959,978,998,1018,1038,1059,1078,1098,1118,1139,1158,1178,1198,1218,1238,1258,1278,1299,1318,1340,1358,1378,1398,1418,1438,1458,1478,1499,1518,1538,1558,1578,1598,1618,1639,1658,1679,1699,1719,1739,1758,1779,1798,1819,1838,1858,1878,1899,1918,1939,1958,1978,1998,2018,2039,2058,2078,2099,2119,2138,2158,2178,2198,2218,2238,2258,2278,2298,2319,2338,2359,2379,2399,2418,2439,2459,2478,2499,2518,2538,2558,2578,2598,2619,2638,2658,2679,2699,2718,2738,2758],"xSR":741.5,"ySR":469.95,"xT1":424.9,"yT1":0,"xT2":1058.1,"yT2":0,"toosoon":0,"cond_shown":"equaldotanddens","ratio_trial":900,"smaller_num":"9","larger_num":"10","correct_side":1,"subjID":"SamuelAndresCastañedaTapiero33","gender":"0","age":"10","school":"6"},{"start_time":1551801475557,"click_time":1551801476786,"finger_time":1551801476426,"fix_duration":250,"trial":3,"RT":869,"MT":360,"sideResp":1,"stimulus":"img/900/equaldotanddens/L/2_Ratio_900_L_20_R_18.png","xmouse":[793,793,793,793,793,793,793,793,793,793,793,793,793,793,793,793,793,793,793,793,793,793,793,793,793,793,793,793,793,793,793,793,793,793,793,793,793,793,793,793,793,793,787,722,674,620,608,603,593,586,579,576,575,576,578,580,580,580,568,555,531,494],"ymouse":[539,539,539,539,539,539,539,539,539,539,539,539,539,539,539,539,539,539,539,539,539,539,539,539,539,539,539,539,539,539,539,539,539,539,539,539,539,539,539,539,539,535,528,463,420,369,352,340,304,281,258,241,232,218,211,196,185,175,151,136,119,99],"timestamp_mouse":[10,31,49,69,90,109,129,149,170,189,210,230,249,270,289,309,329,349,369,390,409,430,449,470,490,510,530,550,569,589,610,629,649,670,690,710,729,750,770,789,809,830,850,869,890,910,929,950,970,989,1009,1029,1049,1069,1089,1110,1129,1150,1169,1189,1209,1229],"xSR":741.5,"ySR":469.95,"xT1":424.9,"yT1":0,"xT2":1058.1,"yT2":0,"toosoon":0,"cond_shown":"equaldotanddens","ratio_trial":900,"smaller_num":"18","larger_num":"20","correct_side":1,"subjID":"SamuelAndresCastañedaTapiero33","gender":"0","age":"10","school":"6"},{"start_time":1551801479002,"click_time":1551801480126,"finger_time":1551801479726,"fix_duration":853.0464099991923,"trial":4,"RT":724,"MT":400,"sideResp":1,"stimulus":"img/500/equaldotanddens/L/11_Ratio_500_L_12_R_6.png","xmouse":[770,770,770,770,770,770,770,770,770,770,770,770,770,770,770,770,770,770,770,770,770,770,770,770,770,770,770,770,770,770,770,770,770,770,764,748,651,559,463,394,364,366,370,371,373,374,374,377,381,391,406,434,439,442,443,443,444],"ymouse":[545,545,545,545,545,545,545,545,545,545,545,545,545,545,545,545,545,545,545,545,545,545,545,545,545,545,545,545,545,545,545,545,545,543,528,509,405,325,245,191,162,154,150,148,146,145,145,143,142,140,136,129,127,123,119,103,93],"timestamp_mouse":[11,37,45,65,84,104,124,145,165,185,205,225,244,264,284,304,325,345,364,384,404,424,444,464,485,505,525,544,565,584,605,625,644,666,684,704,724,744,765,784,805,824,845,865,884,905,924,944,965,985,1004,1024,1044,1064,1084,1105,1124],"xSR":741.5,"ySR":469.95,"xT1":424.9,"yT1":0,"xT2":1058.1,"yT2":0,"toosoon":0,"cond_shown":"equaldotanddens","ratio_trial":500,"smaller_num":"6","larger_num":"12","correct_side":1,"subjID":"SamuelAndresCastañedaTapiero33","gender":"0","age":"10","school":"6"},{"start_time":1551801481238,"click_time":1551801484166,"finger_time":1551801481927,"fix_duration":250,"trial":5,"RT":689,"MT":2239,"sideResp":1,"stimulus":"img/750/randomdotsizeEA/L/13_Ratio_750_L_8_R_6.png","xmouse":[764,764,764,764,764,764,764,764,764,764,764,764,764,764,764,764,764,764,764,764,764,764,764,764,764,764,764,764,764,764,764,764,764,754,739,721,670,581,437,415,411,411,415,417,418,420,422,426,429,436,436,436,436,438,438,438,438,438,439,442,446,453,461,500,557,634,723,799,840,840,840,842,846,857,869,881,889,892,893,893,881,762,578,327,0,0,15,169,736,953,1043,1045,1020,947,757,720,717,722,864,959,996,997,985,811,703,658,657,665,698,697,665,500,394,370,376,392,397,398,398,395,389,381,380,380,393,400,405,408,408,408,409,410,411,414,416,416,416,416,417,418,418,419,421,422,425,427,429],"ymouse":[524,524,524,524,524,524,524,524,524,524,524,524,524,524,524,524,524,524,524,524,524,524,524,524,524,524,524,524,524,524,524,524,524,515,507,495,475,436,369,354,349,344,336,332,328,324,320,314,308,288,274,266,259,252,251,251,251,251,250,250,249,246,245,241,241,241,252,263,269,269,269,267,265,262,259,255,251,249,247,244,238,205,172,132,78,75,75,100,194,238,266,272,278,287,304,310,312,312,308,294,291,291,291,291,299,307,308,308,300,296,279,252,252,252,253,253,251,249,242,236,230,220,214,202,163,146,135,128,123,114,111,109,107,103,102,102,102,102,102,102,102,101,101,100,100,100,99],"timestamp_mouse":[10,32,48,69,88,108,128,148,168,189,209,228,249,268,288,308,329,348,368,389,409,429,448,468,488,509,528,548,569,588,608,628,648,669,689,709,728,748,769,788,808,828,848,869,888,908,929,948,968,988,1008,1028,1049,1068,1088,1109,1129,1148,1168,1188,1208,1229,1248,1268,1288,1309,1328,1349,1368,1388,1408,1428,1448,1468,1488,1509,1529,1549,1569,1588,1609,1628,1648,1668,1688,1709,1729,1748,1770,1788,1808,1828,1849,1869,1888,1909,1929,1948,1969,1988,2008,2028,2048,2068,2088,2108,2128,2149,2170,2188,2208,2228,2248,2269,2288,2308,2329,2348,2370,2388,2409,2428,2448,2469,2488,2509,2528,2549,2569,2588,2608,2628,2648,2669,2688,2709,2729,2749,2769,2789,2809,2829,2849,2868,2889,2909,2928],"xSR":741.5,"ySR":469.95,"xT1":424.9,"yT1":0,"xT2":1058.1,"yT2":0,"toosoon":0,"cond_shown":"randomdotsizeEA","ratio_trial":750,"smaller_num":"6","larger_num":"8","correct_side":1,"subjID":"SamuelAndresCastañedaTapiero33","gender":"0","age":"10","school":"6"},{"start_time":1551801485975,"click_time":1551801487607,"finger_time":1551801486647,"fix_duration":687.9720868461152,"trial":6,"RT":672,"MT":960,"sideResp":2,"stimulus":"img/750/randomdotsizeEA/R/4_Ratio_750_L_15_R_20.png","xmouse":[783,781,781,781,781,781,781,781,781,781,781,781,781,781,781,781,781,781,781,781,781,781,781,781,781,781,781,781,781,781,781,778,755,709,658,601,565,526,519,515,513,507,495,485,480,475,467,465,464,464,464,464,464,464,464,464,467,484,556,675,787,825,830,830,847,879,900,911,912,912,912,908,907,906,906,909,916,923,932,946,972,1089],"ymouse":[545,545,545,545,545,545,545,545,545,545,545,545,545,545,545,545,545,545,545,545,545,545,545,545,545,545,545,545,545,545,545,545,538,531,518,502,491,475,472,470,468,462,444,432,424,418,410,408,407,407,407,407,405,404,402,401,398,393,385,367,347,326,320,318,309,304,299,292,289,282,273,249,237,224,207,195,175,163,152,139,125,92],"timestamp_mouse":[12,39,51,71,92,111,131,152,171,191,211,232,252,271,291,312,332,352,372,392,412,431,451,471,491,511,532,551,571,592,613,631,652,672,691,711,731,752,771,791,812,831,851,870,891,911,932,950,972,991,1011,1031,1052,1072,1091,1112,1131,1151,1172,1192,1212,1231,1251,1271,1292,1311,1331,1351,1371,1392,1412,1432,1451,1471,1491,1511,1532,1551,1571,1591,1611,1631],"xSR":741.5,"ySR":469.95,"xT1":424.9,"yT1":0,"xT2":1058.1,"yT2":0,"toosoon":0,"cond_shown":"randomdotsizeEA","ratio_trial":750,"smaller_num":"15","larger_num":"20","correct_side":2,"subjID":"SamuelAndresCastañedaTapiero33","gender":"0","age":"10","school":"6"},{"start_time":1551801489944,"click_time":1551801492627,"finger_time":1551801490766,"fix_duration":1035.0227768404595,"trial":7,"RT":822,"MT":1861,"sideResp":2,"stimulus":"img/750/equaldotsize/L/6_Ratio_750_L_24_R_18.png","xmouse":[812,812,812,812,812,812,812,812,812,812,812,812,812,812,812,812,812,812,812,812,812,812,812,812,812,812,812,812,812,812,812,812,812,812,812,812,815,818,822,829,831,834,836,844,848,850,850,850,836,811,763,693,627,555,538,532,532,531,529,529,529,529,528,527,524,524,521,520,519,518,518,518,518,518,518,523,542,578,653,677,696,708,720,733,735,735,735,733,729,729,739,758,780,829,845,875,898,923,996,1019,1025,1025,1026,1027,1027,1028,1028,1029,1030,1034,1037,1037,1037,1037,1037,1037,1037,1037,1040,1048,1050,1053,1055,1059,1063,1064,1066,1067,1071,1074,1075,1075,1075,1077,1079],"ymouse":[556,556,556,556,556,556,556,556,556,556,556,556,556,556,556,556,556,556,556,556,556,556,556,556,556,556,556,556,556,556,556,556,556,556,556,550,542,532,520,490,473,457,443,414,405,397,390,386,376,370,362,352,344,333,329,326,326,326,325,325,324,324,323,321,317,317,313,311,310,309,309,309,309,309,309,309,312,317,324,321,310,299,287,264,261,260,252,242,222,207,189,166,148,136,136,137,141,143,151,152,152,152,152,152,151,150,149,148,146,141,136,135,134,133,131,130,128,127,125,121,119,117,116,114,113,112,111,110,107,106,105,103,103,100,96],"timestamp_mouse":[11,31,42,62,82,103,122,142,162,183,202,222,242,262,283,302,322,342,362,384,403,422,443,463,483,502,523,542,564,582,602,623,642,663,682,703,722,743,763,782,803,822,843,864,882,902,923,943,963,982,1002,1023,1043,1064,1082,1102,1122,1142,1162,1182,1202,1222,1242,1263,1282,1302,1322,1342,1362,1382,1403,1423,1442,1463,1482,1503,1523,1542,1563,1582,1602,1622,1642,1663,1682,1703,1723,1743,1762,1782,1803,1823,1842,1862,1881,1903,1923,1943,1963,1982,2002,2022,2042,2062,2082,2102,2123,2143,2162,2183,2203,2222,2242,2262,2283,2303,2323,2342,2362,2382,2403,2422,2443,2463,2483,2503,2522,2543,2563,2582,2603,2622,2642,2663,2683],"xSR":741.5,"ySR":469.95,"xT1":424.9,"yT1":0,"xT2":1058.1,"yT2":0,"toosoon":0,"cond_shown":"equaldotsize","ratio_trial":750,"smaller_num":"18","larger_num":"24","correct_side":1,"subjID":"SamuelAndresCastañedaTapiero33","gender":"0","age":"10","school":"6"},{"start_time":1551801494701,"click_time":1551801496026,"finger_time":1551801495586,"fix_duration":531.1595718993696,"trial":8,"RT":885,"MT":440,"sideResp":2,"stimulus":"img/750/equaldotanddens/R/2_Ratio_750_L_6_R_8.png","xmouse":[800,800,800,800,800,800,800,800,800,800,800,800,800,800,800,800,800,800,800,800,800,800,800,800,800,800,800,800,800,800,800,800,800,800,800,800,800,800,800,800,800,800,800,805,863,1034,1063,1083,1104,1106,1106,1107,1109,1112,1113,1113,1112,1108,1102,1101,1101,1100,1098,1097,1097,1099,1101],"ymouse":[555,555,555,555,555,555,555,555,555,555,555,555,555,555,555,555,555,555,555,555,555,555,555,555,555,555,555,555,555,555,555,555,555,555,555,555,555,555,555,555,555,555,556,556,519,382,353,325,291,281,278,274,268,253,237,220,218,214,211,210,206,199,187,169,148,109,98],"timestamp_mouse":[11,38,45,66,85,105,125,144,166,185,205,226,246,266,285,305,326,345,366,385,406,426,445,466,487,505,526,545,566,586,605,625,647,665,686,705,725,745,765,786,805,825,845,866,885,906,925,945,965,985,1005,1026,1045,1065,1085,1106,1125,1146,1165,1186,1206,1225,1245,1265,1285,1307,1325],"xSR":741.5,"ySR":469.95,"xT1":424.9,"yT1":0,"xT2":1058.1,"yT2":0,"toosoon":0,"cond_shown":"equaldotanddens","ratio_trial":750,"smaller_num":"6","larger_num":"8","correct_side":2,"subjID":"SamuelAndresCastañedaTapiero33","gender":"0","age":"10","school":"6"},{"start_time":1551801497177,"click_time":1551801498966,"finger_time":1551801497887,"fix_duration":250,"trial":9,"RT":710,"MT":1079,"sideResp":1,"stimulus":"img/750/equaldotsize/R/12_Ratio_750_L_3_R_4.png","xmouse":[765,765,765,765,765,765,765,765,765,765,765,765,765,765,765,765,765,765,765,765,765,765,765,765,765,765,765,765,765,765,766,766,766,766,758,732,630,572,528,508,500,500,499,499,498,498,498,498,498,499,500,524,578,756,953,1137,1361,1400,1407,1407,1407,1413,1417,1417,1417,1414,1403,1390,1367,1310,1231,1039,976,958,957,957,955,926,892,840,772,657,636,629,629,628,622,586,548,512],"ymouse":[543,543,543,543,543,543,543,543,543,543,543,543,543,543,543,543,543,543,543,543,543,543,543,543,543,543,543,543,543,542,542,542,541,539,528,506,432,400,380,371,368,368,367,364,356,350,342,338,338,336,335,329,326,326,326,326,326,317,310,294,269,218,191,166,133,116,100,96,94,94,94,94,94,94,94,94,94,111,125,141,153,161,161,160,159,155,148,124,109,91],"timestamp_mouse":[10,31,49,70,89,109,130,150,170,190,209,229,250,269,290,309,330,350,369,391,410,429,449,469,489,509,529,549,570,589,610,630,649,669,690,710,730,750,770,789,810,830,851,869,889,910,930,949,969,989,1010,1030,1049,1069,1089,1109,1130,1149,1169,1190,1209,1229,1249,1269,1289,1309,1330,1350,1370,1389,1409,1429,1449,1470,1489,1510,1530,1550,1569,1590,1609,1630,1649,1669,1689,1709,1730,1749,1770,1789],"xSR":741.5,"ySR":469.95,"xT1":424.9,"yT1":0,"xT2":1058.1,"yT2":0,"toosoon":0,"cond_shown":"equaldotsize","ratio_trial":750,"smaller_num":"3","larger_num":"4","correct_side":2,"subjID":"SamuelAndresCastañedaTapiero33","gender":"0","age":"10","school":"6"},{"start_time":1551801503298,"click_time":1551801504787,"finger_time":1551801504007,"fix_duration":1169.4325502171723,"trial":10,"RT":709,"MT":780,"sideResp":2,"stimulus":"img/500/randomdotsizeEA/R/15_Ratio_500_L_1_R_2.png","xmouse":[778,778,778,778,778,778,778,778,778,778,778,778,778,778,778,778,778,778,778,778,778,778,778,778,778,778,778,778,778,778,778,781,789,796,803,817,824,824,817,807,797,782,771,753,729,672,649,639,637,637,638,656,712,815,939,1239,1379,1490,1565,1570,1570,1570,1570,1570,1567,1549,1517,1498,1403,1330,1258,1159,1141,1134,1131],"ymouse":[535,535,535,535,535,535,535,535,535,535,535,535,535,535,535,535,535,535,535,535,535,535,535,535,535,535,535,535,535,535,535,533,521,509,496,456,415,403,366,347,331,317,314,312,310,306,303,301,301,301,301,298,298,298,298,298,287,272,257,255,252,247,246,239,231,210,195,190,173,162,148,120,110,104,99],"timestamp_mouse":[10,37,48,68,89,109,128,148,168,188,209,228,248,269,288,308,328,348,368,389,408,428,449,468,488,509,528,548,569,588,608,628,648,669,689,709,728,748,768,789,808,828,848,868,888,908,928,949,968,988,1009,1028,1048,1068,1089,1110,1128,1148,1169,1189,1210,1228,1248,1269,1288,1309,1328,1348,1368,1389,1409,1428,1449,1469,1489],"xSR":741.5,"ySR":469.95,"xT1":424.9,"yT1":0,"xT2":1058.1,"yT2":0,"toosoon":0,"cond_shown":"randomdotsizeEA","ratio_trial":500,"smaller_num":"1","larger_num":"2","correct_side":2,"subjID":"SamuelAndresCastañedaTapiero33","gender":"0","age":"10","school":"6"},{"start_time":1551801507050,"click_time":1551801508407,"finger_time":1551801507987,"fix_duration":1062.7028798242875,"trial":11,"RT":937,"MT":420,"sideResp":2,"stimulus":"img/900/equaldotanddens/R/3_Ratio_900_L_9_R_10.png","xmouse":[795,795,795,795,795,795,795,795,795,795,795,795,795,795,795,795,795,795,795,795,795,795,795,795,795,795,795,795,795,795,795,795,795,795,795,795,795,795,795,795,795,798,800,815,826,841,860,885,939,968,977,981,985,986,988,990,995,1012,1021,1030,1034,1038,1048,1055,1060,1063,1067,1075],"ymouse":[553,553,553,553,553,553,553,553,553,553,553,553,553,553,553,553,553,553,553,553,553,553,553,553,553,553,553,553,553,553,553,553,553,553,553,553,553,553,553,553,553,549,547,531,518,499,473,435,321,252,227,211,201,198,194,189,179,153,138,128,125,121,117,112,108,105,102,93],"timestamp_mouse":[17,37,57,77,96,117,137,156,176,196,216,237,256,277,296,317,337,356,378,396,417,437,456,477,496,517,536,556,577,596,617,637,656,676,697,717,737,757,776,796,817,837,856,876,896,916,937,957,976,996,1016,1036,1057,1076,1096,1116,1136,1157,1176,1196,1218,1237,1257,1276,1296,1317,1336,1356],"xSR":741.5,"ySR":469.95,"xT1":424.9,"yT1":0,"xT2":1058.1,"yT2":0,"toosoon":0,"cond_shown":"equaldotanddens","ratio_trial":900,"smaller_num":"9","larger_num":"10","correct_side":2,"subjID":"SamuelAndresCastañedaTapiero33","gender":"0","age":"10","school":"6"},{"start_time":1551801513816,"click_time":1551801514807,"finger_time":1551801514606,"fix_duration":1227.4235877018061,"trial":12,"RT":790,"MT":201,"sideResp":2,"stimulus":"img/750/equaldotanddens/R/2_Ratio_750_L_6_R_8.png","xmouse":[826,826,826,826,826,826,826,826,826,826,826,826,826,826,826,826,826,826,826,826,826,826,826,826,826,826,826,826,826,826,826,826,826,826,826,826,826,831,839,855,875,881,900,923,987,1017,1045,1072,1100,1139],"ymouse":[503,503,503,503,503,503,503,503,503,503,503,503,503,503,503,503,503,503,503,503,503,503,503,503,503,503,503,503,503,503,503,503,503,503,503,503,503,503,503,503,498,495,481,466,392,336,271,197,120,10],"timestamp_mouse":[11,40,51,70,90,112,130,150,171,191,211,230,250,270,291,310,332,350,370,390,410,430,450,471,490,511,530,551,570,591,610,630,650,671,690,711,730,750,771,790,810,831,850,871,890,910,930,951,970,991],"xSR":741.5,"ySR":469.95,"xT1":424.9,"yT1":0,"xT2":1058.1,"yT2":0,"toosoon":0,"cond_shown":"equaldotanddens","ratio_trial":750,"smaller_num":"6","larger_num":"8","correct_side":2,"subjID":"SamuelAndresCastañedaTapiero33","gender":"0","age":"10","school":"6"},{"start_time":1551801516844,"click_time":1551801518008,"finger_time":1551801517566,"fix_duration":298.3729879333433,"trial":13,"RT":722,"MT":442,"sideResp":2,"stimulus":"img/500/equaldotsize/R/3_Ratio_500_L_10_R_20.png","xmouse":[795,795,795,795,795,795,795,795,795,795,795,795,795,795,795,795,795,795,795,795,795,795,795,795,795,795,795,795,795,795,795,795,795,801,813,828,851,882,929,947,969,996,1008,1014,1022,1029,1036,1042,1045,1045,1045,1045,1045,1046,1048,1050,1054,1058,1065],"ymouse":[548,548,548,548,548,548,548,548,548,548,548,548,548,548,548,548,548,548,548,548,548,548,548,548,548,548,548,548,548,548,548,548,548,541,531,514,486,438,320,257,209,160,144,137,128,122,115,109,103,103,103,103,103,102,99,97,92,87,81],"timestamp_mouse":[7,23,42,62,83,102,122,142,162,182,202,222,243,262,283,302,323,342,363,382,404,423,442,463,483,502,522,543,563,582,603,622,642,663,682,703,722,742,762,781,802,822,843,863,882,903,921,943,963,982,1003,1022,1043,1063,1081,1103,1123,1142,1163],"xSR":741.5,"ySR":469.95,"xT1":424.9,"yT1":0,"xT2":1058.1,"yT2":0,"toosoon":0,"cond_shown":"equaldotsize","ratio_trial":500,"smaller_num":"10","larger_num":"20","correct_side":2,"subjID":"SamuelAndresCastañedaTapiero33","gender":"0","age":"10","school":"6"},{"start_time":1551801520663,"click_time":1551801521926,"finger_time":1551801521445,"fix_duration":996.390274914365,"trial":14,"RT":782,"MT":481,"sideResp":1,"stimulus":"img/750/equaldotsize/L/9_Ratio_750_L_4_R_3.png","xmouse":[810,810,810,810,810,810,810,810,810,810,810,810,810,810,810,810,810,810,810,810,810,810,810,810,810,810,810,810,810,810,810,810,810,810,810,810,810,810,792,727,593,534,506,501,504,508,508,510,511,512,513,514,519,521,522,522,523,525,525,525,523,520,512,508],"ymouse":[564,564,564,564,564,564,564,564,564,564,564,564,564,564,564,564,564,564,564,564,564,564,564,564,564,564,564,564,564,564,564,564,564,564,564,564,564,564,531,431,313,274,250,218,207,198,193,188,185,184,183,182,180,179,178,178,176,173,168,162,154,140,107,99],"timestamp_mouse":[20,23,44,64,83,104,123,143,164,183,203,223,242,263,283,303,323,342,363,383,403,423,443,464,482,503,523,543,564,584,602,623,643,663,682,703,723,742,764,782,804,824,844,864,883,904,923,943,963,983,1003,1023,1044,1063,1083,1104,1124,1144,1163,1184,1202,1222,1243,1263],"xSR":741.5,"ySR":469.95,"xT1":424.9,"yT1":0,"xT2":1058.1,"yT2":0,"toosoon":0,"cond_shown":"equaldotsize","ratio_trial":750,"smaller_num":"3","larger_num":"4","correct_side":1,"subjID":"SamuelAndresCastañedaTapiero33","gender":"0","age":"10","school":"6"},{"start_time":1551801523399,"click_time":1551801525126,"finger_time":1551801524146,"fix_duration":250,"trial":15,"RT":747,"MT":980,"sideResp":2,"stimulus":"img/250/equaldotanddens/R/10_Ratio_250_L_4_R_16.png","xmouse":[819,819,819,819,819,819,819,819,819,819,819,819,819,819,819,819,819,819,819,819,819,819,819,819,819,819,819,819,819,819,819,819,819,819,831,840,847,855,868,932,1005,1080,1187,1219,1228,1229,1230,1231,1232,1233,1234,1235,1235,1235,1227,1222,1211,1201,1190,1176,1173,1171,1170,1168,1163,1161,1160,1160,1160,1160,1160,1160,1160,1160,1160,1160,1160,1160,1160,1160,1160,1160,1160,1160,1160,1158],"ymouse":[558,558,558,558,558,558,558,558,558,558,558,558,558,558,558,558,558,558,558,558,558,558,558,558,558,558,558,558,558,558,558,558,558,559,555,550,546,539,528,461,400,334,237,193,171,155,153,151,149,147,131,116,109,104,92,87,81,76,70,65,63,62,62,62,61,61,61,61,61,61,61,61,61,61,61,61,61,61,61,61,61,61,61,61,61,61],"timestamp_mouse":[28,47,67,87,108,127,147,168,187,207,228,248,268,288,308,327,347,367,388,408,428,448,466,488,507,528,546,568,588,608,627,648,667,688,708,727,747,767,788,808,827,846,867,887,908,926,948,968,988,1007,1027,1047,1067,1086,1107,1127,1147,1167,1187,1208,1227,1247,1267,1287,1308,1327,1347,1368,1388,1407,1428,1448,1467,1488,1507,1527,1548,1567,1587,1608,1628,1648,1666,1688,1708,1727],"xSR":741.5,"ySR":469.95,"xT1":424.9,"yT1":0,"xT2":1058.1,"yT2":0,"toosoon":0,"cond_shown":"equaldotanddens","ratio_trial":250,"smaller_num":"4","larger_num":"16","correct_side":2,"subjID":"SamuelAndresCastañedaTapiero33","gender":"0","age":"10","school":"6"},{"start_time":1551801527032,"click_time":1551801529807,"finger_time":1551801527986,"fix_duration":784.6665208638354,"trial":16,"RT":954,"MT":1821,"sideResp":2,"stimulus":"img/750/randomdotsizeEA/L/6_Ratio_750_L_24_R_18.png","xmouse":[792,792,792,792,792,792,792,792,792,792,793,793,793,793,793,792,792,791,791,789,789,788,788,788,788,788,788,788,788,788,788,788,788,788,788,788,788,787,783,778,768,761,755,753,753,758,773,846,1001,1058,1146,1226,1315,1458,1500,1522,1529,1533,1534,1534,1533,1527,1518,1474,1442,1413,1391,1378,1372,1372,1371,1371,1368,1353,1341,1326,1307,1290,1273,1273,1273,1273,1273,1272,1269,1266,1262,1257,1237,1225,1214,1205,1200,1187,1182,1179,1176,1173,1170,1168,1167,1166,1165,1162,1159,1158,1156,1155,1153,1150,1149,1148,1145,1140,1139,1137,1137,1136,1132,1130,1128,1128,1128,1128,1127,1126,1126,1124,1124,1123,1123,1123,1123,1123,1123,1123,1123,1124,1144],"ymouse":[509,509,509,509,509,509,509,509,509,509,509,512,514,517,518,519,520,520,523,525,526,527,527,527,527,527,527,527,527,527,527,527,527,527,527,527,527,529,532,537,549,556,562,564,564,565,555,502,425,400,363,331,309,257,236,221,214,206,201,199,197,191,184,166,157,149,143,140,137,137,137,137,135,131,130,129,129,129,129,129,129,129,129,129,129,129,129,129,129,129,129,129,129,127,125,124,124,123,123,123,122,122,122,122,121,120,119,119,118,117,115,115,114,111,110,109,109,108,108,108,107,107,107,107,107,107,107,106,105,105,105,105,105,105,105,105,104,101,84],"timestamp_mouse":[13,41,54,75,95,115,135,154,173,194,214,235,254,274,294,314,334,354,374,394,415,435,454,474,495,514,534,553,574,594,614,634,653,674,694,713,735,754,775,794,814,834,854,874,894,914,934,954,975,993,1014,1035,1054,1075,1094,1114,1135,1154,1175,1194,1215,1234,1255,1275,1293,1315,1334,1354,1375,1394,1414,1435,1454,1475,1494,1515,1535,1554,1574,1594,1614,1634,1654,1674,1694,1714,1734,1755,1774,1794,1815,1834,1853,1875,1894,1914,1934,1954,1975,1994,2014,2035,2055,2074,2094,2115,2135,2155,2175,2195,2215,2234,2255,2275,2294,2314,2335,2355,2377,2394,2414,2434,2455,2475,2495,2513,2535,2555,2575,2594,2615,2634,2654,2674,2694,2714,2734,2754,2775],"xSR":741.5,"ySR":469.95,"xT1":424.9,"yT1":0,"xT2":1058.1,"yT2":0,"toosoon":0,"cond_shown":"randomdotsizeEA","ratio_trial":750,"smaller_num":"18","larger_num":"24","correct_side":1,"subjID":"SamuelAndresCastañedaTapiero33","gender":"0","age":"10","school":"6"},{"start_time":1551801532344,"click_time":1551801534007,"finger_time":1551801533447,"fix_duration":1096.0588176697302,"trial":17,"RT":1103,"MT":560,"sideResp":2,"stimulus":"img/900/equaldotanddens/L/1_Ratio_900_L_10_R_9.png","xmouse":[809,809,809,809,809,809,809,809,809,809,809,809,809,809,809,809,809,809,809,809,809,809,809,809,809,809,809,809,809,809,809,809,809,809,809,809,809,809,809,809,809,809,809,809,809,809,809,809,809,809,809,809,809,809,810,845,903,1259,1441,1530,1535,1536,1536,1536,1536,1536,1536,1537,1510,1496,1485,1476,1461,1440,1399,1379,1374,1373,1363,1345,1313,1253,1183,1106],"ymouse":[541,541,541,541,541,541,541,541,541,541,541,541,541,541,541,541,541,541,541,541,541,541,541,541,541,541,541,541,541,541,541,541,541,541,541,541,541,541,541,541,541,541,541,541,541,541,541,541,541,541,541,541,541,541,541,539,526,419,359,313,308,307,307,307,307,306,304,286,233,213,202,193,185,175,157,148,147,146,145,142,138,127,111,90],"timestamp_mouse":[10,30,43,62,82,102,123,143,162,182,202,223,241,263,281,302,322,342,362,383,402,421,442,462,483,502,523,543,562,583,603,623,643,663,683,702,723,742,761,782,802,822,842,862,882,902,922,943,961,982,1002,1023,1042,1062,1082,1103,1122,1142,1161,1182,1202,1223,1243,1262,1281,1303,1323,1343,1363,1381,1402,1422,1442,1462,1482,1502,1522,1541,1563,1582,1602,1622,1642,1662],"xSR":741.5,"ySR":469.95,"xT1":424.9,"yT1":0,"xT2":1058.1,"yT2":0,"toosoon":0,"cond_shown":"equaldotanddens","ratio_trial":900,"smaller_num":"9","larger_num":"10","correct_side":1,"subjID":"SamuelAndresCastañedaTapiero33","gender":"0","age":"10","school":"6"},{"start_time":1551801538472,"click_time":1551801539626,"finger_time":1551801538526,"fix_duration":704.9295237142627,"trial":18,"RT":54,"MT":1100,"sideResp":1,"stimulus":"img/250/equaldotanddens/L/15_Ratio_250_L_12_R_3.png","xmouse":[820,825,826,827,827,827,827,827,827,827,827,827,827,827,827,827,827,827,827,827,827,827,827,827,827,827,827,827,827,827,827,827,827,827,820,740,653,621,561,474,401,377,353,330,308,281,279,279,281,297,314,335,344,354,371,418,438],"ymouse":[481,469,465,464,464,464,464,464,464,464,464,464,464,464,464,464,464,464,464,464,464,464,464,464,464,464,464,464,464,464,464,464,462,450,427,335,276,260,231,196,164,154,144,137,132,123,122,122,116,105,97,88,85,80,76,68,64],"timestamp_mouse":[37,54,74,94,114,135,155,174,194,215,233,254,275,294,314,334,355,375,395,414,434,454,474,494,514,535,555,574,595,614,635,653,674,695,714,735,753,774,794,814,835,854,874,895,915,934,954,974,995,1014,1035,1054,1074,1094,1115,1136,1154],"xSR":741.5,"ySR":469.95,"xT1":424.9,"yT1":0,"xT2":1058.1,"yT2":0,"toosoon":0,"cond_shown":"equaldotanddens","ratio_trial":250,"smaller_num":"3","larger_num":"12","correct_side":1,"subjID":"SamuelAndresCastañedaTapiero33","gender":"0","age":"10","school":"6"},{"start_time":1551801541225,"click_time":1551801542287,"finger_time":1551801541887,"fix_duration":477.80143441530385,"trial":19,"RT":662,"MT":400,"sideResp":2,"stimulus":"img/250/randomdotsizeEA/R/12_Ratio_250_L_5_R_20.png","xmouse":[797,797,797,797,797,797,797,797,797,797,797,797,797,797,797,797,797,797,797,797,797,797,797,797,797,797,797,797,798,800,809,822,834,845,857,859,861,865,870,881,890,924,954,983,1004,1004,1004,1004,1004,1007,1014,1021,1051,1076],"ymouse":[534,534,534,534,534,534,534,534,534,534,534,534,534,534,534,534,534,534,534,534,534,534,534,534,534,534,534,534,534,532,524,507,487,469,439,426,412,393,374,337,315,253,207,173,147,147,147,147,147,140,132,124,105,95],"timestamp_mouse":[9,34,53,62,81,101,121,140,162,181,201,221,241,261,280,301,321,341,361,381,401,421,441,461,482,501,521,541,561,581,602,622,640,662,682,701,720,741,761,781,801,821,840,862,881,901,922,941,961,982,1000,1021,1041,1062],"xSR":741.5,"ySR":469.95,"xT1":424.9,"yT1":0,"xT2":1058.1,"yT2":0,"toosoon":0,"cond_shown":"randomdotsizeEA","ratio_trial":250,"smaller_num":"5","larger_num":"20","correct_side":2,"subjID":"SamuelAndresCastañedaTapiero33","gender":"0","age":"10","school":"6"},{"start_time":1551801544093,"click_time":1551801545207,"finger_time":1551801544807,"fix_duration":325.4572725611181,"trial":20,"RT":714,"MT":400,"sideResp":2,"stimulus":"img/900/randomdotsizeEA/L/10_Ratio_900_L_20_R_18.png","xmouse":[787,787,787,787,787,787,787,787,787,787,787,787,787,787,787,787,787,787,787,787,787,787,787,787,787,787,787,787,787,787,796,802,808,817,825,837,862,881,894,905,918,940,956,968,982,1006,1015,1023,1034,1041,1054,1065,1078,1087,1094,1102],"ymouse":[562,562,562,562,562,562,562,562,562,562,562,562,562,562,562,562,562,562,562,562,562,562,562,562,562,562,562,562,562,562,548,533,519,503,485,466,433,409,393,378,363,336,321,306,290,258,245,230,211,198,174,155,135,119,107,96],"timestamp_mouse":[13,33,53,73,93,113,132,153,174,193,213,233,253,273,293,314,334,353,372,393,413,433,453,474,492,513,533,553,573,593,614,633,654,673,694,714,733,752,774,794,813,832,853,874,893,913,933,953,972,993,1014,1033,1053,1073,1094,1114],"xSR":741.5,"ySR":469.95,"xT1":424.9,"yT1":0,"xT2":1058.1,"yT2":0,"toosoon":0,"cond_shown":"randomdotsizeEA","ratio_trial":900,"smaller_num":"18","larger_num":"20","correct_side":1,"subjID":"SamuelAndresCastañedaTapiero33","gender":"0","age":"10","school":"6"},{"start_time":1551801547251,"click_time":1551801549446,"finger_time":1551801547906,"fix_duration":543.8684173605353,"trial":21,"RT":655,"MT":1540,"sideResp":1,"stimulus":"img/500/randomdotsizeEA/L/4_Ratio_500_L_18_R_9.png","xmouse":[828,828,828,828,828,828,828,828,828,828,828,828,828,828,828,828,828,828,828,828,828,828,828,828,828,828,828,828,828,821,810,795,743,705,668,638,624,605,603,601,597,594,592,591,591,591,591,591,591,591,590,589,587,580,576,572,569,568,567,567,572,592,635,648,658,661,662,662,662,662,663,663,650,565,500,441,409,394,391,390,389,389,389,390,394,397,404,410,413,413,413,413,413,413,413,413,413,413,414,414,414,415,419,419,419,420,421,422,423,425],"ymouse":[539,539,539,539,539,539,539,539,539,539,539,539,539,539,539,539,539,539,539,539,539,539,539,539,539,539,539,539,538,532,523,508,444,405,372,348,336,312,300,293,283,279,275,272,270,266,261,250,247,244,241,238,233,222,217,213,209,208,207,207,207,204,204,205,207,207,207,207,207,207,207,206,202,181,162,140,126,117,112,108,104,99,90,87,81,76,72,69,68,68,68,68,68,68,68,68,68,68,68,68,68,68,66,66,66,66,65,65,65,65],"timestamp_mouse":[14,37,55,75,96,115,136,155,175,195,215,236,255,276,296,315,336,355,375,395,414,435,455,476,495,516,536,556,576,596,614,635,655,675,695,715,735,756,774,796,815,835,856,874,895,915,935,956,975,995,1016,1035,1056,1075,1096,1115,1135,1155,1175,1196,1216,1235,1255,1274,1295,1316,1335,1355,1375,1395,1415,1435,1455,1476,1496,1516,1535,1554,1575,1595,1615,1635,1656,1674,1695,1716,1735,1756,1774,1796,1816,1835,1855,1875,1896,1915,1936,1955,1975,1995,2015,2035,2056,2076,2095,2115,2135,2156,2174,2195],"xSR":741.5,"ySR":469.95,"xT1":424.9,"yT1":0,"xT2":1058.1,"yT2":0,"toosoon":0,"cond_shown":"randomdotsizeEA","ratio_trial":500,"smaller_num":"9","larger_num":"18","correct_side":1,"subjID":"SamuelAndresCastañedaTapiero33","gender":"0","age":"10","school":"6"},{"start_time":1551801551439,"click_time":1551801553066,"finger_time":1551801552127,"fix_duration":250,"trial":22,"RT":688,"MT":939,"sideResp":1,"stimulus":"img/750/equaldotanddens/R/2_Ratio_750_L_6_R_8.png","xmouse":[815,815,815,815,815,815,815,815,815,815,815,815,815,815,815,815,815,815,815,815,815,815,815,815,815,815,815,815,815,815,815,815,815,827,842,858,873,885,901,906,908,908,908,896,887,879,871,859,798,745,685,587,541,505,500,494,487,479,472,468,466,465,464,462,460,458,455,453,452,463,495,523,551,598,621,656,688,700,669,638,593,497],"ymouse":[547,547,547,547,547,547,547,547,547,547,547,547,547,547,547,547,547,547,547,547,547,547,547,547,547,547,547,547,547,547,547,547,546,529,512,493,472,455,420,403,384,352,332,293,278,266,255,245,221,210,204,204,204,212,216,221,229,239,250,262,265,269,271,279,287,294,304,317,328,342,352,355,355,344,326,294,250,204,141,117,90,61],"timestamp_mouse":[9,35,47,66,87,107,127,147,168,188,207,227,248,267,286,306,327,347,368,387,407,427,447,468,487,507,528,547,568,588,608,627,648,667,688,707,728,747,769,786,807,826,847,868,887,907,927,947,968,987,1008,1027,1046,1068,1087,1107,1128,1147,1166,1187,1208,1227,1248,1268,1286,1307,1328,1347,1367,1388,1408,1428,1447,1467,1486,1507,1528,1547,1568,1587,1607,1626],"xSR":741.5,"ySR":469.95,"xT1":424.9,"yT1":0,"xT2":1058.1,"yT2":0,"toosoon":0,"cond_shown":"equaldotanddens","ratio_trial":750,"smaller_num":"6","larger_num":"8","correct_side":2,"subjID":"SamuelAndresCastañedaTapiero33","gender":"0","age":"10","school":"6"},{"start_time":1551801555004,"click_time":1551801556486,"finger_time":1551801555627,"fix_duration":717.0587442353907,"trial":23,"RT":623,"MT":859,"sideResp":2,"stimulus":"img/750/randomdotsizeEA/L/9_Ratio_750_L_4_R_3.png","xmouse":[751,751,751,751,751,751,751,751,751,751,751,751,751,751,751,751,751,751,751,751,751,751,751,751,751,751,751,751,757,762,790,807,827,848,861,881,890,899,908,917,928,957,963,967,970,974,979,981,982,984,986,987,989,989,990,991,991,992,993,993,994,994,994,994,995,998,1003,1015,1029,1037,1046,1048,1051,1055,1059],"ymouse":[531,531,531,531,531,531,531,531,531,531,531,531,531,531,531,531,531,531,531,531,531,531,531,531,531,531,531,531,531,526,491,460,418,369,339,295,274,251,230,208,183,128,118,111,105,100,91,87,84,82,78,76,74,74,73,72,72,71,70,70,69,69,69,69,69,68,68,68,68,68,69,69,69,69,69],"timestamp_mouse":[9,32,43,62,83,102,122,142,162,182,202,223,242,263,282,301,322,342,362,383,401,422,442,462,482,502,522,542,562,583,602,623,643,662,683,702,721,743,762,782,802,823,843,862,882,902,922,942,963,983,1002,1022,1042,1063,1082,1103,1121,1141,1162,1182,1202,1221,1242,1262,1282,1303,1322,1342,1362,1382,1403,1422,1442,1463,1482],"xSR":741.5,"ySR":469.95,"xT1":424.9,"yT1":0,"xT2":1058.1,"yT2":0,"toosoon":0,"cond_shown":"randomdotsizeEA","ratio_trial":750,"smaller_num":"3","larger_num":"4","correct_side":1,"subjID":"SamuelAndresCastañedaTapiero33","gender":"0","age":"10","school":"6"},{"start_time":1551801558359,"click_time":1551801559007,"finger_time":1551801558885,"fix_duration":250,"trial":24,"RT":526,"MT":122,"sideResp":1,"stimulus":"img/750/randomdotsizeEA/L/6_Ratio_750_L_24_R_18.png","xmouse":[790,790,790,790,790,790,790,790,790,790,790,790,790,790,790,790,790,790,790,790,790,790,790,790,790,790,789,775,748,700,640,582,518],"ymouse":[484,484,484,484,484,484,484,484,484,484,484,484,484,484,484,484,484,484,484,484,484,484,484,484,484,484,469,431,378,303,223,156,79],"timestamp_mouse":[9,34,48,68,86,107,128,147,168,187,207,228,246,267,287,308,326,347,367,388,407,426,448,466,486,507,526,548,566,588,608,627,647],"xSR":741.5,"ySR":469.95,"xT1":424.9,"yT1":0,"xT2":1058.1,"yT2":0,"toosoon":0,"cond_shown":"randomdotsizeEA","ratio_trial":750,"smaller_num":"18","larger_num":"24","correct_side":1,"subjID":"SamuelAndresCastañedaTapiero33","gender":"0","age":"10","school":"6"},{"start_time":1551801561190,"click_time":1551801562226,"finger_time":1551801562067,"fix_duration":941.5263283695614,"trial":25,"RT":877,"MT":159,"sideResp":2,"stimulus":"img/250/randomdotsizeEA/R/11_Ratio_250_L_3_R_12.png","xmouse":[799,799,799,799,799,799,799,799,799,799,799,799,799,799,799,799,799,799,799,799,799,799,799,799,799,799,799,799,799,799,799,799,802,805,807,808,808,808,808,808,815,823,857,889,937,1006,1021,1038,1050,1067,1070],"ymouse":[546,546,546,546,546,546,546,546,546,546,546,546,546,546,546,546,546,546,546,546,546,546,546,546,546,546,546,546,546,546,546,541,534,525,518,515,515,515,515,515,506,495,443,397,329,216,181,148,127,101,97],"timestamp_mouse":[36,55,76,96,115,136,157,176,196,216,237,256,276,296,317,336,357,376,397,416,436,456,476,495,516,536,555,576,596,617,637,657,675,696,716,736,756,776,797,816,836,856,877,896,917,935,955,976,997,1016,1036],"xSR":741.5,"ySR":469.95,"xT1":424.9,"yT1":0,"xT2":1058.1,"yT2":0,"toosoon":0,"cond_shown":"randomdotsizeEA","ratio_trial":250,"smaller_num":"3","larger_num":"12","correct_side":2,"subjID":"SamuelAndresCastañedaTapiero33","gender":"0","age":"10","school":"6"},{"start_time":1551801564503,"click_time":1551801566726,"finger_time":1551801565187,"fix_duration":1015.7404022865497,"trial":26,"RT":684,"MT":1539,"sideResp":1,"stimulus":"img/500/equaldotanddens/L/10_Ratio_500_L_4_R_2.png","xmouse":[838,838,838,838,838,838,838,838,838,838,838,838,838,838,838,838,838,838,838,838,838,838,838,838,838,838,838,838,838,838,838,838,826,806,774,743,650,604,584,573,562,558,554,550,548,545,545,544,543,541,539,537,535,534,534,532,531,529,526,524,519,516,512,504,491,462,450,444,439,439,439,440,443,447,451,466,474,478,481,482,482,482,482,481,480,480,479,479,479,479,479,477,477,477,477,476,475,474,474,474,473,473,473,472,472,472,472,472,472,472,472,472],"ymouse":[519,519,519,519,519,519,519,519,519,519,519,519,519,519,519,519,519,519,519,519,519,519,519,519,519,519,519,519,519,519,519,515,500,487,466,449,405,384,376,371,364,361,358,356,355,353,353,353,352,350,348,346,344,342,342,339,338,336,333,330,325,321,315,306,297,275,265,254,242,234,216,209,199,187,177,152,141,133,124,122,120,116,116,115,115,115,115,115,115,115,115,114,114,114,114,113,111,110,109,109,107,107,106,105,104,104,103,103,102,102,100,99],"timestamp_mouse":[10,36,43,63,84,103,123,142,164,183,202,224,243,263,282,304,323,343,364,384,403,423,443,464,482,504,523,543,564,582,603,622,642,663,684,704,723,743,762,784,804,823,842,863,884,904,924,943,963,983,1004,1023,1043,1063,1083,1103,1123,1143,1164,1183,1203,1222,1243,1264,1283,1303,1323,1343,1363,1384,1403,1423,1443,1463,1484,1504,1523,1543,1563,1582,1604,1623,1643,1663,1684,1704,1723,1743,1763,1783,1803,1822,1843,1863,1883,1903,1924,1943,1963,1982,2004,2024,2043,2063,2082,2103,2124,2144,2163,2183,2203,2223],"xSR":741.5,"ySR":469.95,"xT1":424.9,"yT1":0,"xT2":1058.1,"yT2":0,"toosoon":0,"cond_shown":"equaldotanddens","ratio_trial":500,"smaller_num":"2","larger_num":"4","correct_side":1,"subjID":"SamuelAndresCastañedaTapiero33","gender":"0","age":"10","school":"6"},{"start_time":1551801569151,"click_time":1551801571526,"finger_time":1551801569846,"fix_duration":1164.1294588410271,"trial":27,"RT":695,"MT":1680,"sideResp":2,"stimulus":"img/500/randomdotsizeEA/R/9_Ratio_500_L_2_R_4.png","xmouse":[798,798,798,798,798,798,798,798,798,798,798,798,798,798,798,798,798,798,798,798,798,798,798,798,798,798,798,798,798,798,798,800,811,823,867,905,917,923,924,925,928,932,948,963,981,1000,1028,1055,1060,1066,1071,1077,1079,1086,1090,1094,1097,1100,1103,1104,1104,1105,1105,1106,1106,1103,1097,1085,1062,1057,1073,1116,1139,1139,1139,1139,1139,1139,1139,1139,1139,1139,1139,1139,1139,1139,1139,1139,1139,1139,1139,1139,1139,1139,1139,1139,1162,1193,1193,1191,1187,1181,1172,1107,1088,1037,1037,1037,1037,1037,1037,1037,1037,1037,1037,1037,1037,1037,1097],"ymouse":[550,550,550,550,550,550,550,550,550,550,550,550,550,550,550,550,550,550,550,550,550,550,550,550,550,550,550,550,550,549,546,535,502,480,437,410,402,393,391,391,388,383,374,366,355,343,327,308,304,298,294,290,288,285,282,280,279,278,278,278,278,278,278,279,282,294,308,328,371,394,447,562,640,640,640,640,640,640,640,640,640,640,640,640,640,640,640,640,640,640,640,640,640,640,640,640,642,665,673,673,673,665,636,336,253,4,4,4,4,4,4,4,4,4,4,4,4,4,10],"timestamp_mouse":[15,35,56,76,95,115,136,154,174,195,216,235,256,275,295,315,335,354,375,395,415,435,455,475,495,514,535,555,576,595,615,635,656,675,695,714,736,756,776,795,814,834,856,875,895,915,934,956,975,994,1015,1036,1055,1076,1095,1115,1135,1154,1175,1194,1215,1236,1254,1276,1295,1316,1334,1355,1375,1394,1415,1436,1456,1475,1495,1515,1536,1556,1575,1595,1614,1636,1656,1675,1696,1716,1735,1756,1775,1795,1816,1834,1856,1875,1895,1915,1935,1955,1974,1995,2015,2035,2054,2074,2096,2115,2136,2156,2175,2195,2215,2235,2256,2274,2295,2316,2336,2355,2375],"xSR":741.5,"ySR":469.95,"xT1":424.9,"yT1":0,"xT2":1058.1,"yT2":0,"toosoon":0,"cond_shown":"randomdotsizeEA","ratio_trial":500,"smaller_num":"2","larger_num":"4","correct_side":2,"subjID":"SamuelAndresCastañedaTapiero33","gender":"0","age":"10","school":"6"},{"start_time":1551801575465,"click_time":1551801576667,"finger_time":1551801576227,"fix_duration":957.4565871828936,"trial":28,"RT":762,"MT":440,"sideResp":2,"stimulus":"img/900/equaldotanddens/L/1_Ratio_900_L_10_R_9.png","xmouse":[833,833,833,833,833,833,833,833,833,833,833,833,833,833,833,833,833,833,833,833,833,833,833,833,833,833,833,833,833,833,833,833,833,833,833,833,834,840,898,962,1057,1125,1203,1220,1228,1228,1228,1228,1228,1228,1228,1228,1228,1228,1228,1228,1228,1228,1228,1162,1151],"ymouse":[493,493,493,493,493,493,493,493,493,493,493,493,493,493,493,493,493,493,493,493,493,493,493,493,493,493,493,493,493,493,493,493,493,493,493,493,494,492,439,362,219,128,27,11,1,1,1,1,1,1,1,1,1,1,1,1,1,1,1,6,12],"timestamp_mouse":[8,22,41,62,81,101,122,142,162,182,201,222,241,261,282,302,321,341,361,381,402,422,442,462,482,501,521,542,561,582,601,620,642,662,681,701,720,741,762,781,802,822,841,861,881,901,920,942,961,980,1001,1022,1042,1062,1081,1101,1121,1142,1161,1182,1202],"xSR":741.5,"ySR":469.95,"xT1":424.9,"yT1":0,"xT2":1058.1,"yT2":0,"toosoon":0,"cond_shown":"equaldotanddens","ratio_trial":900,"smaller_num":"9","larger_num":"10","correct_side":1,"subjID":"SamuelAndresCastañedaTapiero33","gender":"0","age":"10","school":"6"},{"start_time":1551801580200,"click_time":1551801581607,"finger_time":1551801580946,"fix_duration":273.57400606094296,"trial":29,"RT":746,"MT":661,"sideResp":2,"stimulus":"img/750/equaldotsize/R/4_Ratio_750_L_15_R_20.png","xmouse":[795,795,795,795,795,795,795,795,795,795,795,795,795,795,795,795,795,795,795,795,795,795,795,795,795,795,795,795,795,795,795,795,795,796,797,816,829,848,863,897,973,995,997,1000,1000,1000,1000,1000,1000,1003,1007,1007,1008,1010,1013,1026,1029,1031,1032,1033,1036,1038,1039,1039,1040,1044,1047,1051,1053,1057,1061],"ymouse":[544,544,544,544,544,544,544,544,544,544,544,544,544,544,544,544,544,544,544,544,544,544,544,544,544,544,544,544,544,544,544,544,544,543,543,533,513,474,410,327,201,146,133,106,95,84,71,65,60,55,49,49,48,48,48,48,48,48,48,48,48,47,47,47,46,43,40,39,38,36,35],"timestamp_mouse":[14,37,46,66,86,107,127,147,166,187,207,227,247,265,286,306,327,346,367,386,406,426,447,466,487,507,526,547,565,586,607,626,646,666,687,706,726,746,766,787,807,826,845,866,887,907,926,946,966,986,1006,1025,1045,1066,1086,1106,1126,1146,1166,1186,1206,1225,1246,1266,1286,1306,1326,1346,1366,1387,1407],"xSR":741.5,"ySR":469.95,"xT1":424.9,"yT1":0,"xT2":1058.1,"yT2":0,"toosoon":0,"cond_shown":"equaldotsize","ratio_trial":750,"smaller_num":"15","larger_num":"20","correct_side":2,"subjID":"SamuelAndresCastañedaTapiero33","gender":"0","age":"10","school":"6"},{"start_time":1551801584458,"click_time":1551801585807,"finger_time":1551801585026,"fix_duration":250,"trial":30,"RT":568,"MT":781,"sideResp":2,"stimulus":"img/500/equaldotsize/R/9_Ratio_500_L_2_R_4.png","xmouse":[770,771,774,776,779,780,782,783,784,785,787,788,791,791,793,795,796,798,800,801,803,805,807,808,809,810,811,815,817,821,827,837,855,862,869,877,885,894,910,916,923,928,935,938,941,945,952,965,976,980,988,993,995,1001,1003,1007,1009,1011,1016,1020,1023,1026,1031,1039,1044,1050,1056,1061],"ymouse":[532,530,527,525,523,522,520,518,517,514,509,506,501,500,496,495,493,490,488,485,483,483,480,480,478,477,475,472,469,466,460,453,438,432,426,421,417,411,398,388,373,362,336,320,298,271,240,194,159,148,125,114,109,98,93,89,85,83,77,74,73,71,68,64,61,59,56,53],"timestamp_mouse":[9,38,48,68,89,109,129,149,169,187,208,228,249,268,289,308,328,348,369,389,408,429,448,469,488,509,529,548,568,587,608,628,649,668,688,707,727,749,769,788,807,828,848,868,889,908,928,948,968,988,1008,1028,1048,1069,1088,1108,1127,1149,1168,1188,1208,1227,1247,1267,1289,1308,1329,1349],"xSR":741.5,"ySR":469.95,"xT1":424.9,"yT1":0,"xT2":1058.1,"yT2":0,"toosoon":0,"cond_shown":"equaldotsize","ratio_trial":500,"smaller_num":"2","larger_num":"4","correct_side":2,"subjID":"SamuelAndresCastañedaTapiero33","gender":"0","age":"10","school":"6"},{"start_time":1551801589457,"click_time":1551801591626,"finger_time":1551801589806,"fix_duration":469.9150498400857,"trial":31,"RT":349,"MT":1820,"sideResp":2,"stimulus":"img/500/equaldotsize/R/3_Ratio_500_L_10_R_20.png","xmouse":[818,819,821,822,824,824,824,825,827,829,830,831,835,835,837,838,840,843,844,846,848,850,869,884,902,917,925,928,931,937,942,957,971,1004,1019,1032,1044,1069,1081,1091,1103,1109,1126,1138,1153,1174,1193,1218,1225,1228,1230,1230,1233,1233,1233,1233,1233,1233,1230,1227,1227,1225,1220,1216,1210,1193,1178,1150,1142,1136,1135,1134,1131,1131,1131,1131,1130,1128,1127,1126,1123,1119,1119,1114,1112,1108,1102,1099,1093,1092,1092,1092,1091,1090,1089,1088,1087,1086,1086,1086,1083,1083,1080,1076,1073,1068,1067,1066,1064],"ymouse":[516,515,512,511,510,510,510,509,508,507,506,505,502,501,500,500,498,496,495,494,493,491,483,478,472,468,466,465,463,460,457,448,441,424,416,408,401,387,380,374,366,361,346,336,323,306,291,266,255,246,240,235,227,223,220,215,212,209,201,196,195,192,187,183,178,169,163,154,150,147,147,146,145,145,145,144,144,142,141,140,138,136,135,132,131,129,125,123,119,118,118,118,117,116,116,115,114,113,113,113,111,111,109,107,105,102,101,100,99],"timestamp_mouse":[10,30,49,69,89,109,129,149,168,190,209,229,249,269,289,309,330,349,370,389,410,429,449,468,489,510,529,548,569,589,609,629,650,668,689,709,728,750,769,789,809,830,849,868,889,909,928,950,969,989,1009,1029,1050,1068,1089,1108,1128,1148,1169,1190,1209,1229,1250,1269,1289,1309,1328,1350,1368,1389,1409,1429,1449,1469,1490,1510,1528,1550,1568,1589,1610,1629,1650,1669,1689,1709,1730,1748,1769,1789,1809,1830,1849,1869,1889,1909,1930,1950,1969,1990,2010,2029,2050,2068,2089,2109,2129,2150,2169],"xSR":741.5,"ySR":469.95,"xT1":424.9,"yT1":0,"xT2":1058.1,"yT2":0,"toosoon":0,"cond_shown":"equaldotsize","ratio_trial":500,"smaller_num":"10","larger_num":"20","correct_side":2,"subjID":"SamuelAndresCastañedaTapiero33","gender":"0","age":"10","school":"6"},{"start_time":1551801601118,"click_time":1551801602567,"finger_time":1551801601627,"fix_duration":250,"trial":32,"RT":509,"MT":940,"sideResp":2,"stimulus":"img/750/equaldotanddens/L/8_Ratio_750_L_4_R_3.png","xmouse":[805,806,806,806,807,807,807,809,810,812,813,814,815,817,818,821,822,823,826,830,831,833,834,837,841,843,846,847,848,849,849,850,852,853,856,857,859,866,871,879,887,894,904,917,933,973,1001,1030,1044,1062,1069,1075,1082,1087,1093,1108,1113,1118,1120,1125,1127,1129,1130,1131,1132,1132,1132,1132,1129,1123,1113,1105,1096],"ymouse":[536,534,534,533,532,531,531,528,527,525,523,522,521,519,517,515,515,513,511,509,507,506,505,503,500,499,497,496,495,494,493,493,492,491,489,489,487,484,482,479,475,471,464,455,441,399,372,343,328,307,298,289,279,269,259,237,227,217,213,202,197,193,189,186,183,174,169,159,149,136,116,105,92],"timestamp_mouse":[22,39,49,68,88,107,128,148,167,189,208,228,248,268,287,307,328,347,368,389,409,427,448,468,489,509,528,548,568,589,608,628,647,668,689,708,728,747,769,788,808,828,848,868,888,908,928,948,968,988,1008,1028,1047,1069,1087,1108,1129,1148,1168,1189,1207,1227,1248,1269,1287,1307,1327,1348,1369,1388,1409,1429,1449],"xSR":741.5,"ySR":469.95,"xT1":424.9,"yT1":0,"xT2":1058.1,"yT2":0,"toosoon":0,"cond_shown":"equaldotanddens","ratio_trial":750,"smaller_num":"3","larger_num":"4","correct_side":1,"subjID":"SamuelAndresCastañedaTapiero33","gender":"0","age":"10","school":"6"},{"start_time":1551801608440,"click_time":1551801609506,"finger_time":1551801609125,"fix_duration":473.0050224391807,"trial":33,"RT":685,"MT":381,"sideResp":2,"stimulus":"img/250/equaldotanddens/R/4_Ratio_250_L_3_R_12.png","xmouse":[787,787,787,787,787,787,787,787,787,787,787,787,787,787,787,787,787,787,787,787,787,787,787,787,787,787,787,787,787,787,787,788,792,798,824,852,880,899,922,925,932,936,937,938,939,939,939,939,942,950,969,1011,1044,1083],"ymouse":[535,535,535,535,535,535,535,535,535,535,535,535,535,535,535,535,535,535,535,535,535,535,535,535,535,535,535,535,535,535,535,534,528,514,460,380,298,236,152,127,102,92,89,87,85,85,85,84,83,80,79,79,79,79],"timestamp_mouse":[10,30,46,67,86,106,126,146,166,187,206,226,246,266,287,306,326,347,366,387,406,426,446,466,486,507,526,547,566,587,606,626,646,665,685,706,727,746,766,786,815,827,845,867,886,906,926,947,966,985,1006,1027,1046,1066],"xSR":741.5,"ySR":469.95,"xT1":424.9,"yT1":0,"xT2":1058.1,"yT2":0,"toosoon":0,"cond_shown":"equaldotanddens","ratio_trial":250,"smaller_num":"3","larger_num":"12","correct_side":2,"subjID":"SamuelAndresCastañedaTapiero33","gender":"0","age":"10","school":"6"},{"start_time":1551801611278,"click_time":1551801611907,"finger_time":1551801611705,"fix_duration":250,"trial":34,"RT":427,"MT":202,"sideResp":2,"stimulus":"img/900/equaldotsize/R/7_Ratio_900_L_9_R_10.png","xmouse":[800,800,800,800,800,800,800,800,800,800,800,800,800,800,800,800,800,800,800,807,820,843,925,953,978,1000,1029,1036,1047,1051,1055,1064],"ymouse":[531,531,531,531,531,531,531,531,531,531,531,531,531,531,531,531,531,531,531,524,509,476,378,334,287,238,173,154,131,120,114,98],"timestamp_mouse":[9,32,48,69,87,109,128,148,168,188,209,228,249,267,289,308,328,348,369,389,408,427,448,468,489,508,529,548,568,588,609,628],"xSR":741.5,"ySR":469.95,"xT1":424.9,"yT1":0,"xT2":1058.1,"yT2":0,"toosoon":0,"cond_shown":"equaldotsize","ratio_trial":900,"smaller_num":"9","larger_num":"10","correct_side":2,"subjID":"SamuelAndresCastañedaTapiero33","gender":"0","age":"10","school":"6"},{"start_time":1551801614734,"click_time":1551801616107,"finger_time":1551801615685,"fix_duration":1166.7379556041708,"trial":35,"RT":951,"MT":422,"sideResp":2,"stimulus":"img/250/randomdotsizeEA/R/9_Ratio_250_L_3_R_12.png","xmouse":[816,816,816,816,816,816,816,816,816,816,816,816,816,816,816,816,816,816,816,816,816,816,816,816,816,816,816,816,816,816,816,816,816,816,816,816,816,816,816,816,816,816,816,816,817,820,839,851,871,910,940,978,1013,1053,1066,1077,1084,1091,1098,1105,1108,1110,1115,1124,1128,1133,1139,1144,1147],"ymouse":[536,536,536,536,536,536,536,536,536,536,536,536,536,536,536,536,536,536,536,536,536,536,536,536,536,536,536,536,536,536,536,536,536,536,536,536,536,536,536,536,536,536,536,536,535,530,498,467,424,337,295,256,228,197,187,180,174,168,162,155,152,149,146,139,133,126,115,106,97],"timestamp_mouse":[12,37,52,72,93,111,131,152,173,193,211,233,251,273,291,313,333,353,372,392,413,431,452,472,491,513,533,551,572,593,613,631,652,672,693,712,733,753,772,792,813,833,852,871,892,912,933,951,973,993,1013,1032,1053,1073,1092,1111,1132,1153,1171,1192,1213,1233,1252,1272,1292,1311,1333,1351,1373],"xSR":741.5,"ySR":469.95,"xT1":424.9,"yT1":0,"xT2":1058.1,"yT2":0,"toosoon":0,"cond_shown":"randomdotsizeEA","ratio_trial":250,"smaller_num":"3","larger_num":"12","correct_side":2,"subjID":"SamuelAndresCastañedaTapiero33","gender":"0","age":"10","school":"6"},{"start_time":1551801617608,"click_time":1551801618786,"finger_time":1551801618306,"fix_duration":280.01956993928525,"trial":36,"RT":698,"MT":480,"sideResp":1,"stimulus":"img/500/equaldotanddens/L/13_Ratio_500_L_12_R_6.png","xmouse":[810,810,810,810,810,810,810,810,810,810,810,811,811,811,811,811,811,811,811,811,811,811,811,811,812,812,812,812,812,812,812,806,786,714,653,582,510,451,381,367,364,364,366,369,374,378,383,389,396,412,415,417,419,419,419,420,423,427],"ymouse":[533,532,532,532,532,532,532,532,532,532,532,531,531,531,531,531,531,531,531,531,531,531,531,531,530,530,530,530,530,530,530,525,513,467,436,400,359,311,224,193,172,144,130,117,101,94,86,80,72,61,59,57,56,56,56,56,55,55],"timestamp_mouse":[39,58,78,97,119,138,158,178,198,218,238,259,278,298,318,338,359,378,398,418,439,458,479,498,518,539,559,578,598,619,638,657,679,698,718,738,759,778,798,818,838,859,879,899,917,938,958,978,997,1017,1038,1059,1078,1098,1117,1138,1159,1178],"xSR":741.5,"ySR":469.95,"xT1":424.9,"yT1":0,"xT2":1058.1,"yT2":0,"toosoon":0,"cond_shown":"equaldotanddens","ratio_trial":500,"smaller_num":"6","larger_num":"12","correct_side":1,"subjID":"SamuelAndresCastañedaTapiero33","gender":"0","age":"10","school":"6"},{"start_time":1551801620647,"click_time":1551801622026,"finger_time":1551801621167,"fix_duration":500.22049076650046,"trial":37,"RT":520,"MT":859,"sideResp":1,"stimulus":"img/750/equaldotanddens/L/1_Ratio_750_L_20_R_15.png","xmouse":[774,774,774,774,774,774,774,774,774,774,774,774,774,774,774,774,774,774,774,774,774,774,772,762,746,726,704,656,626,600,562,542,524,505,504,504,507,518,521,524,524,524,524,526,527,527,527,527,527,527,527,527,527,527,527,527,527,525,521,519,516,514,511,509,509,507,506,505,500],"ymouse":[518,518,518,518,518,518,518,518,518,518,518,518,518,518,518,518,518,518,518,518,518,518,517,516,511,504,495,477,464,450,420,403,382,347,332,317,302,271,251,228,194,175,152,146,144,143,143,143,143,143,143,143,143,143,143,143,143,137,132,129,126,124,118,115,114,112,110,108,98],"timestamp_mouse":[19,39,60,79,99,119,140,160,179,200,218,239,259,279,299,319,340,359,379,399,419,439,459,480,499,520,539,560,579,599,619,640,660,680,699,719,740,760,778,799,819,840,860,879,899,919,938,959,980,1000,1018,1038,1060,1079,1100,1119,1139,1160,1179,1199,1220,1238,1259,1279,1299,1319,1338,1358,1379],"xSR":741.5,"ySR":469.95,"xT1":424.9,"yT1":0,"xT2":1058.1,"yT2":0,"toosoon":0,"cond_shown":"equaldotanddens","ratio_trial":750,"smaller_num":"15","larger_num":"20","correct_side":1,"subjID":"SamuelAndresCastañedaTapiero33","gender":"0","age":"10","school":"6"},{"start_time":1551801624590,"click_time":1551801625907,"finger_time":1551801625226,"fix_duration":1303.6271889521986,"trial":38,"RT":636,"MT":681,"sideResp":1,"stimulus":"img/900/equaldotsize/R/5_Ratio_900_L_9_R_10.png","xmouse":[797,797,797,797,797,797,797,797,797,797,797,797,797,797,797,797,797,797,797,797,797,797,797,797,797,797,797,797,797,797,810,848,862,896,926,939,944,945,947,947,948,948,947,944,933,892,854,775,672,551,369,347,339,337,335,326,315,303,299,294,292,300,316,354,395,453],"ymouse":[527,527,527,527,527,527,527,527,527,527,527,527,527,527,527,527,527,527,527,527,527,527,527,527,527,527,527,527,527,526,518,492,477,443,393,354,339,326,319,313,301,297,294,291,287,279,279,279,279,279,279,279,279,278,276,264,249,226,218,200,170,156,138,105,77,47],"timestamp_mouse":[16,36,56,76,96,115,136,156,176,195,216,237,256,276,297,316,335,357,376,397,416,436,456,476,496,517,537,556,576,596,616,636,656,676,697,716,736,756,776,797,817,835,856,876,896,917,935,955,976,996,1016,1036,1056,1076,1097,1116,1137,1156,1176,1196,1217,1236,1255,1275,1297,1316],"xSR":741.5,"ySR":469.95,"xT1":424.9,"yT1":0,"xT2":1058.1,"yT2":0,"toosoon":0,"cond_shown":"equaldotsize","ratio_trial":900,"smaller_num":"9","larger_num":"10","correct_side":2,"subjID":"SamuelAndresCastañedaTapiero33","gender":"0","age":"10","school":"6"},{"start_time":1551801627338,"click_time":1551801628587,"finger_time":1551801628207,"fix_duration":250,"trial":39,"RT":869,"MT":380,"sideResp":2,"stimulus":"img/500/equaldotanddens/R/15_Ratio_500_L_1_R_2.png","xmouse":[796,796,796,796,796,796,796,796,796,796,796,796,796,796,796,796,796,796,796,796,796,796,796,796,796,796,796,796,796,796,797,797,798,799,799,799,799,799,799,800,802,808,821,878,902,923,940,946,949,952,953,953,953,954,956,959,967,980,996,1033,1051,1068,1083],"ymouse":[535,535,535,535,535,535,535,535,535,535,535,535,535,535,535,535,535,535,535,535,535,535,535,535,535,535,533,533,531,531,530,530,529,529,529,529,529,529,529,527,521,510,487,391,344,300,258,243,233,222,217,211,205,192,185,176,165,155,143,120,111,102,95],"timestamp_mouse":[10,33,49,68,89,108,128,148,169,188,209,228,248,268,289,308,328,348,368,389,409,428,448,469,488,508,529,548,569,589,608,629,648,667,689,708,728,748,769,789,808,828,848,869,887,908,928,948,969,989,1008,1027,1048,1068,1087,1109,1129,1149,1167,1189,1208,1228,1249],"xSR":741.5,"ySR":469.95,"xT1":424.9,"yT1":0,"xT2":1058.1,"yT2":0,"toosoon":0,"cond_shown":"equaldotanddens","ratio_trial":500,"smaller_num":"1","larger_num":"2","correct_side":2,"subjID":"SamuelAndresCastañedaTapiero33","gender":"0","age":"10","school":"6"},{"start_time":1551801630528,"click_time":1551801632107,"finger_time":1551801631106,"fix_duration":599.0573713907488,"trial":40,"RT":578,"MT":1001,"sideResp":2,"stimulus":"img/250/equaldotsize/R/10_Ratio_250_L_4_R_16.png","xmouse":[778,778,778,778,778,778,778,778,778,778,778,778,778,778,778,778,778,778,778,778,778,778,778,779,781,789,793,801,813,855,890,920,955,983,1029,1046,1063,1082,1093,1121,1132,1148,1166,1180,1194,1196,1197,1197,1197,1180,1141,1052,950,876,838,838,838,839,840,841,851,862,878,901,938,954,957,959,960,964,969,971,975,982,998,1007,1020,1042,1056,1077],"ymouse":[523,523,523,523,523,523,523,523,523,523,523,523,523,523,523,523,523,523,523,523,523,523,523,522,521,515,511,504,495,465,440,419,399,378,345,332,319,302,291,265,251,234,212,191,154,137,131,130,130,127,117,94,68,45,23,20,19,17,14,14,10,7,5,4,4,4,4,4,4,6,7,8,10,14,23,29,36,48,55,64],"timestamp_mouse":[1,31,38,59,78,99,117,138,158,177,199,218,238,259,278,298,319,337,358,378,399,418,438,458,478,499,518,538,558,578,598,618,637,659,679,697,718,739,759,778,798,819,838,857,879,898,918,938,958,978,997,1019,1037,1058,1079,1098,1119,1138,1157,1179,1198,1219,1238,1259,1278,1298,1318,1338,1359,1378,1398,1418,1437,1457,1479,1498,1518,1539,1558,1579],"xSR":741.5,"ySR":469.95,"xT1":424.9,"yT1":0,"xT2":1058.1,"yT2":0,"toosoon":0,"cond_shown":"equaldotsize","ratio_trial":250,"smaller_num":"4","larger_num":"16","correct_side":2,"subjID":"SamuelAndresCastañedaTapiero33","gender":"0","age":"10","school":"6"},{"start_time":1551801634904,"click_time":1551801636286,"finger_time":1551801635707,"fix_duration":775.5192473777169,"trial":41,"RT":803,"MT":579,"sideResp":1,"stimulus":"img/750/equaldotsize/L/6_Ratio_750_L_24_R_18.png","xmouse":[791,791,791,791,791,791,791,791,791,791,791,791,791,791,791,791,791,791,791,791,791,791,791,791,791,791,791,791,791,791,791,791,791,791,791,791,791,790,788,774,723,682,633,590,569,558,555,553,552,550,548,548,548,555,566,592,605,609,609,609,609,609,609,609,609,609,609,609,609,454],"ymouse":[520,520,520,520,520,520,520,520,520,520,520,520,520,520,520,520,520,520,520,520,520,520,520,520,520,520,520,520,520,520,520,520,520,520,520,520,520,519,519,517,503,491,478,468,464,461,460,455,453,448,436,398,381,360,327,207,110,11,11,11,11,11,11,11,11,11,11,11,11,27],"timestamp_mouse":[13,35,42,62,83,103,122,142,163,181,202,222,242,262,282,302,321,343,362,382,401,423,442,462,482,501,523,541,562,582,602,623,642,661,682,702,723,741,763,782,803,821,842,862,883,903,922,941,963,982,1002,1023,1042,1061,1082,1104,1122,1143,1162,1182,1202,1221,1241,1261,1282,1302,1322,1343,1363,1382],"xSR":741.5,"ySR":469.95,"xT1":424.9,"yT1":0,"xT2":1058.1,"yT2":0,"toosoon":0,"cond_shown":"equaldotsize","ratio_trial":750,"smaller_num":"18","larger_num":"24","correct_side":1,"subjID":"SamuelAndresCastañedaTapiero33","gender":"0","age":"10","school":"6"},{"start_time":1551801642618,"click_time":1551801644027,"finger_time":1551801643427,"fix_duration":310.67046739932346,"trial":42,"RT":809,"MT":600,"sideResp":2,"stimulus":"img/250/equaldotanddens/R/4_Ratio_250_L_3_R_12.png","xmouse":[771,771,771,771,771,771,771,771,771,771,771,771,771,771,771,771,771,771,771,771,771,771,771,771,771,771,771,771,771,771,771,771,771,771,771,771,771,771,772,822,890,941,1019,1062,1105,1111,1112,1115,1116,1117,1120,1121,1121,1121,1121,1121,1121,1121,1121,1114,1111,1109,1109,1109,1109,1109,1109,1109,1109,1109,1111],"ymouse":[559,559,559,559,559,559,559,559,559,559,559,559,559,559,559,559,559,559,559,559,559,559,559,559,559,559,559,559,559,559,559,559,559,559,559,559,559,559,559,553,521,490,425,372,260,222,198,183,176,174,167,164,161,161,160,160,160,160,158,152,148,143,138,135,131,129,124,117,111,106,97],"timestamp_mouse":[10,37,47,68,88,108,129,148,168,189,208,227,247,268,288,308,329,349,369,389,410,429,448,469,489,509,528,548,568,588,608,628,649,668,687,709,728,749,768,788,809,829,848,868,888,908,928,948,968,987,1007,1035,1049,1068,1088,1109,1127,1148,1169,1189,1209,1229,1248,1268,1289,1307,1328,1347,1369,1389,1409],"xSR":741.5,"ySR":469.95,"xT1":424.9,"yT1":0,"xT2":1058.1,"yT2":0,"toosoon":0,"cond_shown":"equaldotanddens","ratio_trial":250,"smaller_num":"3","larger_num":"12","correct_side":2,"subjID":"SamuelAndresCastañedaTapiero33","gender":"0","age":"10","school":"6"},{"start_time":1551801645605,"click_time":1551801647607,"finger_time":1551801646046,"fix_duration":377.1645271372572,"trial":43,"RT":441,"MT":1561,"sideResp":2,"stimulus":"img/750/equaldotanddens/R/5_Ratio_750_L_15_R_20.png","xmouse":[780,780,780,780,780,780,780,780,780,780,780,780,780,780,780,780,780,786,792,803,827,839,844,850,854,857,858,859,859,860,860,860,860,860,860,861,863,868,875,889,904,938,977,1025,1109,1215,1327,1344,1357,1363,1366,1372,1373,1374,1374,1374,1374,1374,1374,1374,1374,1372,1359,1236,1118,922,871,861,861,861,862,863,864,869,873,878,891,896,898,901,909,920,938,966,980,991,1014,1019,1026,1037,1049,1052,1052,1052,1052,1052,1053,1054,1054,1056,1059],"ymouse":[552,552,552,552,552,552,552,552,552,552,552,552,552,552,552,552,554,554,555,554,548,542,540,533,530,527,525,524,524,523,523,523,523,523,523,522,522,520,519,515,511,497,480,459,425,372,320,306,296,289,286,280,279,278,278,278,278,278,278,278,278,277,274,235,188,102,75,67,67,66,65,63,62,59,58,57,56,55,55,55,55,57,62,69,73,74,81,82,83,85,88,89,89,89,89,89,89,89,89,89,88],"timestamp_mouse":[8,31,40,61,80,101,121,141,160,181,202,221,241,262,282,302,321,341,362,382,401,422,441,462,482,501,521,541,561,582,601,620,642,661,681,702,721,741,760,781,800,821,841,861,880,902,922,941,960,980,1000,1020,1042,1061,1081,1102,1121,1141,1161,1181,1201,1220,1241,1261,1281,1301,1321,1341,1360,1381,1402,1421,1442,1461,1481,1502,1522,1541,1561,1581,1601,1621,1641,1661,1681,1702,1722,1741,1762,1782,1802,1822,1841,1860,1881,1901,1920,1942,1962,1981,2001],"xSR":741.5,"ySR":469.95,"xT1":424.9,"yT1":0,"xT2":1058.1,"yT2":0,"toosoon":0,"cond_shown":"equaldotanddens","ratio_trial":750,"smaller_num":"15","larger_num":"20","correct_side":2,"subjID":"SamuelAndresCastañedaTapiero33","gender":"0","age":"10","school":"6"},{"start_time":1551801651178,"click_time":1551801653865,"finger_time":1551801651806,"fix_duration":250,"trial":44,"RT":628,"MT":2059,"sideResp":2,"stimulus":"img/500/equaldotsize/R/15_Ratio_500_L_1_R_2.png","xmouse":[751,751,751,751,751,751,751,751,751,750,750,750,750,750,750,750,750,750,750,750,750,750,750,750,750,750,750,750,759,766,783,801,840,863,875,887,910,916,918,920,922,926,928,931,935,938,944,956,964,973,984,1001,1010,1016,1023,1024,1026,1027,1029,1029,1031,1032,1033,1033,1025,1014,972,925,915,915,915,915,915,915,915,915,915,915,915,915,915,915,915,915,915,915,915,915,915,915,915,915,915,915,915,915,915,915,915,915,915,915,915,915,915,915,915,915,915,915,915,915,915,911,901,900,900,903,906,910,913,936,954,980,1025,1055,1109,1125,1133,1136,1138,1138,1139,1144,1148],"ymouse":[488,488,488,488,488,488,488,488,488,488,488,488,488,488,488,488,488,488,488,488,488,488,488,488,488,488,488,488,488,485,475,463,434,412,399,384,358,348,343,341,335,328,325,322,317,313,306,294,288,281,273,261,254,249,244,243,243,243,243,243,244,248,253,261,280,300,440,579,638,638,638,638,638,638,638,638,638,638,638,638,638,638,638,638,638,638,638,638,638,638,638,638,638,638,638,638,638,638,638,638,638,638,638,638,638,638,638,638,638,638,638,638,638,631,605,593,576,536,513,488,462,396,355,310,244,203,144,132,127,125,123,123,121,106,94],"timestamp_mouse":[10,34,48,68,89,108,128,148,169,188,208,229,249,269,288,308,328,349,368,388,408,427,448,469,489,509,529,549,569,589,608,628,649,669,689,708,728,748,769,787,807,829,847,868,888,907,929,949,968,987,1009,1029,1047,1067,1089,1108,1128,1149,1168,1187,1208,1228,1247,1268,1288,1308,1328,1348,1368,1388,1408,1429,1448,1468,1488,1509,1529,1549,1568,1589,1609,1628,1648,1668,1688,1709,1729,1748,1768,1788,1809,1829,1848,1868,1888,1908,1929,1948,1968,1988,2009,2028,2049,2068,2088,2107,2128,2147,2169,2189,2207,2229,2249,2269,2289,2308,2329,2348,2368,2388,2408,2428,2447,2468,2488,2508,2528,2547,2567,2588,2607,2629,2647,2667,2687],"xSR":741.5,"ySR":469.95,"xT1":424.9,"yT1":0,"xT2":1058.1,"yT2":0,"toosoon":0,"cond_shown":"equaldotsize","ratio_trial":500,"smaller_num":"1","larger_num":"2","correct_side":2,"subjID":"SamuelAndresCastañedaTapiero33","gender":"0","age":"10","school":"6"},{"start_time":1551801656358,"click_time":1551801657607,"finger_time":1551801657066,"fix_duration":250,"trial":45,"RT":708,"MT":541,"sideResp":2,"stimulus":"img/250/randomdotsizeEA/R/9_Ratio_250_L_3_R_12.png","xmouse":[778,778,778,778,778,778,778,778,778,778,778,778,778,778,778,778,778,778,778,778,778,778,778,778,778,778,778,778,778,778,780,781,789,792,796,798,799,800,802,803,808,818,855,880,907,938,951,976,987,994,998,1002,1013,1021,1032,1039,1041,1042,1045,1048,1054,1058,1064],"ymouse":[510,510,510,510,510,510,510,510,510,510,510,510,510,510,510,510,510,510,510,510,510,510,510,510,510,510,510,510,510,510,506,505,493,486,473,459,452,447,432,419,396,363,277,234,184,124,100,69,57,49,41,35,25,19,11,6,4,4,4,4,6,10,14],"timestamp_mouse":[9,29,49,69,88,107,128,148,168,189,208,228,248,269,289,308,329,348,368,388,407,428,449,468,488,508,528,548,567,588,608,628,649,669,689,708,729,749,768,789,809,827,849,867,888,908,928,948,968,988,1008,1027,1049,1068,1088,1109,1127,1149,1169,1188,1208,1228,1248],"xSR":741.5,"ySR":469.95,"xT1":424.9,"yT1":0,"xT2":1058.1,"yT2":0,"toosoon":0,"cond_shown":"randomdotsizeEA","ratio_trial":250,"smaller_num":"3","larger_num":"12","correct_side":2,"subjID":"SamuelAndresCastañedaTapiero33","gender":"0","age":"10","school":"6"},{"start_time":1551801659728,"click_time":1551801660866,"finger_time":1551801660386,"fix_duration":540.4127789007204,"trial":46,"RT":658,"MT":480,"sideResp":1,"stimulus":"img/500/equaldotanddens/L/7_Ratio_500_L_10_R_5.png","xmouse":[791,791,791,791,791,791,791,791,791,791,791,791,791,791,791,791,791,791,791,791,791,791,791,791,791,791,791,791,791,791,791,774,733,567,405,309,238,215,210,210,215,222,230,246,255,262,274,282,304,319,332,344,361,394,416,423,453],"ymouse":[534,534,534,534,534,534,534,534,534,534,534,534,534,534,534,534,534,534,534,534,534,534,534,534,534,534,534,534,534,534,529,509,460,331,225,165,116,95,83,76,68,59,54,44,41,38,36,35,34,34,34,34,38,49,59,62,69],"timestamp_mouse":[34,38,58,79,98,118,138,157,178,198,218,239,259,278,298,318,338,358,378,399,419,437,458,478,497,518,539,558,577,599,617,638,658,679,697,719,739,759,779,797,818,838,858,878,898,918,938,957,979,997,1018,1039,1059,1078,1097,1118,1138],"xSR":741.5,"ySR":469.95,"xT1":424.9,"yT1":0,"xT2":1058.1,"yT2":0,"toosoon":0,"cond_shown":"equaldotanddens","ratio_trial":500,"smaller_num":"5","larger_num":"10","correct_side":1,"subjID":"SamuelAndresCastañedaTapiero33","gender":"0","age":"10","school":"6"},{"start_time":1551801662560,"click_time":1551801663447,"finger_time":1551801663185,"fix_duration":872.3907657386296,"trial":47,"RT":625,"MT":262,"sideResp":2,"stimulus":"img/750/equaldotanddens/R/5_Ratio_750_L_15_R_20.png","xmouse":[770,770,770,770,770,770,770,770,770,770,770,770,770,770,770,770,770,770,770,770,770,770,770,770,770,770,770,770,770,773,777,785,815,848,937,995,1043,1061,1066,1066,1065,1063,1063,1063,1064],"ymouse":[490,490,490,490,490,490,490,490,490,490,490,490,490,490,490,490,490,490,490,490,490,490,490,490,490,490,490,490,490,485,475,456,410,368,265,195,139,113,105,105,104,104,104,104,99],"timestamp_mouse":[9,31,46,67,86,107,127,146,167,187,205,227,246,267,286,307,325,346,366,386,406,426,445,466,486,506,525,546,566,586,607,625,647,666,686,707,726,747,766,786,807,826,847,867,887],"xSR":741.5,"ySR":469.95,"xT1":424.9,"yT1":0,"xT2":1058.1,"yT2":0,"toosoon":0,"cond_shown":"equaldotanddens","ratio_trial":750,"smaller_num":"15","larger_num":"20","correct_side":2,"subjID":"SamuelAndresCastañedaTapiero33","gender":"0","age":"10","school":"6"},{"start_time":1551801665497,"click_time":1551801666826,"finger_time":1551801666186,"fix_duration":890.3430768979406,"trial":48,"RT":689,"MT":640,"sideResp":2,"stimulus":"img/900/randomdotsizeEA/L/8_Ratio_900_L_20_R_18.png","xmouse":[784,784,784,784,784,784,784,784,784,784,784,784,784,784,784,784,784,784,784,784,784,784,784,784,785,787,788,788,788,789,789,791,793,795,797,803,806,809,809,811,811,811,811,811,811,812,813,814,818,829,882,926,954,972,982,994,999,1002,1006,1012,1025,1032,1038,1042,1047,1055,1060],"ymouse":[491,491,491,491,491,491,491,491,491,491,491,491,491,491,491,491,491,491,491,491,491,491,491,491,487,484,484,483,482,481,480,478,475,471,468,456,449,439,432,424,410,401,390,376,362,341,334,332,327,319,300,280,266,253,241,214,203,191,175,164,138,124,110,99,89,74,67],"timestamp_mouse":[10,42,50,68,89,109,129,149,169,189,208,230,249,268,289,310,329,349,369,390,409,428,449,469,490,509,529,549,570,589,610,630,648,669,689,710,728,749,770,790,809,828,849,869,890,910,929,949,970,990,1010,1028,1049,1070,1089,1109,1129,1148,1169,1189,1209,1228,1248,1269,1289,1310,1329],"xSR":741.5,"ySR":469.95,"xT1":424.9,"yT1":0,"xT2":1058.1,"yT2":0,"toosoon":0,"cond_shown":"randomdotsizeEA","ratio_trial":900,"smaller_num":"18","larger_num":"20","correct_side":1,"subjID":"SamuelAndresCastañedaTapiero33","gender":"0","age":"10","school":"6"},{"start_time":1551801671762,"click_time":1551801673345,"finger_time":1551801672486,"fix_duration":734.8981226066119,"trial":49,"RT":724,"MT":859,"sideResp":1,"stimulus":"img/900/randomdotsizeEA/L/4_Ratio_900_L_20_R_18.png","xmouse":[779,779,779,779,779,780,780,780,780,780,780,780,780,780,780,780,780,780,780,780,780,780,780,780,780,780,780,780,780,780,780,780,781,786,788,795,800,800,799,795,793,792,790,789,783,767,753,737,708,698,691,686,677,673,667,664,659,655,647,643,636,628,599,585,559,542,527,510,505,504,504,504,503,503,503,505,508,510,511,511],"ymouse":[556,556,556,552,545,543,541,541,541,541,541,541,541,541,541,541,541,541,541,541,541,541,541,541,541,541,541,541,541,541,541,541,541,521,514,480,451,402,386,376,373,372,372,371,368,361,354,348,336,331,328,325,320,317,312,309,304,301,291,287,282,276,263,254,237,225,214,200,195,193,189,185,175,168,160,148,138,128,108,98],"timestamp_mouse":[20,25,44,64,84,104,125,144,163,185,204,225,243,264,285,304,324,344,364,384,404,425,444,464,484,504,525,543,563,585,603,625,645,664,683,704,724,744,764,784,805,823,845,864,885,904,924,945,964,985,1005,1024,1045,1063,1084,1105,1125,1145,1164,1183,1205,1225,1245,1264,1283,1304,1325,1344,1364,1383,1404,1425,1445,1464,1484,1505,1524,1544,1564,1583],"xSR":741.5,"ySR":469.95,"xT1":424.9,"yT1":0,"xT2":1058.1,"yT2":0,"toosoon":0,"cond_shown":"randomdotsizeEA","ratio_trial":900,"smaller_num":"18","larger_num":"20","correct_side":1,"subjID":"SamuelAndresCastañedaTapiero33","gender":"0","age":"10","school":"6"},{"start_time":1551801676184,"click_time":1551801677625,"finger_time":1551801676826,"fix_duration":1435.4677143167405,"trial":50,"RT":642,"MT":799,"sideResp":1,"stimulus":"img/500/equaldotanddens/L/11_Ratio_500_L_12_R_6.png","xmouse":[771,771,771,771,771,771,771,771,771,771,771,771,771,771,771,771,771,771,771,771,771,771,771,771,771,771,771,771,771,771,771,771,771,759,737,706,669,610,593,582,581,583,605,618,631,641,649,653,653,653,653,653,653,653,653,653,653,653,653,653,653,545,545,545,543,543,541,541,538,537,531,525,521],"ymouse":[473,473,473,473,473,473,473,473,473,473,473,473,473,473,473,473,473,473,473,473,473,473,473,473,473,473,473,473,473,473,473,473,468,460,447,432,413,373,357,333,316,297,257,234,201,168,130,25,25,25,25,25,25,25,25,25,25,25,25,25,25,25,47,54,59,60,62,62,63,63,64,65,65],"timestamp_mouse":[9,37,42,62,83,102,123,142,162,183,201,222,242,263,283,302,323,343,363,383,401,421,442,462,482,502,522,542,562,582,602,622,642,662,682,703,722,743,762,782,802,823,843,862,881,902,923,942,963,983,1002,1023,1043,1063,1083,1103,1121,1141,1163,1182,1203,1222,1241,1263,1282,1303,1322,1343,1362,1383,1402,1422,1441],"xSR":741.5,"ySR":469.95,"xT1":424.9,"yT1":0,"xT2":1058.1,"yT2":0,"toosoon":0,"cond_shown":"equaldotanddens","ratio_trial":500,"smaller_num":"6","larger_num":"12","correct_side":1,"subjID":"SamuelAndresCastañedaTapiero33","gender":"0","age":"10","school":"6"},{"start_time":1551801680517,"click_time":1551801681867,"finger_time":1551801681166,"fix_duration":1409.3044053885474,"trial":51,"RT":649,"MT":701,"sideResp":2,"stimulus":"img/900/randomdotsizeEA/L/1_Ratio_900_L_10_R_9.png","xmouse":[758,758,758,758,758,758,758,758,758,758,758,758,758,758,758,758,758,758,758,758,758,758,758,758,758,758,758,758,758,758,758,759,761,767,810,830,855,876,896,916,950,960,967,971,975,994,998,1007,1021,1038,1047,1054,1057,1058,1058,1058,1058,1058,1058,1058,1058,1058,1058,1058,1058,1058,1058,1059],"ymouse":[470,470,470,470,470,470,470,470,470,470,470,470,470,470,470,470,470,470,470,470,470,470,470,470,470,470,470,470,470,470,470,470,469,462,423,403,373,354,336,319,290,279,268,258,247,212,207,194,174,141,119,100,84,70,65,65,65,65,65,65,65,65,65,65,65,65,65,68],"timestamp_mouse":[10,36,49,69,88,110,129,149,170,188,209,230,249,270,288,308,330,349,369,389,409,429,450,469,490,508,530,550,568,589,610,629,649,669,689,708,729,750,770,789,808,829,850,870,889,909,930,949,970,990,1009,1029,1048,1069,1089,1108,1129,1149,1169,1189,1209,1229,1250,1269,1290,1308,1330,1350],"xSR":741.5,"ySR":469.95,"xT1":424.9,"yT1":0,"xT2":1058.1,"yT2":0,"toosoon":0,"cond_shown":"randomdotsizeEA","ratio_trial":900,"smaller_num":"9","larger_num":"10","correct_side":1,"subjID":"SamuelAndresCastañedaTapiero33","gender":"0","age":"10","school":"6"},{"start_time":1551801683970,"click_time":1551801685147,"finger_time":1551801684627,"fix_duration":1063.207750013309,"trial":52,"RT":657,"MT":520,"sideResp":1,"stimulus":"img/750/randomdotsizeEA/R/5_Ratio_750_L_15_R_20.png","xmouse":[783,783,783,783,783,783,783,783,783,783,783,783,783,783,783,783,783,783,783,783,783,783,783,783,783,783,783,783,783,783,783,783,777,753,731,705,664,649,638,627,617,598,593,590,589,589,589,589,589,588,586,583,582,582,576,563,543,498,481],"ymouse":[471,471,471,471,471,471,471,471,471,471,471,471,471,471,471,471,471,471,471,471,471,471,471,471,471,471,471,471,471,471,471,471,465,448,435,419,388,372,353,330,307,261,244,226,218,213,197,185,173,158,148,140,138,138,137,133,125,103,94],"timestamp_mouse":[16,36,56,76,96,116,136,157,176,197,217,236,256,276,296,316,336,355,376,395,417,436,457,476,496,515,537,556,576,595,617,635,657,677,695,716,736,755,775,796,815,837,857,877,896,916,935,956,975,996,1017,1036,1056,1076,1097,1117,1136,1155,1177],"xSR":741.5,"ySR":469.95,"xT1":424.9,"yT1":0,"xT2":1058.1,"yT2":0,"toosoon":0,"cond_shown":"randomdotsizeEA","ratio_trial":750,"smaller_num":"15","larger_num":"20","correct_side":2,"subjID":"SamuelAndresCastañedaTapiero33","gender":"0","age":"10","school":"6"},{"start_time":1551801690317,"click_time":1551801692087,"finger_time":1551801690966,"fix_duration":250,"trial":53,"RT":649,"MT":1121,"sideResp":1,"stimulus":"img/500/equaldotanddens/L/5_Ratio_500_L_4_R_2.png","xmouse":[766,766,766,766,766,766,766,766,766,766,766,766,766,766,766,766,766,766,766,766,766,766,766,766,766,766,766,766,767,769,771,773,774,777,781,798,810,839,875,993,1067,1139,1201,1252,1299,1299,1299,1299,1299,1299,1299,1299,1299,1299,1299,1299,1299,1299,1299,1299,1299,1299,1299,1299,1299,1299,1332,1329,1321,1301,1292,1280,1265,1250,1221,1207,1193,1173,1143,988,883,785,698,632,597,555,538,527,518],"ymouse":[483,483,483,483,483,483,483,483,483,483,483,483,483,483,483,483,483,483,483,483,483,483,483,483,483,483,483,483,482,479,475,470,463,454,447,423,408,379,351,256,199,142,87,43,1,1,1,1,1,1,1,1,1,1,1,1,1,1,1,1,1,1,1,1,1,1,5,32,70,136,162,186,203,218,239,245,245,245,240,195,165,136,111,87,72,62,61,61,61],"timestamp_mouse":[10,36,48,70,89,109,129,149,169,189,209,229,248,269,288,309,329,350,369,389,409,429,450,468,490,508,528,550,569,589,609,629,649,670,689,710,729,749,768,790,808,829,849,869,889,908,929,948,969,990,1009,1029,1049,1070,1090,1109,1128,1150,1170,1189,1209,1230,1249,1269,1289,1309,1330,1349,1369,1389,1408,1429,1449,1469,1490,1509,1529,1550,1570,1589,1608,1629,1648,1669,1689,1709,1729,1749,1770],"xSR":741.5,"ySR":469.95,"xT1":424.9,"yT1":0,"xT2":1058.1,"yT2":0,"toosoon":0,"cond_shown":"equaldotanddens","ratio_trial":500,"smaller_num":"2","larger_num":"4","correct_side":1,"subjID":"SamuelAndresCastañedaTapiero33","gender":"0","age":"10","school":"6"},{"start_time":1551801696640,"click_time":1551801697967,"finger_time":1551801697266,"fix_duration":612.9150433464214,"trial":54,"RT":626,"MT":701,"sideResp":2,"stimulus":"img/250/randomdotsizeEA/R/12_Ratio_250_L_5_R_20.png","xmouse":[779,779,779,779,779,779,779,779,779,779,779,779,779,779,779,779,779,779,779,779,779,779,779,779,779,779,779,779,779,779,779,780,784,797,868,903,931,948,968,971,971,971,972,979,982,986,990,993,1001,1005,1010,1013,1013,1013,1015,1020,1024,1029,1036,1037,1037,1037,1038,1046,1052,1057,1068],"ymouse":[471,471,471,471,471,471,471,471,471,471,471,471,471,471,471,471,471,471,471,471,471,471,471,471,471,471,471,471,471,471,471,467,461,442,348,289,234,207,190,189,189,189,187,176,170,164,158,155,146,140,130,112,106,101,94,87,81,76,64,63,63,63,62,62,62,62,61],"timestamp_mouse":[10,34,46,67,86,107,127,147,166,186,207,226,245,265,286,306,326,345,367,386,406,426,445,467,485,505,526,545,566,587,607,626,647,666,686,706,726,746,767,786,806,826,846,866,886,906,927,947,966,985,1006,1027,1046,1066,1086,1106,1125,1146,1166,1187,1207,1226,1246,1266,1286,1306,1327],"xSR":741.5,"ySR":469.95,"xT1":424.9,"yT1":0,"xT2":1058.1,"yT2":0,"toosoon":0,"cond_shown":"randomdotsizeEA","ratio_trial":250,"smaller_num":"5","larger_num":"20","correct_side":2,"subjID":"SamuelAndresCastañedaTapiero33","gender":"0","age":"10","school":"6"},{"start_time":1551801700872,"click_time":1551801702126,"finger_time":1551801701526,"fix_duration":925.3451222307838,"trial":55,"RT":654,"MT":600,"sideResp":1,"stimulus":"img/250/equaldotsize/L/15_Ratio_250_L_12_R_3.png","xmouse":[804,804,804,804,804,804,804,804,804,804,804,804,804,804,804,804,804,804,804,804,804,804,804,804,804,804,804,804,804,798,786,776,756,746,735,726,715,693,677,669,663,648,630,608,591,582,568,559,550,548,548,548,548,548,548,548,548,548,548,542,529,515,487],"ymouse":[491,491,491,491,491,491,491,491,491,491,491,491,491,491,491,491,491,491,491,491,491,491,491,491,491,491,491,491,491,489,486,483,466,458,450,444,436,416,395,379,361,319,287,255,223,200,159,140,119,107,102,100,99,99,99,99,99,99,99,100,100,100,97],"timestamp_mouse":[14,34,53,75,94,114,134,154,174,195,213,235,253,274,295,315,334,354,375,395,415,434,454,475,495,514,535,553,573,593,613,634,654,674,694,713,735,755,775,794,815,835,854,875,894,914,935,953,973,993,1014,1035,1054,1074,1094,1114,1135,1154,1174,1195,1214,1235,1254],"xSR":741.5,"ySR":469.95,"xT1":424.9,"yT1":0,"xT2":1058.1,"yT2":0,"toosoon":0,"cond_shown":"equaldotsize","ratio_trial":250,"smaller_num":"3","larger_num":"12","correct_side":1,"subjID":"SamuelAndresCastañedaTapiero33","gender":"0","age":"10","school":"6"},{"start_time":1551801703639,"click_time":1551801706526,"finger_time":1551801704445,"fix_duration":250,"trial":56,"RT":806,"MT":2081,"sideResp":1,"stimulus":"img/900/equaldotanddens/L/8_Ratio_900_L_20_R_18.png","xmouse":[785,785,785,785,785,785,785,785,785,785,785,785,785,785,785,785,785,785,785,785,785,785,785,785,785,785,785,785,785,785,785,785,785,785,785,785,785,785,785,785,796,811,830,870,883,889,890,890,890,887,879,869,855,814,793,767,746,730,722,722,722,722,722,722,720,718,717,716,703,696,696,703,765,886,1123,1173,1176,1157,916,826,813,822,906,1104,1119,1119,1119,1104,1023,933,793,578,504,512,612,782,933,1017,1026,925,720,392,286,276,507,835,1156,1372,1394,1074,772,523,352,299,312,382,445,471,478,478,478,478,478,478,478,478,478,478,478,478,478,478,478,478,478,478,478,478,478,478,478,478,478,475,445],"ymouse":[482,482,482,482,482,482,482,482,482,482,482,482,482,482,482,482,482,482,482,482,482,482,482,482,482,482,482,482,482,482,482,482,482,482,482,482,482,482,482,482,468,444,418,363,343,328,322,318,315,309,299,289,280,264,261,257,257,257,257,257,257,257,257,257,252,244,243,241,242,245,245,248,258,277,317,330,332,337,337,336,333,330,327,327,327,327,327,327,327,327,311,281,269,264,262,262,258,258,258,258,258,243,225,221,225,268,316,350,355,281,221,179,149,132,132,132,132,132,131,131,131,131,131,131,131,131,131,131,131,131,131,131,131,131,131,131,131,131,131,131,131,131,125,114,7],"timestamp_mouse":[21,39,47,67,87,107,126,147,166,188,207,227,247,267,286,307,327,347,366,387,406,426,446,467,487,508,526,547,567,586,607,626,647,667,687,708,728,747,767,787,806,828,848,868,886,907,927,946,968,987,1007,1028,1047,1068,1087,1106,1127,1147,1167,1187,1208,1227,1248,1267,1287,1307,1327,1348,1368,1386,1407,1427,1448,1467,1487,1506,1527,1547,1568,1586,1607,1628,1648,1667,1686,1707,1727,1747,1767,1786,1807,1827,1847,1868,1887,1907,1928,1947,1966,1987,2007,2028,2048,2067,2087,2107,2127,2147,2167,2186,2208,2228,2248,2267,2286,2307,2327,2347,2367,2387,2408,2427,2447,2468,2488,2507,2528,2548,2568,2587,2606,2628,2647,2668,2687,2707,2727,2747,2767,2786,2807,2828,2848,2867,2887],"xSR":741.5,"ySR":469.95,"xT1":424.9,"yT1":0,"xT2":1058.1,"yT2":0,"toosoon":0,"cond_shown":"equaldotanddens","ratio_trial":900,"smaller_num":"18","larger_num":"20","correct_side":1,"subjID":"SamuelAndresCastañedaTapiero33","gender":"0","age":"10","school":"6"},{"start_time":1551801710273,"click_time":1551801711267,"finger_time":1551801710985,"fix_duration":864.9246874522692,"trial":57,"RT":712,"MT":282,"sideResp":2,"stimulus":"img/900/equaldotanddens/R/5_Ratio_900_L_9_R_10.png","xmouse":[777,777,777,777,777,777,777,777,777,777,777,777,777,777,777,777,777,777,777,777,777,777,777,777,777,777,777,777,777,777,777,777