[{"start_time":1551892954458,"click_time":1551892960075,"finger_time":1551892954474,"fix_duration":879.8770124202516,"trial":0,"RT":16,"MT":5601,"sideResp":2,"stimulus":"img/250/equaldotsize/L/2_Ratio_250_L_16_R_4.png","xmouse":[767,767,767,767,767,767,767,767,767,767,767,767,767,767,767,767,767,767,767,767,767,767,767,767,767,767,767,767,767,767,767,767,767,767,767,767,767,767,767,767,767,767,767,766,766,770,771,772,772,772,773,774,774,774,774,775,777,778,781,781,783,783,783,783,783,783,783,783,783,783,783,783,783,783,783,783,783,783,783,783,783,783,783,783,783,783,783,783,783,783,783,783,783,783,783,783,783,783,783,783,783,783,783,783,783,783,783,783,783,783,783,783,783,783,783,783,783,783,783,783,783,783,783,783,783,783,783,783,783,783,783,783,783,783,783,783,783,783,783,783,783,783,783,783,783,783,783,783,783,783,783,783,783,783,783,783,783,783,783,783,783,783,783,783,783,783,783,783,783,783,783,783,783,783,783,783,783,783,783,783,783,783,783,783,783,783,783,787,803,902,929,929,929,929,929,923,913,901,889,874,872,870,869,865,843,832,829,828,827,816,806,801,799,796,793,790,788,787,787,787,787,787,785,779,776,774,774,774,774,774,774,774,774,774,774,774,774,774,774,774,774,774,774,774,774,774,774,774,774,774,774,774,774,774,774,774,774,774,774,774,774,783,826,898,933,957,976,995,1012,1025,1059,1071,1077,1079,1083,1106,1120,1134,1138,1138,1138],"ymouse":[561,561,561,561,561,561,561,561,561,561,561,561,561,561,561,561,561,561,561,561,561,561,561,561,561,561,561,561,561,561,561,561,561,561,561,561,561,561,561,561,561,561,561,564,567,575,578,580,580,580,581,585,587,589,591,599,604,609,616,619,622,622,622,622,622,622,622,622,622,622,622,622,622,622,622,622,622,622,622,622,622,622,622,622,622,622,622,622,622,622,622,622,622,622,622,622,622,622,622,622,622,622,622,622,622,622,622,622,622,622,622,622,622,622,622,622,622,622,622,622,622,622,622,622,622,622,622,622,622,622,622,622,622,622,622,622,622,622,622,622,622,622,622,622,622,622,622,622,622,622,622,622,622,622,622,622,622,622,622,622,622,622,622,622,622,622,622,622,622,622,622,622,622,622,622,622,622,622,622,622,622,622,622,622,622,622,622,618,605,536,520,520,520,520,522,541,567,594,613,629,629,630,630,631,640,644,645,645,643,624,608,600,592,587,577,570,566,564,564,563,563,563,563,563,565,567,567,567,567,567,567,567,567,567,567,567,567,567,567,567,567,567,567,567,567,567,567,567,567,567,567,567,567,567,567,567,567,567,567,567,567,562,543,507,476,417,376,335,306,282,240,226,221,218,212,181,160,137,123,112,91],"timestamp_mouse":[16,37,57,77,96,116,137,156,176,196,216,236,256,277,296,316,336,356,376,397,416,438,456,476,496,516,536,557,576,598,616,636,656,677,697,716,736,756,778,797,817,837,856,877,897,916,936,956,978,996,1017,1037,1056,1078,1096,1116,1137,1156,1177,1196,1216,1237,1257,1276,1296,1317,1336,1357,1376,1396,1416,1436,1456,1476,1496,1517,1536,1557,1576,1597,1616,1636,1656,1676,1696,1716,1736,1756,1776,1797,1816,1836,1856,1876,1897,1916,1936,1956,1976,1997,2016,2036,2056,2076,2097,2117,2136,2156,2176,2196,2216,2236,2256,2277,2296,2316,2337,2356,2377,2397,2417,2436,2456,2476,2497,2516,2536,2556,2577,2597,2617,2636,2656,2676,2697,2716,2736,2756,2776,2796,2816,2836,2856,2876,2897,2917,2937,2957,2976,2997,3016,3036,3057,3076,3097,3117,3136,3156,3176,3196,3217,3236,3256,3276,3296,3316,3337,3357,3376,3396,3417,3437,3456,3477,3497,3517,3537,3556,3577,3598,3617,3637,3657,3676,3698,3717,3736,3757,3777,3797,3817,3837,3856,3876,3897,3916,3936,3957,3976,3998,4016,4037,4057,4076,4097,4116,4136,4157,4176,4197,4216,4236,4256,4276,4297,4316,4337,4356,4376,4397,4417,4436,4457,4477,4496,4516,4537,4556,4577,4596,4616,4636,4656,4677,4696,4716,4736,4756,4776,4797,4816,4836,4858,4877,4897,4916,4937,4957,4976,4997,5017,5036,5056,5077,5096,5116,5136,5157,5176,5197,5217,5236,5256,5277,5296,5317,5337,5357,5378,5397,5417,5437,5456,5476,5497,5516,5537,5556,5577,5596,5617],"xSR":741.5,"ySR":501.8,"xT1":424.9,"yT1":0,"xT2":1058.1,"yT2":0,"toosoon":0,"cond_shown":"equaldotsize","ratio_trial":250,"smaller_num":"4","larger_num":"16","correct_side":1,"subjID":"samuelespinosacortes24","gender":"0","age":"11","school":"6","test":{"fix_dur":[250,1500],"timestim":300,"targets_dim":[100,100],"targets_relative_coord":[0.3,0.7],"size_stim":[880,420],"start_dim":[100,100],"size_start":[300,300],"size_fix":60,"samplingrate":20,"img_types":["equaldotsize","equaldotanddens","randomdotsizeEA"],"ratios":[250,500,750,900],"rep_conds":9,"nTrials":120,"trials_to_rest":500,"Trials_order":[48,25,89,103,14,101,91,60,2,18,9,64,90,15,53,98,83,52,96,27,35,115,0,116,50,119,3,67,57,6,56,93,62,117,68,40,78,66,55,100,7,38,77,47,105,28,13,111,95,109,26,12,97,80,75,76,107,46,1,32,10,21,63,16,94,82,39,31,59,43,11,112,65,33,71,42,118,23,36,30,106,19,24,72,61,88,37,70,54,20,87,58,84,29,73,4,51,45,85,34,69,99,5,81,22,108,8,110,17,102,74,44,41,92,113,79,86,49,114,104],"cond_shown":["equaldotsize","equaldotanddens","randomdotsizeEA","equaldotanddens","randomdotsizeEA","randomdotsizeEA","equaldotanddens","equaldotsize","randomdotsizeEA","equaldotsize","equaldotsize","equaldotanddens","equaldotsize","equaldotsize","randomdotsizeEA","randomdotsizeEA","randomdotsizeEA","equaldotanddens","equaldotsize","equaldotsize","randomdotsizeEA","equaldotanddens","equaldotsize","randomdotsizeEA","randomdotsizeEA","randomdotsizeEA","equaldotsize","equaldotanddens","equaldotsize","equaldotsize","randomdotsizeEA","equaldotsize","randomdotsizeEA","equaldotsize","randomdotsizeEA","equaldotanddens","equaldotsize","equaldotsize","equaldotanddens","equaldotanddens","equaldotanddens","randomdotsizeEA","randomdotsizeEA","randomdotsizeEA","equaldotsize","equaldotanddens","equaldotanddens","equaldotsize","randomdotsizeEA","equaldotanddens","randomdotsizeEA","equaldotsize","equaldotanddens","randomdotsizeEA","equaldotsize","equaldotanddens","randomdotsizeEA","equaldotanddens","equaldotanddens","randomdotsizeEA","equaldotanddens","equaldotsize","equaldotsize","equaldotanddens","equaldotanddens","equaldotanddens","equaldotsize","equaldotanddens","randomdotsizeEA","equaldotanddens","randomdotsizeEA","equaldotanddens","randomdotsizeEA","equaldotsize","randomdotsizeEA","equaldotsize","equaldotanddens","randomdotsizeEA","equaldotsize","equaldotsize","equaldotanddens","equaldotanddens","equaldotsize","equaldotsize","equaldotanddens","equaldotanddens","equaldotanddens","equaldotanddens","equaldotsize","randomdotsizeEA","equaldotsize","equaldotanddens","equaldotsize","randomdotsizeEA","equaldotanddens","equaldotanddens","equaldotsize","equaldotsize","equaldotanddens","equaldotanddens","equaldotsize","equaldotsize","randomdotsizeEA","equaldotsize","equaldotanddens","equaldotsize","randomdotsizeEA","randomdotsizeEA","randomdotsizeEA","equaldotsize","randomdotsizeEA","randomdotsizeEA","randomdotsizeEA","randomdotsizeEA","randomdotsizeEA","equaldotanddens","randomdotsizeEA","equaldotanddens","equaldotsize","randomdotsizeEA"],"ratio_trial":[250,250,500,750,250,500,750,250,250,750,900,500,750,500,500,250,900,500,250,500,900,750,250,750,250,900,500,750,900,750,750,900,250,900,750,500,750,750,750,500,750,250,500,900,900,500,250,500,900,250,250,250,250,750,500,500,900,900,250,750,900,900,500,500,900,900,500,750,900,750,900,500,500,900,900,750,900,900,250,750,900,750,250,250,250,500,250,900,750,750,500,900,250,500,250,500,500,900,250,900,900,500,500,900,900,250,750,250,500,750,250,750,500,750,500,750,250,250,750,750],"smaller_num":["4","3","3","6","2","2","3","4","3","15","9","10","15","6","2","5","18","5","2","5","9","15","6","6","4","9","2","15","18","18","6","18","3","18","15","6","3","3","15","10","3","3","9","9","9","10","3","9","18","6","4","2","3","3","1","2","9","9","2","3","9","18","4","1","18","9","5","6","9","3","9","9","9","9","18","6","9","18","2","15","18","9","2","6","2","4","3","18","3","3","3","18","5","2","2","10","6","18","3","18","9","6","2","18","18","6","3","6","1","6","3","3","5","9","3","3","4","2","15","6"],"larger_num":["16","12","6","8","8","4","4","16","12","20","10","20","20","12","4","20","20","10","8","10","10","20","24","8","16","10","4","20","20","24","8","20","12","20","20","12","4","4","20","20","4","12","18","10","10","20","12","18","20","24","16","8","12","4","2","4","10","10","8","4","10","20","8","2","20","10","10","8","10","4","10","18","18","10","20","8","10","20","8","20","20","12","8","24","8","8","12","20","4","4","6","20","20","4","8","20","12","20","12","20","10","12","4","20","20","24","4","24","2","8","12","4","10","12","6","4","16","8","20","8"],"correct_side":[1,2,2,2,1,1,2,2,1,2,2,2,1,1,2,2,1,2,1,2,2,2,1,2,1,2,1,2,2,1,1,2,1,1,2,1,1,2,2,2,2,2,1,1,2,2,1,1,1,1,1,1,2,2,2,1,2,2,1,1,2,2,1,2,2,2,2,1,2,2,2,2,2,2,2,2,1,2,1,2,1,2,1,1,1,1,1,2,1,1,2,1,2,2,1,2,1,1,1,1,1,1,1,2,2,1,2,1,2,2,1,2,1,2,2,2,1,2,2,1],"img_shown":["img/250/equaldotsize/L/2_Ratio_250_L_16_R_4.png","img/250/equaldotanddens/R/4_Ratio_250_L_3_R_12.png","img/500/randomdotsizeEA/R/2_Ratio_500_L_3_R_6.png","img/750/equaldotanddens/R/2_Ratio_750_L_6_R_8.png","img/250/randomdotsizeEA/L/1_Ratio_250_L_8_R_2.png","img/500/randomdotsizeEA/L/5_Ratio_500_L_4_R_2.png","img/750/equaldotanddens/R/12_Ratio_750_L_3_R_4.png","img/250/equaldotsize/R/10_Ratio_250_L_4_R_16.png","img/250/randomdotsizeEA/L/14_Ratio_250_L_12_R_3.png","img/750/equaldotsize/R/4_Ratio_750_L_15_R_20.png","img/900/equaldotsize/R/15_Ratio_900_L_9_R_10.png","img/500/equaldotanddens/R/3_Ratio_500_L_10_R_20.png","img/750/equaldotsize/L/1_Ratio_750_L_20_R_15.png","img/500/equaldotsize/L/13_Ratio_500_L_12_R_6.png","img/500/randomdotsizeEA/R/9_Ratio_500_L_2_R_4.png","img/250/randomdotsizeEA/R/12_Ratio_250_L_5_R_20.png","img/900/randomdotsizeEA/L/2_Ratio_900_L_20_R_18.png","img/500/equaldotanddens/R/14_Ratio_500_L_5_R_10.png","img/250/equaldotsize/L/1_Ratio_250_L_8_R_2.png","img/500/equaldotsize/R/14_Ratio_500_L_5_R_10.png","img/900/randomdotsizeEA/R/3_Ratio_900_L_9_R_10.png","img/750/equaldotanddens/R/4_Ratio_750_L_15_R_20.png","img/250/equaldotsize/L/5_Ratio_250_L_24_R_6.png","img/750/randomdotsizeEA/R/2_Ratio_750_L_6_R_8.png","img/250/randomdotsizeEA/L/2_Ratio_250_L_16_R_4.png","img/900/randomdotsizeEA/R/15_Ratio_900_L_9_R_10.png","img/500/equaldotsize/L/5_Ratio_500_L_4_R_2.png","img/750/equaldotanddens/R/5_Ratio_750_L_15_R_20.png","img/900/equaldotsize/R/14_Ratio_900_L_18_R_20.png","img/750/equaldotsize/L/6_Ratio_750_L_24_R_18.png","img/750/randomdotsizeEA/L/14_Ratio_750_L_8_R_6.png","img/900/equaldotsize/R/9_Ratio_900_L_18_R_20.png","img/250/randomdotsizeEA/L/14_Ratio_250_L_12_R_3.png","img/900/equaldotsize/L/2_Ratio_900_L_20_R_18.png","img/750/randomdotsizeEA/R/4_Ratio_750_L_15_R_20.png","img/500/equaldotanddens/L/11_Ratio_500_L_12_R_6.png","img/750/equaldotsize/L/10_Ratio_750_L_4_R_3.png","img/750/equaldotsize/R/7_Ratio_750_L_3_R_4.png","img/750/equaldotanddens/R/4_Ratio_750_L_15_R_20.png","img/500/equaldotanddens/R/3_Ratio_500_L_10_R_20.png","img/750/equaldotanddens/R/12_Ratio_750_L_3_R_4.png","img/250/randomdotsizeEA/R/11_Ratio_250_L_3_R_12.png","img/500/randomdotsizeEA/L/4_Ratio_500_L_18_R_9.png","img/900/randomdotsizeEA/L/1_Ratio_900_L_10_R_9.png","img/900/equaldotsize/R/6_Ratio_900_L_9_R_10.png","img/500/equaldotanddens/R/3_Ratio_500_L_10_R_20.png","img/250/equaldotanddens/L/15_Ratio_250_L_12_R_3.png","img/500/equaldotsize/L/4_Ratio_500_L_18_R_9.png","img/900/randomdotsizeEA/L/8_Ratio_900_L_20_R_18.png","img/250/equaldotanddens/L/5_Ratio_250_L_24_R_6.png","img/250/randomdotsizeEA/L/2_Ratio_250_L_16_R_4.png","img/250/equaldotsize/L/1_Ratio_250_L_8_R_2.png","img/250/equaldotanddens/R/4_Ratio_250_L_3_R_12.png","img/750/randomdotsizeEA/R/7_Ratio_750_L_3_R_4.png","img/500/equaldotsize/R/12_Ratio_500_L_1_R_2.png","img/500/equaldotanddens/L/10_Ratio_500_L_4_R_2.png","img/900/randomdotsizeEA/R/15_Ratio_900_L_9_R_10.png","img/900/equaldotanddens/R/5_Ratio_900_L_9_R_10.png","img/250/equaldotanddens/L/7_Ratio_250_L_8_R_2.png","img/750/randomdotsizeEA/L/9_Ratio_750_L_4_R_3.png","img/900/equaldotanddens/R/5_Ratio_900_L_9_R_10.png","img/900/equaldotsize/R/11_Ratio_900_L_18_R_20.png","img/500/equaldotsize/L/8_Ratio_500_L_8_R_4.png","img/500/equaldotanddens/R/15_Ratio_500_L_1_R_2.png","img/900/equaldotanddens/R/14_Ratio_900_L_18_R_20.png","img/900/equaldotanddens/R/3_Ratio_900_L_9_R_10.png","img/500/equaldotsize/R/14_Ratio_500_L_5_R_10.png","img/750/equaldotanddens/L/14_Ratio_750_L_8_R_6.png","img/900/randomdotsizeEA/R/6_Ratio_900_L_9_R_10.png","img/750/equaldotanddens/R/7_Ratio_750_L_3_R_4.png","img/900/randomdotsizeEA/R/3_Ratio_900_L_9_R_10.png","img/500/equaldotanddens/R/1_Ratio_500_L_9_R_18.png","img/500/randomdotsizeEA/R/6_Ratio_500_L_9_R_18.png","img/900/equaldotsize/R/7_Ratio_900_L_9_R_10.png","img/900/randomdotsizeEA/R/12_Ratio_900_L_18_R_20.png","img/750/equaldotsize/R/2_Ratio_750_L_6_R_8.png","img/900/equaldotanddens/L/1_Ratio_900_L_10_R_9.png","img/900/randomdotsizeEA/R/11_Ratio_900_L_18_R_20.png","img/250/equaldotsize/L/3_Ratio_250_L_8_R_2.png","img/750/equaldotsize/R/5_Ratio_750_L_15_R_20.png","img/900/equaldotanddens/L/10_Ratio_900_L_20_R_18.png","img/750/equaldotanddens/R/15_Ratio_750_L_9_R_12.png","img/250/equaldotsize/L/1_Ratio_250_L_8_R_2.png","img/250/equaldotsize/L/5_Ratio_250_L_24_R_6.png","img/250/equaldotanddens/L/7_Ratio_250_L_8_R_2.png","img/500/equaldotanddens/L/8_Ratio_500_L_8_R_4.png","img/250/equaldotanddens/L/14_Ratio_250_L_12_R_3.png","img/900/equaldotanddens/R/14_Ratio_900_L_18_R_20.png","img/750/equaldotsize/L/8_Ratio_750_L_4_R_3.png","img/750/randomdotsizeEA/L/8_Ratio_750_L_4_R_3.png","img/500/equaldotsize/R/2_Ratio_500_L_3_R_6.png","img/900/equaldotanddens/L/4_Ratio_900_L_20_R_18.png","img/250/equaldotsize/R/12_Ratio_250_L_5_R_20.png","img/500/randomdotsizeEA/R/9_Ratio_500_L_2_R_4.png","img/250/equaldotanddens/L/7_Ratio_250_L_8_R_2.png","img/500/equaldotanddens/R/3_Ratio_500_L_10_R_20.png","img/500/equaldotsize/L/13_Ratio_500_L_12_R_6.png","img/900/equaldotsize/L/10_Ratio_900_L_20_R_18.png","img/250/equaldotanddens/L/15_Ratio_250_L_12_R_3.png","img/900/equaldotanddens/L/4_Ratio_900_L_20_R_18.png","img/900/equaldotsize/L/1_Ratio_900_L_10_R_9.png","img/500/equaldotsize/L/11_Ratio_500_L_12_R_6.png","img/500/randomdotsizeEA/L/5_Ratio_500_L_4_R_2.png","img/900/equaldotsize/R/12_Ratio_900_L_18_R_20.png","img/900/equaldotanddens/R/14_Ratio_900_L_18_R_20.png","img/250/equaldotsize/L/5_Ratio_250_L_24_R_6.png","img/750/randomdotsizeEA/R/7_Ratio_750_L_3_R_4.png","img/250/randomdotsizeEA/L/5_Ratio_250_L_24_R_6.png","img/500/randomdotsizeEA/R/12_Ratio_500_L_1_R_2.png","img/750/equaldotsize/R/2_Ratio_750_L_6_R_8.png","img/250/randomdotsizeEA/L/14_Ratio_250_L_12_R_3.png","img/750/randomdotsizeEA/R/7_Ratio_750_L_3_R_4.png","img/500/randomdotsizeEA/L/7_Ratio_500_L_10_R_5.png","img/750/randomdotsizeEA/R/15_Ratio_750_L_9_R_12.png","img/500/randomdotsizeEA/R/2_Ratio_500_L_3_R_6.png","img/750/equaldotanddens/R/12_Ratio_750_L_3_R_4.png","img/250/randomdotsizeEA/L/2_Ratio_250_L_16_R_4.png","img/250/equaldotanddens/R/13_Ratio_250_L_2_R_8.png","img/750/equaldotsize/R/3_Ratio_750_L_15_R_20.png","img/750/randomdotsizeEA/L/14_Ratio_750_L_8_R_6.png"],"Rat0":[["12_Ratio_0_L_9_R_0.png","13_Ratio_0_L_6_R_0.png","5_Ratio_0_L_2_R_0.png","6_Ratio_0_L_4_R_0.png","8_Ratio_0_L_6_R_0.png"],["1_Ratio_0_L_0_R_17.png","10_Ratio_0_L_0_R_22.png","11_Ratio_0_L_0_R_1.png","14_Ratio_0_L_0_R_24.png","15_Ratio_0_L_0_R_4.png","2_Ratio_0_L_0_R_5.png","3_Ratio_0_L_0_R_17.png","4_Ratio_0_L_0_R_7.png","7_Ratio_0_L_0_R_19.png","9_Ratio_0_L_0_R_15.png"]],"Rat250":[["1_Ratio_250_L_8_R_2.png","14_Ratio_250_L_12_R_3.png","15_Ratio_250_L_12_R_3.png","2_Ratio_250_L_16_R_4.png","3_Ratio_250_L_8_R_2.png","5_Ratio_250_L_24_R_6.png","7_Ratio_250_L_8_R_2.png"],["10_Ratio_250_L_4_R_16.png","11_Ratio_250_L_3_R_12.png","12_Ratio_250_L_5_R_20.png","13_Ratio_250_L_2_R_8.png","4_Ratio_250_L_3_R_12.png","6_Ratio_250_L_6_R_24.png","8_Ratio_250_L_1_R_4.png","9_Ratio_250_L_3_R_12.png"]],"Rat500":[["10_Ratio_500_L_4_R_2.png","11_Ratio_500_L_12_R_6.png","13_Ratio_500_L_12_R_6.png","4_Ratio_500_L_18_R_9.png","5_Ratio_500_L_4_R_2.png","7_Ratio_500_L_10_R_5.png","8_Ratio_500_L_8_R_4.png"],["1_Ratio_500_L_9_R_18.png","12_Ratio_500_L_1_R_2.png","14_Ratio_500_L_5_R_10.png","15_Ratio_500_L_1_R_2.png","2_Ratio_500_L_3_R_6.png","3_Ratio_500_L_10_R_20.png","6_Ratio_500_L_9_R_18.png","9_Ratio_500_L_2_R_4.png"]],"Rat750":[["1_Ratio_750_L_20_R_15.png","10_Ratio_750_L_4_R_3.png","13_Ratio_750_L_8_R_6.png","14_Ratio_750_L_8_R_6.png","6_Ratio_750_L_24_R_18.png","8_Ratio_750_L_4_R_3.png","9_Ratio_750_L_4_R_3.png"],["11_Ratio_750_L_12_R_16.png","12_Ratio_750_L_3_R_4.png","15_Ratio_750_L_9_R_12.png","2_Ratio_750_L_6_R_8.png","3_Ratio_750_L_15_R_20.png","4_Ratio_750_L_15_R_20.png","5_Ratio_750_L_15_R_20.png","7_Ratio_750_L_3_R_4.png"]],"Rat900":[["1_Ratio_900_L_10_R_9.png","10_Ratio_900_L_20_R_18.png","2_Ratio_900_L_20_R_18.png","4_Ratio_900_L_20_R_18.png","8_Ratio_900_L_20_R_18.png"],["11_Ratio_900_L_18_R_20.png","12_Ratio_900_L_18_R_20.png","13_Ratio_900_L_18_R_20.png","14_Ratio_900_L_18_R_20.png","15_Ratio_900_L_9_R_10.png","3_Ratio_900_L_9_R_10.png","5_Ratio_900_L_9_R_10.png","6_Ratio_900_L_9_R_10.png","7_Ratio_900_L_9_R_10.png","9_Ratio_900_L_18_R_20.png"]],"Rat1000":[["10_Ratio_1000_L_16_R_16.png","11_Ratio_1000_L_6_R_6.png","12_Ratio_1000_L_14_R_14.png","13_Ratio_1000_L_20_R_20.png","15_Ratio_1000_L_15_R_15.png","2_Ratio_1000_L_17_R_17.png","4_Ratio_1000_L_9_R_9.png","5_Ratio_1000_L_6_R_6.png","6_Ratio_1000_L_19_R_19.png","8_Ratio_1000_L_14_R_14.png","9_Ratio_1000_L_25_R_25.png"],["1_Ratio_1000_L_1_R_1.png","14_Ratio_1000_L_17_R_17.png","3_Ratio_1000_L_17_R_17.png","7_Ratio_1000_L_6_R_6.png"]]}},{"start_time":1551892961807,"click_time":1551892963234,"finger_time":1551892962915,"fix_duration":250,"trial":1,"RT":1108,"MT":319,"sideResp":2,"stimulus":"img/250/equaldotanddens/R/4_Ratio_250_L_3_R_12.png","xmouse":[758,758,758,758,758,758,758,758,758,758,758,758,758,758,758,758,758,758,758,758,758,758,758,758,758,758,758,758,758,758,758,758,758,758,758,757,756,756,756,756,756,756,756,756,756,756,756,756,756,756,756,756,756,755,767,793,829,901,918,933,952,978,1003,1029,1030,1032,1035,1045,1070,1079,1088,1096],"ymouse":[598,598,598,598,598,598,598,598,598,598,598,598,598,598,598,598,598,598,598,598,598,598,598,598,598,598,598,598,598,598,598,598,598,598,598,599,599,599,599,599,599,599,599,599,599,599,599,599,599,599,599,599,599,599,580,546,505,438,421,400,370,332,294,232,221,211,199,182,144,128,111,99],"timestamp_mouse":[9,40,47,67,87,107,127,147,168,188,207,227,248,267,289,307,327,347,367,388,408,427,449,467,488,507,527,547,568,589,607,628,648,667,688,708,728,748,767,787,808,827,847,867,888,907,927,947,967,988,1007,1027,1049,1067,1088,1108,1128,1148,1167,1187,1207,1228,1247,1267,1287,1307,1327,1347,1368,1387,1408,1427],"xSR":741.5,"ySR":573.95,"xT1":424.9,"yT1":0,"xT2":1058.1,"yT2":0,"toosoon":0,"cond_shown":"equaldotanddens","ratio_trial":250,"smaller_num":"3","larger_num":"12","correct_side":2,"subjID":"samuelespinosacortes24","gender":"0","age":"11","school":"6"},{"start_time":1551892964526,"click_time":1551892965574,"finger_time":1551892965214,"fix_duration":250,"trial":2,"RT":688,"MT":360,"sideResp":1,"stimulus":"img/500/randomdotsizeEA/R/2_Ratio_500_L_3_R_6.png","xmouse":[792,792,792,792,792,792,792,792,792,792,792,792,792,792,792,792,792,792,792,792,792,792,792,792,792,792,792,792,792,792,792,792,789,785,778,768,758,731,695,664,627,575,564,553,543,533,520,506,505,505,505,505,503],"ymouse":[592,592,592,592,592,592,592,592,592,592,592,592,592,592,592,592,592,592,592,592,592,592,592,592,592,592,592,592,592,592,592,592,591,579,562,543,519,453,371,298,209,81,43,9,0,0,0,0,0,0,0,0,2],"timestamp_mouse":[10,31,48,68,90,108,129,148,168,190,209,230,248,268,288,308,328,348,368,389,408,429,448,470,488,508,529,548,569,588,608,629,649,668,688,709,728,749,769,788,808,829,848,868,888,908,928,949,970,988,1008,1029,1048],"xSR":741.5,"ySR":573.95,"xT1":424.9,"yT1":0,"xT2":1058.1,"yT2":0,"toosoon":0,"cond_shown":"randomdotsizeEA","ratio_trial":500,"smaller_num":"3","larger_num":"6","correct_side":2,"subjID":"samuelespinosacortes24","gender":"0","age":"11","school":"6"},{"start_time":1551892967627,"click_time":1551892968994,"finger_time":1551892968455,"fix_duration":570.6064129446291,"trial":3,"RT":828,"MT":539,"sideResp":2,"stimulus":"img/750/equaldotanddens/R/2_Ratio_750_L_6_R_8.png","xmouse":[781,781,781,781,781,781,781,781,781,781,782,782,782,782,782,782,782,782,782,782,782,782,782,782,782,782,782,782,782,782,782,782,782,782,782,782,782,782,789,800,811,846,880,902,931,951,972,1002,1013,1022,1029,1041,1049,1053,1057,1061,1064,1067,1069,1072,1075,1077,1081,1082,1083,1086,1090,1096,1100],"ymouse":[629,629,629,629,629,629,629,629,629,629,629,629,629,629,629,629,629,629,629,629,629,629,629,629,629,629,629,629,629,629,629,629,629,629,629,629,629,629,625,615,605,578,555,539,515,489,459,394,365,339,315,271,242,227,213,201,191,179,174,170,165,161,148,144,142,136,128,108,95],"timestamp_mouse":[8,27,47,67,88,109,127,148,167,187,207,227,248,267,288,307,328,347,367,387,409,429,448,467,487,507,528,548,567,588,607,628,647,668,687,708,727,748,768,788,808,828,847,868,887,907,928,947,968,988,1007,1028,1047,1067,1087,1107,1128,1148,1167,1187,1207,1227,1249,1268,1289,1307,1328,1347,1367],"xSR":741.5,"ySR":573.95,"xT1":424.9,"yT1":0,"xT2":1058.1,"yT2":0,"toosoon":0,"cond_shown":"equaldotanddens","ratio_trial":750,"smaller_num":"6","larger_num":"8","correct_side":2,"subjID":"samuelespinosacortes24","gender":"0","age":"11","school":"6"},{"start_time":1551892972558,"click_time":1551892974154,"finger_time":1551892973294,"fix_duration":1002.031398255249,"trial":4,"RT":736,"MT":860,"sideResp":1,"stimulus":"img/250/randomdotsizeEA/L/1_Ratio_250_L_8_R_2.png","xmouse":[835,835,835,835,835,835,835,835,835,835,835,835,835,835,835,835,835,835,835,835,835,835,835,835,835,835,835,835,835,835,835,838,839,839,841,841,842,842,842,842,842,842,842,842,846,853,857,861,865,868,873,877,882,889,895,903,903,903,903,903,866,804,737,701,684,664,656,650,646,640,610,595,585,585,585,574,556,534,525,524],"ymouse":[627,627,624,623,623,623,623,623,623,623,623,623,623,623,623,623,623,623,623,623,623,623,623,623,623,623,623,623,623,623,623,616,614,609,598,595,593,593,593,593,593,593,593,591,582,573,563,555,547,542,536,526,513,502,490,479,479,479,479,479,452,401,306,237,185,108,87,73,63,52,16,1,0,0,0,4,11,18,20,21],"timestamp_mouse":[34,36,56,76,96,117,136,158,177,198,216,237,256,277,296,316,336,357,378,397,416,436,456,476,496,516,538,556,577,597,616,637,656,676,697,717,736,757,777,797,817,837,857,876,897,916,936,956,976,997,1017,1036,1056,1076,1097,1117,1136,1156,1177,1196,1216,1237,1256,1276,1296,1316,1336,1357,1376,1397,1416,1436,1457,1477,1497,1516,1536,1557,1577,1596],"xSR":741.5,"ySR":573.95,"xT1":424.9,"yT1":0,"xT2":1058.1,"yT2":0,"toosoon":0,"cond_shown":"randomdotsizeEA","ratio_trial":250,"smaller_num":"2","larger_num":"8","correct_side":1,"subjID":"samuelespinosacortes24","gender":"0","age":"11","school":"6"},{"start_time":1551892975707,"click_time":1551892977254,"finger_time":1551892976694,"fix_duration":250,"trial":5,"RT":987,"MT":560,"sideResp":1,"stimulus":"img/500/randomdotsizeEA/L/5_Ratio_500_L_4_R_2.png","xmouse":[753,753,753,753,753,753,753,753,753,753,753,753,753,753,753,753,753,753,753,753,753,753,753,753,753,753,753,753,753,753,753,753,753,753,753,753,753,753,753,753,753,753,753,753,753,753,753,753,744,716,675,633,594,550,543,536,531,529,529,529,529,529,529,529,529,529,529,529,529,529,529,529,529,529,529,529,526,516],"ymouse":[610,610,610,610,610,610,610,610,610,610,610,610,610,610,610,610,610,610,610,610,610,610,610,610,610,610,610,610,610,610,610,610,610,610,610,610,610,610,610,610,610,610,610,610,610,610,610,610,585,532,470,395,304,135,85,59,43,37,33,32,32,32,32,32,32,32,32,32,32,32,32,32,32,32,32,32,31,32],"timestamp_mouse":[12,38,48,68,88,107,127,147,169,187,207,227,247,267,287,307,328,348,367,388,408,427,447,467,487,507,527,549,567,588,608,627,647,668,687,707,727,747,768,788,808,827,847,867,888,907,927,949,967,987,1008,1027,1048,1068,1088,1108,1127,1149,1167,1187,1208,1229,1248,1267,1287,1308,1327,1348,1367,1388,1408,1427,1447,1467,1488,1508,1527,1547],"xSR":741.5,"ySR":573.95,"xT1":424.9,"yT1":0,"xT2":1058.1,"yT2":0,"toosoon":0,"cond_shown":"randomdotsizeEA","ratio_trial":500,"smaller_num":"2","larger_num":"4","correct_side":1,"subjID":"samuelespinosacortes24","gender":"0","age":"11","school":"6"},{"start_time":1551892979398,"click_time":1551892980795,"finger_time":1551892980375,"fix_duration":1261.6745227674032,"trial":6,"RT":977,"MT":420,"sideResp":2,"stimulus":"img/750/equaldotanddens/R/12_Ratio_750_L_3_R_4.png","xmouse":[773,773,773,773,773,773,773,773,773,773,773,773,773,773,773,773,773,773,773,773,773,773,773,773,773,773,773,773,773,773,773,773,773,773,773,773,773,773,773,773,773,773,773,773,773,773,773,780,786,797,816,852,913,999,1039,1069,1083,1096,1118,1130,1140,1147,1153,1159,1159,1159,1159,1159,1159,1158],"ymouse":[581,581,581,581,581,581,581,581,581,581,581,581,581,581,581,581,581,581,581,581,581,581,581,581,581,581,581,581,581,581,581,581,581,581,581,581,581,581,581,581,581,581,581,581,581,581,582,577,571,564,549,523,481,408,372,341,319,294,241,214,189,167,148,118,110,106,103,101,99,95],"timestamp_mouse":[16,37,56,76,97,117,136,156,176,196,216,237,256,277,296,316,338,356,376,396,416,437,456,477,496,516,537,556,577,596,617,637,656,677,696,717,738,756,777,796,817,836,857,877,896,917,937,957,977,997,1017,1036,1056,1076,1097,1116,1136,1157,1176,1196,1217,1237,1256,1277,1296,1316,1336,1357,1377,1397],"xSR":741.5,"ySR":573.95,"xT1":424.9,"yT1":0,"xT2":1058.1,"yT2":0,"toosoon":0,"cond_shown":"equaldotanddens","ratio_trial":750,"smaller_num":"3","larger_num":"4","correct_side":2,"subjID":"samuelespinosacortes24","gender":"0","age":"11","school":"6"},{"start_time":1551892984248,"click_time":1551892985375,"finger_time":1551892984875,"fix_duration":732.4184056767283,"trial":7,"RT":627,"MT":500,"sideResp":2,"stimulus":"img/250/equaldotsize/R/10_Ratio_250_L_4_R_16.png","xmouse":[764,764,764,764,764,764,764,764,764,764,764,764,764,764,764,764,764,764,764,764,764,764,764,764,764,764,764,764,764,766,784,817,849,874,887,897,914,933,956,974,989,1012,1018,1026,1036,1046,1066,1075,1079,1081,1083,1092,1099,1102,1105,1107,1111],"ymouse":[628,628,628,628,628,628,628,628,628,628,628,628,628,628,628,628,628,628,628,628,628,628,628,628,628,628,628,628,628,620,591,555,522,490,467,444,395,360,323,297,281,253,238,219,201,187,164,156,151,148,144,128,119,115,110,108,99],"timestamp_mouse":[10,40,46,66,87,106,126,146,166,186,207,227,246,266,286,306,327,348,366,386,406,427,446,467,486,506,527,547,566,586,607,627,647,667,687,707,727,748,767,786,806,827,846,866,887,907,926,946,966,986,1007,1028,1046,1066,1087,1106,1127],"xSR":741.5,"ySR":573.95,"xT1":424.9,"yT1":0,"xT2":1058.1,"yT2":0,"toosoon":0,"cond_shown":"equaldotsize","ratio_trial":250,"smaller_num":"4","larger_num":"16","correct_side":2,"subjID":"samuelespinosacortes24","gender":"0","age":"11","school":"6"},{"start_time":1551892988382,"click_time":1551892989956,"finger_time":1551892988974,"fix_duration":1286.0377877135895,"trial":8,"RT":592,"MT":982,"sideResp":1,"stimulus":"img/250/randomdotsizeEA/L/14_Ratio_250_L_12_R_3.png","xmouse":[784,784,784,784,784,784,784,784,784,784,784,784,784,784,784,784,784,784,784,784,784,784,784,784,784,784,786,792,813,856,862,867,872,882,916,931,949,987,1052,1187,1235,1261,1273,1277,1279,1277,1266,1244,1135,1064,986,896,794,592,461,387,343,330,330,329,329,328,326,325,323,328,333,338,343,353,355,359,365,370,401,413,420,422,426],"ymouse":[609,609,609,609,609,609,609,609,609,609,609,609,609,609,609,609,609,609,609,609,609,609,609,609,609,609,608,605,585,544,537,532,526,519,506,501,496,484,456,380,342,314,296,285,277,273,263,245,174,141,108,73,35,0,0,0,0,0,0,0,4,9,12,17,26,34,39,43,45,46,46,45,44,43,45,53,64,75,83],"timestamp_mouse":[12,37,52,73,92,112,133,154,172,193,213,232,253,272,293,313,332,352,374,392,412,434,452,472,492,514,532,552,572,592,612,632,653,673,692,712,733,752,772,792,812,832,852,872,892,912,933,952,973,993,1012,1032,1053,1074,1092,1112,1132,1153,1173,1192,1213,1232,1253,1272,1293,1312,1332,1352,1372,1395,1412,1433,1452,1472,1492,1513,1533,1552,1573],"xSR":741.5,"ySR":573.95,"xT1":424.9,"yT1":0,"xT2":1058.1,"yT2":0,"toosoon":0,"cond_shown":"randomdotsizeEA","ratio_trial":250,"smaller_num":"3","larger_num":"12","correct_side":1,"subjID":"samuelespinosacortes24","gender":"0","age":"11","school":"6"},{"start_time":1551892991656,"click_time":1551892992535,"finger_time":1551892992295,"fix_duration":680.0874757459455,"trial":9,"RT":639,"MT":240,"sideResp":2,"stimulus":"img/750/equaldotsize/R/4_Ratio_750_L_15_R_20.png","xmouse":[787,787,787,787,787,787,787,787,787,787,787,787,787,787,787,787,787,787,787,787,787,787,787,787,787,787,787,787,787,797,826,843,857,867,870,883,893,907,930,965,1043,1051,1054,1059],"ymouse":[621,621,621,621,621,621,621,621,621,621,621,621,621,621,621,621,621,621,621,621,621,621,621,621,621,621,621,621,621,618,599,579,546,517,493,444,410,361,299,238,128,109,97,89],"timestamp_mouse":[18,40,58,78,98,118,138,158,178,199,218,239,260,279,299,319,339,358,378,398,418,438,458,479,500,518,539,558,578,600,618,639,658,679,698,719,738,759,778,798,818,838,858,879],"xSR":741.5,"ySR":573.95,"xT1":424.9,"yT1":0,"xT2":1058.1,"yT2":0,"toosoon":0,"cond_shown":"equaldotsize","ratio_trial":750,"smaller_num":"15","larger_num":"20","correct_side":2,"subjID":"samuelespinosacortes24","gender":"0","age":"11","school":"6"},{"start_time":1551892994383,"click_time":1551892995536,"finger_time":1551892995135,"fix_duration":706.0435724564428,"trial":10,"RT":752,"MT":401,"sideResp":1,"stimulus":"img/900/equaldotsize/R/15_Ratio_900_L_9_R_10.png","xmouse":[767,767,767,767,767,767,767,767,767,767,767,767,767,767,767,767,767,767,767,767,767,767,767,767,767,767,767,767,767,767,767,767,767,767,758,751,749,748,744,726,719,714,712,712,707,705,702,699,694,689,687,680,659,616,543,520,513,508],"ymouse":[609,609,609,609,609,609,609,609,609,609,609,609,609,609,609,609,609,609,609,609,609,609,609,609,609,609,609,609,609,609,609,609,609,609,591,580,575,570,565,539,527,511,492,472,445,437,431,421,409,384,372,351,311,248,151,121,107,95],"timestamp_mouse":[12,31,51,71,91,111,132,152,171,192,212,232,252,271,292,312,331,351,371,391,412,432,451,471,492,512,531,552,573,592,611,631,652,672,692,711,732,752,771,791,811,832,851,871,892,911,931,952,971,992,1011,1032,1052,1072,1092,1112,1133,1153],"xSR":741.5,"ySR":573.95,"xT1":424.9,"yT1":0,"xT2":1058.1,"yT2":0,"toosoon":0,"cond_shown":"equaldotsize","ratio_trial":900,"smaller_num":"9","larger_num":"10","correct_side":2,"subjID":"samuelespinosacortes24","gender":"0","age":"11","school":"6"},{"start_time":1551892999114,"click_time":1551893000255,"finger_time":1551892999775,"fix_duration":1138.7545361559023,"trial":11,"RT":661,"MT":480,"sideResp":2,"stimulus":"img/500/equaldotanddens/R/3_Ratio_500_L_10_R_20.png","xmouse":[795,795,795,795,795,795,795,795,795,795,795,795,795,795,795,795,795,795,795,795,795,795,795,795,795,795,795,795,795,795,795,795,804,860,896,928,948,958,984,999,1010,1022,1030,1043,1047,1048,1048,1048,1048,1048,1048,1048,1048,1048,1048,1048,1051,1063],"ymouse":[627,627,627,627,627,627,627,627,627,627,627,627,627,627,627,627,627,627,627,627,627,627,627,627,627,627,627,627,627,627,627,627,624,581,531,471,413,360,212,153,115,84,67,40,36,34,33,33,33,33,33,33,33,33,33,35,43,61],"timestamp_mouse":[9,22,41,60,80,100,121,141,160,180,200,220,241,261,281,300,320,340,361,381,400,420,440,461,480,501,520,540,561,580,600,621,640,661,681,700,722,740,760,780,801,820,840,861,880,901,921,942,961,980,1001,1020,1040,1060,1080,1102,1121,1141],"xSR":741.5,"ySR":573.95,"xT1":424.9,"yT1":0,"xT2":1058.1,"yT2":0,"toosoon":0,"cond_shown":"equaldotanddens","ratio_trial":500,"smaller_num":"10","larger_num":"20","correct_side":2,"subjID":"samuelespinosacortes24","gender":"0","age":"11","school":"6"},{"start_time":1551893001412,"click_time":1551893002214,"finger_time":1551893002075,"fix_duration":337.0085999103317,"trial":12,"RT":663,"MT":139,"sideResp":1,"stimulus":"img/750/equaldotsize/L/1_Ratio_750_L_20_R_15.png","xmouse":[799,799,799,799,799,799,799,799,799,799,799,799,799,799,799,799,799,799,799,799,799,799,799,799,799,799,799,799,799,799,799,799,797,781,769,749,722,673,556,491,435],"ymouse":[599,599,599,599,599,599,599,599,599,599,599,599,599,599,599,599,599,599,599,599,599,599,599,599,599,599,599,599,599,599,599,599,599,553,524,485,435,374,217,135,54],"timestamp_mouse":[12,22,43,62,82,102,122,143,162,182,203,223,242,262,282,302,322,342,363,383,403,422,442,464,482,502,522,543,563,582,603,622,642,663,682,702,722,742,763,782,802],"xSR":741.5,"ySR":573.95,"xT1":424.9,"yT1":0,"xT2":1058.1,"yT2":0,"toosoon":0,"cond_shown":"equaldotsize","ratio_trial":750,"smaller_num":"15","larger_num":"20","correct_side":1,"subjID":"samuelespinosacortes24","gender":"0","age":"11","school":"6"},{"start_time":1551893004418,"click_time":1551893005375,"finger_time":1551893004895,"fix_duration":1282.4033133264597,"trial":13,"RT":477,"MT":480,"sideResp":1,"stimulus":"img/500/equaldotsize/L/13_Ratio_500_L_12_R_6.png","xmouse":[822,822,822,822,818,817,813,808,808,808,808,808,808,808,808,808,802,800,800,800,798,794,747,719,691,667,653,638,634,631,631,617,598,597,596,596,596,596,596,595,586,574,558,558,558,558,539,520],"ymouse":[629,629,629,629,628,627,625,621,621,621,621,621,621,621,621,621,621,622,622,622,622,622,593,568,529,467,398,274,221,173,129,83,37,34,32,32,31,31,31,31,32,33,33,33,33,33,41,50],"timestamp_mouse":[16,37,56,76,96,116,137,157,177,196,216,237,256,276,297,317,337,356,377,397,416,437,457,477,497,517,537,557,577,597,616,637,656,676,696,716,737,756,776,796,816,837,857,877,896,916,937,957],"xSR":741.5,"ySR":573.95,"xT1":424.9,"yT1":0,"xT2":1058.1,"yT2":0,"toosoon":0,"cond_shown":"equaldotsize","ratio_trial":500,"smaller_num":"6","larger_num":"12","correct_side":1,"subjID":"samuelespinosacortes24","gender":"0","age":"11","school":"6"},{"start_time":1551893007673,"click_time":1551893008694,"finger_time":1551893008234,"fix_duration":1077.867209454461,"trial":14,"RT":561,"MT":460,"sideResp":2,"stimulus":"img/500/randomdotsizeEA/R/9_Ratio_500_L_2_R_4.png","xmouse":[762,762,762,762,762,762,762,762,762,762,762,762,762,762,762,762,762,762,762,762,762,762,762,762,762,762,757,742,725,719,722,738,764,824,896,1053,1100,1119,1138,1153,1181,1188,1191,1195,1198,1206,1206,1203,1194,1160,1122,1100],"ymouse":[608,607,607,607,607,607,607,607,607,607,607,607,607,607,607,607,607,607,607,607,607,607,607,607,607,607,597,582,571,563,560,552,543,535,518,472,453,442,431,423,406,399,391,377,353,301,278,263,245,194,128,79],"timestamp_mouse":[11,34,41,61,82,102,122,142,161,181,201,222,241,261,282,301,322,341,362,381,402,421,442,461,481,502,522,542,561,582,601,621,642,661,681,702,721,741,762,781,802,822,841,861,881,902,921,942,961,982,1001,1021],"xSR":741.5,"ySR":573.95,"xT1":424.9,"yT1":0,"xT2":1058.1,"yT2":0,"toosoon":0,"cond_shown":"randomdotsizeEA","ratio_trial":500,"smaller_num":"2","larger_num":"4","correct_side":2,"subjID":"samuelespinosacortes24","gender":"0","age":"11","school":"6"},{"start_time":1551893010152,"click_time":1551893011134,"finger_time":1551893010755,"fix_duration":534.5254918072678,"trial":15,"RT":603,"MT":379,"sideResp":2,"stimulus":"img/250/randomdotsizeEA/R/12_Ratio_250_L_5_R_20.png","xmouse":[775,775,775,775,775,775,775,775,775,775,775,775,775,775,775,775,775,775,775,775,775,775,775,775,775,775,775,775,775,778,843,928,1024,1090,1125,1152,1163,1165,1166,1167,1168,1169,1166,1163,1158,1149,1136,1133,1132,1132],"ymouse":[607,607,607,607,607,607,607,607,607,607,607,607,607,607,607,607,607,607,607,607,607,607,607,607,607,607,607,607,607,605,558,490,419,372,341,314,285,273,265,256,245,217,203,188,170,149,110,102,100,98],"timestamp_mouse":[8,22,47,62,82,102,123,143,162,184,203,222,243,262,282,302,322,342,362,383,402,422,442,462,483,502,523,542,562,582,603,622,643,662,682,702,722,742,762,783,802,823,843,862,883,902,922,943,962,982],"xSR":741.5,"ySR":573.95,"xT1":424.9,"yT1":0,"xT2":1058.1,"yT2":0,"toosoon":0,"cond_shown":"randomdotsizeEA","ratio_trial":250,"smaller_num":"5","larger_num":"20","correct_side":2,"subjID":"samuelespinosacortes24","gender":"0","age":"11","school":"6"},{"start_time":1551893012425,"click_time":1551893013477,"finger_time":1551893012978,"fix_duration":565.4176264282603,"trial":16,"RT":553,"MT":499,"sideResp":1,"stimulus":"img/900/randomdotsizeEA/L/2_Ratio_900_L_20_R_18.png","xmouse":[793,793,793,793,793,793,793,793,793,793,793,793,793,793,793,793,793,793,794,796,796,796,796,796,796,792,783,761,750,740,732,726,706,698,689,676,662,633,614,603,595,593,593,591,586,581,580,580,579,577,571,543,516],"ymouse":[619,619,619,619,619,619,619,619,619,619,619,619,619,619,619,619,619,619,619,619,619,619,619,619,615,604,587,552,533,516,502,487,451,432,411,378,341,271,237,216,200,178,163,151,140,134,134,134,133,129,122,98,80],"timestamp_mouse":[12,39,52,71,92,113,132,153,172,192,212,232,253,273,292,312,333,352,372,392,413,432,451,472,492,513,532,553,572,592,612,632,652,672,692,712,733,751,773,792,813,833,852,872,893,912,932,952,972,993,1012,1033,1052],"xSR":741.5,"ySR":573.95,"xT1":424.9,"yT1":0,"xT2":1058.1,"yT2":0,"toosoon":0,"cond_shown":"randomdotsizeEA","ratio_trial":900,"smaller_num":"18","larger_num":"20","correct_side":1,"subjID":"samuelespinosacortes24","gender":"0","age":"11","school":"6"},{"start_time":1551893016190,"click_time":1551893017158,"finger_time":1551893016837,"fix_duration":491.6803767463351,"trial":17,"RT":647,"MT":321,"sideResp":2,"stimulus":"img/500/equaldotanddens/R/14_Ratio_500_L_5_R_10.png","xmouse":[789,789,789,789,789,789,789,789,789,789,789,789,789,789,789,789,789,789,789,789,789,789,789,789,789,789,789,789,789,789,807,828,864,907,928,962,1018,1063,1071,1078,1101,1124,1132,1136,1137,1137,1136,1134,1134],"ymouse":[632,632,632,632,632,632,632,632,632,632,632,632,632,632,632,632,632,632,632,632,632,632,632,632,632,632,632,632,632,632,598,575,549,514,486,439,360,299,283,268,230,185,163,147,127,122,116,102,62],"timestamp_mouse":[9,27,48,68,88,108,128,148,168,187,207,228,246,268,286,307,327,348,367,388,407,428,446,467,488,507,527,547,568,586,606,626,647,668,687,708,727,747,768,786,807,827,846,866,887,907,928,948,968],"xSR":741.5,"ySR":573.95,"xT1":424.9,"yT1":0,"xT2":1058.1,"yT2":0,"toosoon":0,"cond_shown":"equaldotanddens","ratio_trial":500,"smaller_num":"5","larger_num":"10","correct_side":2,"subjID":"samuelespinosacortes24","gender":"0","age":"11","school":"6"},{"start_time":1551893018345,"click_time":1551893019177,"finger_time":1551893018858,"fix_duration":425.9088404032582,"trial":18,"RT":513,"MT":319,"sideResp":1,"stimulus":"img/250/equaldotsize/L/1_Ratio_250_L_8_R_2.png","xmouse":[753,753,753,753,753,753,753,753,753,753,753,753,753,753,753,753,753,754,755,755,755,755,753,751,748,736,722,711,706,706,688,662,634,622,618,612,594,576,556,540,521,483],"ymouse":[627,627,627,627,627,627,627,627,627,627,627,627,627,627,627,627,627,627,627,627,627,625,618,603,582,507,437,390,339,279,156,94,39,12,0,0,0,0,0,0,0,10],"timestamp_mouse":[12,33,53,73,91,112,133,152,172,193,211,232,252,273,293,312,332,353,372,393,413,433,452,472,493,513,532,551,571,592,613,632,652,673,693,713,732,752,772,792,812,832],"xSR":741.5,"ySR":573.95,"xT1":424.9,"yT1":0,"xT2":1058.1,"yT2":0,"toosoon":0,"cond_shown":"equaldotsize","ratio_trial":250,"smaller_num":"2","larger_num":"8","correct_side":1,"subjID":"samuelespinosacortes24","gender":"0","age":"11","school":"6"},{"start_time":1551893020409,"click_time":1551893021237,"finger_time":1551893020837,"fix_duration":330.52314545068594,"trial":19,"RT":428,"MT":400,"sideResp":2,"stimulus":"img/500/equaldotsize/R/14_Ratio_500_L_5_R_10.png","xmouse":[774,774,774,774,774,774,774,774,774,774,774,774,774,774,774,774,774,774,779,788,800,815,839,920,947,969,983,994,1026,1043,1060,1073,1082,1086,1087,1088,1088,1094,1098,1099,1101,1102],"ymouse":[609,609,609,609,609,609,609,609,609,609,609,609,609,609,609,609,609,607,603,597,584,568,540,436,388,340,303,278,230,211,193,181,172,165,163,162,159,145,134,123,108,86],"timestamp_mouse":[8,35,49,68,88,108,128,148,169,187,208,228,248,268,288,308,328,349,367,388,408,428,449,468,489,507,528,548,569,587,608,627,649,667,688,708,729,749,768,788,809,828],"xSR":741.5,"ySR":573.95,"xT1":424.9,"yT1":0,"xT2":1058.1,"yT2":0,"toosoon":0,"cond_shown":"equaldotsize","ratio_trial":500,"smaller_num":"5","larger_num":"10","correct_side":2,"subjID":"samuelespinosacortes24","gender":"0","age":"11","school":"6"},{"start_time":1551893022943,"click_time":1551893023936,"finger_time":1551893023577,"fix_duration":924.2583578445202,"trial":20,"RT":634,"MT":359,"sideResp":1,"stimulus":"img/900/randomdotsizeEA/R/3_Ratio_900_L_9_R_10.png","xmouse":[807,807,807,807,807,807,807,807,807,807,807,807,807,807,807,807,807,807,807,807,806,804,804,804,804,804,804,804,804,803,796,781,774,770,764,761,751,747,740,733,724,703,687,665,643,625,585,559,526,501],"ymouse":[617,617,617,617,617,617,617,617,617,617,617,617,617,617,617,617,617,617,617,617,614,612,612,612,612,612,612,612,608,602,584,543,522,504,488,476,442,423,404,383,362,313,277,235,198,166,104,82,59,45],"timestamp_mouse":[15,36,54,74,95,114,135,155,174,194,215,234,255,275,295,315,335,354,374,394,414,435,454,475,494,514,534,555,574,594,613,634,655,675,695,714,735,754,774,795,814,833,855,875,893,915,933,954,973,993],"xSR":741.5,"ySR":573.95,"xT1":424.9,"yT1":0,"xT2":1058.1,"yT2":0,"toosoon":0,"cond_shown":"randomdotsizeEA","ratio_trial":900,"smaller_num":"9","larger_num":"10","correct_side":2,"subjID":"samuelespinosacortes24","gender":"0","age":"11","school":"6"},{"start_time":1551893027276,"click_time":1551893028338,"finger_time":1551893027877,"fix_duration":1077.3190108282986,"trial":21,"RT":601,"MT":461,"sideResp":2,"stimulus":"img/750/equaldotanddens/R/4_Ratio_750_L_15_R_20.png","xmouse":[768,768,768,768,768,768,768,768,768,768,768,768,768,768,768,768,768,768,768,768,768,768,768,768,768,768,768,768,771,781,879,928,983,1040,1099,1151,1154,1156,1159,1166,1169,1169,1169,1169,1169,1168,1166,1165,1164,1162,1159,1157,1156,1151],"ymouse":[600,600,602,602,605,605,605,605,605,605,605,605,605,605,605,605,605,605,605,605,605,605,605,605,605,605,605,605,603,597,540,505,466,414,368,330,325,318,307,274,252,233,211,186,148,135,128,125,123,120,113,110,102,89],"timestamp_mouse":[10,20,47,62,81,101,121,141,161,182,200,222,242,261,281,301,322,341,362,380,401,422,440,461,480,502,522,541,560,582,601,622,641,661,681,701,721,741,761,782,801,822,842,860,882,901,921,942,961,980,1001,1021,1042,1062],"xSR":741.5,"ySR":573.95,"xT1":424.9,"yT1":0,"xT2":1058.1,"yT2":0,"toosoon":0,"cond_shown":"equaldotanddens","ratio_trial":750,"smaller_num":"15","larger_num":"20","correct_side":2,"subjID":"samuelespinosacortes24","gender":"0","age":"11","school":"6"},{"start_time":1551893030532,"click_time":1551893031516,"finger_time":1551893031058,"fix_duration":1253.6671511382467,"trial":22,"RT":526,"MT":458,"sideResp":1,"stimulus":"img/250/equaldotsize/L/5_Ratio_250_L_24_R_6.png","xmouse":[794,794,794,794,794,794,794,794,794,794,794,794,794,794,794,794,794,794,794,794,794,794,794,794,787,780,763,727,710,694,676,658,631,623,611,593,561,553,544,543,543,543,540,540,539,537,537,533,528,523],"ymouse":[650,650,650,650,650,650,650,650,650,650,650,650,650,650,650,650,650,650,650,650,650,650,650,650,624,602,542,424,367,310,262,222,177,166,155,143,113,98,85,84,84,84,84,84,84,84,84,84,85,87],"timestamp_mouse":[8,39,45,64,86,106,124,145,166,184,206,224,244,265,285,305,326,345,365,385,405,425,445,465,485,506,526,545,565,585,605,625,645,666,686,706,726,745,765,784,804,824,845,865,885,905,926,945,965,984],"xSR":741.5,"ySR":573.95,"xT1":424.9,"yT1":0,"xT2":1058.1,"yT2":0,"toosoon":0,"cond_shown":"equaldotsize","ratio_trial":250,"smaller_num":"6","larger_num":"24","correct_side":1,"subjID":"samuelespinosacortes24","gender":"0","age":"11","school":"6"},{"start_time":1551893034075,"click_time":1551893035577,"finger_time":1551893034497,"fix_duration":295.3040090778042,"trial":23,"RT":422,"MT":1080,"sideResp":1,"stimulus":"img/750/randomdotsizeEA/R/2_Ratio_750_L_6_R_8.png","xmouse":[826,826,826,826,826,826,826,826,826,825,825,825,825,825,825,825,825,825,825,825,830,846,850,852,859,872,897,933,957,979,1024,1038,1045,1046,1047,1047,1047,1049,1055,1066,1070,1070,1070,1070,1070,1069,1059,1044,1027,1008,976,968,963,957,935,918,889,849,805,773,724,695,679,667,633,615,595,577,560,547,543,540,536,532,526,522],"ymouse":[633,633,633,633,633,633,633,633,633,633,633,633,633,633,633,633,633,633,633,632,618,591,583,578,566,552,530,504,482,462,404,382,369,365,358,355,348,338,325,292,266,259,258,258,258,257,260,265,269,272,272,269,267,263,248,237,224,209,187,169,136,123,118,114,102,92,81,73,66,63,63,62,61,59,57,56],"timestamp_mouse":[8,35,43,62,83,103,122,142,162,182,202,223,242,263,282,301,323,342,362,382,402,422,443,461,482,502,522,543,562,582,603,622,643,661,683,702,722,742,762,782,802,821,842,862,883,902,922,942,962,982,1002,1023,1042,1063,1082,1102,1122,1141,1162,1182,1203,1222,1242,1261,1282,1302,1322,1343,1362,1382,1402,1423,1443,1462,1482,1502],"xSR":741.5,"ySR":573.95,"xT1":424.9,"yT1":0,"xT2":1058.1,"yT2":0,"toosoon":0,"cond_shown":"randomdotsizeEA","ratio_trial":750,"smaller_num":"6","larger_num":"8","correct_side":2,"subjID":"samuelespinosacortes24","gender":"0","age":"11","school":"6"},{"start_time":1551893037597,"click_time":1551893038697,"finger_time":1551893038218,"fix_duration":917.0052398097987,"trial":24,"RT":621,"MT":479,"sideResp":1,"stimulus":"img/250/randomdotsizeEA/L/2_Ratio_250_L_16_R_4.png","xmouse":[761,765,767,769,769,769,769,769,769,769,769,769,769,769,769,769,769,769,769,771,778,787,790,791,793,800,815,824,827,820,817,816,816,816,803,793,781,770,751,735,693,642,591,515,484,442,412,390,369,366,366,366,366,377,407,428],"ymouse":[620,620,620,619,619,619,619,619,619,619,619,619,619,619,619,619,619,619,619,618,614,610,607,605,601,597,591,587,586,584,577,566,552,534,482,460,438,413,350,321,281,248,220,179,160,131,113,96,72,64,60,60,60,58,48,42],"timestamp_mouse":[8,20,42,60,80,100,121,141,160,180,200,220,241,261,279,300,319,340,361,380,400,420,440,461,480,501,521,540,560,580,600,621,641,660,681,700,720,740,761,780,799,820,840,860,879,901,920,939,960,979,1000,1020,1039,1061,1079,1099],"xSR":741.5,"ySR":573.95,"xT1":424.9,"yT1":0,"xT2":1058.1,"yT2":0,"toosoon":0,"cond_shown":"randomdotsizeEA","ratio_trial":250,"smaller_num":"4","larger_num":"16","correct_side":1,"subjID":"samuelespinosacortes24","gender":"0","age":"11","school":"6"},{"start_time":1551893039730,"click_time":1551893040878,"finger_time":1551893040358,"fix_duration":452.83822227260373,"trial":25,"RT":628,"MT":520,"sideResp":2,"stimulus":"img/900/randomdotsizeEA/R/15_Ratio_900_L_9_R_10.png","xmouse":[815,815,815,815,815,815,815,815,815,815,815,815,815,815,815,815,815,815,815,815,815,815,815,815,815,815,815,815,815,819,838,882,906,922,931,942,965,981,1007,1021,1037,1065,1080,1092,1103,1112,1119,1128,1128,1128,1127,1126,1126,1126,1126,1125,1124,1121],"ymouse":[646,646,646,646,646,646,646,646,646,646,646,646,646,646,646,646,646,646,646,646,646,646,646,646,646,646,646,646,646,643,632,600,584,568,556,542,506,487,461,446,424,380,358,336,312,287,260,196,176,162,154,151,151,150,146,139,130,87],"timestamp_mouse":[10,26,48,68,87,106,128,148,167,187,207,227,247,268,288,307,328,346,367,387,407,427,447,467,487,506,527,547,567,587,606,628,646,667,687,707,728,746,767,788,808,827,847,867,888,908,926,947,966,987,1007,1027,1047,1067,1087,1106,1127,1148],"xSR":741.5,"ySR":573.95,"xT1":424.9,"yT1":0,"xT2":1058.1,"yT2":0,"toosoon":0,"cond_shown":"randomdotsizeEA","ratio_trial":900,"smaller_num":"9","larger_num":"10","correct_side":2,"subjID":"samuelespinosacortes24","gender":"0","age":"11","school":"6"},{"start_time":1551893042084,"click_time":1551893043238,"finger_time":1551893042737,"fix_duration":305.2242811807737,"trial":26,"RT":653,"MT":501,"sideResp":1,"stimulus":"img/500/equaldotsize/L/5_Ratio_500_L_4_R_2.png","xmouse":[808,808,807,807,807,807,807,807,807,807,807,807,807,807,807,807,807,807,807,807,807,803,803,798,798,798,798,798,798,798,797,796,794,789,777,768,758,751,736,720,703,682,659,620,607,597,587,580,574,573,573,573,573,570,555,544,534,519],"ymouse":[589,589,590,590,590,590,590,590,590,590,590,590,590,590,590,590,590,590,590,590,590,591,592,595,595,595,595,595,595,594,588,583,573,558,513,485,462,440,400,368,327,283,241,169,149,135,124,116,113,112,112,112,112,109,92,79,69,59],"timestamp_mouse":[28,34,52,74,93,112,133,152,173,193,213,233,254,274,294,313,332,353,373,393,413,433,453,474,493,513,533,554,573,594,614,633,653,673,693,713,733,752,774,793,813,834,853,874,892,912,934,953,973,994,1013,1034,1054,1073,1093,1113,1132,1154],"xSR":741.5,"ySR":573.95,"xT1":424.9,"yT1":0,"xT2":1058.1,"yT2":0,"toosoon":0,"cond_shown":"equaldotsize","ratio_trial":500,"smaller_num":"2","larger_num":"4","correct_side":1,"subjID":"samuelespinosacortes24","gender":"0","age":"11","school":"6"},{"start_time":1551893044479,"click_time":1551893045317,"finger_time":1551893045037,"fix_duration":500.62289939994577,"trial":27,"RT":558,"MT":280,"sideResp":2,"stimulus":"img/750/equaldotanddens/R/5_Ratio_750_L_15_R_20.png","xmouse":[790,790,790,790,790,790,790,790,790,790,790,790,790,790,790,790,790,790,790,790,790,790,790,790,790,796,804,821,846,980,1037,1062,1072,1082,1090,1098,1101,1101,1100,1095,1095,1094],"ymouse":[591,591,591,591,591,591,591,591,591,591,591,591,591,591,591,591,591,591,591,591,591,591,591,591,591,587,578,554,517,372,321,293,276,254,239,220,197,178,160,115,103,92],"timestamp_mouse":[18,38,58,79,98,118,139,158,178,198,219,237,258,278,297,318,338,358,378,398,419,437,458,478,498,519,537,558,579,598,618,638,659,679,698,718,738,758,779,798,817,838],"xSR":741.5,"ySR":573.95,"xT1":424.9,"yT1":0,"xT2":1058.1,"yT2":0,"toosoon":0,"cond_shown":"equaldotanddens","ratio_trial":750,"smaller_num":"15","larger_num":"20","correct_side":2,"subjID":"samuelespinosacortes24","gender":"0","age":"11","school":"6"},{"start_time":1551893046701,"click_time":1551893047697,"finger_time":1551893047278,"fix_duration":642.5537556451653,"trial":28,"RT":577,"MT":419,"sideResp":2,"stimulus":"img/900/equaldotsize/R/14_Ratio_900_L_18_R_20.png","xmouse":[769,769,769,769,769,769,769,769,769,769,769,769,769,769,769,769,769,769,769,769,769,769,769,769,769,769,771,790,844,888,940,987,1038,1127,1151,1162,1167,1175,1187,1193,1196,1196,1196,1192,1187,1181,1174,1169,1160,1156],"ymouse":[653,653,653,653,653,653,653,653,653,653,653,653,653,653,653,653,653,653,653,653,653,653,653,653,653,653,650,626,574,543,508,472,428,352,328,307,289,249,215,196,181,166,151,118,102,89,77,71,64,62],"timestamp_mouse":[15,39,57,76,96,116,137,156,176,196,216,236,256,276,297,317,337,357,376,397,416,437,456,477,496,516,537,557,577,596,616,636,656,676,696,717,737,757,776,796,817,835,856,876,896,916,937,957,977,996],"xSR":741.5,"ySR":573.95,"xT1":424.9,"yT1":0,"xT2":1058.1,"yT2":0,"toosoon":0,"cond_shown":"equaldotsize","ratio_trial":900,"smaller_num":"18","larger_num":"20","correct_side":2,"subjID":"samuelespinosacortes24","gender":"0","age":"11","school":"6"},{"start_time":1551893049739,"click_time":1551893050458,"finger_time":1551893050297,"fix_duration":1000.1377293928584,"trial":29,"RT":558,"MT":161,"sideResp":1,"stimulus":"img/750/equaldotsize/L/6_Ratio_750_L_24_R_18.png","xmouse":[827,827,827,827,827,827,827,827,827,827,827,827,827,827,827,827,827,827,827,827,827,827,827,827,827,827,827,825,793,737,607,575,552,536,517,484],"ymouse":[592,592,592,592,592,592,592,592,592,592,592,592,592,592,592,592,592,592,592,592,592,592,592,592,592,592,582,531,470,398,250,194,157,128,100,60],"timestamp_mouse":[34,38,58,78,99,117,139,159,178,198,219,237,259,278,298,318,339,357,379,398,419,437,458,478,499,517,538,558,579,598,618,638,657,678,697,719],"xSR":741.5,"ySR":573.95,"xT1":424.9,"yT1":0,"xT2":1058.1,"yT2":0,"toosoon":0,"cond_shown":"equaldotsize","ratio_trial":750,"smaller_num":"18","larger_num":"24","correct_side":1,"subjID":"samuelespinosacortes24","gender":"0","age":"11","school":"6"},{"start_time":1551893051449,"click_time":1551893052397,"finger_time":1551893051898,"fix_duration":250,"trial":30,"RT":449,"MT":499,"sideResp":2,"stimulus":"img/750/randomdotsizeEA/L/14_Ratio_750_L_8_R_6.png","xmouse":[784,784,784,784,784,784,784,784,784,784,784,784,784,784,784,784,784,784,784,784,786,809,858,904,964,1049,1068,1076,1085,1094,1143,1169,1184,1186,1186,1186,1183,1182,1180,1178,1176,1176,1176,1176,1176,1170,1163,1154],"ymouse":[654,654,654,654,654,654,654,654,654,654,654,654,654,654,654,654,654,654,654,651,644,603,543,504,463,405,387,370,349,321,206,144,97,84,74,64,51,46,41,35,31,30,30,30,30,36,43,54],"timestamp_mouse":[8,33,48,69,88,108,127,148,168,188,208,229,248,268,289,308,328,348,368,388,409,428,449,469,488,508,528,549,569,589,608,627,648,667,688,709,728,747,769,789,808,828,848,869,887,908,928,948],"xSR":741.5,"ySR":573.95,"xT1":424.9,"yT1":0,"xT2":1058.1,"yT2":0,"toosoon":0,"cond_shown":"randomdotsizeEA","ratio_trial":750,"smaller_num":"6","larger_num":"8","correct_side":1,"subjID":"samuelespinosacortes24","gender":"0","age":"11","school":"6"},{"start_time":1551893055136,"click_time":1551893055877,"finger_time":1551893055556,"fix_duration":1356.1964504593511,"trial":31,"RT":420,"MT":321,"sideResp":2,"stimulus":"img/900/equaldotsize/R/9_Ratio_900_L_18_R_20.png","xmouse":[775,775,775,775,775,775,775,775,775,775,775,775,775,775,775,775,775,775,775,776,776,776,779,783,792,808,902,972,991,1001,1006,1012,1013,1014,1015,1021,1053,1086],"ymouse":[606,606,606,606,606,606,606,606,606,606,606,606,606,606,606,606,606,606,606,601,589,571,531,512,489,461,346,271,240,213,189,152,145,142,136,127,90,66],"timestamp_mouse":[8,37,41,61,80,101,122,141,161,181,202,222,242,261,281,301,322,341,361,381,401,420,442,461,481,501,522,541,561,581,601,621,641,661,681,701,721,741],"xSR":741.5,"ySR":573.95,"xT1":424.9,"yT1":0,"xT2":1058.1,"yT2":0,"toosoon":0,"cond_shown":"equaldotsize","ratio_trial":900,"smaller_num":"18","larger_num":"20","correct_side":2,"subjID":"samuelespinosacortes24","gender":"0","age":"11","school":"6"},{"start_time":1551893057550,"click_time":1551893058637,"finger_time":1551893057936,"fix_duration":791.2177619341476,"trial":32,"RT":386,"MT":701,"sideResp":1,"stimulus":"img/250/randomdotsizeEA/L/14_Ratio_250_L_12_R_3.png","xmouse":[776,776,776,776,776,776,776,776,776,776,776,776,777,778,778,781,782,782,782,780,770,764,757,745,729,708,643,572,525,473,417,316,286,265,255,249,249,259,275,301,337,418,448,464,473,476,476,481,484,487,487,480,476,473,472],"ymouse":[648,648,648,648,648,648,648,648,648,648,648,648,647,646,643,634,620,604,588,561,499,460,427,390,354,311,170,29,0,0,0,0,0,0,0,0,0,9,31,61,102,176,201,214,220,221,221,218,212,205,195,148,123,104,93],"timestamp_mouse":[10,37,47,66,87,108,127,147,166,188,208,227,248,267,288,309,327,348,367,386,408,427,447,468,486,507,528,548,567,588,608,627,646,667,687,708,726,747,767,788,807,827,847,866,886,907,926,948,968,987,1007,1027,1047,1067,1087],"xSR":741.5,"ySR":573.95,"xT1":424.9,"yT1":0,"xT2":1058.1,"yT2":0,"toosoon":0,"cond_shown":"randomdotsizeEA","ratio_trial":250,"smaller_num":"3","larger_num":"12","correct_side":1,"subjID":"samuelespinosacortes24","gender":"0","age":"11","school":"6"},{"start_time":1551893059449,"click_time":1551893060377,"finger_time":1551893059997,"fix_duration":250,"trial":33,"RT":548,"MT":380,"sideResp":2,"stimulus":"img/900/equaldotsize/L/2_Ratio_900_L_20_R_18.png","xmouse":[797,797,797,797,797,797,797,797,797,797,797,797,797,797,797,797,797,797,797,797,797,797,795,792,788,783,783,786,804,832,881,905,919,938,960,988,1023,1030,1034,1038,1044,1044,1044,1044,1044,1045,1066],"ymouse":[626,626,626,626,626,626,626,626,626,626,626,626,626,626,626,626,626,626,626,626,626,627,627,623,616,596,581,557,517,464,377,319,280,229,175,123,60,44,31,21,13,13,13,13,13,13,30],"timestamp_mouse":[8,30,49,68,87,108,127,148,168,188,207,229,248,267,288,308,328,348,369,388,408,428,448,468,489,509,528,548,568,589,608,628,648,669,689,708,728,748,769,789,808,828,848,869,888,908,928],"xSR":741.5,"ySR":573.95,"xT1":424.9,"yT1":0,"xT2":1058.1,"yT2":0,"toosoon":0,"cond_shown":"equaldotsize","ratio_trial":900,"smaller_num":"18","larger_num":"20","correct_side":1,"subjID":"samuelespinosacortes24","gender":"0","age":"11","school":"6"},{"start_time":1551893061789,"click_time":1551893064077,"finger_time":1551893062977,"fix_duration":250,"trial":34,"RT":1188,"MT":1100,"sideResp":2,"stimulus":"img/750/randomdotsizeEA/R/4_Ratio_750_L_15_R_20.png","xmouse":[772,772,772,772,772,772,772,772,772,772,772,772,772,772,772,772,772,772,772,772,771,771,771,770,770,770,770,770,770,770,769,769,769,769,769,770,770,770,770,771,771,771,771,771,771,771,771,771,771,771,771,771,771,771,771,771,770,770,768,766,765,764,764,763,763,763,763,762,761,761,759,758,758,753,728,699,677,663,650,623,611,603,593,583,559,557,557,557,557,557,557,557,557,557,559,579,607,639,713,738,762,801,849,883,903,904,904,904,904,908,918,932,949,968,1078],"ymouse":[589,589,589,589,589,589,589,589,589,589,589,589,589,589,589,589,589,589,589,589,589,589,589,589,589,589,589,589,589,589,589,589,587,586,586,585,585,585,584,583,582,582,582,582,582,582,582,582,582,582,582,582,582,582,582,581,580,578,575,573,572,570,570,569,568,568,568,567,566,564,557,541,519,458,390,342,303,270,241,160,133,114,99,88,80,79,79,79,79,79,79,79,79,79,80,88,100,113,140,148,155,165,176,181,186,186,186,186,186,185,175,163,141,123,65],"timestamp_mouse":[10,33,48,69,88,108,129,149,167,188,209,228,249,268,288,308,328,347,368,387,408,428,449,468,488,508,529,549,569,589,608,629,648,669,689,709,728,748,769,789,808,829,848,868,887,908,928,948,969,988,1008,1029,1048,1068,1088,1108,1128,1148,1168,1188,1209,1229,1248,1268,1288,1307,1328,1348,1368,1387,1409,1429,1449,1468,1487,1508,1528,1548,1568,1588,1608,1628,1648,1668,1689,1708,1727,1748,1769,1788,1809,1828,1847,1869,1888,1908,1928,1949,1968,1988,2008,2029,2049,2069,2088,2109,2128,2148,2168,2188,2208,2228,2248,2268,2288],"xSR":741.5,"ySR":573.95,"xT1":424.9,"yT1":0,"xT2":1058.1,"yT2":0,"toosoon":0,"cond_shown":"randomdotsizeEA","ratio_trial":750,"smaller_num":"15","larger_num":"20","correct_side":2,"subjID":"samuelespinosacortes24","gender":"0","age":"11","school":"6"},{"start_time":1551893065325,"click_time":1551893066157,"finger_time":1551893065898,"fix_duration":267.299336409921,"trial":35,"RT":573,"MT":259,"sideResp":1,"stimulus":"img/500/equaldotanddens/L/11_Ratio_500_L_12_R_6.png","xmouse":[756,757,757,757,757,757,757,757,757,757,757,757,757,757,757,757,757,757,757,757,757,757,757,757,757,757,757,757,748,722,684,567,525,510,507,504,502,502,502,502,502,495],"ymouse":[592,592,592,592,592,592,592,592,592,592,592,592,592,592,592,592,592,592,592,592,592,592,592,592,592,592,592,591,571,526,444,241,190,169,162,157,138,128,123,118,111,99],"timestamp_mouse":[13,33,52,73,91,112,133,152,173,192,212,232,253,272,292,312,333,351,372,393,411,433,453,471,493,513,532,552,573,592,612,632,652,673,692,713,732,752,772,792,812,832],"xSR":741.5,"ySR":573.95,"xT1":424.9,"yT1":0,"xT2":1058.1,"yT2":0,"toosoon":0,"cond_shown":"equaldotanddens","ratio_trial":500,"smaller_num":"6","larger_num":"12","correct_side":1,"subjID":"samuelespinosacortes24","gender":"0","age":"11","school":"6"},{"start_time":1551893068302,"click_time":1551893069597,"finger_time":1551893069257,"fix_duration":1343.224131567229,"trial":36,"RT":955,"MT":340,"sideResp":1,"stimulus":"img/750/equaldotsize/L/10_Ratio_750_L_4_R_3.png","xmouse":[751,751,751,751,751,751,751,751,751,751,751,751,751,751,751,751,751,751,751,751,751,751,751,751,751,751,751,751,751,751,751,751,751,751,751,751,751,751,751,751,751,751,751,751,751,750,750,739,719,701,686,675,649,638,625,604,581,550,546,545,544,542,530,520,509],"ymouse":[611,611,611,611,611,611,611,611,611,611,611,611,611,611,611,611,611,611,611,611,611,611,611,611,611,611,611,611,611,611,611,611,611,611,611,611,611,611,611,611,611,611,611,611,611,608,605,576,533,504,481,461,420,399,376,340,303,253,231,217,203,187,137,113,95],"timestamp_mouse":[15,35,54,74,94,115,134,155,174,196,216,236,256,275,296,314,335,354,376,396,414,436,456,476,496,515,536,556,575,594,615,636,655,676,696,714,736,756,776,795,816,835,856,875,895,916,936,955,975,995,1015,1035,1055,1075,1095,1115,1136,1156,1175,1195,1215,1236,1255,1274,1295],"xSR":741.5,"ySR":573.95,"xT1":424.9,"yT1":0,"xT2":1058.1,"yT2":0,"toosoon":0,"cond_shown":"equaldotsize","ratio_trial":750,"smaller_num":"3","larger_num":"4","correct_side":1,"subjID":"samuelespinosacortes24","gender":"0","age":"11","school":"6"},{"start_time":1551893070649,"click_time":1551893071699,"finger_time":1551893071317,"fix_duration":250,"trial":37,"RT":668,"MT":382,"sideResp":2,"stimulus":"img/750/equaldotsize/R/7_Ratio_750_L_3_R_4.png","xmouse":[790,790,790,790,790,790,790,790,790,790,790,790,790,790,790,790,790,790,790,790,790,790,790,790,790,790,790,790,790,790,790,798,827,870,909,938,992,1043,1115,1170,1203,1204,1204,1206,1209,1215,1225,1225,1225,1225,1224,1205,1156],"ymouse":[625,625,625,625,625,625,625,625,625,625,625,625,625,625,625,625,625,625,625,625,625,625,625,625,625,625,625,625,625,625,625,619,585,534,495,469,412,368,309,249,192,183,179,173,164,151,112,101,95,91,86,67,39],"timestamp_mouse":[9,41,49,69,88,107,129,148,168,189,209,228,249,268,288,308,328,348,368,388,409,428,448,468,489,509,528,548,568,587,609,628,648,668,688,708,728,748,768,789,808,828,848,869,888,907,928,949,968,988,1009,1031,1050],"xSR":741.5,"ySR":573.95,"xT1":424.9,"yT1":0,"xT2":1058.1,"yT2":0,"toosoon":0,"cond_shown":"equaldotsize","ratio_trial":750,"smaller_num":"3","larger_num":"4","correct_side":2,"subjID":"samuelespinosacortes24","gender":"0","age":"11","school":"6"},{"start_time":1551893073544,"click_time":1551893074460,"finger_time":1551893074140,"fix_duration":982.8630043028852,"trial":38,"RT":596,"MT":320,"sideResp":2,"stimulus":"img/750/equaldotanddens/R/4_Ratio_750_L_15_R_20.png","xmouse":[826,826,826,826,826,826,826,826,826,826,826,825,823,823,823,823,823,823,823,823,823,823,823,823,823,823,822,823,832,846,876,891,906,926,947,972,995,997,1001,1004,1020,1030,1035,1042,1051,1059],"ymouse":[620,620,620,620,620,620,620,620,620,620,620,620,620,620,620,620,620,620,620,620,620,620,620,620,620,620,619,616,605,594,562,546,527,503,473,426,355,336,313,284,141,78,47,25,11,1],"timestamp_mouse":[16,35,56,75,95,115,135,156,175,195,215,236,256,275,295,315,335,355,375,397,415,435,455,476,495,515,535,555,575,596,615,635,655,676,696,715,735,755,775,796,815,835,856,875,896,916],"xSR":741.5,"ySR":573.95,"xT1":424.9,"yT1":0,"xT2":1058.1,"yT2":0,"toosoon":0,"cond_shown":"equaldotanddens","ratio_trial":750,"smaller_num":"15","larger_num":"20","correct_side":2,"subjID":"samuelespinosacortes24","gender":"0","age":"11","school":"6"},{"start_time":1551893076525,"click_time":1551893077580,"finger_time":1551893077020,"fix_duration":1144.1006200703696,"trial":39,"RT":495,"MT":560,"sideResp":2,"stimulus":"img/500/equaldotanddens/R/3_Ratio_500_L_10_R_20.png","xmouse":[787,787,787,787,787,787,787,787,787,787,787,787,787,787,787,787,787,787,787,787,787,787,787,788,800,838,991,1079,1097,1108,1117,1126,1138,1147,1158,1170,1186,1188,1187,1185,1185,1179,1178,1176,1175,1175,1175,1175,1174,1170,1166,1161,1156],"ymouse":[587,587,587,587,587,587,587,587,587,587,587,587,587,587,587,587,587,587,587,587,587,587,587,582,570,529,406,327,305,289,271,249,215,198,180,157,125,105,100,98,96,90,88,87,85,85,84,84,84,84,84,84,83],"timestamp_mouse":[15,35,55,74,94,114,134,155,174,195,214,234,255,275,295,315,335,354,375,394,414,435,455,475,495,514,535,554,574,594,614,634,655,675,694,714,735,755,775,795,814,834,854,874,894,914,935,954,974,994,1014,1034,1055],"xSR":741.5,"ySR":573.95,"xT1":424.9,"yT1":0,"xT2":1058.1,"yT2":0,"toosoon":0,"cond_shown":"equaldotanddens","ratio_trial":500,"smaller_num":"10","larger_num":"20","correct_side":2,"subjID":"samuelespinosacortes24","gender":"0","age":"11","school":"6"},{"start_time":1551893078806,"click_time":1551893080099,"finger_time":1551893079940,"fix_duration":423.0802372074259,"trial":40,"RT":1134,"MT":159,"sideResp":2,"stimulus":"img/750/equaldotanddens/R/12_Ratio_750_L_3_R_4.png","xmouse":[795,795,795,795,795,795,795,795,795,795,795,795,795,795,795,795,795,795,795,795,795,795,795,795,795,795,795,795,795,795,795,795,795,795,795,795,795,795,795,795,795,795,794,786,782,779,776,772,770,770,770,770,770,770,770,770,770,793,827,865,900,934,987,1049,1102],"ymouse":[614,614,614,614,614,614,614,614,614,614,614,614,614,614,614,614,614,614,614,614,614,614,614,614,614,614,614,614,614,614,614,614,614,614,614,614,614,614,614,614,614,614,614,604,595,587,583,577,574,574,574,574,574,574,574,574,571,529,482,428,376,320,220,137,92],"timestamp_mouse":[13,34,54,73,93,113,133,154,173,193,213,234,255,273,293,313,333,353,374,393,413,433,453,473,493,513,533,554,573,593,613,633,653,673,693,713,733,753,773,793,814,833,854,873,893,914,933,953,974,993,1013,1033,1054,1073,1094,1114,1134,1153,1173,1194,1213,1233,1253,1273,1293],"xSR":741.5,"ySR":573.95,"xT1":424.9,"yT1":0,"xT2":1058.1,"yT2":0,"toosoon":0,"cond_shown":"equaldotanddens","ratio_trial":750,"smaller_num":"3","larger_num":"4","correct_side":2,"subjID":"samuelespinosacortes24","gender":"0","age":"11","school":"6"},{"start_time":1551893081790,"click_time":1551893082480,"finger_time":1551893082280,"fix_duration":750.3436883964964,"trial":41,"RT":490,"MT":200,"sideResp":2,"stimulus":"img/250/randomdotsizeEA/R/11_Ratio_250_L_3_R_12.png","xmouse":[768,768,768,768,768,768,768,768,768,768,768,768,768,768,768,768,768,768,768,768,768,768,768,776,812,841,871,897,934,963,1000,1034,1057,1076,1106],"ymouse":[622,622,622,622,622,622,622,622,622,622,622,622,622,622,622,622,622,622,622,622,622,622,622,613,560,514,459,409,329,281,229,182,151,124,70],"timestamp_mouse":[9,35,49,69,89,109,129,149,169,190,209,229,249,269,290,309,330,349,369,389,409,429,450,470,490,509,529,551,570,589,610,629,649,669,690],"xSR":741.5,"ySR":573.95,"xT1":424.9,"yT1":0,"xT2":1058.1,"yT2":0,"toosoon":0,"cond_shown":"randomdotsizeEA","ratio_trial":250,"smaller_num":"3","larger_num":"12","correct_side":2,"subjID":"samuelespinosacortes24","gender":"0","age":"11","school":"6"},{"start_time":1551893083790,"click_time":1551893084760,"finger_time":1551893084399,"fix_duration":507.99672948459516,"trial":42,"RT":609,"MT":361,"sideResp":1,"stimulus":"img/500/randomdotsizeEA/L/4_Ratio_500_L_18_R_9.png","xmouse":[757,757,757,757,757,757,757,757,757,757,757,757,757,757,757,757,757,757,757,757,757,757,757,757,757,757,757,757,753,749,743,736,725,700,680,669,653,631,578,562,553,544,533,520,516,516,516,516,513],"ymouse":[629,629,629,629,629,629,629,629,629,629,629,629,629,629,629,629,629,629,629,629,629,629,629,629,629,629,626,623,608,594,572,548,515,425,355,314,269,232,155,125,96,55,22,0,0,0,0,0,1],"timestamp_mouse":[10,34,49,69,89,109,129,149,169,189,210,229,249,269,289,309,329,349,370,389,410,430,449,470,490,509,530,549,570,590,609,629,650,669,689,709,730,749,770,789,810,830,850,869,890,910,929,949,970],"xSR":741.5,"ySR":573.95,"xT1":424.9,"yT1":0,"xT2":1058.1,"yT2":0,"toosoon":0,"cond_shown":"randomdotsizeEA","ratio_trial":500,"smaller_num":"9","larger_num":"18","correct_side":1,"subjID":"samuelespinosacortes24","gender":"0","age":"11","school":"6"},{"start_time":1551893086728,"click_time":1551893087580,"finger_time":1551893087379,"fix_duration":1107.9144037731442,"trial":43,"RT":651,"MT":201,"sideResp":1,"stimulus":"img/900/randomdotsizeEA/L/1_Ratio_900_L_10_R_9.png","xmouse":[777,777,777,777,777,777,777,777,777,777,777,777,777,777,777,777,777,777,777,777,777,777,777,777,777,777,777,777,777,777,775,774,763,750,738,729,715,694,666,634,602,543,513],"ymouse":[633,633,633,633,633,633,633,633,633,633,633,633,633,633,633,633,633,633,633,633,633,633,633,633,633,633,633,633,633,633,617,604,559,537,514,488,400,316,266,217,171,70,23],"timestamp_mouse":[11,41,51,72,92,112,131,152,171,192,212,231,251,272,291,312,331,352,371,391,412,431,451,471,492,511,531,551,572,592,611,631,651,671,692,712,732,751,771,792,812,832,852],"xSR":741.5,"ySR":573.95,"xT1":424.9,"yT1":0,"xT2":1058.1,"yT2":0,"toosoon":0,"cond_shown":"randomdotsizeEA","ratio_trial":900,"smaller_num":"9","larger_num":"10","correct_side":1,"subjID":"samuelespinosacortes24","gender":"0","age":"11","school":"6"},{"start_time":1551893089342,"click_time":1551893090440,"finger_time":1551893090180,"fix_duration":780.5286226137168,"trial":44,"RT":838,"MT":260,"sideResp":1,"stimulus":"img/900/equaldotsize/R/6_Ratio_900_L_9_R_10.png","xmouse":[752,752,752,752,752,752,752,752,752,752,752,752,752,752,752,752,752,752,752,752,752,752,752,752,752,752,752,752,752,752,752,752,752,752,752,752,752,752,750,747,742,736,732,722,710,686,655,639,625,616,609,583,555,518,487],"ymouse":[655,655,655,655,655,655,655,655,655,655,655,655,655,655,655,655,655,655,655,655,655,655,655,655,655,655,655,655,655,655,655,655,655,655,655,655,655,655,652,644,629,588,561,531,485,401,304,264,225,199,182,151,134,115,98],"timestamp_mouse":[31,38,57,78,97,117,139,158,177,197,217,238,258,278,298,318,338,358,377,397,418,438,457,477,497,517,537,557,577,597,617,637,657,677,697,717,738,758,777,797,817,838,858,877,899,917,937,957,978,998,1017,1038,1057,1078,1098],"xSR":741.5,"ySR":573.95,"xT1":424.9,"yT1":0,"xT2":1058.1,"yT2":0,"toosoon":0,"cond_shown":"equaldotsize","ratio_trial":900,"smaller_num":"9","larger_num":"10","correct_side":2,"subjID":"samuelespinosacortes24","gender":"0","age":"11","school":"6"},{"start_time":1551893092132,"click_time":1551893093060,"finger_time":1551893092719,"fix_duration":690.5699916985521,"trial":45,"RT":587,"MT":341,"sideResp":2,"stimulus":"img/500/equaldotanddens/R/3_Ratio_500_L_10_R_20.png","xmouse":[824,824,824,824,824,824,824,824,824,824,824,824,824,824,824,824,824,824,824,824,824,824,824,824,824,824,824,824,833,845,858,874,926,962,1008,1050,1078,1108,1112,1116,1118,1118,1121,1124,1125,1128,1129],"ymouse":[622,622,622,622,622,622,622,622,622,622,622,622,622,622,622,622,622,622,622,622,622,622,622,622,622,622,622,622,616,607,592,575,523,485,427,376,330,248,225,202,179,161,131,119,109,102,95],"timestamp_mouse":[11,27,48,68,87,108,128,147,167,188,207,227,248,268,287,308,328,348,367,387,407,427,447,468,488,507,528,547,567,587,607,627,647,667,687,707,727,747,767,787,808,827,847,868,887,908,928],"xSR":741.5,"ySR":573.95,"xT1":424.9,"yT1":0,"xT2":1058.1,"yT2":0,"toosoon":0,"cond_shown":"equaldotanddens","ratio_trial":500,"smaller_num":"10","larger_num":"20","correct_side":2,"subjID":"samuelespinosacortes24","gender":"0","age":"11","school":"6"},{"start_time":1551893093971,"click_time":1551893095340,"finger_time":1551893094599,"fix_duration":250,"trial":46,"RT":628,"MT":741,"sideResp":1,"stimulus":"img/250/equaldotanddens/L/15_Ratio_250_L_12_R_3.png","xmouse":[829,829,829,829,829,829,829,829,829,829,829,829,829,829,829,829,829,829,829,829,829,829,829,829,829,829,829,829,829,829,829,829,828,825,813,800,789,773,747,714,589,518,452,398,312,262,241,224,213,209,209,211,216,224,233,265,277,288,303,338,353,365,372,380,390,407,413,422,434],"ymouse":[591,591,591,591,591,591,591,591,591,591,591,591,591,591,591,591,591,591,591,591,591,591,591,591,591,591,591,591,591,591,580,567,548,531,497,471,450,427,399,367,274,224,170,125,50,8,0,0,0,0,0,0,0,0,2,20,28,35,44,56,64,69,71,74,77,82,83,84,85],"timestamp_mouse":[8,35,49,68,89,109,128,148,168,189,208,229,248,268,288,308,329,348,368,388,408,428,448,468,488,508,529,548,569,588,608,628,648,668,688,708,728,748,768,788,808,828,848,868,888,908,928,948,969,988,1009,1028,1047,1069,1088,1109,1128,1148,1168,1190,1208,1228,1248,1268,1289,1308,1328,1349,1369],"xSR":741.5,"ySR":573.95,"xT1":424.9,"yT1":0,"xT2":1058.1,"yT2":0,"toosoon":0,"cond_shown":"equaldotanddens","ratio_trial":250,"smaller_num":"3","larger_num":"12","correct_side":1,"subjID":"samuelespinosacortes24","gender":"0","age":"11","school":"6"},{"start_time":1551893097982,"click_time":1551893098679,"finger_time":1551893098479,"fix_duration":1301.5418407672973,"trial":47,"RT":497,"MT":200,"sideResp":1,"stimulus":"img/500/equaldotsize/L/4_Ratio_500_L_18_R_9.png","xmouse":[784,784,784,784,784,784,784,784,784,784,784,784,784,784,784,784,784,784,784,784,786,787,787,787,775,767,759,749,736,687,656,622,597,528,519],"ymouse":[633,633,633,633,633,633,633,633,633,633,633,633,633,633,633,633,633,633,633,633,628,619,603,577,537,514,488,455,420,336,285,219,153,16,4],"timestamp_mouse":[17,45,58,78,97,118,137,157,177,197,218,237,258,278,298,317,337,358,378,397,417,438,457,477,497,517,537,557,577,597,617,637,657,677,697],"xSR":741.5,"ySR":573.95,"xT1":424.9,"yT1":0,"xT2":1058.1,"yT2":0,"toosoon":0,"cond_shown":"equaldotsize","ratio_trial":500,"smaller_num":"9","larger_num":"18","correct_side":1,"subjID":"samuelespinosacortes24","gender":"0","age":"11","school":"6"},{"start_time":1551893100132,"click_time":1551893101379,"finger_time":1551893100760,"fix_duration":250,"trial":48,"RT":628,"MT":619,"sideResp":2,"stimulus":"img/900/randomdotsizeEA/L/8_Ratio_900_L_20_R_18.png","xmouse":[811,811,811,811,811,811,810,805,805,805,805,805,805,805,805,805,805,805,805,805,805,805,805,805,805,805,805,805,805,807,814,877,912,940,956,965,1005,1046,1058,1064,1065,1066,1066,1066,1066,1066,1066,1067,1067,1067,1067,1067,1067,1067,1067,1067,1068,1072,1076,1079,1083,1090,1092],"ymouse":[600,600,600,600,600,600,600,602,602,602,602,602,602,602,602,602,602,602,602,602,602,602,602,602,602,602,602,602,602,602,598,554,523,480,437,405,332,276,259,245,238,233,233,232,232,228,219,211,206,202,200,200,200,200,199,197,186,169,156,141,126,103,98],"timestamp_mouse":[10,31,48,68,88,107,128,148,166,187,208,227,247,268,287,307,328,347,368,387,407,427,448,467,487,508,527,547,567,587,607,628,647,667,687,708,728,747,767,787,807,827,847,867,887,907,928,947,967,987,1007,1028,1047,1067,1088,1108,1128,1147,1168,1187,1208,1227,1247],"xSR":741.5,"ySR":573.95,"xT1":424.9,"yT1":0,"xT2":1058.1,"yT2":0,"toosoon":0,"cond_shown":"randomdotsizeEA","ratio_trial":900,"smaller_num":"18","larger_num":"20","correct_side":1,"subjID":"samuelespinosacortes24","gender":"0","age":"11","school":"6"},{"start_time":1551893103012,"click_time":1551893103840,"finger_time":1551893103420,"fix_duration":771.1848897598302,"trial":49,"RT":408,"MT":420,"sideResp":1,"stimulus":"img/250/equaldotanddens/L/5_Ratio_250_L_24_R_6.png","xmouse":[772,772,772,772,772,772,772,772,772,772,772,772,772,772,772,772,772,772,773,795,814,816,797,750,742,740,740,737,727,721,718,714,708,694,678,664,654,621,602,581,555,524],"ymouse":[612,612,612,612,612,612,612,612,612,612,612,612,612,612,612,612,612,612,610,586,521,469,425,339,312,283,258,238,197,184,175,170,164,161,157,153,149,131,117,101,83,70],"timestamp_mouse":[10,34,47,67,88,107,127,147,167,187,207,227,248,267,288,308,328,348,367,388,408,427,447,467,488,507,527,547,567,588,607,627,647,667,688,708,727,747,767,787,807,828],"xSR":741.5,"ySR":573.95,"xT1":424.9,"yT1":0,"xT2":1058.1,"yT2":0,"toosoon":0,"cond_shown":"equaldotanddens","ratio_trial":250,"smaller_num":"6","larger_num":"24","correct_side":1,"subjID":"samuelespinosacortes24","gender":"0","age":"11","school":"6"},{"start_time":1551893106137,"click_time":1551893106979,"finger_time":1551893106680,"fix_duration":1315.453337869537,"trial":50,"RT":543,"MT":299,"sideResp":1,"stimulus":"img/250/randomdotsizeEA/L/2_Ratio_250_L_16_R_4.png","xmouse":[772,772,772,772,772,772,772,772,772,772,772,772,772,772,772,772,772,772,772,772,772,772,772,772,772,771,757,739,722,703,685,667,624,604,589,582,571,561,555,548,538,526,502],"ymouse":[626,626,626,626,626,626,626,626,626,626,626,626,626,626,626,626,626,626,626,626,626,626,626,626,626,626,596,551,511,463,408,345,236,197,171,156,131,112,98,82,65,49,18],"timestamp_mouse":[10,23,42,63,82,103,122,143,163,182,202,223,242,262,283,302,323,342,362,382,402,422,442,464,482,503,523,543,563,583,603,622,642,662,682,703,723,742,762,782,802,822,842],"xSR":741.5,"ySR":573.95,"xT1":424.9,"yT1":0,"xT2":1058.1,"yT2":0,"toosoon":0,"cond_shown":"randomdotsizeEA","ratio_trial":250,"smaller_num":"4","larger_num":"16","correct_side":1,"subjID":"samuelespinosacortes24","gender":"0","age":"11","school":"6"},{"start_time":1551893109008,"click_time":1551893109899,"finger_time":1551893109660,"fix_duration":1268.4663054839552,"trial":51,"RT":652,"MT":239,"sideResp":1,"stimulus":"img/250/equaldotsize/L/1_Ratio_250_L_8_R_2.png","xmouse":[799,799,799,799,799,799,799,799,799,799,799,799,799,799,799,799,799,799,799,799,799,799,799,799,799,799,799,799,799,800,800,797,771,750,728,692,662,617,602,588,574,558,490,463,443],"ymouse":[630,630,630,630,630,630,630,630,630,630,630,630,630,630,630,630,630,630,630,630,630,630,630,630,630,630,630,630,630,628,621,606,556,507,455,399,366,328,304,272,239,206,126,103,85],"timestamp_mouse":[11,35,52,72,91,111,132,151,171,192,211,231,252,271,291,312,331,351,371,391,411,432,451,471,491,511,531,552,571,592,612,632,652,671,692,711,733,752,771,792,812,831,852,871,891],"xSR":741.5,"ySR":573.95,"xT1":424.9,"yT1":0,"xT2":1058.1,"yT2":0,"toosoon":0,"cond_shown":"equaldotsize","ratio_trial":250,"smaller_num":"2","larger_num":"8","correct_side":1,"subjID":"samuelespinosacortes24","gender":"0","age":"11","school":"6"},{"start_time":1551893111782,"click_time":1551893112800,"finger_time":1551893112279,"fix_duration":882.1858194055375,"trial":52,"RT":497,"MT":521,"sideResp":2,"stimulus":"img/250/equaldotanddens/R/4_Ratio_250_L_3_R_12.png","xmouse":[751,751,752,753,755,755,755,755,755,755,755,756,756,757,760,760,762,763,766,768,772,779,795,812,862,885,917,952,997,1117,1161,1187,1195,1202,1202,1202,1202,1202,1202,1202,1202,1202,1202,1202,1202,1202,1200,1193,1172,1162,1156],"ymouse":[622,622,622,621,620,620,620,620,620,620,620,620,620,619,618,618,618,617,616,615,613,609,602,593,541,507,463,411,349,214,162,129,115,102,100,100,100,100,100,100,100,100,100,100,100,100,98,97,94,93,92],"timestamp_mouse":[17,42,57,78,97,117,138,157,178,198,218,237,258,277,297,317,337,358,377,397,417,438,458,477,497,517,537,558,578,597,618,637,658,678,697,718,737,758,778,797,818,837,858,878,898,917,937,957,978,997,1018],"xSR":741.5,"ySR":573.95,"xT1":424.9,"yT1":0,"xT2":1058.1,"yT2":0,"toosoon":0,"cond_shown":"equaldotanddens","ratio_trial":250,"smaller_num":"3","larger_num":"12","correct_side":2,"subjID":"samuelespinosacortes24","gender":"0","age":"11","school":"6"},{"start_time":1551893114541,"click_time":1551893116700,"finger_time":1551893115320,"fix_duration":800.6981804472236,"trial":53,"RT":779,"MT":1380,"sideResp":1,"stimulus":"img/750/randomdotsizeEA/R/7_Ratio_750_L_3_R_4.png","xmouse":[819,819,819,819,819,819,819,819,819,819,819,819,819,819,819,819,819,819,819,819,819,819,819,819,819,819,819,819,819,819,819,819,819,819,819,819,819,822,830,845,894,928,957,984,1004,1036,1048,1051,1051,1051,1051,1051,1051,1051,1051,1051,1051,1051,1051,1051,1026,993,934,863,771,657,262,143,65,25,2,2,2,9,23,40,73,89,102,117,136,176,188,198,203,208,229,240,248,257,280,310,346,368,379,381,381,385,390,393,396,397,399,403,406,411,421,425],"ymouse":[584,584,584,584,584,584,584,584,584,584,584,584,584,584,584,584,584,584,584,584,584,584,584,584,584,584,584,584,584,584,584,584,584,584,584,584,584,575,558,536,476,447,425,402,378,334,317,311,308,308,307,307,307,307,307,307,307,307,307,306,290,272,239,199,141,78,0,0,0,0,0,0,0,3,10,20,42,50,57,62,67,74,76,77,78,79,81,82,84,85,87,89,94,97,98,98,98,98,96,94,92,91,89,86,83,80,75,74],"timestamp_mouse":[19,39,59,78,98,119,139,159,178,198,218,239,259,279,298,318,338,358,378,398,418,438,458,479,498,518,538,558,579,598,618,638,658,678,699,718,738,758,779,798,818,838,858,878,898,919,938,959,979,998,1018,1038,1058,1079,1098,1119,1138,1158,1178,1198,1218,1238,1258,1279,1299,1319,1338,1358,1378,1398,1419,1438,1458,1478,1498,1518,1538,1558,1578,1599,1618,1638,1658,1678,1699,1718,1738,1758,1779,1798,1819,1838,1858,1878,1898,1919,1939,1958,1978,1997,2018,2038,2058,2078,2098,2119,2138,2159],"xSR":741.5,"ySR":573.95,"xT1":424.9,"yT1":0,"xT2":1058.1,"yT2":0,"toosoon":0,"cond_shown":"randomdotsizeEA","ratio_trial":750,"smaller_num":"3","larger_num":"4","correct_side":2,"subjID":"samuelespinosacortes24","gender":"0","age":"11","school":"6"},{"start_time":1551893118788,"click_time":1551893119819,"finger_time":1551893119400,"fix_duration":1046.9954026838484,"trial":54,"RT":612,"MT":419,"sideResp":2,"stimulus":"img/500/equaldotsize/R/12_Ratio_500_L_1_R_2.png","xmouse":[780,780,780,780,780,780,780,780,780,780,780,780,780,780,780,780,780,780,780,780,780,780,780,780,780,780,780,780,782,815,864,927,993,1050,1116,1124,1128,1131,1131,1129,1125,1119,1107,1103,1091,1090,1089,1089,1089,1089,1089,1090],"ymouse":[626,626,626,626,626,626,626,626,626,626,626,626,626,626,626,626,626,626,626,626,626,626,626,626,626,626,626,626,625,602,571,526,479,437,364,345,329,310,288,244,230,215,189,178,134,123,114,109,104,103,101,98],"timestamp_mouse":[12,36,51,71,91,112,131,151,171,191,212,231,253,272,291,312,331,351,372,392,411,432,451,471,491,512,532,551,572,591,612,632,651,671,691,711,731,751,772,791,812,832,852,871,892,911,931,952,971,991,1011,1031],"xSR":741.5,"ySR":573.95,"xT1":424.9,"yT1":0,"xT2":1058.1,"yT2":0,"toosoon":0,"cond_shown":"equaldotsize","ratio_trial":500,"smaller_num":"1","larger_num":"2","correct_side":2,"subjID":"samuelespinosacortes24","gender":"0","age":"11","school":"6"},{"start_time":1551893121345,"click_time":1551893122560,"finger_time":1551893121979,"fix_duration":924.9541739640607,"trial":55,"RT":634,"MT":581,"sideResp":1,"stimulus":"img/500/equaldotanddens/L/10_Ratio_500_L_4_R_2.png","xmouse":[782,782,782,782,782,782,782,782,782,782,782,782,782,782,782,782,782,782,782,782,782,780,780,780,780,780,779,775,771,768,765,740,720,703,690,684,674,666,653,640,629,615,609,604,603,601,597,594,592,589,587,580,573,561,550,519,506,494,479,469,451],"ymouse":[654,654,654,654,654,654,654,654,654,654,654,654,654,654,654,654,654,654,654,654,655,656,656,656,656,656,656,656,652,640,614,544,507,476,444,419,359,342,324,310,296,281,273,264,258,254,248,243,239,234,231,220,211,199,189,159,143,131,118,110,93],"timestamp_mouse":[15,42,54,75,94,114,134,154,174,194,215,234,254,275,294,314,335,354,375,394,414,434,454,474,495,515,535,554,575,594,614,634,654,676,694,714,735,754,774,794,814,834,855,874,894,914,935,954,975,994,1014,1034,1055,1075,1095,1115,1134,1154,1174,1194,1215],"xSR":741.5,"ySR":573.95,"xT1":424.9,"yT1":0,"xT2":1058.1,"yT2":0,"toosoon":0,"cond_shown":"equaldotanddens","ratio_trial":500,"smaller_num":"2","larger_num":"4","correct_side":1,"subjID":"samuelespinosacortes24","gender":"0","age":"11","school":"6"},{"start_time":1551893123782,"click_time":1551893124659,"finger_time":1551893124359,"fix_duration":381.64837914802496,"trial":56,"RT":577,"MT":300,"sideResp":2,"stimulus":"img/900/randomdotsizeEA/R/15_Ratio_900_L_9_R_10.png","xmouse":[818,818,818,818,818,818,818,818,818,818,818,818,818,818,818,818,818,818,818,818,818,818,818,818,818,817,817,817,861,903,940,968,990,1008,1065,1096,1113,1124,1131,1137,1140,1142,1142,1142],"ymouse":[653,653,653,653,653,653,653,653,653,653,653,653,653,653,653,653,653,653,653,653,653,653,653,653,656,657,657,657,625,590,559,528,495,459,341,283,242,211,180,144,130,118,112,99],"timestamp_mouse":[31,38,57,77,98,117,138,157,178,197,218,237,257,277,297,318,337,357,378,397,417,437,458,477,497,518,537,557,577,597,617,637,658,678,698,717,737,758,777,797,818,838,858,877],"xSR":741.5,"ySR":573.95,"xT1":424.9,"yT1":0,"xT2":1058.1,"yT2":0,"toosoon":0,"cond_shown":"randomdotsizeEA","ratio_trial":900,"smaller_num":"9","larger_num":"10","correct_side":2,"subjID":"samuelespinosacortes24","gender":"0","age":"11","school":"6"},{"start_time":1551893126549,"click_time":1551893127359,"finger_time":1551893127220,"fix_duration":988.9756060605392,"trial":57,"RT":671,"MT":139,"sideResp":2,"stimulus":"img/900/equaldotanddens/R/5_Ratio_900_L_9_R_10.png","xmouse":[812,812,812,812,812,812,812,812,812,812,812,812,812,812,812,812,812,812,812,812,812,812,812,812,812,812,812,812,812,812,812,812,822,832,863,904,968,987,1011,1051,1124],"ymouse":[605,605,605,605,605,605,605,605,605,605,605,605,605,605,605,605,605,605,605,605,605,605,605,605,605,605,605,605,605,605,605,605,588,571,527,489,420,353,271,187,59],"timestamp_mouse":[10,36,50,70,90,111,130,150,171,192,210,231,250,270,291,311,330,350,370,391,410,430,450,470,490,511,531,550,570,590,612,631,651,671,690,710,731,751,771,790,810],"xSR":741.5,"ySR":573.95,"xT1":424.9,"yT1":0,"xT2":1058.1,"yT2":0,"toosoon":0,"cond_shown":"equaldotanddens","ratio_trial":900,"smaller_num":"9","larger_num":"10","correct_side":2,"subjID":"samuelespinosacortes24","gender":"0","age":"11","school":"6"},{"start_time":1551893129359,"click_time":1551893130240,"finger_time":1551893130079,"fix_duration":1298.6128099427515,"trial":58,"RT":720,"MT":161,"sideResp":1,"stimulus":"img/250/equaldotanddens/L/7_Ratio_250_L_8_R_2.png","xmouse":[761,761,761,761,761,760,759,759,759,759,759,759,759,759,759,759,759,759,759,759,759,759,759,759,759,759,759,759,759,759,759,759,759,759,759,758,753,750,742,724,675,648,615,556,473],"ymouse":[643,643,643,643,643,644,644,644,644,644,644,644,644,644,644,644,644,644,644,644,644,644,644,644,644,644,644,644,644,644,644,644,644,644,643,636,566,514,462,399,271,211,151,88,21],"timestamp_mouse":[8,33,40,61,81,100,120,140,160,180,201,221,240,260,280,301,320,340,361,380,400,421,440,462,481,500,520,540,560,580,601,620,641,660,681,701,720,740,760,780,800,820,841,861,881],"xSR":741.5,"ySR":573.95,"xT1":424.9,"yT1":0,"xT2":1058.1,"yT2":0,"toosoon":0,"cond_shown":"equaldotanddens","ratio_trial":250,"smaller_num":"2","larger_num":"8","correct_side":1,"subjID":"samuelespinosacortes24","gender":"0","age":"11","school":"6"},{"start_time":1551893132266,"click_time":1551893134160,"finger_time":1551893133421,"fix_duration":1383.1577180447125,"trial":59,"RT":1155,"MT":739,"sideResp":1,"stimulus":"img/750/randomdotsizeEA/L/9_Ratio_750_L_4_R_3.png","xmouse":[782,782,782,782,782,782,782,782,782,782,782,782,782,782,782,782,782,782,782,782,782,782,782,782,782,782,782,782,782,782,783,783,783,783,783,783,783,783,783,783,783,783,783,783,783,783,783,783,783,783,783,783,783,783,782,781,779,777,771,762,748,742,738,737,737,737,736,736,736,736,736,735,733,731,727,716,711,705,698,693,690,690,690,689,689,689,688,686,683,666,658,648,630,601,519],"ymouse":[666,666,666,666,666,666,666,666,666,666,666,666,666,666,666,666,666,666,666,666,666,666,666,666,666,666,666,666,666,666,662,658,656,655,652,648,642,638,634,629,620,617,615,614,614,614,614,614,613,613,613,613,611,610,604,598,587,573,556,535,513,507,503,501,501,501,500,500,500,500,500,500,498,493,488,473,467,460,453,448,446,446,446,445,445,445,442,435,423,376,347,304,252,189,81],"timestamp_mouse":[15,35,60,75,95,114,135,155,174,194,215,235,254,275,295,314,334,354,374,395,415,433,454,474,494,514,535,554,575,595,614,634,655,674,694,714,735,755,774,794,814,834,854,874,895,914,934,954,974,994,1014,1034,1055,1075,1095,1114,1135,1155,1175,1195,1215,1234,1254,1274,1295,1314,1334,1355,1373,1395,1415,1434,1454,1475,1494,1514,1534,1554,1574,1594,1614,1634,1654,1674,1694,1714,1734,1755,1774,1795,1814,1834,1854,1874,1894],"xSR":741.5,"ySR":573.95,"xT1":424.9,"yT1":0,"xT2":1058.1,"yT2":0,"toosoon":0,"cond_shown":"randomdotsizeEA","ratio_trial":750,"smaller_num":"3","larger_num":"4","correct_side":1,"subjID":"samuelespinosacortes24","gender":"0","age":"11","school":"6"},{"start_time":1551893136209,"click_time":1551893138120,"finger_time":1551893137141,"fix_duration":1026.6640698080407,"trial":60,"RT":932,"MT":979,"sideResp":2,"stimulus":"img/900/equaldotanddens/R/5_Ratio_900_L_9_R_10.png","xmouse":[804,804,804,804,804,804,804,804,804,804,804,804,804,804,804,804,804,804,804,804,804,804,804,804,804,804,804,804,804,804,804,804,804,804,804,804,804,804,804,804,804,804,804,812,824,838,864,903,914,924,938,953,975,977,982,986,993,997,1003,1005,1007,1009,1022,1034,1042,1049,1057,1066,1072,1075,1077,1079,1079,1080,1080,1080,1081,1083,1083,1084,1085,1088,1092,1096,1098,1098,1098,1098,1098,1098,1098,1098,1098,1099,1101,1102],"ymouse":[617,617,617,617,617,617,617,617,617,617,617,617,617,617,617,617,617,617,617,617,617,617,617,617,617,617,617,617,617,617,617,617,617,617,617,617,617,617,617,617,617,617,617,614,607,596,581,554,540,519,492,459,399,389,379,371,362,352,337,332,328,324,308,290,274,255,235,198,179,160,146,135,131,130,130,130,129,127,126,126,125,121,114,107,106,105,105,105,105,105,105,105,105,102,101,98],"timestamp_mouse":[11,32,51,72,91,111,130,151,171,192,211,231,252,271,291,312,331,351,371,392,411,432,452,471,491,512,532,552,572,592,611,631,651,671,691,711,731,751,771,791,811,830,851,871,891,911,932,951,971,991,1010,1031,1052,1071,1091,1111,1132,1152,1171,1191,1212,1232,1252,1271,1291,1311,1332,1351,1371,1391,1411,1431,1451,1471,1490,1511,1531,1551,1571,1591,1611,1631,1651,1671,1691,1712,1732,1751,1771,1791,1812,1831,1851,1871,1892,1911],"xSR":741.5,"ySR":573.95,"xT1":424.9,"yT1":0,"xT2":1058.1,"yT2":0,"toosoon":0,"cond_shown":"equaldotanddens","ratio_trial":900,"smaller_num":"9","larger_num":"10","correct_side":2,"subjID":"samuelespinosacortes24","gender":"0","age":"11","school":"6"},{"start_time":1551893139742,"click_time":1551893140780,"finger_time":1551893140300,"fix_duration":741.9845296063388,"trial":61,"RT":558,"MT":480,"sideResp":2,"stimulus":"img/900/equaldotsize/R/11_Ratio_900_L_18_R_20.png","xmouse":[811,811,811,811,811,809,808,807,806,806,805,804,803,802,801,801,800,800,800,800,800,800,800,800,800,800,811,830,863,904,948,1027,1053,1080,1105,1145,1160,1166,1172,1178,1186,1186,1187,1187,1187,1187,1187,1187,1183,1176,1165,1144],"ymouse":[593,593,593,593,594,595,596,597,599,600,600,602,603,605,606,606,608,608,608,608,608,608,608,608,608,608,587,562,524,488,446,367,331,288,250,174,139,121,106,93,74,67,58,52,48,46,46,46,46,47,49,51],"timestamp_mouse":[18,39,58,78,99,118,139,158,178,198,219,238,259,278,298,318,338,358,378,398,418,438,458,478,499,518,538,558,579,598,619,638,659,679,699,718,738,758,777,799,818,838,858,878,899,918,938,959,978,998,1018,1038],"xSR":741.5,"ySR":573.95,"xT1":424.9,"yT1":0,"xT2":1058.1,"yT2":0,"toosoon":0,"cond_shown":"equaldotsize","ratio_trial":900,"smaller_num":"18","larger_num":"20","correct_side":2,"subjID":"samuelespinosacortes24","gender":"0","age":"11","school":"6"},{"start_time":1551893141932,"click_time":1551893142840,"finger_time":1551893142380,"fix_duration":270.4680560243532,"trial":62,"RT":448,"MT":460,"sideResp":1,"stimulus":"img/500/equaldotsize/L/8_Ratio_500_L_8_R_4.png","xmouse":[770,770,770,770,770,770,770,770,770,770,770,770,770,770,770,770,773,774,775,775,775,777,777,780,781,783,787,788,788,780,766,729,707,697,688,677,647,617,598,577,556,536,507,498,494,491],"ymouse":[581,581,581,581,581,581,581,581,581,581,581,581,581,581,581,581,581,581,580,579,579,576,572,566,559,545,507,467,437,406,366,271,222,184,144,111,49,11,0,0,0,0,0,0,0,1],"timestamp_mouse":[9,29,58,69,88,108,128,148,167,188,208,229,248,268,288,308,329,349,368,388,408,429,448,468,489,509,529,548,568,588,608,628,648,668,689,708,729,747,768,788,808,828,848,868,888,908],"xSR":741.5,"ySR":573.95,"xT1":424.9,"yT1":0,"xT2":1058.1,"yT2":0,"toosoon":0,"cond_shown":"equaldotsize","ratio_trial":500,"smaller_num":"4","larger_num":"8","correct_side":1,"subjID":"samuelespinosacortes24","gender":"0","age":"11","school":"6"},{"start_time":1551893145073,"click_time":1551893146100,"finger_time":1551893145580,"fix_duration":1251.865539597575,"trial":63,"RT":507,"MT":520,"sideResp":2,"stimulus":"img/500/equaldotanddens/R/15_Ratio_500_L_1_R_2.png","xmouse":[765,765,765,765,765,765,765,765,765,765,765,765,765,765,765,765,765,765,765,765,765,765,765,765,767,786,798,809,823,948,1043,1134,1194,1232,1278,1284,1287,1287,1287,1287,1285,1283,1280,1277,1273,1258,1251,1242,1230,1187,1159,1139],"ymouse":[581,581,581,581,581,581,581,581,581,581,581,581,581,581,581,581,581,581,581,581,581,581,581,582,582,573,566,558,545,415,326,247,182,123,25,12,0,0,0,0,0,0,0,0,0,0,0,3,8,26,42,50],"timestamp_mouse":[9,36,46,67,87,107,127,148,168,187,207,227,247,268,287,307,327,347,368,387,407,427,447,467,487,507,527,547,568,588,607,627,647,668,687,707,727,747,768,787,808,827,847,867,887,907,927,947,968,987,1007,1027],"xSR":741.5,"ySR":573.95,"xT1":424.9,"yT1":0,"xT2":1058.1,"yT2":0,"toosoon":0,"cond_shown":"equaldotanddens","ratio_trial":500,"smaller_num":"1","larger_num":"2","correct_side":2,"subjID":"samuelespinosacortes24","gender":"0","age":"11","school":"6"},{"start_time":1551893148555,"click_time":1551893149460,"finger_time":1551893149061,"fix_duration":1054.342082115961,"trial":64,"RT":506,"MT":399,"sideResp":1,"stimulus":"img/900/equaldotanddens/R/14_Ratio_900_L_18_R_20.png","xmouse":[804,804,804,804,804,804,804,804,804,804,804,804,804,804,804,804,804,804,804,804,804,804,805,806,810,822,827,832,839,849,863,863,857,842,818,770,738,717,688,659,611,593,574,555,541,517],"ymouse":[582,582,582,582,582,582,582,582,582,582,582,582,582,582,582,582,582,582,582,582,582,582,582,582,577,557,545,529,509,487,435,411,384,357,321,259,220,200,183,169,142,128,113,100,88,68],"timestamp_mouse":[10,37,45,65,85,106,125,146,165,186,205,225,245,265,286,305,326,345,365,385,406,425,445,466,485,506,525,545,565,586,605,624,645,666,685,705,725,744,765,786,806,825,844,866,885,905],"xSR":741.5,"ySR":573.95,"xT1":424.9,"yT1":0,"xT2":1058.1,"yT2":0,"toosoon":0,"cond_shown":"equaldotanddens","ratio_trial":900,"smaller_num":"18","larger_num":"20","correct_side":2,"subjID":"samuelespinosacortes24","gender":"0","age":"11","school":"6"},{"start_time":1551893154099,"click_time":1551893155060,"finger_time":1551893154800,"fix_duration":1376.4007636654715,"trial":65,"RT":701,"MT":260,"sideResp":2,"stimulus":"img/900/equaldotanddens/R/3_Ratio_900_L_9_R_10.png","xmouse":[771,771,771,771,771,771,771,771,771,771,771,771,771,771,771,771,771,771,771,771,771,771,771,771,771,771,771,771,771,773,774,777,779,786,795,809,849,926,1105,1186,1211,1221,1223,1218,1212,1206,1199,1187,1154],"ymouse":[624,624,624,624,624,624,624,624,624,624,624,624,624,624,624,624,624,624,624,624,624,624,624,624,624,624,624,624,624,622,617,610,604,591,576,556,508,448,323,239,194,164,141,99,82,69,52,35,7],"timestamp_mouse":[8,22,42,61,81,101,122,141,161,181,201,220,242,262,282,301,321,341,361,382,402,421,441,461,481,501,521,541,561,581,601,622,641,661,681,701,721,740,762,781,801,822,842,861,881,902,922,941,961],"xSR":741.5,"ySR":573.95,"xT1":424.9,"yT1":0,"xT2":1058.1,"yT2":0,"toosoon":0,"cond_shown":"equaldotanddens","ratio_trial":900,"smaller_num":"9","larger_num":"10","correct_side":2,"subjID":"samuelespinosacortes24","gender":"0","age":"11","school":"6"},{"start_time":1551893157145,"click_time":1551893158281,"finger_time":1551893157740,"fix_duration":1203.1814796435779,"trial":66,"RT":595,"MT":541,"sideResp":2,"stimulus":"img/500/equaldotsize/R/14_Ratio_500_L_5_R_10.png","xmouse":[769,769,769,769,769,769,769,769,769,769,769,769,769,769,769,769,769,769,769,769,769,769,769,769,769,769,772,783,798,814,820,828,846,874,906,949,954,956,958,961,983,1004,1029,1045,1052,1064,1068,1072,1076,1078,1086,1088,1090,1090,1091,1092,1094],"ymouse":[634,634,634,634,634,634,634,634,634,634,634,634,634,634,634,634,634,634,634,634,634,634,634,634,634,634,625,605,576,542,517,468,415,351,295,224,212,204,197,191,173,164,154,147,143,136,132,128,125,121,115,111,109,107,105,102,94],"timestamp_mouse":[32,35,55,75,96,115,135,156,175,195,216,235,256,275,295,315,335,355,375,395,415,435,456,475,495,514,536,555,576,595,615,635,655,674,695,716,734,755,775,796,816,835,855,875,894,916,934,956,976,995,1015,1035,1055,1076,1095,1114,1136],"xSR":741.5,"ySR":573.95,"xT1":424.9,"yT1":0,"xT2":1058.1,"yT2":0,"toosoon":0,"cond_shown":"equaldotsize","ratio_trial":500,"smaller_num":"5","larger_num":"10","correct_side":2,"subjID":"samuelespinosacortes24","gender":"0","age":"11","school":"6"},{"start_time":1551893159424,"click_time":1551893160380,"finger_time":1551893160180,"fix_duration":362.93132946786733,"trial":67,"RT":756,"MT":200,"sideResp":1,"stimulus":"img/750/equaldotanddens/L/14_Ratio_750_L_8_R_6.png","xmouse":[819,819,819,819,819,819,819,819,819,819,819,819,819,819,819,819,819,819,819,819,819,819,819,819,819,819,819,819,819,819,819,816,809,801,794,785,780,765,755,738,712,685,629,604,572,541,469,447],"ymouse":[637,637,637,637,637,637,637,637,637,637,637,637,637,637,637,637,637,637,637,637,637,637,637,637,637,637,637,637,637,637,636,623,612,603,595,585,577,549,536,518,497,473,390,343,289,241,127,79],"timestamp_mouse":[17,38,56,77,96,116,136,156,177,196,216,237,257,277,296,317,336,356,375,397,417,437,456,476,496,516,537,556,576,596,616,636,656,676,697,717,736,756,776,796,816,836,856,876,896,916,937,956],"xSR":741.5,"ySR":573.95,"xT1":424.9,"yT1":0,"xT2":1058.1,"yT2":0,"toosoon":0,"cond_shown":"equaldotanddens","ratio_trial":750,"smaller_num":"6","larger_num":"8","correct_side":1,"subjID":"samuelespinosacortes24","gender":"0","age":"11","school":"6"},{"start_time":1551893161745,"click_time":1551893162941,"finger_time":1551893162440,"fix_duration":462.4510544557278,"trial":68,"RT":695,"MT":501,"sideResp":1,"stimulus":"img/900/randomdotsizeEA/R/6_Ratio_900_L_9_R_10.png","xmouse":[763,763,763,763,763,763,763,763,763,763,763,763,763,763,763,763,763,763,763,763,763,763,763,763,763,763,763,763,763,763,763,763,763,761,759,750,743,735,715,687,657,613,597,578,558,525,523,523,523,523,523,523,523,523,523,523,517,512,508,503],"ymouse":[602,602,602,602,602,602,602,602,602,602,602,602,602,602,602,602,602,602,602,602,602,602,602,602,602,602,602,602,602,602,600,596,589,580,568,538,511,487,448,405,361,273,231,187,157,123,121,121,121,121,121,121,121,121,121,121,118,110,102,94],"timestamp_mouse":[15,35,55,75,95,116,136,155,175,196,216,235,255,276,296,316,336,356,374,395,416,436,455,475,496,515,535,555,575,596,615,635,655,675,695,715,735,755,775,796,816,835,855,875,895,916,935,955,975,996,1016,1035,1056,1076,1095,1115,1135,1155,1174,1196],"xSR":741.5,"ySR":573.95,"xT1":424.9,"yT1":0,"xT2":1058.1,"yT2":0,"toosoon":0,"cond_shown":"randomdotsizeEA","ratio_trial":900,"smaller_num":"9","larger_num":"10","correct_side":2,"subjID":"samuelespinosacortes24","gender":"0","age":"11","school":"6"},{"start_time":1551893164627,"click_time":1551893165520,"finger_time":1551893165060,"fix_duration":766.3956185426299,"trial":69,"RT":433,"MT":460,"sideResp":2,"stimulus":"img/750/equaldotanddens/R/7_Ratio_750_L_3_R_4.png","xmouse":[774,774,775,775,775,775,775,775,775,775,775,775,775,775,775,775,782,789,790,790,786,784,790,796,802,808,813,833,854,878,901,947,956,960,967,977,992,994,997,1004,1019,1068,1080,1080,1080],"ymouse":[604,604,605,605,605,605,605,605,605,605,605,605,605,605,605,605,601,598,598,596,578,562,554,550,547,544,540,511,484,462,443,418,415,413,410,405,399,398,395,388,370,258,149,100,76],"timestamp_mouse":[14,34,54,73,94,114,134,153,173,193,214,233,253,273,293,313,333,353,373,394,413,433,453,473,493,513,533,553,573,593,614,633,653,673,694,714,733,753,773,793,814,834,852,873,893],"xSR":741.5,"ySR":573.95,"xT1":424.9,"yT1":0,"xT2":1058.1,"yT2":0,"toosoon":0,"cond_shown":"equaldotanddens","ratio_trial":750,"smaller_num":"3","larger_num":"4","correct_side":2,"subjID":"samuelespinosacortes24","gender":"0","age":"11","school":"6"},{"start_time":1551893167578,"click_time":1551893168360,"finger_time":1551893168060,"fix_duration":1016.7847361835002,"trial":70,"RT":482,"MT":300,"sideResp":1,"stimulus":"img/900/randomdotsizeEA/R/3_Ratio_900_L_9_R_10.png","xmouse":[772,772,772,772,772,772,772,772,772,772,772,772,772,772,772,772,772,772,772,775,783,795,801,803,793,772,765,760,748,732,672,638,612,592,573,531,517,508,497,480],"ymouse":[626,626,626,626,626,626,626,626,626,626,626,626,626,626,626,626,626,626,626,627,623,617,608,589,556,492,469,446,420,391,325,291,263,241,220,167,146,125,104,64],"timestamp_mouse":[13,35,43,62,83,102,121,143,163,182,203,223,242,263,282,302,322,343,362,382,402,423,442,461,482,502,522,542,563,582,602,622,643,662,682,703,722,742,762,782],"xSR":741.5,"ySR":573.95,"xT1":424.9,"yT1":0,"xT2":1058.1,"yT2":0,"toosoon":0,"cond_shown":"randomdotsizeEA","ratio_trial":900,"smaller_num":"9","larger_num":