[{"start_time":1551891748371,"click_time":1551891776278,"finger_time":1551891748383,"fix_duration":250,"trial":0,"RT":12,"MT":27895,"sideResp":2,"stimulus":[],"xmouse":[788,788,788,788,788,788,788,788,788,788,788,788,788,788,788,788,788,788,788,788,788,788,788,788,788,788,788,788,788,788,788,788,788,788,788,788,788,788,788,788,788,788,788,788,788,788,788,788,788,788,788,788,788,787,782,778,776,776,776,776,776,777,777,777,777,777,777,777,777,777,778,778,779,779,780,781,781,781,781,781,781,781,781,781,781,781,781,781,781,781,781,781,782,782,782,782,782,782,782,782,791,817,864,916,954,994,1008,1015,1020,1024,1030,1035,1037,1043,1043,1044,1044,1044,1044,1046,1050,1052,1055,1057,1058,1060,1062,1062,1062,1062,1062,1062,1062,1062,1062,1062,1062,1062,1062,1060,1055,1053,1049,1046,1043,1040,1039,1037,1035,1035,1035,1035,1035,1035,1035,1028,1017,1009,999,990,978,976,975,974,974,973,966,958,947,937,919,913,909,904,899,890,882,879,876,873,869,866,864,862,860,856,854,852,851,849,843,840,838,836,834,827,825,821,818,816,811,808,807,805,802,798,793,787,779,772,755,748,742,735,732,720,716,714,712,709,701,696,688,677,672,659,655,654,651,650,650,650,650,650,650,650,650,650,650,650,650,650,650,650,650,650,650,650,650,650,650,650,650,650,650,650,650,650,650,650,650,650,650,650,650,650,650,650,650,650,650,650,650,650,650,650,650,650,650,650,650,650,650,650,650,650,650,650,650,650,650,650,650,650,650,650,650,650,650,650,650,650,650,650,650,650,650,650,650,650,650,650,650,650,650,650,650,650,650,650,650,650,650,650,650,650,650,650,650,650,650,650,650,650,650,650,650,650,650,650,650,650,650,650,650,650,650,650,650,650,650,650,650,650,650,650,650,650,650,650,650,650,650,650,650,650,650,650,650,650,650,650,650,650,650,650,650,650,650,650,650,650,650,650,650,650,650,650,650,650,650,650,650,650,650,650,650,650,650,650,650,650,650,650,650,650,650,650,650,650,650,650,650,650,650,650,650,650,652,656,656,656,656,656,656,656,656,656,656,656,656,656,656,656,656,656,656,656,656,656,656,656,656,656,656,656,656,656,656,656,656,656,656,656,656,656,656,656,656,656,656,656,656,656,656,656,656,656,656,656,656,656,656,656,656,656,656,656,656,656,656,656,656,656,656,656,656,656,656,656,656,656,656,656,656,656,656,656,656,656,656,656,656,656,656,656,656,656,656,656,656,656,656,656,656,656,656,656,656,656,656,656,656,656,656,656,656,656,656,656,656,656,656,656,656,656,656,656,656,656,656,656,656,656,656,656,656,656,656,656,656,656,656,656,656,656,656,656,656,656,656,656,656,656,656,656,656,656,656,656,656,656,656,656,656,656,656,656,656,656,656,656,656,656,656,656,656,656,656,656,656,656,656,656,656,656,656,656,656,656,656,656,656,656,656,656,656,656,656,656,656,656,656,656,656,656,656,656,656,656,656,656,656,656,656,656,656,656,656,656,656,656,656,656,656,656,656,656,656,656,656,656,656,656,656,656,656,656,656,656,656,656,656,656,656,656,656,656,656,656,656,656,656,656,656,656,656,656,656,656,656,656,656,656,656,656,656,656,656,656,656,656,656,656,656,656,656,656,656,656,656,656,656,656,656,656,656,656,656,656,656,656,656,656,656,656,656,656,656,656,656,656,656,656,656,656,656,656,656,656,656,656,656,656,656,656,656,656,656,656,656,656,656,656,656,656,656,656,656,656,656,656,656,656,656,656,656,656,656,656,656,656,656,656,656,656,656,656,656,656,656,656,656,656,656,656,656,656,656,656,656,656,656,656,656,656,656,656,656,656,656,656,656,656,656,656,656,656,656,656,656,656,656,656,656,656,656,656,656,656,656,656,656,656,656,656,656,656,656,656,656,656,656,656,656,656,656,656,656,656,656,656,656,656,656,656,656,656,656,656,656,656,656,656,656,656,656,656,656,656,656,656,656,656,656,656,656,656,656,656,656,656,656,656,656,656,656,656,656,656,656,656,656,656,656,656,656,656,656,656,656,656,656,656,656,656,656,656,656,656,656,656,656,656,656,656,656,656,656,656,656,656,656,656,656,656,656,656,656,656,656,656,656,656,656,656,656,656,656,656,656,656,656,656,656,656,656,656,656,656,656,656,656,656,656,656,656,656,656,656,656,656,656,656,656,656,656,656,656,656,656,656,656,656,656,656,656,656,656,656,656,656,656,656,656,656,656,656,656,656,656,656,656,656,656,656,656,656,656,656,656,656,656,656,656,656,656,656,656,656,656,656,656,656,656,656,656,656,656,656,656,656,656,656,656,656,656,656,656,656,656,656,656,656,656,656,656,656,656,656,656,656,656,656,656,656,656,656,656,656,656,656,656,656,656,656,656,656,656,656,656,656,656,656,656,656,656,656,656,656,656,656,656,656,656,656,656,656,656,656,656,656,656,656,656,656,656,656,656,656,656,656,656,656,656,656,656,656,656,656,656,656,656,656,656,656,656,656,656,656,656,656,656,656,656,656,656,656,656,656,656,656,656,656,655,655,655,655,655,655,655,655,655,655,655,655,655,655,655,655,655,655,655,655,655,655,655,655,655,655,655,655,655,655,655,655,655,655,655,655,655,655,655,655,655,655,655,655,655,655,655,655,655,655,655,655,655,655,655,655,655,655,655,655,655,655,655,655,655,655,655,655,655,655,655,655,655,655,655,655,655,655,655,655,655,655,655,655,655,655,655,655,655,655,655,655,655,655,655,655,655,655,655,655,655,655,655,655,655,655,655,655,655,655,655,655,655,655,655,655,655,655,655,655,655,655,655,655,655,655,655,655,655,655,655,655,655,655,655,655,655,655,655,655,655,655,655,655,655,655,655,655,655,655,655,655,655,655,655,655,655,655,655,655,655,655,655,655,658,662,662,662,662,662,662,662,662,662,673,683,687,687,687,687,687,691,698,708,706,704,706,710,712,713,716,697,667,638,614,597,592,593,603,615,632,694,711,731,741,750,753,744,731,714,712,711,715,720,727,729,734,739,744,759,774,811,816,817,817,817,817,817,813,810,810,809,809,809,810,818,854,872,885,891,892,893,892,894,901,920,975,997,1024,1041,1052,1061,1063,1063,1063,1063,1063,1063,1063,1063,1063,1063,1063,1059,1056,1055,1054,1054,1054,1054,1054,1054,1054,1054,1054,1054,1054,1054,1054,1054,1053,1049,1044,1043,1042,1041,1041,1040,1040,1040,1040,1040,1040,1041,1049,1052,1058,1060,1063,1066,1069,1071],"ymouse":[535,535,535,535,534,534,534,534,534,534,534,534,534,534,534,534,534,534,534,534,534,534,534,534,534,534,534,534,534,534,534,534,534,534,534,534,534,534,534,534,534,534,534,534,534,534,534,534,534,534,534,534,534,539,552,567,573,574,577,582,593,597,600,601,601,601,601,601,601,603,606,615,617,619,622,627,628,629,629,629,629,629,629,629,629,629,629,629,629,630,630,630,630,630,630,630,630,630,630,630,618,582,516,450,391,308,265,246,232,224,213,206,196,186,186,183,183,183,183,182,177,172,168,165,162,158,155,154,154,153,153,153,153,153,153,153,153,153,154,160,169,173,179,182,186,188,189,191,191,191,191,191,191,191,192,198,210,221,235,244,261,264,265,266,266,267,268,270,274,276,281,282,285,287,289,294,299,301,304,304,307,308,310,311,313,316,318,319,320,322,327,329,332,333,335,341,342,345,348,350,354,356,357,358,359,362,365,368,370,372,377,380,381,384,384,386,387,387,387,388,393,401,404,410,413,419,420,420,420,420,420,420,420,420,420,420,420,420,420,420,420,420,420,420,420,420,420,420,420,420,420,420,420,420,420,420,420,420,420,420,420,420,420,420,420,420,420,420,420,420,420,420,420,420,420,420,420,420,420,420,420,420,420,420,420,420,420,420,420,420,420,420,420,420,420,420,420,420,420,420,420,420,420,420,420,420,420,420,420,420,420,420,420,420,420,420,420,420,420,420,420,420,420,420,420,420,420,420,420,420,420,420,420,420,420,420,420,420,420,420,420,420,420,420,420,420,420,420,420,420,420,420,420,420,420,420,420,420,420,420,420,420,420,420,420,420,420,420,420,420,420,420,420,420,420,420,420,420,420,420,420,420,420,420,420,420,420,420,420,420,420,420,420,420,420,420,420,420,420,420,420,420,420,420,420,420,420,420,420,420,420,420,420,420,420,420,420,420,424,429,432,432,432,432,432,432,432,432,432,432,432,432,432,432,432,432,432,432,432,432,432,432,432,432,432,432,432,432,432,432,432,432,432,432,432,432,432,432,432,432,432,432,432,432,432,432,432,432,432,432,432,432,432,432,432,432,432,432,432,432,432,432,432,432,432,432,432,432,432,432,432,432,432,432,432,432,432,432,432,432,432,432,432,432,432,432,432,432,432,432,432,432,432,432,432,432,432,432,432,432,432,432,432,432,432,432,432,432,432,432,432,432,432,432,432,432,432,432,432,432,432,432,432,432,432,432,432,432,432,432,432,432,432,432,432,432,432,432,432,432,432,432,432,432,432,432,432,432,432,432,432,432,432,432,432,432,432,432,432,432,432,432,432,432,432,432,432,432,432,432,432,432,432,432,432,432,432,432,432,432,432,432,432,432,432,432,432,432,432,432,432,432,432,432,432,432,432,432,432,432,432,432,432,432,432,432,432,432,432,432,432,432,432,432,432,432,432,432,432,432,432,432,432,432,432,432,432,432,432,432,432,432,432,432,432,432,432,432,432,432,432,432,432,432,432,432,432,432,432,432,432,432,432,432,432,432,432,432,432,432,432,432,432,432,432,432,432,432,432,432,432,432,432,432,432,432,432,432,432,432,432,432,432,432,432,432,432,432,432,432,432,432,432,432,432,432,432,432,432,432,432,432,432,432,432,432,432,432,432,432,432,432,432,432,432,432,432,432,432,432,432,432,432,432,432,432,432,432,432,432,432,432,432,432,432,432,432,432,432,432,432,432,432,432,432,432,432,432,432,432,432,432,432,432,432,432,432,432,432,432,432,432,432,432,432,432,432,432,432,432,432,432,432,432,432,432,432,432,432,432,432,432,432,432,432,432,432,432,432,432,432,432,432,432,432,432,432,432,432,432,432,432,432,432,432,432,432,432,432,432,432,432,432,432,432,432,432,432,432,432,432,432,432,432,432,432,432,432,432,432,432,432,432,432,432,432,432,432,432,432,432,432,432,432,432,432,432,432,432,432,432,432,432,432,432,432,432,432,432,432,432,432,432,432,432,432,432,432,432,432,432,432,432,432,432,432,432,432,432,432,432,432,432,432,432,432,432,432,432,432,432,432,432,432,432,432,432,432,432,432,432,432,432,432,432,432,432,432,432,432,432,432,432,432,432,432,432,432,432,432,432,432,432,432,432,432,432,432,432,432,432,432,432,432,432,432,432,432,432,432,432,432,432,432,432,432,432,432,432,432,432,432,432,432,432,432,432,432,432,432,432,432,432,432,432,432,432,432,432,432,432,432,432,432,432,432,432,432,432,432,432,432,432,432,432,432,432,432,432,432,432,432,432,432,432,432,432,432,432,432,432,432,432,432,432,432,432,432,432,432,432,432,432,432,432,432,432,432,432,432,432,432,432,432,432,432,432,432,432,432,432,432,432,432,432,432,432,432,432,432,432,432,432,432,432,432,432,432,432,432,432,432,432,432,432,432,432,432,432,432,432,432,432,432,432,432,432,432,432,432,432,433,433,435,436,436,436,436,436,436,436,436,436,436,436,436,436,436,436,436,436,436,436,436,436,436,436,436,436,436,436,436,436,436,436,436,436,436,436,436,436,436,436,436,436,436,436,436,436,436,436,436,436,436,436,436,436,436,436,436,436,436,436,436,436,436,436,436,436,436,436,436,436,436,436,436,436,436,436,436,436,436,436,436,436,436,436,436,436,436,436,436,436,436,436,436,436,436,436,436,436,436,436,436,436,436,436,436,436,436,436,436,436,436,436,436,436,436,436,436,436,436,436,436,436,436,436,436,436,436,436,436,436,436,436,436,436,436,436,436,436,436,436,436,436,436,436,436,436,436,436,436,436,436,436,436,436,436,436,436,436,436,436,436,436,436,436,436,434,433,432,432,432,432,432,432,432,432,439,457,474,474,474,474,474,474,474,475,480,487,505,511,512,512,506,390,305,238,193,162,148,144,138,134,132,153,160,175,194,227,334,421,518,583,595,600,620,636,646,648,650,652,650,639,624,594,591,590,590,590,590,598,613,627,633,636,636,636,635,623,568,542,521,505,497,490,485,467,441,393,309,276,238,212,192,174,172,170,170,170,170,170,170,170,170,170,169,172,175,176,177,177,177,177,177,177,177,177,177,177,177,177,177,177,178,181,181,181,177,175,172,170,167,163,158,157,155,152,135,126,117,114,111,107,102,98],"timestamp_mouse":[11,44,46,66,87,107,127,147,167,187,207,226,247,266,286,306,327,346,367,386,406,427,446,466,486,507,526,546,566,586,606,626,646,666,686,706,726,746,767,786,807,826,846,866,886,907,927,946,966,986,1007,1028,1047,1066,1086,1106,1126,1146,1167,1187,1206,1226,1246,1266,1287,1308,1326,1347,1367,1386,1406,1426,1446,1466,1486,1506,1526,1547,1566,1586,1606,1626,1646,1666,1686,1706,1726,1746,1766,1787,1806,1826,1846,1866,1886,1906,1927,1946,1967,1986,2006,2026,2047,2066,2087,2106,2126,2146,2166,2186,2206,2226,2246,2267,2287,2306,2328,2346,2366,2386,2407,2426,2446,2466,2487,2506,2526,2547,2566,2587,2607,2627,2646,2667,2687,2706,2726,2747,2766,2786,2806,2826,2846,2866,2887,2906,2926,2947,2966,2986,3006,3026,3047,3066,3087,3106,3127,3147,3166,3186,3206,3226,3247,3267,3287,3306,3326,3346,3366,3386,3407,3426,3446,3466,3487,3506,3526,3546,3567,3586,3606,3626,3646,3666,3686,3706,3726,3747,3766,3786,3806,3826,3847,3866,3887,3906,3926,3947,3967,3986,4006,4026,4046,4067,4087,4106,4127,4147,4166,4187,4207,4226,4246,4266,4288,4307,4326,4347,4367,4386,4406,4426,4447,4466,4487,4507,4526,4546,4567,4587,4606,4627,4646,4666,4686,4707,4727,4746,4767,4786,4807,4826,4846,4866,4887,4907,4927,4947,4966,4987,5007,5027,5047,5066,5086,5106,5126,5146,5167,5186,5206,5227,5247,5267,5286,5306,5326,5346,5366,5386,5406,5427,5447,5466,5486,5506,5526,5547,5566,5586,5607,5627,5646,5666,5686,5706,5726,5746,5766,5787,5806,5826,5846,5866,5886,5907,5926,5946,5968,5986,6006,6026,6046,6066,6087,6107,6127,6146,6166,6186,6206,6227,6248,6266,6287,6306,6326,6348,6366,6387,6407,6426,6446,6467,6487,6506,6526,6546,6566,6586,6606,6626,6648,6666,6686,6706,6726,6746,6766,6786,6806,6827,6846,6866,6886,6907,6927,6947,6966,6986,7008,7026,7046,7066,7086,7106,7127,7147,7166,7187,7206,7226,7246,7266,7286,7306,7326,7348,7366,7387,7406,7426,7447,7466,7487,7507,7526,7546,7567,7586,7606,7627,7647,7667,7687,7706,7727,7746,7766,7786,7806,7826,7848,7866,7886,7906,7928,7946,7966,7987,8006,8026,8046,8067,8087,8106,8126,8147,8167,8186,8206,8228,8247,8266,8288,8306,8326,8346,8367,8386,8406,8426,8446,8466,8486,8507,8526,8546,8566,8587,8606,8626,8647,8666,8686,8706,8727,8746,8767,8787,8807,8827,8847,8866,8887,8907,8926,8947,8966,8987,9006,9026,9046,9067,9087,9107,9126,9147,9166,9187,9206,9227,9246,9267,9286,9307,9326,9346,9366,9387,9407,9426,9447,9466,9487,9507,9526,9546,9567,9587,9606,9625,9647,9666,9686,9707,9726,9747,9767,9786,9807,9827,9846,9867,9886,9906,9926,9947,9966,9987,10007,10027,10047,10066,10087,10107,10126,10146,10167,10187,10207,10227,10247,10266,10287,10306,10326,10347,10366,10387,10406,10426,10447,10467,10486,10507,10526,10546,10566,10586,10607,10626,10646,10666,10687,10707,10726,10747,10767,10787,10806,10826,10848,10866,10886,10907,10926,10946,10967,10987,11006,11027,11046,11067,11087,11106,11127,11146,11166,11186,11207,11227,11247,11266,11286,11307,11326,11347,11366,11386,11407,11426,11447,11466,11487,11506,11526,11546,11566,11587,11607,11626,11646,11666,11687,11706,11726,11747,11767,11786,11806,11827,11846,11867,11887,11906,11926,11946,11966,11987,12006,12026,12046,12066,12087,12106,12126,12147,12166,12186,12207,12227,12246,12266,12286,12306,12326,12346,12367,12386,12407,12427,12446,12466,12486,12507,12526,12547,12566,12587,12607,12626,12646,12667,12686,12706,12726,12746,12767,12787,12806,12826,12846,12866,12887,12906,12928,12946,12966,12987,13006,13027,13046,13067,13087,13106,13126,13147,13166,13186,13207,13227,13247,13266,13287,13306,13326,13347,13366,13386,13406,13426,13447,13466,13487,13506,13526,13546,13567,13587,13607,13626,13647,13666,13686,13707,13727,13747,13766,13787,13806,13826,13846,13866,13886,13906,13926,13947,13966,13987,14007,14027,14046,14067,14086,14107,14126,14147,14166,14187,14206,14227,14247,14267,14287,14307,14326,14347,14366,14387,14407,14427,14447,14467,14486,14507,14526,14547,14566,14587,14607,14627,14647,14666,14687,14706,14726,14746,14766,14787,14806,14826,14846,14867,14886,14907,14926,14946,14967,14986,15007,15027,15046,15067,15086,15107,15126,15147,15167,15187,15206,15226,15246,15267,15287,15306,15327,15346,15368,15386,15407,15426,15446,15466,15487,15506,15526,15547,15567,15587,15607,15626,15646,15666,15686,15707,15726,15746,15767,15786,15806,15826,15846,15866,15887,15907,15926,15947,15967,15986,16007,16027,16046,16066,16086,16107,16127,16147,16167,16186,16206,16226,16246,16266,16287,16307,16327,16347,16367,16386,16407,16427,16446,16466,16486,16507,16526,16546,16567,16586,16606,16627,16647,16666,16686,16707,16726,16747,16766,16786,16807,16826,16846,16867,16887,16906,16926,16946,16966,16987,17007,17026,17046,17066,17086,17107,17126,17146,17167,17186,17206,17227,17246,17266,17288,17306,17326,17346,17367,17387,17406,17426,17446,17467,17487,17506,17526,17546,17567,17586,17607,17626,17647,17667,17687,17706,17726,17746,17766,17787,17806,17827,17847,17866,17887,17906,17926,17946,17966,17986,18006,18026,18046,18066,18087,18107,18127,18147,18166,18187,18207,18226,18247,18267,18287,18306,18327,18346,18366,18387,18407,18427,18446,18466,18487,18506,18527,18546,18567,18587,18607,18627,18647,18666,18687,18707,18727,18746,18767,18787,18806,18826,18847,18866,18886,18906,18927,18946,18967,18987,19006,19026,19046,19067,19087,19107,19126,19146,19166,19186,19206,19226,19247,19266,19286,19306,19326,19346,19366,19386,19407,19427,19446,19467,19486,19506,19527,19546,19566,19586,19607,19626,19647,19666,19687,19706,19727,19747,19766,19787,19806,19827,19847,19866,19886,19906,19926,19946,19967,19986,20006,20027,20046,20066,20087,20107,20126,20146,20167,20186,20206,20226,20247,20266,20287,20307,20326,20346,20366,20387,20406,20428,20446,20466,20487,20506,20528,20547,20566,20586,20606,20626,20647,20667,20687,20706,20727,20746,20766,20786,20806,20827,20847,20866,20886,20906,20926,20946,20967,20986,21006,21026,21046,21067,21086,21107,21126,21147,21166,21187,21207,21226,21246,21267,21288,21307,21326,21346,21367,21387,21407,21426,21447,21466,21486,21506,21526,21546,21566,21587,21606,21627,21646,21666,21686,21707,21726,21747,21767,21786,21806,21826,21846,21866,21886,21906,21927,21946,21967,21986,22006,22026,22047,22066,22086,22107,22127,22147,22167,22186,22206,22226,22246,22267,22286,22307,22326,22347,22366,22387,22406,22426,22446,22467,22486,22506,22526,22546,22566,22586,22606,22626,22647,22666,22686,22706,22727,22747,22767,22787,22807,22826,22846,22866,22886,22906,22927,22947,22967,22986,23006,23026,23046,23067,23087,23106,23127,23146,23166,23187,23206,23227,23246,23266,23286,23306,23326,23346,23367,23387,23407,23427,23447,23466,23487,23507,23527,23547,23566,23586,23607,23626,23646,23667,23686,23706,23727,23747,23766,23787,23806,23828,23847,23867,23887,23907,23927,23947,23967,23986,24006,24027,24046,24066,24087,24107,24127,24146,24166,24186,24207,24226,24246,24266,24287,24306,24326,24346,24367,24387,24407,24426,24447,24466,24487,24506,24527,24547,24567,24587,24606,24627,24646,24666,24686,24707,24727,24747,24766,24787,24807,24826,24846,24867,24886,24907,24927,24946,24967,24987,25006,25026,25047,25066,25087,25107,25126,25146,25166,25187,25207,25226,25247,25266,25288,25306,25327,25346,25366,25387,25406,25426,25446,25466,25487,25506,25526,25546,25566,25586,25607,25626,25646,25668,25687,25707,25726,25746,25766,25786,25806,25826,25847,25866,25887,25907,25927,25947,25966,25987,26007,26027,26047,26066,26087,26106,26127,26147,26166,26186,26206,26226,26246,26267,26287,26306,26327,26347,26366,26386,26407,26426,26446,26466,26486,26507,26527,26546,26566,26586,26606,26626,26646,26666,26686,26705,26726,26746,26766,26786,26806,26826,26846,26866,26887,26907,26927,26946,26966,26986,27007,27026,27047,27066,27086,27107,27126,27147,27166,27187,27207,27232,27247,27267,27286,27306,27327,27347,27366,27386,27407,27426,27446,27466,27486,27507,27527,27546,27566,27586,27606,27626,27647,27666,27686,27707,27726,27746,27766,27786,27806,27826,27846,27866,27887,27906],"xSR":741.5,"ySR":501.8,"xT1":424.9,"yT1":0,"xT2":1058.1,"yT2":0,"toosoon":0,"cond_shown":"Congruent","ratio_trial":300,"L_num":5,"L_den":25,"R_num":7,"R_den":14,"correct_side":2,"subjID":"samuelespinosacortes24","gender":"0","age":"11","school":"6","test":{"fix_dur":[250,1500],"timestim":1000,"targets_dim":[100,100],"targets_relative_coord":[0.3,0.7],"size_stim":[880,420],"start_dim":[100,100],"size_start":[300,300],"size_fix":60,"samplingrate":20,"img_types":["Congruent","Incongruent"],"ratios":[100,200,300],"rep_conds":19,"nTrials":120,"trials_to_rest":500,"Trials_order":[76,10,117,18,95,109,11,50,42,35,56,82,8,64,60,63,13,118,98,83,114,17,26,52,102,27,105,29,32,100,85,20,38,51,6,41,34,107,111,46,101,37,110,21,1,54,97,44,45,65,96,36,88,80,116,113,15,48,0,53,47,7,40,12,31,71,24,106,79,74,89,115,9,68,33,23,77,19,61,3,75,103,72,91,94,5,99,16,2,90,62,30,73,86,55,92,66,14,70,69,49,59,119,93,25,57,43,112,58,108,104,67,87,84,4,22,39,78,28,81],"cond_shown":["Congruent","Congruent","Incongruent","Congruent","Incongruent","Incongruent","Incongruent","Congruent","Congruent","Incongruent","Congruent","Congruent","Congruent","Congruent","Congruent","Incongruent","Incongruent","Congruent","Congruent","Incongruent","Congruent","Incongruent","Congruent","Congruent","Congruent","Incongruent","Incongruent","Incongruent","Congruent","Congruent","Incongruent","Congruent","Congruent","Incongruent","Congruent","Incongruent","Congruent","Incongruent","Incongruent","Congruent","Incongruent","Incongruent","Congruent","Incongruent","Incongruent","Congruent","Incongruent","Congruent","Incongruent","Incongruent","Congruent","Congruent","Congruent","Congruent","Congruent","Incongruent","Incongruent","Congruent","Congruent","Incongruent","Incongruent","Incongruent","Congruent","Congruent","Incongruent","Incongruent","Congruent","Congruent","Incongruent","Congruent","Incongruent","Incongruent","Incongruent","Congruent","Incongruent","Incongruent","Incongruent","Incongruent","Incongruent","Incongruent","Incongruent","Incongruent","Congruent","Incongruent","Congruent","Incongruent","Incongruent","Congruent","Congruent","Congruent","Congruent","Congruent","Incongruent","Congruent","Incongruent","Congruent","Congruent","Congruent","Congruent","Incongruent","Incongruent","Incongruent","Incongruent","Incongruent","Incongruent","Incongruent","Incongruent","Congruent","Congruent","Congruent","Congruent","Incongruent","Incongruent","Congruent","Congruent","Congruent","Incongruent","Congruent","Congruent","Incongruent"],"ratio_trial":[300,300,200,100,300,100,300,200,100,300,200,300,200,300,100,200,100,300,200,300,100,300,200,300,100,200,200,300,200,300,100,200,200,200,100,300,300,300,200,300,300,100,200,200,100,100,100,200,200,300,100,100,300,200,200,300,200,100,100,300,300,100,300,100,100,300,100,300,100,200,300,100,200,200,200,300,300,100,100,200,200,100,100,100,300,300,200,300,200,100,200,100,100,200,100,200,100,200,300,200,100,300,300,200,100,200,100,300,300,100,200,100,200,100,300,300,200,100,300,200],"left_num":[5,1,3,2,4,6,8,3,3,3,1,3,11,7,2,4,13,7,8,7,9,13,3,20,4,3,7,4,12,5,9,3,6,4,7,4,4,4,7,3,4,12,8,7,2,11,4,13,14,4,12,8,11,16,15,1,4,3,7,4,2,3,8,3,1,1,9,7,12,7,4,6,3,16,4,4,3,12,8,1,14,10,6,3,1,4,14,1,13,1,20,3,9,3,10,3,1,3,20,4,2,4,4,1,6,1,6,20,8,1,13,10,7,2,1,5,6,7,24,7],"right_num":[7,6,11,6,2,13,14,9,2,4,21,2,3,20,6,1,12,20,7,8,8,12,9,5,6,11,6,6,6,6,13,11,11,1,9,2,2,8,6,2,2,9,3,14,8,4,8,14,12,2,13,2,1,12,4,3,6,4,9,2,6,8,10,4,8,2,8,20,9,18,6,13,1,12,14,2,4,9,6,3,6,8,15,8,7,8,6,8,14,18,9,2,13,14,8,11,18,9,13,1,8,2,8,3,3,2,7,9,1,18,14,9,6,6,6,6,3,15,2,14],"left_den":[25,5,4,5,20,10,10,12,6,6,2,6,22,14,5,30,26,14,15,10,15,26,12,25,8,4,15,5,20,25,15,10,20,30,14,20,5,5,15,6,20,24,15,10,4,22,8,26,30,20,30,16,22,20,25,2,5,20,14,20,4,5,15,20,2,2,15,14,24,15,5,10,10,20,6,20,6,24,16,2,30,25,12,5,20,5,30,30,26,2,25,6,15,6,25,10,2,12,25,30,4,20,5,2,12,3,10,25,16,2,26,25,15,5,5,25,20,14,30,10],"right_den":[14,12,20,12,4,26,28,20,5,20,30,10,10,25,12,3,20,25,21,20,16,15,20,10,10,20,9,12,15,12,26,22,22,3,15,4,4,16,9,10,4,15,9,28,20,10,20,20,18,4,26,5,5,20,10,15,10,16,15,4,30,16,12,16,20,10,16,25,15,27,12,26,2,20,30,4,20,15,10,10,9,16,25,16,20,16,9,24,20,30,15,5,26,20,16,22,30,20,26,3,20,4,16,10,5,15,14,18,5,30,20,18,9,12,12,12,6,25,4,28],"correct_side":[2,2,1,2,2,1,1,2,1,1,2,1,1,2,2,2,2,2,1,1,1,2,2,1,2,1,2,1,1,2,1,2,2,2,2,2,1,1,2,1,2,2,1,1,1,1,1,2,2,2,2,1,1,1,1,1,1,2,2,2,1,1,2,2,1,1,1,2,2,2,1,1,2,1,1,2,1,2,2,1,2,2,2,1,2,1,2,2,2,2,1,1,1,2,2,2,2,2,1,2,1,2,1,1,2,1,1,1,1,2,2,2,2,2,2,2,2,2,1,1],"img_shown":["img2/300/Congruent/R/C_Dist_300_LN_5_LD_25_RN_7_RD_14_1.png","img2/300/Congruent/R/C_Dist_300_LN_1_LD_5_RN_6_RD_12_1.png","img2/200/Incongruent/L/I_Dist_200_LN_3_LD_4_RN_11_RD_20_0.png","img2/100/Congruent/R/C_Dist_100_LN_2_LD_5_RN_6_RD_12_1.png","img2/300/Incongruent/R/I_Dist_300_LN_4_LD_20_RN_2_RD_4_1.png","img2/100/Incongruent/L/I_Dist_100_LN_6_LD_10_RN_13_RD_26_0.png","img2/300/Incongruent/L/I_Dist_300_LN_8_LD_10_RN_14_RD_28_0.png","img2/200/Congruent/R/C_Dist_200_LN_3_LD_12_RN_9_RD_20_1.png","img2/100/Congruent/L/C_Dist_100_LN_3_LD_6_RN_2_RD_5_0.png","img2/300/Incongruent/L/I_Dist_300_LN_3_LD_6_RN_4_RD_20_0.png","img2/200/Congruent/R/C_Dist_200_LN_1_LD_2_RN_21_RD_30_1.png","img2/300/Congruent/L/C_Dist_300_LN_3_LD_6_RN_2_RD_10_0.png","img2/200/Congruent/L/C_Dist_200_LN_11_LD_22_RN_3_RD_10_0.png","img2/300/Congruent/R/C_Dist_300_LN_7_LD_14_RN_20_RD_25_1.png","img2/100/Congruent/R/C_Dist_100_LN_2_LD_5_RN_6_RD_12_1.png","img2/200/Incongruent/R/I_Dist_200_LN_4_LD_30_RN_1_RD_3_1.png","img2/100/Incongruent/R/I_Dist_100_LN_13_LD_26_RN_12_RD_20_1.png","img2/300/Congruent/R/C_Dist_300_LN_7_LD_14_RN_20_RD_25_1.png","img2/200/Congruent/L/C_Dist_200_LN_8_LD_15_RN_7_RD_21_0.png","img2/300/Incongruent/L/I_Dist_300_LN_7_LD_10_RN_8_RD_20_0.png","img2/100/Congruent/L/C_Dist_100_LN_9_LD_15_RN_8_RD_16_0.png","img2/300/Incongruent/R/I_Dist_300_LN_13_LD_26_RN_12_RD_15_1.png","img2/200/Congruent/R/C_Dist_200_LN_3_LD_12_RN_9_RD_20_1.png","img2/300/Congruent/L/C_Dist_300_LN_20_LD_25_RN_5_RD_10_0.png","img2/100/Congruent/R/C_Dist_100_LN_4_LD_8_RN_6_RD_10_1.png","img2/200/Incongruent/L/I_Dist_200_LN_3_LD_4_RN_11_RD_20_0.png","img2/200/Incongruent/R/I_Dist_200_LN_7_LD_15_RN_6_RD_9_1.png","img2/300/Incongruent/L/I_Dist_300_LN_4_LD_5_RN_6_RD_12_0.png","img2/200/Congruent/L/C_Dist_200_LN_12_LD_20_RN_6_RD_15_0.png","img2/300/Congruent/R/C_Dist_300_LN_5_LD_25_RN_6_RD_12_1.png","img2/100/Incongruent/L/I_Dist_100_LN_9_LD_15_RN_13_RD_26_0.png","img2/200/Congruent/R/C_Dist_200_LN_3_LD_10_RN_11_RD_22_1.png","img2/200/Congruent/R/C_Dist_200_LN_6_LD_20_RN_11_RD_22_1.png","img2/200/Incongruent/R/I_Dist_200_LN_4_LD_30_RN_1_RD_3_1.png","img2/100/Congruent/R/C_Dist_100_LN_7_LD_14_RN_9_RD_15_1.png","img2/300/Incongruent/R/I_Dist_300_LN_4_LD_20_RN_2_RD_4_1.png","img2/300/Congruent/L/C_Dist_300_LN_4_LD_5_RN_2_RD_4_0.png","img2/300/Incongruent/L/I_Dist_300_LN_4_LD_5_RN_8_RD_16_0.png","img2/200/Incongruent/R/I_Dist_200_LN_7_LD_15_RN_6_RD_9_1.png","img2/300/Congruent/L/C_Dist_300_LN_3_LD_6_RN_2_RD_10_0.png","img2/300/Incongruent/R/I_Dist_300_LN_4_LD_20_RN_2_RD_4_1.png","img2/100/Incongruent/R/I_Dist_100_LN_12_LD_24_RN_9_RD_15_1.png","img2/200/Congruent/L/C_Dist_200_LN_8_LD_15_RN_3_RD_9_0.png","img2/200/Incongruent/L/I_Dist_200_LN_7_LD_10_RN_14_RD_28_0.png","img2/100/Incongruent/L/I_Dist_100_LN_2_LD_4_RN_8_RD_20_0.png","img2/100/Congruent/L/C_Dist_100_LN_11_LD_22_RN_4_RD_10_0.png","img2/100/Incongruent/L/I_Dist_100_LN_4_LD_8_RN_8_RD_20_0.png","img2/200/Congruent/R/C_Dist_200_LN_13_LD_26_RN_14_RD_20_1.png","img2/200/Incongruent/R/I_Dist_200_LN_14_LD_30_RN_12_RD_18_1.png","img2/300/Incongruent/R/I_Dist_300_LN_4_LD_20_RN_2_RD_4_1.png","img2/100/Congruent/R/C_Dist_100_LN_12_LD_30_RN_13_RD_26_1.png","img2/100/Congruent/L/C_Dist_100_LN_8_LD_16_RN_2_RD_5_0.png","img2/300/Congruent/L/C_Dist_300_LN_11_LD_22_RN_1_RD_5_0.png","img2/200/Congruent/L/C_Dist_200_LN_16_LD_20_RN_12_RD_20_0.png","img2/200/Congruent/L/C_Dist_200_LN_15_LD_25_RN_4_RD_10_0.png","img2/300/Incongruent/L/I_Dist_300_LN_1_LD_2_RN_3_RD_15_0.png","img2/200/Incongruent/L/I_Dist_200_LN_4_LD_5_RN_6_RD_10_0.png","img2/100/Congruent/R/C_Dist_100_LN_3_LD_20_RN_4_RD_16_1.png","img2/100/Congruent/R/C_Dist_100_LN_7_LD_14_RN_9_RD_15_1.png","img2/300/Incongruent/R/I_Dist_300_LN_4_LD_20_RN_2_RD_4_1.png","img2/300/Incongruent/L/I_Dist_300_LN_2_LD_4_RN_6_RD_30_0.png","img2/100/Incongruent/L/I_Dist_100_LN_3_LD_5_RN_8_RD_16_0.png","img2/300/Congruent/R/C_Dist_300_LN_8_LD_15_RN_10_RD_12_1.png","img2/100/Congruent/R/C_Dist_100_LN_3_LD_20_RN_4_RD_16_1.png","img2/100/Incongruent/L/I_Dist_100_LN_1_LD_2_RN_8_RD_20_0.png","img2/300/Incongruent/L/I_Dist_300_LN_1_LD_2_RN_2_RD_10_0.png","img2/100/Congruent/L/C_Dist_100_LN_9_LD_15_RN_8_RD_16_0.png","img2/300/Congruent/R/C_Dist_300_LN_7_LD_14_RN_20_RD_25_1.png","img2/100/Incongruent/R/I_Dist_100_LN_12_LD_24_RN_9_RD_15_1.png","img2/200/Congruent/R/C_Dist_200_LN_7_LD_15_RN_18_RD_27_1.png","img2/300/Incongruent/L/I_Dist_300_LN_4_LD_5_RN_6_RD_12_0.png","img2/100/Incongruent/L/I_Dist_100_LN_6_LD_10_RN_13_RD_26_0.png","img2/200/Incongruent/R/I_Dist_200_LN_3_LD_10_RN_1_RD_2_1.png","img2/200/Congruent/L/C_Dist_200_LN_16_LD_20_RN_12_RD_20_0.png","img2/200/Incongruent/L/I_Dist_200_LN_4_LD_6_RN_14_RD_30_0.png","img2/300/Incongruent/R/I_Dist_300_LN_4_LD_20_RN_2_RD_4_1.png","img2/300/Incongruent/L/I_Dist_300_LN_3_LD_6_RN_4_RD_20_0.png","img2/100/Incongruent/R/I_Dist_100_LN_12_LD_24_RN_9_RD_15_1.png","img2/100/Incongruent/R/I_Dist_100_LN_8_LD_16_RN_6_RD_10_1.png","img2/200/Incongruent/L/I_Dist_200_LN_1_LD_2_RN_3_RD_10_0.png","img2/200/Incongruent/R/I_Dist_200_LN_14_LD_30_RN_6_RD_9_1.png","img2/100/Incongruent/R/I_Dist_100_LN_10_LD_25_RN_8_RD_16_1.png","img2/100/Congruent/R/C_Dist_100_LN_6_LD_12_RN_15_RD_25_1.png","img2/100/Incongruent/L/I_Dist_100_LN_3_LD_5_RN_8_RD_16_0.png","img2/300/Congruent/R/C_Dist_300_LN_1_LD_20_RN_7_RD_20_1.png","img2/300/Incongruent/L/I_Dist_300_LN_4_LD_5_RN_8_RD_16_0.png","img2/200/Incongruent/R/I_Dist_200_LN_14_LD_30_RN_6_RD_9_1.png","img2/300/Congruent/R/C_Dist_300_LN_1_LD_30_RN_8_RD_24_1.png","img2/200/Congruent/R/C_Dist_200_LN_13_LD_26_RN_14_RD_20_1.png","img2/100/Congruent/R/C_Dist_100_LN_1_LD_2_RN_18_RD_30_1.png","img2/200/Congruent/L/C_Dist_200_LN_20_LD_25_RN_9_RD_15_0.png","img2/100/Congruent/L/C_Dist_100_LN_3_LD_6_RN_2_RD_5_0.png","img2/100/Incongruent/L/I_Dist_100_LN_9_LD_15_RN_13_RD_26_0.png","img2/200/Congruent/R/C_Dist_200_LN_3_LD_6_RN_14_RD_20_1.png","img2/100/Incongruent/R/I_Dist_100_LN_10_LD_25_RN_8_RD_16_1.png","img2/200/Congruent/R/C_Dist_200_LN_3_LD_10_RN_11_RD_22_1.png","img2/100/Congruent/R/C_Dist_100_LN_1_LD_2_RN_18_RD_30_1.png","img2/200/Congruent/R/C_Dist_200_LN_3_LD_12_RN_9_RD_20_1.png","img2/300/Congruent/L/C_Dist_300_LN_20_LD_25_RN_13_RD_26_0.png","img2/200/Incongruent/R/I_Dist_200_LN_4_LD_30_RN_1_RD_3_1.png","img2/100/Incongruent/L/I_Dist_100_LN_2_LD_4_RN_8_RD_20_0.png","img2/300/Incongruent/R/I_Dist_300_LN_4_LD_20_RN_2_RD_4_1.png","img2/300/Incongruent/L/I_Dist_300_LN_4_LD_5_RN_8_RD_16_0.png","img2/200/Incongruent/L/I_Dist_200_LN_1_LD_2_RN_3_RD_10_0.png","img2/100/Incongruent/R/I_Dist_100_LN_6_LD_12_RN_3_RD_5_1.png","img2/200/Incongruent/L/I_Dist_200_LN_1_LD_3_RN_2_RD_15_0.png","img2/100/Incongruent/L/I_Dist_100_LN_6_LD_10_RN_7_RD_14_0.png","img2/300/Congruent/L/C_Dist_300_LN_20_LD_25_RN_9_RD_18_0.png","img2/300/Congruent/L/C_Dist_300_LN_8_LD_16_RN_1_RD_5_0.png","img2/100/Congruent/R/C_Dist_100_LN_1_LD_2_RN_18_RD_30_1.png","img2/200/Congruent/R/C_Dist_200_LN_13_LD_26_RN_14_RD_20_1.png","img2/100/Incongruent/R/I_Dist_100_LN_10_LD_25_RN_9_RD_18_1.png","img2/200/Incongruent/R/I_Dist_200_LN_7_LD_15_RN_6_RD_9_1.png","img2/100/Congruent/R/C_Dist_100_LN_2_LD_5_RN_6_RD_12_1.png","img2/300/Congruent/R/C_Dist_300_LN_1_LD_5_RN_6_RD_12_1.png","img2/300/Congruent/R/C_Dist_300_LN_5_LD_25_RN_6_RD_12_1.png","img2/200/Incongruent/R/I_Dist_200_LN_6_LD_20_RN_3_RD_6_1.png","img2/100/Congruent/R/C_Dist_100_LN_7_LD_14_RN_15_RD_25_1.png","img2/300/Congruent/L/C_Dist_300_LN_24_LD_30_RN_2_RD_4_0.png","img2/200/Incongruent/L/I_Dist_200_LN_7_LD_10_RN_14_RD_28_0.png"],"dist100_C":[["C_Dist_100_LN_10_LD_25_RN_3_RD_10_0.png","C_Dist_100_LN_11_LD_22_RN_4_RD_10_0.png","C_Dist_100_LN_11_LD_22_RN_6_RD_15_0.png","C_Dist_100_LN_15_LD_25_RN_13_RD_26_0.png","C_Dist_100_LN_3_LD_6_RN_2_RD_5_0.png","C_Dist_100_LN_6_LD_20_RN_5_RD_25_0.png","C_Dist_100_LN_8_LD_16_RN_2_RD_5_0.png","C_Dist_100_LN_9_LD_15_RN_8_RD_16_0.png"],["C_Dist_100_LN_1_LD_2_RN_18_RD_30_1.png","C_Dist_100_LN_1_LD_2_RN_3_RD_5_1.png","C_Dist_100_LN_12_LD_30_RN_13_RD_26_1.png","C_Dist_100_LN_2_LD_5_RN_11_RD_22_1.png","C_Dist_100_LN_2_LD_5_RN_6_RD_12_1.png","C_Dist_100_LN_3_LD_20_RN_4_RD_16_1.png","C_Dist_100_LN_4_LD_10_RN_15_RD_30_1.png","C_Dist_100_LN_4_LD_8_RN_6_RD_10_1.png","C_Dist_100_LN_6_LD_12_RN_15_RD_25_1.png","C_Dist_100_LN_7_LD_14_RN_15_RD_25_1.png","C_Dist_100_LN_7_LD_14_RN_9_RD_15_1.png"]],"dist100_I":[["I_Dist_100_LN_1_LD_2_RN_8_RD_20_0.png","I_Dist_100_LN_2_LD_4_RN_6_RD_15_0.png","I_Dist_100_LN_2_LD_4_RN_8_RD_20_0.png","I_Dist_100_LN_3_LD_5_RN_11_RD_22_0.png","I_Dist_100_LN_3_LD_5_RN_8_RD_16_0.png","I_Dist_100_LN_3_LD_6_RN_4_RD_10_0.png","I_Dist_100_LN_3_LD_9_RN_7_RD_30_0.png","I_Dist_100_LN_4_LD_8_RN_8_RD_20_0.png","I_Dist_100_LN_6_LD_10_RN_11_RD_22_0.png","I_Dist_100_LN_6_LD_10_RN_13_RD_26_0.png","I_Dist_100_LN_6_LD_10_RN_7_RD_14_0.png","I_Dist_100_LN_9_LD_10_RN_20_RD_25_0.png","I_Dist_100_LN_9_LD_15_RN_13_RD_26_0.png","I_Dist_100_LN_9_LD_15_RN_14_RD_28_0.png"],["I_Dist_100_LN_10_LD_25_RN_8_RD_16_1.png","I_Dist_100_LN_10_LD_25_RN_9_RD_18_1.png","I_Dist_100_LN_11_LD_22_RN_9_RD_15_1.png","I_Dist_100_LN_12_LD_24_RN_9_RD_15_1.png","I_Dist_100_LN_12_LD_30_RN_2_RD_4_1.png","I_Dist_100_LN_13_LD_26_RN_12_RD_20_1.png","I_Dist_100_LN_13_LD_26_RN_6_RD_10_1.png","I_Dist_100_LN_17_LD_30_RN_10_RD_15_1.png","I_Dist_100_LN_6_LD_12_RN_3_RD_5_1.png","I_Dist_100_LN_8_LD_16_RN_6_RD_10_1.png","I_Dist_100_LN_8_LD_20_RN_1_RD_2_1.png","I_Dist_100_LN_9_LD_18_RN_6_RD_10_1.png"]],"dist100_S":[["E_Dist_100_LN_2_LD_12_RN_2_RD_30_0.png","E_Dist_100_LN_6_LD_10_RN_6_RD_12_0.png"],["E_Dist_100_LN_6_LD_12_RN_6_RD_10_1.png"]],"dist200_C":[["C_Dist_200_LN_11_LD_22_RN_3_RD_10_0.png","C_Dist_200_LN_12_LD_15_RN_6_RD_10_0.png","C_Dist_200_LN_12_LD_20_RN_6_RD_15_0.png","C_Dist_200_LN_14_LD_28_RN_6_RD_20_0.png","C_Dist_200_LN_15_LD_25_RN_4_RD_10_0.png","C_Dist_200_LN_16_LD_20_RN_12_RD_20_0.png","C_Dist_200_LN_16_LD_30_RN_9_RD_27_0.png","C_Dist_200_LN_20_LD_25_RN_9_RD_15_0.png","C_Dist_200_LN_21_LD_30_RN_2_RD_4_0.png","C_Dist_200_LN_4_LD_10_RN_3_RD_15_0.png","C_Dist_200_LN_4_LD_8_RN_3_RD_10_0.png","C_Dist_200_LN_6_LD_15_RN_3_RD_15_0.png","C_Dist_200_LN_7_LD_21_RN_2_RD_15_0.png","C_Dist_200_LN_8_LD_15_RN_2_RD_6_0.png","C_Dist_200_LN_8_LD_15_RN_3_RD_9_0.png","C_Dist_200_LN_8_LD_15_RN_7_RD_21_0.png","C_Dist_200_LN_9_LD_20_RN_4_RD_16_0.png"],["C_Dist_200_LN_1_LD_2_RN_21_RD_30_1.png","C_Dist_200_LN_13_LD_26_RN_14_RD_20_1.png","C_Dist_200_LN_3_LD_10_RN_11_RD_22_1.png","C_Dist_200_LN_3_LD_10_RN_14_RD_28_1.png","C_Dist_200_LN_3_LD_10_RN_7_RD_14_1.png","C_Dist_200_LN_3_LD_12_RN_9_RD_20_1.png","C_Dist_200_LN_3_LD_6_RN_14_RD_20_1.png","C_Dist_200_LN_5_LD_10_RN_14_RD_20_1.png","C_Dist_200_LN_6_LD_12_RN_7_RD_10_1.png","C_Dist_200_LN_6_LD_20_RN_11_RD_22_1.png","C_Dist_200_LN_7_LD_15_RN_18_RD_27_1.png","C_Dist_200_LN_9_LD_30_RN_13_RD_26_1.png"]],"dist200_I":[["I_Dist_200_LN_1_LD_2_RN_3_RD_10_0.png","I_Dist_200_LN_1_LD_3_RN_2_RD_15_0.png","I_Dist_200_LN_3_LD_4_RN_11_RD_20_0.png","I_Dist_200_LN_4_LD_5_RN_6_RD_10_0.png","I_Dist_200_LN_4_LD_6_RN_14_RD_30_0.png","I_Dist_200_LN_7_LD_10_RN_12_RD_24_0.png","I_Dist_200_LN_7_LD_10_RN_14_RD_28_0.png","I_Dist_200_LN_7_LD_10_RN_8_RD_16_0.png"],["I_Dist_200_LN_11_LD_20_RN_3_RD_4_1.png","I_Dist_200_LN_14_LD_30_RN_12_RD_18_1.png","I_Dist_200_LN_14_LD_30_RN_6_RD_9_1.png","I_Dist_200_LN_3_LD_10_RN_1_RD_2_1.png","I_Dist_200_LN_4_LD_30_RN_1_RD_3_1.png","I_Dist_200_LN_6_LD_20_RN_3_RD_6_1.png","I_Dist_200_LN_7_LD_15_RN_4_RD_6_1.png","I_Dist_200_LN_7_LD_15_RN_6_RD_9_1.png","I_Dist_200_LN_9_LD_15_RN_8_RD_10_1.png"]],"dist200_S":[["E_Dist_200_LN_3_LD_6_RN_3_RD_10_0.png"],["E_Dist_200_LN_3_LD_10_RN_3_RD_6_1.png"]],"dist300_C":[["C_Dist_300_LN_11_LD_22_RN_1_RD_5_0.png","C_Dist_300_LN_11_LD_22_RN_2_RD_10_0.png","C_Dist_300_LN_11_LD_22_RN_4_RD_20_0.png","C_Dist_300_LN_12_LD_24_RN_2_RD_10_0.png","C_Dist_300_LN_18_LD_20_RN_9_RD_15_0.png","C_Dist_300_LN_20_LD_25_RN_13_RD_26_0.png","C_Dist_300_LN_20_LD_25_RN_14_RD_28_0.png","C_Dist_300_LN_20_LD_25_RN_5_RD_10_0.png","C_Dist_300_LN_20_LD_25_RN_8_RD_16_0.png","C_Dist_300_LN_20_LD_25_RN_9_RD_18_0.png","C_Dist_300_LN_24_LD_30_RN_2_RD_4_0.png","C_Dist_300_LN_24_LD_30_RN_8_RD_16_0.png","C_Dist_300_LN_3_LD_6_RN_2_RD_10_0.png","C_Dist_300_LN_4_LD_10_RN_1_RD_10_0.png","C_Dist_300_LN_4_LD_5_RN_2_RD_4_0.png","C_Dist_300_LN_8_LD_16_RN_1_RD_5_0.png","C_Dist_300_LN_9_LD_10_RN_3_RD_5_0.png"],["C_Dist_300_LN_1_LD_20_RN_7_RD_20_1.png","C_Dist_300_LN_1_LD_3_RN_19_RD_30_1.png","C_Dist_300_LN_1_LD_30_RN_8_RD_24_1.png","C_Dist_300_LN_1_LD_5_RN_11_RD_22_1.png","C_Dist_300_LN_1_LD_5_RN_3_RD_6_1.png","C_Dist_300_LN_1_LD_5_RN_6_RD_12_1.png","C_Dist_300_LN_2_LD_10_RN_12_RD_24_1.png","C_Dist_300_LN_2_LD_20_RN_10_RD_25_1.png","C_Dist_300_LN_3_LD_12_RN_11_RD_20_1.png","C_Dist_300_LN_3_LD_6_RN_4_RD_5_1.png","C_Dist_300_LN_4_LD_20_RN_13_RD_26_1.png","C_Dist_300_LN_5_LD_25_RN_6_RD_12_1.png","C_Dist_300_LN_5_LD_25_RN_7_RD_14_1.png","C_Dist_300_LN_7_LD_14_RN_20_RD_25_1.png","C_Dist_300_LN_8_LD_15_RN_10_RD_12_1.png"]],"dist300_I":[["I_Dist_300_LN_1_LD_2_RN_2_RD_10_0.png","I_Dist_300_LN_1_LD_2_RN_3_RD_15_0.png","I_Dist_300_LN_2_LD_4_RN_6_RD_30_0.png","I_Dist_300_LN_3_LD_6_RN_4_RD_20_0.png","I_Dist_300_LN_4_LD_5_RN_6_RD_12_0.png","I_Dist_300_LN_4_LD_5_RN_8_RD_16_0.png","I_Dist_300_LN_7_LD_10_RN_8_RD_20_0.png","I_Dist_300_LN_8_LD_10_RN_14_RD_28_0.png","I_Dist_300_LN_8_LD_10_RN_9_RD_18_0.png"],["I_Dist_300_LN_13_LD_26_RN_12_RD_15_1.png","I_Dist_300_LN_4_LD_20_RN_2_RD_4_1.png"]],"dist300_S":[["E_Dist_300_LN_9_LD_12_RN_9_RD_20_0.png"],["E_Dist_300_LN_18_LD_30_RN_18_RD_20_1.png","E_Dist_300_LN_3_LD_10_RN_3_RD_5_1.png","E_Dist_300_LN_9_LD_20_RN_9_RD_12_1.png"]],"dist500_C":[["C_Dist_500_LN_10_LD_13_RN_7_RD_26_0.png","C_Dist_500_LN_10_LD_15_RN_4_RD_24_0.png","C_Dist_500_LN_12_LD_16_RN_3_RD_12_0.png","C_Dist_500_LN_12_LD_18_RN_4_RD_24_0.png","C_Dist_500_LN_15_LD_18_RN_5_RD_15_0.png","C_Dist_500_LN_15_LD_20_RN_1_RD_4_0.png","C_Dist_500_LN_18_LD_27_RN_1_RD_6_0.png","C_Dist_500_LN_20_LD_24_RN_1_RD_3_0.png","C_Dist_500_LN_20_LD_24_RN_3_RD_9_0.png","C_Dist_500_LN_20_LD_24_RN_7_RD_21_0.png","C_Dist_500_LN_20_LD_28_RN_3_RD_14_0.png","C_Dist_500_LN_21_LD_28_RN_6_RD_24_0.png","C_Dist_500_LN_22_LD_28_RN_2_RD_7_0.png","C_Dist_500_LN_25_LD_30_RN_9_RD_27_0.png","C_Dist_500_LN_4_LD_6_RN_1_RD_6_0.png","C_Dist_500_LN_5_LD_6_RN_2_RD_6_0.png","C_Dist_500_LN_6_LD_9_RN_1_RD_6_0.png","C_Dist_500_LN_7_LD_10_RN_1_RD_5_0.png","C_Dist_500_LN_8_LD_12_RN_1_RD_6_0.png","C_Dist_500_LN_8_LD_12_RN_4_RD_24_0.png"],["C_Dist_500_LN_1_LD_4_RN_12_RD_16_1.png","C_Dist_500_LN_1_LD_4_RN_9_RD_12_1.png","C_Dist_500_LN_1_LD_9_RN_11_RD_18_1.png","C_Dist_500_LN_10_LD_24_RN_22_RD_24_1.png","C_Dist_500_LN_2_LD_12_RN_10_RD_15_1.png","C_Dist_500_LN_2_LD_12_RN_12_RD_18_1.png","C_Dist_500_LN_2_LD_12_RN_4_RD_6_1.png","C_Dist_500_LN_2_LD_24_RN_7_RD_12_1.png","C_Dist_500_LN_2_LD_5_RN_18_RD_20_1.png","C_Dist_500_LN_2_LD_5_RN_9_RD_10_1.png","C_Dist_500_LN_2_LD_8_RN_12_RD_16_1.png","C_Dist_500_LN_2_LD_8_RN_21_RD_28_1.png","C_Dist_500_LN_3_LD_10_RN_4_RD_5_1.png","C_Dist_500_LN_3_LD_12_RN_15_RD_20_1.png","C_Dist_500_LN_3_LD_30_RN_6_RD_10_1.png","C_Dist_500_LN_3_LD_8_RN_14_RD_16_1.png","C_Dist_500_LN_4_LD_16_RN_15_RD_20_1.png","C_Dist_500_LN_4_LD_24_RN_12_RD_18_1.png","C_Dist_500_LN_5_LD_14_RN_6_RD_7_1.png","C_Dist_500_LN_7_LD_21_RN_20_RD_24_1.png","C_Dist_500_LN_7_LD_28_RN_12_RD_16_1.png","C_Dist_500_LN_7_LD_28_RN_9_RD_12_1.png","C_Dist_500_LN_9_LD_27_RN_20_RD_24_1.png"]],"dist500_I":[["I_Dist_500_LN_2_LD_3_RN_4_RD_24_0.png","I_Dist_500_LN_5_LD_6_RN_6_RD_18_0.png","I_Dist_500_LN_7_LD_8_RN_9_RD_24_0.png"],["I_Dist_500_LN_7_LD_21_RN_5_RD_6_1.png"]],"dist500_S":[["E_Dist_500_LN_6_LD_8_RN_6_RD_24_0.png"],["E_Dist_500_LN_2_LD_12_RN_2_RD_3_1.png","E_Dist_500_LN_6_LD_24_RN_6_RD_8_1.png"]]}},{"start_time":1551891777900,"click_time":1551891780237,"finger_time":1551891779237,"fix_duration":621.8171577103379,"trial":1,"RT":1337,"MT":1000,"sideResp":2,"stimulus":[],"xmouse":[768,768,768,768,768,768,768,768,768,768,768,768,768,768,768,768,768,768,768,768,768,768,768,768,768,768,768,768,768,768,768,768,768,768,768,768,768,768,768,768,768,768,768,768,768,768,768,768,768,768,768,768,768,768,768,768,768,768,768,768,768,768,768,768,788,810,867,917,1029,1078,1110,1130,1161,1235,1279,1334,1381,1426,1493,1520,1535,1531,1521,1498,1491,1487,1477,1461,1421,1420,1416,1408,1390,1343,1330,1316,1308,1305,1304,1304,1298,1287,1266,1235,1232,1232,1232,1231,1208,1186,1176,1173,1173,1173,1171,1165,1149],"ymouse":[610,610,610,610,610,610,610,610,610,610,610,610,610,610,610,610,610,610,610,610,610,610,610,610,610,610,610,610,610,610,610,610,610,610,610,610,610,610,610,610,610,610,610,610,610,610,610,610,610,610,610,610,610,610,610,610,610,610,610,610,610,610,610,610,601,594,579,570,554,547,536,523,495,418,376,336,291,246,138,81,9,0,0,0,0,0,0,4,10,10,12,18,29,56,60,63,63,62,62,58,52,42,33,22,20,20,20,20,26,32,32,33,33,33,35,38,47],"timestamp_mouse":[18,39,57,78,98,118,138,157,178,198,217,237,258,277,298,317,338,358,377,397,417,438,457,477,497,518,537,557,577,598,617,638,657,677,697,717,738,758,777,798,817,839,857,878,898,917,937,957,978,998,1018,1038,1057,1078,1098,1117,1137,1158,1178,1198,1217,1238,1257,1277,1297,1317,1337,1357,1377,1398,1417,1437,1457,1477,1498,1517,1537,1557,1576,1597,1618,1637,1657,1678,1697,1717,1738,1758,1778,1797,1818,1838,1857,1877,1897,1917,1937,1958,1977,1997,2018,2037,2058,2077,2097,2118,2138,2157,2177,2197,2217,2237,2257,2277,2297,2318,2337],"xSR":741.5,"ySR":573.95,"xT1":424.9,"yT1":0,"xT2":1058.1,"yT2":0,"toosoon":0,"cond_shown":"Congruent","ratio_trial":300,"L_num":1,"L_den":5,"R_num":6,"R_den":12,"correct_side":2,"subjID":"samuelespinosacortes24","gender":"0","school":"6","age":"11"},{"start_time":1551891781693,"click_time":1551891783077,"finger_time":1551891782857,"fix_duration":514.5578529743974,"trial":2,"RT":1164,"MT":220,"sideResp":1,"stimulus":[],"xmouse":[817,817,817,817,817,816,816,816,816,816,816,816,816,816,816,816,816,816,816,816,816,816,816,816,816,816,816,816,816,816,816,816,816,816,816,816,816,816,816,816,816,816,816,816,816,816,816,816,816,816,816,816,816,816,816,816,816,817,820,821,815,804,782,756,683,637,604,566,529,499],"ymouse":[631,631,631,631,631,631,631,631,631,631,631,631,631,631,631,631,631,631,631,631,631,631,631,631,631,631,631,631,631,631,631,631,631,631,631,631,631,631,631,631,631,631,631,631,631,631,631,631,631,631,631,631,631,631,631,622,608,587,565,513,493,455,409,354,236,180,122,79,42,7],"timestamp_mouse":[11,34,45,64,85,104,124,144,164,185,204,224,245,264,285,304,324,344,364,384,404,424,444,465,484,504,524,545,565,584,605,625,644,664,685,704,724,745,764,784,805,824,846,864,884,904,924,944,965,985,1004,1025,1045,1064,1085,1104,1124,1144,1164,1184,1204,1224,1244,1264,1284,1304,1324,1345,1365,1384],"xSR":741.5,"ySR":573.95,"xT1":424.9,"yT1":0,"xT2":1058.1,"yT2":0,"toosoon":0,"cond_shown":"Incongruent","ratio_trial":200,"L_num":3,"L_den":4,"R_num":11,"R_den":20,"correct_side":1,"subjID":"samuelespinosacortes24","gender":"0","school":"6","age":"11"},{"start_time":1551891786638,"click_time":1551891793298,"finger_time":1551891792338,"fix_duration":837.4711484161456,"trial":3,"RT":5700,"MT":960,"sideResp":1,"stimulus":[],"xmouse":[823,823,823,823,823,823,823,823,823,823,823,823,823,823,823,823,823,823,823,823,823,823,823,823,823,823,823,823,823,823,823,823,823,823,823,823,823,823,823,823,823,823,823,823,823,823,823,823,823,823,823,823,823,823,823,823,823,823,823,823,823,823,823,823,823,823,823,823,823,823,823,823,823,823,823,823,823,823,823,823,823,823,823,823,823,823,823,823,823,823,823,823,823,823,823,823,823,823,823,823,823,823,823,823,823,823,823,823,823,823,823,823,823,823,823,823,823,823,823,823,823,823,823,823,823,823,823,823,823,823,823,823,823,823,823,823,823,823,823,823,823,823,823,823,823,823,823,823,823,823,823,823,823,823,823,823,823,823,823,823,823,823,823,823,823,823,823,823,823,823,823,823,823,823,823,823,823,823,823,823,823,823,823,823,823,823,823,823,823,823,823,823,823,823,823,823,823,823,823,823,823,823,823,823,823,823,823,823,823,823,823,823,823,823,823,823,823,823,823,823,823,823,823,823,823,823,823,823,823,823,823,823,823,823,823,823,823,823,823,823,823,823,823,823,823,823,823,823,823,823,823,823,823,823,823,823,823,823,823,823,823,823,823,823,823,823,823,823,823,823,823,823,823,823,823,823,822,822,822,822,822,822,821,821,819,817,817,816,816,814,810,806,792,792,792,792,791,791,791,791,791,791,789,780,769,747,724,669,650,638,630,628,621,617,599,579,562,551,551,548,543,540,546,550,553,555,556,556,554,552,551,548,528,507],"ymouse":[645,645,645,645,645,645,645,645,645,645,645,645,645,645,645,645,645,645,645,645,645,645,645,645,645,645,645,645,645,645,645,645,645,645,645,645,645,645,645,645,645,645,645,645,645,645,645,645,645,645,645,645,645,645,645,645,645,645,645,645,645,645,645,645,645,645,645,645,645,645,645,645,645,645,645,645,645,645,645,645,645,645,645,645,645,645,645,645,645,645,645,645,645,645,645,645,645,645,645,645,645,645,645,645,645,645,645,645,645,645,645,645,645,645,645,645,645,645,645,645,645,645,645,645,645,645,645,645,645,645,645,645,645,645,645,645,645,645,645,645,645,645,645,645,645,645,645,645,645,645,645,645,645,645,645,645,645,645,645,645,645,645,645,645,645,645,645,645,645,645,645,645,645,645,645,645,645,645,645,645,645,645,645,645,645,645,645,645,645,645,645,645,645,645,645,645,645,645,645,645,645,645,645,645,645,645,645,645,645,645,645,645,645,645,645,645,645,645,645,645,645,645,645,645,645,645,645,645,645,645,645,645,645,645,645,645,645,645,645,645,645,645,645,645,645,645,645,645,645,645,645,645,645,645,645,645,645,645,645,645,645,645,645,645,645,643,641,638,638,638,638,638,638,638,638,638,638,638,638,638,639,642,656,667,673,676,677,678,678,675,658,639,612,610,610,610,616,635,638,639,639,639,624,603,564,508,452,356,328,313,305,303,294,291,270,254,240,226,222,212,197,185,165,159,151,143,135,128,125,122,121,118,110,99],"timestamp_mouse":[2,21,40,60,79,99,121,140,159,180,200,219,240,260,279,299,320,341,360,380,400,420,440,460,479,500,520,539,560,580,600,620,640,661,679,700,719,740,759,780,799,820,839,859,880,899,919,939,960,980,999,1019,1039,1060,1079,1100,1120,1140,1160,1179,1200,1219,1239,1260,1279,1301,1319,1340,1360,1380,1399,1419,1439,1459,1480,1500,1519,1541,1560,1580,1599,1619,1639,1660,1680,1699,1719,1739,1759,1780,1799,1819,1839,1860,1879,1899,1919,1940,1959,1979,1999,2020,2039,2059,2079,2099,2119,2140,2159,2179,2200,2219,2239,2260,2280,2299,2319,2339,2359,2380,2399,2419,2439,2460,2480,2500,2519,2539,2559,2580,2599,2620,2641,2660,2679,2700,2719,2740,2759,2779,2800,2819,2840,2860,2880,2900,2919,2939,2959,2980,3000,3019,3039,3059,3079,3100,3121,3139,3159,3180,3200,3219,3240,3259,3281,3299,3319,3340,3359,3380,3400,3419,3440,3459,3479,3500,3519,3539,3560,3579,3599,3620,3639,3660,3679,3700,3720,3741,3760,3780,3799,3819,3839,3859,3880,3899,3919,3939,3959,3979,3999,4019,4039,4059,4079,4099,4119,4140,4161,4179,4199,4219,4240,4260,4279,4299,4319,4339,4360,4379,4399,4420,4440,4460,4481,4499,4520,4539,4559,4579,4599,4620,4640,4659,4679,4700,4720,4739,4760,4779,4800,4819,4839,4860,4879,4900,4920,4939,4959,4980,4999,5019,5039,5059,5079,5099,5119,5140,5159,5180,5199,5220,5241,5259,5280,5300,5319,5339,5359,5380,5400,5420,5440,5460,5480,5499,5519,5539,5560,5579,5599,5619,5639,5660,5679,5700,5721,5740,5759,5779,5799,5819,5839,5860,5880,5900,5919,5939,5959,5980,5999,6021,6039,6060,6080,6101,6119,6139,6159,6179,6199,6219,6239,6260,6278,6299,6319,6339,6360,6379,6400,6419,6440,6459,6479,6500,6519,6539,6559,6579,6599,6619,6639,6660],"xSR":741.5,"ySR":573.95,"xT1":424.9,"yT1":0,"xT2":1058.1,"yT2":0,"toosoon":0,"cond_shown":"Congruent","ratio_trial":100,"L_num":2,"L_den":5,"R_num":6,"R_den":12,"correct_side":2,"subjID":"samuelespinosacortes24","gender":"0","school":"6","age":"11"},{"start_time":1551891795247,"click_time":1551891796617,"finger_time":1551891796037,"fix_duration":567.4792827812563,"trial":4,"RT":790,"MT":580,"sideResp":2,"stimulus":[],"xmouse":[819,819,819,819,819,819,819,819,819,819,819,819,819,819,819,819,819,819,819,819,819,819,819,819,819,819,818,818,818,818,818,818,818,818,818,818,818,824,835,862,883,906,919,929,937,942,949,951,955,957,961,975,993,1011,1031,1057,1088,1096,1098,1098,1098,1098,1097,1096,1092,1089,1087,1087,1087],"ymouse":[608,608,608,608,608,608,608,608,608,608,608,608,608,608,608,608,608,608,608,608,608,608,608,608,608,608,608,608,608,608,608,608,608,608,608,608,608,601,589,555,520,443,390,359,337,325,313,307,302,298,295,283,270,255,238,216,181,170,167,167,167,164,155,149,137,126,108,102,99],"timestamp_mouse":[11,35,51,71,91,110,130,151,170,190,211,231,251,270,291,310,330,352,371,390,410,430,451,470,491,510,530,550,571,590,611,630,650,670,690,711,730,750,771,790,810,830,851,870,891,910,930,950,970,990,1011,1030,1050,1070,1092,1110,1130,1151,1170,1190,1210,1230,1251,1270,1291,1310,1329,1350,1370],"xSR":741.5,"ySR":573.95,"xT1":424.9,"yT1":0,"xT2":1058.1,"yT2":0,"toosoon":0,"cond_shown":"Incongruent","ratio_trial":300,"L_num":4,"L_den":20,"R_num":2,"R_den":4,"correct_side":2,"subjID":"samuelespinosacortes24","gender":"0","school":"6","age":"11"},{"start_time":1551891798529,"click_time":1551891800277,"finger_time":1551891799877,"fix_duration":590.057112181055,"trial":5,"RT":1348,"MT":400,"sideResp":2,"stimulus":[],"xmouse":[812,812,812,812,812,812,812,812,812,812,812,812,812,812,812,812,812,812,812,812,812,812,812,812,814,814,814,814,814,814,814,814,814,814,814,814,814,814,814,814,814,814,814,814,814,814,814,814,814,814,814,814,814,814,814,814,814,814,814,814,814,814,814,814,814,821,825,872,939,1000,1066,1127,1211,1224,1229,1231,1231,1231,1229,1227,1225,1224,1220,1213,1204,1191,1177,1155],"ymouse":[620,620,620,620,620,620,620,620,620,620,620,620,620,620,620,620,620,620,620,620,620,620,620,620,618,618,618,618,618,618,618,618,618,618,618,618,618,618,618,618,618,618,618,618,618,618,618,618,618,618,618,618,618,618,618,618,618,618,618,618,618,618,618,618,618,605,593,496,403,338,271,202,96,67,49,40,35,26,19,14,12,12,12,14,18,26,32,37],"timestamp_mouse":[9,29,60,68,88,108,128,149,168,188,208,228,248,269,288,308,329,348,368,390,409,428,449,468,488,508,528,548,568,588,608,628,648,668,688,708,728,748,768,788,809,828,848,868,888,908,929,948,969,989,1008,1029,1048,1068,1088,1109,1128,1149,1169,1188,1208,1229,1249,1268,1289,1308,1328,1348,1368,1388,1409,1428,1448,1469,1488,1508,1529,1548,1567,1588,1608,1628,1649,1669,1688,1708,1728,1748],"xSR":741.5,"ySR":573.95,"xT1":424.9,"yT1":0,"xT2":1058.1,"yT2":0,"toosoon":0,"cond_shown":"Incongruent","ratio_trial":100,"L_num":6,"L_den":10,"R_num":13,"R_den":26,"correct_side":1,"subjID":"samuelespinosacortes24","gender":"0","school":"6","age":"11"},{"start_time":1551891802774,"click_time":1551891804199,"finger_time":1551891803398,"fix_duration":874.3533911130713,"trial":6,"RT":624,"MT":801,"sideResp":1,"stimulus":[],"xmouse":[785,785,785,785,785,785,785,785,785,785,785,785,785,785,785,785,785,785,785,785,785,785,785,785,785,785,785,785,785,785,782,778,775,770,764,743,733,730,728,726,721,718,711,702,691,661,650,579,533,501,466,460,455,450,449,449,449,449,449,449,456,457,458,460,461,461,461,461,460,460,459,459],"ymouse":[602,602,602,602,602,602,602,602,602,602,602,602,602,602,602,602,602,602,602,602,602,602,602,602,602,602,602,602,602,598,587,573,552,528,502,455,431,418,405,395,376,370,361,345,327,292,285,258,245,232,207,196,184,172,164,160,157,157,157,157,147,143,139,135,132,126,120,117,114,113,103,97],"timestamp_mouse":[11,29,44,64,84,104,123,144,163,183,203,223,244,264,283,304,323,343,364,385,403,424,444,465,483,504,525,544,564,584,603,624,644,663,684,703,724,743,764,784,803,824,843,864,883,903,924,944,965,983,1004,1024,1045,1064,1085,1104,1125,1144,1164,1183,1204,1223,1244,1263,1285,1304,1324,1343,1364,1384,1404,1424],"xSR":741.5,"ySR":573.95,"xT1":424.9,"yT1":0,"xT2":1058.1,"yT2":0,"toosoon":0,"cond_shown":"Incongruent","ratio_trial":300,"L_num":8,"L_den":10,"R_num":14,"R_den":28,"correct_side":1,"subjID":"samuelespinosacortes24","gender":"0","school":"6","age":"11"},{"start_time":1551891805889,"click_time":1551891807758,"finger_time":1551891807058,"fix_duration":250,"trial":7,"RT":1169,"MT":700,"sideResp":2,"stimulus":[],"xmouse":[769,769,769,769,769,769,769,769,769,769,769,769,769,769,769,769,769,769,769,769,769,769,769,769,769,769,769,769,769,769,769,769,769,769,769,769,769,769,769,769,769,769,769,769,769,769,769,769,769,769,769,769,773,782,806,818,828,841,852,885,921,979,1008,1026,1047,1054,1059,1061,1061,1068,1069,1070,1070,1070,1070,1070,1070,1071,1073,1079,1084,1091,1095,1098,1100,1100,1100,1100,1100,1102,1102,1102,1104,1106],"ymouse":[620,620,620,620,620,620,620,620,620,620,620,620,620,620,620,620,620,620,620,620,620,620,620,620,620,620,620,620,620,620,620,620,620,620,620,620,620,620,620,620,620,620,620,620,620,620,620,620,620,620,620,620,619,614,600,592,584,575,566,533,479,397,360,335,301,284,271,264,262,246,239,226,219,212,205,203,201,198,194,185,179,169,164,159,155,155,155,155,155,149,144,129,113,93],"timestamp_mouse":[9,43,49,69,88,109,130,149,170,189,208,228,250,268,290,309,328,349,369,388,410,429,449,470,489,508,528,549,568,588,609,628,649,670,689,710,730,749,769,789,810,828,849,869,890,909,929,950,968,990,1009,1029,1049,1068,1089,1108,1130,1149,1169,1188,1209,1228,1250,1268,1288,1308,1328,1348,1370,1388,1409,1429,1448,1468,1489,1509,1528,1549,1569,1589,1609,1628,1649,1668,1688,1709,1729,1749,1769,1789,1809,1829,1848,1868],"xSR":741.5,"ySR":573.95,"xT1":424.9,"yT1":0,"xT2":1058.1,"yT2":0,"toosoon":0,"cond_shown":"Congruent","ratio_trial":200,"L_num":3,"L_den":12,"R_num":9,"R_den":20,"correct_side":2,"subjID":"samuelespinosacortes24","gender":"0","school":"6","age":"11"},{"start_time":1551891810115,"click_time":1551891812819,"finger_time":1551891811859,"fix_duration":756.3202134924159,"trial":8,"RT":1744,"MT":960,"sideResp":1,"stimulus":[],"xmouse":[812,812,812,812,812,812,812,812,812,812,812,812,812,812,812,812,812,812,812,812,812,812,812,812,812,812,812,812,812,812,812,812,812,812,812,812,812,812,812,812,812,812,812,812,812,812,812,812,812,812,812,812,812,812,812,812,812,812,812,812,812,812,812,812,812,812,812,812,812,812,812,812,812,812,812,812,812,812,812,812,812,812,812,812,814,819,827,844,978,1053,1075,1085,1090,1092,1092,1092,1092,1092,1092,1092,1092,1092,1092,1092,1092,1092,1092,1092,1092,1092,1092,1092,1092,1092,1092,1092,1092,1092,1092,1092,1092,1092,1092,1088,1075,1056,1036,1009,944,907,850,776,706,599,550,510],"ymouse":[607,607,607,607,607,607,607,607,607,607,607,607,607,607,607,607,607,607,607,607,607,607,607,607,607,607,607,607,607,607,607,607,607,607,607,607,607,607,607,607,607,607,607,607,607,607,607,607,607,607,607,607,607,607,607,607,607,607,607,607,607,607,607,607,607,607,607,607,607,607,607,607,607,607,607,607,607,607,607,607,607,607,607,607,607,598,578,555,462,412,388,370,357,349,349,349,349,349,349,349,349,349,349,349,349,349,349,349,349,349,349,349,349,349,349,349,349,349,349,349,349,349,349,344,337,330,323,319,312,307,299,288,267,186,88,9],"timestamp_mouse":[14,23,42,64,84,104,124,143,162,183,204,223,244,264,283,302,323,344,362,384,404,423,442,463,484,503,523,544,563,583,604,622,643,662,682,704,722,744,763,782,804,823,843,862,883,902,924,942,962,984,1002,1023,1044,1063,1083,1103,1122,1143,1164,1182,1202,1224,1242,1264,1283,1303,1323,1342,1364,1383,1403,1423,1442,1464,1484,1502,1523,1543,1563,1584,1603,1623,1644,1664,1683,1703,1723,1744,1763,1783,1802,1822,1842,1862,1883,1904,1923,1944,1964,1984,2003,2023,2044,2063,2084,2104,2124,2143,2163,2182,2203,2223,2244,2263,2283,2303,2323,2343,2363,2382,2402,2424,2444,2463,2483,2502,2523,2543,2563,2583,2602,2624,2642,2663,2684,2704],"xSR":741.5,"ySR":573.95,"xT1":424.9,"yT1":0,"xT2":1058.1,"yT2":0,"toosoon":0,"cond_shown":"Congruent","ratio_trial":100,"L_num":3,"L_den":6,"R_num":2,"R_den":5,"correct_side":1,"subjID":"samuelespinosacortes24","gender":"0","school":"6","age":"11"},{"start_time":1551891814390,"click_time":1551891817398,"finger_time":1551891815977,"fix_duration":250,"trial":9,"RT":1587,"MT":1421,"sideResp":1,"stimulus":[],"xmouse":[779,779,779,779,779,779,779,779,779,779,779,779,779,779,779,779,779,779,779,779,779,779,779,779,779,779,779,779,779,779,779,779,779,779,779,779,779,779,779,779,779,779,779,779,779,779,779,779,779,779,779,779,779,779,779,779,779,779,779,779,779,779,779,779,779,779,779,779,779,779,779,779,779,780,781,781,781,778,771,748,729,716,702,690,669,661,656,651,648,645,637,635,633,633,630,625,617,609,603,596,592,586,578,571,564,562,559,558,555,543,537,537,537,537,537,537,537,537,537,537,537,537,537,537,537,537,537,537,536,532,530,530,530,530,530,530,530,530,530,530,530,530,529,528,524,523,523,523,523,516,502],"ymouse":[619,619,619,619,619,619,619,619,619,619,619,619,619,619,619,619,619,619,619,619,619,619,619,619,619,619,619,619,619,619,619,619,619,619,619,619,619,619,619,619,619,619,619,619,619,619,619,619,619,619,619,619,619,619,619,619,619,619,619,619,619,619,619,619,619,619,619,619,619,619,619,619,619,619,616,615,612,605,592,530,489,458,422,385,323,303,282,262,242,218,189,184,182,182,181,176,170,166,163,156,151,145,140,135,130,129,127,126,125,124,124,124,124,124,124,124,124,124,124,124,124,124,124,124,124,124,124,124,124,125,125,125,125,125,125,125,125,125,125,125,125,125,125,125,120,120,120,120,120,102,80],"timestamp_mouse":[10,34,48,69,88,108,127,149,168,188,209,229,248,267,288,308,327,349,369,387,409,429,449,468,489,508,527,549,569,589,607,628,648,667,688,708,729,749,768,788,809,829,847,868,888,908,928,948,969,989,1008,1027,1047,1068,1087,1108,1129,1149,1167,1188,1209,1229,1249,1269,1289,1307,1329,1349,1368,1388,1409,1427,1448,1469,1488,1508,1527,1548,1567,1587,1608,1627,1648,1668,1687,1708,1727,1748,1767,1787,1807,1828,1848,1867,1887,1908,1927,1947,1967,1987,2008,2028,2048,2068,2088,2108,2127,2149,2168,2187,2208,2228,2249,2269,2288,2308,2328,2348,2368,2388,2407,2429,2449,2468,2488,2508,2528,2548,2567,2587,2607,2628,2648,2667,2688,2707,2729,2748,2767,2789,2808,2828,2847,2867,2888,2908,2927,2948,2967,2987,3008],"xSR":741.5,"ySR":573.95,"xT1":424.9,"yT1":0,"xT2":1058.1,"yT2":0,"toosoon":0,"cond_shown":"Incongruent","ratio_trial":300,"L_num":3,"L_den":6,"R_num":4,"R_den":20,"correct_side":1,"subjID":"samuelespinosacortes24","gender":"0","school":"6","age":"11"},{"start_time":1551891819871,"click_time":1551891826278,"finger_time":1551891821237,"fix_duration":1312.525654294005,"trial":10,"RT":1366,"MT":5041,"sideResp":2,"stimulus":[],"xmouse":[766,766,766,766,766,766,766,766,766,766,766,766,766,766,766,766,766,766,766,766,766,766,766,766,766,766,766,766,766,766,766,766,766,766,766,766,766,766,766,766,766,766,766,766,766,766,766,766,766,766,766,767,767,767,767,767,767,767,767,767,767,767,767,774,778,797,799,799,795,790,779,771,765,760,756,755,755,755,755,755,755,755,754,754,754,754,754,754,754,754,754,754,754,754,754,754,754,754,754,754,754,754,754,754,754,754,754,754,754,754,754,754,754,754,754,754,754,754,754,754,754,754,754,754,755,780,825,876,931,969,992,1004,1004,1004,1004,1004,1004,1004,1004,1004,1004,1004,1004,1004,1005,1007,1009,1014,1016,1018,1019,1019,1019,1019,1019,1019,1019,1019,1019,1019,1019,1019,1019,1019,1019,1019,1019,1019,1019,1019,1019,1019,1019,1019,1019,1019,1019,1019,1019,1019,1019,1019,1019,1019,1019,1019,1019,1019,1019,1019,1019,1019,1019,1019,1019,1019,1019,1019,1019,1019,1019,1019,1019,1019,1019,1019,1019,1019,1019,1019,1019,1019,1019,1019,1019,1019,1019,1019,1019,1019,1019,1019,1019,1019,1019,1019,1019,1019,1019,1019,1019,1019,1019,1019,1019,1019,1019,1019,1019,1019,1019,1019,1019,1019,1019,1019,1019,1019,1019,1019,1019,1019,1019,1019,1019,1019,1019,1019,1019,1019,1019,1019,1019,1019,1019,1019,1019,1019,1019,1019,1019,1019,1019,1019,1019,1019,1019,1019,1019,1019,1019,1019,1019,1019,1019,1019,1019,1019,1019,1019,1019,1019,1019,1019,1019,1019,1019,1019,1019,1019,1019,1019,1019,1019,1019,1019,1019,1019,1019,1019,1020,1021,1023,1030,1033,1036,1038,1041,1048,1061,1100],"ymouse":[626,626,626,626,626,626,626,626,626,626,626,626,626,626,626,626,626,626,626,626,626,626,626,626,626,626,626,626,626,626,626,626,626,626,626,626,626,626,626,626,626,626,626,626,626,626,626,626,626,626,626,626,626,626,626,626,626,626,626,626,626,626,626,625,623,608,595,583,568,548,507,485,473,465,460,458,458,458,458,458,458,458,458,461,464,465,465,465,465,465,465,465,465,465,465,465,465,465,465,465,465,465,465,465,465,465,465,465,465,465,465,465,465,465,465,465,465,465,465,465,465,465,465,465,466,452,428,400,370,347,331,314,312,312,312,312,312,312,312,312,312,312,312,312,310,304,299,293,290,288,286,286,286,286,286,286,286,286,286,286,286,286,286,286,286,286,286,286,286,286,286,286,286,286,286,286,286,286,286,286,286,286,286,286,286,286,286,286,286,286,286,286,286,286,286,286,286,286,286,286,286,286,286,286,286,286,286,286,286,286,286,286,286,286,286,286,286,286,286,286,286,286,286,286,286,286,286,286,286,286,286,286,286,286,286,286,286,286,286,286,286,286,286,286,286,286,286,286,286,286,286,286,286,286,286,286,286,286,286,286,286,286,286,286,286,286,286,286,286,286,286,286,286,286,286,286,286,286,286,286,286,286,286,286,286,286,286,286,286,286,286,286,286,286,286,286,286,286,286,286,286,286,286,286,286,286,286,286,286,286,285,285,285,282,278,268,260,245,216,165,46],"timestamp_mouse":[11,39,46,66,87,107,128,148,167,187,208,227,248,266,286,308,327,347,366,386,408,428,446,468,488,507,528,547,566,588,607,626,648,668,686,708,728,748,768,786,807,828,846,868,887,907,927,947,966,988,1006,1027,1046,1068,1087,1106,1128,1147,1167,1187,1208,1228,1247,1266,1287,1306,1327,1347,1366,1386,1407,1428,1446,1467,1486,1507,1527,1547,1566,1587,1607,1628,1646,1666,1686,1706,1727,1748,1767,1786,1807,1827,1846,1866,1888,1908,1927,1948,1967,1987,2007,2027,2047,2067,2087,2106,2127,2147,2167,2187,2207,2227,2246,2268,2286,2307,2328,2347,2367,2386,2407,2427,2448,2467,2487,2506,2527,2548,2567,2586,2606,2626,2646,2666,2687,2707,2727,2746,2767,2786,2807,2828,2846,2866,2886,2907,2926,2947,2967,2987,3006,3026,3047,3067,3087,3107,3127,3147,3167,3187,3207,3226,3246,3267,3286,3307,3327,3346,3366,3388,3408,3427,3446,3467,3487,3507,3526,3546,3567,3586,3607,3626,3648,3667,3687,3708,3727,3746,3768,3787,3807,3826,3847,3866,3887,3908,3928,3946,3966,3988,4006,4026,4047,4066,4087,4106,4126,4146,4178,4187,4207,4226,4246,4268,4286,4307,4328,4348,4367,4387,4406,4427,4447,4467,4486,4506,4528,4547,4568,4587,4607,4627,4648,4667,4687,4707,4727,4746,4766,4787,4807,4827,4848,4866,4888,4908,4928,4947,4966,4987,5008,5027,5046,5066,5087,5106,5127,5147,5167,5186,5207,5228,5248,5267,5287,5307,5328,5346,5366,5387,5408,5428,5446,5466,5487,5507,5527,5547,5567,5588,5607,5627,5647,5668,5688,5706,5727,5748,5766,5786,5806,5827,5848,5866,5888,5907,5927,5946,5966,5987,6007,6027,6046,6066,6086,6107,6127,6146,6168,6187,6207,6227,6246,6266,6286,6306,6326,6347,6367,6387,6407],"xSR":741.5,"ySR":573.95,"xT1":424.9,"yT1":0,"xT2":1058.1,"yT2":0,"toosoon":0,"cond_shown":"Congruent","ratio_trial":200,"L_num":1,"L_den":2,"R_num":21,"R_den":30,"correct_side":2,"subjID":"samuelespinosacortes24","gender":"0","school":"6","age":"11"},{"start_time":1551891829237,"click_time":1551891831877,"finger_time":1551891831199,"fix_duration":1238.4188470788904,"trial":11,"RT":1962,"MT":678,"sideResp":1,"stimulus":[],"xmouse":[776,776,776,776,776,776,776,776,776,776,776,776,776,776,776,776,776,776,776,776,776,776,776,776,776,776,776,776,776,776,776,776,776,776,776,776,776,776,776,776,776,776,776,776,776,776,776,776,776,776,776,776,776,776,776,776,776,776,776,776,776,776,776,776,776,776,776,776,776,776,776,776,776,776,776,776,776,776,776,776,776,776,776,776,776,776,776,776,778,783,792,799,822,831,834,836,839,841,842,842,842,842,836,810,766,702,617,461,431,424,421,421,422,429,435,447,462,492,503,507,507,507,508,508,508,508,508,508,507,506,506,505,503],"ymouse":[660,660,660,660,660,660,660,660,660,660,660,660,660,660,660,660,660,660,660,660,660,660,660,660,660,660,660,660,660,660,660,660,660,660,660,660,660,660,660,660,660,660,660,660,660,660,660,660,660,660,660,660,660,660,660,660,660,660,660,660,660,660,660,660,660,660,660,660,660,660,660,660,660,660,660,660,660,660,660,660,660,660,660,660,660,660,660,660,659,657,653,652,647,646,645,644,643,641,641,640,640,638,627,608,582,541,476,365,325,303,288,277,264,248,232,213,192,163,157,155,155,155,151,142,135,130,127,122,120,118,116,112,99],"timestamp_mouse":[8,21,42,61,80,100,121,140,160,180,201,221,242,261,281,301,322,341,362,380,400,421,442,461,481,501,520,542,560,581,601,621,641,660,680,702,720,741,760,781,801,820,842,861,880,901,920,940,960,981,1000,1021,1042,1061,1080,1100,1122,1140,1162,1181,1200,1222,1241,1262,1281,1301,1321,1340,1360,1382,1400,1421,1441,1462,1480,1500,1521,1542,1561,1581,1601,1622,1640,1662,1681,1701,1720,1741,1761,1781,1800,1822,1840,1860,1881,1900,1921,1942,1962,1980,2000,2021,2041,2061,2080,2101,2121,2140,2161,2180,2202,2221,2241,2261,2281,2301,2321,2340,2361,2381,2401,2422,2441,2461,2481,2500,2520,2540,2561,2581,2602,2620,2640],"xSR":741.5,"ySR":573.95,"xT1":424.9,"yT1":0,"xT2":1058.1,"yT2":0,"toosoon":0,"cond_shown":"Congruent","ratio_trial":300,"L_num":3,"L_den":6,"R_num":2,"R_den":10,"correct_side":1,"subjID":"samuelespinosacortes24","gender":"0","school":"6","age":"11"},{"start_time":1551891834123,"click_time":1551891836118,"finger_time":1551891835277,"fix_duration":1163.056067990327,"trial":12,"RT":1154,"MT":841,"sideResp":1,"stimulus":[],"xmouse":[770,770,770,770,770,770,770,770,770,770,770,770,770,770,770,770,770,770,770,770,770,770,770,770,770,770,770,770,770,770,770,770,770,770,770,770,770,770,770,770,770,770,770,770,770,770,770,770,770,770,770,772,784,788,793,798,803,809,811,813,814,815,818,820,824,832,842,860,889,903,911,916,918,918,918,918,919,913,855,793,726,683,639,621,599,582,566,548,547,547,547,547,546,546,546,545,544,538,528,517],"ymouse":[594,594,594,594,594,594,594,594,594,594,594,594,594,594,594,594,594,594,594,594,594,594,594,594,594,594,594,594,594,594,594,594,594,594,594,594,594,594,594,594,594,594,594,594,594,594,594,594,594,594,594,594,590,587,585,581,577,568,566,564,563,562,561,560,558,553,547,532,511,502,496,492,490,490,490,490,490,483,455,418,376,338,254,197,148,121,99,71,68,67,65,63,59,58,56,55,53,52,52,52],"timestamp_mouse":[14,51,56,74,94,116,134,154,175,194,215,236,255,275,294,316,335,355,375,395,415,436,454,476,495,515,536,555,575,595,616,634,655,674,695,716,735,755,775,795,815,835,855,875,894,916,936,956,975,994,1015,1034,1055,1074,1096,1115,1134,1154,1175,1195,1214,1234,1254,1275,1295,1316,1335,1354,1375,1394,1415,1436,1455,1475,1495,1514,1534,1555,1575,1594,1614,1634,1654,1675,1695,1714,1736,1755,1775,1795,1814,1835,1855,1875,1896,1914,1936,1955,1975,1995],"xSR":741.5,"ySR":573.95,"xT1":424.9,"yT1":0,"xT2":1058.1,"yT2":0,"toosoon":0,"cond_shown":"Congruent","ratio_trial":200,"L_num":11,"L_den":22,"R_num":3,"R_den":10,"correct_side":1,"subjID":"samuelespinosacortes24","gender":"0","school":"6","age":"11"},{"start_time":1551891838585,"click_time":1551891839938,"finger_time":1551891839498,"fix_duration":1386.2394646430996,"trial":13,"RT":913,"MT":440,"sideResp":2,"stimulus":[],"xmouse":[767,767,767,767,767,767,767,767,767,767,767,767,767,767,767,767,767,767,767,767,767,767,767,767,767,767,767,767,767,767,767,767,767,767,767,767,767,767,767,767,767,767,770,774,791,870,889,902,913,928,936,943,950,958,968,972,974,974,974,983,989,995,998,1001,1007,1016,1037,1065],"ymouse":[604,604,604,604,604,604,604,604,604,604,604,604,604,604,604,604,604,604,604,604,604,604,604,604,604,604,604,604,604,604,604,604,604,604,604,604,604,604,604,604,604,604,605,603,594,541,520,498,477,440,423,405,389,371,335,308,294,289,284,270,263,258,251,245,223,200,154,94],"timestamp_mouse":[13,39,53,72,92,114,133,152,173,194,212,234,253,273,294,312,334,353,372,393,413,433,454,474,492,513,533,553,573,592,614,632,652,674,692,714,734,752,773,792,814,834,852,874,892,913,932,953,973,993,1012,1032,1053,1073,1092,1113,1132,1152,1172,1192,1212,1232,1254,1273,1293,1312,1333,1353],"xSR":741.5,"ySR":573.95,"xT1":424.9,"yT1":0,"xT2":1058.1,"yT2":0,"toosoon":0,"cond_shown":"Congruent","ratio_trial":300,"L_num":7,"L_den":14,"R_num":20,"R_den":25,"correct_side":2,"subjID":"samuelespinosacortes24","gender":"0","school":"6","age":"11"},{"start_time":1551891842420,"click_time":1551891844657,"finger_time":1551891844458,"fix_duration":1421.9065627160198,"trial":14,"RT":2038,"MT":199,"sideResp":1,"stimulus":[],"xmouse":[809,809,809,809,809,809,809,809,809,809,809,809,809,809,809,809,809,809,809,809,809,809,809,809,809,809,809,809,809,809,809,809,809,809,809,809,809,809,809,809,809,809,809,809,809,809,809,809,809,809,809,809,809,809,809,809,809,809,809,809,809,809,809,809,809,809,809,809,809,809,809,809,809,809,809,809,809,809,809,809,809,809,809,809,809,809,809,809,809,809,809,809,809,809,809,809,810,803,798,793,787,783,778,761,749,731,677,533,502,487,470,446],"ymouse":[632,632,632,632,632,632,632,632,632,632,632,632,632,632,632,632,632,632,632,632,632,632,632,632,632,632,632,632,632,632,632,632,632,632,632,632,632,632,632,632,632,632,632,632,632,632,632,632,632,632,632,632,632,632,632,632,632,632,632,632,632,632,632,632,632,632,632,632,632,632,632,632,632,632,632,632,632,632,632,632,632,632,632,632,632,632,632,632,632,632,632,632,632,632,632,632,629,611,599,586,575,565,556,528,512,492,423,276,232,197,149,97],"timestamp_mouse":[17,39,58,78,97,117,138,157,177,198,218,238,258,278,298,317,337,357,379,398,417,438,458,478,498,518,538,558,577,597,618,638,658,678,698,718,738,757,777,798,819,837,857,877,897,917,938,958,977,998,1018,1038,1058,1078,1098,1118,1137,1157,1178,1197,1218,1238,1258,1277,1299,1319,1338,1357,1378,1399,1417,1437,1459,1478,1497,1519,1538,1557,1577,1598,1618,1639,1657,1677,1699,1718,1737,1757,1778,1798,1818,1838,1859,1879,1898,1918,1937,1958,1978,1998,2019,2038,2057,2078,2097,2118,2137,2157,2178,2198,2218,2237],"xSR":741.5,"ySR":573.95,"xT1":424.9,"yT1":0,"xT2":1058.1,"yT2":0,"toosoon":0,"cond_shown":"Congruent","ratio_trial":100,"L_num":2,"L_den":5,"R_num":6,"R_den":12,"correct_side":2,"subjID":"samuelespinosacortes24","gender":"0","school":"6","age":"11"},{"start_time":1551891846762,"click_time":1551891848997,"finger_time":1551891848118,"fix_duration":582.5766008326837,"trial":15,"RT":1356,"MT":879,"sideResp":1,"stimulus":[],"xmouse":[795,795,795,795,795,795,795,795,795,795,795,795,795,795,795,795,795,795,795,795,795,795,795,795,795,795,795,795,795,795,795,795,795,795,795,795,795,803,813,818,822,826,828,829,830,830,830,830,830,830,830,830,830,830,830,830,830,830,830,830,830,830,830,830,830,830,830,826,816,802,768,743,705,669,633,559,524,511,500,493,485,485,485,485,485,485,485,485,485,485,485,485,485,485,485,485,485,485,485,485,485,485,485,485,485,485,485,485,485,485,485,484],"ymouse":[599,599,599,599,599,599,599,599,599,599,599,599,599,599,599,599,599,599,599,599,599,599,599,599,599,599,599,599,599,599,599,599,599,599,599,599,599,598,596,593,591,589,589,588,588,588,588,588,588,588,588,588,588,588,588,588,588,588,588,588,588,588,588,588,588,588,585,568,546,512,405,345,279,213,144,0,0,0,0,0,0,0,0,0,0,0,0,0,0,0,0,0,0,0,0,0,0,0,0,0,0,0,0,0,0,0,0,0,0,0,0,3],"timestamp_mouse":[16,41,56,76,95,117,136,156,176,197,216,236,256,276,295,315,335,356,376,395,417,435,456,475,495,517,537,555,575,595,615,636,655,676,697,716,736,755,775,795,816,836,856,876,897,916,936,956,977,996,1015,1036,1056,1076,1095,1117,1135,1156,1176,1197,1217,1236,1257,1275,1295,1317,1335,1356,1375,1395,1416,1436,1456,1475,1496,1516,1536,1556,1576,1596,1616,1635,1656,1677,1697,1717,1736,1757,1775,1795,1816,1836,1855,1875,1900,1916,1936,1957,1976,1996,2017,2036,2056,2077,2096,2116,2135,2157,2176,2197,2216,2235],"xSR":741.5,"ySR":573.95,"xT1":424.9,"yT1":0,"xT2":1058.1,"yT2":0,"toosoon":0,"cond_shown":"Incongruent","ratio_trial":200,"L_num":4,"L_den":30,"R_num":1,"R_den":3,"correct_side":2,"subjID":"samuelespinosacortes24","gender":"0","school":"6","age":"11"},{"start_time":1551891851787,"click_time":1551891853497,"finger_time":1551891853157,"fix_duration":289.3725563577647,"trial":16,"RT":1370,"MT":340,"sideResp":2,"stimulus":[],"xmouse":[777,777,777,777,777,777,777,777,777,777,777,777,777,777,777,777,777,777,777,777,777,777,777,777,777,777,777,777,777,777,777,777,777,777,777,777,777,777,777,777,777,777,777,777,777,777,777,777,777,777,777,777,777,777,777,777,777,777,777,777,777,777,777,777,777,781,807,840,849,852,864,878,890,904,936,949,959,969,981,1021,1046,1064,1074,1079,1100,1124],"ymouse":[647,647,647,647,647,647,647,647,647,647,647,647,647,647,647,647,647,647,647,647,647,647,647,647,647,647,647,647,647,647,647,647,647,647,647,647,647,647,647,647,647,647,647,647,647,647,647,647,647,647,647,647,647,647,647,647,647,647,647,647,647,647,647,647,647,648,637,622,617,605,583,562,545,528,476,447,427,405,378,296,248,210,186,160,113,73],"timestamp_mouse":[11,40,51,71,90,111,130,151,170,190,212,230,252,270,292,312,332,350,371,391,412,431,450,470,491,510,532,551,570,590,611,631,652,672,690,712,731,751,770,792,810,830,851,872,892,910,932,951,970,992,1010,1031,1051,1072,1091,1110,1132,1151,1171,1191,1211,1231,1250,1270,1290,1311,1332,1350,1370,1390,1411,1431,1451,1470,1490,1512,1530,1550,1570,1591,1611,1631,1650,1671,1691,1710],"xSR":741.5,"ySR":573.95,"xT1":424.9,"yT1":0,"xT2":1058.1,"yT2":0,"toosoon":0,"cond_shown":"Incongruent","ratio_trial":100,"L_num":13,"L_den":26,"R_num":12,"R_den":20,"correct_side":2,"subjID":"samuelespinosacortes24","gender":"0","school":"6","age":"11"},{"start_time":1551891855879,"click_time":1551891857798,"finger_time":1551891857099,"fix_duration":960.8759781913745,"trial":17,"RT":1220,"MT":699,"sideResp":2,"stimulus":[],"xmouse":[785,785,785,785,785,785,785,785,785,785,785,785,785,785,785,785,785,785,785,785,785,785,785,785,785,785,785,785,785,785,785,785,785,785,785,785,785,785,785,785,785,785,785,785,785,785,785,785,785,785,785,785,785,785,785,785,786,787,789,803,814,826,842,860,891,906,920,943,968,993,996,998,999,1001,1004,1008,1012,1016,1018,1021,1024,1027,1029,1029,1035,1040,1043,1045,1046,1050,1052,1054,1056,1057,1058,1061],"ymouse":[598,598,598,598,598,598,598,598,598,598,598,598,598,598,598,598,598,598,598,598,598,598,598,598,598,598,598,598,598,598,598,598,598,598,598,598,598,598,598,598,598,598,598,598,598,598,598,598,598,598,598,598,598,598,598,598,598,598,597,575,553,521,493,454,372,346,304,245,193,137,130,126,124,122,116,110,105,100,96,88,83,79,77,76,69,65,63,62,62,59,58,57,56,56,55,54],"timestamp_mouse":[35,40,59,78,100,118,139,158,178,199,219,238,259,280,298,319,338,360,379,398,418,440,458,478,499,519,540,558,578,599,618,638,659,680,700,720,740,759,780,800,819,840,860,880,900,918,940,959,980,1000,1018,1038,1060,1078,1098,1120,1140,1159,1179,1198,1220,1239,1259,1278,1298,1318,1338,1359,1379,1398,1418,1439,1460,1479,1499,1519,1538,1558,1579,1599,1619,1638,1659,1678,1699,1720,1739,1758,1779,1799,1819,1838,1859,1879,1898,1919],"xSR":741.5,"ySR":573.95,"xT1":424.9,"yT1":0,"xT2":1058.1,"yT2":0,"toosoon":0,"cond_shown":"Congruent","ratio_trial":300,"L_num":7,"L_den":14,"R_num":20,"R_den":25,"correct_side":2,"subjID":"samuelespinosacortes24","gender":"0","school":"6","age":"11"},{"start_time":1551891860662,"click_time":1551891865517,"finger_time":1551891863419,"fix_duration":1382.792021179709,"trial":18,"RT":2757,"MT":2098,"sideResp":2,"stimulus":[],"xmouse":[812,812,812,812,812,812,812,812,812,812,812,812,812,812,812,812,812,812,812,812,812,812,812,812,812,812,812,812,812,812,812,812,812,812,812,812,812,812,812,812,812,812,812,812,812,812,812,812,812,812,812,812,812,812,812,812,812,812,812,812,812,812,812,812,812,812,812,812,812,812,812,812,812,812,812,812,812,812,812,812,812,812,812,812,812,812,812,812,812,812,812,812,812,812,812,812,812,812,812,812,812,812,812,812,812,812,812,812,812,812,812,812,812,812,812,812,812,812,812,812,812,812,812,812,812,812,812,809,806,794,782,781,783,788,793,809,833,873,922,965,999,1002,1002,1002,1002,1004,1005,1006,1006,1006,1006,1006,1006,1006,1006,995,993,991,989,985,983,983,983,990,994,994,993,990,987,984,978,976,975,974,974,974,973,973,972,968,958,953,945,933,914,827,783,726,693,682,682,681,680,680,679,677,677,677,677,677,677,677,677,677,677,677,677,677,677,677,677,676,676,676,676,676,676,676,676,676,676,676,676,676,676,676,676,676,676,676,676,676,681,722,800,949,988,1002,1008,1015,1039,1055,1062],"ymouse":[621,621,621,621,621,621,621,621,621,621,621,621,621,621,621,621,621,621,621,621,621,621,621,621,621,621,621,621,621,621,621,621,621,621,621,621,621,621,621,621,621,621,621,621,621,621,621,621,621,621,621,621,621,621,621,621,621,621,621,621,621,621,621,621,621,621,621,621,621,621,621,621,621,621,621,621,621,621,621,621,621,621,621,621,621,621,621,621,621,621,621,621,621,621,621,621,621,621,621,621,621,621,621,621,621,621,621,621,621,621,621,621,621,621,621,621,621,621,621,621,621,621,621,621,621,621,621,622,623,630,630,628,626,623,618,601,582,547,485,439,386,378,377,377,377,382,393,396,396,396,396,396,396,397,399,404,405,405,407,408,409,409,408,395,385,375,368,358,342,323,279,267,261,258,258,258,257,259,266,276,286,288,288,288,287,276,274,274,272,269,269,269,270,270,272,273,273,273,273,273,273,273,273,273,273,273,273,273,273,273,273,273,273,273,273,273,273,273,273,273,273,273,273,273,273,273,273,273,273,273,273,273,269,248,214,148,126,115,107,97,65,41,29],"timestamp_mouse":[16,37,56,75,97,115,136,156,177,195,216,236,255,277,295,316,336,356,377,395,417,435,456,476,496,517,535,556,576,596,616,636,655,675,697,716,736,757,777,796,816,837,857,876,895,916,935,955,976,995,1015,1035,1057,1075,1097,1117,1135,1156,1176,1195,1217,1236,1256,1277,1295,1315,1335,1355,1377,1397,1416,1437,1456,1476,1497,1516,1536,1555,1577,1595,1617,1635,1655,1676,1696,1715,1737,1755,1776,1796,1815,1836,1856,1877,1895,1917,1937,1956,1976,1995,2016,2037,2057,2075,2096,2117,2136,2155,2176,2197,2217,2235,2256,2275,2297,2317,2335,2357,2376,2396,2416,2436,2456,2475,2496,2515,2535,2556,2576,2595,2616,2636,2656,2676,2696,2715,2735,2757,2776,2796,2816,2836,2855,2876,2897,2916,2936,2956,2976,2997,3015,3036,3056,3075,3095,3115,3136,3156,3176,3197,3217,3236,3257,3276,3296,3316,3337,3355,3377,3396,3415,3437,3456,3476,3497,3516,3536,3556,3576,3596,3616,3637,3656,3676,3697,3716,3735,3755,3777,3796,3815,3836,3857,3875,3895,3916,3936,3957,3975,3997,4016,4036,4056,4076,4097,4116,4135,4155,4175,4196,4216,4237,4255,4276,4295,4315,4335,4357,4376,4395,4415,4436,4456,4477,4497,4516,4536,4555,4575,4595,4617,4636,4656,4676,4695,4716,4737,4756,4776,4796,4815,4836,4855],"xSR":741.5,"ySR":573.95,"xT1":424.9,"yT1":0,"xT2":1058.1,"yT2":0,"toosoon":0,"cond_shown":"Congruent","ratio_trial":200,"L_num":8,"L_den":15,"R_num":7,"R_den":21,"correct_side":1,"subjID":"samuelespinosacortes24","gender":"0","school":"6","age":"11"},{"start_time":1551891866931,"click_time":1551891868238,"finger_time":1551891867917,"fix_duration":250,"trial":19,"RT":986,"MT":321,"sideResp":1,"stimulus":[],"xmouse":[803,803,803,803,803,803,803,803,803,803,803,803,803,803,803,803,803,803,803,803,803,803,803,803,803,803,803,803,803,803,803,803,803,803,803,803,803,803,803,803,803,803,803,803,803,798,796,779,763,748,736,725,695,678,663,656,647,629,623,615,607,598,558,529,500,474],"ymouse":[654,654,654,654,654,654,654,654,654,654,654,654,654,654,654,654,654,654,654,654,654,654,654,654,654,654,654,654,654,654,654,654,654,654,654,654,654,654,654,654,654,654,654,654,654,643,639,605,575,553,534,522,490,477,464,455,443,417,403,386,368,346,261,199,138,77],"timestamp_mouse":[8,27,61,67,88,107,127,148,166,188,208,227,248,268,286,308,326,348,368,386,407,426,448,468,488,507,527,548,568,586,607,627,646,668,688,707,728,746,767,786,807,828,846,867,888,907,928,947,967,986,1006,1028,1047,1068,1086,1106,1127,1146,1167,1186,1207,1228,1247,1267,1287,1307],"xSR":741.5,"ySR":573.95,"xT1":424.9,"yT1":0,"xT2":1058.1,"yT2":0,"toosoon":0,"cond_shown":"Incongruent","ratio_trial":300,"L_num":7,"L_den":10,"R_num":8,"R_den":20,"correct_side":1,"subjID":"samuelespinosacortes24","gender":"0","school":"6","age":"11"},{"start_time":1551891870346,"click_time":1551891872178,"finger_time":1551891871738,"fix_duration":886.7086606435232,"trial":20,"RT":1392,"MT":440,"sideResp":1,"stimulus":[],"xmouse":[809,809,809,809,809,809,809,809,809,809,809,809,809,809,809,809,809,809,809,809,809,809,809,809,809,809,809,809,809,809,809,809,809,809,809,809,809,809,809,809,809,809,809,809,809,809,809,809,809,809,809,809,809,809,809,809,809,809,809,809,809,809,809,809,809,809,805,790,781,772,761,741,736,731,726,719,706,701,700,697,694,690,678,655,626,600,566,558,558,552,541,518],"ymouse":[633,633,633,633,633,633,633,633,633,633,633,633,633,633,633,633,633,633,633,633,633,633,633,633,633,633,633,633,633,633,633,633,633,633,633,633,633,633,633,633,633,633,633,633,633,633,633,633,633,633,633,633,633,633,633,633,633,633,633,633,633,633,633,633,633,632,625,594,582,571,560,547,542,537,532,525,501,473,394,333,303,252,212,153,95,55,6,0,0,1,6,17],"timestamp_mouse":[19,34,53,71,91,113,133,151,172,192,213,233,251,271,292,313,331,353,372,393,413,433,452,472,492,511,532,553,571,593,613,633,653,671,693,712,732,752,773,793,811,832,851,873,892,912,933,953,971,991,1012,1032,1052,1072,1092,1111,1131,1152,1173,1192,1212,1232,1252,1271,1293,1313,1331,1353,1371,1392,1411,1431,1452,1472,1493,1512,1531,1551,1572,1593,1612,1632,1652,1671,1691,1713,1732,1751,1773,1792,1813,1832],"xSR":741.5,"ySR":573.95,"xT1":424.9,"yT1":0,"xT2":1058.1,"yT2":0,"toosoon":0,"cond_shown":"Congruent","ratio_trial":100,"L_num":9,"L_den":15,"R_num":8,"R_den":16,"correct_side":1,"subjID":"samuelespinosacortes24","gender":"0","school":"6","age":"11"},{"start_time":1551891876306,"click_time":1551891877699,"finger_time":1551891877077,"fix_duration":1347.7755833629628,"trial":21,"RT":771,"MT":622,"sideResp":2,"stimulus":[],"xmouse":[809,809,809,809,809,809,808,807,800,797,796,796,796,796,796,796,796,796,796,796,796,796,796,796,796,796,796,796,796,796,796,796,796,796,796,796,795,810,862,898,940,968,988,1007,1012,1017,1027,1036,1055,1062,1066,1071,1075,1086,1092,1095,1098,1100,1101,1101,1101,1101,1101,1101,1101,1101,1101,1101,1098,1097],"ymouse":[604,604,604,604,604,604,604,604,605,605,605,605,605,605,605,605,605,605,605,605,605,605,605,605,605,605,605,605,605,605,605,605,605,605,605,605,605,594,572,554,538,526,515,494,482,458,428,390,324,299,274,248,233,197,180,168,162,160,157,157,157,154,147,135,130,128,125,123,102,92],"timestamp_mouse":[13,36,52,72,93,111,131,151,172,192,211,233,251,272,292,313,333,352,373,392,411,433,451,472,492,512,532,551,573,592,613,632,652,673,692,711,732,751,771,793,812,832,853,871,891,912,932,953,972,992,1011,1033,1053,1071,1091,1112,1132,1152,1173,1193,1212,1233,1252,1272,1292,1313,1333,1352,1372,1392],"xSR":741.5,"ySR":573.95,"xT1":424.9,"yT1":0,"xT2":1058.1,"yT2":0,"toosoon":0,"cond_shown":"Incongruent","ratio_trial":300,"L_num":13,"L_den":26,"R_num":12,"R_den":15,"correct_side":2,"subjID":"samuelespinosacortes24","gender":"0","school":"6","age":"11"},{"start_time":1551891880276,"click_time":1551891881758,"finger_time":1551891881577,"fix_duration":757.638741361941,"trial":22,"RT":1301,"MT":181,"sideResp":2,"stimulus":[],"xmouse":[803,803,803,803,803,803,801,799,799,799,799,799,799,799,799,799,799,799,799,799,799,799,799,799,799,799,799,799,799,799,799,799,799,799,799,799,799,799,799,799,799,799,799,799,799,804,804,804,804,804,804,804,805,805,805,805,807,807,809,809,810,810,813,818,827,855,866,884,918,961,1061,1095,1117,1139,1158],"ymouse":[635,635,635,635,635,635,637,638,638,638,638,638,638,638,638,638,638,638,638,638,638,638,638,638,638,638,638,638,638,638,638,638,638,638,638,638,638,638,638,638,638,638,638,638,638,642,642,642,642,642,642,642,643,643,643,643,643,643,643,643,643,643,640,639,632,604,590,563,500,423,283,236,199,148,97],"timestamp_mouse":[10,33,43,61,83,102,122,141,161,182,201,223,242,261,282,301,323,341,363,382,403,421,442,462,481,503,521,543,562,583,602,621,641,662,681,703,722,742,762,782,803,822,843,861,881,902,923,943,963,982,1001,1021,1042,1063,1083,1102,1122,1141,1162,1182,1202,1222,1242,1262,1283,1301,1322,1342,1362,1383,1402,1422,1442,1463,1482],"xSR":741.5,"ySR":573.95,"xT1":424.9,"yT1":0,"xT2":1058.1,"yT2":0,"toosoon":0,"cond_shown":"Congruent","ratio_trial":200,"L_num":3,"L_den":12,"R_num":9,"R_den":20,"correct_side":2,"subjID":"samuelespinosacortes24","gender":"0","school":"6","age":"11"},{"start_time":1551891883376,"click_time":1551891884777,"finger_time":1551891884338,"fix_duration":496.3562255687185,"trial":23,"RT":962,"MT":439,"sideResp":1,"stimulus":[],"xmouse":[776,776,776,776,776,776,776,776,776,776,776,776,776,776,776,776,776,776,776,776,776,776,776,776,776,776,776,776,776,776,776,776,776,776,776,776,776,776,776,776,776,776,776,776,776,769,752,744,739,735,721,698,661,632,623,621,617,610,601,591,575,571,571,571,571,571,570,567,557,544,507],"ymouse":[613,613,613,613,613,613,613,613,613,613,613,613,613,613,613,613,613,613,613,613,613,613,613,613,613,613,613,613,613,613,613,613,613,613,613,613,613,613,613,613,613,613,613,613,613,611,595,581,571,561,517,451,362,287,267,218,198,176,153,128,91,83,81,81,81,81,81,78,74,71,65],"timestamp_mouse":[8,22,42,61,81,103,122,143,162,181,201,221,242,261,283,301,321,342,362,381,401,423,443,462,482,503,522,542,563,581,602,621,641,662,682,703,721,742,762,783,801,821,842,863,882,902,922,943,962,983,1002,1021,1042,1063,1082,1102,1121,1141,1162,1182,1201,1222,1242,1262,1281,1301,1323,1342,1362,1381,1401],"xSR":741.5,"ySR":573.95,"xT1":424.9,"yT1":0,"xT2":1058.1,"yT2":0,"toosoon":0,"cond_shown":"Congruent","ratio_trial":300,"L_num":20,"L_den":25,"R_num":5,"R_den":10,"correct_side":1,"subjID":"samuelespinosacortes24","gender":"0","school":"6","age":"11"},{"start_time":1551891886069,"click_time":1551891887838,"finger_time":1551891887458,"fix_duration":250,"trial":24,"RT":1389,"MT":380,"sideResp":2,"stimulus":[],"xmouse":[757,757,757,759,759,761,762,762,762,762,762,762,762,762,762,762,762,762,762,762,762,762,762,762,762,762,762,762,762,762,762,762,762,762,762,762,762,762,762,762,762,762,762,762,762,762,762,762,762,762,762,762,762,762,762,762,762,762,762,762,762,762,762,762,762,762,772,780,797,822,908,933,960,992,1008,1031,1042,1054,1069,1083,1114,1123,1128,1133,1135,1126,1124,1124,1125],"ymouse":[592,592,592,595,598,603,604,605,605,605,605,605,605,605,605,605,605,605,605,605,605,605,605,605,605,605,605,605,605,605,605,605,605,605,605,605,605,605,605,605,605,605,605,605,605,605,605,605,605,605,605,605,605,605,605,605,605,605,605,605,605,605,605,605,605,605,602,598,588,568,495,467,433,395,367,323,304,283,259,235,194,180,170,160,147,118,110,105,99],"timestamp_mouse":[10,40,48,69,88,109,130,148,170,189,208,230,250,268,288,309,329,348,369,389,409,429,450,470,490,509,529,549,568,590,609,628,649,668,688,709,729,750,770,788,809,829,850,868,889,910,928,950,970,990,1009,1030,1050,1069,1090,1108,1128,1149,1170,1189,1210,1230,1250,1269,1290,1310,1329,1350,1368,1389,1408,1428,1448,1468,1488,1508,1528,1549,1569,1588,1609,1628,1648,1669,1690,1709,1730,1749,1769],"xSR":741.5,"ySR":573.95,"xT1":424.9,"yT1":0,"xT2":1058.1,"yT2":0,"toosoon":0,"cond_shown":"Congruent","ratio_trial":100,"L_num":4,"L_den":8,"R_num":6,"R_den":10,"correct_side":2,"subjID":"samuelespinosacortes24","gender":"0","school":"6","age":"11"},{"start_time":1551891889397,"click_time":1551891891177,"finger_time":1551891890578,"fix_duration":518.1872569445691,"trial":25,"RT":1181,"MT":599,"sideResp":1,"stimulus":[],"xmouse":[798,798,798,798,798,798,798,798,798,798,798,798,798,798,798,798,798,798,798,798,798,798,798,798,798,798,798,798,798,798,798,798,798,798,798,798,798,798,798,798,798,798,798,798,798,798,798,798,798,798,798,798,798,798,798,797,789,781,770,726,708,694,687,684,677,674,668,660,651,643,638,634,629,618,561,525,487,470,468,467,467,467,467,467,466,466,466,466,466,469],"ymouse":[613,613,613,613,613,613,613,613,613,613,613,613,613,613,613,613,613,613,613,613,613,613,613,613,613,613,613,613,613,613,613,613,613,613,613,613,613,613,613,613,613,613,613,613,613,613,613,613,613,613,613,613,613,613,613,610,599,587,578,542,521,501,490,484,453,429,392,340,302,256,235,218,201,184,134,118,107,103,103,103,103,103,103,103,102,102,102,102,102,92],"timestamp_mouse":[9,31,41,61,80,101,122,141,161,181,200,221,242,261,282,300,322,342,360,381,402,421,441,461,480,501,520,541,561,581,600,621,641,662,681,701,720,742,760,780,801,820,841,862,881,901,920,941,961,982,1001,1020,1042,1060,1080,1102,1122,1142,1160,1181,1201,1222,1242,1261,1280,1301,1320,1340,1362,1380,1400,1421,1442,1460,1481,1501,1520,1541,1560,1580,1600,1621,1640,1662,1681,1701,1720,1741,1762,1780],"xSR":741.5,"ySR":573.95,"xT1":424.9,"yT1":0,"xT2":1058.1,"yT2":0,"toosoon":0,"cond_shown":"Incongruent","ratio_trial":200,"L_num":3,"L_den":4,"R_num":11,"R_den":20,"correct_side":1,"subjID":"samuelespinosacortes24","gender":"0","school":"6","age":"11"},{"start_time":1551891892350,"click_time":1551891894098,"finger_time":1551891893577,"fix_duration":250,"trial":26,"RT":1227,"MT":521,"sideResp":2,"stimulus":[],"xmouse":[784,784,784,784,784,784,784,784,784,784,784,784,784,784,784,784,784,784,784,784,784,784,784,784,784,784,784,784,784,784,784,784,784,784,784,784,784,784,784,784,784,784,784,784,784,784,784,784,784,784,784,784,784,784,784,784,784,787,795,806,818,876,928,965,992,1015,1066,1090,1116,1134,1145,1171,1183,1186,1186,1185,1183,1183,1183,1183,1183,1183,1182,1182,1182,1178,1168,1156],"ymouse":[629,629,629,629,629,629,629,629,629,629,629,629,629,629,629,629,629,629,629,629,629,629,629,629,629,629,629,629,629,629,629,629,629,629,629,629,629,629,629,629,629,629,629,629,629,629,629,629,629,629,629,629,629,629,629,629,629,629,625,621,613,535,467,415,378,349,283,254,216,188,168,117,83,60,45,33,29,29,29,29,29,29,29,29,29,29,29,24],"timestamp_mouse":[9,28,50,68,87,109,127,148,168,189,208,228,247,269,287,308,328,349,369,389,407,429,448,468,488,509,529,548,568,589,609,629,647,668,687,707,728,748,768,788,807,827,848,867,889,909,928,948,967,988,1008,1028,1048,1069,1089,1107,1129,1148,1167,1188,1209,1227,1248,1267,1287,1309,1327,1348,1368,1388,1408,1429,1448,1469,1487,1508,1528,1549,1569,1588,1608,1628,1648,1669,1689,1707,1728,1747],"xSR":741.5,"ySR":573.95,"xT1":424.9,"yT1":0,"xT2":1058.1,"yT2":0,"toosoon":0,"cond_shown":"Incongruent","ratio_trial":200,"L_num":7,"L_den":15,"R_num":6,"R_den":9,"correct_side":2,"subjID":"samuelespinosacortes24","gender":"0","school":"6","age":"11"},{"start_time":1551891896698,"click_time":1551891898437,"finger_time":1551891897878,"fix_duration":1437.5405646731704,"trial":27,"RT":1180,"MT":559,"sideResp":1,"stimulus":[],"xmouse":[798,798,798,796,791,791,791,791,790,790,790,790,790,790,790,790,790,790,790,790,790,790,790,790,790,790,790,790,790,790,790,790,790,790,790,790,790,790,790,790,790,790,790,790,790,790,790,790,790,790,790,790,790,790,790,790,790,790,785,772,758,751,742,734,712,696,683,673,667,660,654,646,637,626,603,590,581,570,561,539,533,528,526,526,526,526,525,522],"ymouse":[597,597,597,599,605,611,615,615,616,616,616,616,616,616,616,616,616,616,616,616,616,616,616,616,616,616,616,616,616,616,616,616,616,616,616,616,616,616,616,616,616,616,616,616,616,616,616,616,616,616,616,616,616,616,616,616,616,616,603,544,455,403,353,293,154,99,67,50,37,25,18,15,13,12,10,9,9,9,11,17,17,18,19,19,19,19,20,21],"timestamp_mouse":[8,31,40,61,79,100,119,140,161,181,200,219,241,259,281,300,320,341,360,379,400,421,439,460,481,499,521,540,561,581,599,620,639,661,679,701,721,739,759,780,800,819,840,861,881,900,921,941,960,981,999,1020,1040,1060,1079,1101,1121,1139,1160,1180,1200,1220,1241,1260,1280,1300,1319,1340,1360,1379,1400,1420,1440,1460,1480,1499,1520,1540,1561,1580,1600,1620,1639,1660,1681,1700,1720,1739],"xSR":741.5,"ySR":573.95,"xT1":424.9,"yT1":0,"xT2":1058.1,"yT2":0,"toosoon":0,"cond_shown":"Incongruent","ratio_trial":300,"L_num":4,"L_den":5,"R_num":6,"R_den":12,"correct_side":1,"subjID":"samuelespinosacortes24","gender":"0","school":"6","age":"11"},{"start_time":1551891900541,"click_time":1551891902097,"finger_time":1551891901878,"fix_duration":759.1701797344294,"trial":28,"RT":1337,"MT":219,"sideResp":1,"stimulus":[],"xmouse":[803,803,803,803,803,803,803,803,803,803,803,803,803,803,803,803,803,803,803,803,803,803,803,803,803,803,803,803,803,803,803,803,803,803,803,803,803,803,803,803,803,803,803,803,803,803,803,803,803,803,803,803,803,803,803,803,803,803,803,803,803,803,803,803,801,794,703,661,623,593,580,572,568,562,557,547,500,495],"ymouse":[594,594,594,594,594,594,594,594,594,594,594,594,594,594,594,594,594,594,594,594,594,594,594,594,594,594,594,594,594,594,594,594,594,594,594,594,594,594,594,594,594,594,594,594,594,594,594,594,594,594,594,594,594,594,594,594,594,594,594,594,594,594,594,594,593,582,441,381,324,281,252,214,193,177,165,149,102,98],"timestamp_mouse":[18,37,58,76,98,117,138,157,178,198,216,237,256,277,297,316,337,356,378,396,418,436,457,477,496,517,537,558,577,598,616,636,657,677,696,717,738,756,778,797,818,838,856,878,896,917,937,957,977,997,1018,1037,1058,1078,1096,1116,1136,1157,1177,1197,1218,1237,1258,1277,1297,1317,1337,1358,1376,1397,1418,1437,1457,1476,1496,1517,1537,1556],"xSR":741.5,"ySR":573.95,"xT1":424.9,"yT1":0,"xT2":1058.1,"yT2":0,"toosoon":0,"cond_shown":"Congruent","ratio_trial":200,"L_num":12,"L_den":20,"R_num":6,"R_den":15,"correct_side":1,"subjID":"samuelespinosacortes24","gender":"0","school":"6","age":"11"},{"start_time":1551891907356,"click_time":1551891908598,"finger_time":1551891908078,"fix_duration":1175.1463536313609,"trial":29,"RT":722,"MT":520,"sideResp":2,"stimulus":[],"xmouse":[776,776,776,776,776,776,776,776,776,776,776,776,776,776,776,776,776,776,776,776,776,776,776,776,776,776,776,776,776,777,779,790,792,793,799,820,857,868,880,895,908,937,952,967,976,983,998,1010,1015,1021,1027,1046,1054,1059,1062,1063,1063,1065,1068,1072,1077,1085,1094],"ymouse":[616,616,616,616,616,616,616,616,616,616,616,616,616,616,616,616,616,616,616,616,616,616,616,616,616,616,616,616,616,616,615,608,607,607,604,595,568,555,539,520,502,461,443,426,415,405,387,368,358,344,331,296,278,261,245,228,187,172,158,146,135,113,95],"timestamp_mouse":[10,35,43,63,83,103,122,142,162,182,203,221,243,263,282,301,321,341,362,382,401,421,441,462,482,503,521,541,563,583,601,621,642,662,682,702,722,742,761,782,801,822,842,862,882,903,921,942,962,982,1002,1022,1043,1062,1081,1102,1121,1142,1162,1183,1202,1221,1242],"xSR":741.5,"ySR":573.95,"xT1":424.9,"yT1":0,"xT2":1058.1,"yT2":0,"toosoon":0,"cond_shown":"Congruent","ratio_trial":300,"L_num":5,"L_den":25,"R_num":6,"R_den":12,"correct_side":2,"subjID":"samuelespinosacortes24","gender":"0","school":"6","age":"11"},{"start_time":1551891910370,"click_time":1551891912098,"finger_time":1551891911778,"fix_duration":250,"trial":30,"RT":1408,"MT":320,"sideResp":1,"stimulus":[],"xmouse":[777,777,777,777,777,777,777,777,777,777,777,777,777,777,777,777,777,777,777,777,777,777,777,777,777,777,777,777,777,777,777,777,777,777,777,777,777,777,777,777,777,777,777,777,777,777,777,777,777,777,777,777,777,777,777,777,777,777,777,777,777,777,777,777,777,777,777,777,776,770,753,746,737,719,704,659,652,646,642,636,611,597,587,577,566,528,518],"ymouse":[616,616,616,616,616,616,616,616,616,616,616,616,616,616,616,616,616,616,616,616,616,616,616,616,616,616,616,616,616,616,616,616,616,616,616,616,616,616,616,616,616,616,616,616,616,616,616,616,616,616,616,616,616,616,616,616,616,616,616,616,616,616,616,616,616,616,616,616,615,610,544,482,432,389,356,283,269,255,240,221,153,127,110,96,85,67,65],"timestamp_mouse":[10,39,48,67,89,109,129,148,167,187,207,227,248,267,288,308,328,349,368,389,408,428,447,467,488,507,527,548,567,588,607,629,648,667,688,709,729,747,768,789,807,827,848,868,889,909,928,948,968,988,1008,1027,1049,1067,1087,1109,1128,1149,1169,1187,1208,1229,1247,1268,1287,1307,1328,1349,1369,1389,1408,1427,1448,1469,1488,1508,1528,1548,1567,1589,1608,1627,1648,1667,1689,1708,1728],"xSR":741.5,"ySR":573.95,"xT1":424.9,"yT1":0,"xT2":1058.1,"yT2":0,"toosoon":0,"cond_shown":"Incongruent","ratio_trial":100,"L_num":9,"L_den":15,"R_num":13,"R_den":26,"correct_side":1,"subjID":"samuelespinosacortes24","gender":"0","school":"6","age":"11"},{"start_time":1551891913856,"click_time":1551891915419,"finger_time":1551891915239,"fix_duration":536.6320086615221,"trial":31,"RT":1383,"MT":180,"sideResp":2,"stimulus":[],"xmouse":[793,793,793,793,793,793,793,793,793,793,793,793,793,793,793,793,793,793,793,793,793,793,793,793,793,793,793,793,793,793,793,793,793,793,793,793,793,793,793,793,793,793,793,793,793,793,793,793,793,793,793,793,793,793,793,793,793,793,793,793,793,793,793,793,796,799,818,824,834,841,852,887,920,952,994,1028,1077,1089,1099],"ymouse":[601,604,604,604,604,604,604,604,604,604,604,604,604,604,604,604,604,604,604,604,604,604,604,604,604,604,604,604,604,604,604,604,604,604,604,604,604,604,604,604,604,604,604,604,604,604,604,604,604,604,604,604,604,604,604,604,604,604,604,604,604,604,604,604,604,603,592,586,574,557,533,473,420,371,311,247,139,114,95],"timestamp_mouse":[1,36,42,61,83,102,122,142,162,183,203,221,242,261,283,303,321,341,362,381,402,421,442,463,483,502,523,542,562,583,603,622,641,663,683,702,723,741,761,781,803,822,841,863,882,902,923,942,962,982,1002,1023,1042,1062,1083,1103,1123,1142,1162,1181,1203,1221,1242,1262,1283,1303,1322,1341,1361,1383,1402,1422,1442,1462,1482,1501,1521,1543,1563],"xSR":741.5,"ySR":573.95,"xT1":424.9,"yT1":0,"xT2":1058.1,"yT2":0,"toosoon":0,"cond_shown":"Congruent","ratio_trial":200,"L_num":3,"L_den":10,"R_num":11,"R_den":22,"correct_side":2,"subjID":"samuelespinosacortes24","gender":"0","school":"6","age":"11"},{"start_time":1551891918249,"click_time":1551891919938,"finger_time":1551891919597,"fix_duration":250,"trial":32,"RT":1348,"MT":341,"sideResp":2,"stimulus":[],"xmouse":[798,798,798,798,798,798,798,798,798,798,798,798,798,798,798,798,798,798,798,798,798,798,798,798,798,798,798,798,798,798,798,798,798,798,798,798,798,798,798,798,798,798,798,798,798,798,798,798,798,798,798,798,798,798,798,798,798,801,807,809,809,809,809,809,809,810,830,854,878,902,925,987,1003,1015,1025,1037,1048,1050,1050,1050,1050,1050,1050,1054,1066],"ymouse":[654,654,654,654,654,654,654,654,654,654,654,654,654,654,654,654,654,654,654,654,654,654,654,654,654,654,654,654,654,654,654,654,654,654,654,654,654,654,654,654,654,654,654,654,654,654,654,654,654,654,654,654,654,654,654,654,654,653,650,649,649,649,649,649,649,649,635,602,538,477,410,189,91,12,0,0,0,0,0,0,0,0,0,10,28],"timestamp_mouse":[14,42,49,69,88,110,129,149,169,188,209,229,249,270,288,310,328,348,369,390,409,429,450,470,488,509,530,548,569,589,608,629,648,670,689,708,728,748,770,788,809,830,850,869,890,908,929,949,968,989,1010,1028,1049,1069,1088,1109,1130,1150,1169,1189,1210,1229,1249,1270,1288,1310,1329,1348,1370,1390,1409,1429,1448,1469,1488,1508,1528,1549,1568,1588,1609,1630,1649,1669,1689],"xSR":741.5,"ySR":573.95,"xT1":424.9,"yT1":0,"xT2":1058.1,"yT2":0,"toosoon":0,"cond_shown":"Congruent","ratio_trial":200,"L_num":6,"L_den":20,"R_num":11,"R_den":22,"correct_side":2,"subjID":"samuelespinosacortes24","gender":"0","school":"6","age":"11"},{"start_time":1551891926677,"click_time":1551891928659,"finger_time":1551891927420,"fix_duration":1077.2120088861477,"trial":33,"RT":743,"MT":1239,"sideResp":2,"stimulus":[],"xmouse":[755,755,755,755,755,755,755,755,755,755,755,755,755,755,755,755,755,755,755,755,755,755,755,755,755,755,755,757,757,757,757,757,757,757,757,759,766,787,819,872,965,975,978,978,978,973,972,972,972,972,972,972,972,972,972,976,985,997,1012,1031,1056,1057,1057,1057,1057,1057,1057,1057,1057,1057,1057,1057,1057,1057,1057,1057,1057,1057,1057,1057,1057,1057,1057,1056,1052,1027,1019,1015,1015,1015,1015,1015,1015,1015,1015,1015,1021,1031,1044,1059],"ymouse":[586,586,586,586,586,586,586,586,586,586,586,586,586,586,586,586,586,586,586,586,586,586,586,586,586,586,586,586,586,586,586,586,586,586,586,586,584,569,536,481,353,312,257,218,197,182,180,180,180,180,180,180,180,180,180,169,160,151,142,136,126,125,125,125,125,125,125,125,125,125,125,125,125,125,125,125,125,125,125,125,125,125,125,125,125,124,123,121,121,121,121,121,121,121,121,121,117,114,106,97],"timestamp_mouse":[8,32,42,61,83,103,121,143,163,181,203,222,242,263,283,304,322,341,362,381,401,423,441,463,481,501,522,542,561,582,603,621,642,662,681,702,722,743,763,782,802,821,841,862,883,901,923,943,961,981,1002,1021,1041,1063,1083,1102,1122,1142,1162,1182,1201,1223,1243,1261,1281,1301,1322,1342,136