[{"start_time":1551880540407,"click_time":1551880543194,"finger_time":1551880540417,"fix_duration":1028.877861939923,"trial":0,"RT":10,"MT":2777,"sideResp":2,"stimulus":[],"xmouse":[800,800,800,800,800,800,800,800,800,800,800,800,800,800,800,800,800,800,800,800,800,800,800,800,800,800,800,799,798,794,793,791,791,791,792,792,792,792,792,792,792,792,792,792,792,792,792,792,792,792,792,792,792,792,792,792,792,792,792,792,792,792,792,792,792,792,792,792,792,792,792,792,792,792,792,792,792,792,792,792,792,792,792,792,792,792,792,792,792,792,792,792,792,793,793,793,793,793,791,791,791,791,791,791,791,791,791,791,791,791,791,791,791,791,791,791,791,791,791,791,791,791,791,791,791,791,791,791,791,791,800,811,828,862,913,934,964,999,1028,1065],"ymouse":[535,535,535,535,535,535,535,535,535,535,535,535,535,535,535,535,535,535,535,535,535,535,535,535,535,535,538,544,550,559,561,567,571,577,584,584,584,584,584,585,585,585,585,585,585,585,585,585,585,585,585,585,585,585,585,585,585,585,585,585,585,585,585,585,585,585,585,585,585,585,585,585,585,585,585,585,585,585,585,585,585,585,585,585,585,585,585,585,585,585,587,588,589,590,592,593,596,599,604,605,606,606,607,607,607,607,607,607,607,607,607,607,607,607,607,607,607,607,607,607,607,607,607,607,607,607,607,607,607,607,591,561,493,415,303,257,207,152,111,55],"timestamp_mouse":[10,26,47,67,86,106,127,147,167,186,207,227,247,267,286,307,326,347,367,387,406,427,447,467,487,507,526,547,566,587,606,627,646,666,687,707,727,746,766,786,806,826,846,867,886,906,927,947,966,986,1006,1027,1046,1066,1086,1107,1127,1146,1167,1187,1207,1226,1246,1267,1287,1306,1326,1346,1367,1386,1406,1427,1446,1466,1486,1508,1527,1547,1567,1586,1606,1627,1647,1666,1686,1706,1727,1748,1766,1786,1807,1826,1847,1866,1886,1907,1926,1947,1967,1987,2006,2027,2046,2067,2086,2107,2127,2146,2167,2187,2206,2227,2247,2266,2286,2307,2326,2348,2367,2386,2406,2427,2448,2467,2487,2507,2526,2547,2567,2587,2606,2626,2646,2666,2686,2708,2727,2746,2767,2786],"xSR":741.5,"ySR":469.95,"xT1":424.9,"yT1":0,"xT2":1058.1,"yT2":0,"toosoon":0,"cond_shown":"Incongruent","ratio_trial":100,"L_num":10,"L_den":25,"R_num":8,"R_den":16,"correct_side":2,"subjID":"AndresMauricioAcostaPerez22","gender":"0","age":"11","school":"6","test":{"fix_dur":[250,1500],"timestim":1000,"targets_dim":[100,100],"targets_relative_coord":[0.3,0.7],"size_stim":[880,420],"start_dim":[100,100],"size_start":[300,300],"size_fix":60,"samplingrate":20,"img_types":["Congruent","Incongruent"],"ratios":[100,200,300],"rep_conds":19,"nTrials":120,"trials_to_rest":500,"Trials_order":[31,67,14,105,80,78,23,100,82,25,28,109,56,40,61,3,5,90,43,107,38,85,72,114,36,89,33,13,73,9,79,16,71,39,95,96,50,108,12,115,41,24,119,30,6,55,91,68,113,106,32,15,117,59,11,37,57,93,34,87,19,86,60,29,2,44,84,83,0,42,35,101,51,17,22,66,46,98,52,8,97,104,112,65,7,58,70,27,118,103,21,75,48,102,74,111,49,53,116,88,77,92,10,1,26,62,45,18,94,4,110,54,76,20,63,64,69,81,99,47],"cond_shown":["Incongruent","Incongruent","Congruent","Incongruent","Congruent","Congruent","Incongruent","Congruent","Congruent","Incongruent","Congruent","Incongruent","Congruent","Congruent","Incongruent","Incongruent","Incongruent","Congruent","Incongruent","Incongruent","Congruent","Incongruent","Congruent","Congruent","Congruent","Incongruent","Incongruent","Incongruent","Incongruent","Incongruent","Incongruent","Congruent","Incongruent","Incongruent","Incongruent","Congruent","Congruent","Congruent","Congruent","Incongruent","Incongruent","Congruent","Incongruent","Congruent","Congruent","Incongruent","Incongruent","Congruent","Incongruent","Congruent","Congruent","Incongruent","Incongruent","Incongruent","Incongruent","Incongruent","Incongruent","Incongruent","Congruent","Incongruent","Incongruent","Congruent","Congruent","Incongruent","Congruent","Congruent","Congruent","Incongruent","Congruent","Congruent","Incongruent","Incongruent","Incongruent","Incongruent","Congruent","Congruent","Congruent","Congruent","Congruent","Congruent","Incongruent","Congruent","Congruent","Incongruent","Incongruent","Congruent","Congruent","Incongruent","Congruent","Incongruent","Incongruent","Incongruent","Congruent","Congruent","Congruent","Incongruent","Incongruent","Incongruent","Congruent","Congruent","Incongruent","Congruent","Congruent","Incongruent","Congruent","Congruent","Incongruent","Congruent","Congruent","Congruent","Congruent","Congruent","Congruent","Congruent","Incongruent","Congruent","Incongruent","Incongruent","Incongruent","Incongruent"],"ratio_trial":[100,100,200,200,200,100,300,300,300,100,300,100,200,300,100,200,300,100,100,300,200,100,100,100,100,300,200,100,100,200,100,300,300,200,300,100,200,100,100,100,300,100,300,100,100,100,100,200,300,300,200,200,200,300,300,100,200,200,300,200,100,200,100,300,200,200,100,300,100,100,300,300,200,300,300,100,300,200,300,200,100,200,300,300,100,300,300,200,300,100,200,200,100,100,200,200,100,300,200,300,300,200,300,100,200,200,200,100,300,300,200,100,300,200,200,300,200,200,200,300],"left_num":[10,9,3,7,8,7,1,24,4,10,24,8,6,7,6,6,8,1,3,4,1,6,11,6,7,13,7,9,6,4,11,8,8,7,13,3,3,9,15,10,8,6,4,9,3,10,3,3,4,11,7,4,1,4,3,3,1,14,2,1,9,1,7,13,5,14,2,4,4,15,13,13,7,4,4,6,1,6,1,3,9,3,5,13,3,1,3,1,2,13,3,9,6,7,3,7,6,4,3,1,1,12,24,17,3,16,9,15,1,8,1,15,20,3,7,2,4,1,7,13],"right_num":[8,20,14,6,2,9,3,8,1,8,2,6,11,20,3,3,14,18,11,2,21,7,6,5,9,12,14,20,11,6,9,10,14,8,12,4,14,8,13,8,9,5,2,8,2,9,8,14,6,2,18,6,3,2,4,8,3,6,10,2,20,21,9,12,14,6,11,2,15,13,12,12,8,2,2,5,8,11,6,7,13,14,6,12,8,6,2,3,12,12,1,8,15,9,9,14,11,2,7,11,3,6,8,10,9,9,8,13,19,10,21,13,13,11,12,12,1,3,14,12],"left_den":[25,10,10,15,15,14,2,30,10,25,30,16,20,14,12,20,10,2,5,20,2,10,22,20,14,26,10,10,10,5,22,15,10,10,26,20,6,15,25,25,10,20,20,15,6,25,5,6,5,22,15,5,2,20,6,5,2,30,20,3,10,2,14,26,10,28,5,20,10,25,26,26,10,20,5,20,30,20,5,10,15,6,25,26,5,5,6,2,10,26,10,15,12,14,12,10,10,20,10,5,2,15,30,30,12,30,15,25,3,15,2,25,25,10,10,10,30,2,10,26],"right_den":[16,25,28,9,6,15,15,16,10,16,4,10,22,25,5,6,28,30,22,4,30,14,15,25,15,15,28,25,22,10,15,12,28,16,15,16,20,16,26,16,18,25,4,16,5,18,16,20,12,10,27,10,10,4,20,16,10,9,25,15,25,30,15,15,20,20,22,4,30,26,15,15,16,4,4,25,24,22,12,14,26,20,12,15,16,12,10,10,24,20,2,10,25,15,20,28,22,4,14,22,15,10,16,15,20,27,10,26,30,12,30,26,26,22,24,24,3,10,28,15],"correct_side":[2,1,2,2,1,2,1,1,1,2,1,2,2,2,2,2,1,2,1,2,2,1,1,1,2,2,1,1,1,1,2,2,1,1,2,2,2,1,1,2,1,1,2,1,1,2,1,2,1,1,2,1,1,2,1,1,1,2,2,1,1,2,2,2,2,1,2,2,2,1,2,2,1,2,1,1,2,2,2,2,1,2,2,2,1,2,1,1,2,2,2,2,2,2,2,1,1,2,2,2,1,1,1,2,2,1,2,1,2,2,2,1,1,2,1,2,2,1,1,2],"img_shown":["img2/100/Incongruent/R/I_Dist_100_LN_10_LD_25_RN_8_RD_16_1.png","img2/100/Incongruent/L/I_Dist_100_LN_9_LD_10_RN_20_RD_25_0.png","img2/200/Congruent/R/C_Dist_200_LN_3_LD_10_RN_14_RD_28_1.png","img2/200/Incongruent/R/I_Dist_200_LN_7_LD_15_RN_6_RD_9_1.png","img2/200/Congruent/L/C_Dist_200_LN_8_LD_15_RN_2_RD_6_0.png","img2/100/Congruent/R/C_Dist_100_LN_7_LD_14_RN_9_RD_15_1.png","img2/300/Incongruent/L/I_Dist_300_LN_1_LD_2_RN_3_RD_15_0.png","img2/300/Congruent/L/C_Dist_300_LN_24_LD_30_RN_8_RD_16_0.png","img2/300/Congruent/L/C_Dist_300_LN_4_LD_10_RN_1_RD_10_0.png","img2/100/Incongruent/R/I_Dist_100_LN_10_LD_25_RN_8_RD_16_1.png","img2/300/Congruent/L/C_Dist_300_LN_24_LD_30_RN_2_RD_4_0.png","img2/100/Incongruent/R/I_Dist_100_LN_8_LD_16_RN_6_RD_10_1.png","img2/200/Congruent/R/C_Dist_200_LN_6_LD_20_RN_11_RD_22_1.png","img2/300/Congruent/R/C_Dist_300_LN_7_LD_14_RN_20_RD_25_1.png","img2/100/Incongruent/R/I_Dist_100_LN_6_LD_12_RN_3_RD_5_1.png","img2/200/Incongruent/R/I_Dist_200_LN_6_LD_20_RN_3_RD_6_1.png","img2/300/Incongruent/L/I_Dist_300_LN_8_LD_10_RN_14_RD_28_0.png","img2/100/Congruent/R/C_Dist_100_LN_1_LD_2_RN_18_RD_30_1.png","img2/100/Incongruent/L/I_Dist_100_LN_3_LD_5_RN_11_RD_22_0.png","img2/300/Incongruent/R/I_Dist_300_LN_4_LD_20_RN_2_RD_4_1.png","img2/200/Congruent/R/C_Dist_200_LN_1_LD_2_RN_21_RD_30_1.png","img2/100/Incongruent/L/I_Dist_100_LN_6_LD_10_RN_7_RD_14_0.png","img2/100/Congruent/L/C_Dist_100_LN_11_LD_22_RN_6_RD_15_0.png","img2/100/Congruent/L/C_Dist_100_LN_6_LD_20_RN_5_RD_25_0.png","img2/100/Congruent/R/C_Dist_100_LN_7_LD_14_RN_9_RD_15_1.png","img2/300/Incongruent/R/I_Dist_300_LN_13_LD_26_RN_12_RD_15_1.png","img2/200/Incongruent/L/I_Dist_200_LN_7_LD_10_RN_14_RD_28_0.png","img2/100/Incongruent/L/I_Dist_100_LN_9_LD_10_RN_20_RD_25_0.png","img2/100/Incongruent/L/I_Dist_100_LN_6_LD_10_RN_11_RD_22_0.png","img2/200/Incongruent/L/I_Dist_200_LN_4_LD_5_RN_6_RD_10_0.png","img2/100/Incongruent/R/I_Dist_100_LN_11_LD_22_RN_9_RD_15_1.png","img2/300/Congruent/R/C_Dist_300_LN_8_LD_15_RN_10_RD_12_1.png","img2/300/Incongruent/L/I_Dist_300_LN_8_LD_10_RN_14_RD_28_0.png","img2/200/Incongruent/L/I_Dist_200_LN_7_LD_10_RN_8_RD_16_0.png","img2/300/Incongruent/R/I_Dist_300_LN_13_LD_26_RN_12_RD_15_1.png","img2/100/Congruent/R/C_Dist_100_LN_3_LD_20_RN_4_RD_16_1.png","img2/200/Congruent/R/C_Dist_200_LN_3_LD_6_RN_14_RD_20_1.png","img2/100/Congruent/L/C_Dist_100_LN_9_LD_15_RN_8_RD_16_0.png","img2/100/Congruent/L/C_Dist_100_LN_15_LD_25_RN_13_RD_26_0.png","img2/100/Incongruent/R/I_Dist_100_LN_10_LD_25_RN_8_RD_16_1.png","img2/300/Incongruent/L/I_Dist_300_LN_8_LD_10_RN_9_RD_18_0.png","img2/100/Congruent/L/C_Dist_100_LN_6_LD_20_RN_5_RD_25_0.png","img2/300/Incongruent/R/I_Dist_300_LN_4_LD_20_RN_2_RD_4_1.png","img2/100/Congruent/L/C_Dist_100_LN_9_LD_15_RN_8_RD_16_0.png","img2/100/Congruent/L/C_Dist_100_LN_3_LD_6_RN_2_RD_5_0.png","img2/100/Incongruent/R/I_Dist_100_LN_10_LD_25_RN_9_RD_18_1.png","img2/100/Incongruent/L/I_Dist_100_LN_3_LD_5_RN_8_RD_16_0.png","img2/200/Congruent/R/C_Dist_200_LN_3_LD_6_RN_14_RD_20_1.png","img2/300/Incongruent/L/I_Dist_300_LN_4_LD_5_RN_6_RD_12_0.png","img2/300/Congruent/L/C_Dist_300_LN_11_LD_22_RN_2_RD_10_0.png","img2/200/Congruent/R/C_Dist_200_LN_7_LD_15_RN_18_RD_27_1.png","img2/200/Incongruent/L/I_Dist_200_LN_4_LD_5_RN_6_RD_10_0.png","img2/200/Incongruent/L/I_Dist_200_LN_1_LD_2_RN_3_RD_10_0.png","img2/300/Incongruent/R/I_Dist_300_LN_4_LD_20_RN_2_RD_4_1.png","img2/300/Incongruent/L/I_Dist_300_LN_3_LD_6_RN_4_RD_20_0.png","img2/100/Incongruent/L/I_Dist_100_LN_3_LD_5_RN_8_RD_16_0.png","img2/200/Incongruent/L/I_Dist_200_LN_1_LD_2_RN_3_RD_10_0.png","img2/200/Incongruent/R/I_Dist_200_LN_14_LD_30_RN_6_RD_9_1.png","img2/300/Congruent/R/C_Dist_300_LN_2_LD_20_RN_10_RD_25_1.png","img2/200/Incongruent/L/I_Dist_200_LN_1_LD_3_RN_2_RD_15_0.png","img2/100/Incongruent/L/I_Dist_100_LN_9_LD_10_RN_20_RD_25_0.png","img2/200/Congruent/R/C_Dist_200_LN_1_LD_2_RN_21_RD_30_1.png","img2/100/Congruent/R/C_Dist_100_LN_7_LD_14_RN_9_RD_15_1.png","img2/300/Incongruent/R/I_Dist_300_LN_13_LD_26_RN_12_RD_15_1.png","img2/200/Congruent/R/C_Dist_200_LN_5_LD_10_RN_14_RD_20_1.png","img2/200/Congruent/L/C_Dist_200_LN_14_LD_28_RN_6_RD_20_0.png","img2/100/Congruent/R/C_Dist_100_LN_2_LD_5_RN_11_RD_22_1.png","img2/300/Incongruent/R/I_Dist_300_LN_4_LD_20_RN_2_RD_4_1.png","img2/100/Congruent/R/C_Dist_100_LN_4_LD_10_RN_15_RD_30_1.png","img2/100/Congruent/L/C_Dist_100_LN_15_LD_25_RN_13_RD_26_0.png","img2/300/Incongruent/R/I_Dist_300_LN_13_LD_26_RN_12_RD_15_1.png","img2/300/Incongruent/R/I_Dist_300_LN_13_LD_26_RN_12_RD_15_1.png","img2/200/Incongruent/L/I_Dist_200_LN_7_LD_10_RN_8_RD_16_0.png","img2/300/Incongruent/R/I_Dist_300_LN_4_LD_20_RN_2_RD_4_1.png","img2/300/Congruent/L/C_Dist_300_LN_4_LD_5_RN_2_RD_4_0.png","img2/100/Congruent/L/C_Dist_100_LN_6_LD_20_RN_5_RD_25_0.png","img2/300/Congruent/R/C_Dist_300_LN_1_LD_30_RN_8_RD_24_1.png","img2/200/Congruent/R/C_Dist_200_LN_6_LD_20_RN_11_RD_22_1.png","img2/300/Congruent/R/C_Dist_300_LN_1_LD_5_RN_6_RD_12_1.png","img2/200/Congruent/R/C_Dist_200_LN_3_LD_10_RN_7_RD_14_1.png","img2/100/Incongruent/L/I_Dist_100_LN_9_LD_15_RN_13_RD_26_0.png","img2/200/Congruent/R/C_Dist_200_LN_3_LD_6_RN_14_RD_20_1.png","img2/300/Congruent/R/C_Dist_300_LN_5_LD_25_RN_6_RD_12_1.png","img2/300/Incongruent/R/I_Dist_300_LN_13_LD_26_RN_12_RD_15_1.png","img2/100/Incongruent/L/I_Dist_100_LN_3_LD_5_RN_8_RD_16_0.png","img2/300/Congruent/R/C_Dist_300_LN_1_LD_5_RN_6_RD_12_1.png","img2/300/Congruent/L/C_Dist_300_LN_3_LD_6_RN_2_RD_10_0.png","img2/200/Incongruent/L/I_Dist_200_LN_1_LD_2_RN_3_RD_10_0.png","img2/300/Congruent/R/C_Dist_300_LN_2_LD_10_RN_12_RD_24_1.png","img2/100/Incongruent/R/I_Dist_100_LN_13_LD_26_RN_12_RD_20_1.png","img2/200/Incongruent/R/I_Dist_200_LN_3_LD_10_RN_1_RD_2_1.png","img2/200/Incongruent/R/I_Dist_200_LN_9_LD_15_RN_8_RD_10_1.png","img2/100/Congruent/R/C_Dist_100_LN_6_LD_12_RN_15_RD_25_1.png","img2/100/Congruent/R/C_Dist_100_LN_7_LD_14_RN_9_RD_15_1.png","img2/200/Congruent/R/C_Dist_200_LN_3_LD_12_RN_9_RD_20_1.png","img2/200/Incongruent/L/I_Dist_200_LN_7_LD_10_RN_14_RD_28_0.png","img2/100/Incongruent/L/I_Dist_100_LN_6_LD_10_RN_11_RD_22_0.png","img2/300/Incongruent/R/I_Dist_300_LN_4_LD_20_RN_2_RD_4_1.png","img2/200/Congruent/R/C_Dist_200_LN_3_LD_10_RN_7_RD_14_1.png","img2/300/Congruent/R/C_Dist_300_LN_1_LD_5_RN_11_RD_22_1.png","img2/300/Incongruent/L/I_Dist_300_LN_1_LD_2_RN_3_RD_15_0.png","img2/200/Congruent/L/C_Dist_200_LN_12_LD_15_RN_6_RD_10_0.png","img2/300/Congruent/L/C_Dist_300_LN_24_LD_30_RN_8_RD_16_0.png","img2/100/Incongruent/R/I_Dist_100_LN_17_LD_30_RN_10_RD_15_1.png","img2/200/Congruent/R/C_Dist_200_LN_3_LD_12_RN_9_RD_20_1.png","img2/200/Congruent/L/C_Dist_200_LN_16_LD_30_RN_9_RD_27_0.png","img2/200/Incongruent/R/I_Dist_200_LN_9_LD_15_RN_8_RD_10_1.png","img2/100/Congruent/L/C_Dist_100_LN_15_LD_25_RN_13_RD_26_0.png","img2/300/Congruent/R/C_Dist_300_LN_1_LD_3_RN_19_RD_30_1.png","img2/300/Congruent/R/C_Dist_300_LN_8_LD_15_RN_10_RD_12_1.png","img2/200/Congruent/R/C_Dist_200_LN_1_LD_2_RN_21_RD_30_1.png","img2/100/Congruent/L/C_Dist_100_LN_15_LD_25_RN_13_RD_26_0.png","img2/300/Congruent/L/C_Dist_300_LN_20_LD_25_RN_13_RD_26_0.png","img2/200/Congruent/R/C_Dist_200_LN_3_LD_10_RN_11_RD_22_1.png","img2/200/Incongruent/L/I_Dist_200_LN_7_LD_10_RN_12_RD_24_0.png","img2/300/Congruent/R/C_Dist_300_LN_2_LD_10_RN_12_RD_24_1.png","img2/200/Incongruent/R/I_Dist_200_LN_4_LD_30_RN_1_RD_3_1.png","img2/200/Incongruent/L/I_Dist_200_LN_1_LD_2_RN_3_RD_10_0.png","img2/200/Incongruent/L/I_Dist_200_LN_7_LD_10_RN_14_RD_28_0.png","img2/300/Incongruent/R/I_Dist_300_LN_13_LD_26_RN_12_RD_15_1.png"],"dist100_C":[["C_Dist_100_LN_10_LD_25_RN_3_RD_10_0.png","C_Dist_100_LN_11_LD_22_RN_4_RD_10_0.png","C_Dist_100_LN_11_LD_22_RN_6_RD_15_0.png","C_Dist_100_LN_15_LD_25_RN_13_RD_26_0.png","C_Dist_100_LN_3_LD_6_RN_2_RD_5_0.png","C_Dist_100_LN_6_LD_20_RN_5_RD_25_0.png","C_Dist_100_LN_8_LD_16_RN_2_RD_5_0.png","C_Dist_100_LN_9_LD_15_RN_8_RD_16_0.png"],["C_Dist_100_LN_1_LD_2_RN_18_RD_30_1.png","C_Dist_100_LN_1_LD_2_RN_3_RD_5_1.png","C_Dist_100_LN_12_LD_30_RN_13_RD_26_1.png","C_Dist_100_LN_2_LD_5_RN_11_RD_22_1.png","C_Dist_100_LN_2_LD_5_RN_6_RD_12_1.png","C_Dist_100_LN_3_LD_20_RN_4_RD_16_1.png","C_Dist_100_LN_4_LD_10_RN_15_RD_30_1.png","C_Dist_100_LN_4_LD_8_RN_6_RD_10_1.png","C_Dist_100_LN_6_LD_12_RN_15_RD_25_1.png","C_Dist_100_LN_7_LD_14_RN_15_RD_25_1.png","C_Dist_100_LN_7_LD_14_RN_9_RD_15_1.png"]],"dist100_I":[["I_Dist_100_LN_1_LD_2_RN_8_RD_20_0.png","I_Dist_100_LN_2_LD_4_RN_6_RD_15_0.png","I_Dist_100_LN_2_LD_4_RN_8_RD_20_0.png","I_Dist_100_LN_3_LD_5_RN_11_RD_22_0.png","I_Dist_100_LN_3_LD_5_RN_8_RD_16_0.png","I_Dist_100_LN_3_LD_6_RN_4_RD_10_0.png","I_Dist_100_LN_3_LD_9_RN_7_RD_30_0.png","I_Dist_100_LN_4_LD_8_RN_8_RD_20_0.png","I_Dist_100_LN_6_LD_10_RN_11_RD_22_0.png","I_Dist_100_LN_6_LD_10_RN_13_RD_26_0.png","I_Dist_100_LN_6_LD_10_RN_7_RD_14_0.png","I_Dist_100_LN_9_LD_10_RN_20_RD_25_0.png","I_Dist_100_LN_9_LD_15_RN_13_RD_26_0.png","I_Dist_100_LN_9_LD_15_RN_14_RD_28_0.png"],["I_Dist_100_LN_10_LD_25_RN_8_RD_16_1.png","I_Dist_100_LN_10_LD_25_RN_9_RD_18_1.png","I_Dist_100_LN_11_LD_22_RN_9_RD_15_1.png","I_Dist_100_LN_12_LD_24_RN_9_RD_15_1.png","I_Dist_100_LN_12_LD_30_RN_2_RD_4_1.png","I_Dist_100_LN_13_LD_26_RN_12_RD_20_1.png","I_Dist_100_LN_13_LD_26_RN_6_RD_10_1.png","I_Dist_100_LN_17_LD_30_RN_10_RD_15_1.png","I_Dist_100_LN_6_LD_12_RN_3_RD_5_1.png","I_Dist_100_LN_8_LD_16_RN_6_RD_10_1.png","I_Dist_100_LN_8_LD_20_RN_1_RD_2_1.png","I_Dist_100_LN_9_LD_18_RN_6_RD_10_1.png"]],"dist100_S":[["E_Dist_100_LN_2_LD_12_RN_2_RD_30_0.png","E_Dist_100_LN_6_LD_10_RN_6_RD_12_0.png"],["E_Dist_100_LN_6_LD_12_RN_6_RD_10_1.png"]],"dist200_C":[["C_Dist_200_LN_11_LD_22_RN_3_RD_10_0.png","C_Dist_200_LN_12_LD_15_RN_6_RD_10_0.png","C_Dist_200_LN_12_LD_20_RN_6_RD_15_0.png","C_Dist_200_LN_14_LD_28_RN_6_RD_20_0.png","C_Dist_200_LN_15_LD_25_RN_4_RD_10_0.png","C_Dist_200_LN_16_LD_20_RN_12_RD_20_0.png","C_Dist_200_LN_16_LD_30_RN_9_RD_27_0.png","C_Dist_200_LN_20_LD_25_RN_9_RD_15_0.png","C_Dist_200_LN_21_LD_30_RN_2_RD_4_0.png","C_Dist_200_LN_4_LD_10_RN_3_RD_15_0.png","C_Dist_200_LN_4_LD_8_RN_3_RD_10_0.png","C_Dist_200_LN_6_LD_15_RN_3_RD_15_0.png","C_Dist_200_LN_7_LD_21_RN_2_RD_15_0.png","C_Dist_200_LN_8_LD_15_RN_2_RD_6_0.png","C_Dist_200_LN_8_LD_15_RN_3_RD_9_0.png","C_Dist_200_LN_8_LD_15_RN_7_RD_21_0.png","C_Dist_200_LN_9_LD_20_RN_4_RD_16_0.png"],["C_Dist_200_LN_1_LD_2_RN_21_RD_30_1.png","C_Dist_200_LN_13_LD_26_RN_14_RD_20_1.png","C_Dist_200_LN_3_LD_10_RN_11_RD_22_1.png","C_Dist_200_LN_3_LD_10_RN_14_RD_28_1.png","C_Dist_200_LN_3_LD_10_RN_7_RD_14_1.png","C_Dist_200_LN_3_LD_12_RN_9_RD_20_1.png","C_Dist_200_LN_3_LD_6_RN_14_RD_20_1.png","C_Dist_200_LN_5_LD_10_RN_14_RD_20_1.png","C_Dist_200_LN_6_LD_12_RN_7_RD_10_1.png","C_Dist_200_LN_6_LD_20_RN_11_RD_22_1.png","C_Dist_200_LN_7_LD_15_RN_18_RD_27_1.png","C_Dist_200_LN_9_LD_30_RN_13_RD_26_1.png"]],"dist200_I":[["I_Dist_200_LN_1_LD_2_RN_3_RD_10_0.png","I_Dist_200_LN_1_LD_3_RN_2_RD_15_0.png","I_Dist_200_LN_3_LD_4_RN_11_RD_20_0.png","I_Dist_200_LN_4_LD_5_RN_6_RD_10_0.png","I_Dist_200_LN_4_LD_6_RN_14_RD_30_0.png","I_Dist_200_LN_7_LD_10_RN_12_RD_24_0.png","I_Dist_200_LN_7_LD_10_RN_14_RD_28_0.png","I_Dist_200_LN_7_LD_10_RN_8_RD_16_0.png"],["I_Dist_200_LN_11_LD_20_RN_3_RD_4_1.png","I_Dist_200_LN_14_LD_30_RN_12_RD_18_1.png","I_Dist_200_LN_14_LD_30_RN_6_RD_9_1.png","I_Dist_200_LN_3_LD_10_RN_1_RD_2_1.png","I_Dist_200_LN_4_LD_30_RN_1_RD_3_1.png","I_Dist_200_LN_6_LD_20_RN_3_RD_6_1.png","I_Dist_200_LN_7_LD_15_RN_4_RD_6_1.png","I_Dist_200_LN_7_LD_15_RN_6_RD_9_1.png","I_Dist_200_LN_9_LD_15_RN_8_RD_10_1.png"]],"dist200_S":[["E_Dist_200_LN_3_LD_6_RN_3_RD_10_0.png"],["E_Dist_200_LN_3_LD_10_RN_3_RD_6_1.png"]],"dist300_C":[["C_Dist_300_LN_11_LD_22_RN_1_RD_5_0.png","C_Dist_300_LN_11_LD_22_RN_2_RD_10_0.png","C_Dist_300_LN_11_LD_22_RN_4_RD_20_0.png","C_Dist_300_LN_12_LD_24_RN_2_RD_10_0.png","C_Dist_300_LN_18_LD_20_RN_9_RD_15_0.png","C_Dist_300_LN_20_LD_25_RN_13_RD_26_0.png","C_Dist_300_LN_20_LD_25_RN_14_RD_28_0.png","C_Dist_300_LN_20_LD_25_RN_5_RD_10_0.png","C_Dist_300_LN_20_LD_25_RN_8_RD_16_0.png","C_Dist_300_LN_20_LD_25_RN_9_RD_18_0.png","C_Dist_300_LN_24_LD_30_RN_2_RD_4_0.png","C_Dist_300_LN_24_LD_30_RN_8_RD_16_0.png","C_Dist_300_LN_3_LD_6_RN_2_RD_10_0.png","C_Dist_300_LN_4_LD_10_RN_1_RD_10_0.png","C_Dist_300_LN_4_LD_5_RN_2_RD_4_0.png","C_Dist_300_LN_8_LD_16_RN_1_RD_5_0.png","C_Dist_300_LN_9_LD_10_RN_3_RD_5_0.png"],["C_Dist_300_LN_1_LD_20_RN_7_RD_20_1.png","C_Dist_300_LN_1_LD_3_RN_19_RD_30_1.png","C_Dist_300_LN_1_LD_30_RN_8_RD_24_1.png","C_Dist_300_LN_1_LD_5_RN_11_RD_22_1.png","C_Dist_300_LN_1_LD_5_RN_3_RD_6_1.png","C_Dist_300_LN_1_LD_5_RN_6_RD_12_1.png","C_Dist_300_LN_2_LD_10_RN_12_RD_24_1.png","C_Dist_300_LN_2_LD_20_RN_10_RD_25_1.png","C_Dist_300_LN_3_LD_12_RN_11_RD_20_1.png","C_Dist_300_LN_3_LD_6_RN_4_RD_5_1.png","C_Dist_300_LN_4_LD_20_RN_13_RD_26_1.png","C_Dist_300_LN_5_LD_25_RN_6_RD_12_1.png","C_Dist_300_LN_5_LD_25_RN_7_RD_14_1.png","C_Dist_300_LN_7_LD_14_RN_20_RD_25_1.png","C_Dist_300_LN_8_LD_15_RN_10_RD_12_1.png"]],"dist300_I":[["I_Dist_300_LN_1_LD_2_RN_2_RD_10_0.png","I_Dist_300_LN_1_LD_2_RN_3_RD_15_0.png","I_Dist_300_LN_2_LD_4_RN_6_RD_30_0.png","I_Dist_300_LN_3_LD_6_RN_4_RD_20_0.png","I_Dist_300_LN_4_LD_5_RN_6_RD_12_0.png","I_Dist_300_LN_4_LD_5_RN_8_RD_16_0.png","I_Dist_300_LN_7_LD_10_RN_8_RD_20_0.png","I_Dist_300_LN_8_LD_10_RN_14_RD_28_0.png","I_Dist_300_LN_8_LD_10_RN_9_RD_18_0.png"],["I_Dist_300_LN_13_LD_26_RN_12_RD_15_1.png","I_Dist_300_LN_4_LD_20_RN_2_RD_4_1.png"]],"dist300_S":[["E_Dist_300_LN_9_LD_12_RN_9_RD_20_0.png"],["E_Dist_300_LN_18_LD_30_RN_18_RD_20_1.png","E_Dist_300_LN_3_LD_10_RN_3_RD_5_1.png","E_Dist_300_LN_9_LD_20_RN_9_RD_12_1.png"]],"dist500_C":[["C_Dist_500_LN_10_LD_13_RN_7_RD_26_0.png","C_Dist_500_LN_10_LD_15_RN_4_RD_24_0.png","C_Dist_500_LN_12_LD_16_RN_3_RD_12_0.png","C_Dist_500_LN_12_LD_18_RN_4_RD_24_0.png","C_Dist_500_LN_15_LD_18_RN_5_RD_15_0.png","C_Dist_500_LN_15_LD_20_RN_1_RD_4_0.png","C_Dist_500_LN_18_LD_27_RN_1_RD_6_0.png","C_Dist_500_LN_20_LD_24_RN_1_RD_3_0.png","C_Dist_500_LN_20_LD_24_RN_3_RD_9_0.png","C_Dist_500_LN_20_LD_24_RN_7_RD_21_0.png","C_Dist_500_LN_20_LD_28_RN_3_RD_14_0.png","C_Dist_500_LN_21_LD_28_RN_6_RD_24_0.png","C_Dist_500_LN_22_LD_28_RN_2_RD_7_0.png","C_Dist_500_LN_25_LD_30_RN_9_RD_27_0.png","C_Dist_500_LN_4_LD_6_RN_1_RD_6_0.png","C_Dist_500_LN_5_LD_6_RN_2_RD_6_0.png","C_Dist_500_LN_6_LD_9_RN_1_RD_6_0.png","C_Dist_500_LN_7_LD_10_RN_1_RD_5_0.png","C_Dist_500_LN_8_LD_12_RN_1_RD_6_0.png","C_Dist_500_LN_8_LD_12_RN_4_RD_24_0.png"],["C_Dist_500_LN_1_LD_4_RN_12_RD_16_1.png","C_Dist_500_LN_1_LD_4_RN_9_RD_12_1.png","C_Dist_500_LN_1_LD_9_RN_11_RD_18_1.png","C_Dist_500_LN_10_LD_24_RN_22_RD_24_1.png","C_Dist_500_LN_2_LD_12_RN_10_RD_15_1.png","C_Dist_500_LN_2_LD_12_RN_12_RD_18_1.png","C_Dist_500_LN_2_LD_12_RN_4_RD_6_1.png","C_Dist_500_LN_2_LD_24_RN_7_RD_12_1.png","C_Dist_500_LN_2_LD_5_RN_18_RD_20_1.png","C_Dist_500_LN_2_LD_5_RN_9_RD_10_1.png","C_Dist_500_LN_2_LD_8_RN_12_RD_16_1.png","C_Dist_500_LN_2_LD_8_RN_21_RD_28_1.png","C_Dist_500_LN_3_LD_10_RN_4_RD_5_1.png","C_Dist_500_LN_3_LD_12_RN_15_RD_20_1.png","C_Dist_500_LN_3_LD_30_RN_6_RD_10_1.png","C_Dist_500_LN_3_LD_8_RN_14_RD_16_1.png","C_Dist_500_LN_4_LD_16_RN_15_RD_20_1.png","C_Dist_500_LN_4_LD_24_RN_12_RD_18_1.png","C_Dist_500_LN_5_LD_14_RN_6_RD_7_1.png","C_Dist_500_LN_7_LD_21_RN_20_RD_24_1.png","C_Dist_500_LN_7_LD_28_RN_12_RD_16_1.png","C_Dist_500_LN_7_LD_28_RN_9_RD_12_1.png","C_Dist_500_LN_9_LD_27_RN_20_RD_24_1.png"]],"dist500_I":[["I_Dist_500_LN_2_LD_3_RN_4_RD_24_0.png","I_Dist_500_LN_5_LD_6_RN_6_RD_18_0.png","I_Dist_500_LN_7_LD_8_RN_9_RD_24_0.png"],["I_Dist_500_LN_7_LD_21_RN_5_RD_6_1.png"]],"dist500_S":[["E_Dist_500_LN_6_LD_8_RN_6_RD_24_0.png"],["E_Dist_500_LN_2_LD_12_RN_2_RD_3_1.png","E_Dist_500_LN_6_LD_24_RN_6_RD_8_1.png"]]}},{"start_time":1551880545155,"click_time":1551880546614,"finger_time":1551880546493,"fix_duration":880.098003740425,"trial":1,"RT":1338,"MT":121,"sideResp":2,"stimulus":[],"xmouse":[781,781,781,781,781,780,780,780,780,780,780,780,780,780,780,780,780,780,780,780,780,780,780,780,780,780,780,780,780,780,780,780,780,780,780,780,780,780,780,780,780,780,780,780,780,780,780,780,780,780,780,780,780,780,780,780,780,780,780,780,780,780,780,779,781,797,870,911,946,972,1000,1052,1077],"ymouse":[632,632,633,634,634,635,635,635,635,635,635,635,635,635,635,635,635,635,635,635,635,635,635,635,635,635,635,635,635,635,635,635,635,635,635,635,635,635,635,635,635,635,635,635,635,635,635,635,635,635,635,635,635,635,635,635,635,635,635,635,635,635,635,636,627,601,461,382,323,256,194,66,5],"timestamp_mouse":[19,45,58,79,99,119,140,158,179,198,219,238,259,279,299,320,338,358,378,398,418,438,458,480,498,518,539,559,579,600,619,639,658,679,698,718,739,759,778,799,818,839,858,879,899,920,938,958,980,999,1018,1038,1058,1079,1098,1119,1138,1158,1178,1198,1219,1238,1258,1278,1298,1318,1338,1360,1378,1399,1418,1438,1458],"xSR":741.5,"ySR":573.95,"xT1":424.9,"yT1":0,"xT2":1058.1,"yT2":0,"toosoon":0,"cond_shown":"Incongruent","ratio_trial":100,"L_num":9,"L_den":10,"R_num":20,"R_den":25,"correct_side":1,"subjID":"AndresMauricioAcostaPerez22","gender":"0","school":"6","age":"11"},{"start_time":1551880549177,"click_time":1551880550695,"finger_time":1551880550575,"fix_duration":1483.1324401548636,"trial":2,"RT":1398,"MT":120,"sideResp":2,"stimulus":[],"xmouse":[760,760,760,760,760,760,760,760,760,760,760,760,760,760,760,760,760,760,760,760,761,761,763,763,763,763,763,763,763,763,763,763,763,763,763,763,763,763,763,763,763,763,763,763,763,763,763,763,763,763,763,763,763,763,763,763,763,763,763,763,763,763,763,763,763,764,768,769,776,811,850,919,970,1007,1032,1066],"ymouse":[632,632,632,632,632,632,632,632,632,632,632,632,633,633,633,633,633,633,634,634,634,635,636,636,636,636,636,636,636,636,636,636,636,636,636,636,636,636,636,636,636,636,636,636,636,636,636,636,636,636,636,636,636,636,636,636,636,636,636,636,636,636,636,636,636,636,629,625,609,543,478,356,265,194,144,88],"timestamp_mouse":[17,37,56,77,98,117,137,157,177,196,218,236,256,276,296,316,337,356,377,396,417,436,457,478,496,516,537,556,576,596,616,637,656,677,696,718,737,756,776,797,817,838,856,877,897,917,936,956,977,996,1016,1037,1056,1078,1096,1116,1136,1156,1177,1198,1216,1237,1257,1277,1296,1317,1336,1356,1376,1398,1416,1436,1456,1477,1497,1517],"xSR":741.5,"ySR":573.95,"xT1":424.9,"yT1":0,"xT2":1058.1,"yT2":0,"toosoon":0,"cond_shown":"Congruent","ratio_trial":200,"L_num":3,"L_den":10,"R_num":14,"R_den":28,"correct_side":2,"subjID":"AndresMauricioAcostaPerez22","gender":"0","school":"6","age":"11"},{"start_time":1551880552520,"click_time":1551880554893,"finger_time":1551880554814,"fix_duration":845.5751506096158,"trial":3,"RT":2294,"MT":79,"sideResp":1,"stimulus":[],"xmouse":[792,792,792,792,792,792,792,792,792,792,792,792,792,792,792,792,792,792,792,792,792,792,792,792,792,792,792,792,792,792,792,792,792,792,792,792,792,792,792,792,792,792,792,792,792,792,792,792,792,792,792,792,792,792,792,792,792,792,792,792,792,792,792,792,792,792,792,792,792,792,792,792,792,792,792,792,792,792,792,792,792,792,792,792,792,792,792,792,792,792,792,792,792,792,792,792,792,792,792,792,792,792,792,792,792,792,792,792,792,792,792,792,791,775,732,693,655,614,509],"ymouse":[609,609,609,609,609,609,609,609,609,609,609,609,609,609,609,609,609,609,609,609,609,609,609,609,609,609,609,609,609,609,609,609,609,609,609,609,609,609,609,609,609,609,609,609,609,609,609,609,609,609,609,609,609,609,609,609,609,609,609,609,609,609,609,609,609,609,609,609,609,609,609,609,609,609,609,609,609,609,609,609,609,609,609,609,609,609,609,609,609,609,609,609,609,609,609,609,609,609,609,609,609,609,609,609,609,609,609,609,609,609,609,609,609,575,472,385,294,207,20],"timestamp_mouse":[13,37,54,74,93,115,133,153,173,193,213,233,253,274,294,314,333,353,373,393,413,434,453,474,493,513,535,554,575,593,613,633,654,674,694,713,733,753,774,794,813,833,854,874,893,915,934,955,973,993,1014,1034,1053,1073,1094,1114,1133,1153,1173,1193,1214,1233,1254,1273,1294,1313,1333,1353,1375,1393,1415,1433,1453,1474,1494,1513,1533,1553,1573,1593,1614,1633,1653,1673,1693,1713,1734,1753,1773,1793,1815,1833,1853,1874,1894,1914,1933,1953,1973,1994,2014,2033,2053,2073,2093,2115,2134,2153,2173,2194,2215,2234,2253,2274,2294,2313,2334,2354,2373],"xSR":741.5,"ySR":573.95,"xT1":424.9,"yT1":0,"xT2":1058.1,"yT2":0,"toosoon":0,"cond_shown":"Incongruent","ratio_trial":200,"L_num":7,"L_den":15,"R_num":6,"R_den":9,"correct_side":2,"subjID":"AndresMauricioAcostaPerez22","gender":"0","school":"6","age":"11"},{"start_time":1551880557261,"click_time":1551880558793,"finger_time":1551880558374,"fix_duration":1366.7509882291565,"trial":4,"RT":1113,"MT":419,"sideResp":1,"stimulus":[],"xmouse":[787,787,787,787,787,787,787,787,787,787,787,787,787,787,787,787,787,787,787,787,787,787,787,787,787,787,787,787,787,787,787,787,787,787,787,787,787,787,787,787,787,787,787,787,787,787,787,787,787,787,787,787,787,787,787,766,732,720,678,657,640,636,635,635,633,631,628,625,624,624,624,622,617,611,598,535,507],"ymouse":[629,629,629,629,629,629,629,629,629,629,629,629,629,629,629,629,629,629,629,629,629,629,629,629,629,629,629,629,629,629,629,629,629,629,629,629,629,629,629,629,629,629,629,629,629,629,629,629,629,629,629,629,627,622,604,529,449,416,320,267,210,192,180,171,161,151,134,124,121,121,120,117,115,111,103,73,60],"timestamp_mouse":[12,32,52,73,92,112,132,152,172,193,212,232,253,272,292,312,333,352,374,392,414,432,454,473,492,512,532,552,572,593,613,632,652,672,693,713,732,752,772,792,813,832,852,873,892,913,933,953,974,993,1012,1033,1053,1073,1092,1113,1132,1153,1172,1193,1214,1232,1253,1272,1293,1313,1332,1352,1372,1392,1414,1433,1452,1472,1494,1513,1532],"xSR":741.5,"ySR":573.95,"xT1":424.9,"yT1":0,"xT2":1058.1,"yT2":0,"toosoon":0,"cond_shown":"Congruent","ratio_trial":200,"L_num":8,"L_den":15,"R_num":2,"R_den":6,"correct_side":1,"subjID":"AndresMauricioAcostaPerez22","gender":"0","school":"6","age":"11"},{"start_time":1551880560929,"click_time":1551880562493,"finger_time":1551880562034,"fix_duration":1413.878476423278,"trial":5,"RT":1105,"MT":459,"sideResp":2,"stimulus":[],"xmouse":[778,778,778,778,778,778,778,778,778,778,778,778,778,778,778,778,778,778,778,778,778,778,778,778,778,778,778,778,778,778,778,778,778,778,778,778,778,778,778,778,778,778,778,778,778,778,778,778,778,778,778,779,781,802,827,895,953,1046,1072,1093,1104,1116,1131,1135,1139,1144,1148,1149,1149,1149,1149,1149,1149,1142,1140,1140,1140,1139,1139],"ymouse":[635,635,635,635,635,635,635,635,635,635,635,635,635,635,635,635,635,635,635,635,635,635,635,635,635,635,635,635,635,635,635,635,635,635,635,635,635,635,635,635,635,635,635,635,635,635,635,635,635,635,635,635,633,617,596,537,479,378,340,305,271,238,188,170,155,137,125,116,116,116,116,116,116,123,124,124,124,108,86],"timestamp_mouse":[9,35,45,65,84,104,125,145,166,186,205,225,245,264,285,305,324,345,364,385,404,425,445,464,485,504,526,545,565,585,605,625,644,664,684,704,725,746,764,784,804,824,846,866,885,905,925,945,964,984,1004,1024,1044,1064,1085,1105,1124,1145,1164,1184,1204,1225,1246,1264,1285,1304,1325,1345,1364,1384,1405,1424,1444,1465,1485,1505,1525,1545,1564],"xSR":741.5,"ySR":573.95,"xT1":424.9,"yT1":0,"xT2":1058.1,"yT2":0,"toosoon":0,"cond_shown":"Congruent","ratio_trial":100,"L_num":7,"L_den":14,"R_num":9,"R_den":15,"correct_side":2,"subjID":"AndresMauricioAcostaPerez22","gender":"0","school":"6","age":"11"},{"start_time":1551880563980,"click_time":1551880565553,"finger_time":1551880565435,"fix_duration":764.784265222947,"trial":6,"RT":1455,"MT":118,"sideResp":2,"stimulus":[],"xmouse":[757,757,757,757,757,757,757,757,757,757,757,757,757,757,757,757,757,757,757,757,757,757,757,757,757,757,757,757,757,757,757,757,757,757,757,757,757,757,757,757,757,757,757,757,757,757,757,757,757,757,757,757,757,757,757,757,757,757,757,757,757,757,757,757,757,757,757,757,757,757,760,769,809,837,899,939,979,1021,1072],"ymouse":[617,617,617,617,617,617,617,617,617,617,617,617,617,617,617,617,617,617,617,617,617,617,617,617,617,617,617,617,617,617,617,617,617,617,617,617,617,617,617,617,617,617,617,617,617,617,617,617,617,617,617,617,617,617,617,617,617,617,617,617,617,617,617,617,617,617,617,617,617,617,616,601,518,453,320,251,184,121,60],"timestamp_mouse":[13,42,53,73,94,113,133,153,173,193,213,235,253,274,294,314,334,353,373,393,413,433,454,473,493,514,534,553,573,594,614,633,653,674,693,714,733,753,773,793,814,833,853,874,893,914,933,954,973,993,1015,1033,1053,1074,1093,1113,1133,1153,1173,1195,1213,1233,1253,1275,1293,1313,1333,1354,1374,1395,1413,1434,1455,1473,1494,1513,1533,1553,1573],"xSR":741.5,"ySR":573.95,"xT1":424.9,"yT1":0,"xT2":1058.1,"yT2":0,"toosoon":0,"cond_shown":"Incongruent","ratio_trial":300,"L_num":1,"L_den":2,"R_num":3,"R_den":15,"correct_side":1,"subjID":"AndresMauricioAcostaPerez22","gender":"0","school":"6","age":"11"},{"start_time":1551880567187,"click_time":1551880568954,"finger_time":1551880568434,"fix_duration":732.8733905610246,"trial":7,"RT":1247,"MT":520,"sideResp":1,"stimulus":[],"xmouse":[778,778,778,778,778,778,778,778,778,778,778,778,778,778,778,778,778,778,778,778,778,778,778,778,778,778,778,778,778,778,778,778,778,778,778,778,778,778,778,778,778,778,778,778,778,778,778,778,778,778,778,778,778,778,778,778,778,778,778,778,777,772,757,741,682,658,645,626,610,599,584,583,583,582,581,578,573,566,561,541,531,507,489,475,466,466,466,465,465],"ymouse":[589,589,589,589,589,589,589,589,589,589,589,589,589,589,589,589,589,589,589,589,589,589,589,589,589,589,589,589,589,589,589,589,589,589,589,589,589,589,589,589,589,589,589,589,589,589,589,589,589,589,589,589,589,589,589,589,589,589,589,589,587,581,555,528,431,391,359,316,278,244,188,164,152,143,136,105,85,67,52,21,10,0,0,0,0,0,0,0,6],"timestamp_mouse":[6,30,46,67,87,107,127,146,166,186,206,226,246,266,286,306,326,348,366,387,407,427,447,466,486,506,528,546,567,586,606,626,646,667,686,706,726,746,767,787,806,826,846,866,887,906,927,947,966,986,1008,1026,1047,1067,1086,1106,1127,1147,1167,1188,1206,1226,1247,1267,1287,1306,1327,1347,1367,1386,1407,1426,1446,1466,1487,1506,1527,1546,1566,1587,1606,1626,1646,1666,1688,1706,1726,1747,1767],"xSR":741.5,"ySR":573.95,"xT1":424.9,"yT1":0,"xT2":1058.1,"yT2":0,"toosoon":0,"cond_shown":"Congruent","ratio_trial":300,"L_num":24,"L_den":30,"R_num":8,"R_den":16,"correct_side":1,"subjID":"AndresMauricioAcostaPerez22","gender":"0","school":"6","age":"11"},{"start_time":1551880571899,"click_time":1551880575094,"finger_time":1551880574694,"fix_duration":804.7433938403236,"trial":8,"RT":2795,"MT":400,"sideResp":2,"stimulus":[],"xmouse":[771,771,771,771,771,772,772,772,772,772,772,772,772,772,772,772,772,772,772,772,772,772,772,772,772,772,772,772,772,772,772,772,772,772,772,772,772,772,772,772,772,772,772,772,772,772,772,772,772,772,772,772,772,772,772,772,772,772,772,772,772,772,772,772,772,772,772,772,772,772,772,772,772,772,772,772,772,772,772,772,772,772,772,772,772,772,772,772,772,772,772,772,772,772,772,772,772,772,772,772,772,772,772,772,772,772,772,772,772,772,772,772,772,772,772,772,772,772,772,772,772,772,772,772,772,772,772,772,772,772,772,772,772,772,772,772,772,772,776,799,813,829,849,865,892,902,916,930,944,967,979,993,1005,1032,1046,1061,1078,1098,1114,1140],"ymouse":[596,596,596,596,596,596,597,598,599,599,599,599,599,599,599,599,599,599,599,599,599,599,599,599,599,599,599,599,599,599,599,599,599,599,599,599,599,599,599,599,599,599,600,600,600,600,600,600,600,600,600,600,600,600,600,600,600,600,600,600,600,600,600,600,600,600,600,600,600,600,600,600,600,600,600,600,600,600,600,600,600,600,600,600,600,600,600,600,600,600,600,600,600,600,600,600,600,600,600,600,600,600,600,600,600,600,600,600,600,600,600,600,600,600,600,600,600,600,600,600,600,600,600,600,600,600,600,600,600,600,600,600,600,600,600,600,600,601,599,573,557,540,524,510,489,482,473,459,439,400,371,345,313,252,224,201,175,142,121,82],"timestamp_mouse":[15,39,54,74,95,115,134,154,175,195,215,234,254,274,294,315,336,354,374,395,414,434,455,475,495,514,534,555,576,594,615,635,655,674,694,715,734,756,775,795,815,834,854,874,894,914,935,954,976,995,1015,1034,1054,1074,1095,1114,1136,1155,1174,1195,1215,1234,1254,1275,1294,1314,1335,1354,1374,1394,1416,1435,1454,1474,1494,1514,1535,1556,1574,1595,1614,1634,1654,1674,1695,1715,1734,1754,1775,1794,1814,1836,1855,1875,1894,1915,1936,1955,1974,1994,2015,2034,2056,2074,2094,2115,2134,2155,2174,2194,2215,2234,2254,2274,2294,2314,2335,2354,2374,2394,2415,2434,2454,2474,2494,2514,2535,2555,2574,2595,2615,2634,2656,2675,2695,2715,2734,2754,2774,2795,2816,2835,2855,2874,2894,2914,2936,2954,2974,2995,3014,3034,3054,3075,3094,3115,3135,3154,3176,3195],"xSR":741.5,"ySR":573.95,"xT1":424.9,"yT1":0,"xT2":1058.1,"yT2":0,"toosoon":0,"cond_shown":"Congruent","ratio_trial":300,"L_num":4,"L_den":10,"R_num":1,"R_den":10,"correct_side":1,"subjID":"AndresMauricioAcostaPerez22","gender":"0","school":"6","age":"11"},{"start_time":1551880576862,"click_time":1551880579075,"finger_time":1551880578813,"fix_duration":787.6681863100554,"trial":9,"RT":1951,"MT":262,"sideResp":1,"stimulus":[],"xmouse":[753,753,753,753,753,753,753,753,753,753,753,753,753,753,753,753,753,753,753,753,753,753,753,753,753,753,753,753,753,753,753,753,753,753,753,753,753,753,753,753,753,753,753,753,753,753,753,753,753,753,753,753,753,753,753,753,753,753,753,753,753,753,753,753,753,753,753,753,753,753,753,753,753,753,753,753,753,781,781,781,781,781,781,781,781,781,781,781,781,781,781,781,781,781,781,779,765,723,699,602,557,506,488,478,474,469,465,464,464,463,461],"ymouse":[626,626,626,626,626,626,626,626,626,626,626,626,626,626,626,626,626,626,626,626,626,626,626,626,626,626,626,626,626,626,626,626,626,626,626,626,626,626,626,626,626,626,626,626,626,626,626,626,626,626,626,626,626,626,626,626,626,626,626,626,626,626,626,626,626,626,626,626,626,626,626,626,626,626,626,626,626,657,657,657,657,657,657,657,657,657,657,657,657,657,657,657,657,657,653,647,614,549,514,399,334,257,234,218,209,199,170,163,140,118,99],"timestamp_mouse":[14,47,51,72,91,111,131,152,171,192,211,232,252,272,292,311,331,351,371,392,411,431,451,471,492,512,532,553,571,593,612,632,652,671,691,711,731,751,771,791,811,832,851,871,891,911,932,951,972,991,1011,1031,1051,1071,1092,1113,1132,1151,1172,1192,1212,1231,1251,1272,1291,1311,1331,1352,1372,1391,1412,1431,1453,1471,1491,1512,1531,1553,1572,1591,1611,1632,1652,1673,1692,1711,1732,1752,1771,1791,1811,1832,1852,1872,1891,1911,1932,1951,1971,1991,2012,2031,2052,2071,2093,2112,2131,2151,2171,2191,2212],"xSR":741.5,"ySR":573.95,"xT1":424.9,"yT1":0,"xT2":1058.1,"yT2":0,"toosoon":0,"cond_shown":"Incongruent","ratio_trial":100,"L_num":10,"L_den":25,"R_num":8,"R_den":16,"correct_side":2,"subjID":"AndresMauricioAcostaPerez22","gender":"0","school":"6","age":"11"},{"start_time":1551880581605,"click_time":1551880583193,"finger_time":1551880582955,"fix_duration":250,"trial":10,"RT":1350,"MT":238,"sideResp":1,"stimulus":[],"xmouse":[782,782,782,782,782,782,782,782,782,782,782,782,782,782,782,782,782,782,782,782,782,782,782,782,782,782,782,782,782,782,782,782,782,782,782,782,782,782,782,782,782,782,782,782,782,782,782,782,782,782,782,782,782,782,782,782,782,782,782,782,782,782,782,781,778,768,752,733,702,617,584,545,516,470,461,453,451,451,451,451],"ymouse":[626,626,626,626,626,626,626,626,626,626,626,626,626,626,626,626,626,626,626,626,626,626,626,626,626,626,626,626,626,626,626,626,626,626,626,626,626,626,626,626,626,626,626,626,626,626,626,626,626,626,626,626,626,626,626,626,626,626,626,626,626,626,626,626,620,604,581,553,519,408,366,304,256,183,165,149,137,126,111,79],"timestamp_mouse":[9,44,48,70,89,109,128,148,169,189,209,229,249,268,288,309,330,350,368,388,408,428,449,468,490,508,529,549,568,588,608,629,649,668,688,708,729,749,770,788,808,828,849,870,889,908,929,948,969,988,1008,1029,1049,1068,1088,1108,1128,1148,1168,1188,1209,1228,1249,1268,1288,1308,1329,1350,1368,1388,1408,1428,1448,1470,1488,1508,1529,1548,1569,1588],"xSR":741.5,"ySR":573.95,"xT1":424.9,"yT1":0,"xT2":1058.1,"yT2":0,"toosoon":0,"cond_shown":"Congruent","ratio_trial":300,"L_num":24,"L_den":30,"R_num":2,"R_den":4,"correct_side":1,"subjID":"AndresMauricioAcostaPerez22","gender":"0","school":"6","age":"11"},{"start_time":1551880585157,"click_time":1551880587074,"finger_time":1551880586714,"fix_duration":1182.5794395937805,"trial":11,"RT":1557,"MT":360,"sideResp":1,"stimulus":[],"xmouse":[816,816,816,816,816,816,816,816,816,816,816,816,816,816,816,816,816,816,816,816,816,816,816,816,816,816,816,816,816,816,816,816,816,816,816,816,816,816,816,816,816,816,816,816,816,816,816,816,816,816,816,816,816,816,816,816,816,816,816,816,816,816,816,816,816,816,816,816,816,816,816,816,816,816,816,816,812,793,745,679,606,469,410,376,355,344,341,339,336,334,334,335,338,353,378,434],"ymouse":[627,627,627,627,627,627,627,627,627,627,627,627,627,627,627,627,627,627,627,627,627,627,627,627,627,627,627,627,627,627,627,627,627,627,627,627,627,627,627,627,627,627,627,627,627,627,627,627,627,627,627,627,627,627,627,627,627,627,627,627,627,627,627,627,627,627,627,627,627,627,627,627,627,627,627,627,609,553,468,404,342,222,162,122,82,47,36,25,12,3,0,0,0,0,0,10],"timestamp_mouse":[16,37,57,76,97,124,136,157,176,197,216,237,258,276,296,316,337,356,376,398,416,436,457,477,497,516,536,556,577,597,616,636,657,676,696,716,736,757,776,796,816,836,856,876,897,916,937,957,976,997,1016,1036,1057,1077,1096,1117,1137,1156,1176,1196,1216,1236,1256,1276,1297,1316,1336,1357,1376,1396,1417,1437,1457,1476,1496,1516,1537,1556,1577,1596,1616,1636,1656,1676,1696,1717,1736,1756,1776,1796,1816,1838,1856,1876,1897,1917],"xSR":741.5,"ySR":573.95,"xT1":424.9,"yT1":0,"xT2":1058.1,"yT2":0,"toosoon":0,"cond_shown":"Incongruent","ratio_trial":100,"L_num":8,"L_den":16,"R_num":6,"R_den":10,"correct_side":2,"subjID":"AndresMauricioAcostaPerez22","gender":"0","school":"6","age":"11"},{"start_time":1551880588366,"click_time":1551880590574,"finger_time":1551880590435,"fix_duration":250,"trial":12,"RT":2069,"MT":139,"sideResp":1,"stimulus":[],"xmouse":[794,794,794,794,794,794,794,794,794,794,794,794,794,794,794,794,794,794,794,794,794,794,794,794,794,794,794,794,794,794,794,794,794,794,794,794,794,794,794,794,794,794,794,794,794,794,794,794,794,794,794,794,793,793,793,793,793,793,793,793,793,793,793,793,793,793,793,793,793,793,793,793,793,793,793,793,793,793,793,793,793,793,793,793,793,793,793,793,793,793,793,793,793,793,793,793,793,793,793,793,793,793,782,762,741,676,638,595,552,525,498],"ymouse":[624,624,624,624,624,624,624,624,624,624,624,624,624,624,624,624,624,624,624,624,624,624,624,624,624,624,624,624,624,624,624,624,624,624,624,624,624,624,624,624,624,624,624,624,624,624,624,624,624,624,624,624,623,623,623,623,623,623,623,623,623,623,623,623,623,623,623,623,623,623,623,623,623,623,623,623,623,623,623,623,623,623,623,623,623,623,623,623,623,623,623,623,623,623,623,623,623,623,623,623,623,619,584,538,494,378,306,234,157,99,49],"timestamp_mouse":[9,40,47,68,88,107,128,148,167,188,207,228,247,268,288,307,328,347,368,388,408,428,449,469,487,507,528,549,567,588,608,627,647,667,687,707,729,747,767,788,808,827,847,869,887,908,927,947,969,987,1008,1027,1047,1068,1088,1107,1128,1148,1169,1187,1207,1227,1247,1268,1287,1309,1328,1348,1368,1388,1408,1427,1447,1467,1488,1507,1529,1548,1567,1588,1608,1627,1647,1667,1687,1708,1727,1748,1768,1787,1808,1827,1848,1867,1887,1908,1927,1947,1968,1987,2008,2027,2048,2069,2088,2108,2127,2148,2167,2187,2207],"xSR":741.5,"ySR":573.95,"xT1":424.9,"yT1":0,"xT2":1058.1,"yT2":0,"toosoon":0,"cond_shown":"Congruent","ratio_trial":200,"L_num":6,"L_den":20,"R_num":11,"R_den":22,"correct_side":2,"subjID":"AndresMauricioAcostaPerez22","gender":"0","school":"6","age":"11"},{"start_time":1551880592596,"click_time":1551880593893,"finger_time":1551880593474,"fix_duration":1220.7042765846459,"trial":13,"RT":878,"MT":419,"sideResp":2,"stimulus":[],"xmouse":[792,792,792,792,792,792,792,792,792,792,792,792,792,792,792,792,792,792,792,792,792,792,792,792,792,792,792,792,792,792,792,792,792,792,792,792,792,792,792,792,792,794,814,882,894,906,917,930,942,982,995,1004,1008,1013,1014,1015,1017,1021,1033,1038,1042,1045,1048,1053,1061],"ymouse":[610,610,610,610,610,610,610,610,610,610,610,610,610,610,610,610,610,610,610,610,610,610,610,610,610,610,610,610,610,610,610,610,610,610,610,610,610,610,610,610,610,608,592,508,484,455,417,380,337,218,191,178,171,164,162,159,152,140,111,99,90,85,82,76,71],"timestamp_mouse":[17,49,57,77,98,118,138,157,179,197,217,237,257,277,297,317,337,358,378,398,418,437,458,477,498,518,537,558,578,597,617,637,658,678,697,717,737,757,777,797,817,837,858,878,897,917,937,958,977,997,1018,1037,1058,1078,1097,1117,1138,1157,1178,1197,1218,1237,1258,1277,1297],"xSR":741.5,"ySR":573.95,"xT1":424.9,"yT1":0,"xT2":1058.1,"yT2":0,"toosoon":0,"cond_shown":"Congruent","ratio_trial":300,"L_num":7,"L_den":14,"R_num":20,"R_den":25,"correct_side":2,"subjID":"AndresMauricioAcostaPerez22","gender":"0","school":"6","age":"11"},{"start_time":1551880594806,"click_time":1551880596714,"finger_time":1551880596554,"fix_duration":250,"trial":14,"RT":1748,"MT":160,"sideResp":1,"stimulus":[],"xmouse":[777,777,777,777,777,777,777,777,777,777,777,777,777,777,777,777,777,777,777,777,777,777,777,777,777,777,777,777,777,777,777,777,777,777,777,777,777,777,777,777,777,777,777,777,777,777,777,777,777,777,777,777,777,777,777,777,777,777,777,777,777,777,777,777,777,777,777,777,777,777,777,777,777,777,777,777,777,777,777,777,777,777,777,777,777,775,763,745,711,618,573,522,500,482,480,480],"ymouse":[618,618,618,618,618,618,618,618,618,618,618,618,618,618,618,618,618,618,618,618,618,618,618,618,618,618,618,618,618,618,618,618,618,618,618,618,618,618,618,618,618,618,618,618,618,618,618,618,618,618,618,618,618,618,618,618,618,618,618,618,618,618,618,618,618,618,618,618,618,618,618,618,618,618,618,618,618,618,618,618,618,618,618,618,618,618,602,570,517,395,332,237,188,129,110,89],"timestamp_mouse":[7,38,47,68,87,108,127,148,167,188,208,227,247,269,287,308,327,347,367,388,407,427,448,469,488,508,527,547,567,587,607,629,648,667,687,708,727,747,768,789,808,827,848,868,888,908,928,948,967,988,1007,1027,1047,1067,1087,1108,1127,1148,1168,1188,1208,1228,1249,1268,1287,1307,1328,1347,1369,1388,1407,1428,1448,1469,1488,1507,1528,1547,1568,1588,1607,1627,1647,1668,1688,1707,1728,1748,1767,1787,1808,1827,1848,1868,1887,1907],"xSR":741.5,"ySR":573.95,"xT1":424.9,"yT1":0,"xT2":1058.1,"yT2":0,"toosoon":0,"cond_shown":"Incongruent","ratio_trial":100,"L_num":6,"L_den":12,"R_num":3,"R_den":5,"correct_side":2,"subjID":"AndresMauricioAcostaPerez22","gender":"0","school":"6","age":"11"},{"start_time":1551880598557,"click_time":1551880599634,"finger_time":1551880599534,"fix_duration":984.0726848252375,"trial":15,"RT":977,"MT":100,"sideResp":2,"stimulus":[],"xmouse":[788,788,788,788,788,788,788,788,788,788,788,788,788,788,788,788,788,788,788,788,788,788,788,788,788,788,788,788,788,788,788,788,788,788,788,788,788,788,788,788,788,788,788,788,788,788,787,793,807,837,954,1020,1078,1138],"ymouse":[637,637,637,637,637,637,637,637,637,637,637,637,637,637,637,637,637,637,637,637,637,637,637,637,637,637,637,637,637,637,637,637,637,637,637,637,637,637,637,637,637,637,637,637,637,635,617,600,568,512,349,259,182,93],"timestamp_mouse":[16,35,56,77,97,116,136,156,176,196,215,237,256,276,297,315,335,355,376,396,416,437,455,476,496,517,535,555,577,595,617,636,655,677,697,715,736,756,777,795,817,836,857,877,896,915,935,956,977,995,1016,1036,1056,1077],"xSR":741.5,"ySR":573.95,"xT1":424.9,"yT1":0,"xT2":1058.1,"yT2":0,"toosoon":0,"cond_shown":"Incongruent","ratio_trial":200,"L_num":6,"L_den":20,"R_num":3,"R_den":6,"correct_side":2,"subjID":"AndresMauricioAcostaPerez22","gender":"0","school":"6","age":"11"},{"start_time":1551880601484,"click_time":1551880602474,"finger_time":1551880602394,"fix_duration":1009.0686964368691,"trial":16,"RT":910,"MT":80,"sideResp":1,"stimulus":[],"xmouse":[818,818,818,818,818,818,818,818,818,818,818,818,818,818,818,818,818,818,818,818,818,818,818,818,818,818,818,818,818,818,818,818,818,818,818,818,818,818,818,818,818,818,818,818,814,791,753,634,569,515],"ymouse":[628,628,628,628,628,628,628,628,628,628,628,628,628,628,628,628,628,628,628,628,628,628,628,628,628,628,628,628,628,628,628,628,628,628,628,628,628,628,628,628,628,628,628,628,608,524,386,201,118,16],"timestamp_mouse":[9,38,49,69,90,109,128,148,169,188,209,228,248,269,289,308,330,349,368,388,408,429,449,468,488,508,530,548,568,589,609,630,648,668,689,708,729,749,770,788,810,830,850,870,890,910,929,948,969,990],"xSR":741.5,"ySR":573.95,"xT1":424.9,"yT1":0,"xT2":1058.1,"yT2":0,"toosoon":0,"cond_shown":"Incongruent","ratio_trial":300,"L_num":8,"L_den":10,"R_num":14,"R_den":28,"correct_side":1,"subjID":"AndresMauricioAcostaPerez22","gender":"0","school":"6","age":"11"},{"start_time":1551880607832,"click_time":1551880608613,"finger_time":1551880608474,"fix_duration":818.3737672982496,"trial":17,"RT":642,"MT":139,"sideResp":1,"stimulus":[],"xmouse":[796,795,795,795,795,795,795,795,794,793,793,792,792,792,792,792,792,791,791,791,791,791,791,791,791,791,791,791,791,788,777,751,630,561,524,505,498,494,493,492],"ymouse":[652,650,647,647,646,646,646,646,646,645,645,643,643,643,643,642,642,642,642,641,641,641,641,641,641,641,641,641,640,636,621,588,407,297,221,173,145,113,105,95],"timestamp_mouse":[1,22,58,61,81,102,120,141,162,180,201,222,240,260,281,302,321,341,361,380,400,422,441,460,481,500,520,540,560,581,602,622,642,661,681,702,722,742,760,781],"xSR":741.5,"ySR":573.95,"xT1":424.9,"yT1":0,"xT2":1058.1,"yT2":0,"toosoon":0,"cond_shown":"Congruent","ratio_trial":100,"L_num":1,"L_den":2,"R_num":18,"R_den":30,"correct_side":2,"subjID":"AndresMauricioAcostaPerez22","gender":"0","school":"6","age":"11"},{"start_time":1551880611277,"click_time":1551880613073,"finger_time":1551880612693,"fix_duration":284.38258674508967,"trial":18,"RT":1416,"MT":380,"sideResp":2,"stimulus":[],"xmouse":[811,811,811,811,811,811,811,811,811,811,811,811,811,811,811,811,811,811,811,811,811,811,811,811,811,811,811,811,811,811,811,811,811,811,811,811,811,811,811,811,811,811,811,811,811,811,811,811,811,811,811,811,811,811,811,811,811,811,811,811,811,811,811,811,811,811,811,813,814,826,838,855,877,918,1026,1075,1111,1132,1142,1143,1138,1133,1131,1127,1125,1123,1123,1123,1123,1128],"ymouse":[630,630,630,630,630,630,630,630,630,630,630,630,630,630,630,630,630,630,630,630,630,630,630,630,630,630,630,630,630,630,630,630,630,630,630,630,630,630,630,630,630,630,630,630,630,630,630,630,630,630,630,630,630,630,630,630,630,630,630,630,630,630,630,630,630,630,630,628,626,597,568,530,491,440,330,284,250,223,198,184,156,146,140,132,127,116,110,105,101,92],"timestamp_mouse":[17,36,56,77,96,116,136,156,177,195,215,236,256,275,295,316,336,356,377,397,416,437,455,476,497,515,535,557,575,595,615,637,655,676,696,716,735,757,776,795,816,835,856,877,895,915,937,955,975,997,1016,1035,1055,1076,1096,1116,1135,1155,1175,1196,1216,1236,1257,1275,1297,1315,1336,1355,1377,1397,1416,1437,1457,1476,1497,1516,1536,1556,1577,1609,1616,1637,1656,1676,1696,1716,1736,1757,1775,1796],"xSR":741.5,"ySR":573.95,"xT1":424.9,"yT1":0,"xT2":1058.1,"yT2":0,"toosoon":0,"cond_shown":"Incongruent","ratio_trial":100,"L_num":3,"L_den":5,"R_num":11,"R_den":22,"correct_side":1,"subjID":"AndresMauricioAcostaPerez22","gender":"0","school":"6","age":"11"},{"start_time":1551880614933,"click_time":1551880619554,"finger_time":1551880617693,"fix_duration":1058.9451595260643,"trial":19,"RT":2760,"MT":1861,"sideResp":1,"stimulus":[],"xmouse":[817,817,817,817,817,817,817,817,817,817,817,817,817,817,817,817,817,817,817,817,817,817,817,817,817,817,817,817,817,817,817,817,817,817,817,817,817,817,817,817,817,817,817,817,817,817,817,817,817,817,817,817,817,817,817,817,817,817,817,817,817,817,817,817,817,817,817,817,817,817,817,817,817,817,817,817,817,817,817,817,817,817,816,816,815,815,813,810,809,808,807,804,804,803,801,800,799,797,797,797,797,797,797,797,797,797,797,797,797,797,797,797,797,797,797,797,797,797,797,797,797,797,797,797,797,797,796,795,795,795,795,795,795,795,803,829,835,839,831,825,822,809,791,767,719,689,676,676,676,676,676,682,693,713,719,735,740,748,753,759,765,773,773,773,773,773,773,773,773,773,773,774,775,775,775,775,777,777,777,777,777,776,776,775,775,775,775,775,775,775,775,775,775,775,775,775,775,775,775,775,775,775,775,775,775,775,775,775,775,775,775,775,775,775,775,775,775,775,775,775,775,775,775,775,775,775,773,741,682,586,493],"ymouse":[599,599,599,599,599,599,599,599,599,599,599,599,599,599,599,599,599,599,599,599,599,599,599,599,599,599,599,599,599,599,599,599,599,599,599,599,599,599,599,599,599,599,599,599,599,599,599,599,599,599,599,599,599,599,599,599,599,599,599,599,599,599,599,599,599,599,599,599,599,599,599,599,599,599,599,599,599,599,599,599,599,599,599,599,599,599,599,598,597,597,597,596,595,594,593,593,593,592,591,591,591,591,591,591,591,591,591,591,591,591,591,591,591,591,591,591,591,591,591,591,591,591,591,591,591,591,591,591,591,591,591,591,591,591,594,606,620,688,706,715,718,717,701,668,581,525,491,491,490,490,490,490,490,497,499,510,514,522,528,534,538,541,541,541,541,542,545,545,545,545,545,549,553,555,558,559,566,578,589,598,603,607,612,621,623,623,623,623,623,623,623,623,623,623,623,623,623,623,623,623,623,623,623,623,623,623,623,623,623,623,623,623,623,623,623,623,623,623,623,623,623,623,623,623,623,622,617,540,416,234,84],"timestamp_mouse":[4,41,59,81,99,121,139,161,180,200,219,241,260,279,299,319,341,360,379,400,420,441,460,479,500,519,540,559,580,601,620,640,660,679,701,720,740,760,780,800,820,840,861,879,901,921,939,959,980,1000,1020,1040,1059,1080,1100,1120,1141,1160,1179,1200,1221,1240,1260,1280,1301,1321,1341,1360,1380,1399,1420,1440,1460,1480,1499,1521,1540,1560,1580,1601,1619,1639,1661,1680,1700,1719,1740,1761,1781,1800,1819,1840,1860,1880,1899,1920,1940,1960,1980,2000,2020,2041,2060,2079,2101,2120,2140,2160,2180,2201,2220,2241,2260,2281,2299,2321,2341,2360,2380,2400,2420,2441,2459,2480,2499,2520,2539,2561,2581,2600,2620,2641,2659,2681,2700,2719,2739,2760,2780,2800,2821,2841,2860,2880,2900,2919,2940,2960,2981,3001,3020,3040,3059,3081,3101,3120,3141,3160,3180,3201,3220,3240,3260,3280,3300,3321,3341,3359,3379,3400,3420,3441,3459,3481,3501,3520,3540,3559,3581,3601,3619,3641,3659,3679,3700,3719,3739,3759,3780,3799,3819,3839,3861,3881,3901,3919,3941,3959,3979,4001,4021,4040,4060,4081,4099,4121,4140,4159,4180,4200,4219,4241,4259,4280,4301,4321,4339,4361,4380,4399,4421,4439,4460,4481,4500,4519,4541,4560,4579,4600,4621],"xSR":741.5,"ySR":573.95,"xT1":424.9,"yT1":0,"xT2":1058.1,"yT2":0,"toosoon":0,"cond_shown":"Incongruent","ratio_trial":300,"L_num":4,"L_den":20,"R_num":2,"R_den":4,"correct_side":2,"subjID":"AndresMauricioAcostaPerez22","gender":"0","school":"6","age":"11"},{"start_time":1551880620609,"click_time":1551880622353,"finger_time":1551880621993,"fix_duration":255.96672642246853,"trial":20,"RT":1384,"MT":360,"sideResp":2,"stimulus":[],"xmouse":[815,815,815,815,815,815,815,815,815,815,815,815,815,815,815,815,815,815,815,815,815,816,816,816,816,816,816,816,816,816,816,816,816,816,816,816,816,816,816,816,816,816,816,816,816,816,816,816,816,816,816,816,816,816,816,816,816,816,816,816,816,816,816,816,817,818,819,823,834,875,897,934,965,980,996,999,1006,1009,1013,1024,1028,1035,1038,1048,1050,1051,1053,1059],"ymouse":[615,615,615,615,615,615,615,615,615,615,615,615,615,615,615,615,615,615,615,615,615,614,614,614,614,614,614,614,614,614,614,614,614,614,614,614,614,614,614,614,614,614,614,614,614,614,614,614,614,614,614,614,614,614,614,614,614,614,614,614,614,614,614,614,613,610,609,602,586,519,470,363,242,149,32,14,0,0,0,0,0,0,0,0,0,0,0,1],"timestamp_mouse":[9,25,45,65,84,103,123,143,164,185,205,224,245,263,283,304,324,344,364,385,404,423,445,464,484,503,525,543,564,584,603,625,645,664,684,704,724,743,763,785,804,824,844,865,885,904,924,944,965,984,1003,1025,1045,1063,1085,1104,1123,1144,1165,1183,1204,1225,1244,1264,1284,1304,1324,1343,1363,1384,1404,1424,1444,1464,1485,1505,1524,1545,1564,1585,1605,1625,1644,1665,1685,1704,1724,1744],"xSR":741.5,"ySR":573.95,"xT1":424.9,"yT1":0,"xT2":1058.1,"yT2":0,"toosoon":0,"cond_shown":"Congruent","ratio_trial":200,"L_num":1,"L_den":2,"R_num":21,"R_den":30,"correct_side":2,"subjID":"AndresMauricioAcostaPerez22","gender":"0","school":"6","age":"11"},{"start_time":1551880623763,"click_time":1551880625713,"finger_time":1551880625254,"fix_duration":367.75940040037193,"trial":21,"RT":1491,"MT":459,"sideResp":1,"stimulus":[],"xmouse":[795,795,795,795,795,795,795,795,795,795,795,795,795,795,795,795,795,795,795,795,795,795,795,795,795,795,795,795,795,795,795,795,795,795,795,795,795,795,795,795,795,795,795,795,795,795,795,795,795,795,795,795,795,795,795,795,795,795,795,795,795,795,795,795,795,795,795,795,795,795,795,795,794,793,790,760,728,695,651,614,571,560,552,550,550,548,547,546,545,545,545,538,531,521,514,510,507,506],"ymouse":[582,582,582,582,582,582,582,582,582,582,582,582,582,582,582,582,582,582,582,582,582,582,582,582,582,582,582,582,582,582,582,582,582,582,582,582,582,582,582,582,582,582,582,582,582,582,582,582,582,582,582,582,582,582,582,582,582,582,582,582,582,582,582,582,582,582,582,582,582,582,582,582,580,576,546,420,342,267,187,120,46,26,14,11,11,7,5,2,1,0,0,0,0,0,0,0,0,1],"timestamp_mouse":[10,44,50,71,90,111,130,149,171,190,210,230,250,271,289,309,331,349,369,389,411,430,451,471,489,511,531,550,570,591,610,630,650,671,689,710,730,749,771,789,810,831,850,871,890,911,930,951,971,990,1010,1030,1050,1069,1090,1109,1129,1149,1169,1190,1211,1230,1250,1270,1290,1310,1331,1349,1371,1390,1410,1431,1450,1471,1491,1511,1529,1551,1569,1591,1611,1629,1649,1670,1690,1711,1730,1749,1770,1791,1810,1831,1851,1870,1890,1911,1930,1950],"xSR":741.5,"ySR":573.95,"xT1":424.9,"yT1":0,"xT2":1058.1,"yT2":0,"toosoon":0,"cond_shown":"Incongruent","ratio_trial":100,"L_num":6,"L_den":10,"R_num":7,"R_den":14,"correct_side":1,"subjID":"AndresMauricioAcostaPerez22","gender":"0","school":"6","age":"11"},{"start_time":1551880626897,"click_time":1551880628974,"finger_time":1551880628813,"fix_duration":482.5598498928175,"trial":22,"RT":1916,"MT":161,"sideResp":1,"stimulus":[],"xmouse":[816,816,816,816,816,816,816,816,816,816,816,816,816,816,816,816,816,816,816,816,816,816,816,816,816,816,816,816,816,816,816,816,816,816,816,816,816,816,816,816,816,816,816,816,816,816,816,816,816,816,816,816,816,816,816,816,816,816,816,816,816,816,816,816,816,816,816,816,816,816,816,816,816,816,816,816,816,816,816,816,816,816,816,816,816,816,816,816,816,816,816,816,816,816,814,806,790,757,717,604,561,538,525,510],"ymouse":[605,605,605,605,605,605,605,605,605,605,605,605,605,605,605,605,605,605,605,605,605,605,605,605,605,605,605,605,605,605,605,605,605,605,605,605,605,605,605,605,605,605,605,605,605,605,605,605,605,605,605,605,605,605,605,605,605,605,605,605,605,605,605,605,605,605,605,605,605,605,605,605,605,605,605,605,605,605,605,605,605,605,605,605,605,605,605,605,605,605,605,605,605,605,596,545,471,395,309,126,82,55,38,12],"timestamp_mouse":[16,42,55,77,96,115,136,156,177,197,216,236,257,276,295,315,336,355,377,396,416,437,456,475,496,516,535,557,575,596,615,635,656,676,696,715,735,757,776,796,815,836,856,877,896,916,935,957,975,995,1016,1036,1055,1077,1096,1115,1136,1156,1175,1196,1215,1237,1256,1276,1295,1316,1336,1355,1376,1395,1417,1437,1456,1476,1497,1517,1537,1556,1577,1596,1615,1637,1655,1677,1696,1716,1737,1755,1777,1796,1815,1837,1855,1877,1895,1916,1937,1956,1976,1996,2015,2036,2057,2077],"xSR":741.5,"ySR":573.95,"xT1":424.9,"yT1":0,"xT2":1058.1,"yT2":0,"toosoon":0,"cond_shown":"Congruent","ratio_trial":100,"L_num":11,"L_den":22,"R_num":6,"R_den":15,"correct_side":1,"subjID":"AndresMauricioAcostaPerez22","gender":"0","school":"6","age":"11"},{"start_time":1551880630517,"click_time":1551880631394,"finger_time":1551880631293,"fix_duration":923.1920138138013,"trial":23,"RT":776,"MT":101,"sideResp":2,"stimulus":[],"xmouse":[812,812,812,812,812,812,812,812,812,812,812,812,812,812,812,812,812,812,812,812,812,812,812,812,812,812,812,812,812,812,812,812,812,813,813,816,823,832,869,900,949,1002,1035,1062],"ymouse":[635,635,635,635,635,635,635,635,635,635,635,635,635,635,635,635,635,635,635,635,635,635,635,635,635,635,635,635,635,635,635,635,635,635,633,627,615,596,506,428,292,163,85,10],"timestamp_mouse":[16,52,56,76,96,117,136,157,176,195,216,235,257,275,295,315,337,356,377,395,416,436,455,476,496,516,536,557,577,596,615,637,657,675,697,716,736,755,776,796,816,837,857,877],"xSR":741.5,"ySR":573.95,"xT1":424.9,"yT1":0,"xT2":1058.1,"yT2":0,"toosoon":0,"cond_shown":"Congruent","ratio_trial":100,"L_num":6,"L_den":20,"R_num":5,"R_den":25,"correct_side":1,"subjID":"AndresMauricioAcostaPerez22","gender":"0","school":"6","age":"11"},{"start_time":1551880633102,"click_time":1551880634513,"finger_time":1551880634434,"fix_duration":687.6224986462042,"trial":24,"RT":1332,"MT":79,"sideResp":2,"stimulus":[],"xmouse":[752,752,752,752,752,752,752,752,752,752,752,752,752,752,752,752,752,752,752,752,752,752,752,752,752,752,752,752,752,752,752,752,752,752,752,752,752,752,752,752,752,752,752,752,752,752,754,754,754,754,754,754,754,754,754,754,754,754,754,754,754,754,754,754,761,799,844,900,1048,1093,1131],"ymouse":[632,632,632,632,632,632,632,632,632,632,632,632,632,632,632,632,632,632,632,632,632,632,632,632,632,632,632,632,632,632,632,632,632,632,632,632,632,632,632,632,632,632,632,632,632,632,631,631,631,631,631,631,631,631,631,631,631,631,631,631,631,631,631,631,623,578,522,456,237,167,95],"timestamp_mouse":[10,36,52,71,90,110,132,150,172,191,210,231,250,272,292,310,330,352,371,391,411,432,451,471,490,512,531,550,572,592,610,632,650,671,691,710,732,750,771,792,811,830,851,871,892,911,932,951,971,992,1011,1031,1052,1072,1091,1111,1131,1151,1171,1192,1212,1230,1252,1270,1290,1312,1332,1351,1372,1391,1411],"xSR":741.5,"ySR":573.95,"xT1":424.9,"yT1":0,"xT2":1058.1,"yT2":0,"toosoon":0,"cond_shown":"Congruent","ratio_trial":100,"L_num":7,"L_den":14,"R_num":9,"R_den":15,"correct_side":2,"subjID":"AndresMauricioAcostaPerez22","gender":"0","school":"6","age":"11"},{"start_time":1551880636460,"click_time":1551880637734,"finger_time":1551880637553,"fix_duration":1046.3319455346782,"trial":25,"RT":1093,"MT":181,"sideResp":2,"stimulus":[],"xmouse":[792,792,792,792,792,792,792,792,792,792,792,792,792,792,792,792,792,792,792,792,792,792,792,792,792,792,792,792,792,792,792,792,792,792,792,792,792,792,792,792,792,792,792,792,792,792,792,792,792,792,792,792,792,793,795,802,813,856,890,923,993,1028,1055,1076],"ymouse":[604,604,604,604,604,604,604,604,604,604,604,604,604,604,604,604,604,604,604,604,604,604,604,604,604,604,604,604,604,604,604,604,604,604,604,604,604,604,604,604,604,604,604,604,604,604,604,604,604,604,604,602,598,587,571,539,508,419,361,302,190,138,97,65],"timestamp_mouse":[13,36,54,72,93,113,133,153,172,193,214,232,252,272,293,312,332,354,374,392,414,434,452,472,493,512,533,552,573,593,613,632,654,674,693,712,732,753,773,792,813,833,854,874,892,914,932,954,973,992,1012,1033,1052,1073,1093,1114,1133,1153,1173,1193,1214,1233,1253,1274],"xSR":741.5,"ySR":573.95,"xT1":424.9,"yT1":0,"xT2":1058.1,"yT2":0,"toosoon":0,"cond_shown":"Incongruent","ratio_trial":300,"L_num":13,"L_den":26,"R_num":12,"R_den":15,"correct_side":2,"subjID":"AndresMauricioAcostaPerez22","gender":"0","school":"6","age":"11"},{"start_time":1551880640559,"click_time":1551880642014,"finger_time":1551880641594,"fix_duration":604.196185726614,"trial":26,"RT":1035,"MT":420,"sideResp":2,"stimulus":[],"xmouse":[794,794,794,794,794,794,794,794,794,794,794,794,794,794,794,794,794,794,794,794,794,794,794,794,794,794,794,794,794,794,794,794,794,794,794,794,794,794,794,794,794,794,795,795,795,795,795,795,797,799,804,837,890,928,961,1007,1020,1031,1038,1043,1044,1045,1045,1045,1045,1045,1045,1045,1045,1045,1045,1047,1061],"ymouse":[643,643,643,643,643,643,643,643,643,643,643,643,643,643,643,643,643,643,643,643,643,643,643,643,643,643,643,643,643,643,643,643,643,643,643,643,643,643,643,643,643,643,642,642,642,642,642,642,639,635,624,544,439,372,309,196,155,119,96,79,72,70,70,70,70,70,70,73,79,91,95,96,87],"timestamp_mouse":[19,44,55,75,95,114,134,155,173,194,213,233,254,274,293,314,334,354,374,394,415,433,453,474,495,513,534,554,574,593,614,634,655,673,695,714,735,753,773,794,814,833,854,875,893,915,935,955,974,994,1014,1035,1054,1075,1093,1115,1134,1154,1175,1194,1214,1234,1253,1274,1295,1313,1333,1354,1374,1395,1414,1433,1454],"xSR":741.5,"ySR":573.95,"xT1":424.9,"yT1":0,"xT2":1058.1,"yT2":0,"toosoon":0,"cond_shown":"Incongruent","ratio_trial":200,"L_num":7,"L_den":10,"R_num":14,"R_den":28,"correct_side":1,"subjID":"AndresMauricioAcostaPerez22","gender":"0","school":"6","age":"11"},{"start_time":1551880643814,"click_time":1551880645374,"finger_time":1551880645274,"fix_duration":1000.0424761474801,"trial":27,"RT":1460,"MT":100,"sideResp":2,"stimulus":[],"xmouse":[815,815,815,815,815,815,815,815,815,815,815,815,815,815,815,814,812,811,810,810,810,810,810,809,809,808,808,808,808,808,808,808,808,808,808,808,808,808,808,808,808,808,808,808,808,808,808,808,808,808,808,808,808,808,808,808,808,808,808,808,808,808,808,808,808,808,808,808,808,808,811,816,838,916,959,999,1039,1067],"ymouse":[580,580,580,580,580,580,580,580,580,580,580,580,580,580,580,582,586,589,589,589,589,589,590,592,592,593,593,593,593,593,593,593,593,593,593,593,593,593,593,593,593,593,593,593,593,593,593,593,593,593,593,593,593,593,593,593,593,593,593,593,593,593,593,593,593,593,593,593,593,593,587,580,545,397,320,243,154,92],"timestamp_mouse":[34,39,59,79,99,118,138,159,180,199,220,240,258,278,300,320,340,360,379,398,419,439,458,479,499,519,539,560,578,598,620,638,658,679,698,718,739,759,779,799,818,840,859,879,899,918,938,959,980,998,1019,1039,1059,1080,1099,1119,1139,1159,1180,1199,1218,1239,1259,1279,1299,1319,1338,1358,1380,1399,1418,1440,1460,1479,1500,1519,1540,1560],"xSR":741.5,"ySR":573.95,"xT1":424.9,"yT1":0,"xT2":1058.1,"yT2":0,"toosoon":0,"cond_shown":"Incongruent","ratio_trial":100,"L_num":9,"L_den":10,"R_num":20,"R_den":25,"correct_side":1,"subjID":"AndresMauricioAcostaPerez22","gender":"0","school":"6","age":"11"},{"start_time":1551880646849,"click_time":1551880648212,"finger_time":1551880647974,"fix_duration":654.5597850549658,"trial":28,"RT":1125,"MT":238,"sideResp":2,"stimulus":[],"xmouse":[784,784,784,784,784,784,784,784,784,784,784,784,784,784,784,784,784,784,784,784,784,784,784,784,784,784,784,784,784,784,784,784,784,784,784,784,784,784,784,784,784,784,784,784,784,784,784,784,784,784,784,784,784,784,792,803,840,863,892,925,945,993,1016,1029,1039,1044,1049,1057,1063],"ymouse":[612,612,612,612,612,612,612,612,612,612,612,612,612,612,612,612,612,612,612,612,612,612,612,612,612,612,612,612,612,612,612,612,612,612,612,612,612,612,612,612,612,612,612,612,612,612,612,612,612,612,612,612,612,612,606,598,566,542,507,460,416,315,259,212,172,134,98,38,17],"timestamp_mouse":[12,25,44,65,85,103,124,143,164,184,203,223,245,263,284,304,324,344,365,384,405,424,444,464,484,503,525,543,564,585,605,624,643,664,683,704,724,743,763,784,805,823,843,864,883,905,925,944,963,984,1003,1024,1045,1064,1085,1105,1125,1143,1165,1184,1204,1225,1243,1264,1283,1305,1324,1345,1363],"xSR":741.5,"ySR":573.95,"xT1":424.9,"yT1":0,"xT2":1058.1,"yT2":0,"toosoon":0,"cond_shown":"Incongruent","ratio_trial":100,"L_num":6,"L_den":10,"R_num":11,"R_den":22,"correct_side":1,"subjID":"AndresMauricioAcostaPerez22","gender":"0","school":"6","age":"11"},{"start_time":1551880649795,"click_time":1551880651673,"finger_time":1551880651194,"fix_duration":742.9385901097664,"trial":29,"RT":1399,"MT":479,"sideResp":1,"stimulus":[],"xmouse":[784,784,784,784,784,784,784,784,784,784,784,784,784,784,784,784,784,784,784,784,784,784,784,784,784,784,784,784,784,784,784,784,784,784,784,784,784,784,784,784,784,782,779,777,777,777,777,777,777,776,776,774,774,773,773,773,773,773,773,773,773,772,772,772,771,771,771,771,771,742,727,676,645,594,579,570,564,558,552,546,546,546,546,547,547,547,547,547,547,547,547,547,547,516],"ymouse":[628,628,628,628,628,628,628,628,628,628,628,628,628,628,628,628,628,628,628,628,628,628,628,628,628,628,628,628,628,628,628,628,628,628,628,628,628,628,628,628,628,622,618,616,615,615,615,615,615,614,614,615,616,617,617,617,617,617,617,617,618,620,621,621,621,621,621,621,615,536,512,438,387,278,241,211,188,168,146,110,95,90,87,83,78,77,77,77,77,77,77,77,75,55],"timestamp_mouse":[34,37,58,77,98,117,138,158,178,197,219,239,257,278,298,318,337,358,379,399,418,439,459,477,498,517,538,558,577,598,617,637,659,678,698,717,739,758,778,797,818,838,857,878,898,918,937,958,979,997,1019,1037,1057,1079,1097,1119,1139,1158,1178,1198,1218,1237,1258,1278,1299,1319,1339,1357,1377,1399,1419,1439,1458,1478,1497,1518,1539,1559,1577,1598,1618,1638,1658,1678,1698,1719,1737,1758,1779,1799,1818,1838,1858,1878],"xSR":741.5,"ySR":573.95,"xT1":424.9,"yT1":0,"xT2":1058.1,"yT2":0,"toosoon":0,"cond_shown":"Incongruent","ratio_trial":200,"L_num":4,"L_den":5,"R_num":6,"R_den":10,"correct_side":1,"subjID":"AndresMauricioAcostaPerez22","gender":"0","school":"6","age":"11"},{"start_time":1551880654104,"click_time":1551880656312,"finger_time":1551880656033,"fix_duration":250,"trial":30,"RT":1929,"MT":279,"sideResp":1,"stimulus":[],"xmouse":[800,800,800,800,800,800,800,800,800,800,800,800,800,800,800,800,800,800,800,800,800,800,800,800,800,800,800,800,800,800,800,800,800,800,800,800,800,800,800,800,800,800,800,800,800,800,800,800,800,800,800,800,800,800,800,800,800,800,800,800,800,800,800,800,800,800,800,800,800,800,800,800,800,800,800,800,800,800,800,800,800,800,800,800,800,800,800,800,800,800,800,800,800,800,788,771,741,714,644,603,579,554,535,526,517,509,504,504,504,503,501],"ymouse":[649,649,649,649,649,649,649,649,649,649,649,649,649,649,649,649,649,649,649,649,649,649,649,649,649,649,649,649,649,649,649,649,649,649,649,649,649,649,649,649,649,649,649,649,649,649,649,649,649,649,649,649,649,649,649,649,649,649,649,649,649,649,649,649,649,649,649,649,649,649,649,649,649,649,649,649,649,649,649,649,649,649,649,649,649,649,649,649,649,649,649,649,649,645,623,590,512,440,240,146,80,11,0,0,0,0,0,0,0,0,2],"timestamp_mouse":[8,35,49,69,90,110,128,149,169,189,210,229,248,268,289,308,328,349,369,389,408,430,448,469,489,508,530,550,568,588,609,629,649,668,689,709,729,748,768,789,808,829,848,870,889,910,929,948,969,988,1009,1028,1049,1070,1089,1109,1129,1148,1169,1189,1209,1229,1248,1270,1289,1308,1330,1349,1369,1390,1409,1430,1450,1468,1490,1509,1530,1548,1569,1588,1609,1629,1648,1668,1689,1709,1728,1748,1768,1788,1810,1828,1850,1868,1890,1909,1929,1950,1970,1989,2008,2028,2049,2069,2090,2108,2129,2150,2169,2188,2208],"xSR":741.5,"ySR":573.95,"xT1":424.9,"yT1":0,"xT2":1058.1,"yT2":0,"toosoon":0,"cond_shown":"Incongruent","ratio_trial":100,"L_num":11,"L_den":22,"R_num":9,"R_den":15,"correct_side":2,"subjID":"AndresMauricioAcostaPerez22","gender":"0","school":"6","age":"11"},{"start_time":1551880657445,"click_time":1551880658774,"finger_time":1551880658513,"fix_duration":250,"trial":31,"RT":1068,"MT":261,"sideResp":2,"stimulus":[],"xmouse":[786,786,786,786,786,786,786,786,786,786,786,786,786,786,786,786,786,786,786,786,786,786,786,786,786,786,786,786,786,786,786,786,786,786,786,786,786,786,786,786,786,786,786,786,786,786,786,786,786,786,786,793,824,851,887,930,1006,1030,1045,1059,1063,1065,1068,1070,1072,1074,1075],"ymouse":[653,652,652,652,652,652,652,652,652,652,652,652,652,652,652,652,652,652,652,652,652,652,652,652,652,652,652,652,652,652,652,652,652,652,652,652,652,652,652,652,652,652,652,651,651,651,651,651,651,650,647,635,596,565,518,467,353,311,273,228,204,161,146,132,116,105,93],"timestamp_mouse":[9,27,50,68,87,107,129,147,168,187,208,228,249,268,288,308,327,348,368,388,408,427,449,467,489,508,528,549,567,587,608,628,649,668,689,708,728,747,769,788,807,828,849,868,887,909,928,948,969,987,1007,1028,1048,1068,1088,1109,1129,1148,1169,1188,1208,1229,1248,1269,1288,1308,1329],"xSR":741.5,"ySR":573.95,"xT1":424.9,"yT1":0,"xT2":1058.1,"yT2":0,"toosoon":0,"cond_shown":"Congruent","ratio_trial":300,"L_num":8,"L_den":15,"R_num":10,"R_den":12,"correct_side":2,"subjID":"AndresMauricioAcostaPerez22","gender":"0","school":"6","age":"11"},{"start_time":1551880661790,"click_time":1551880663233,"finger_time":1551880663094,"fix_duration":876.5062415278859,"trial":32,"RT":1304,"MT":139,"sideResp":1,"stimulus":[],"xmouse":[778,778,778,778,778,778,778,778,778,778,778,778,778,778,778,778,778,778,778,778,778,778,778,778,778,778,778,778,778,778,778,778,778,779,779,780,780,781,781,781,781,781,781,781,781,781,781,781,781,781,781,781,781,781,781,781,781,781,781,781,781,781,781,780,775,765,742,705,655,607,530,516,507],"ymouse":[629,629,629,629,629,629,629,629,629,629,629,629,629,629,629,629,629,629,629,629,629,629,629,629,629,629,629,629,629,629,629,629,629,628,628,628,628,628,628,628,628,628,628,628,628,628,628,628,628,628,628,628,628,628,628,628,628,628,628,628,628,628,628,626,622,572,501,425,344,274,167,134,92],"timestamp_mouse":[11,32,44,64,83,103,123,143,164,183,203,223,243,263,283,303,323,343,364,384,404,424,443,463,484,503,523,543,563,584,603,623,644,664,683,704,723,743,763,784,803,823,843,864,884,903,923,944,963,983,1003,1023,1043,1063,1083,1103,1123,1143,1165,1184,1204,1224,1243,1263,1283,1304,1323,1343,1363,1383,1403,1424,1443],"xSR":741.5,"ySR":573.95,"xT1":424.9,"yT1":0,"xT2":1058.1,"yT2":0,"toosoon":0,"cond_shown":"Incongruent","ratio_trial":300,"L_num":8,"L_den":10,"R_num":14,"R_den":28,"correct_side":1,"subjID":"AndresMauricioAcostaPerez22","gender":"0","school":"6","age":"11"},{"start_time":1551880664325,"click_time":1551880666393,"finger_time":1551880666154,"fix_duration":250,"trial":33,"RT":1829,"MT":239,"sideResp":1,"stimulus":[],"xmouse":[827,827,827,827,827,827,827,827,827,827,827,827,827,827,827,827,827,827,827,827,827,827,827,827,827,827,827,827,827,827,827,827,827,827,827,827,827,827,827,827,827,827,827,827,827,827,827,827,827,827,827,827,827,827,827,827,827,827,827,827,827,827,827,827,827,827,827,827,827,827,827,827,827,827,827,827,827,827,827,827,827,827,827,827,827,826,824,818,814,812,805,789,716,675,644,629,624,613,605,592,574,555,534,512],"ymouse":[609,609,609,609,609,609,609,609,609,609,609,609,609,609,609,609,609,609,609,609,609,609,609,609,609,609,609,609,609,609,609,609,609,609,609,609,609,609,609,609,609,609,609,609,609,609,609,609,609,609,609,609,609,609,609,609,609,609,609,609,609,609,609,609,609,609,609,609,609,609,609,609,609,609,609,609,609,609,609,609,609,609,609,609,609,609,608,606,604,598,574,537,409,330,272,226,204,175,163,145,126,106,83,61],"timestamp_mouse":[12,42,49,68,88,108,129,148,168,189,208,228,249,270,289,308,329,348,368,388,408,428,449,470,488,508,528,549,568,588,608,629,649,669,688,709,728,748,769,788,808,828,848,868,889,908,928,948,969,988,1009,1028,1048,1069,1088,1108,1128,1149,1168,1188,1208,1228,1249,1268,1288,1308,1328,1349,1368,1388,1408,1428,1448,1469,1488,1508,1528,1548,1569,1588,1608,1629,1649,1669,1688,1708,1729,1749,1768,1788,1808,1829,1850,1868,1888,1908,1929,1949,1968,1988,2008,2028,2049,2068],"xSR":741.5,"ySR":573.95,"xT1":424.9,"yT1":0,"xT2":1058.1,"yT2":0,"toosoon":0,"cond_shown":"Incongruent","ratio_trial":200,"L_num":7,"L_den":10,"R_num":8,"R_den":16,"correct_side":1,"subjID":"AndresMauricioAcostaPerez22","gender":"0","school":"6","age":"11"},{"start_time":1551880668393,"click_time":1551880669793,"finger_time":1551880669593,"fix_duration":1257.0879318509697,"trial":34,"RT":1200,"MT":200,"sideResp":2,"stimulus":[],"xmouse":[814,814,814,814,814,814,814,814,814,814,814,814,814,814,815,815,815,815,815,815,815,815,815,815,815,815,815,815,815,815,815,815,815,815,815,815,815,815,815,816,817,817,817,817,817,817,817,817,817,817,817,817,817,817,818,819,819,819,819,820,836,853,914,962,1003,1058,1074,1085,1095,1102,1115],"ymouse":[599,599,599,599,599,599,599,599,599,599,599,599,599,599,599,599,599,599,599,599,599,599,599,599,599,599,599,599,599,599,599,599,599,599,599,599,599,599,597,593,590,587,586,586,586,586,586,586,586,586,586,586,586,585,582,581,580,580,579,577,557,534,449,381,306,206,173,147,125,105,66],"timestamp_mouse":[9,33,41,61,80,100,120,141,162,180,200,221,240,261,280,301,320,340,360,381,400,421,440,461,480,500,521,540,560,580,600,621,640,660,681,702,720,740,760,781,800,821,840,862,881,900,920,940,961,980,1001,1021,1040,1061,1080,1101,1120,1140,1160,1180,1200,1221,1240,1260,1280,1300,1320,1341,1360,1381,1400],"xSR":741.5,"ySR":573.95,"xT1":424.9,"yT1":0,"xT2":1058.1,"yT2":0,"toosoon":0,"cond_shown":"Incongruent","ratio_trial":300,"L_num":13,"L_den":26,"R_num":12,"R_den":15,"correct_side":2,"subjID":"AndresMauricioAcostaPerez22","gender":"0","school":"6","age":"11"},{"start_time":1551880670704,"click_time":1551880672354,"finger_time":1551880671993,"fix_duration":250,"trial":35,"RT":1289,"MT":361,"sideResp":2,"stimulus":[],"xmouse":[779,779,779,779,779,779,779,779,779,779,779,779,779,779,779,779,779,779,779,779,779,779,779,779,779,779,779,779,779,779,779,779,779,779,779,779,779,779,779,779,779,779,779,779,779,779,779,779,779,779,779,779,779,779,779,779,779,779,777,777,777,780,785,796,860,929,1009,1118,1160,1181,1182,1182,1182,1182,1182,1182,1182,1182,1182,1181,1175,1164,1151],"ymouse":[631,631,631,631,631,631,631,631,631,631,631,631,631,631,631,631,631,631,631,631,631,631,631,631,631,631,631,631,631,631,631,631,631,631,631,631,631,631,631,631,631,631,631,631,631,631,631,631,631,631,631,631,631,631,631,631,631,631,630,630,628,624,617,602,490,378,264,109,42,0,0,0,0,0,0,0,0,0,0,0,5,12,19],"timestamp_mouse":[9,38,49,69,89,110,129,149,170,190,209,230,250,270,289,309,329,349,369,389,409,430,450,469,489,509,529,549,570,589,610,630,649,669,689,710,729,749,769,789,809,831,849,870,889,909,929,950,969,989,1009,1030,1050,1069,1090,1109,1130,1149,1170,1189,1209,1229,1249,1269,1289,1309,1329,1350,1370,1389,1409,1429,1449,1469,1489,1509,1529,1550,1569,1589,1609,1629,1650],"xSR":741.5,"ySR":573.95,"xT1":424.9,"yT1":0,"xT2":1058.1,"yT2":0,"toosoon":0,"cond_shown":"Congruent","ratio_trial":100,"L_num":3,"L_den":20,"R_num":4,"R_den":16,"correct_side":2,"subjID":"AndresMauricioAcostaPerez22","gender":"0","school":"6","age":"11"},{"start_time":1551880674049,"click_time":1551880675313,"finger_time":1551880675174,"fix_duration":893.2602365118244,"trial":36,"RT":1125,"MT":139,"sideResp":2,"stimulus":[],"xmouse":[834,834,834,834,834,834,834,834,834,834,834,834,834,834,834,834,834,834,834,834,834,834,834,834,834,834,834,834,834,834,834,834,834,834,834,834,834,834,834,834,834,834,834,834,834,834,834,834,834,834,834,834,834,834,836,839,849,897,931,966,987,1018,1080,1102],"ymouse":[620,620,620,620,620,620,620,620,620,620,620,620,620,620,620,620,620,620,620,620,620,620,620,620,620,620,620,620,620,620,620,620,620,620,620,620,620,620,620,620,620,620,620,620,620,620,620,620,620,620,619,617,617,616,610,604,582,504,436,361,307,235,116,77],"timestamp_mouse":[9,24,44,65,85,105,125,145,164,185,204,224,244,264,284,306,324,345,364,384,404,424,446,464,485,504,524,544,565,584,605,624,645,664,685,704,724,745,765,785,804,824,845,864,884,906,924,944,965,984,1004,1025,1044,1065,1084,1105,1125,1144,1164,1185,1205,1224,1244,1264],"xSR":741.5,"ySR":573.95,"xT1":424.9,"yT1":0,"xT2":1058.1,"yT2":0,"toosoon":0,"cond_shown":"Congruent","ratio_trial":200,"L_num":3,"L_den":6,"R_num":14,"R_den":20,"correct_side":2,"subjID":"AndresMauricioAcostaPerez22","gender":"0","school":"6","age":"11"},{"start_time":1551880677107,"click_time":1551880678974,"finger_time":1551880678513,"fix_duration":932.1595472886655,"trial":37,"RT":1406,"MT":461,"sideResp":1,"stimulus":[],"xmouse":[769,769,769,769,769,769,769,769,769,769,770,771,771,771,772,772,772,772,772,772,772,772,772,772,772,772,772,772,772,772,772,772,772,772,772,772,772,772,772,772,772,772,772,772,772,772,772,772,772,772,772,772,772,772,772,772,772,772,772,772,772,772,772,772,772,772,772,772,772,773,773,769,754,724,658,605,594,572,564,555,552,546,540,537,536,536,536,536,536,536,536,533,530,524],"ymouse":[642,642,642,642,642,642,642,642,642,639,638,637,637,637,636,636,636,636,636,636,636,636,636,636,636,636,636,636,636,636,636,636,636,636,636,636,636,636,636,636,636,636,636,636,636,636,636,636,636,636,636,636,636,636,636,636,636,636,636,636,636,636,636,636,636,636,636,636,631,594,561,505,440,366,217,124,105,73,56,31,13,0,0,0,0,0,0,0,0,0,2,5,17,26],"timestamp_mouse":[11,39,47,67,86,106,127,147,166,186,206,226,246,266,286,307,326,347,367,387,407,426,447,466,486,506,527,546,566,586,606,626,647,666,686,706,727,748,767,786,807,827,846,866,886,906,927,946,966,986,1006,1026,1046,1066,1086,1108,1126,1147,1166,1186,1206,1226,1246,1267,1286,1307,1326,1346,1368,1387,1406,1427,1446,1468,1486,1507,1527,1547,1566,1586,1606,1626,1646,1666,1686,1707,1726,1747,1766,1786,1807,1827,1847,1867],"xSR":741.5,"ySR":573.95,"xT1":424.9,"yT1":0,"xT2":1058.1,"yT2":0,"toosoon":0,"cond_shown":"Congruent","ratio_trial":100,"L_num":9,"L_den":15,"R_num":8,"R_den":16,"correct_side":1,"subjID":"AndresMauricioAcostaPerez22","gender":"0","school":"6","age":"11"},{"start_time":1551880680694,"click_time":1551880682374,"finger_time":1551880681993,"fix_duration":618.9323245310786,"trial":38,"RT":1299,"MT":381,"sideResp":1,"stimulus":[],"xmouse":[805,805,805,805,805,805,805,805,805,803,802,802,802,802,802,802,801,801,801,801,801,801,801,801,801,801,801,801,801,801,801,801,801,801,801,801,801,801,801,801,801,801,801,801,801,801,801,801,801,801,801,801,801,801,801,801,801,801,801,801,801,801,801,801,801,798,780,757,724,685,623,614,600,591,587,571,565,564,564,564,563,556,545,532,506],"ymouse":[616,616,616,616,616,616,616,616,616,616,616,616,615,615,615,615,614,613,612,611,611,611,611,611,611,611,611,611,611,611,611,611,611,611,611,611,611,611,611,610,609,607,607,607,607,607,607,607,607,607,607,607,607,607,607,607,607,607,607,607,607,607,607,603,598,549,462,373,280,186,40,15,0,0,0,0,0,0,0,0,0,5,16,27,49],"timestamp_mouse":[2,34,39,59,80,99,119,139,159,180,199,219,240,260,280,300,320,339,359,380,399,420,439,459,479,499,520,540,559,579,599,619,639,659,679,701,720,739,759,779,800,819,839,860,879,899,919,940,959,981,1000,1019,1039,1060,1079,1100,1119,1139,1159,1179,1199,1220,1239,1260,1280,1299,1320,1340,1361,1379,1400,1419,1439,1459,1480,1499,1519,1539,1559,1580,1599,1620,1640,1659,1680],"xSR":741.5,"ySR":573.95,"xT1":424.9,"yT1":0,"xT2":1058.1,"yT2":0,"toosoon":0,"cond_shown":"Congruent","ratio_trial":100,"L_num":15,"L_den":25,"R_num":13,"R_den":26,"correct_side":1,"subjID":"AndresMauricioAcostaPerez22","gender":"0","school":"6","age":"11"},{"start_time":1551880683524,"click_time":1551880684933,"finger_time":1551880684833,"fix_duration":250,"trial":39,"RT":1309,"MT":100,"sideResp":2,"stimulus":[],"xmouse":[810,810,810,810,810,810,810,810,810,810,810,810,810,810,810,810,810,810,810,808,808,808,808,808,808,808,808,806,806,806,806,806,806,806,806,806,806,806,806,804,804,803,803,803,803,803,803,803,803,803,803,803,803,803,803,803,803,803,803,803,803,803,803,807,835,859,888,963,1007,1048,1082],"ymouse":[593,593,593,593,593,593,593,593,593,593,593,593,593,593,593,593,593,593,593,650,650,650,650,650,650,650,650,651,651,651,651,651,651,651,651,651,651,651,651,650,648,647,646,645,645,645,645,645,645,645,645,645,645,645,645,645,645,645,645,645,645,645,639,627,579,525,453,310,230,154,90],"timestamp_mouse":[15,40,50,69,90,110,129,149,171,189,209,229,250,269,289,311,329,349,369,389,409,429,449,470,489,509,530,549,569,589,609,629,649,670,689,709,730,751,771,790,809,829,849,870,889,909,929,949,970,989,1010,1029,1050,1070,1089,1109,1129,1149,1169,1189,1209,1229,1251,1269,1290,1309,1330,1350,1369,1390,1409],"xSR":741.5,"ySR":573.95,"xT1":424.9,"yT1":0,"xT2":1058.1,"yT2":0,"toosoon":0,"cond_shown":"Incongruent","ratio_trial":100,"L_num":10,"L_den":25,"R_num":8,"R_den":16,"correct_side":2,"subjID":"AndresMauricioAcostaPerez22","gender":"0","school":"6","age":"11"},{"start_time":1551880686535,"click_time":1551880687514,"finger_time":1551880687393,"fix_duration":979.9194614836302,"trial":40,"RT":858,"MT":121,"sideResp":2,"stimulus":[],"xmouse":[802,802,802,802,802,802,802,802,802,802,802,802,802,802,802,802,802,802,802,802,802,802,802,802,802,802,802,802,802,802,802,802,802,802,802,802,802,802,802,802,803,809,847,900,931,965,996,1048,1060],"ymouse":[613,613,613,613,613,613,613,613,613,613,613,613,613,613,613,613,613,613,613,613,613,613,613,613,613,613,613,613,613,613,613,613,613,613,613,613,613,613,613,613,609,601,543,406,328,250,170,49,17],"timestamp_mouse":[18,38,58,78,99,118,140,158,179,198,219,239,258,278,300,319,339,358,378,399,418,438,459,479,498,518,538,559,579,599,618,638,658,678,698,718,739,760,779,798,818,840,858,878,899,919,939,959,979],"xSR":741.5,"ySR":573.95,"xT1":424.9,"yT1":0,"xT2":1058.1,"yT2":0,"toosoon":0,"cond_shown":"Incongruent","ratio_trial":300,"L_num":8,"L_den":10,"R_num":9,"R_den":18,"correct_side":1,"subjID":"AndresMauricioAcostaPerez22","gender":"0","school":"6","age":"11"},{"start_time":1551880689310,"click_time":1551880690694,"finger_time":1551880690414,"fix_duration":1076.6142098120054,"trial":41,"RT":1104,"MT":280,"sideResp":2,"stimulus":[],"xmouse":[784,784,784,784,784,784,784,784,784,784,784,784,784,784,784,784,784,784,784,784,784,784,784,784,784,784,784,784,784,784,784,784,784,784,784,784,784,784,784,784,784,784,784,784,784,784,784,784,784,784,784,784,784,785,804,840,869,910,953,1008,1023,1033,1046,1056,1069,1072,1073,1073,1073,1073],"ymouse":[630,630,630,630,630,630,630,630,630,630,630,630,630,630,630,630,630,630,630,630,630,630,630,630,630,630,630,630,630,630,630,630,630,630,630,630,629,628,627,626,625,625,625,625,625,625,625,625,625,625,625,625,625,623,577,494,425,345,273,151,107,62,18,0,0,0,0,0,0,2],"timestamp_mouse":[16,38,43,64,83,104,124,143,164,183,203,224,243,264,283,303,323,344,365,383,403,423,443,463,484,504,523,543,564,583,603,623,644,664,684,705,723,744,763,784,803,825,844,863,884,903,923,943,963,985,1003,1023,1044,1064,1083,1104,1124,1144,1163,1184,1203,1224,1243,1264,1284,1303,1323,1344,1364,1384],"xSR":741.5,"ySR":573.95,"xT1":424.9,"yT1":0,"xT2":1058.1,"yT2":0,"toosoon":0,"cond_shown":"Congruent","ratio_trial":100,"L_num":6,"L_den":20,"R_num":5,"R_den":25,"correct_side":1,"subjID":"AndresMauricioAcostaPerez22","gender":"0","school":"6","age":"11"},{"start_time":1551880692905,"click_time":1551880694413,"finger_time":1551880693713,"fix_duration":1470.9808087550514,"trial":42,"RT":808,"MT":700,"sideResp":1,"stimulus":[],"xmouse":[779,779,779,779,780,780,780,780,780,780,780,780,781,781,781,781,781,781,781,781,781,781,781,781,781,781,781,781,781,781,781,781,781,781,781,786,790,797,803,827,845,865,884,912,919,920,920,920,920,920,919,912,900,881,847,827,821,817,817,816,816,816,816,816,816,816,815,812,806,770,738,695,646,610,539,503],"ymouse":[605,605,605,605,606,606,606,606,606,607,607,607,609,609,609,609,609,609,609,609,609,609,609,609,609,609,609,609,609,609,609,609,609,609,609,609,606,602,596,574,559,540,523,498,490,488,488,488,488,488,488,492,501,515,550,579,589,596,597,599,599,599,599,599,599,599,599,598,585,516,463,400,336,268,126,60],"timestamp_mouse":[10,35,49,68,88,109,129,148,168,189,208,229,248,268,289,310,328,349,369,388,408,429,448,469,488,508,529,548,568,588,608,629,648,669,689,708,729,748,769,789,808,829,848,869,889,908,928,948,969,988,1008,1029,1048,1068,1088,1108,1128,1148,1169,1189,1208,1228,1249,1269,1289,1310,1328,1348,1369,1388,1408,1429,1449,1468,1489,1508],"xSR":741.5,"ySR":573.95,"xT1":424.9,"yT1":0,"xT2":1058.1,"yT2":0,"toosoon":0,"cond_shown":"Incongruent","ratio_trial":300,"L_num":4,"L_den":20,"R_num":2,"R_den":4,"correct_side":2,"subjID":"AndresMauricioAcostaPerez22","gender":"0","school":"6","age":"11"},{"start_time":1551880696236,"click_time":1551880697633,"finger_time":1551880697514,"fix_duration":641.3374779082791,"trial":43,"RT":1278,"MT":119,"sideResp":1,"stimulus":[],"xmouse":[809,809,809,809,809,809,809,809,809,809,809,809,809,809,809,809,809,809,809,809,809,809,809,809,809,809,809,809,809,809,809,809,809,809,809,809,809,809,809,809,809,809,810,812,812,812,812,812,812,812,812,812,812,812,812,812,812,812,812,812,812,812,799,772,725,676,617,517,459,431],"ymouse":[650,650,650,650,650,650,650,650,650,650,650,650,650,650,650,650,650,650,650,650,650,650,650,650,650,650,650,650,650,650,650,650,650,650,650,650,650,650,650,650,650,650,646,635,630,627,626,626,626,626,626,626,626,626,626,626,626,626,626,626,626,625,601,557,487,423,346,223,129,79],"timestamp_mouse":[22,38,58,77,98,117,137,158,177,197,218,237,257,278,297,317,337,358,378,397,417,438,458,478,498,517,537,557,577,597,617,638,657,678,697,717,737,757,777,798,817,838,857,877,898,917,938,958,978,998,1017,1038,1058,1078,1098,1118,1138,1157,1177,1197,1218,1237,1258,1278,1297,1318,1338,1357,1377,1397],"xSR":741.5,"ySR":573.95,"xT1":424.9,"yT1":0,"xT2":1058.1,"yT2":0,"toosoon":0,"cond_shown":"Congruent","ratio_trial":100,"L_num":9,"L_den":15,"R_num":8,"R_den":16,"correct_side":1,"subjID":"AndresMauricioAcostaPerez22","gender":"0","school":"6","age":"11"},{"start_time":1551880700170,"click_time":1551880701533,"finger_time":1551880701373,"fix_duration":395.83540795690584,"trial":44,"RT":1203,"MT":160,"sideResp":1,"stimulus":[],"xmouse":[796,796,796,796,796,796,796,796,796,796,796,796,796,796,796,796,796,796,796,796,796,796,796,796,796,796,796,796,796,796,796,796,796,796,796,796,796,796,796,796,796,796,796,796,796,796,796,796,796,796,796,796,796,796,796,796,796,796,790,782,762,693,656,607,578,545,533,524,520],"ymouse":[652,652,652,652,652,652,652,652,652,652,652,652,652,652,652,652,652,652,652,652,652,652,652,652,652,652,652,652,652,652,652,652,652,652,652,652,652,652,652,652,652,652,652,652,652,652,652,652,652,652,652,652,652,652,652,652,652,652,632,612,563,431,360,270,210,137,119,102,92],"timestamp_mouse":[8,24,50,64,83,104,123,144,164,183,203,224,244,263,283,303,323,344,363,383,403,423,443,463,483,504,523,543,563,584,604,624,643,663,683,703,724,743,763,784,803,824,843,864,883,904,923,944,963,984,1003,1023,1043,1063,1084,1104,1123,1144,1164,1183,1203,1223,1244,1263,1283,1304,1323,1344,1363],"xSR":741.5,"ySR":573.95,"xT1":424.9,"yT1":0,"xT2":1058.1,"yT2":0,"toosoon":0,"cond_shown":"Congruent","ratio_trial":100,"L_num":3,"L_den":6,"R_num":2,"R_den":5,"correct_side":1,"subjID":"AndresMauricioAcostaPerez22","gender":"0","school":"6","age":"11"},{"start_time":1551880703260,"click_time":1551880704453,"finger_time":1551880704193,"fix_duration":1025.5350686746822,"trial":45,"RT":933,"MT":260,"sideResp":2,"stimulus":[],"xmouse":[776,776,776,776,776,776,776,776,776,776,776,776,776,776,776,776,776,776,776,776,776,776,776,776,776,776,776,776,776,776,776,776,776,776,776,776,776,776,776,776,776,776,776,776,777,781,842,855,900,933,959,993,1010,1019,1027,1034,1050,1055,1058,1059],"ymouse":[594,594,594,594,594,594,594,594,594,594,594,594,594,594,594,594,594,594,594,594,594,594,594,594,594,594,594,594,594,594,594,594,594,594,594,594,594,594,594,594,594,594,594,594,594,590,511,492,415,354,311,230,192,171,153,138,114,107,101,99],"timestamp_mouse":[14,36,54,73,93,113,133,153,173,193,213,234,254,273,293,313,334,354,373,393,415,434,453,474,493,513,533,554,573,595,613,633,653,674,695,713,733,753,773,793,813,833,853,874,893,913,933,954,973,993,1013,1033,1054,1074,1093,1113,1133,1154,1173,1193],"xSR":741.5,"ySR":573.95,"xT1":424.9,"yT1":0,"xT2":1058.1,"yT2":0,"toosoon":0,"cond_shown":"Incongruent","ratio_trial":100,"L_num":10,"L_den":25,"R_num":9,"R_den":18,"correct_side":2,"subjID":"AndresMauricioAcostaPerez22","gender":"0","school":"6","age":"11"},{"start_time":1551880706481,"click_time":1551880707953,"finger_time":1551880707573,"fix_duration":1265.995896837099,"trial":46,"RT":1092,"MT":380,"sideResp":2,"stimulus":[],"xmouse":[773,773,773,773,773,773,773,773,773,773,773,773,773,773,773,773,773,773,773,773,773,773,773,773,773,773,773,773,773,773,773,773,773,773,773,773,773,773,773,773,773,773,773,773,773,773,773,773,773,773,773,773,781,808,842,955,1048,1099,1138,1186,1194,1198,1203,1203,1203,1202,1201,1201,1201,1201,1191,1176,1159,1138],"ymouse":[616,616,616,616,616,616,616,616,616,616,616,616,616,616,616,616,616,616,616,616,616,616,616,616,616,616,616,616,616,616,616,616,616,616,616,616,616,616,616,616,616,616,616,616,616,616,616,616,616,616,616,616,611,596,577,491,396,320,246,111,72,26,0,0,0,0,0,0,0,0,6,18,30,49],"timestamp_mouse":[12,42,52,73,93,112,132,152,173,192,213,232,252,273,292,312,332,352,372,393,412,432,452,472,492,512,532,552,573,592,614,632,653,672,694,712,732,752,772,792,812,833,853,873,892,912,932,952,972,992,1013,1032,1052,1072,1092,1112,1132,1152,1173,1193,1212,1232,1253,1272,1293,1312,1332,1352,1373,1393,1413,1432,1453,1472],"xSR":741.5,"ySR":573.95,"xT1":424.9,"yT1":0,"xT2":1058.1,"yT2":0,"toosoon":0,"cond_shown":"Incongruent","ratio_trial":100,"L_num":3,"L_den":5,"R_num":8,"R_den":16,"correct_side":1,"subjID":"AndresMauricioAcostaPerez22","gender":"0","school":"6","age":"11"},{"start_time":1551880710142,"click_time":1551880711293,"finger_time":1551880711214,"fix_duration":1367.7368078945178,"trial":47,"RT":1072,"MT":79,"sideResp":2,"stimulus":[],"xmouse":[808,808,808,808,808,808,808,808,808,808,808,808,808,808,808,808,808,808,808,804,801,794,789,788,787,787,787,787,787,787,787,787,787,787,787,787,787,787,787,787,787,787,787,787,787,787,787,787,787,787,787,787,794,826,858,900,965,1158],"ymouse":[591,591,591,591,591,591,591,591,591,591,591,591,591,591,591,591,591,591,591,590,592,597,601,602,603,603,603,603,603,603,603,603,603,603,603,603,603,603,603,603,603,603,603,603,603,603,603,603,603,603,603,602,585,538,494,427,324,26],"timestamp_mouse":[12,39,51,72,92,111,131,152,171,191,212,231,251,271,291,312,333,352,371,392,411,433,451,471,491,512,532,552,571,592,612,631,652,671,692,712,732,752,771,791,811,831,851,872,892,911,932,951,972,991,1011,1031,1051,1072,1092,1111,1131,1151],"xSR":741.5,"ySR":573.95,"xT1":424.9,"yT1":0,"xT2":1058.1,"yT2":0,"toosoon":0,"cond_shown":"Congruent","ratio_trial":200,"L_num":3,"L_den":6,"R_num":14,"R_den":20,"correct_side":2,"subjID":"AndresMauricioAcostaPerez22","gender":"0","school":"6","age":"11"},{"start_time":1551880713632,"click_time":1551880715114,"finger_time":1551880714553,"fix_duration":1236.1492911732134,"trial":48,"RT":921,"MT":561,"sideResp":2,"stimulus":[],"xmouse":[814,814,814,814,814,814,814,814,814,814,814,814,814,814,814,814,814,814,814,814,814,814,814,814,814,814,814,814,814,814,814,814,814,814,814,814,814,814,814,814,814,814,814,814,815,822,870,1049,1152,1225,1288,1310,1320,1321,1321,1311,1275,1203,961,830,721,701,693,692,692,693,708,732,789,819,861,892,928,1008,1070],"ymouse":[622,622,622,622,622,622,622,622,622,622,622,622,622,622,622,622,622,622,622,622,622,622,622,622,622,622,622,622,622,622,622,622,622,622,622,622,622,622,622,622,622,622,622,622,617,604,538,281,143,17,0,0,0,0,0,35,119,242,471,539,588,602,605,606,603,588,529,453,328,284,231,195,153,61,12],"timestamp_mouse":[8,22,41,62,82,101,121,141,162,181,202,222,241,262,281,302,321,342,362,381,403,421,442,461,481,501,522,541,563,581,602,621,641,661,681,701,721,742,761,782,801,822,841,863,881,902,921,942,961,981,1002,1022,1042,1063,1081,1101,1121,1143,1162,1182,1201,1221,1241,1261,1281,1302,1322,1341,1361,1381,1402,1421,1442,1461,1482],"xSR":741.5,"ySR":573.95,"xT1":424.9,"yT1":0,"xT2":1058.1,"yT2":0,"toosoon":0,"cond_shown":"Incongruent","ratio_trial":300,"L_num":4,"L_den":5,"R_num":6,"R_den":12,"correct_side":1,"subjID":"AndresMauricioAcostaPerez22","gender":"0","school":"6","age":"11"},{"start_time":1551880719921,"click_time":1551880721292,"finger_time":1551880721072,"fix_duration":606.1690231282702,"trial":49,"RT":1151,"MT":220,"sideResp":1,"stimulus":[],"xmouse":[798,798,798,798,798,798,798,798,798,798,798,798,798,798,798,798,798,798,798,798,798,798,798,798,798,798,798,798,798,798,798,798,798,798,798,798,798,798,798,798,798,798,798,798,798,798,798,798,798,798,798,798,798,798,798,798,798,796,763,734,681,616,545,431,420,418,417,417,434],"ymouse":[645,645,645,645,645,645,645,645,645,645,645,645,645,645,645,645,645,645,645,645,645,645,645,645,645,645,645,645,645,645,645,645,645,645,645,645,645,645,645,645,645,645,645,645,645,645,645,645,645,645,645,645,645,635,630,619,600,566,403,283,115,0,0,0,0,0,0,0,28],"timestamp_mouse":[11,38,51,72,92,111,132,151,172,191,213,232,252,272,293,311,332,352,372,393,412,432,452,472,492,512,531,552,573,592,611,631,652,672,691,711,731,751,772,791,811,833,852,872,893,911,932,953,971,992,1012,1031,1051,1072,1092,1112,1131,1151,1171,1192,1212,1232,1251,1272,1291,1311,1332,1352,1371],"xSR":741.5,"ySR":573.95,"xT1":424.9,"yT1":0,"xT2":1058.1,"yT2":0,"toosoon":0,"cond_shown":"Congruent","ratio_trial":300,"L_num":11,"L_den":22,"R_num":2,"R_den":10,"correct_side":1,"subjID":"AndresMauricioAcostaPerez22","gender":"0","school":"6","age":"11"},{"start_time":1551880722238,"click_time":1551880724073,"finger_time":1551880722994,"fix_duration":265.09299892519186,"trial":50,"RT":756,"MT":1079,"sideResp":2,"stimulus":[],"xmouse":[806,806,806,806,806,806,806,806,806,806,806,806,806,806,806,806,806,806,806,806,806,806,806,806,806,806,806,806,806,806,806,806,806,806,806,807,812,864,945,1086,1148,1188,1242,1258,1277,1290,1308,1309,1309,1302,1272,1225,1125,1078,1057,1048,1047,1045,1039,1028,1012,986,926,892,873,865,863,865,896,936,999,1093,1290,1399,1481,1501,1501,1494,1456,1382,1296,1213,1073,1024,984,951,936,941,952,999,1053,1125],"ymouse":[648,648,648,648,648,648,648,648,648,648,648,648,648,648,648,648,648,648,648,648,648,648,648,646,646,646,646,646,646,646,646,646,646,646,646,643,637,584,509,351,262,190,63,4,0,0,0,0,0,0,17,51,149,197,217,225,227,231,244,265,294,339,422,466,488,500,503,503,438,357,252,117,0,0,0,0,0,3,34,91,163,232,355,399,435,463,473,443,408,284,190,82],"timestamp_mouse":[15,34,68,74,94,114,135,155,175,194,215,235,255,276,294,314,334,354,374,394,414,435,456,474,495,514,536,555,574,595,614,635,654,675,695,714,735,756,775,796,815,834,856,876,895,916,936,954,974,994,1014,1034,1054,1075,1095,1115,1135,1155,1174,1194,1215,1234,1255,1274,1294,1316,1335,1354,1375,1396,1415,1435,1456,1474,1495,1516,1535,1555,1575,1594,1615,1634,1654,1674,1694,1714,1736,1755,1774,1795,1816,1835],"xSR":741.5,"ySR":573.95,"xT1":424.9,"yT1":0,"xT2":1058.1,"yT2":0,"toosoon":0,"cond_shown":"Congruent","ratio_trial":200,"L_num":7,"L_den":15,"R_num":18,"R_den":27,"correct_side":2,"subjID":"AndresMauricioAcostaPerez22","gender":"0","school":"6","age":"11"},{"start_time":1551880725304,"click_time":1551880726793,"finger_time":1551880726674,"fix_duration":250,"trial":51,"RT":1370,"MT":119,"sideResp":2,"stimulus":[],"xmouse":[758,758,758,758,758,758,758,758,758,758,758,758,758,758,758,758,758,758,758,758,758,758,758,758,758,758,758,758,758,758,757,757,756,756,756,756,756,756,756,756,756,756,756,756,756,756,756,756,756,756,756,756,756,756,756,756,756,756,756,756,756,756,756,756,756,756,763,780,848,901,956,1005,1048,1072,1085],"ymouse":[653,653,653,653,653,653,653,653,653,653,653,653,653,653,653,653,653,653,653,653,653,653,653,653,653,653,653,653,653,648,640,638,636,634,634,634,634,634,634,634,634,634,634,634,634,634,634,634,634,634,634,634,634,634,634,634,634,634,634,634,634,634,634,634,634,630,615,590,487,423,337,249,172,132,79],"timestamp_mouse":[10,37,49,68,89,109,130,149,170,188,210,229,248,270,289,308,330,348,368,388,410,429,448,468,489,509,528,549,568,589,609,629,649,668,689,709,728,748,769,788,809,828,849,868,890,908,930,948,969,989,1008,1030,1048,1068,1089,1109,1128,1149,1170,1189,1210,1229,1249,1268,1288,1309,1329,1349,1370,1388,1409,1430,1448,1468,1489],"xSR":741.5,"ySR":573.95,"xT1":424.9,"yT1":0,"xT2":1058.1,"yT2":0,"toosoon":0,"cond_shown":"Incongruent","ratio_trial":200,"L_num":4,"L_den":5,"R_num":6,"R_den":10,"correct_side":1,"subjID":"AndresMauricioAcostaPerez22","gender":"0","school":"6","age":"11"},{"start_time":1551880731178,"click_time":1551880732292,"finger_time":1551880732152,"fix_duration":1425.0590538942115,"trial":52,"RT":974,"MT":140,"sideResp":2,"stimulus":[],"xmouse":[798,798,798,798,798,798,798,798,798,798,798,798,798,798,798,798,798,798,798,798,798,798,798,798,798,798,798,798,798,798,802,808,820,826,827,827,827,827,827,827,827,827,827,827,827,827,827,827,831,831,923,960,1003,1028,1067,1084],"ymouse":[624,624,624,624,624,624,624,624,624,624,624,624,624,624,624,624,624,624,624,624,624,624,624,624,624,624,624,624,624,624,617,609,593,582,577,577,577,577,577,577,577,577,577,577,577,577,577,577,572,572,448,386,300,238,115,56],"timestamp_mouse":[14,34,55,75,95,116,135,154,174,194,214,234,254,274,294,315,334,354,375,394,415,435,454,474,495,515,534,554,574,594,614,634,654,676,694,714,735,754,775,794,814,835,854,875,895,915,934,955,974,994,1014,1034,1054,1076,1096,1114],"xSR":741.5,"ySR":573.95,"xT1":424.9,"yT1":0,"xT2":1058.1,"yT2":0,"toosoon":0,"cond_shown":"Incongruent","ratio_trial":200,"L_num":1,"L_den":2,"R_num":3,"R_den":10,"correct_side":1,"subjID":"AndresMauricioAcostaPerez22","gender":"0","school":"6","age":"11"},{"start_time":1551880734169,"click_time":1551880735453,"finger_time":1551880734993,"fix_duration":1076.313506844586,"trial":53,"RT":824,"MT":460,"sideResp":1,"stimulus":[],"xmouse":[813,813,813,813,813,813,814,815,815,815,815,815,815,815,815,812,811,811,810,810,810,810,810,810,810,810,810,810,810,810,810,810,810,810,810,810,810,810,810,810,808,794,787,779,778,778,776,771,763,747,720,656,645,614,596,577,539,517,507,506,506,506,506,506,506],"ymouse":[603,603,603,602,600,589,580,579,579,579,579,579,579,579,581,584,588,589,589,590,590,590,590,590,590,590,590,590,590,590,590,590,590,590,590,590,590,590,590,590,