[{"start_time":1551881111039,"click_time":1551881112014,"finger_time":1551881111053,"fix_duration":922.0521754115803,"trial":0,"RT":14,"MT":961,"sideResp":2,"stimulus":"img/900/equaldotsize/R/14_Ratio_900_L_18_R_20.png","xmouse":[813,813,813,813,813,813,813,813,813,813,813,813,813,813,813,813,813,813,813,813,813,813,813,813,813,813,813,813,813,813,821,850,862,870,876,882,898,930,945,956,963,968,985,995,1008,1028,1056,1064,1069],"ymouse":[523,523,523,523,523,523,523,523,523,523,523,523,523,523,523,523,523,523,523,523,523,523,523,523,523,523,523,523,523,523,510,466,448,434,418,399,363,290,252,222,207,194,166,155,145,132,107,100,93],"timestamp_mouse":[14,34,54,74,95,116,135,154,174,196,216,236,255,275,295,315,335,355,375,395,416,435,454,474,495,515,535,554,574,594,614,635,654,675,694,714,734,756,776,796,814,835,855,875,894,915,935,954,975],"xSR":741.5,"ySR":469.95,"xT1":424.9,"yT1":0,"xT2":1058.1,"yT2":0,"toosoon":0,"cond_shown":"equaldotsize","ratio_trial":900,"smaller_num":"18","larger_num":"20","correct_side":2,"subjID":"AndresMauricioAcostaPerez22","gender":"0","age":"11","school":"6","test":{"fix_dur":[250,1500],"timestim":300,"targets_dim":[100,100],"targets_relative_coord":[0.3,0.7],"size_stim":[880,420],"start_dim":[100,100],"size_start":[300,300],"size_fix":60,"samplingrate":20,"img_types":["equaldotsize","equaldotanddens","randomdotsizeEA"],"ratios":[250,500,750,900],"rep_conds":9,"nTrials":120,"trials_to_rest":500,"Trials_order":[21,103,41,25,97,2,9,117,114,15,98,119,72,3,79,32,40,84,78,60,104,95,28,75,13,58,14,89,73,88,67,99,33,18,110,96,7,38,30,26,113,94,11,64,116,70,69,100,49,65,35,20,62,111,24,90,115,37,27,77,76,6,61,108,1,105,48,71,44,5,22,36,59,31,51,92,66,118,54,106,87,45,102,57,82,16,50,52,83,34,81,8,63,43,101,23,112,0,4,39,74,53,93,17,29,107,12,68,47,10,86,80,19,91,109,56,85,42,46,55],"cond_shown":["equaldotsize","equaldotanddens","randomdotsizeEA","equaldotanddens","equaldotanddens","randomdotsizeEA","equaldotsize","equaldotsize","equaldotsize","equaldotsize","randomdotsizeEA","randomdotsizeEA","equaldotsize","equaldotsize","equaldotanddens","randomdotsizeEA","equaldotanddens","equaldotsize","equaldotsize","equaldotsize","randomdotsizeEA","randomdotsizeEA","equaldotanddens","equaldotsize","equaldotanddens","equaldotanddens","randomdotsizeEA","randomdotsizeEA","equaldotanddens","equaldotanddens","equaldotanddens","equaldotsize","equaldotsize","equaldotsize","randomdotsizeEA","equaldotsize","equaldotanddens","randomdotsizeEA","equaldotsize","randomdotsizeEA","randomdotsizeEA","equaldotanddens","randomdotsizeEA","equaldotanddens","randomdotsizeEA","equaldotanddens","equaldotsize","equaldotanddens","equaldotanddens","randomdotsizeEA","randomdotsizeEA","randomdotsizeEA","randomdotsizeEA","equaldotsize","equaldotsize","equaldotsize","equaldotanddens","equaldotanddens","equaldotsize","randomdotsizeEA","equaldotanddens","equaldotsize","equaldotanddens","equaldotsize","equaldotanddens","equaldotsize","equaldotsize","randomdotsizeEA","randomdotsizeEA","randomdotsizeEA","equaldotanddens","equaldotsize","randomdotsizeEA","equaldotanddens","equaldotsize","randomdotsizeEA","equaldotsize","equaldotanddens","equaldotsize","equaldotanddens","equaldotsize","equaldotsize","equaldotsize","equaldotsize","equaldotanddens","equaldotanddens","randomdotsizeEA","equaldotanddens","randomdotsizeEA","equaldotanddens","equaldotsize","randomdotsizeEA","equaldotsize","equaldotanddens","randomdotsizeEA","randomdotsizeEA","equaldotanddens","equaldotsize","equaldotanddens","equaldotsize","randomdotsizeEA","randomdotsizeEA","equaldotsize","randomdotsizeEA","randomdotsizeEA","randomdotsizeEA","equaldotsize","randomdotsizeEA","randomdotsizeEA","equaldotanddens","randomdotsizeEA","randomdotsizeEA","equaldotanddens","equaldotanddens","equaldotanddens","randomdotsizeEA","equaldotanddens","equaldotsize","equaldotanddens","equaldotanddens"],"ratio_trial":[900,750,500,250,250,250,900,900,750,500,250,900,250,500,750,750,500,250,750,250,750,900,500,500,250,900,250,500,250,500,750,500,900,750,250,250,750,250,750,250,500,900,900,500,750,900,900,500,250,500,900,750,250,500,250,750,750,250,500,500,500,750,250,250,250,900,250,900,750,500,900,250,900,750,500,750,750,900,750,900,500,900,750,900,900,500,250,500,900,900,900,750,500,750,500,900,500,250,500,500,250,500,900,500,500,900,250,750,900,900,250,750,750,750,250,750,250,750,900,750],"smaller_num":["18","3","3","2","2","2","9","18","3","9","6","18","3","2","3","6","9","3","6","3","3","18","5","6","3","18","6","6","5","10","3","2","18","18","4","6","18","6","15","2","3","18","18","2","9","18","18","5","4","4","18","3","4","6","3","12","6","5","6","9","5","3","2","5","3","18","4","18","3","2","18","4","18","15","9","3","18","9","3","9","9","9","15","18","18","1","3","3","9","9","18","15","2","6","4","9","3","3","9","5","3","10","18","9","2","18","3","3","18","18","3","15","15","3","2","12","2","3","18","3"],"larger_num":["20","4","6","8","8","8","10","20","4","18","24","20","12","4","4","8","18","12","8","12","4","20","10","12","12","20","24","12","20","20","4","4","20","24","16","24","24","24","20","8","6","20","20","4","12","20","20","10","16","8","20","4","16","12","12","16","8","20","12","18","10","4","8","20","12","20","16","20","4","4","20","16","20","20","18","4","24","10","4","10","18","10","20","20","20","2","12","6","10","10","20","20","4","8","8","10","6","12","18","10","12","20","20","18","4","20","12","4","20","20","12","20","20","4","8","16","8","4","20","4"],"correct_side":[2,1,2,1,1,1,2,1,1,2,1,1,2,1,2,1,1,2,2,2,2,1,2,1,2,2,1,1,2,2,2,2,2,1,2,1,1,1,2,1,2,1,2,2,2,1,2,2,1,1,2,1,1,1,1,2,1,2,1,1,2,1,1,2,2,2,2,1,2,1,1,1,1,2,1,1,1,2,1,2,2,2,2,1,1,2,2,2,2,1,1,1,1,1,1,2,2,2,1,1,1,2,1,2,1,1,2,1,1,2,1,2,2,1,1,2,1,1,2,1],"img_shown":["img/900/equaldotsize/R/14_Ratio_900_L_18_R_20.png","img/750/equaldotanddens/L/9_Ratio_750_L_4_R_3.png","img/500/randomdotsizeEA/R/2_Ratio_500_L_3_R_6.png","img/250/equaldotanddens/L/7_Ratio_250_L_8_R_2.png","img/250/equaldotanddens/L/7_Ratio_250_L_8_R_2.png","img/250/randomdotsizeEA/L/3_Ratio_250_L_8_R_2.png","img/900/equaldotsize/R/7_Ratio_900_L_9_R_10.png","img/900/equaldotsize/L/4_Ratio_900_L_20_R_18.png","img/750/equaldotsize/L/9_Ratio_750_L_4_R_3.png","img/500/equaldotsize/R/6_Ratio_500_L_9_R_18.png","img/250/randomdotsizeEA/L/5_Ratio_250_L_24_R_6.png","img/900/randomdotsizeEA/L/4_Ratio_900_L_20_R_18.png","img/250/equaldotsize/R/11_Ratio_250_L_3_R_12.png","img/500/equaldotsize/L/10_Ratio_500_L_4_R_2.png","img/750/equaldotanddens/R/7_Ratio_750_L_3_R_4.png","img/750/randomdotsizeEA/L/13_Ratio_750_L_8_R_6.png","img/500/equaldotanddens/L/4_Ratio_500_L_18_R_9.png","img/250/equaldotsize/R/11_Ratio_250_L_3_R_12.png","img/750/equaldotsize/R/2_Ratio_750_L_6_R_8.png","img/250/equaldotsize/R/4_Ratio_250_L_3_R_12.png","img/750/randomdotsizeEA/R/7_Ratio_750_L_3_R_4.png","img/900/randomdotsizeEA/L/10_Ratio_900_L_20_R_18.png","img/500/equaldotanddens/R/14_Ratio_500_L_5_R_10.png","img/500/equaldotsize/L/11_Ratio_500_L_12_R_6.png","img/250/equaldotanddens/R/4_Ratio_250_L_3_R_12.png","img/900/equaldotanddens/R/14_Ratio_900_L_18_R_20.png","img/250/randomdotsizeEA/L/5_Ratio_250_L_24_R_6.png","img/500/randomdotsizeEA/L/11_Ratio_500_L_12_R_6.png","img/250/equaldotanddens/R/12_Ratio_250_L_5_R_20.png","img/500/equaldotanddens/R/3_Ratio_500_L_10_R_20.png","img/750/equaldotanddens/R/12_Ratio_750_L_3_R_4.png","img/500/equaldotsize/R/9_Ratio_500_L_2_R_4.png","img/900/equaldotsize/R/9_Ratio_900_L_18_R_20.png","img/750/equaldotsize/L/6_Ratio_750_L_24_R_18.png","img/250/randomdotsizeEA/R/10_Ratio_250_L_4_R_16.png","img/250/equaldotsize/L/5_Ratio_250_L_24_R_6.png","img/750/equaldotanddens/L/6_Ratio_750_L_24_R_18.png","img/250/randomdotsizeEA/L/5_Ratio_250_L_24_R_6.png","img/750/equaldotsize/R/5_Ratio_750_L_15_R_20.png","img/250/randomdotsizeEA/L/7_Ratio_250_L_8_R_2.png","img/500/randomdotsizeEA/R/2_Ratio_500_L_3_R_6.png","img/900/equaldotanddens/L/2_Ratio_900_L_20_R_18.png","img/900/randomdotsizeEA/R/13_Ratio_900_L_18_R_20.png","img/500/equaldotanddens/R/9_Ratio_500_L_2_R_4.png","img/750/randomdotsizeEA/R/15_Ratio_750_L_9_R_12.png","img/900/equaldotanddens/L/4_Ratio_900_L_20_R_18.png","img/900/equaldotsize/R/12_Ratio_900_L_18_R_20.png","img/500/equaldotanddens/R/14_Ratio_500_L_5_R_10.png","img/250/equaldotanddens/L/2_Ratio_250_L_16_R_4.png","img/500/randomdotsizeEA/L/8_Ratio_500_L_8_R_4.png","img/900/randomdotsizeEA/R/9_Ratio_900_L_18_R_20.png","img/750/randomdotsizeEA/L/10_Ratio_750_L_4_R_3.png","img/250/randomdotsizeEA/L/2_Ratio_250_L_16_R_4.png","img/500/equaldotsize/L/13_Ratio_500_L_12_R_6.png","img/250/equaldotsize/L/14_Ratio_250_L_12_R_3.png","img/750/equaldotsize/R/11_Ratio_750_L_12_R_16.png","img/750/equaldotanddens/L/13_Ratio_750_L_8_R_6.png","img/250/equaldotanddens/R/12_Ratio_250_L_5_R_20.png","img/500/equaldotsize/L/13_Ratio_500_L_12_R_6.png","img/500/randomdotsizeEA/L/4_Ratio_500_L_18_R_9.png","img/500/equaldotanddens/R/14_Ratio_500_L_5_R_10.png","img/750/equaldotsize/L/9_Ratio_750_L_4_R_3.png","img/250/equaldotanddens/L/3_Ratio_250_L_8_R_2.png","img/250/equaldotsize/R/12_Ratio_250_L_5_R_20.png","img/250/equaldotanddens/R/11_Ratio_250_L_3_R_12.png","img/900/equaldotsize/R/12_Ratio_900_L_18_R_20.png","img/250/equaldotsize/R/10_Ratio_250_L_4_R_16.png","img/900/randomdotsizeEA/L/10_Ratio_900_L_20_R_18.png","img/750/randomdotsizeEA/R/12_Ratio_750_L_3_R_4.png","img/500/randomdotsizeEA/L/5_Ratio_500_L_4_R_2.png","img/900/equaldotanddens/L/10_Ratio_900_L_20_R_18.png","img/250/equaldotsize/L/2_Ratio_250_L_16_R_4.png","img/900/randomdotsizeEA/L/10_Ratio_900_L_20_R_18.png","img/750/equaldotanddens/R/4_Ratio_750_L_15_R_20.png","img/500/equaldotsize/L/4_Ratio_500_L_18_R_9.png","img/750/randomdotsizeEA/L/10_Ratio_750_L_4_R_3.png","img/750/equaldotsize/L/6_Ratio_750_L_24_R_18.png","img/900/equaldotanddens/R/5_Ratio_900_L_9_R_10.png","img/750/equaldotsize/L/9_Ratio_750_L_4_R_3.png","img/900/equaldotanddens/R/3_Ratio_900_L_9_R_10.png","img/500/equaldotsize/R/6_Ratio_500_L_9_R_18.png","img/900/equaldotsize/R/7_Ratio_900_L_9_R_10.png","img/750/equaldotsize/R/3_Ratio_750_L_15_R_20.png","img/900/equaldotsize/L/4_Ratio_900_L_20_R_18.png","img/900/equaldotanddens/L/2_Ratio_900_L_20_R_18.png","img/500/equaldotanddens/R/12_Ratio_500_L_1_R_2.png","img/250/randomdotsizeEA/R/11_Ratio_250_L_3_R_12.png","img/500/equaldotanddens/R/2_Ratio_500_L_3_R_6.png","img/900/randomdotsizeEA/R/3_Ratio_900_L_9_R_10.png","img/900/equaldotanddens/L/1_Ratio_900_L_10_R_9.png","img/900/equaldotsize/L/10_Ratio_900_L_20_R_18.png","img/750/randomdotsizeEA/L/1_Ratio_750_L_20_R_15.png","img/500/equaldotsize/L/5_Ratio_500_L_4_R_2.png","img/750/equaldotanddens/L/13_Ratio_750_L_8_R_6.png","img/500/randomdotsizeEA/L/8_Ratio_500_L_8_R_4.png","img/900/randomdotsizeEA/R/7_Ratio_900_L_9_R_10.png","img/500/equaldotanddens/R/2_Ratio_500_L_3_R_6.png","img/250/equaldotsize/R/9_Ratio_250_L_3_R_12.png","img/500/equaldotanddens/L/4_Ratio_500_L_18_R_9.png","img/500/equaldotsize/L/7_Ratio_500_L_10_R_5.png","img/250/randomdotsizeEA/L/14_Ratio_250_L_12_R_3.png","img/500/randomdotsizeEA/R/3_Ratio_500_L_10_R_20.png","img/900/equaldotsize/L/10_Ratio_900_L_20_R_18.png","img/500/randomdotsizeEA/R/1_Ratio_500_L_9_R_18.png","img/500/randomdotsizeEA/L/5_Ratio_500_L_4_R_2.png","img/900/randomdotsizeEA/L/4_Ratio_900_L_20_R_18.png","img/250/equaldotsize/R/9_Ratio_250_L_3_R_12.png","img/750/randomdotsizeEA/L/8_Ratio_750_L_4_R_3.png","img/900/randomdotsizeEA/L/2_Ratio_900_L_20_R_18.png","img/900/equaldotanddens/R/11_Ratio_900_L_18_R_20.png","img/250/randomdotsizeEA/L/14_Ratio_250_L_12_R_3.png","img/750/randomdotsizeEA/R/4_Ratio_750_L_15_R_20.png","img/750/equaldotanddens/R/3_Ratio_750_L_15_R_20.png","img/750/equaldotanddens/L/9_Ratio_750_L_4_R_3.png","img/250/equaldotanddens/L/3_Ratio_250_L_8_R_2.png","img/750/randomdotsizeEA/R/11_Ratio_750_L_12_R_16.png","img/250/equaldotanddens/L/3_Ratio_250_L_8_R_2.png","img/750/equaldotsize/L/10_Ratio_750_L_4_R_3.png","img/900/equaldotanddens/R/11_Ratio_900_L_18_R_20.png","img/750/equaldotanddens/L/10_Ratio_750_L_4_R_3.png"],"Rat0":[["12_Ratio_0_L_9_R_0.png","13_Ratio_0_L_6_R_0.png","5_Ratio_0_L_2_R_0.png","6_Ratio_0_L_4_R_0.png","8_Ratio_0_L_6_R_0.png"],["1_Ratio_0_L_0_R_17.png","10_Ratio_0_L_0_R_22.png","11_Ratio_0_L_0_R_1.png","14_Ratio_0_L_0_R_24.png","15_Ratio_0_L_0_R_4.png","2_Ratio_0_L_0_R_5.png","3_Ratio_0_L_0_R_17.png","4_Ratio_0_L_0_R_7.png","7_Ratio_0_L_0_R_19.png","9_Ratio_0_L_0_R_15.png"]],"Rat250":[["1_Ratio_250_L_8_R_2.png","14_Ratio_250_L_12_R_3.png","15_Ratio_250_L_12_R_3.png","2_Ratio_250_L_16_R_4.png","3_Ratio_250_L_8_R_2.png","5_Ratio_250_L_24_R_6.png","7_Ratio_250_L_8_R_2.png"],["10_Ratio_250_L_4_R_16.png","11_Ratio_250_L_3_R_12.png","12_Ratio_250_L_5_R_20.png","13_Ratio_250_L_2_R_8.png","4_Ratio_250_L_3_R_12.png","6_Ratio_250_L_6_R_24.png","8_Ratio_250_L_1_R_4.png","9_Ratio_250_L_3_R_12.png"]],"Rat500":[["10_Ratio_500_L_4_R_2.png","11_Ratio_500_L_12_R_6.png","13_Ratio_500_L_12_R_6.png","4_Ratio_500_L_18_R_9.png","5_Ratio_500_L_4_R_2.png","7_Ratio_500_L_10_R_5.png","8_Ratio_500_L_8_R_4.png"],["1_Ratio_500_L_9_R_18.png","12_Ratio_500_L_1_R_2.png","14_Ratio_500_L_5_R_10.png","15_Ratio_500_L_1_R_2.png","2_Ratio_500_L_3_R_6.png","3_Ratio_500_L_10_R_20.png","6_Ratio_500_L_9_R_18.png","9_Ratio_500_L_2_R_4.png"]],"Rat750":[["1_Ratio_750_L_20_R_15.png","10_Ratio_750_L_4_R_3.png","13_Ratio_750_L_8_R_6.png","14_Ratio_750_L_8_R_6.png","6_Ratio_750_L_24_R_18.png","8_Ratio_750_L_4_R_3.png","9_Ratio_750_L_4_R_3.png"],["11_Ratio_750_L_12_R_16.png","12_Ratio_750_L_3_R_4.png","15_Ratio_750_L_9_R_12.png","2_Ratio_750_L_6_R_8.png","3_Ratio_750_L_15_R_20.png","4_Ratio_750_L_15_R_20.png","5_Ratio_750_L_15_R_20.png","7_Ratio_750_L_3_R_4.png"]],"Rat900":[["1_Ratio_900_L_10_R_9.png","10_Ratio_900_L_20_R_18.png","2_Ratio_900_L_20_R_18.png","4_Ratio_900_L_20_R_18.png","8_Ratio_900_L_20_R_18.png"],["11_Ratio_900_L_18_R_20.png","12_Ratio_900_L_18_R_20.png","13_Ratio_900_L_18_R_20.png","14_Ratio_900_L_18_R_20.png","15_Ratio_900_L_9_R_10.png","3_Ratio_900_L_9_R_10.png","5_Ratio_900_L_9_R_10.png","6_Ratio_900_L_9_R_10.png","7_Ratio_900_L_9_R_10.png","9_Ratio_900_L_18_R_20.png"]],"Rat1000":[["10_Ratio_1000_L_16_R_16.png","11_Ratio_1000_L_6_R_6.png","12_Ratio_1000_L_14_R_14.png","13_Ratio_1000_L_20_R_20.png","15_Ratio_1000_L_15_R_15.png","2_Ratio_1000_L_17_R_17.png","4_Ratio_1000_L_9_R_9.png","5_Ratio_1000_L_6_R_6.png","6_Ratio_1000_L_19_R_19.png","8_Ratio_1000_L_14_R_14.png","9_Ratio_1000_L_25_R_25.png"],["1_Ratio_1000_L_1_R_1.png","14_Ratio_1000_L_17_R_17.png","3_Ratio_1000_L_17_R_17.png","7_Ratio_1000_L_6_R_6.png"]]}},{"start_time":1551881113186,"click_time":1551881115394,"finger_time":1551881115095,"fix_duration":410.0115826823571,"trial":1,"RT":1909,"MT":299,"sideResp":1,"stimulus":"img/750/equaldotanddens/L/9_Ratio_750_L_4_R_3.png","xmouse":[783,783,783,783,783,783,783,783,783,783,783,783,783,783,783,783,783,783,783,783,783,783,783,783,783,783,783,783,783,783,783,783,783,783,783,783,783,783,783,783,783,783,783,783,783,783,783,783,783,783,783,783,783,783,783,783,783,783,783,783,783,783,783,783,783,783,783,783,783,783,783,783,783,783,783,783,783,783,783,783,783,783,783,783,783,783,783,783,783,783,783,783,783,783,781,770,746,706,656,615,581,573,565,565,565,564,563,561,556,547,518],"ymouse":[630,630,630,630,630,630,630,630,630,630,630,630,630,630,630,630,630,630,630,630,630,630,630,630,630,630,630,630,630,630,630,630,630,630,630,630,630,630,630,630,630,630,630,630,630,630,630,630,630,630,630,630,630,630,630,630,630,630,630,630,630,630,630,630,630,630,630,630,630,630,630,630,630,630,630,630,630,630,630,630,630,630,630,630,630,630,630,630,630,630,630,630,630,630,597,544,483,413,342,280,214,193,176,174,174,174,172,167,157,131,71],"timestamp_mouse":[8,45,48,69,88,108,127,148,167,187,208,227,248,267,289,307,329,347,368,387,408,427,447,468,487,509,527,549,567,589,607,627,648,667,687,709,729,747,768,787,808,828,849,867,888,908,928,949,968,987,1007,1027,1049,1067,1088,1107,1127,1148,1167,1187,1209,1229,1247,1269,1287,1307,1329,1349,1367,1389,1407,1429,1448,1467,1489,1507,1527,1548,1567,1588,1607,1629,1649,1668,1689,1708,1729,1748,1767,1788,1808,1827,1847,1868,1888,1909,1928,1949,1968,1987,2007,2027,2047,2068,2087,2108,2128,2147,2168,2187,2207],"xSR":741.5,"ySR":573.95,"xT1":424.9,"yT1":0,"xT2":1058.1,"yT2":0,"toosoon":0,"cond_shown":"equaldotanddens","ratio_trial":750,"smaller_num":"3","larger_num":"4","correct_side":1,"subjID":"AndresMauricioAcostaPerez22","gender":"0","age":"11","school":"6"},{"start_time":1551881117845,"click_time":1551881119393,"finger_time":1551881119294,"fix_duration":250,"trial":2,"RT":1449,"MT":99,"sideResp":2,"stimulus":"img/500/randomdotsizeEA/R/2_Ratio_500_L_3_R_6.png","xmouse":[773,773,773,773,773,773,773,773,773,773,773,773,773,773,773,773,773,773,773,773,773,773,773,773,773,773,773,773,773,773,773,773,773,773,773,773,773,773,773,773,773,773,773,773,773,773,773,773,773,773,773,773,773,773,773,773,773,773,773,773,773,773,773,773,773,773,773,773,773,774,778,803,909,976,1030,1074,1106,1134],"ymouse":[653,653,653,653,653,653,651,650,650,649,649,649,649,649,649,649,649,649,649,649,649,649,649,649,649,649,649,649,649,649,649,649,649,649,649,649,649,649,649,649,649,649,649,649,649,649,649,649,649,649,649,649,649,649,649,649,649,649,649,649,649,649,649,649,649,649,649,649,649,648,643,607,462,380,296,226,158,75],"timestamp_mouse":[8,33,49,68,88,108,129,149,169,189,209,228,249,270,288,308,328,350,369,390,408,429,448,468,490,508,530,548,570,588,608,630,648,668,688,708,729,750,768,789,810,829,848,869,888,909,928,950,969,988,1010,1029,1050,1068,1088,1109,1128,1150,1169,1189,1210,1230,1248,1268,1288,1310,1328,1349,1369,1389,1409,1428,1449,1469,1489,1509,1528,1548],"xSR":741.5,"ySR":573.95,"xT1":424.9,"yT1":0,"xT2":1058.1,"yT2":0,"toosoon":0,"cond_shown":"randomdotsizeEA","ratio_trial":500,"smaller_num":"3","larger_num":"6","correct_side":2,"subjID":"AndresMauricioAcostaPerez22","gender":"0","age":"11","school":"6"},{"start_time":1551881121108,"click_time":1551881122095,"finger_time":1551881121675,"fix_duration":754.49322435476,"trial":3,"RT":567,"MT":420,"sideResp":1,"stimulus":"img/250/equaldotanddens/L/7_Ratio_250_L_8_R_2.png","xmouse":[793,793,793,793,793,793,793,793,793,793,793,793,793,793,793,793,793,793,793,793,793,793,793,793,793,793,793,792,784,766,736,709,680,629,615,600,595,591,589,583,578,569,557,546,539,537,535,531,527,522],"ymouse":[599,599,599,599,599,599,599,599,599,599,599,599,599,599,600,602,602,602,602,603,603,603,603,603,603,603,603,603,572,520,455,392,344,250,215,182,169,156,147,128,115,94,73,55,42,38,33,26,21,14],"timestamp_mouse":[10,37,46,65,85,106,126,147,165,186,206,225,246,265,286,306,326,346,365,386,405,425,447,466,486,505,527,545,567,585,605,625,645,666,685,705,725,746,767,786,805,825,845,866,887,905,926,945,967,987],"xSR":741.5,"ySR":573.95,"xT1":424.9,"yT1":0,"xT2":1058.1,"yT2":0,"toosoon":0,"cond_shown":"equaldotanddens","ratio_trial":250,"smaller_num":"2","larger_num":"8","correct_side":1,"subjID":"AndresMauricioAcostaPerez22","gender":"0","age":"11","school":"6"},{"start_time":1551881123202,"click_time":1551881124333,"finger_time":1551881123954,"fix_duration":367.84308691506095,"trial":4,"RT":752,"MT":379,"sideResp":1,"stimulus":"img/250/equaldotanddens/L/7_Ratio_250_L_8_R_2.png","xmouse":[795,795,795,795,795,795,795,795,795,795,795,795,795,795,795,795,795,795,795,795,795,795,795,795,795,795,795,795,795,795,795,795,795,795,795,787,779,760,713,698,676,670,653,638,632,625,617,603,590,577,575,568,557,551,543,535,513],"ymouse":[616,616,616,616,616,616,616,616,616,616,616,616,616,616,616,616,616,616,616,616,616,616,616,616,616,616,616,616,616,616,616,616,616,616,616,602,589,555,482,454,412,396,357,322,308,292,272,246,221,189,176,157,134,123,109,100,83],"timestamp_mouse":[13,32,52,71,91,111,133,151,171,191,212,232,253,271,292,312,332,351,371,391,412,432,451,472,492,511,531,551,572,592,612,631,651,673,692,711,731,752,772,791,813,831,853,872,891,912,931,952,971,992,1013,1031,1052,1071,1092,1112,1131],"xSR":741.5,"ySR":573.95,"xT1":424.9,"yT1":0,"xT2":1058.1,"yT2":0,"toosoon":0,"cond_shown":"equaldotanddens","ratio_trial":250,"smaller_num":"2","larger_num":"8","correct_side":1,"subjID":"AndresMauricioAcostaPerez22","gender":"0","age":"11","school":"6"},{"start_time":1551881127976,"click_time":1551881128733,"finger_time":1551881128413,"fix_duration":941.1584003471155,"trial":5,"RT":437,"MT":320,"sideResp":1,"stimulus":"img/250/randomdotsizeEA/L/3_Ratio_250_L_8_R_2.png","xmouse":[788,788,788,788,788,788,788,788,788,788,788,788,788,788,788,788,788,788,788,780,759,719,642,590,494,450,399,366,359,357,356,356,359,363,368,397,414,429],"ymouse":[626,626,626,626,626,626,626,626,626,626,626,626,626,626,626,626,626,626,626,619,591,545,455,386,221,124,35,0,0,0,0,0,0,0,0,19,41,67],"timestamp_mouse":[17,37,57,78,98,117,137,157,178,198,218,237,257,279,297,318,337,358,378,398,417,437,458,478,498,517,537,557,578,597,618,638,658,677,697,717,738,757],"xSR":741.5,"ySR":573.95,"xT1":424.9,"yT1":0,"xT2":1058.1,"yT2":0,"toosoon":0,"cond_shown":"randomdotsizeEA","ratio_trial":250,"smaller_num":"2","larger_num":"8","correct_side":1,"subjID":"AndresMauricioAcostaPerez22","gender":"0","age":"11","school":"6"},{"start_time":1551881130603,"click_time":1551881131493,"finger_time":1551881131393,"fix_duration":1187.2465091285626,"trial":6,"RT":790,"MT":100,"sideResp":2,"stimulus":"img/900/equaldotsize/R/7_Ratio_900_L_9_R_10.png","xmouse":[772,772,772,772,772,772,772,772,772,772,772,772,772,772,772,772,772,772,772,772,772,772,772,772,772,772,772,772,772,772,772,772,772,772,772,772,772,785,802,894,933,974,1017,1053,1100],"ymouse":[648,648,648,648,648,648,648,648,648,648,648,648,648,648,648,648,648,648,648,648,648,648,648,648,648,648,648,648,648,648,648,648,648,648,648,648,648,628,596,460,400,336,258,180,50],"timestamp_mouse":[10,37,50,70,90,111,131,152,172,190,212,230,250,270,290,310,330,350,372,390,410,430,452,470,490,512,532,550,570,591,611,632,652,670,691,711,731,750,771,790,811,831,850,871,890],"xSR":741.5,"ySR":573.95,"xT1":424.9,"yT1":0,"xT2":1058.1,"yT2":0,"toosoon":0,"cond_shown":"equaldotsize","ratio_trial":900,"smaller_num":"9","larger_num":"10","correct_side":2,"subjID":"AndresMauricioAcostaPerez22","gender":"0","age":"11","school":"6"},{"start_time":1551881135009,"click_time":1551881136154,"finger_time":1551881136054,"fix_duration":1294.7794791854453,"trial":7,"RT":1045,"MT":100,"sideResp":1,"stimulus":"img/900/equaldotsize/L/4_Ratio_900_L_20_R_18.png","xmouse":[787,787,787,787,787,787,787,787,787,787,787,787,787,787,787,787,787,787,787,787,787,787,787,787,787,787,787,787,787,787,787,787,787,787,787,787,787,787,787,787,787,787,787,787,787,787,787,787,787,784,765,743,713,677,585,539,501,473],"ymouse":[643,643,643,643,643,643,643,643,643,643,643,643,643,643,643,643,643,643,643,643,643,643,643,643,643,643,643,643,643,643,643,643,643,643,643,643,643,643,643,643,643,643,643,643,643,643,643,643,643,638,619,596,557,503,338,233,129,49],"timestamp_mouse":[8,24,44,65,84,105,126,144,166,185,206,225,245,265,284,305,325,344,366,384,404,424,444,464,484,505,525,546,564,585,605,624,644,664,685,704,724,745,766,785,804,826,845,864,885,905,926,945,965,984,1004,1024,1045,1064,1084,1104,1125,1145],"xSR":741.5,"ySR":573.95,"xT1":424.9,"yT1":0,"xT2":1058.1,"yT2":0,"toosoon":0,"cond_shown":"equaldotsize","ratio_trial":900,"smaller_num":"18","larger_num":"20","correct_side":1,"subjID":"AndresMauricioAcostaPerez22","gender":"0","age":"11","school":"6"},{"start_time":1551881139648,"click_time":1551881140413,"finger_time":1551881140273,"fix_duration":1432.1454325611787,"trial":8,"RT":625,"MT":140,"sideResp":1,"stimulus":"img/750/equaldotsize/L/9_Ratio_750_L_4_R_3.png","xmouse":[807,807,807,807,807,807,807,807,807,807,807,807,807,807,807,807,807,807,807,807,807,807,807,807,807,807,807,805,791,773,749,714,649,632,612,588,552,491,471],"ymouse":[631,631,631,631,631,631,631,631,631,631,631,631,631,631,631,631,631,631,631,631,631,631,631,631,631,631,631,629,623,616,602,579,527,493,437,359,270,120,54],"timestamp_mouse":[8,26,47,67,85,106,126,147,165,185,205,226,247,265,285,306,326,346,366,386,406,426,446,466,485,505,526,545,567,587,605,625,645,666,687,706,726,745,765],"xSR":741.5,"ySR":573.95,"xT1":424.9,"yT1":0,"xT2":1058.1,"yT2":0,"toosoon":0,"cond_shown":"equaldotsize","ratio_trial":750,"smaller_num":"3","larger_num":"4","correct_side":1,"subjID":"AndresMauricioAcostaPerez22","gender":"0","age":"11","school":"6"},{"start_time":1551881143058,"click_time":1551881143754,"finger_time":1551881143653,"fix_duration":522.8193714481482,"trial":9,"RT":595,"MT":101,"sideResp":2,"stimulus":"img/500/equaldotsize/R/6_Ratio_500_L_9_R_18.png","xmouse":[795,795,795,795,795,795,795,795,795,795,795,795,795,795,795,795,795,795,795,795,795,795,795,795,795,795,795,798,811,827,853,948,1002,1054,1097],"ymouse":[632,632,632,632,632,632,632,632,632,632,632,632,632,632,632,632,632,632,632,632,632,632,632,632,632,632,632,616,583,529,459,277,183,102,35],"timestamp_mouse":[20,35,55,76,95,117,135,156,175,197,216,236,256,276,297,316,336,356,377,395,416,436,456,476,495,517,535,556,576,595,616,636,657,676,696],"xSR":741.5,"ySR":573.95,"xT1":424.9,"yT1":0,"xT2":1058.1,"yT2":0,"toosoon":0,"cond_shown":"equaldotsize","ratio_trial":500,"smaller_num":"9","larger_num":"18","correct_side":2,"subjID":"AndresMauricioAcostaPerez22","gender":"0","age":"11","school":"6"},{"start_time":1551881145145,"click_time":1551881146613,"finger_time":1551881146033,"fix_duration":550.7949273211856,"trial":10,"RT":888,"MT":580,"sideResp":1,"stimulus":"img/250/randomdotsizeEA/L/5_Ratio_250_L_24_R_6.png","xmouse":[758,758,758,758,758,758,758,758,758,758,758,758,758,758,758,758,758,758,758,758,758,758,758,758,758,758,758,758,758,758,758,758,758,758,758,758,758,758,758,758,759,759,749,742,726,716,701,676,657,632,613,598,576,568,564,561,560,558,558,558,558,558,558,558,558,558,557,552,547,543,539,536,525,500],"ymouse":[643,643,643,643,643,643,643,643,643,643,643,643,643,643,643,643,643,643,643,643,643,643,643,643,643,643,643,643,643,643,643,643,643,643,643,643,643,643,643,643,642,640,622,604,572,550,517,437,367,275,207,150,74,41,24,12,5,1,1,1,1,1,1,1,1,1,0,0,0,0,1,1,9,30],"timestamp_mouse":[8,33,48,69,88,109,129,149,169,188,209,229,248,269,288,310,328,348,368,389,408,430,448,468,490,510,530,548,569,588,609,629,648,668,689,710,729,750,769,789,808,829,850,868,888,908,929,949,970,989,1009,1028,1048,1069,1088,1109,1129,1150,1169,1189,1210,1229,1248,1268,1289,1309,1329,1349,1368,1388,1409,1429,1449,1468],"xSR":741.5,"ySR":573.95,"xT1":424.9,"yT1":0,"xT2":1058.1,"yT2":0,"toosoon":0,"cond_shown":"randomdotsizeEA","ratio_trial":250,"smaller_num":"6","larger_num":"24","correct_side":1,"subjID":"AndresMauricioAcostaPerez22","gender":"0","age":"11","school":"6"},{"start_time":1551881148540,"click_time":1551881149794,"finger_time":1551881149474,"fix_duration":1205.5150493007284,"trial":11,"RT":934,"MT":320,"sideResp":2,"stimulus":"img/900/randomdotsizeEA/L/4_Ratio_900_L_20_R_18.png","xmouse":[803,803,803,803,803,803,803,803,803,803,803,803,803,803,803,803,803,803,803,803,803,803,803,803,803,803,803,803,803,803,803,803,803,803,803,803,803,803,803,803,803,802,802,802,805,809,814,838,857,878,897,939,969,983,992,999,1006,1017,1022,1024,1025,1030,1065],"ymouse":[636,636,636,636,636,636,636,636,636,636,636,636,636,636,636,636,636,636,636,636,636,636,636,636,636,636,636,636,636,636,636,636,636,636,636,636,636,636,636,636,636,636,633,629,612,595,571,472,392,321,256,139,61,28,9,0,0,0,0,0,0,0,18],"timestamp_mouse":[18,33,65,74,93,113,133,153,174,193,214,234,253,274,293,313,335,353,373,395,413,434,454,473,493,513,535,555,573,593,614,635,653,674,695,713,734,754,773,795,814,833,854,873,893,913,933,953,973,993,1013,1034,1053,1073,1093,1113,1133,1154,1173,1194,1214,1233,1254],"xSR":741.5,"ySR":573.95,"xT1":424.9,"yT1":0,"xT2":1058.1,"yT2":0,"toosoon":0,"cond_shown":"randomdotsizeEA","ratio_trial":900,"smaller_num":"18","larger_num":"20","correct_side":1,"subjID":"AndresMauricioAcostaPerez22","gender":"0","age":"11","school":"6"},{"start_time":1551881150910,"click_time":1551881151794,"finger_time":1551881151634,"fix_duration":315.4960244860495,"trial":12,"RT":724,"MT":160,"sideResp":2,"stimulus":"img/250/equaldotsize/R/11_Ratio_250_L_3_R_12.png","xmouse":[804,804,804,804,804,804,804,804,804,804,804,804,804,804,804,804,804,804,804,804,804,804,804,804,804,804,804,804,804,804,804,804,804,804,809,814,824,839,893,939,982,1020,1043,1066,1099],"ymouse":[602,602,602,602,602,602,602,602,602,602,602,602,602,602,602,602,602,602,602,602,602,602,602,602,602,602,602,602,602,602,602,602,602,601,591,582,564,539,444,364,289,223,164,108,27],"timestamp_mouse":[8,36,43,64,83,103,123,145,163,184,204,223,245,265,284,303,323,345,363,384,403,423,445,464,485,503,523,544,563,585,605,625,644,663,683,705,724,743,764,783,804,825,844,864,884],"xSR":741.5,"ySR":573.95,"xT1":424.9,"yT1":0,"xT2":1058.1,"yT2":0,"toosoon":0,"cond_shown":"equaldotsize","ratio_trial":250,"smaller_num":"3","larger_num":"12","correct_side":2,"subjID":"AndresMauricioAcostaPerez22","gender":"0","age":"11","school":"6"},{"start_time":1551881153544,"click_time":1551881154354,"finger_time":1551881154093,"fix_duration":1049.1623809224013,"trial":13,"RT":549,"MT":261,"sideResp":1,"stimulus":"img/500/equaldotsize/L/10_Ratio_500_L_4_R_2.png","xmouse":[809,809,809,809,809,809,809,809,809,809,809,809,809,809,809,809,809,809,809,809,809,809,809,809,809,809,806,768,709,649,591,510,496,480,472,465,458,451,448,447,446],"ymouse":[611,611,611,611,611,611,611,611,611,611,611,611,611,611,611,611,611,611,611,611,611,611,611,611,611,611,612,546,465,392,339,267,248,216,194,174,157,130,117,105,93],"timestamp_mouse":[12,34,49,70,89,109,129,151,170,189,209,230,249,270,290,310,329,350,370,389,410,429,449,470,490,511,529,549,569,589,610,631,649,669,689,711,729,749,771,791,810],"xSR":741.5,"ySR":573.95,"xT1":424.9,"yT1":0,"xT2":1058.1,"yT2":0,"toosoon":0,"cond_shown":"equaldotsize","ratio_trial":500,"smaller_num":"2","larger_num":"4","correct_side":1,"subjID":"AndresMauricioAcostaPerez22","gender":"0","age":"11","school":"6"},{"start_time":1551881155665,"click_time":1551881156794,"finger_time":1551881156413,"fix_duration":250,"trial":14,"RT":748,"MT":381,"sideResp":2,"stimulus":"img/750/equaldotanddens/R/7_Ratio_750_L_3_R_4.png","xmouse":[785,785,785,785,785,785,785,785,785,785,785,785,785,785,785,785,785,785,785,785,785,785,785,785,785,785,785,785,785,785,785,785,785,785,785,785,801,823,847,866,913,934,953,967,977,989,1006,1017,1023,1026,1031,1040,1046,1056,1067,1077,1094],"ymouse":[651,651,651,651,651,651,651,651,651,651,651,651,651,651,651,651,651,651,651,651,651,651,651,651,651,651,651,651,651,651,651,651,651,651,651,651,599,533,474,431,339,289,243,208,184,163,137,129,128,127,126,125,123,117,109,100,81],"timestamp_mouse":[8,28,52,69,89,110,128,148,169,188,210,228,248,269,288,310,330,348,368,390,408,428,449,470,488,509,529,548,569,588,610,628,649,670,688,708,728,748,769,790,810,828,848,870,889,910,928,948,969,990,1008,1030,1050,1068,1088,1109,1129],"xSR":741.5,"ySR":573.95,"xT1":424.9,"yT1":0,"xT2":1058.1,"yT2":0,"toosoon":0,"cond_shown":"equaldotanddens","ratio_trial":750,"smaller_num":"3","larger_num":"4","correct_side":2,"subjID":"AndresMauricioAcostaPerez22","gender":"0","age":"11","school":"6"},{"start_time":1551881157527,"click_time":1551881158433,"finger_time":1551881158315,"fix_duration":250,"trial":15,"RT":788,"MT":118,"sideResp":1,"stimulus":"img/750/randomdotsizeEA/L/13_Ratio_750_L_8_R_6.png","xmouse":[757,757,757,757,757,757,757,757,757,757,757,757,757,757,757,757,757,757,757,759,759,759,759,759,759,759,759,759,759,759,759,759,759,759,759,759,759,760,744,718,682,630,582,529,516,509],"ymouse":[648,648,648,648,648,648,648,648,648,648,648,648,648,648,648,648,648,648,647,646,646,646,646,646,646,646,646,646,646,646,646,646,646,646,646,646,646,642,580,518,434,341,256,146,115,82],"timestamp_mouse":[8,33,47,67,87,107,127,148,166,187,208,227,248,266,288,307,326,347,366,386,408,427,447,466,486,508,526,547,566,588,606,627,646,668,687,707,727,747,766,788,807,826,846,866,888,906],"xSR":741.5,"ySR":573.95,"xT1":424.9,"yT1":0,"xT2":1058.1,"yT2":0,"toosoon":0,"cond_shown":"randomdotsizeEA","ratio_trial":750,"smaller_num":"6","larger_num":"8","correct_side":1,"subjID":"AndresMauricioAcostaPerez22","gender":"0","age":"11","school":"6"},{"start_time":1551881160712,"click_time":1551881162934,"finger_time":1551881161414,"fix_duration":1037.4848198764305,"trial":16,"RT":702,"MT":1520,"sideResp":1,"stimulus":"img/500/equaldotanddens/L/4_Ratio_500_L_18_R_9.png","xmouse":[811,811,811,811,811,811,811,811,811,811,811,811,811,811,811,811,811,811,811,811,811,811,811,811,811,811,811,811,809,809,809,809,806,805,799,786,775,756,728,657,631,612,596,585,567,559,554,541,538,536,536,536,536,535,533,530,529,528,528,537,555,565,573,580,598,608,611,611,611,609,588,549,509,467,413,401,399,399,399,399,401,418,441,531,585,643,666,678,685,687,687,687,687,686,630,600,574,552,533,530,530,530,530,530,530,530,530,530,530,529,526,519],"ymouse":[596,596,596,596,596,596,596,596,596,596,596,596,596,596,596,596,596,596,596,596,596,596,596,596,596,596,596,596,597,597,597,597,597,595,580,550,519,476,411,286,237,191,144,110,46,21,8,0,0,0,0,0,0,5,21,43,53,65,129,189,249,285,305,322,364,388,393,393,393,375,319,248,176,106,7,0,0,0,0,0,11,51,109,247,316,394,427,445,459,464,464,464,463,417,259,192,128,79,11,0,0,0,0,0,0,0,0,0,0,0,0,4],"timestamp_mouse":[1,21,56,62,82,102,123,142,163,181,202,222,241,262,282,301,322,343,362,382,402,422,443,461,481,502,522,542,562,583,602,621,642,661,682,702,722,741,761,781,801,821,842,862,881,902,922,942,961,981,1002,1021,1041,1061,1083,1101,1122,1142,1163,1181,1201,1222,1242,1261,1281,1301,1323,1342,1362,1382,1402,1422,1441,1462,1483,1503,1522,1542,1562,1582,1601,1622,1642,1662,1681,1702,1722,1742,1762,1781,1801,1821,1841,1862,1881,1902,1922,1942,1962,1981,2003,2022,2043,2063,2082,2101,2122,2141,2161,2182,2202,2222],"xSR":741.5,"ySR":573.95,"xT1":424.9,"yT1":0,"xT2":1058.1,"yT2":0,"toosoon":0,"cond_shown":"equaldotanddens","ratio_trial":500,"smaller_num":"9","larger_num":"18","correct_side":1,"subjID":"AndresMauricioAcostaPerez22","gender":"0","age":"11","school":"6"},{"start_time":1551881163945,"click_time":1551881164873,"finger_time":1551881164573,"fix_duration":250,"trial":17,"RT":628,"MT":300,"sideResp":2,"stimulus":"img/250/equaldotsize/R/11_Ratio_250_L_3_R_12.png","xmouse":[760,760,760,760,760,760,760,760,760,760,760,760,760,760,760,760,760,760,760,760,760,760,760,760,760,760,760,760,769,786,806,827,867,911,939,962,982,1014,1028,1040,1050,1054,1059,1060,1060,1063,1070],"ymouse":[618,618,618,618,618,618,618,618,618,618,618,618,618,618,618,618,618,618,618,618,618,618,618,618,618,618,618,618,611,600,587,573,532,460,402,348,288,181,132,84,46,21,0,0,0,0,2],"timestamp_mouse":[14,36,49,68,88,110,129,149,169,188,210,228,248,268,290,308,328,348,370,388,410,428,448,469,488,508,530,549,568,589,608,628,649,669,688,709,729,748,769,789,809,828,848,870,889,910,928],"xSR":741.5,"ySR":573.95,"xT1":424.9,"yT1":0,"xT2":1058.1,"yT2":0,"toosoon":0,"cond_shown":"equaldotsize","ratio_trial":250,"smaller_num":"3","larger_num":"12","correct_side":2,"subjID":"AndresMauricioAcostaPerez22","gender":"0","age":"11","school":"6"},{"start_time":1551881166504,"click_time":1551881167433,"finger_time":1551881167292,"fix_duration":1090.3113901934746,"trial":18,"RT":788,"MT":141,"sideResp":2,"stimulus":"img/750/equaldotsize/R/2_Ratio_750_L_6_R_8.png","xmouse":[815,815,815,815,815,815,815,815,815,815,815,815,815,815,815,815,815,815,815,815,815,815,815,815,815,815,815,815,815,815,815,815,815,815,815,815,815,816,824,856,879,903,928,959,1053,1088,1128],"ymouse":[603,603,603,603,603,603,603,603,603,603,603,603,603,603,603,603,603,603,603,603,603,603,603,603,603,603,603,603,603,603,603,603,603,603,603,603,602,598,585,539,504,466,428,370,200,136,67],"timestamp_mouse":[9,37,50,70,89,109,129,150,169,188,210,229,250,269,289,310,328,349,370,389,410,430,448,469,490,510,530,548,570,590,610,630,650,670,690,709,729,749,769,788,810,829,850,869,888,909,929],"xSR":741.5,"ySR":573.95,"xT1":424.9,"yT1":0,"xT2":1058.1,"yT2":0,"toosoon":0,"cond_shown":"equaldotsize","ratio_trial":750,"smaller_num":"6","larger_num":"8","correct_side":2,"subjID":"AndresMauricioAcostaPerez22","gender":"0","age":"11","school":"6"},{"start_time":1551881168406,"click_time":1551881169293,"finger_time":1551881169033,"fix_duration":250,"trial":19,"RT":627,"MT":260,"sideResp":2,"stimulus":"img/250/equaldotsize/R/4_Ratio_250_L_3_R_12.png","xmouse":[806,806,806,806,806,806,806,806,806,806,806,806,806,806,806,806,806,806,806,806,806,806,806,806,806,806,806,806,806,807,819,836,860,909,939,973,1004,1032,1055,1076,1080,1080,1080,1080,1081],"ymouse":[612,612,612,612,612,612,612,612,612,612,612,612,612,612,612,612,612,612,612,612,612,612,612,612,612,612,612,612,611,604,578,546,500,381,314,233,161,93,39,0,0,0,0,0,27],"timestamp_mouse":[9,36,47,67,87,107,127,146,166,187,206,227,247,267,287,307,326,347,367,388,406,426,448,468,487,507,527,547,567,587,607,627,648,668,687,708,727,748,767,788,808,828,846,868,887],"xSR":741.5,"ySR":573.95,"xT1":424.9,"yT1":0,"xT2":1058.1,"yT2":0,"toosoon":0,"cond_shown":"equaldotsize","ratio_trial":250,"smaller_num":"3","larger_num":"12","correct_side":2,"subjID":"AndresMauricioAcostaPerez22","gender":"0","age":"11","school":"6"},{"start_time":1551881170515,"click_time":1551881171794,"finger_time":1551881171693,"fix_duration":419.43238098388133,"trial":20,"RT":1178,"MT":101,"sideResp":1,"stimulus":"img/750/randomdotsizeEA/R/7_Ratio_750_L_3_R_4.png","xmouse":[813,810,810,808,808,808,808,808,808,808,808,808,808,808,808,808,808,808,808,808,808,808,808,808,808,808,808,808,808,808,808,808,808,808,808,808,808,808,808,808,808,808,808,808,808,808,808,808,808,808,808,808,808,808,808,808,805,798,752,713,663,605,548,447],"ymouse":[600,600,600,600,600,600,600,600,600,600,600,600,600,600,600,600,600,600,600,600,600,600,600,600,600,600,600,600,600,600,600,600,600,600,600,600,600,600,600,600,600,600,600,600,600,600,600,600,600,600,600,600,600,600,600,600,595,585,512,450,379,299,218,71],"timestamp_mouse":[19,42,57,78,98,119,138,157,179,197,219,237,259,278,298,318,339,358,379,397,418,439,458,479,499,517,538,558,579,598,618,638,659,678,698,718,738,758,778,797,818,838,857,879,898,917,938,958,978,998,1018,1038,1059,1078,1098,1118,1138,1158,1178,1198,1218,1239,1259,1279],"xSR":741.5,"ySR":573.95,"xT1":424.9,"yT1":0,"xT2":1058.1,"yT2":0,"toosoon":0,"cond_shown":"randomdotsizeEA","ratio_trial":750,"smaller_num":"3","larger_num":"4","correct_side":2,"subjID":"AndresMauricioAcostaPerez22","gender":"0","age":"11","school":"6"},{"start_time":1551881172945,"click_time":1551881174774,"finger_time":1551881174693,"fix_duration":330.38438116328496,"trial":21,"RT":1748,"MT":81,"sideResp":2,"stimulus":"img/900/randomdotsizeEA/L/10_Ratio_900_L_20_R_18.png","xmouse":[825,825,825,825,825,825,825,825,825,825,825,825,825,825,825,825,825,825,825,825,825,825,825,825,825,825,825,825,825,825,825,825,825,825,825,825,825,825,825,825,825,825,825,825,825,825,825,825,825,825,825,825,825,825,825,825,825,825,825,825,825,825,825,825,825,825,825,825,825,825,825,825,825,825,825,825,825,825,825,825,825,825,825,825,825,825,836,901,943,987,1025,1065],"ymouse":[650,650,650,650,650,650,650,650,650,650,650,650,650,650,650,650,650,650,650,650,650,650,650,650,650,650,650,650,650,650,650,650,650,650,650,650,650,650,650,650,650,650,650,650,650,650,650,650,650,650,650,650,650,650,650,650,650,650,650,650,650,650,650,650,650,650,650,650,650,650,650,650,650,650,650,650,650,650,650,650,650,650,650,650,650,648,606,453,353,243,139,43],"timestamp_mouse":[12,36,49,67,88,109,127,149,167,188,209,228,249,269,288,308,327,348,368,388,408,429,449,469,487,508,528,548,567,588,609,628,648,668,689,708,729,749,768,788,809,828,848,868,887,908,927,949,968,988,1007,1027,1048,1068,1087,1108,1128,1148,1168,1189,1207,1228,1248,1269,1289,1308,1328,1348,1368,1388,1408,1429,1448,1468,1487,1508,1528,1548,1568,1587,1608,1628,1648,1668,1688,1708,1728,1748,1768,1788,1807,1828],"xSR":741.5,"ySR":573.95,"xT1":424.9,"yT1":0,"xT2":1058.1,"yT2":0,"toosoon":0,"cond_shown":"randomdotsizeEA","ratio_trial":900,"smaller_num":"18","larger_num":"20","correct_side":1,"subjID":"AndresMauricioAcostaPerez22","gender":"0","age":"11","school":"6"},{"start_time":1551881176207,"click_time":1551881177213,"finger_time":1551881176873,"fix_duration":712.7096101168281,"trial":22,"RT":666,"MT":340,"sideResp":2,"stimulus":"img/500/equaldotanddens/R/14_Ratio_500_L_5_R_10.png","xmouse":[786,786,786,786,786,786,786,786,786,786,786,786,786,786,786,786,786,786,786,786,786,786,786,786,786,786,786,786,786,786,788,796,808,828,874,900,931,962,983,1003,1012,1017,1018,1018,1018,1018,1018,1020,1026,1051,1069],"ymouse":[627,627,627,627,627,627,627,627,627,627,627,627,627,627,627,627,627,627,627,627,627,627,627,627,627,627,627,627,627,627,623,603,578,528,417,353,278,205,137,68,37,21,16,16,16,16,16,21,30,70,94],"timestamp_mouse":[8,25,47,65,86,105,127,146,167,186,207,226,247,265,286,306,325,347,367,385,406,426,446,466,486,505,526,547,566,586,606,626,647,666,687,706,725,746,766,786,806,826,845,866,887,906,927,946,966,987,1006],"xSR":741.5,"ySR":573.95,"xT1":424.9,"yT1":0,"xT2":1058.1,"yT2":0,"toosoon":0,"cond_shown":"equaldotanddens","ratio_trial":500,"smaller_num":"5","larger_num":"10","correct_side":2,"subjID":"AndresMauricioAcostaPerez22","gender":"0","age":"11","school":"6"},{"start_time":1551881179366,"click_time":1551881180433,"finger_time":1551881179993,"fix_duration":1390.9668936214111,"trial":23,"RT":627,"MT":440,"sideResp":1,"stimulus":"img/500/equaldotsize/L/11_Ratio_500_L_12_R_6.png","xmouse":[769,769,769,769,769,769,769,769,769,769,769,769,769,769,769,769,769,769,769,769,769,769,769,769,769,769,770,770,770,764,754,724,698,679,661,642,584,562,552,542,537,530,530,529,529,529,529,529,528,526,526,525,525,523],"ymouse":[612,612,612,612,612,612,612,612,612,612,612,612,612,612,612,612,612,612,612,612,612,612,612,612,612,612,611,608,606,596,581,546,502,461,416,355,188,130,94,66,45,22,17,15,15,15,15,15,16,26,27,28,28,28],"timestamp_mouse":[10,39,46,68,87,107,128,146,167,188,208,227,247,267,287,307,327,347,368,388,406,428,447,467,488,508,528,547,567,587,607,627,647,667,688,707,727,747,768,787,807,828,847,868,887,906,926,947,967,988,1008,1027,1047,1067],"xSR":741.5,"ySR":573.95,"xT1":424.9,"yT1":0,"xT2":1058.1,"yT2":0,"toosoon":0,"cond_shown":"equaldotsize","ratio_trial":500,"smaller_num":"6","larger_num":"12","correct_side":1,"subjID":"AndresMauricioAcostaPerez22","gender":"0","age":"11","school":"6"},{"start_time":1551881181257,"click_time":1551881181953,"finger_time":1551881181792,"fix_duration":322.73727177290414,"trial":24,"RT":535,"MT":161,"sideResp":2,"stimulus":"img/250/equaldotanddens/R/4_Ratio_250_L_3_R_12.png","xmouse":[820,820,820,820,820,820,820,820,820,820,820,820,820,820,820,821,821,821,821,821,821,821,821,821,821,831,845,878,907,932,957,1014,1041,1063,1078],"ymouse":[644,644,644,644,644,644,644,644,644,644,644,644,644,642,641,638,637,637,637,637,637,637,637,637,637,626,607,562,512,457,401,271,201,138,81],"timestamp_mouse":[16,36,57,76,96,116,136,156,176,196,216,236,256,277,296,317,337,356,377,396,415,437,456,475,496,517,535,556,576,595,616,636,657,676,696],"xSR":741.5,"ySR":573.95,"xT1":424.9,"yT1":0,"xT2":1058.1,"yT2":0,"toosoon":0,"cond_shown":"equaldotanddens","ratio_trial":250,"smaller_num":"3","larger_num":"12","correct_side":2,"subjID":"AndresMauricioAcostaPerez22","gender":"0","age":"11","school":"6"},{"start_time":1551881182925,"click_time":1551881184393,"finger_time":1551881184014,"fix_duration":250,"trial":25,"RT":1089,"MT":379,"sideResp":1,"stimulus":"img/900/equaldotanddens/R/14_Ratio_900_L_18_R_20.png","xmouse":[813,813,813,813,813,813,813,813,813,813,813,813,813,813,813,813,813,813,813,813,813,813,813,813,813,813,813,813,813,813,813,813,813,813,813,813,813,813,813,813,813,813,813,813,813,813,813,813,813,813,813,813,813,804,790,766,735,678,655,636,624,618,611,603,603,603,603,603,602,600,594,585,568,519],"ymouse":[593,593,593,593,593,593,593,593,593,593,593,593,593,593,593,593,593,593,593,593,593,593,593,593,593,593,593,593,593,593,593,593,593,593,593,593,593,593,593,593,593,593,593,593,593,593,593,593,593,593,593,593,593,574,541,480,402,265,206,158,124,103,81,57,57,57,57,57,57,60,63,65,65,55],"timestamp_mouse":[8,27,48,68,89,108,127,149,167,189,208,228,249,268,288,309,328,349,369,388,408,428,448,469,489,509,528,549,568,588,609,628,649,668,688,707,728,748,768,789,808,828,848,869,889,909,929,947,969,988,1008,1027,1048,1068,1089,1108,1128,1149,1169,1188,1208,1228,1248,1268,1287,1308,1329,1349,1368,1387,1408,1429,1448,1468],"xSR":741.5,"ySR":573.95,"xT1":424.9,"yT1":0,"xT2":1058.1,"yT2":0,"toosoon":0,"cond_shown":"equaldotanddens","ratio_trial":900,"smaller_num":"18","larger_num":"20","correct_side":2,"subjID":"AndresMauricioAcostaPerez22","gender":"0","age":"11","school":"6"},{"start_time":1551881186189,"click_time":1551881187534,"finger_time":1551881187393,"fix_duration":1074.4992829201385,"trial":26,"RT":1204,"MT":141,"sideResp":1,"stimulus":"img/250/randomdotsizeEA/L/5_Ratio_250_L_24_R_6.png","xmouse":[831,831,831,831,831,831,831,831,831,831,831,831,831,831,831,831,831,831,831,831,831,831,831,831,831,831,831,831,831,831,831,831,831,831,831,831,831,831,831,831,831,831,831,831,831,831,831,831,831,831,831,831,831,831,831,831,831,831,830,826,804,784,754,717,674,585,535,493],"ymouse":[623,623,623,623,623,623,623,623,623,623,623,623,623,623,623,623,623,623,623,623,623,623,623,623,623,623,623,623,623,623,623,623,623,623,623,623,623,623,623,623,623,623,623,623,623,623,623,623,623,623,623,623,623,623,623,623,623,623,617,608,559,510,457,389,309,149,81,26],"timestamp_mouse":[11,35,43,64,85,104,125,143,164,184,205,224,244,265,285,305,324,343,364,384,403,424,444,464,484,505,524,544,565,584,604,624,644,665,684,704,724,743,764,785,804,825,844,864,883,905,924,944,964,984,1004,1025,1044,1064,1085,1104,1125,1144,1165,1184,1204,1224,1245,1264,1284,1304,1324,1345],"xSR":741.5,"ySR":573.95,"xT1":424.9,"yT1":0,"xT2":1058.1,"yT2":0,"toosoon":0,"cond_shown":"randomdotsizeEA","ratio_trial":250,"smaller_num":"6","larger_num":"24","correct_side":1,"subjID":"AndresMauricioAcostaPerez22","gender":"0","age":"11","school":"6"},{"start_time":1551881189090,"click_time":1551881190074,"finger_time":1551881189952,"fix_duration":776.9011641468339,"trial":27,"RT":862,"MT":122,"sideResp":1,"stimulus":"img/500/randomdotsizeEA/L/11_Ratio_500_L_12_R_6.png","xmouse":[816,816,816,816,816,816,816,816,816,816,816,816,816,816,816,816,816,816,816,816,816,816,816,816,816,816,816,816,816,816,816,816,816,816,816,816,816,816,816,816,814,805,788,762,721,632,582,525,491,471],"ymouse":[644,644,644,644,644,644,644,644,644,644,644,644,644,644,644,644,644,644,644,644,644,644,644,644,644,644,644,644,644,644,644,644,644,644,644,644,644,644,644,644,643,626,598,552,481,323,253,166,121,89],"timestamp_mouse":[10,23,43,64,83,103,124,144,162,183,203,224,243,262,283,302,323,343,363,383,403,423,442,464,482,503,523,544,563,584,603,624,643,662,683,703,723,744,764,783,803,823,843,862,883,904,922,942,963,984],"xSR":741.5,"ySR":573.95,"xT1":424.9,"yT1":0,"xT2":1058.1,"yT2":0,"toosoon":0,"cond_shown":"randomdotsizeEA","ratio_trial":500,"smaller_num":"6","larger_num":"12","correct_side":1,"subjID":"AndresMauricioAcostaPerez22","gender":"0","age":"11","school":"6"},{"start_time":1551881191025,"click_time":1551881191615,"finger_time":1551881191493,"fix_duration":250,"trial":28,"RT":468,"MT":122,"sideResp":2,"stimulus":"img/250/equaldotanddens/R/12_Ratio_250_L_5_R_20.png","xmouse":[779,779,779,779,779,779,779,779,779,779,779,779,779,779,779,779,779,779,779,779,779,780,784,838,885,941,1000,1045,1116,1145],"ymouse":[654,654,654,654,654,654,654,654,654,654,654,654,654,654,654,654,654,654,654,654,654,654,652,573,500,421,332,257,100,4],"timestamp_mouse":[8,35,49,69,88,109,128,147,169,189,209,228,249,268,288,308,327,349,369,388,409,429,449,468,489,508,529,548,568,589],"xSR":741.5,"ySR":573.95,"xT1":424.9,"yT1":0,"xT2":1058.1,"yT2":0,"toosoon":0,"cond_shown":"equaldotanddens","ratio_trial":250,"smaller_num":"5","larger_num":"20","correct_side":2,"subjID":"AndresMauricioAcostaPerez22","gender":"0","age":"11","school":"6"},{"start_time":1551881192425,"click_time":1551881193094,"finger_time":1551881192973,"fix_duration":250,"trial":29,"RT":548,"MT":121,"sideResp":2,"stimulus":"img/500/equaldotanddens/R/3_Ratio_500_L_10_R_20.png","xmouse":[821,821,821,821,821,821,821,821,821,821,821,821,821,821,821,821,821,821,821,821,821,821,821,821,821,822,824,838,898,952,992,1030,1063,1103],"ymouse":[599,599,599,599,599,599,599,599,599,599,599,599,599,599,599,599,599,599,599,599,599,599,599,599,599,595,590,565,450,347,268,187,109,13],"timestamp_mouse":[9,33,49,69,87,108,128,148,168,188,208,229,249,267,288,308,328,348,367,388,409,428,448,469,488,508,529,548,568,589,609,628,647,669],"xSR":741.5,"ySR":573.95,"xT1":424.9,"yT1":0,"xT2":1058.1,"yT2":0,"toosoon":0,"cond_shown":"equaldotanddens","ratio_trial":500,"smaller_num":"10","larger_num":"20","correct_side":2,"subjID":"AndresMauricioAcostaPerez22","gender":"0","age":"11","school":"6"},{"start_time":1551881194195,"click_time":1551881195093,"finger_time":1551881194993,"fix_duration":579.7876354838828,"trial":30,"RT":798,"MT":100,"sideResp":2,"stimulus":"img/750/equaldotanddens/R/12_Ratio_750_L_3_R_4.png","xmouse":[761,761,761,761,761,761,761,761,761,761,761,761,761,761,761,761,761,761,761,761,761,761,761,761,760,757,755,754,754,754,754,754,754,754,754,754,754,754,754,794,855,923,992,1052,1118],"ymouse":[632,632,632,632,632,632,632,632,632,632,632,632,632,632,632,632,632,632,632,632,632,632,632,632,627,614,610,608,608,608,608,608,608,608,608,608,608,608,605,563,500,415,319,225,79],"timestamp_mouse":[18,38,58,78,98,119,138,158,177,198,217,239,258,278,298,319,339,358,377,399,417,438,458,477,499,518,538,559,579,597,618,639,658,678,697,718,739,759,779,798,818,838,859,879,898],"xSR":741.5,"ySR":573.95,"xT1":424.9,"yT1":0,"xT2":1058.1,"yT2":0,"toosoon":0,"cond_shown":"equaldotanddens","ratio_trial":750,"smaller_num":"3","larger_num":"4","correct_side":2,"subjID":"AndresMauricioAcostaPerez22","gender":"0","age":"11","school":"6"},{"start_time":1551881197045,"click_time":1551881198213,"finger_time":1551881197894,"fix_duration":1449.6090908650253,"trial":31,"RT":849,"MT":319,"sideResp":2,"stimulus":"img/500/equaldotsize/R/9_Ratio_500_L_2_R_4.png","xmouse":[812,812,812,812,812,812,812,812,812,812,812,812,812,812,812,812,812,812,812,812,812,812,812,812,812,812,812,812,812,812,812,812,812,812,812,812,812,812,812,812,812,817,843,864,887,915,953,987,1011,1023,1030,1035,1036,1036,1036,1036,1036,1048,1064],"ymouse":[618,618,618,618,618,618,618,618,618,618,618,618,618,618,618,618,618,618,618,618,618,618,618,618,618,618,618,618,618,618,618,618,618,618,618,618,618,618,618,618,615,606,540,491,432,368,235,131,77,43,27,18,14,14,14,14,14,46,78],"timestamp_mouse":[9,40,48,69,87,108,128,147,167,189,209,228,248,269,289,308,328,349,367,389,409,427,449,468,488,509,527,549,569,588,609,628,647,669,688,709,729,748,768,788,808,828,849,869,888,908,929,948,968,988,1008,1028,1049,1068,1088,1109,1129,1149,1168],"xSR":741.5,"ySR":573.95,"xT1":424.9,"yT1":0,"xT2":1058.1,"yT2":0,"toosoon":0,"cond_shown":"equaldotsize","ratio_trial":500,"smaller_num":"2","larger_num":"4","correct_side":2,"subjID":"AndresMauricioAcostaPerez22","gender":"0","age":"11","school":"6"},{"start_time":1551881201473,"click_time":1551881202814,"finger_time":1551881202213,"fix_duration":1059.5437760171708,"trial":32,"RT":740,"MT":601,"sideResp":2,"stimulus":"img/900/equaldotsize/R/9_Ratio_900_L_18_R_20.png","xmouse":[767,767,767,767,767,767,767,767,767,767,767,767,767,767,767,767,767,767,767,767,767,767,767,767,767,767,767,767,767,767,767,767,767,767,767,767,762,747,728,716,709,708,708,708,708,708,708,762,867,982,1092,1222,1248,1264,1272,1275,1275,1271,1270,1268,1265,1248,1229,1208,1187,1174,1159,1151],"ymouse":[595,595,595,595,595,595,595,595,595,595,595,595,595,595,595,595,595,595,595,595,595,595,595,595,595,595,595,595,595,595,595,595,595,595,595,595,585,565,539,525,512,512,512,512,512,512,511,487,439,374,312,210,174,143,117,97,64,53,51,51,50,50,53,60,65,71,81,98],"timestamp_mouse":[1,34,40,60,80,99,120,141,160,179,201,220,240,259,280,300,320,341,359,380,399,420,441,461,481,501,521,540,559,580,599,620,640,659,680,700,720,740,760,780,801,819,840,860,880,899,920,940,960,981,1001,1020,1040,1060,1080,1101,1120,1140,1160,1180,1201,1221,1240,1260,1280,1300,1320,1341],"xSR":741.5,"ySR":573.95,"xT1":424.9,"yT1":0,"xT2":1058.1,"yT2":0,"toosoon":0,"cond_shown":"equaldotsize","ratio_trial":900,"smaller_num":"18","larger_num":"20","correct_side":2,"subjID":"AndresMauricioAcostaPerez22","gender":"0","age":"11","school":"6"},{"start_time":1551881204760,"click_time":1551881205514,"finger_time":1551881205414,"fix_duration":1086.4550565695613,"trial":33,"RT":654,"MT":100,"sideResp":1,"stimulus":"img/750/equaldotsize/L/6_Ratio_750_L_24_R_18.png","xmouse":[828,828,828,828,828,828,828,828,828,828,828,828,828,828,828,828,828,828,828,828,828,828,828,828,828,828,828,828,828,828,827,814,767,718,658,599,533,518],"ymouse":[622,622,622,622,622,622,622,622,622,622,622,622,622,622,622,622,622,622,622,622,622,622,622,622,622,622,622,622,622,622,622,594,485,397,303,221,118,91],"timestamp_mouse":[14,33,54,74,92,114,134,153,174,194,214,233,252,274,294,313,333,352,374,394,412,433,454,472,494,513,534,552,574,594,612,633,654,672,693,714,734,754],"xSR":741.5,"ySR":573.95,"xT1":424.9,"yT1":0,"xT2":1058.1,"yT2":0,"toosoon":0,"cond_shown":"equaldotsize","ratio_trial":750,"smaller_num":"18","larger_num":"24","correct_side":1,"subjID":"AndresMauricioAcostaPerez22","gender":"0","age":"11","school":"6"},{"start_time":1551881207184,"click_time":1551881208154,"finger_time":1551881208033,"fix_duration":1151.4427875424713,"trial":34,"RT":849,"MT":121,"sideResp":2,"stimulus":"img/250/randomdotsizeEA/R/10_Ratio_250_L_4_R_16.png","xmouse":[806,806,806,806,806,806,806,806,806,806,806,806,806,806,806,806,806,806,806,806,806,806,806,806,806,806,806,806,806,807,807,807,807,807,807,807,807,807,807,807,807,817,832,859,891,992,1026,1057,1085],"ymouse":[618,618,618,618,618,618,618,618,618,618,618,618,618,618,618,618,618,618,618,618,618,618,618,618,618,618,618,618,616,613,612,612,612,612,612,612,612,612,612,612,604,582,540,493,425,244,170,100,45],"timestamp_mouse":[9,40,49,70,90,109,128,149,170,189,210,229,250,268,289,309,328,350,369,388,409,429,450,470,490,509,528,550,570,590,610,628,650,670,689,710,729,749,770,789,809,829,849,869,890,908,929,950,970],"xSR":741.5,"ySR":573.95,"xT1":424.9,"yT1":0,"xT2":1058.1,"yT2":0,"toosoon":0,"cond_shown":"randomdotsizeEA","ratio_trial":250,"smaller_num":"4","larger_num":"16","correct_side":2,"subjID":"AndresMauricioAcostaPerez22","gender":"0","age":"11","school":"6"},{"start_time":1551881211443,"click_time":1551881212393,"finger_time":1551881212034,"fix_duration":1189.7829517064047,"trial":35,"RT":591,"MT":359,"sideResp":1,"stimulus":"img/250/equaldotsize/L/5_Ratio_250_L_24_R_6.png","xmouse":[779,779,779,779,779,779,779,779,779,779,779,779,779,779,779,779,779,779,779,779,779,779,779,779,779,779,779,774,759,737,706,651,625,608,591,582,580,576,576,576,576,576,576,574,570,557,542,503],"ymouse":[642,642,642,642,642,642,642,642,642,642,642,642,642,642,642,642,642,642,642,642,642,642,642,642,642,642,642,627,601,552,494,367,303,238,178,126,79,5,0,0,0,0,0,0,0,1,7,25],"timestamp_mouse":[10,35,50,69,90,110,131,150,170,191,211,231,250,269,290,311,330,350,371,390,411,429,450,470,491,511,530,550,570,591,610,631,649,670,690,710,730,750,771,789,810,829,851,869,890,911,931,949],"xSR":741.5,"ySR":573.95,"xT1":424.9,"yT1":0,"xT2":1058.1,"yT2":0,"toosoon":0,"cond_shown":"equaldotsize","ratio_trial":250,"smaller_num":"6","larger_num":"24","correct_side":1,"subjID":"AndresMauricioAcostaPerez22","gender":"0","age":"11","school":"6"},{"start_time":1551881214267,"click_time":1551881215333,"finger_time":1551881215193,"fix_duration":1053.3528223403682,"trial":36,"RT":926,"MT":140,"sideResp":1,"stimulus":"img/750/equaldotanddens/L/6_Ratio_750_L_24_R_18.png","xmouse":[825,825,825,825,825,825,825,825,825,825,825,825,825,825,825,825,825,825,825,825,825,825,825,825,825,825,825,825,825,825,825,825,825,825,825,825,825,825,825,825,825,825,824,822,812,799,731,700,666,625,583,530,521,516],"ymouse":[624,624,624,624,624,624,624,624,624,624,624,624,624,624,624,624,624,624,624,624,624,624,624,624,624,624,624,624,624,624,624,624,624,624,624,624,624,624,624,624,624,624,622,618,601,577,441,380,324,262,204,130,111,98],"timestamp_mouse":[11,38,46,67,86,105,126,147,166,185,206,225,246,267,287,306,325,347,366,386,407,426,447,467,486,507,526,547,567,585,607,626,646,665,687,705,726,746,765,787,806,826,846,866,886,906,926,946,966,987,1006,1026,1046,1066],"xSR":741.5,"ySR":573.95,"xT1":424.9,"yT1":0,"xT2":1058.1,"yT2":0,"toosoon":0,"cond_shown":"equaldotanddens","ratio_trial":750,"smaller_num":"18","larger_num":"24","correct_side":1,"subjID":"AndresMauricioAcostaPerez22","gender":"0","age":"11","school":"6"},{"start_time":1551881217236,"click_time":1551881218174,"finger_time":1551881217893,"fix_duration":1442.528049680665,"trial":37,"RT":657,"MT":281,"sideResp":1,"stimulus":"img/250/randomdotsizeEA/L/5_Ratio_250_L_24_R_6.png","xmouse":[827,827,827,827,827,827,827,827,827,827,827,827,827,827,827,827,827,827,827,827,827,827,827,827,827,827,827,827,827,827,814,790,740,713,690,667,644,590,550,536,528,523,521,518,514,507,502],"ymouse":[664,664,664,664,664,664,664,664,664,664,664,664,664,664,664,664,664,664,664,664,664,664,664,664,664,664,664,664,664,662,637,597,510,467,429,392,352,281,234,214,201,183,171,152,131,111,91],"timestamp_mouse":[17,37,57,77,96,117,137,158,176,198,216,238,258,278,297,317,337,357,378,398,418,436,457,476,498,517,537,558,576,598,617,637,657,677,697,718,737,758,777,797,817,838,857,878,897,917,938],"xSR":741.5,"ySR":573.95,"xT1":424.9,"yT1":0,"xT2":1058.1,"yT2":0,"toosoon":0,"cond_shown":"randomdotsizeEA","ratio_trial":250,"smaller_num":"6","larger_num":"24","correct_side":1,"subjID":"AndresMauricioAcostaPerez22","gender":"0","age":"11","school":"6"},{"start_time":1551881220720,"click_time":1551881221874,"finger_time":1551881221274,"fix_duration":506.4536737623142,"trial":38,"RT":554,"MT":600,"sideResp":2,"stimulus":"img/750/equaldotsize/R/5_Ratio_750_L_15_R_20.png","xmouse":[768,768,768,768,768,768,768,768,768,768,768,768,768,768,768,768,768,768,768,768,768,768,768,768,768,767,775,814,900,936,963,989,1013,1045,1051,1055,1055,1055,1055,1055,1055,1054,1054,1043,1036,1011,993,983,976,976,976,976,976,980,999,1018,1040,1068],"ymouse":[647,647,647,647,647,647,647,647,647,647,647,647,647,647,647,647,647,647,647,647,647,647,647,647,647,643,626,573,436,370,313,246,170,46,12,0,0,0,0,0,4,19,55,203,237,327,367,389,405,405,405,405,397,248,166,98,49,3],"timestamp_mouse":[13,37,52,74,93,114,132,153,173,193,214,233,252,273,293,314,334,353,372,393,414,433,454,473,494,513,532,554,573,593,613,633,653,673,693,714,733,754,773,793,814,833,853,872,893,914,934,953,974,993,1014,1034,1053,1072,1093,1113,1132,1153],"xSR":741.5,"ySR":573.95,"xT1":424.9,"yT1":0,"xT2":1058.1,"yT2":0,"toosoon":0,"cond_shown":"equaldotsize","ratio_trial":750,"smaller_num":"15","larger_num":"20","correct_side":2,"subjID":"AndresMauricioAcostaPerez22","gender":"0","age":"11","school":"6"},{"start_time":1551881222619,"click_time":1551881223494,"finger_time":1551881223254,"fix_duration":263.38611018671475,"trial":39,"RT":635,"MT":240,"sideResp":1,"stimulus":"img/250/randomdotsizeEA/L/7_Ratio_250_L_8_R_2.png","xmouse":[783,783,783,783,783,783,783,783,783,783,783,783,783,783,783,783,783,783,783,783,783,783,783,783,783,783,783,783,783,780,745,715,675,587,556,531,504,473,471,472,481,484,485,490],"ymouse":[631,631,631,631,631,631,631,631,631,631,631,631,631,631,631,631,631,631,631,631,631,631,631,631,631,631,631,631,632,630,600,567,509,360,294,223,136,0,0,0,0,0,0,2],"timestamp_mouse":[13,37,55,74,95,113,134,154,174,194,214,234,254,274,294,314,334,354,373,395,414,435,453,474,495,513,534,554,574,593,614,635,654,674,694,714,734,756,775,795,814,833,855,875],"xSR":741.5,"ySR":573.95,"xT1":424.9,"yT1":0,"xT2":1058.1,"yT2":0,"toosoon":0,"cond_shown":"randomdotsizeEA","ratio_trial":250,"smaller_num":"2","larger_num":"8","correct_side":1,"subjID":"AndresMauricioAcostaPerez22","gender":"0","age":"11","school":"6"},{"start_time":1551881224579,"click_time":1551881225513,"finger_time":1551881225153,"fix_duration":405.41683114527984,"trial":40,"RT":574,"MT":360,"sideResp":2,"stimulus":"img/500/randomdotsizeEA/R/2_Ratio_500_L_3_R_6.png","xmouse":[753,753,753,753,753,753,753,753,753,753,753,753,753,753,753,753,753,753,753,753,753,753,753,753,754,759,761,764,771,784,819,839,872,890,930,951,969,984,997,1005,1018,1018,1018,1018,1024,1048,1060],"ymouse":[602,602,602,602,602,602,602,602,602,602,602,602,602,602,602,602,602,602,602,602,602,602,602,602,600,592,589,582,572,554,503,468,405,369,271,224,179,144,114,93,72,72,72,71,72,82,90],"timestamp_mouse":[28,35,55,75,93,115,134,155,174,194,213,233,254,275,293,314,334,354,375,394,414,434,454,475,494,514,534,554,574,594,613,633,654,674,695,714,734,754,774,794,814,834,854,874,895,915,934],"xSR":741.5,"ySR":573.95,"xT1":424.9,"yT1":0,"xT2":1058.1,"yT2":0,"toosoon":0,"cond_shown":"randomdotsizeEA","ratio_trial":500,"smaller_num":"3","larger_num":"6","correct_side":2,"subjID":"AndresMauricioAcostaPerez22","gender":"0","age":"11","school":"6"},{"start_time":1551881227296,"click_time":1551881228093,"finger_time":1551881227933,"fix_duration":1000.2502376194199,"trial":41,"RT":637,"MT":160,"sideResp":1,"stimulus":"img/900/equaldotanddens/L/2_Ratio_900_L_20_R_18.png","xmouse":[804,804,804,804,804,804,804,804,804,804,804,804,804,804,804,804,804,804,804,804,804,804,804,804,804,804,804,804,804,804,801,794,789,786,773,732,680,612,547,469],"ymouse":[589,589,589,589,589,589,589,589,589,589,589,589,589,589,589,589,589,589,589,589,589,589,589,589,589,589,589,589,589,589,583,573,567,562,533,442,344,233,139,3],"timestamp_mouse":[17,37,59,77,97,117,136,157,177,197,218,238,257,276,298,317,337,358,377,398,417,437,457,477,497,516,538,558,577,598,618,637,657,677,698,716,737,757,778,797],"xSR":741.5,"ySR":573.95,"xT1":424.9,"yT1":0,"xT2":1058.1,"yT2":0,"toosoon":0,"cond_shown":"equaldotanddens","ratio_trial":900,"smaller_num":"18","larger_num":"20","correct_side":1,"subjID":"AndresMauricioAcostaPerez22","gender":"0","age":"11","school":"6"},{"start_time":1551881229449,"click_time":1551881230392,"finger_time":1551881230253,"fix_duration":635.4599324731722,"trial":42,"RT":804,"MT":139,"sideResp":2,"stimulus":"img/900/randomdotsizeEA/R/13_Ratio_900_L_18_R_20.png","xmouse":[799,799,799,799,799,799,799,799,799,799,799,799,799,799,799,799,799,799,799,799,799,799,799,799,799,799,799,799,799,799,799,799,799,799,799,799,799,801,814,840,871,927,952,980,1009,1035,1055,1070],"ymouse":[656,656,656,656,656,656,656,656,656,656,656,656,656,656,656,656,656,656,656,656,656,656,656,656,656,656,656,656,656,656,656,656,656,656,656,656,656,650,631,594,546,438,381,314,241,177,117,40],"timestamp_mouse":[9,24,43,64,83,103,124,144,164,185,204,224,244,265,284,304,323,345,363,383,404,423,445,464,484,503,524,543,564,584,604,625,644,665,684,704,724,744,764,785,804,825,844,865,884,904,925,943],"xSR":741.5,"ySR":573.95,"xT1":424.9,"yT1":0,"xT2":1058.1,"yT2":0,"toosoon":0,"cond_shown":"randomdotsizeEA","ratio_trial":900,"smaller_num":"18","larger_num":"20","correct_side":2,"subjID":"AndresMauricioAcostaPerez22","gender":"0","age":"11","school":"6"},{"start_time":1551881231250,"click_time":1551881232273,"finger_time":1551881232112,"fix_duration":375.0673281737236,"trial":43,"RT":862,"MT":161,"sideResp":2,"stimulus":"img/500/equaldotanddens/R/9_Ratio_500_L_2_R_4.png","xmouse":[774,774,774,774,774,774,774,774,774,774,774,774,774,774,774,774,774,774,774,774,774,774,774,774,774,774,774,774,774,774,774,774,774,774,774,774,774,774,774,774,774,778,803,818,836,860,920,952,1021,1064,1099,1122],"ymouse":[628,628,628,628,628,628,628,628,628,628,628,628,628,628,628,628,628,628,628,628,628,628,628,628,628,628,628,628,628,628,628,628,628,628,628,628,628,628,628,628,626,619,587,570,549,516,436,387,267,187,111,48],"timestamp_mouse":[5,30,43,64,84,102,124,143,163,182,204,223,243,263,284,303,323,343,362,384,404,423,444,463,483,503,523,543,562,583,602,623,643,664,684,704,723,744,763,783,802,823,844,862,884,903,924,942,963,982,1003,1023],"xSR":741.5,"ySR":573.95,"xT1":424.9,"yT1":0,"xT2":1058.1,"yT2":0,"toosoon":0,"cond_shown":"equaldotanddens","ratio_trial":500,"smaller_num":"2","larger_num":"4","correct_side":2,"subjID":"AndresMauricioAcostaPerez22","gender":"0","age":"11","school":"6"},{"start_time":1551881233574,"click_time":1551881234573,"finger_time":1551881234293,"fix_duration":779.2011484560544,"trial":44,"RT":719,"MT":280,"sideResp":1,"stimulus":"img/750/randomdotsizeEA/R/15_Ratio_750_L_9_R_12.png","xmouse":[768,768,768,768,768,768,768,768,768,768,768,768,768,768,768,768,768,768,768,768,768,768,768,768,768,768,768,768,768,768,768,768,768,768,765,760,735,711,691,668,643,600,560,533,516,505,490,486,486,486,492],"ymouse":[617,617,617,617,617,617,617,617,617,617,617,617,617,617,617,617,617,617,617,617,617,617,617,617,617,617,617,617,617,617,617,617,617,617,615,607,558,520,488,450,412,342,285,244,219,195,153,133,117,102,85],"timestamp_mouse":[1,20,44,58,80,100,118,139,159,178,199,218,238,258,278,299,320,338,358,379,398,419,439,459,479,499,520,539,559,580,598,620,639,658,678,699,719,739,758,779,799,819,839,859,879,899,920,939,959,979,999],"xSR":741.5,"ySR":573.95,"xT1":424.9,"yT1":0,"xT2":1058.1,"yT2":0,"toosoon":0,"cond_shown":"randomdotsizeEA","ratio_trial":750,"smaller_num":"9","larger_num":"12","correct_side":2,"subjID":"AndresMauricioAcostaPerez22","gender":"0","age":"11","school":"6"},{"start_time":1551881235591,"click_time":1551881237074,"finger_time":1551881236513,"fix_duration":296.92893544856145,"trial":45,"RT":922,"MT":561,"sideResp":1,"stimulus":"img/900/equaldotanddens/L/4_Ratio_900_L_20_R_18.png","xmouse":[804,804,804,804,804,804,803,803,803,803,803,803,803,803,803,803,803,803,803,803,803,803,803,803,803,803,803,803,803,803,803,803,803,803,803,803,803,803,803,803,803,803,802,801,792,761,721,672,615,489,398,349,320,314,314,320,325,326,327,331,384,474,533,581,606,614,615,615,616,616,607,587,563,530,494],"ymouse":[620,620,620,620,620,620,620,620,620,620,620,620,620,620,620,620,620,620,620,620,620,620,620,620,620,620,620,620,620,620,620,620,620,620,620,620,620,620,620,620,620,620,619,617,609,576,527,461,375,181,46,0,0,0,0,0,0,0,0,0,51,126,178,214,229,232,232,232,232,228,200,171,144,108,68],"timestamp_mouse":[8,23,42,64,82,102,123,143,161,183,201,223,243,261,283,302,321,342,362,381,402,422,442,463,483,502,522,542,562,582,602,622,642,662,682,702,723,742,762,782,802,822,843,863,881,903,922,943,962,983,1002,1023,1042,1062,1081,1101,1122,1142,1162,1183,1203,1222,1243,1262,1282,1302,1322,1343,1362,1383,1402,1423,1442,1463,1483],"xSR":741.5,"ySR":573.95,"xT1":424.9,"yT1":0,"xT2":1058.1,"yT2":0,"toosoon":0,"cond_shown":"equaldotanddens","ratio_trial":900,"smaller_num":"18","larger_num":"20","correct_side":1,"subjID":"AndresMauricioAcostaPerez22","gender":"0","age":"11","school":"6"},{"start_time":1551881239688,"click_time":1551881240792,"finger_time":1551881240693,"fix_duration":433.60060639836604,"trial":46,"RT":1005,"MT":99,"sideResp":1,"stimulus":"img/900/equaldotsize/R/12_Ratio_900_L_18_R_20.png","xmouse":[786,786,786,786,786,786,786,786,786,786,786,786,786,786,786,786,786,786,786,786,786,786,786,786,786,786,786,786,786,786,786,786,786,786,786,787,790,793,796,800,805,806,806,806,806,806,806,806,806,796,736,686,642,609,575,520],"ymouse":[644,644,644,644,644,644,644,644,644,644,644,644,644,644,644,644,644,644,644,644,644,644,644,644,644,644,644,644,644,644,644,644,644,644,644,643,640,635,631,625,618,614,614,614,614,614,614,612,609,588,512,453,388,322,247,90],"timestamp_mouse":[9,39,45,64,85,105,124,146,165,184,205,225,244,266,284,305,326,344,365,385,405,425,444,465,486,505,525,545,565,584,606,625,646,665,685,704,725,745,765,785,805,825,845,866,885,905,924,945,965,986,1005,1025,1045,1065,1085,1104],"xSR":741.5,"ySR":573.95,"xT1":424.9,"yT1":0,"xT2":1058.1,"yT2":0,"toosoon":0,"cond_shown":"equaldotsize","ratio_trial":900,"smaller_num":"18","larger_num":"20","correct_side":2,"subjID":"AndresMauricioAcostaPerez22","gender":"0","age":"11","school":"6"},{"start_time":1551881241806,"click_time":1551881242793,"finger_time":1551881242453,"fix_duration":250,"trial":47,"RT":647,"MT":340,"sideResp":2,"stimulus":"img/500/equaldotanddens/R/14_Ratio_500_L_5_R_10.png","xmouse":[764,764,764,764,764,764,764,764,764,764,764,764,764,764,764,764,764,764,764,764,764,764,764,764,764,764,764,764,764,771,784,805,843,901,974,1007,1050,1086,1127,1191,1201,1207,1209,1209,1197,1193,1191,1189,1183,1139],"ymouse":[605,605,605,605,605,605,605,605,605,605,605,605,605,605,605,605,605,605,605,605,605,605,605,605,605,605,605,605,605,605,597,584,554,510,444,406,362,320,276,174,148,119,91,68,36,30,28,27,27,37],"timestamp_mouse":[16,31,47,66,88,108,128,148,167,187,208,228,248,266,287,307,327,347,368,387,407,427,448,468,486,508,527,548,566,587,608,628,647,667,688,707,727,747,766,787,807,827,847,867,888,908,927,948,967,987],"xSR":741.5,"ySR":573.95,"xT1":424.9,"yT1":0,"xT2":1058.1,"yT2":0,"toosoon":0,"cond_shown":"equaldotanddens","ratio_trial":500,"smaller_num":"5","larger_num":"10","correct_side":2,"subjID":"AndresMauricioAcostaPerez22","gender":"0","age":"11","school":"6"},{"start_time":1551881243803,"click_time":1551881244794,"finger_time":1551881244453,"fix_duration":387.0874800012446,"trial":48,"RT":650,"MT":341,"sideResp":1,"stimulus":"img/250/equaldotanddens/L/2_Ratio_250_L_16_R_4.png","xmouse":[782,782,782,782,782,782,782,782,782,782,782,782,782,782,782,782,782,782,782,782,782,782,782,782,782,782,782,782,782,782,782,777,771,750,694,647,603,569,553,547,547,547,547,547,547,547,547,546,541,511],"ymouse":[611,611,611,611,611,611,611,611,611,611,611,611,611,611,611,611,611,611,611,611,611,611,611,611,611,611,611,611,611,611,611,609,567,470,252,145,40,0,0,0,0,0,0,0,0,0,0,0,8,98],"timestamp_mouse":[11,37,51,69,91,111,130,151,170,189,211,229,251,270,291,310,331,351,370,389,410,429,449,470,489,511,529,550,570,589,610,631,650,669,690,710,730,751,770,790,810,830,850,869,890,909,929,950,970,990],"xSR":741.5,"ySR":573.95,"xT1":424.9,"yT1":0,"xT2":1058.1,"yT2":0,"toosoon":0,"cond_shown":"equaldotanddens","ratio_trial":250,"smaller_num":"4","larger_num":"16","correct_side":1,"subjID":"AndresMauricioAcostaPerez22","gender":"0","age":"11","school":"6"},{"start_time":1551881246366,"click_time":1551881247475,"finger_time":1551881247394,"fix_duration":751.5452849986631,"trial":49,"RT":1028,"MT":81,"sideResp":1,"stimulus":"img/500/randomdotsizeEA/L/8_Ratio_500_L_8_R_4.png","xmouse":[781,781,781,781,781,781,781,781,781,781,781,781,781,781,781,781,781,781,781,781,781,781,781,781,781,781,781,781,781,781,781,781,781,781,781,781,781,781,781,781,781,781,781,781,781,781,781,781,780,766,751,690,600,542,502,466],"ymouse":[613,613,613,613,613,613,613,613,613,613,613,613,613,613,613,613,613,613,613,613,613,613,613,613,613,613,613,613,613,613,613,613,613,613,613,613,613,613,613,613,613,613,613,613,613,613,613,612,610,600,584,485,330,216,117,10],"timestamp_mouse":[10,38,47,68,88,108,126,148,167,187,206,226,247,266,288,307,328,346,367,387,407,426,448,467,486,508,528,547,567,586,608,627,647,667,686,707,727,748,767,788,807,826,847,867,888,906,927,946,967,988,1006,1028,1047,1067,1087,1108],"xSR":741.5,"ySR":573.95,"xT1":424.9,"yT1":0,"xT2":1058.1,"yT2":0,"toosoon":0,"cond_shown":"randomdotsizeEA","ratio_trial":500,"smaller_num":"4","larger_num":"8","correct_side":1,"subjID":"AndresMauricioAcostaPerez22","gender":"0","age":"11","school":"6"},{"start_time":1551881249985,"click_time":1551881250873,"finger_time":1551881250792,"fix_duration":250,"trial":50,"RT":807,"MT":81,"sideResp":2,"stimulus":"img/900/randomdotsizeEA/R/9_Ratio_900_L_18_R_20.png","xmouse":[793,793,793,793,793,793,793,793,793,793,793,793,793,793,793,793,793,793,793,793,793,793,793,793,793,793,793,793,793,793,793,793,793,793,793,793,793,793,797,825,874,925,979,1032,1085],"ymouse":[638,638,638,638,638,638,638,638,638,638,638,638,638,638,638,638,638,638,638,638,638,638,638,638,638,638,638,638,638,638,638,638,638,638,638,638,638,638,631,581,474,381,273,164,53],"timestamp_mouse":[9,28,47,68,89,107,128,148,168,187,208,229,249,268,289,309,328,348,369,389,407,428,447,469,487,507,528,548,567,589,608,628,647,669,689,708,727,749,769,789,807,829,848,869,888],"xSR":741.5,"ySR":573.95,"xT1":424.9,"yT1":0,"xT2":1058.1,"yT2":0,"toosoon":0,"cond_shown":"randomdotsizeEA","ratio_trial":900,"smaller_num":"18","larger_num":"20","correct_side":2,"subjID":"AndresMauricioAcostaPerez22","gender":"0","age":"11","school":"6"},{"start_time":1551881252007,"click_time":1551881252793,"finger_time":1551881252733,"fix_duration":631.6757486861756,"trial":51,"RT":726,"MT":60,"sideResp":2,"stimulus":"img/750/randomdotsizeEA/L/10_Ratio_750_L_4_R_3.png","xmouse":[778,778,778,778,778,778,778,778,778,778,778,778,778,778,778,778,778,778,778,778,778,778,778,778,778,778,778,778,778,778,778,778,778,778,779,790,812,844,896,1080],"ymouse":[663,663,663,663,663,659,657,655,654,654,654,654,654,654,654,654,654,654,654,654,654,654,654,654,654,654,654,654,654,654,654,654,654,653,642,617,573,500,407,91],"timestamp_mouse":[8,32,46,66,86,105,127,146,167,187,206,225,246,266,286,307,325,346,367,387,407,427,445,466,487,506,527,545,566,586,605,627,647,665,686,706,726,746,766,786],"xSR":741.5,"ySR":573.95,"xT1":424.9,"yT1":0,"xT2":1058.1,"yT2":0,"toosoon":0,"cond_shown":"randomdotsizeEA","ratio_trial":750,"smaller_num":"3","larger_num":"4","correct_side":1,"subjID":"AndresMauricioAcostaPerez22","gender":"0","age":"11","school":"6"},{"start_time":1551881254088,"click_time":1551881254833,"finger_time":1551881254713,"fix_duration":572.095001432922,"trial":52,"RT":625,"MT":120,"sideResp":1,"stimulus":"img/250/randomdotsizeEA/L/2_Ratio_250_L_16_R_4.png","xmouse":[780,780,780,780,780,780,780,780,780,780,780,780,780,780,780,780,780,780,780,780,780,780,780,780,780,780,780,780,780,780,780,777,760,727,688,597,553,524],"ymouse":[594,594,594,594,594,594,594,594,594,594,594,594,594,594,594,594,594,594,594,594,594,594,594,594,594,594,594,594,594,594,592,563,503,427,351,196,95,22],"timestamp_mouse":[8,37,45,65,85,105,125,144,164,186,205,224,244,265,286,305,326,344,365,385,404,426,444,466,484,504,525,544,566,586,604,625,645,665,685,704,725,745],"xSR":741.5,"ySR":573.95,"xT1":424.9,"yT1":0,"xT2":1058.1,"yT2":0,"toosoon":0,"cond_shown":"randomdotsizeEA","ratio_trial":250,"smaller_num":"4","larger_num":"16","correct_side":1,"subjID":"AndresMauricioAcostaPerez22","gender":"0","age":"11","school":"6"},{"start_time":1551881256285,"click_time":1551881257073,"finger_time":1551881256853,"fix_duration":292.77084460655857,"trial":53,"RT":568,"MT":220,"sideResp":1,"stimulus":"img/500/equaldotsize/L/13_Ratio_500_L_12_R_6.png","xmouse":[808,808,808,808,808,808,808,808,808,808,808,808,808,808,808,808,808,808,808,808,808,808,808,808,808,808,808,795,764,655,593,531,479,452,444,447,448,448,448,449],"ymouse":[625,625,625,625,625,625,625,625,625,625,625,625,625,625,625,625,625,625,625,625,625,625,625,625,625,625,625,574,481,262,152,43,0,0,0,0,0,0,0,1],"timestamp_mouse":[9,28,51,68,87,107,127,149,168,187,208,228,248,269,288,307,328,348,369,389,408,429,447,468,488,508,528,548,568,589,608,628,648,668,689,707,728,748,768,788],"xSR":741.5,"ySR":573.95,"xT1":424.9,"yT1":0,"xT2":1058.1,"yT2":0,"toosoon":0,"cond_shown":"equaldotsize","ratio_trial":500,"smaller_num":"6","larger_num":"12","correct_side":1,"subjID":"AndresMauricioAcostaPerez22","gender":"0","age":"11","school":"6"},{"start_time":1551881258047,"click_time":1551881258854,"finger_time":1551881258593,"fix_duration":250,"trial":54,"RT":546,"MT":261,"sideResp":1,"stimulus":"img/250/equaldotsize/L/14_Ratio_250_L_12_R_3.png","xmouse":[753,753,753,753,753,753,753,753,753,753,753,753,753,753,753,753,753,753,753,753,753,753,753,753,754,753,747,685,641,590,529,458,368,361,360,360,363,364,366,382,433],"ymouse":[629,629,629,629,629,629,629,629,629,629,629,629,629,629,629,629,629,629,629,629,629,629,629,629,628,623,612,493,411,322,221,113,0,0,0,0,0,0,0,12,60],"timestamp_mouse":[5,38,46,67,87,106,125,147,166,185,206,226,246,266,286,306,326,347,365,385,405,425,445,465,485,505,526,546,566,586,605,627,647,666,686,705,726,746,765,786,807],"xSR":741.5,"ySR":573.95,"xT1":424.9,"yT1":0,"xT2":1058.1,"yT2":0,"toosoon":0,"cond_shown":"equaldotsize","ratio_trial":250,"smaller_num":"3","larger_num":"12","correct_side":1,"subjID":"AndresMauricioAcostaPerez22","gender":"0","age":"11","school":"6"},{"start_time":1551881260490,"click_time":1551881261013,"finger_time":1551881260914,"fix_duration":896.6409326540017,"trial":55,"RT":424,"MT":99,"sideResp":2,"stimulus":"img/750/equaldotsize/R/11_Ratio_750_L_12_R_16.png","xmouse":[754,754,754,756,757,758,758,758,758,758,758,758,758,758,758,758,758,758,758,760,783,823,876,934,990,1072,1097],"ymouse":[619,619,619,619,619,619,619,619,619,619,619,619,619,619,619,619,619,619,619,619,597,559,492,413,322,113,27],"timestamp_mouse":[8,32,44,62,82,102,124,142,164,182,203,224,243,263,283,302,322,344,363,383,403,424,443,464,483,503,523],"xSR":741.5,"ySR":573.95,"xT1":424.9,"yT1":0,"xT2":1058.1,"yT2":0,"toosoon":0,"cond_shown":"equaldotsize","ratio_trial":750,"smaller_num":"12","larger_num":"16","correct_side":2,"subjID":"AndresMauricioAcostaPerez22","gender":"0","age":"11","school":"6"},{"start_time":1551881262476,"click_time":1551881263152,"finger_time":1551881262933,"fix_duration":922.7246298601683,"trial":56,"RT":457,"MT":219,"sideResp":1,"stimulus":"img/750/equaldotanddens/L/13_Ratio_750_L_8_R_6.png","xmouse":[769,769,769,769,769,769,769,769,769,769,769,769,769,769,769,769,769,769,769,769,768,762,743,707,660,541,469,439,423,420,420,420,421,426],"ymouse":[597,597,597,597,597,597,597,597,597,597,597,597,597,597,597,597,597,597,597,597,597,576,516,430,322,101,0,0,0,0,0,0,3,13],"timestamp_mouse":[17,42,58,77,98,116,137,157,177,196,218,236,258,276,298,316,337,358,378,397,418,438,457,477,497,518,537,557,577,597,617,637,657,676],"xSR":741.5,"ySR":573.95,"xT1":424.9,"yT1":0,"xT2":1058.1,"yT2":0,"toosoon":0,"cond_shown":"equaldotanddens","ratio_trial":750,"smaller_num":"6","larger_num":"8","correct_side":1,"subjID":"AndresMauricioAcostaPerez22","gender":"0","age":"11","school":"6"},{"start_time":1551881264933,"click_time":1551881265552,"finger_time":1551881265432,"fix_duration":1257.093934552979,"trial":57,"RT":499,"MT":120,"sideResp":2,"stimulus":"img/250/equaldotanddens/R/12_Ratio_250_L_5_R_20.png","xmouse":[748,748,748,748,748,748,748,748,748,748,748,748,748,748,748,748,748,748,748,748,748,748,748,749,754,764,780,804,891,947,1017,1068],"ymouse":[603,603,603,603,603,603,603,603,603,603,603,603,603,603,603,603,603,603,603,603,603,603,603,597,588,571,545,503,343,252,147,61],"timestamp_mouse":[1,19,40,59,80,100,121,139,160,180,199,221,241,259,280,300,321,340,360,379,400,420,440,460,481,499,520,541,560,580,600,619],"xSR":741.5,"ySR":573.95,"xT1":424.9,"yT1":0,"xT2":1058.1,"yT2":0,"toosoon":0,"cond_shown":"equaldotanddens","ratio_trial":250,"smaller_num":"5","larger_num":"20","correct_side":2,"subjID":"AndresMauricioAcostaPerez22","gender":"0","age":"11","school":"6"},{"start_time":1551881267763,"click_time":1551881268434,"finger_time":1551881268193,"fix_duration":1469.4404647864437,"trial":58,"RT":430,"MT":241,"sideResp":1,"stimulus":"img/500/equaldotsize/L/13_Ratio_500_L_12_R_6.png","xmouse":[798,798,798,798,798,798,798,798,798,798,798,798,798,798,798,798,798,798,798,796,792,750,716,669,609,561,479,461,455,454,454,454,454,460],"ymouse":[595,595,595,595,595,595,595,595,595,595,595,595,595,595,595,595,595,595,595,595,585,467,382,279,167,59,0,0,0,0,0,0,0,6],"timestamp_mouse":[10,33,50,71,91,109,131,150,170,191,210,231,251,270,291,310,329,350,370,390,410,430,449,469,489,511,530,549,570,591,610,630,650,670],"xSR":741.5,"ySR":573.95,"xT1":424.9,"yT1":0,"xT2":1058.1,"yT2":0,"toosoon":0,"cond_shown":"equaldotsize","ratio_trial":500,"smaller_num":"6","larger_num":"12","correct_side":1,"subjID":"AndresMauricioAcostaPerez22","gender":"0","age":"11","school":"6"},{"start_time":1551881270584,"click_time":1551881271553,"finger_time":1551881271453,"fix_duration":250,"trial":59,"RT":869,"MT":100,"sideResp":1,"stimulus":"img/500/randomdotsizeEA/L/4_Ratio_500_L_18_R_9.png","xmouse":[786,786,786,786,786,786,786,786,786,786,786,786,786,786,786,786,786,786,786,786,786,786,786,786,786,786,786,786,786,786,786,786,786,786,786,786,786,786,786,786,783,771,749,719,666,556,511,467,436],"ymouse":[656,656,656,656,656,656,656,656,656,656,656,656,656,656,656,656,656,656,656,656,656,656,656,656,656,656,656,656,656,656,656,656,656,656,656,656,656,656,656,656,642,621,584,547,473,308,223,141,68],"timestamp_mouse":[9,38,49,68,88,110,128,149,169,189,208,230,248,268,290,309,329,350,369,389,409,428,448,470,488,508,530,548,569,589,609,629,649,670,690,709,729,749,769,789,809,829,850,869,890,909,929,950,969],"xSR":741.5,"ySR":573.95,"xT1":424.9,"yT1":0,"xT2":1058.1,"yT2":0,"toosoon":0,"cond_shown":"randomdotsizeEA","ratio_trial":500,"smaller_num":"9","larger_num":"18","correct_side":1,"subjID":"AndresMauricioAcostaPerez22","gender":"0","age":"11","school":"6"},{"start_time":1551881273891,"click_time":1551881274632,"finger_time":1551881274414,"fix_duration":1495.8286716040082,"trial":60,"RT":523,"MT":218,"sideResp":2,"stimulus":"img/500/equaldotanddens/R/14_Ratio_500_L_5_R_10.png","xmouse":[765,765,765,765,765,765,765,765,765,765,765,765,765,765,765,765,765,765,765,765,765,765,765,765,766,783,857,908,971,1031,1132,1159,1165,1167,1168,1168,1166,1158],"ymouse":[603,603,603,603,603,603,603,603,603,603,603,603,603,603,603,603,603,603,603,603,603,603,603,603,604,577,447,341,214,79,0,0,0,0,0,0,4,26],"timestamp_mouse":[11,37,42,63,82,102,123,141,162,182,203,221,243,261,283,302,322,342,362,382,401,423,443,463,482,502,523,541,562,583,603,622,642,662,682,703,722,741],"xSR":741.5,"ySR":573.95,"xT1":424.9,"yT1":0,"xT2":1058.1,"yT2":0,"toosoon":0,"cond_shown":"equaldotanddens","ratio_trial":500,"smaller_num":"5","larger_num":"10","correct_side":2,"subjID":"AndresMauricioAcostaPerez22","gender":"0","age":"11","school":"6"},{"start_time":1551881276666,"click_time":1551881277214,"finger_time":1551881277092,"fix_duration":1352.5516413580224,"trial":61,"RT":426,"MT":122,"sideResp":1,"stimulus":"img/750/equaldotsize/L/9_Ratio_750_L_4_R_3.png","xmouse":[796,796,796,796,796,796,796,796,796,796,796,796,796,796,796,796,796,796,796,796,792,773,748,711,660,608,534,507],"ymouse":[604,604,604,604,604,604,604,604,604,604,604,604,604,604,604,604,604,604,604,604,602,570,537,483,419,350,188,78],"timestamp_mouse":[11,35,46,67,86,106,126,147,166,187,206,227,246,267,288,307,328,347,367,387,408,426,447,467,488,507,528,547],"xSR":741.5,"ySR":573.95,"xT1":424.9,"yT1":0,"xT2":1058.1,"yT2":0,"toosoon":0,"cond_shown":"equaldotsize","ratio_trial":750,"smaller_num":"3","larger_num":"4","correct_side":1,"subjID":"AndresMauricioAcostaPerez22","gender":"0","age":"11","school":"6"},{"start_time":1551881278184,"click_time":1551881278813,"finger_time":1551881278734,"fix_duration":250,"trial":62,"RT":550,"MT":79,"sideResp":1,"stimulus":"img/250/equaldotanddens/L/3_Ratio_250_L_8_R_2.png","xmouse":[782,782,782,782,782,782,782,782,782,782,782,782,782,782,782,782,782,782,782,782,782,782,782,782,782,774,749,704,654,591,500,475],"ymouse":[637,637,637,637,637,637,637,637,637,637,637,637,637,637,637,637,637,637,637,637,637,637,637,637,637,624,590,515,417,317,143,77],"timestamp_mouse":[9,39,49,70,88,110,130,148,170,189,210,229,249,269,290,309,329,349,369,390,408,430,449,469,490,509,529,550,569,589,609,629],"xSR":741.5,"ySR":573.95,"xT1":424.9,"yT1":0,"xT2":1058.1,"yT2":0,"toosoon":0,"cond_shown":"equaldotanddens","ratio_trial":250,"smaller_num":"2","larger_num":"8","correct_side":1,"subjID":"AndresMauricioAcostaPerez22","gender":"0","age":"11","school":"6"},{"start_time":1551881280064,"click_time":1551881280614,"finger_time":1551881280514,"fix_duration":750.4587267547105,"trial":63,"RT":450,"MT":100,"sideResp":2,"stimulus":"img/250/equaldotsize/R/12_Ratio_250_L_5_R_20.png","xmouse":[764,764,764,764,764,764,764,764,764,764,764,764,764,764,764,764,764,764,764,764,768,815,867,917,969,1019,1084,1111],"ymouse":[641,641,641,641,641,641,641,641,641,641,641,641,641,641,641,641,641,641,641,641,639,600,540,472,401,310,104,14],"timestamp_mouse":[8,30,48,70,89,108,130,149,170,190,208,228,249,269,288,309,329,349,369,389,410,429,450,468,488,509,529,549],"xSR":741.5,"ySR":573.95,"xT1":424.9,"yT1":0,"xT2":1058.1,"yT2":0,"toosoon":0,"cond_shown":"equaldotsize","ratio_trial":250,"smaller_num":"5","larger_num":"20","correct_side":2,"subjID":"AndresMauricioAcostaPerez22","gender":"0","age":"11","school":"6"},{"start_time":1551881283111,"click_time":1551881284773,"finger_time":1551881283593,"fix_duration":457.49300272282056,"trial":64,"RT":482,"MT":1180,"sideResp":2,"stimulus":"img/250/equaldotanddens/R/11_Ratio_250_L_3_R_12.png","xmouse":[795,795,795,795,795,795,795,795,795,795,795,795,795,795,795,795,795,795,795,795,795,795,812,833,936,972,998,1013,1027,1042,1049,1051,1051,1051,1050,1034,997,972,954,943,942,941,937,932,922,921,920,917,913,901,891,882,879,879,887,915,973,1043,1107,1224,1259,1268,1269,1269,1260,1226,1160,1078,978,811,746,700,684,683,695,734,793,864,948,1106,1141,1154,1155,1157],"ymouse":[642,642,642,642,642,642,642,642,642,642,642,642,642,642,642,642,642,642,642,642,642,642,619,589,381,297,218,151,87,18,0,0,0,0,10,65,187,276,351,409,422,431,438,447,458,458,459,460,461,465,468,470,470,470,460,426,359,271,179,0,0,0,0,0,12,68,158,257,349,475,516,546,557,557,534,460,356,245,134,0,0,0,0,5],"timestamp_mouse":[8,33,43,62,82,103,121,143,163,181,202,222,243,261,282,302,321,342,362,382,402,422,443,462,482,501,522,542,562,582,603,623,642,663,681,701,721,741,761,781,802,822,842,863,883,903,922,943,962,983,1001,1021,1042,1061,1082,1102,1123,1141,1161,1183,1201,1222,1242,1261,1282,1301,1321,1341,1362,1382,1403,1423,1442,1462,1481,1501,1522,1543,1563,1582,1603,1623,1642,1662],"xSR":741.5,"ySR":573.95,"xT1":424.9,"yT1":0,"xT2":1058.1,"yT2":0,"toosoon":0,"cond_shown":"equaldotanddens","ratio_trial":250,"smaller_num":"3","larger_num":"12","correct_side":2,"subjID":"AndresMauricioAcostaPerez22","gender":"0","age":"11","school":"6"},{"start_time":1551881285566,"click_time":1551881286254,"finger_time":1551881286014,"fix_duration":250,"trial":65,"RT":448,"MT":240,"sideResp":1,"stimulus":"img/900/equaldotsize/R/12_Ratio_900_L_18_R_20.png","xmouse":[818,818,818,818,818,818,818,818,818,818,818,818,818,818,818,818,818,818,818,818,815,815,815,814,813,812,800,787,766,732,687,580,525,504,497],"ymouse":[648,648,648,648,648,648,648,648,648,648,648,648,648,648,648,648,648,648,644,641,630,583,570,566,565,565,564,560,544,507,442,287,164,108,69],"timestamp_mouse":[7,27,48,67,88,108,127,146,167,188,207,227,247,268,288,306,327,348,367,388,406,427,448,466,488,508,528,547,567,588,607,627,648,667,688],"xSR":741.5,"ySR":573.95,"xT1":424.9,"yT1":0,"xT2":1058.1,"yT2":0,"toosoon":0,"cond_shown":"equaldotsize","ratio_trial":900,"smaller_num":"18","larger_num":"20","correct_side":2,"subjID":"AndresMauricioAcostaPerez22","gender":"0","age":"11","school":"6"},{"start_time":1551881287992,"click_time":1551881288511,"finger_time":1551881288431,"fix_duration":1000.3486160155308,"trial":66,"RT":439,"MT":80,"sideResp":2,"stimulus":"img/250/equaldotsize/R/10_Ratio_250_L_4_R_16.png","xmouse":[813,813,813,813,813,813,813,813,813,813,813,813,813,813,813,813,813,813,813,813,813,849,909,971,1097,1142],"ymouse":[630,630,630,630,630,630,630,630,630,630,630,630,630,630,630,630,630,630,630,630,623,573,483,374,127,22],"timestamp_mouse":[34,40,61,80,99,121,139,159,179,199,219,239,259,279,299,320,339,359,379,399,419,439,460,480,499,519],"xSR":741.5,"ySR":573.95,"xT1":424.9,"yT1":0,"xT2":1058.1,"yT2":0,"toosoon":0,"cond_shown":"equaldotsize","ratio_trial":250,"smaller_num":"4","larger_num":"16","correct_side":2,"subjID":"AndresMauricioAcostaPerez22","gender":"0","age":"11","school":"6"},{"start_time":1551881292030,"click_time":1551881293073,"finger_time":1551881292612,"fix_duration":1497.0526144741161,"trial":67,"RT":582,"MT":461,"sideResp":1,"stimulus":"img/900/randomdotsizeEA/L/10_Ratio_900_L_20_R_18.png","xmouse":[775,775,776,783,784,785,785,785,785,785,785,785,785,785,785,785,785,785,785,785,785,785,784,784,784,784,784,784,784,781,767,744,721,675,654,641,632,625,623,623,623,623,623,619,607,578,539,507,487,487,487,487,491],"ymouse":[635,635,635,619,613,610,608,608,608,608,608,608,608,608,608,608,608,608,608,608,610,614,617,620,620,620,620,619,597,539,482,414,345,200,137,96,68,55,50,50,50,50,50,49,44,27,5,0,0,0,0,0,8],"timestamp_mouse":[11,22,41,62,83,102,122,142,161,181,202,221,242,261,282,301,321,341,362,382,403,422,443,462,481,501,522,541,563,582,602,622,641,661,681,702,722,742,762,782,801,823,842,863,883,902,922,942,963,983,1002,1021,1043],"xSR":741.5,"ySR":573.95,"xT1":424.9,"yT1":0,"xT2":1058.1,"yT2":0,"toosoon":0,"cond_shown":"randomdotsizeEA","ratio_trial":900,"smaller_num":"18","larger_num":"20","correct_side":1,"subjID":"AndresMauricioAcostaPerez22","gender":"0","age":"11","school":"6"},{"start_time":1551881293845,"click_time":1551881295032,"finger_time":1551881294953,"fix_duration":250,"trial":68,"RT":1108,"MT":79,"sideResp":1,"stimulus":"img/750/randomdotsizeEA/R/12_Ratio_750_L_3_R_4.png","xmouse":[763,763,763,763,763,765,767,767,767,767,767,767,767,767,767,767,767,767,767,767,767,767,767,767,767,767,767,767,767,768,770,777,793,795,795,795,795,795,795,792,790,789,782,776,765,756,751,750,750,750,750,750,750,746,743,729,702,610,536,499],"ymouse":[635,635,635,635,635,635,635,635,635,635,635,635,635,635,635,635,635,635,635,635,635,635,635,635,635,635,635,635,635,635,633,624,606,604,604,604,604,604,604,604,605,605,607,608,609,609,610,611,611,611,611,611,611,610,599,554,482,290,134,43],"timestamp_mouse":[6,33,47,67,86,106,127,147,167,186,208,226,247,267,287,307,328,346,366,386,407,426,447,467,487,506,527,546,567,586,607,627,647,667,687,707,727,748,767,787,807,826,846,868,887,906,928,948,966,987,1007,1028,1048,1067,1087,1108,1128,1147,1168,1187],"xSR":741.5,"ySR":573.95,"xT1":424.9,"yT1":0,"xT2":1058.1,"yT2":0,"toosoon":0,"cond_shown":"randomdotsizeEA","ratio_trial":750,"smaller_num":"3","larger_num":"4","correct_side":2,"subjID":"AndresMauricioAcostaPerez22","gender":"0","age":"11","school":"6"},{"start_time":1551881296383,"click_time":1551881297112,"finger_time":1551881296991,"fix_duration":629.1386829855185,"trial":69,"RT":608,"MT":121,"sideResp":1,"stimulus":"img/500/randomdotsizeEA/L/5_Ratio_500_L_4_R_2.png","xmouse":[789,789,789,789,789,789,789,789,789,789,789,789,789,789,789,789,789,789,789,789,789,789,789,789,789,789,789,789,789,789,737,686,630,592,566,528,518],"ymouse":[608,608,608,608,608,608,608,608,608,608,608,608,608,608,608,608,608,608,608,608,608,608,608,608,608,608,608,608,608,603,509,431,354,285,221,83,43],"timestamp_mouse":[9,37,48,68,89,110,128,148,170,188,208,229,249,269,288,308,330,349,369,388,409,430,449,468,488,508,528,549,569,588,608,630,649,669,689,709,729],"xSR":741.5,"ySR":573.95,"xT1":424.9,"yT1":0,"xT2":1058.1,"yT2":0,"toosoon":0,"cond_shown":"randomdotsizeEA","ratio_trial":500,"smaller_num":"2","larger_num":"4","correct_side":1,"subjID":"AndresMauricioAcostaPerez22","gender":"0","age":"11","school":"6"},{"start_time":1551881299924,"click_time":1551881301371,"finger_time":1551881300773,"fix_duration":811.7683604970606,"trial":70,"RT":849,"MT":598,"sideResp":1,"stimulus":"img/900/equaldotanddens/L/10_Ratio_900_L_20_R_18.png","xmouse":[783,783,783,783,783,783,783,783,783,783,783,783,783,783,783,783,783,783,783,783,783,783,783,783,783,783,783,783,783,783,783,783,783,783,783,783,783,783,783,783,783,779,750,725,677,640,613,586,546,535,532,532,532,532,532,532,532,542,560,567,576,593,611,628,629,629,629,629,627,604,575,539,499],"ymouse":[630,630,630,630,630,630,630,630,630,630,630,630,630,630,630,630,630,630,630,630,630,630,630,630,630,630,630,630,630,630,630,630,630,630,630,630,630,630,630,628,627,617,563,515,401,305,210,123,0,0,0,0,0,0,0,1,10,36,84,109,142,202,259,312,317,319,319,319,305,254,191,125,65],"timestamp_mouse":[8,35,48,68,87,109,129,148,168,188,207,228,249,267,289,308,327,347,368,388,407,429,447,467,487,509,528,548,569,587,609,629,648,667,688,708,727,749,768,787,807,829,849,867,887,907,927,949,969,987,1009,1029,1048,1067,1088,1108,1127,1148,1169,1189,1208,1227,1249,1269,1287,1308,1329,1349,1369,1388,1408,1428,1447],"xSR":741.5,"ySR":573.95,"xT1":424.9,"yT1":0,"xT2":1058.1,"yT2":0,"toosoon":0,"cond_shown":"equaldotanddens","ratio_trial":900,"smaller_num":"18","larger_num":"20","correct_side":1,"subjID":"AndresMauricioAcostaPerez22","gender":"0","age":"11","school":"6"},{"start_time":1551881304424,"click_time":1551881305072,"finger_time":1551881304993,"fix_duration":870.009617013495,"trial":71,"RT":569,"MT":79,"sideResp":1,"stimulus":"img/250/equaldotsize/L/2_Ratio_250_L_16_R_4.png","xmouse":[786,786,786,786,786,786,786,786,786,786,786,786,786,786,786,786,786,786,786,786,786,786,786,786,786,786,787,787,733,652,590,535,480],"ymouse":[633,633,633,633,633,633,633,633,633,633,633,633,633,633,633,633,633,633,633,633,633,633,633,633,633,633,633,625,474,323,214,107,6],"timestamp_mouse":[9,31,49,69,87,109,127,148,167,188,208,227,247,267,289,309,328,348,369,389,408,427,448,467,489,508,527,549,569,588,608,628,647],"xSR":741.5,"ySR":573.95,"xT1":424.9,"yT1":0,"xT2":1058.1,"yT2":0,"toosoon":0,"cond_shown":"equaldotsize","ratio_trial":250,"smaller_num":"4","larger_num":"16","correct_side":1,"subjID":"AndresMauricioAcostaPerez22","gender":"0","age":"11","school":"6"},{"start_time":1551881306328,"click_time":1551881308032,"finger_time":1551881307212,"fix_duration":415.17332519905983,"trial":72,"RT":884,"MT":820,"sideResp":2,"stimulus":"img/900/randomdotsizeEA/L/10_Ratio_900_L_20_R_18.png","xmouse":[747,747,747,747,747,747,747,747,747,747,747,747,747,747,747,747,747,747,747,747,747,747,747,747,747,747,747,747,747,747,747,747,747,747,747,747,747,747,747,747,748,749,755,819,891,975,1054,1125,1206,1225,1234,1236,1236,1236,1236,1227,1209,1169,1048,995,946,909,884,874,875,909,970,1038,1155,1190,1202,1204,1204,1204,1182,1162,1138,1108,1045,1027,1021,1021,1021,1054,1089,1112],"ymouse":[606,606,606,606,606,606,606,606,606,606,606,606,606,606,606,606,606,606,606,606,606,606,606,606,606,606,606,606,606,606,606,606,606,606,606,606,606,606,606,606,606,606,605,578,525,447,339,228,58,2,0,0,0,0,0,8,27,68,161,200,244,289,334,365,366,338,268,175,0,0,0,0,0,4,52,98,152,217,333,358,365,365,365,249,130,64],"timestamp_mouse":[11,35,44,64,83,105,124,143,164,183,203,224,244,263,284,303,324,343,363,384,404,423,443,465,483,504,523,545,563,584,603,624,644,664,685,703,725,744,763,783,804,825,845,864,884,903,923,944,964,985,1005,1024,1045,1064,1084,1104,1123,1144,1163,1185,1205,1224,1245,1263,1283,1303,1323,1344,1363,1384,1405,1424,1445,1465,1484,1504,1525,1544,1564,1583,1604,1624,1645,1664,1683,1704],"xSR":741.5,"ySR":573.95,"xT1":424.9,"yT1":0,"xT2":1058.1,"yT2":0,"toosoon":0,"cond_shown":"randomdotsizeEA","ratio_trial":900,"smaller_num":"18","larger_num":"20","correct_side":1,"subjID":"AndresMauricioAcostaPerez22","gender":"0","age":"11","school":"6"},{"start_time":1551881310127,"click_time":1551881310871,"finger_time":1551881310792,"fix_duration":1333.574331663243,"trial":73,"RT":665,"MT":79,"sideResp":2,"stimulus":"img/750/equaldotanddens/R/4_Ratio_750_L_15_R_20.png","xmouse":[783,783,783,782,782,782,782,782,782,782,782,782,782,782,782,782,782,782,782,782,782,782,782,782,782,782,782,782,782,782,782,785,787,844,896,959,1026,1077],"ymouse":[599,597,596,594,594,594,594,594,594,594,594,594,594,594,594,594,594,594,594,594,594,594,594,594,594,594,594,594,594,594,594,594,592,498,403,283,148,14],"timestamp_mouse":[5,26,44,65,84,104,125,145,164,186,204,224,246,265,285,306,325,344,365,385,405,425,444,466,485,504,526,544,566,585,605,624,644,664,685,705,725,744],"xSR":741.5,"ySR":573.95,"xT1":424.9,"yT1":0,"xT2":1058.1,"yT2":0,"toosoon":0,"cond_shown":"equaldotanddens","ratio_trial":750,"smaller_num":"15","larger_num":"20","correct_side":2,"subjID":"AndresMauricioAcostaPerez22","gender":"0","age":"11","school":"6"},{"start_time":1551881311873,"click_time":1551881312452,"finger_time":1551881312353,"fix_duration":319.790228140315,"trial":74,"RT":480,"MT":99,"sideResp":1,"stimulus":"img/500/equaldotsize/L/4_Ratio_500_L_18_R_9.png","xmouse":[826,826,826,826,826,826,826,826,826,826,826,826,826,826,826,826,826,826,826,826,826,826,825,817,796,762,663,586,543,513],"ymouse":[630,630,630,630,630,630,630,630,630,630,630,630,630,630,630,630,630,630,630,630,630,630,625,610,566,501,330,191,99,22],"timestamp_mouse":[1,18,41,59,79,98,119,139,160,178,200,218,239,260,279,299,319,338,359,380,399,420,438,459,480,500,520,539,560,579],"xSR":741.5,"ySR":573.95,"xT1":424.9,"yT1":0,"xT2":1058.1,"yT2":0,"toosoon":0,"cond_shown":"equaldotsize","ratio_trial":500,"smaller_num":"9","larger_num":"18","correct_side":1,"subjID":"AndresMauricioAcostaPerez22","gender":"0","age":"11","school":"6"},{"start_time":1551881313937,"click_time":1551881314692,"finger_time":1551881314591,"fix_duration":823.4507470690968,"trial":75,"RT":654,"MT":101,"sideResp":2,"stimulus":"img/750/randomdotsizeEA/L/10_Ratio_750_L_4_R_3.png","xmouse":[798,798,798,798,798,798,798,798,798,798,798,798,798,798,798,798,798,798,799,800,802,802,802,802,802,802,802,802,804,805,809,817,842,866,905,965,1027,1101],"ymouse":[628,628,628,628,628,628,628,628,628,628,628,628,628,628,628,628,628,628,624,619,615,614,614,614,614,614,614,614,610,608,598,581,525,467,378,266,156,21],"timestamp_mouse":[15,34,54,76,94,116,135,154,174,194,216,234,255,274,296,315,334,355,375,395,415,435,455,474,495,516,534,554,575,596,615,635,654,675,695,715,735,755],"xSR":741.5,"ySR":573.95,"xT1":424.9,"yT1":0,"xT2":1058.1,"yT2":0,"toosoon":0,"cond_shown":"randomdotsizeEA","ratio_trial":750,"smaller_num":"3","larger_num":"4","correct_side":1,"subjID":"AndresMauricioAcostaPerez22","gender":"0","age":"11","school":"6"},{"start_time":1551881316375,"click_time":1551881317072,"finger_time":1551881316872,"fix_duration":941.8146200353575,"trial":76,"RT":497,"MT":200,"sideResp":1,"stimulus":"img/750/equaldotsize/L/6_Ratio_750_L_24_R_18.png","xmouse":[797,797,797,797,797,797,797,797,797,797,797,797,797,797,797,797,797,797,797,797,797,796,793,790,787,787,785,779,746,692,638,578,527,490],"ymouse":[603,603,603,603,603,603,603,603,603,603,603,603,603,603,603,603,603,603,603,603,599,588,576,569,562,560,555,545,489,386,307,218,142,81],"timestamp_mouse":[38,58,76,98,118,137,158,176,196,218,237,257,276,296,316,337,356,378,397,416,438,458,477,497,516,537,557,578,598,617,637,657,677,697],"xSR":741.5,"ySR":573.95,"xT1":424.9,"yT1":0,"xT2":1058.1,"yT2":0,"toosoon":0,"cond_shown":"equaldotsize","ratio_trial":750,"smaller_num":"18","larger_num":"24","correct_side":1,"subjID":"AndresMauricioAcostaPerez22","gender":"0","age":"11","school":"6"},{"start_time":1551881318089,"click_time":1551881318953,"finger_time":1551881318773,"fix_duration":355.59083185271476,"trial":77,"RT":684,"MT":180,"sideResp":2,"stimulus":"img/900/equaldotanddens/R/5_Ratio_900_L_9_R_10.png","xmouse":[816,816,816,816,816,816,816,816,816,816,816,816,816,816,816,816,816,816,816,816,816,816,816,816,816,816,816,816,816,816,816,816,822,830,883,920,979,998,1052,1064,1069,1069,1069,1065],"ymouse":[613,613,613,613,613,613,613,613,613,613,613,613,613,613,613,613,613,613,613,613,613,613,613,613,613,613,613,613,613,613,613,613,595,577,418,299,99,34,0,0,0,0,0,6],"timestamp_mouse":[5,23,44,64,83,102,123,144,163,183,204,223,243,263,282,302,322,344,362,384,403,422,444,462,484,503,522,542,562,582,603,622,642,663,684,7