[{"start_time":1551887953690,"click_time":1551887954948,"finger_time":1551887953694,"fix_duration":1357.4484558753102,"trial":0,"RT":4,"MT":1254,"sideResp":2,"stimulus":"img/750/randomdotsizeEA/R/3_Ratio_750_L_15_R_20.png","xmouse":[746,745,745,745,745,745,745,745,745,745,745,745,745,745,745,745,745,745,745,745,745,745,745,745,745,745,745,745,742,741,741,741,741,744,744,744,745,748,753,766,779,806,812,815,820,829,856,876,897,939,954,971,978,984,988,997,1027,1046,1061,1062,1062,1062,1069,1079],"ymouse":[612,613,614,614,614,614,614,614,614,614,614,614,614,614,614,614,614,614,614,614,614,614,614,614,614,614,614,612,593,579,568,556,550,544,544,544,542,541,541,539,534,522,519,518,516,510,456,413,375,294,257,220,207,198,192,181,155,139,121,119,119,115,105,90],"timestamp_mouse":[4,18,38,58,80,99,118,139,158,178,199,220,239,259,278,298,318,339,359,378,399,419,438,458,478,498,519,539,558,579,598,618,638,659,678,698,718,739,758,779,799,818,838,858,879,898,918,939,958,980,999,1018,1038,1058,1079,1098,1120,1138,1159,1178,1198,1218,1239,1258],"xSR":741.5,"ySR":469.95,"xT1":424.9,"yT1":0,"xT2":1058.1,"yT2":0,"toosoon":0,"cond_shown":"randomdotsizeEA","ratio_trial":750,"smaller_num":"15","larger_num":"20","correct_side":2,"subjID":"alanjaviercardenasriano37","gender":"0","age":"11","school":"6","test":{"fix_dur":[250,1500],"timestim":300,"targets_dim":[100,100],"targets_relative_coord":[0.3,0.7],"size_stim":[880,420],"start_dim":[100,100],"size_start":[300,300],"size_fix":60,"samplingrate":20,"img_types":["equaldotsize","equaldotanddens","randomdotsizeEA"],"ratios":[250,500,750,900],"rep_conds":9,"nTrials":120,"trials_to_rest":500,"Trials_order":[56,77,9,81,61,65,37,51,23,92,36,87,78,49,30,43,73,99,106,45,39,28,118,76,1,109,84,53,110,2,60,98,113,94,114,119,50,4,33,15,89,80,10,62,107,67,85,64,103,34,82,112,22,55,88,108,95,11,24,29,79,25,101,86,68,31,58,57,3,32,47,44,6,12,42,115,75,21,26,54,70,72,38,52,46,7,96,66,16,17,102,0,117,35,20,83,40,104,63,105,71,5,48,97,59,90,91,19,13,111,27,116,8,93,18,41,100,14,69,74],"cond_shown":["randomdotsizeEA","randomdotsizeEA","equaldotsize","equaldotsize","equaldotanddens","randomdotsizeEA","equaldotanddens","equaldotsize","randomdotsizeEA","randomdotsizeEA","equaldotsize","equaldotsize","equaldotsize","equaldotanddens","equaldotsize","equaldotanddens","equaldotanddens","equaldotsize","equaldotanddens","equaldotsize","equaldotsize","equaldotanddens","equaldotanddens","equaldotanddens","equaldotanddens","equaldotanddens","equaldotsize","randomdotsizeEA","randomdotsizeEA","randomdotsizeEA","equaldotsize","randomdotsizeEA","randomdotsizeEA","equaldotanddens","equaldotsize","randomdotsizeEA","randomdotsizeEA","equaldotanddens","equaldotsize","equaldotsize","randomdotsizeEA","randomdotsizeEA","equaldotanddens","randomdotsizeEA","randomdotsizeEA","equaldotanddens","equaldotanddens","equaldotanddens","equaldotanddens","equaldotanddens","equaldotanddens","equaldotanddens","equaldotanddens","equaldotanddens","equaldotanddens","equaldotsize","randomdotsizeEA","randomdotsizeEA","equaldotsize","randomdotsizeEA","equaldotanddens","equaldotanddens","randomdotsizeEA","randomdotsizeEA","randomdotsizeEA","equaldotanddens","equaldotanddens","equaldotsize","equaldotsize","randomdotsizeEA","randomdotsizeEA","randomdotsizeEA","equaldotsize","equaldotsize","equaldotsize","equaldotanddens","equaldotsize","equaldotsize","randomdotsizeEA","equaldotsize","equaldotanddens","equaldotsize","randomdotsizeEA","equaldotanddens","equaldotanddens","equaldotanddens","equaldotsize","equaldotsize","equaldotanddens","randomdotsizeEA","equaldotsize","equaldotsize","equaldotsize","randomdotsizeEA","randomdotsizeEA","randomdotsizeEA","equaldotanddens","randomdotsizeEA","equaldotsize","equaldotsize","randomdotsizeEA","randomdotsizeEA","equaldotsize","equaldotanddens","randomdotsizeEA","equaldotsize","equaldotanddens","equaldotanddens","equaldotanddens","equaldotsize","equaldotsize","randomdotsizeEA","randomdotsizeEA","equaldotsize","equaldotsize","randomdotsizeEA","equaldotanddens","randomdotsizeEA","equaldotsize","randomdotsizeEA"],"ratio_trial":[750,500,900,900,250,500,250,500,900,750,250,500,750,250,750,750,250,500,900,900,500,500,900,500,250,250,250,500,250,250,250,250,500,900,750,900,250,500,900,500,500,750,900,250,900,750,250,500,750,900,900,500,900,750,500,250,900,900,250,500,750,250,500,250,750,750,900,900,500,750,900,750,750,250,750,750,500,900,250,750,900,250,250,500,900,750,250,750,500,500,750,250,900,900,750,900,500,750,500,900,900,500,250,250,900,750,750,750,250,500,500,750,750,900,750,500,500,250,900,250],"smaller_num":["15","6","18","18","4","4","6","9","18","3","4","9","6","3","6","6","2","2","9","18","2","1","9","5","3","3","4","5","5","1","6","2","10","18","18","18","6","5","18","6","6","15","9","1","9","3","2","5","12","9","9","6","9","3","6","3","18","18","5","3","6","2","2","2","15","3","9","18","10","3","18","3","12","2","18","3","9","18","6","3","18","3","1","10","9","18","6","3","2","5","3","2","18","18","15","18","9","9","6","9","18","2","6","3","18","3","18","3","3","6","5","15","9","9","15","2","1","3","9","3"],"larger_num":["20","12","20","20","16","8","24","18","20","4","16","18","8","12","8","8","8","4","10","20","4","2","10","10","12","12","16","10","20","4","24","8","20","20","24","20","24","10","20","12","12","20","10","4","10","4","8","10","16","10","10","12","10","4","12","12","20","20","20","6","8","8","4","8","20","4","10","20","20","4","20","4","16","8","24","4","18","20","24","4","20","12","4","20","10","24","24","4","4","10","4","8","20","20","20","20","18","12","12","10","20","4","24","12","20","4","24","4","12","12","10","20","12","10","20","4","2","12","10","12"],"correct_side":[2,1,1,2,1,1,1,1,1,2,2,1,1,1,2,2,1,2,2,2,2,2,1,2,2,2,2,2,2,2,1,1,2,1,1,1,1,2,1,1,1,2,2,2,2,1,1,1,2,1,1,1,2,1,1,1,1,2,2,2,1,1,1,1,2,1,1,1,2,2,2,2,2,1,1,2,2,2,2,2,1,2,2,2,1,1,2,1,2,2,1,1,2,2,2,2,2,2,1,2,1,1,2,2,2,1,1,1,1,1,1,2,2,1,2,2,2,2,2,1],"img_shown":["img/750/randomdotsizeEA/R/3_Ratio_750_L_15_R_20.png","img/500/randomdotsizeEA/L/13_Ratio_500_L_12_R_6.png","img/900/equaldotsize/L/8_Ratio_900_L_20_R_18.png","img/900/equaldotsize/R/13_Ratio_900_L_18_R_20.png","img/250/equaldotanddens/L/2_Ratio_250_L_16_R_4.png","img/500/randomdotsizeEA/L/8_Ratio_500_L_8_R_4.png","img/250/equaldotanddens/L/5_Ratio_250_L_24_R_6.png","img/500/equaldotsize/L/4_Ratio_500_L_18_R_9.png","img/900/randomdotsizeEA/L/2_Ratio_900_L_20_R_18.png","img/750/randomdotsizeEA/R/7_Ratio_750_L_3_R_4.png","img/250/equaldotsize/R/10_Ratio_250_L_4_R_16.png","img/500/equaldotsize/L/4_Ratio_500_L_18_R_9.png","img/750/equaldotsize/L/14_Ratio_750_L_8_R_6.png","img/250/equaldotanddens/L/15_Ratio_250_L_12_R_3.png","img/750/equaldotsize/R/2_Ratio_750_L_6_R_8.png","img/750/equaldotanddens/R/2_Ratio_750_L_6_R_8.png","img/250/equaldotanddens/L/7_Ratio_250_L_8_R_2.png","img/500/equaldotsize/R/9_Ratio_500_L_2_R_4.png","img/900/equaldotanddens/R/5_Ratio_900_L_9_R_10.png","img/900/equaldotsize/R/9_Ratio_900_L_18_R_20.png","img/500/equaldotsize/R/9_Ratio_500_L_2_R_4.png","img/500/equaldotanddens/R/12_Ratio_500_L_1_R_2.png","img/900/equaldotanddens/L/1_Ratio_900_L_10_R_9.png","img/500/equaldotanddens/R/14_Ratio_500_L_5_R_10.png","img/250/equaldotanddens/R/11_Ratio_250_L_3_R_12.png","img/250/equaldotanddens/R/4_Ratio_250_L_3_R_12.png","img/250/equaldotsize/R/10_Ratio_250_L_4_R_16.png","img/500/randomdotsizeEA/R/14_Ratio_500_L_5_R_10.png","img/250/randomdotsizeEA/R/12_Ratio_250_L_5_R_20.png","img/250/randomdotsizeEA/R/8_Ratio_250_L_1_R_4.png","img/250/equaldotsize/L/5_Ratio_250_L_24_R_6.png","img/250/randomdotsizeEA/L/7_Ratio_250_L_8_R_2.png","img/500/randomdotsizeEA/R/3_Ratio_500_L_10_R_20.png","img/900/equaldotanddens/L/4_Ratio_900_L_20_R_18.png","img/750/equaldotsize/L/6_Ratio_750_L_24_R_18.png","img/900/randomdotsizeEA/L/10_Ratio_900_L_20_R_18.png","img/250/randomdotsizeEA/L/5_Ratio_250_L_24_R_6.png","img/500/equaldotanddens/R/14_Ratio_500_L_5_R_10.png","img/900/equaldotsize/L/4_Ratio_900_L_20_R_18.png","img/500/equaldotsize/L/11_Ratio_500_L_12_R_6.png","img/500/randomdotsizeEA/L/13_Ratio_500_L_12_R_6.png","img/750/randomdotsizeEA/R/4_Ratio_750_L_15_R_20.png","img/900/equaldotanddens/R/5_Ratio_900_L_9_R_10.png","img/250/randomdotsizeEA/R/8_Ratio_250_L_1_R_4.png","img/900/randomdotsizeEA/R/15_Ratio_900_L_9_R_10.png","img/750/equaldotanddens/L/8_Ratio_750_L_4_R_3.png","img/250/equaldotanddens/L/7_Ratio_250_L_8_R_2.png","img/500/equaldotanddens/L/7_Ratio_500_L_10_R_5.png","img/750/equaldotanddens/R/11_Ratio_750_L_12_R_16.png","img/900/equaldotanddens/L/1_Ratio_900_L_10_R_9.png","img/900/equaldotanddens/L/1_Ratio_900_L_10_R_9.png","img/500/equaldotanddens/L/13_Ratio_500_L_12_R_6.png","img/900/equaldotanddens/R/5_Ratio_900_L_9_R_10.png","img/750/equaldotanddens/L/8_Ratio_750_L_4_R_3.png","img/500/equaldotanddens/L/11_Ratio_500_L_12_R_6.png","img/250/equaldotsize/L/14_Ratio_250_L_12_R_3.png","img/900/randomdotsizeEA/L/10_Ratio_900_L_20_R_18.png","img/900/randomdotsizeEA/R/14_Ratio_900_L_18_R_20.png","img/250/equaldotsize/R/12_Ratio_250_L_5_R_20.png","img/500/randomdotsizeEA/R/2_Ratio_500_L_3_R_6.png","img/750/equaldotanddens/L/13_Ratio_750_L_8_R_6.png","img/250/equaldotanddens/L/3_Ratio_250_L_8_R_2.png","img/500/randomdotsizeEA/L/10_Ratio_500_L_4_R_2.png","img/250/randomdotsizeEA/L/1_Ratio_250_L_8_R_2.png","img/750/randomdotsizeEA/R/4_Ratio_750_L_15_R_20.png","img/750/equaldotanddens/L/10_Ratio_750_L_4_R_3.png","img/900/equaldotanddens/L/1_Ratio_900_L_10_R_9.png","img/900/equaldotsize/L/8_Ratio_900_L_20_R_18.png","img/500/equaldotsize/R/3_Ratio_500_L_10_R_20.png","img/750/randomdotsizeEA/R/12_Ratio_750_L_3_R_4.png","img/900/randomdotsizeEA/R/13_Ratio_900_L_18_R_20.png","img/750/randomdotsizeEA/R/7_Ratio_750_L_3_R_4.png","img/750/equaldotsize/R/11_Ratio_750_L_12_R_16.png","img/250/equaldotsize/L/1_Ratio_250_L_8_R_2.png","img/750/equaldotsize/L/6_Ratio_750_L_24_R_18.png","img/750/equaldotanddens/R/12_Ratio_750_L_3_R_4.png","img/500/equaldotsize/R/1_Ratio_500_L_9_R_18.png","img/900/equaldotsize/R/11_Ratio_900_L_18_R_20.png","img/250/randomdotsizeEA/R/6_Ratio_250_L_6_R_24.png","img/750/equaldotsize/R/7_Ratio_750_L_3_R_4.png","img/900/equaldotanddens/L/2_Ratio_900_L_20_R_18.png","img/250/equaldotsize/R/4_Ratio_250_L_3_R_12.png","img/250/randomdotsizeEA/R/8_Ratio_250_L_1_R_4.png","img/500/equaldotanddens/R/3_Ratio_500_L_10_R_20.png","img/900/equaldotanddens/L/1_Ratio_900_L_10_R_9.png","img/750/equaldotanddens/L/6_Ratio_750_L_24_R_18.png","img/250/equaldotsize/R/6_Ratio_250_L_6_R_24.png","img/750/equaldotsize/L/9_Ratio_750_L_4_R_3.png","img/500/equaldotanddens/R/9_Ratio_500_L_2_R_4.png","img/500/randomdotsizeEA/R/14_Ratio_500_L_5_R_10.png","img/750/equaldotsize/L/10_Ratio_750_L_4_R_3.png","img/250/equaldotsize/L/3_Ratio_250_L_8_R_2.png","img/900/equaldotsize/R/11_Ratio_900_L_18_R_20.png","img/900/randomdotsizeEA/R/9_Ratio_900_L_18_R_20.png","img/750/randomdotsizeEA/R/4_Ratio_750_L_15_R_20.png","img/900/randomdotsizeEA/R/14_Ratio_900_L_18_R_20.png","img/500/equaldotanddens/R/1_Ratio_500_L_9_R_18.png","img/750/randomdotsizeEA/R/15_Ratio_750_L_9_R_12.png","img/500/equaldotsize/L/13_Ratio_500_L_12_R_6.png","img/900/equaldotsize/R/7_Ratio_900_L_9_R_10.png","img/900/randomdotsizeEA/L/2_Ratio_900_L_20_R_18.png","img/500/randomdotsizeEA/L/5_Ratio_500_L_4_R_2.png","img/250/equaldotsize/R/6_Ratio_250_L_6_R_24.png","img/250/equaldotanddens/R/11_Ratio_250_L_3_R_12.png","img/900/randomdotsizeEA/R/9_Ratio_900_L_18_R_20.png","img/750/equaldotsize/L/8_Ratio_750_L_4_R_3.png","img/750/equaldotanddens/L/6_Ratio_750_L_24_R_18.png","img/750/equaldotanddens/L/8_Ratio_750_L_4_R_3.png","img/250/equaldotanddens/L/15_Ratio_250_L_12_R_3.png","img/500/equaldotsize/L/11_Ratio_500_L_12_R_6.png","img/500/equaldotsize/L/7_Ratio_500_L_10_R_5.png","img/750/randomdotsizeEA/R/3_Ratio_750_L_15_R_20.png","img/750/randomdotsizeEA/R/15_Ratio_750_L_9_R_12.png","img/900/equaldotsize/L/1_Ratio_900_L_10_R_9.png","img/750/equaldotsize/R/5_Ratio_750_L_15_R_20.png","img/500/randomdotsizeEA/R/9_Ratio_500_L_2_R_4.png","img/500/equaldotanddens/R/15_Ratio_500_L_1_R_2.png","img/250/randomdotsizeEA/R/9_Ratio_250_L_3_R_12.png","img/900/equaldotsize/R/5_Ratio_900_L_9_R_10.png","img/250/randomdotsizeEA/L/15_Ratio_250_L_12_R_3.png"],"Rat0":[["12_Ratio_0_L_9_R_0.png","13_Ratio_0_L_6_R_0.png","5_Ratio_0_L_2_R_0.png","6_Ratio_0_L_4_R_0.png","8_Ratio_0_L_6_R_0.png"],["1_Ratio_0_L_0_R_17.png","10_Ratio_0_L_0_R_22.png","11_Ratio_0_L_0_R_1.png","14_Ratio_0_L_0_R_24.png","15_Ratio_0_L_0_R_4.png","2_Ratio_0_L_0_R_5.png","3_Ratio_0_L_0_R_17.png","4_Ratio_0_L_0_R_7.png","7_Ratio_0_L_0_R_19.png","9_Ratio_0_L_0_R_15.png"]],"Rat250":[["1_Ratio_250_L_8_R_2.png","14_Ratio_250_L_12_R_3.png","15_Ratio_250_L_12_R_3.png","2_Ratio_250_L_16_R_4.png","3_Ratio_250_L_8_R_2.png","5_Ratio_250_L_24_R_6.png","7_Ratio_250_L_8_R_2.png"],["10_Ratio_250_L_4_R_16.png","11_Ratio_250_L_3_R_12.png","12_Ratio_250_L_5_R_20.png","13_Ratio_250_L_2_R_8.png","4_Ratio_250_L_3_R_12.png","6_Ratio_250_L_6_R_24.png","8_Ratio_250_L_1_R_4.png","9_Ratio_250_L_3_R_12.png"]],"Rat500":[["10_Ratio_500_L_4_R_2.png","11_Ratio_500_L_12_R_6.png","13_Ratio_500_L_12_R_6.png","4_Ratio_500_L_18_R_9.png","5_Ratio_500_L_4_R_2.png","7_Ratio_500_L_10_R_5.png","8_Ratio_500_L_8_R_4.png"],["1_Ratio_500_L_9_R_18.png","12_Ratio_500_L_1_R_2.png","14_Ratio_500_L_5_R_10.png","15_Ratio_500_L_1_R_2.png","2_Ratio_500_L_3_R_6.png","3_Ratio_500_L_10_R_20.png","6_Ratio_500_L_9_R_18.png","9_Ratio_500_L_2_R_4.png"]],"Rat750":[["1_Ratio_750_L_20_R_15.png","10_Ratio_750_L_4_R_3.png","13_Ratio_750_L_8_R_6.png","14_Ratio_750_L_8_R_6.png","6_Ratio_750_L_24_R_18.png","8_Ratio_750_L_4_R_3.png","9_Ratio_750_L_4_R_3.png"],["11_Ratio_750_L_12_R_16.png","12_Ratio_750_L_3_R_4.png","15_Ratio_750_L_9_R_12.png","2_Ratio_750_L_6_R_8.png","3_Ratio_750_L_15_R_20.png","4_Ratio_750_L_15_R_20.png","5_Ratio_750_L_15_R_20.png","7_Ratio_750_L_3_R_4.png"]],"Rat900":[["1_Ratio_900_L_10_R_9.png","10_Ratio_900_L_20_R_18.png","2_Ratio_900_L_20_R_18.png","4_Ratio_900_L_20_R_18.png","8_Ratio_900_L_20_R_18.png"],["11_Ratio_900_L_18_R_20.png","12_Ratio_900_L_18_R_20.png","13_Ratio_900_L_18_R_20.png","14_Ratio_900_L_18_R_20.png","15_Ratio_900_L_9_R_10.png","3_Ratio_900_L_9_R_10.png","5_Ratio_900_L_9_R_10.png","6_Ratio_900_L_9_R_10.png","7_Ratio_900_L_9_R_10.png","9_Ratio_900_L_18_R_20.png"]],"Rat1000":[["10_Ratio_1000_L_16_R_16.png","11_Ratio_1000_L_6_R_6.png","12_Ratio_1000_L_14_R_14.png","13_Ratio_1000_L_20_R_20.png","15_Ratio_1000_L_15_R_15.png","2_Ratio_1000_L_17_R_17.png","4_Ratio_1000_L_9_R_9.png","5_Ratio_1000_L_6_R_6.png","6_Ratio_1000_L_19_R_19.png","8_Ratio_1000_L_14_R_14.png","9_Ratio_1000_L_25_R_25.png"],["1_Ratio_1000_L_1_R_1.png","14_Ratio_1000_L_17_R_17.png","3_Ratio_1000_L_17_R_17.png","7_Ratio_1000_L_6_R_6.png"]]}},{"start_time":1551887956922,"click_time":1551887961869,"finger_time":1551887960108,"fix_duration":1112.1660214490037,"trial":1,"RT":3186,"MT":1761,"sideResp":1,"stimulus":"img/500/randomdotsizeEA/L/13_Ratio_500_L_12_R_6.png","xmouse":[806,806,806,806,806,806,806,806,806,806,806,806,806,806,806,806,806,806,806,806,806,806,806,806,806,806,806,806,806,806,806,806,806,806,806,806,806,806,806,806,806,806,806,806,806,806,806,806,806,806,806,806,806,806,806,806,806,806,806,806,806,806,806,806,806,806,806,806,806,806,806,806,806,806,806,806,806,806,806,806,806,806,806,806,806,806,806,806,806,806,806,806,806,806,806,806,806,806,806,806,806,806,806,806,806,806,806,806,806,806,806,806,806,806,806,806,806,806,806,806,806,806,806,806,806,806,806,806,806,806,806,806,806,806,806,806,806,806,806,806,806,806,806,806,806,806,806,806,806,806,806,806,806,806,806,803,801,797,796,794,794,794,794,794,794,794,793,791,785,769,754,730,693,640,523,479,443,418,400,392,388,384,380,376,375,375,375,377,378,378,378,378,379,380,383,385,388,390,392,393,397,400,403,408,412,418,419,419,419,419,419,419,419,419,419,419,419,419,419,419,419,419,419,419,420,420,420,420,420,420,421,422,422,422,423,423,423,423,423,423,423,423,423,423,423,424,424,425],"ymouse":[504,504,504,504,504,504,504,504,504,504,504,504,504,504,504,504,504,504,504,504,504,504,504,504,504,504,504,504,504,504,504,504,504,504,504,504,504,504,504,504,504,504,504,504,504,504,504,504,504,504,504,504,504,504,504,504,504,504,504,504,504,504,504,504,504,504,504,504,504,504,504,504,504,504,504,504,504,504,504,504,504,504,504,504,504,504,504,504,504,504,504,504,504,504,504,504,504,504,504,504,504,504,504,504,504,504,504,504,504,504,504,504,504,504,504,504,504,504,504,504,504,504,504,504,504,504,504,504,504,504,504,504,504,504,504,504,504,504,504,504,504,504,504,504,504,504,504,504,504,504,504,504,504,504,504,498,491,479,473,469,467,466,462,461,460,460,460,460,460,458,452,439,419,387,320,291,265,243,204,156,132,106,83,67,61,61,60,62,63,63,63,64,65,65,66,67,68,68,69,69,70,70,70,70,69,67,67,67,67,67,67,67,67,67,67,67,67,67,67,67,67,67,67,67,67,67,67,67,67,67,67,66,66,66,66,66,66,66,66,66,66,66,66,66,66,66,66,66],"timestamp_mouse":[7,42,48,66,86,108,127,148,166,186,207,226,246,268,287,306,327,348,367,386,406,427,448,466,487,506,528,548,566,586,606,627,646,666,688,707,727,746,767,786,808,827,848,867,886,907,926,946,968,987,1006,1026,1046,1066,1086,1106,1126,1147,1167,1187,1207,1227,1248,1267,1286,1307,1327,1346,1366,1386,1406,1426,1447,1467,1487,1508,1526,1547,1567,1587,1607,1626,1647,1666,1687,1706,1727,1747,1766,1786,1807,1827,1846,1866,1887,1907,1927,1946,1966,1987,2006,2026,2047,2067,2087,2107,2128,2147,2166,2186,2207,2226,2247,2267,2287,2307,2326,2347,2366,2387,2408,2426,2447,2466,2487,2508,2527,2547,2567,2586,2607,2626,2646,2666,2687,2708,2727,2747,2766,2787,2807,2828,2846,2866,2886,2906,2926,2947,2968,2987,3006,3027,3047,3066,3088,3107,3126,3147,3166,3186,3206,3226,3247,3267,3286,3307,3326,3346,3366,3386,3407,3426,3446,3466,3486,3506,3526,3546,3566,3586,3606,3626,3647,3666,3687,3707,3726,3746,3767,3787,3807,3826,3846,3866,3886,3907,3926,3947,3966,3986,4006,4026,4046,4066,4086,4106,4127,4147,4166,4187,4207,4226,4247,4266,4287,4307,4327,4346,4368,4387,4407,4426,4446,4467,4486,4506,4526,4546,4566,4587,4606,4627,4647,4666,4687,4707,4727,4747,4766,4786,4806,4826,4846,4866,4886,4908,4926,4947],"xSR":741.5,"ySR":469.95,"xT1":424.9,"yT1":0,"xT2":1058.1,"yT2":0,"toosoon":0,"cond_shown":"randomdotsizeEA","ratio_trial":500,"smaller_num":"6","larger_num":"12","correct_side":1,"subjID":"alanjaviercardenasriano37","gender":"0","age":"11","school":"6"},{"start_time":1551887964446,"click_time":1551887968708,"finger_time":1551887968069,"fix_duration":457.26282831670017,"trial":2,"RT":3623,"MT":639,"sideResp":2,"stimulus":"img/900/equaldotsize/L/8_Ratio_900_L_20_R_18.png","xmouse":[818,818,818,818,818,818,818,818,818,818,818,818,818,818,818,818,818,818,818,818,818,818,818,818,818,818,818,818,818,818,818,818,818,818,818,818,818,818,818,818,818,818,818,818,818,818,818,818,818,818,818,818,818,818,818,818,818,818,818,818,818,818,818,818,818,818,818,818,818,818,818,818,818,818,818,818,818,818,818,818,818,818,818,818,818,818,818,818,818,818,818,818,818,818,818,818,818,818,822,826,829,831,831,831,831,831,831,831,831,831,831,831,831,831,831,831,831,831,831,831,831,831,831,831,831,831,831,831,831,831,831,831,831,831,831,831,831,831,828,828,828,828,828,828,828,828,828,828,828,828,828,828,828,828,828,828,828,828,828,828,828,828,828,828,828,828,828,830,830,831,831,831,831,831,831,831,832,832,833,834,837,845,867,903,918,930,941,946,943,940,940,940,940,946,959,973,986,998,1022,1041,1064,1087,1117,1129,1129,1129,1129,1130,1133,1134,1135,1135,1135,1134],"ymouse":[554,554,554,554,554,554,554,554,554,554,554,554,554,554,554,554,554,554,554,554,554,554,554,554,554,554,554,554,554,554,554,554,554,554,554,554,554,554,554,554,554,554,554,554,554,554,554,554,554,554,554,554,554,554,554,554,554,554,554,554,554,554,554,554,554,554,554,554,554,554,554,554,554,554,554,554,554,554,554,554,554,554,554,554,554,554,554,554,554,554,554,554,554,554,552,544,540,536,533,533,533,533,533,533,533,533,533,533,533,533,533,533,533,533,533,533,533,533,533,533,533,533,533,533,533,533,533,533,533,533,533,533,533,533,533,533,529,526,521,518,517,517,517,517,517,517,517,517,517,517,517,517,517,517,517,517,517,517,517,517,517,517,517,517,517,516,516,516,516,516,516,516,516,516,516,516,516,516,516,516,515,511,498,471,455,438,423,411,325,313,313,313,313,301,284,269,252,236,201,184,171,160,143,131,129,126,125,123,116,112,109,106,103,98],"timestamp_mouse":[10,22,43,63,82,102,123,142,162,183,202,223,244,262,282,302,323,342,363,382,402,422,442,463,483,503,523,543,563,582,602,623,642,664,683,703,723,743,762,783,804,823,842,862,883,903,924,942,963,982,1004,1023,1043,1062,1082,1102,1124,1142,1163,1182,1202,1223,1243,1262,1284,1303,1323,1342,1363,1383,1403,1423,1443,1463,1484,1503,1523,1543,1563,1584,1603,1622,1643,1663,1683,1702,1723,1742,1763,1782,1802,1822,1842,1864,1882,1903,1923,1943,1963,1982,2003,2023,2042,2062,2082,2103,2122,2142,2162,2184,2203,2223,2243,2262,2282,2303,2324,2343,2363,2383,2403,2423,2443,2462,2483,2503,2522,2543,2562,2582,2603,2622,2642,2662,2683,2704,2722,2743,2762,2783,2802,2823,2842,2862,2882,2903,2923,2943,2962,2982,3003,3023,3043,3062,3083,3102,3122,3142,3162,3183,3202,3222,3243,3263,3282,3303,3322,3342,3363,3382,3402,3423,3443,3463,3483,3502,3522,3543,3563,3582,3602,3623,3643,3663,3682,3702,3723,3742,3763,3782,3802,3822,3843,3862,3882,3902,3923,3943,3962,3984,4003,4023,4042,4062,4083,4102,4124,4142,4162,4182,4203,4222,4243,4262],"xSR":741.5,"ySR":469.95,"xT1":424.9,"yT1":0,"xT2":1058.1,"yT2":0,"toosoon":0,"cond_shown":"equaldotsize","ratio_trial":900,"smaller_num":"18","larger_num":"20","correct_side":1,"subjID":"alanjaviercardenasriano37","gender":"0","age":"11","school":"6"},{"start_time":1551887972060,"click_time":1551887979669,"finger_time":1551887979008,"fix_duration":1071.1654310875274,"trial":3,"RT":6948,"MT":661,"sideResp":1,"stimulus":"img/900/equaldotsize/R/13_Ratio_900_L_18_R_20.png","xmouse":[777,777,777,777,777,777,777,777,777,777,777,777,777,777,777,777,777,777,777,777,777,777,777,777,777,777,777,777,777,777,777,777,777,777,777,777,777,777,777,777,777,777,777,777,777,777,777,777,777,777,777,777,777,777,777,777,777,777,777,777,777,777,777,777,779,781,786,786,786,786,786,786,786,786,786,786,786,786,786,786,786,786,786,786,786,786,786,786,786,786,786,786,786,786,786,786,786,786,786,786,786,786,786,786,786,786,786,786,786,786,786,786,786,786,786,786,786,786,786,786,786,786,786,786,786,786,786,786,786,786,786,786,786,786,786,786,786,786,786,786,786,786,786,786,786,786,786,786,786,786,786,786,786,786,786,786,786,786,786,786,786,786,786,786,786,786,786,786,786,786,786,786,786,786,786,786,786,786,786,786,786,786,786,786,786,786,786,786,786,786,786,786,786,786,786,786,786,786,786,786,786,786,786,786,786,786,786,786,786,786,786,786,786,786,786,786,786,786,786,786,786,786,786,786,786,786,786,786,786,786,786,786,786,786,786,786,786,786,786,786,786,786,786,786,786,786,786,786,786,786,786,786,786,786,786,786,786,786,786,786,786,786,786,786,786,786,786,786,786,786,786,786,786,786,786,786,786,786,786,786,786,786,786,786,786,786,786,786,786,786,786,786,786,786,786,786,786,786,786,786,786,786,786,786,786,786,786,786,786,786,786,786,786,786,786,786,786,786,786,786,786,786,786,786,786,786,786,786,786,786,786,786,786,786,786,786,786,786,786,786,786,786,786,786,786,786,780,741,721,701,687,678,673,671,667,663,659,649,640,630,629,626,623,620,616,612,607,600,596,591,591,588,587,587,586,580,572,557,545,526,516],"ymouse":[540,540,540,540,540,540,540,540,540,540,540,540,540,540,540,540,540,540,540,540,540,540,540,540,540,540,540,540,540,540,540,540,540,540,540,540,540,540,540,540,540,540,540,540,540,540,540,540,540,540,540,540,540,540,540,540,540,540,540,540,540,540,540,540,540,540,540,540,540,540,540,540,540,540,540,540,540,540,540,540,540,540,540,540,540,540,540,540,540,540,540,540,540,540,540,540,540,540,540,540,540,540,540,540,540,540,540,540,540,540,540,540,540,540,540,540,540,540,540,540,540,540,540,540,540,540,540,540,540,540,540,540,540,540,540,540,540,540,540,540,540,540,540,540,540,540,540,540,540,540,540,540,540,540,540,540,540,540,540,540,540,540,540,540,540,540,540,540,540,540,540,540,540,540,540,540,540,540,540,540,540,540,540,540,540,540,540,540,540,540,540,540,540,540,540,540,540,540,540,540,540,540,540,540,540,540,540,540,540,540,540,540,540,540,540,540,540,540,540,540,540,540,540,540,540,540,540,540,540,540,540,540,540,540,540,540,540,540,540,540,540,540,540,540,540,540,540,540,540,540,540,540,540,540,540,540,540,540,540,540,540,540,540,540,540,540,540,540,540,540,540,540,540,540,540,540,540,540,540,540,540,540,540,540,540,540,540,540,540,540,540,540,540,540,540,540,540,540,540,540,540,540,540,540,540,540,540,540,540,540,540,540,540,540,540,540,540,540,540,540,540,540,540,540,540,540,540,540,540,540,540,540,540,540,540,540,540,540,540,540,540,540,540,540,540,540,515,427,378,337,316,298,289,283,275,266,254,220,204,190,189,185,182,180,175,169,163,153,149,143,141,137,137,137,135,128,118,102,90,70,63],"timestamp_mouse":[8,34,48,68,89,108,129,148,168,188,208,229,248,268,288,310,328,348,369,388,408,428,448,470,490,511,528,548,568,588,608,629,648,669,689,709,728,749,768,789,808,828,849,868,890,908,928,948,970,988,1009,1029,1048,1068,1088,1108,1129,1148,1168,1188,1209,1230,1248,1268,1288,1308,1328,1350,1369,1388,1409,1429,1448,1469,1488,1508,1528,1549,1569,1588,1608,1628,1649,1668,1688,1708,1728,1748,1769,1789,1809,1829,1848,1869,1888,1908,1928,1948,1968,1989,2010,2029,2048,2068,2088,2108,2129,2148,2169,2188,2210,2229,2248,2268,2288,2308,2328,2348,2369,2389,2408,2430,2449,2469,2489,2508,2528,2549,2569,2589,2609,2628,2649,2668,2688,2709,2728,2749,2768,2788,2808,2828,2848,2870,2889,2910,2928,2948,2969,2989,3009,3029,3048,3068,3088,3109,3128,3150,3169,3188,3208,3228,3249,3270,3288,3308,3329,3348,3368,3390,3409,3428,3448,3469,3488,3509,3528,3548,3569,3590,3609,3628,3648,3669,3688,3708,3728,3748,3768,3789,3808,3830,3848,3869,3890,3909,3929,3950,3968,3989,4008,4028,4048,4069,4088,4108,4128,4148,4168,4190,4208,4229,4248,4268,4288,4308,4329,4348,4368,4388,4408,4428,4448,4469,4489,4508,4529,4548,4569,4589,4609,4628,4648,4669,4689,4709,4730,4750,4768,4789,4808,4829,4848,4869,4889,4909,4929,4949,4969,4990,5009,5028,5048,5069,5090,5108,5129,5149,5170,5188,5209,5229,5249,5269,5289,5309,5329,5348,5368,5389,5409,5428,5449,5468,5490,5509,5528,5548,5569,5589,5610,5628,5649,5668,5688,5708,5729,5749,5769,5788,5808,5828,5849,5869,5888,5909,5928,5948,5969,5988,6008,6029,6048,6069,6088,6108,6128,6149,6168,6189,6209,6228,6249,6269,6288,6308,6329,6349,6370,6389,6409,6429,6450,6469,6489,6509,6528,6548,6568,6589,6608,6628,6648,6668,6688,6709,6728,6750,6770,6789,6809,6828,6848,6869,6889,6908,6929,6948,6968,6988,7009,7028,7049,7068,7088,7108,7128,7149,7168,7190,7209,7228,7248,7268,7288,7308,7328,7348,7370,7388,7409,7429,7449,7469,7489,7508,7528,7548,7568,7588,7609],"xSR":741.5,"ySR":469.95,"xT1":424.9,"yT1":0,"xT2":1058.1,"yT2":0,"toosoon":0,"cond_shown":"equaldotsize","ratio_trial":900,"smaller_num":"18","larger_num":"20","correct_side":2,"subjID":"alanjaviercardenasriano37","gender":"0","age":"11","school":"6"},{"start_time":1551887982961,"click_time":1551887985129,"finger_time":1551887984390,"fix_duration":590.6949872007905,"trial":4,"RT":1429,"MT":739,"sideResp":1,"stimulus":"img/250/equaldotanddens/L/2_Ratio_250_L_16_R_4.png","xmouse":[758,758,758,758,758,758,758,758,758,758,758,758,758,758,758,758,758,758,758,758,758,758,758,758,758,758,758,758,758,758,758,758,758,758,758,758,758,758,758,758,758,758,758,758,758,758,758,758,758,758,758,758,758,758,758,758,758,758,758,758,758,758,758,758,758,758,758,758,758,756,751,740,690,593,454,300,154,139,139,150,169,190,221,226,227,227,227,227,227,227,228,230,235,239,242,245,249,251,255,263,271,282,311,327,343,359,389,411,432],"ymouse":[555,555,555,555,555,555,555,555,555,555,555,555,555,555,555,555,555,555,555,555,555,555,555,555,555,555,555,555,555,555,555,555,555,555,555,555,555,555,555,555,555,555,555,555,555,555,555,555,555,555,555,555,555,555,555,555,555,555,555,555,555,555,555,555,555,555,555,555,555,552,543,526,376,314,258,217,176,170,169,165,161,159,159,159,159,159,159,152,149,145,139,132,119,113,107,102,97,96,94,92,88,83,70,64,60,56,47,40,34],"timestamp_mouse":[8,30,48,67,87,107,129,148,167,187,207,228,248,267,287,307,327,347,367,387,407,427,447,467,488,507,528,548,567,587,608,629,647,667,689,707,729,748,768,788,807,827,848,867,889,909,927,947,967,988,1009,1027,1047,1068,1088,1107,1127,1147,1168,1187,1207,1227,1248,1267,1288,1307,1327,1347,1367,1388,1407,1429,1447,1468,1488,1508,1527,1548,1569,1587,1608,1628,1648,1667,1687,1709,1729,1747,1767,1787,1807,1827,1848,1867,1887,1908,1928,1947,1969,1987,2007,2027,2049,2067,2087,2107,2128,2148,2168],"xSR":741.5,"ySR":469.95,"xT1":424.9,"yT1":0,"xT2":1058.1,"yT2":0,"toosoon":0,"cond_shown":"equaldotanddens","ratio_trial":250,"smaller_num":"4","larger_num":"16","correct_side":1,"subjID":"alanjaviercardenasriano37","gender":"0","age":"11","school":"6"},{"start_time":1551887986620,"click_time":1551887989329,"finger_time":1551887987688,"fix_duration":530.1109230866878,"trial":5,"RT":1068,"MT":1641,"sideResp":1,"stimulus":"img/500/randomdotsizeEA/L/8_Ratio_500_L_8_R_4.png","xmouse":[835,835,835,835,835,835,835,835,835,835,835,835,835,835,835,835,835,835,835,835,835,835,835,835,835,835,835,835,835,835,835,835,835,835,835,835,835,835,835,835,835,835,835,835,835,835,835,835,835,835,834,834,841,855,886,1007,1072,1121,1154,1185,1190,1190,1190,1190,1190,1190,1190,1190,1190,1190,1190,1190,1190,1190,1190,1190,1189,1189,1189,1159,1129,1087,1031,939,839,809,790,782,771,740,728,722,716,710,689,672,656,638,620,593,583,577,573,568,562,558,556,552,548,539,536,532,530,528,527,524,524,522,518,483,433,398,379,371,371,371,371,371,371,371,371,371,371,373,415,447],"ymouse":[527,527,527,527,527,527,527,527,527,527,527,527,527,527,527,527,527,527,527,527,527,527,527,527,527,527,527,527,527,527,527,527,527,527,527,527,527,527,527,527,527,527,527,527,527,527,527,527,527,527,526,523,507,489,453,338,283,235,199,162,153,150,145,140,137,136,136,136,136,136,136,136,136,136,136,136,135,135,135,137,145,158,179,206,233,236,236,234,227,209,204,202,199,195,187,182,178,175,173,172,172,172,171,170,170,170,170,170,170,170,170,168,168,168,168,166,166,164,161,139,114,93,81,75,75,75,75,75,75,75,75,75,75,75,62,49],"timestamp_mouse":[10,35,49,68,90,109,129,148,168,188,208,228,249,268,289,309,329,348,369,388,408,428,448,468,488,509,528,548,569,588,608,628,649,669,688,709,728,749,769,789,808,828,848,868,888,908,929,948,969,988,1008,1028,1049,1068,1089,1109,1129,1149,1170,1188,1208,1229,1248,1269,1289,1308,1328,1349,1368,1389,1409,1428,1448,1468,1488,1509,1528,1548,1570,1589,1608,1628,1649,1669,1689,1708,1728,1748,1769,1788,1808,1828,1849,1869,1888,1908,1928,1949,1969,1988,2009,2028,2050,2069,2089,2110,2128,2148,2170,2188,2208,2228,2248,2269,2289,2309,2328,2348,2370,2389,2409,2428,2449,2469,2489,2510,2529,2549,2568,2589,2609,2629,2650,2669,2688,2709],"xSR":741.5,"ySR":469.95,"xT1":424.9,"yT1":0,"xT2":1058.1,"yT2":0,"toosoon":0,"cond_shown":"randomdotsizeEA","ratio_trial":500,"smaller_num":"4","larger_num":"8","correct_side":1,"subjID":"alanjaviercardenasriano37","gender":"0","age":"11","school":"6"},{"start_time":1551887990816,"click_time":1551887992269,"finger_time":1551887991468,"fix_duration":666.1086038918999,"trial":6,"RT":652,"MT":801,"sideResp":1,"stimulus":"img/250/equaldotanddens/L/5_Ratio_250_L_24_R_6.png","xmouse":[757,757,757,757,757,757,757,757,757,757,757,757,757,757,757,757,757,757,757,757,757,757,757,757,757,757,757,757,757,757,757,753,741,662,581,543,529,523,517,487,463,437,415,385,365,360,357,356,355,353,350,345,345,351,362,363,363,363,363,365,365,368,386,399,409,409,409,412,415,420,421,423,427],"ymouse":[489,489,489,489,489,489,489,489,489,489,489,489,489,489,489,489,489,489,489,489,489,489,489,489,489,489,489,489,489,489,489,485,473,396,324,289,273,267,262,246,236,225,214,197,182,176,172,168,166,162,153,137,107,87,63,62,62,62,60,58,58,58,67,79,90,90,90,90,87,79,74,70,60],"timestamp_mouse":[12,37,52,73,92,112,132,152,172,192,212,233,253,274,293,312,332,352,373,393,412,433,452,472,492,513,533,553,572,592,612,633,652,674,692,712,732,752,774,793,812,832,852,873,892,912,933,952,974,992,1012,1033,1052,1072,1092,1112,1132,1152,1173,1193,1212,1232,1253,1274,1292,1312,1332,1353,1373,1392,1412,1432,1453],"xSR":741.5,"ySR":469.95,"xT1":424.9,"yT1":0,"xT2":1058.1,"yT2":0,"toosoon":0,"cond_shown":"equaldotanddens","ratio_trial":250,"smaller_num":"6","larger_num":"24","correct_side":1,"subjID":"alanjaviercardenasriano37","gender":"0","age":"11","school":"6"},{"start_time":1551887994371,"click_time":1551887995568,"finger_time":1551887995168,"fix_duration":962.5438858503893,"trial":7,"RT":797,"MT":400,"sideResp":1,"stimulus":"img/500/equaldotsize/L/4_Ratio_500_L_18_R_9.png","xmouse":[804,804,804,804,804,804,804,801,799,798,798,798,798,798,798,798,798,798,798,798,798,798,798,798,798,798,798,798,798,798,798,798,798,798,798,798,798,798,777,743,664,483,395,333,307,281,273,264,261,260,259,259,259,259,260,266,286,355,402,453],"ymouse":[523,523,523,523,523,523,523,523,522,521,521,521,521,521,521,521,521,521,521,521,521,521,521,521,521,521,521,521,521,521,521,521,521,521,521,521,521,521,497,467,396,291,261,244,235,222,216,208,204,201,200,200,200,200,199,195,184,142,108,75],"timestamp_mouse":[18,38,57,78,97,117,137,158,177,197,218,237,258,277,298,318,337,358,378,398,419,437,457,477,497,518,537,558,577,597,618,637,658,677,697,717,738,759,777,797,817,837,857,878,897,917,937,957,984,998,1017,1038,1058,1077,1098,1118,1137,1158,1179,1197],"xSR":741.5,"ySR":469.95,"xT1":424.9,"yT1":0,"xT2":1058.1,"yT2":0,"toosoon":0,"cond_shown":"equaldotsize","ratio_trial":500,"smaller_num":"9","larger_num":"18","correct_side":1,"subjID":"alanjaviercardenasriano37","gender":"0","age":"11","school":"6"},{"start_time":1551887997161,"click_time":1551887998650,"finger_time":1551887997949,"fix_duration":250,"trial":8,"RT":788,"MT":701,"sideResp":2,"stimulus":"img/900/randomdotsizeEA/L/2_Ratio_900_L_20_R_18.png","xmouse":[786,786,786,786,786,786,786,786,786,786,786,786,786,786,786,786,786,786,786,786,786,786,786,786,786,786,786,786,786,786,786,786,786,791,794,795,795,795,791,780,764,749,710,694,684,679,679,676,676,688,712,745,819,857,882,886,888,888,888,888,888,889,890,894,901,910,915,929,939,967,998,1020,1049,1057,1061],"ymouse":[516,516,516,516,516,516,516,516,516,516,516,516,516,516,516,516,516,516,516,516,516,516,516,516,516,516,516,516,516,516,516,516,516,514,510,502,499,498,484,460,439,420,389,378,369,362,358,347,333,315,284,244,160,119,91,85,80,80,80,80,80,79,79,79,79,79,79,79,79,77,70,60,38,31,27],"timestamp_mouse":[7,35,48,68,88,108,127,149,168,187,207,228,247,268,287,308,327,347,367,387,408,427,447,468,487,507,527,548,567,589,607,627,647,667,687,708,727,748,768,788,808,828,847,867,887,907,929,947,967,988,1008,1027,1049,1068,1089,1107,1128,1148,1168,1189,1207,1229,1247,1268,1287,1308,1327,1348,1368,1388,1407,1428,1447,1467,1488],"xSR":741.5,"ySR":469.95,"xT1":424.9,"yT1":0,"xT2":1058.1,"yT2":0,"toosoon":0,"cond_shown":"randomdotsizeEA","ratio_trial":900,"smaller_num":"18","larger_num":"20","correct_side":1,"subjID":"alanjaviercardenasriano37","gender":"0","age":"11","school":"6"},{"start_time":1551888002337,"click_time":1551888003549,"finger_time":1551888002369,"fix_duration":666.7462926602716,"trial":9,"RT":32,"MT":1180,"sideResp":1,"stimulus":"img/750/randomdotsizeEA/R/7_Ratio_750_L_3_R_4.png","xmouse":[743,737,733,727,724,718,705,680,644,621,597,580,568,554,549,541,539,529,506,495,487,481,480,480,478,471,463,455,447,444,442,440,440,438,438,437,437,436,434,433,433,432,432,432,432,431,431,430,429,429,429,429,429,426,423,423,421,420,421,424,425],"ymouse":[504,501,498,497,496,492,486,473,453,440,426,415,406,397,393,388,386,379,365,359,353,349,348,347,342,329,309,282,231,213,203,196,194,191,190,189,188,187,183,179,178,176,175,174,173,171,169,166,166,166,166,165,164,155,142,138,124,106,81,71,68],"timestamp_mouse":[11,32,52,73,91,113,133,151,171,191,212,231,252,273,291,311,331,352,372,393,411,431,451,472,491,511,531,551,571,591,612,631,652,671,691,712,732,751,771,792,811,832,852,872,893,912,931,952,971,991,1012,1032,1051,1072,1091,1112,1132,1151,1171,1192,1212],"xSR":741.5,"ySR":469.95,"xT1":424.9,"yT1":0,"xT2":1058.1,"yT2":0,"toosoon":0,"cond_shown":"randomdotsizeEA","ratio_trial":750,"smaller_num":"3","larger_num":"4","correct_side":2,"subjID":"alanjaviercardenasriano37","gender":"0","age":"11","school":"6"},{"start_time":1551888009917,"click_time":1551888024708,"finger_time":1551888010469,"fix_duration":668.3468719010767,"trial":10,"RT":552,"MT":14239,"sideResp":2,"stimulus":"img/250/equaldotsize/R/10_Ratio_250_L_4_R_16.png","xmouse":[828,825,825,825,825,825,825,825,825,825,825,825,825,825,825,825,825,825,825,825,825,825,825,824,799,775,744,724,709,705,702,702,702,702,702,702,702,702,702,710,718,725,731,733,734,734,734,734,735,747,757,764,770,775,785,794,803,805,808,811,812,813,813,814,816,818,825,840,874,919,935,938,938,938,938,939,940,942,942,942,943,951,964,975,983,984,985,985,985,985,985,988,990,992,997,998,999,1000,1000,1002,1002,1002,1002,1002,1002,1002,1002,1003,1006,1012,1017,1023,1029,1035,1039,1039,1039,1039,1039,1039,1039,1039,1039,1039,1039,1039,1039,1039,1039,1039,1039,1039,1039,1039,1039,1039,1039,1039,1039,1039,1039,1039,1039,1039,1039,1039,1039,1039,1039,1039,1039,1039,1039,1039,1039,1039,1039,1039,1039,1039,1039,1039,1039,1039,1039,1039,1039,1039,1039,1039,1039,1039,1039,1039,1039,1039,1039,1039,1039,1039,1039,1039,1039,1039,1039,1039,1039,1039,1039,1039,1039,1039,1039,1039,1039,1039,1039,1039,1039,1039,1039,1039,1039,1039,1039,1039,1039,1039,1039,1039,1039,1039,1039,1039,1039,1039,1039,1039,1039,1039,1039,1039,1039,1039,1039,1039,1039,1039,1039,1039,1039,1039,1039,1039,1039,1039,1039,1039,1039,1039,1039,1039,1039,1039,1039,1039,1039,1039,1039,1039,1039,1039,1039,1039,1039,1039,1039,1039,1039,1039,1039,1039,1039,1039,1039,1039,1039,1039,1039,1039,1039,1039,1039,1039,1039,1039,1039,1039,1039,1039,1039,1039,1039,1039,1039,1039,1039,1039,1039,1039,1039,1039,1039,1039,1039,1039,1039,1039,1039,1039,1039,1039,1039,1039,1039,1039,1039,1039,1039,1039,1039,1039,1039,1039,1039,1039,1039,1039,1038,998,990,990,990,990,984,975,972,971,971,971,971,971,971,971,971,971,972,978,979,979,979,979,979,979,979,979,979,979,979,979,979,979,979,979,979,979,979,979,979,979,979,979,979,979,979,979,979,979,979,979,979,979,979,979,979,979,979,979,979,979,979,979,979,979,979,979,979,979,979,979,979,979,979,979,979,979,979,979,979,979,979,979,979,979,979,979,979,979,979,979,979,979,979,979,979,979,979,979,979,979,979,979,979,979,979,979,979,979,979,979,979,979,979,979,979,979,979,979,979,979,979,979,979,979,979,979,979,979,979,979,979,979,979,979,979,979,979,979,979,979,979,979,979,979,979,979,979,979,979,979,979,979,979,979,979,979,979,979,979,979,979,979,979,979,979,979,979,979,979,979,979,979,979,979,979,979,979,979,979,979,979,979,979,979,979,979,979,979,979,979,979,979,979,979,979,979,979,979,979,979,979,979,980,984,991,992,992,992,992,992,992,992,992,992,992,992,992,992,992,992,995,998,1002,1004,1008,1011,1016,1018,1022,1025,1026,1026,1026,1026,1026,1026,1026,1028,1034,1041,1044,1045,1046,1046,1046,1046,1046,1046,1046,1046,1046,1046,1046,1046,1046,1046,1046,1046,1046,1046,1046,1046,1046,1046,1046,1046,1046,1046,1046,1046,1046,1046,1046,1046,1046,1046,1046,1046,1046,1046,1046,1046,1046,1046,1046,1046,1046,1047,1051,1056,1056,1056,1056,1056,1056,1056,1056,1056,1056,1056,1056,1056,1056,1056,1056,1056,1056,1056,1056,1056,1056,1056,1056,1056,1056,1056,1056,1056,1056,1056,1056,1056,1056,1056,1056,1056,1056,1056,1056,1056,1056,1056,1056,1056,1056,1056,1056,1056,1056,1056,1056,1056,1056,1056,1056,1056,1056,1056,1056,1056,1056,1056,1056,1056,1056,1056,1056,1056,1056,1056,1056,1056,1056,1056,1056,1056,1056,1056,1056,1056,1056,1056,1056,1056,1056,1056,1056,1056,1056,1056,1056,1056,1056,1056,1056,1056,1056,1056,1056,1056,1056,1056,1056,1056,1056,1056,1056,1056,1056,1056,1056,1056,1056,1056,1056,1056,1056,1056,1056,1056,1056,1056,1056,1056,1056,1056,1056,1056,1056,1065],"ymouse":[534,533,533,533,533,533,533,533,533,533,533,533,533,533,533,533,533,533,533,533,533,533,533,533,516,502,487,478,470,468,467,467,467,467,467,467,466,458,438,401,375,351,330,313,292,284,277,271,256,225,208,196,188,182,170,162,153,152,147,145,144,143,142,142,141,141,140,135,126,110,106,105,105,105,105,103,99,95,90,82,75,58,41,29,23,23,23,23,23,23,23,23,25,27,31,31,32,32,33,33,33,33,33,33,33,33,34,35,37,40,43,46,50,52,54,54,54,54,54,54,54,54,54,54,54,54,54,54,54,54,54,54,54,54,54,54,54,54,54,54,54,54,54,54,54,54,54,54,54,54,54,54,54,54,54,54,54,54,54,54,54,54,54,54,54,54,54,54,54,54,54,54,54,54,54,54,54,54,54,54,54,54,54,54,54,54,54,54,54,54,54,54,54,54,54,54,54,54,54,54,54,54,54,54,54,54,54,54,54,54,54,54,54,54,54,54,54,54,54,54,54,54,54,54,54,54,54,54,54,54,54,54,54,54,54,54,54,54,54,54,54,54,54,54,54,54,54,54,54,54,54,54,54,54,54,54,54,54,54,54,54,54,54,54,54,54,54,54,54,54,54,54,54,54,54,54,54,54,54,54,54,54,54,54,54,54,54,54,54,54,54,54,54,54,54,54,54,54,54,54,54,54,54,54,54,54,54,54,54,54,54,54,54,54,54,54,54,54,55,60,60,60,60,60,59,56,55,55,55,55,55,55,55,55,55,55,55,55,55,55,55,55,55,55,55,55,55,55,55,55,55,55,55,55,55,55,55,55,55,55,55,55,55,55,55,55,55,55,55,55,55,55,55,55,55,55,55,55,55,55,55,55,55,55,55,55,55,55,55,55,55,55,55,55,55,55,55,55,55,55,55,55,55,55,55,55,55,55,55,55,55,55,55,55,55,55,55,55,55,55,55,55,55,55,55,55,55,55,55,55,55,55,55,55,55,55,55,55,55,55,55,55,55,55,55,55,55,55,55,55,55,55,55,55,55,55,55,55,55,55,55,55,55,55,55,55,55,55,55,55,55,55,55,55,55,55,55,55,55,55,55,55,55,55,55,55,55,55,55,55,55,55,55,55,55,55,55,55,55,55,55,55,55,55,55,55,55,55,55,55,55,55,55,55,55,55,55,55,55,55,55,55,55,55,55,54,54,54,54,54,54,54,54,54,54,54,54,54,54,54,54,54,54,54,54,54,54,54,54,54,54,54,54,54,54,54,54,54,54,54,54,54,54,54,54,54,54,54,54,54,54,54,54,54,54,54,54,54,54,54,54,54,54,54,54,54,54,54,54,54,54,54,54,54,54,54,54,54,54,54,54,54,54,54,54,54,54,54,54,54,54,54,54,54,54,54,54,54,54,54,54,54,54,54,54,54,54,54,54,54,54,54,54,54,54,54,54,54,54,54,54,54,54,54,54,54,54,54,54,54,54,54,54,54,54,54,54,54,54,54,54,54,54,54,54,54,54,54,54,54,54,54,54,54,54,54,54,54,54,54,54,54,54,54,54,54,54,54,54,54,54,54,54,54,54,54,54,54,54,54,54,54,54,54,54,54,54,54,54,54,54,54,54,54,54,54,54,54,54,54,54,54,54,54,54,54,54,54,54,54,54,54,54,54,54,54,54,54,54,54],"timestamp_mouse":[12,37,51,71,92,112,131,152,171,193,211,232,251,271,291,312,333,352,372,391,411,431,452,472,491,512,531,552,571,591,612,632,651,672,692,711,731,752,772,792,811,831,851,872,891,911,932,951,973,991,1011,1031,1052,1072,1091,1112,1132,1156,1172,1191,1211,1231,1251,1273,1293,1311,1331,1352,1371,1391,1413,1432,1451,1472,1492,1513,1532,1551,1571,1591,1612,1631,1652,1671,1691,1712,1732,1751,1771,1792,1811,1832,1852,1871,1892,1912,1931,1952,1971,1991,2012,2031,2051,2071,2092,2112,2132,2152,2172,2191,2212,2232,2252,2273,2291,2312,2331,2351,2372,2391,2411,2431,2451,2471,2491,2512,2532,2551,2571,2592,2611,2632,2651,2672,2692,2712,2731,2751,2773,2792,2812,2832,2851,2872,2891,2911,2932,2952,2971,2991,3011,3032,3052,3071,3091,3113,3131,3151,3172,3192,3212,3231,3251,3272,3292,3311,3331,3353,3372,3391,3412,3431,3451,3471,3491,3511,3531,3552,3572,3592,3612,3631,3651,3671,3692,3712,3732,3752,3771,3793,3811,3832,3851,3872,3892,3912,3932,3952,3971,3992,4011,4031,4052,4071,4091,4113,4132,4151,4173,4193,4211,4232,4251,4272,4291,4311,4331,4352,4373,4391,4412,4431,4452,4472,4493,4511,4531,4551,4572,4591,4612,4632,4652,4673,4692,4711,4731,4751,4773,4792,4812,4832,4851,4871,4891,4912,4931,4952,4971,4992,5011,5031,5051,5071,5092,5111,5131,5151,5171,5192,5211,5232,5251,5272,5292,5311,5331,5351,5371,5393,5411,5431,5451,5471,5491,5511,5531,5551,5573,5591,5611,5633,5651,5672,5692,5712,5731,5751,5771,5791,5811,5831,5853,5872,5892,5911,5931,5951,5971,5992,6012,6031,6052,6072,6091,6112,6131,6151,6171,6192,6212,6232,6251,6271,6292,6312,6331,6351,6371,6391,6411,6431,6451,6471,6491,6512,6531,6552,6572,6592,6612,6631,6652,6673,6692,6711,6732,6751,6771,6791,6811,6833,6852,6872,6892,6911,6931,6953,6971,6992,7012,7031,7052,7072,7092,7112,7133,7151,7171,7192,7211,7231,7251,7271,7292,7313,7332,7351,7372,7391,7411,7432,7451,7471,7491,7512,7532,7551,7571,7593,7611,7632,7652,7672,7692,7713,7732,7751,7772,7791,7811,7832,7853,7872,7892,7911,7931,7953,7972,7993,8012,8031,8052,8071,8091,8112,8131,8151,8171,8192,8211,8231,8252,8272,8291,8311,8331,8351,8373,8392,8411,8431,8452,8471,8492,8511,8531,8551,8571,8591,8612,8631,8651,8671,8692,8711,8732,8751,8771,8792,8812,8831,8851,8871,8892,8911,8931,8951,8972,8991,9011,9031,9052,9071,9092,9111,9131,9153,9171,9192,9212,9232,9251,9272,9292,9312,9332,9352,9371,9392,9412,9432,9452,9472,9493,9511,9531,9551,9571,9591,9611,9631,9651,9672,9691,9711,9731,9751,9771,9792,9811,9832,9851,9871,9892,9911,9932,9952,9971,9991,10011,10031,10052,10072,10092,10112,10132,10151,10171,10192,10213,10231,10251,10271,10292,10311,10331,10351,10371,10393,10412,10432,10451,10471,10491,10512,10531,10551,10572,10591,10611,10633,10653,10671,10692,10712,10733,10751,10771,10792,10811,10831,10852,10872,10891,10912,10932,10952,10971,10991,11012,11031,11052,11071,11092,11111,11132,11152,11172,11191,11212,11231,11252,11272,11292,11311,11332,11351,11371,11392,11411,11432,11452,11472,11492,11511,11532,11552,11571,11592,11611,11631,11651,11671,11691,11711,11732,11752,11771,11792,11811,11831,11851,11871,11891,11912,11932,11951,11971,11992,12011,12032,12051,12072,12091,12111,12131,12151,12172,12192,12211,12231,12253,12271,12292,12311,12331,12352,12371,12392,12412,12432,12451,12472,12491,12512,12531,12552,12571,12592,12611,12631,12652,12673,12692,12711,12731,12751,12772,12793,12811,12832,12851,12871,12891,12911,12931,12952,12971,12991,13011,13031,13053,13072,13092,13111,13131,13152,13171,13192,13211,13231,13251,13271,13291,13312,13332,13351,13371,13392,13411,13431,13453,13471,13492,13511,13531,13551,13572,13591,13612,13631,13651,13671,13692,13712,13732,13751,13771,13792,13812,13832,13851,13871,13892,13911,13931,13952,13971,13991,14011,14031,14051,14071,14092,14111,14131,14153,14173,14193,14212,14231,14251,14272,14293,14311,14331,14351,14373,14392,14411,14431,14451,14472,14491,14512,14531,14551,14571,14591,14611,14631,14652,14672,14693,14712,14732,14751,14771,14791],"xSR":741.5,"ySR":469.95,"xT1":424.9,"yT1":0,"xT2":1058.1,"yT2":0,"toosoon":0,"cond_shown":"equaldotsize","ratio_trial":250,"smaller_num":"4","larger_num":"16","correct_side":2,"subjID":"alanjaviercardenasriano37","gender":"0","age":"11","school":"6"},{"start_time":1551888046867,"click_time":1551888057389,"finger_time":1551888048290,"fix_duration":1337.7020707911088,"trial":11,"RT":1423,"MT":9099,"sideResp":1,"stimulus":"img/500/equaldotsize/L/4_Ratio_500_L_18_R_9.png","xmouse":[828,828,828,828,828,828,828,828,828,828,828,828,828,828,828,828,828,828,828,828,828,828,828,828,828,828,828,828,828,828,828,828,828,828,828,828,828,828,828,828,828,828,828,828,828,828,828,828,828,828,828,828,828,828,828,828,828,828,828,828,828,828,828,828,828,828,828,828,828,827,832,842,860,860,860,860,863,881,886,889,889,889,891,894,899,907,919,932,936,936,936,937,937,937,943,954,967,978,978,978,978,978,978,978,978,978,978,978,979,980,983,984,984,984,984,984,984,984,983,975,967,957,940,929,915,899,888,884,884,884,884,884,881,872,859,846,833,816,812,812,812,812,812,812,812,812,812,812,812,812,812,812,812,812,812,812,812,812,812,812,812,812,812,812,812,812,812,812,812,812,812,812,812,812,812,812,812,812,812,812,812,812,812,812,812,812,812,812,812,812,812,812,812,812,812,812,812,812,812,812,812,812,812,812,812,812,812,812,812,812,812,812,812,812,812,812,812,812,812,812,812,812,812,812,812,812,812,812,812,812,812,812,812,812,812,812,812,812,812,812,812,812,812,812,812,812,812,812,812,812,812,812,812,812,812,812,812,812,812,812,812,812,812,812,812,812,812,812,812,812,812,812,812,812,812,812,812,812,812,812,812,812,812,812,812,812,812,812,812,812,812,812,812,812,812,812,812,812,812,812,812,812,812,799,770,747,733,718,712,704,697,690,686,686,686,686,686,686,686,686,686,686,685,683,681,679,678,678,678,678,676,673,670,666,664,661,661,661,661,661,661,661,661,661,661,661,661,661,661,661,661,661,661,661,661,661,661,661,661,661,661,661,661,661,661,661,661,661,661,661,661,661,661,661,661,661,661,661,661,535,536,536,536,536,536,536,536,536,536,536,536,536,536,536,536,536,536,536,536,536,536,536,534,533,533,533,533,533,533,532,532,531,530,530,530,530,530,530,530,530,530,530,530,530,530,530,530,530,530,530,530,530,530,530,530,530,530,530,530,530,530,530,530,530,530,530,530,530,530,530,530,530,530,530,530,530,530,530,530,530,530,530,530,530,530,530,530,530,530,530,530,530,530,530,530,530,530,530,530,530,530,530,530,530,530,530,530,530,530,530,530,530,530,530,530,530,530,530,530,530,530,530,530,530,530,530,530,530,530,530,530,530,530,530,530,530,530,530,530,530,530,530,530,530,528,525,515],"ymouse":[530,530,530,530,530,530,530,530,530,530,530,530,530,530,530,530,530,530,530,530,530,530,530,530,530,530,530,530,530,530,530,530,530,530,530,530,530,530,530,530,530,530,530,530,530,530,530,530,530,530,530,530,530,530,530,530,530,530,530,530,530,530,530,530,530,530,530,530,530,530,537,543,554,555,555,555,555,555,555,555,555,555,555,555,555,555,558,567,569,569,569,569,569,569,570,572,574,576,576,576,576,576,576,576,576,576,576,576,576,576,572,570,570,570,570,570,570,562,554,545,542,540,539,537,535,535,534,533,533,533,533,533,531,529,525,522,519,514,514,514,514,514,514,514,514,514,514,514,514,514,514,514,514,514,514,514,514,514,514,514,514,514,514,514,514,514,514,514,514,514,514,514,514,514,514,514,514,514,514,514,514,514,514,514,514,514,514,514,514,514,514,514,514,514,514,514,514,514,514,514,514,514,514,514,514,514,514,514,514,514,514,514,514,514,514,514,514,514,514,514,514,514,514,514,514,514,514,514,514,514,514,514,514,514,514,514,514,514,514,514,514,514,514,514,514,514,514,514,514,514,514,514,514,514,514,514,514,514,514,514,514,514,514,514,514,514,514,514,514,514,514,514,514,514,514,514,514,514,514,514,514,514,514,514,514,514,514,514,514,514,514,514,514,514,514,514,514,514,514,514,514,514,514,484,414,352,318,271,246,220,197,166,149,149,149,149,149,149,149,149,149,149,147,133,115,100,85,61,54,48,36,28,22,12,7,1,1,1,1,1,1,1,1,1,1,1,1,1,1,1,1,1,1,1,1,1,1,1,1,1,1,1,1,1,1,1,1,1,1,1,1,1,1,1,1,1,1,1,1,1,6,8,11,12,12,12,12,12,12,12,12,12,12,12,12,12,12,12,12,12,14,17,19,21,21,21,21,21,21,22,22,23,23,25,25,25,25,25,25,25,25,25,25,25,25,25,25,25,25,25,25,25,25,25,25,25,25,25,25,25,25,25,25,25,25,25,25,25,25,25,25,25,25,25,25,25,25,25,25,25,25,25,25,25,25,25,25,25,25,25,25,25,25,25,25,25,25,25,25,25,25,25,25,25,25,25,25,25,25,25,25,25,25,25,25,25,25,25,25,25,25,25,25,25,25,25,25,25,25,25,25,25,25,25,25,25,25,25,25,25,25,25,25,25,25,25,25],"timestamp_mouse":[9,22,43,62,83,103,122,141,163,182,203,221,241,263,281,303,322,342,362,382,403,423,443,462,481,503,523,541,563,583,602,623,641,662,683,702,723,741,761,782,803,822,842,863,882,903,923,942,962,981,1003,1022,1042,1061,1083,1103,1121,1142,1162,1183,1202,1222,1242,1263,1283,1302,1322,1341,1363,1383,1401,1423,1442,1462,1482,1502,1523,1543,1562,1582,1601,1622,1642,1661,1681,1702,1723,1742,1763,1782,1801,1822,1842,1863,1882,1902,1922,1941,1962,1982,2002,2022,2042,2062,2082,2102,2122,2142,2162,2182,2202,2222,2242,2262,2281,2302,2323,2341,2362,2382,2402,2422,2441,2461,2482,2503,2521,2542,2562,2582,2603,2622,2642,2662,2681,2702,2722,2741,2763,2782,2802,2821,2842,2862,2882,2902,2921,2942,2962,2981,3002,3022,3042,3062,3082,3103,3122,3141,3161,3182,3202,3223,3242,3262,3281,3303,3323,3342,3363,3382,3401,3423,3442,3462,3482,3502,3523,3543,3561,3583,3602,3622,3642,3661,3683,3702,3723,3742,3762,3782,3802,3823,3843,3862,3882,3903,3923,3942,3962,3983,4001,4022,4041,4062,4082,4101,4121,4142,4162,4182,4201,4222,4242,4262,4282,4302,4321,4342,4362,4383,4401,4422,4442,4463,4482,4503,4521,4542,4563,4582,4601,4621,4641,4662,4683,4701,4721,4742,4761,4782,4802,4823,4841,4861,4883,4901,4921,4942,4962,4982,5001,5023,5042,5062,5083,5102,5122,5142,5162,5183,5202,5223,5243,5263,5281,5303,5321,5341,5362,5382,5403,5422,5442,5461,5483,5501,5523,5541,5563,5582,5601,5622,5643,5663,5681,5703,5723,5742,5763,5782,5803,5823,5843,5863,5882,5902,5923,5942,5961,5983,6002,6022,6041,6063,6082,6103,6122,6142,6162,6181,6201,6222,6242,6262,6281,6302,6323,6342,6363,6381,6402,6422,6442,6463,6482,6502,6523,6541,6561,6582,6602,6623,6642,6662,6682,6702,6723,6743,6762,6782,6801,6822,6842,6861,6882,6902,6922,6943,6962,6983,7003,7023,7042,7062,7082,7102,7123,7142,7162,7183,7201,7221,7242,7261,7283,7303,7322,7343,7363,7382,7403,7422,7443,7462,7483,7503,7523,7542,7561,7582,7602,7622,7642,7662,7682,7702,7722,7743,7763,7783,7802,7821,7842,7862,7882,7901,7923,7942,7962,7981,8002,8022,8042,8063,8082,8101,8122,8142,8163,8182,8202,8222,8242,8261,8281,8302,8323,8342,8362,8382,8402,8422,8443,8463,8482,8502,8523,8542,8562,8581,8602,8622,8642,8663,8682,8702,8722,8742,8761,8782,8803,8821,8843,8862,8881,8902,8921,8943,8962,8983,9003,9022,9043,9063,9083,9102,9121,9143,9163,9182,9202,9222,9242,9262,9282,9302,9323,9342,9362,9382,9401,9423,9442,9462,9482,9501,9522,9542,9562,9583,9603,9621,9642,9662,9682,9702,9723,9742,9762,9782,9802,9822,9843,9862,9881,9902,9922,9942,9963,9982,10002,10022,10042,10062,10082,10103,10122,10142,10161,10181,10202,10222,10242,10263,10283,10302,10321,10342,10363,10382,10402,10421,10442,10462,10482,10503,10522],"xSR":741.5,"ySR":469.95,"xT1":424.9,"yT1":0,"xT2":1058.1,"yT2":0,"toosoon":0,"cond_shown":"equaldotsize","ratio_trial":500,"smaller_num":"9","larger_num":"18","correct_side":1,"subjID":"alanjaviercardenasriano37","gender":"0","age":"11","school":"6"},{"start_time":1551888061755,"click_time":1551888066609,"finger_time":1551888062349,"fix_duration":424.51360723788764,"trial":12,"RT":594,"MT":4260,"sideResp":1,"stimulus":"img/750/equaldotsize/L/14_Ratio_750_L_8_R_6.png","xmouse":[797,797,797,797,797,797,797,797,797,797,797,797,797,797,797,797,797,797,794,789,782,774,767,765,765,763,762,755,753,750,748,747,747,747,747,747,747,747,747,747,747,747,747,748,755,766,793,841,859,873,883,892,901,902,902,903,913,931,934,937,940,940,940,940,940,940,940,940,940,940,940,940,940,940,938,931,923,915,914,911,910,908,899,886,876,869,865,834,797,767,744,725,704,703,703,703,703,703,703,703,703,703,703,703,703,703,703,702,701,700,697,695,694,694,694,694,694,694,694,694,694,694,694,694,693,693,688,687,687,687,686,683,672,665,659,652,636,611,603,599,593,587,578,575,574,574,572,571,571,569,567,567,565,564,563,563,563,563,561,560,559,558,557,556,554,553,550,547,547,546,546,546,545,545,545,545,544,544,544,543,542,542,542,542,542,542,542,541,541,540,540,540,539,539,539,538,537,536,536,536,536,536,534,534,534,534,534,534,534,534,534,534,534,534,534,533,533,533,532,531,531,530,529,528,528,527,527,526,526,526,526,526,526,526,526,526,526,526,525,525,525,525,524],"ymouse":[528,528,528,528,528,528,528,528,528,528,528,528,528,528,528,528,528,527,522,517,510,502,490,487,485,482,480,472,470,466,463,462,462,462,462,462,462,462,462,462,462,462,462,461,461,458,445,406,378,353,329,310,284,279,276,270,253,232,229,226,223,223,223,223,223,223,223,223,223,223,223,223,223,223,222,219,216,214,214,214,213,213,210,205,202,200,198,186,172,164,156,153,147,146,146,146,146,146,146,146,146,146,146,146,146,146,146,155,165,175,184,191,196,196,196,196,196,196,196,196,196,196,196,196,196,196,197,197,197,197,197,197,193,189,183,174,149,112,101,93,84,76,65,63,62,62,62,61,61,61,61,61,62,63,63,63,63,63,63,63,63,63,63,63,63,63,63,63,63,63,63,63,63,63,63,63,63,63,63,64,64,64,64,65,65,65,65,65,65,66,66,66,67,67,67,68,69,69,69,69,71,71,76,79,81,82,82,83,83,83,83,84,84,84,84,84,84,86,86,87,87,87,89,89,89,90,91,92,92,93,93,93,93,93,93,93,93,93,94,94,94,95,95],"timestamp_mouse":[17,39,55,73,94,114,135,153,175,195,213,234,255,273,295,315,335,353,375,393,414,435,454,474,494,514,534,554,574,594,614,634,654,674,695,714,734,754,774,794,814,835,854,874,895,914,934,954,975,995,1014,1034,1055,1073,1095,1114,1134,1153,1174,1195,1214,1233,1255,1274,1294,1313,1334,1355,1374,1393,1414,1434,1455,1475,1493,1514,1535,1554,1575,1594,1614,1635,1653,1673,1694,1714,1734,1753,1775,1794,1814,1834,1854,1873,1894,1914,1933,1954,1974,1995,2013,2034,2055,2074,2094,2114,2135,2153,2173,2194,2215,2235,2254,2273,2293,2314,2335,2354,2374,2394,2413,2435,2455,2473,2494,2514,2533,2554,2574,2594,2615,2633,2654,2674,2694,2715,2734,2754,2775,2795,2814,2835,2854,2874,2894,2915,2933,2954,2975,2994,3014,3034,3055,3074,3094,3114,3135,3154,3174,3193,3213,3235,3254,3274,3295,3314,3335,3354,3373,3395,3415,3435,3454,3474,3494,3515,3535,3553,3574,3594,3614,3633,3654,3675,3694,3714,3734,3754,3774,3793,3815,3834,3854,3874,3895,3914,3934,3955,3975,3994,4014,4035,4054,4073,4093,4114,4135,4154,4174,4195,4214,4234,4254,4275,4294,4314,4333,4354,4374,4394,4415,4434,4454,4473,4494,4514,4534,4554,4573,4593,4614,4635,4654,4673,4693,4714,4735,4753,4774,4794,4815,4834,4853],"xSR":741.5,"ySR":469.95,"xT1":424.9,"yT1":0,"xT2":1058.1,"yT2":0,"toosoon":0,"cond_shown":"equaldotsize","ratio_trial":750,"smaller_num":"6","larger_num":"8","correct_side":1,"subjID":"alanjaviercardenasriano37","gender":"0","age":"11","school":"6"},{"start_time":1551888070653,"click_time":1551888072290,"finger_time":1551888071509,"fix_duration":1081.5987495913218,"trial":13,"RT":856,"MT":781,"sideResp":1,"stimulus":"img/250/equaldotanddens/L/15_Ratio_250_L_12_R_3.png","xmouse":[781,781,781,781,781,781,781,781,781,781,781,781,781,781,781,781,781,781,781,781,781,781,781,781,781,781,781,781,781,781,781,781,781,781,781,781,781,781,781,781,777,758,724,701,680,668,661,646,637,630,622,615,605,602,599,596,594,592,591,590,588,586,583,583,582,581,581,579,578,578,578,576,574,572,569,564,559,548,546,544,540,522],"ymouse":[518,518,518,518,518,518,518,518,518,518,518,518,518,518,518,518,518,518,518,518,518,518,518,518,518,518,518,518,518,518,518,518,518,518,518,518,518,518,518,518,511,486,437,395,342,296,244,153,128,113,101,90,75,70,64,60,58,55,54,53,52,50,49,49,49,49,49,49,50,50,50,50,52,53,56,59,62,65,66,66,67,69],"timestamp_mouse":[17,36,56,77,97,115,137,155,176,195,216,237,257,275,296,317,337,357,375,397,417,436,456,476,496,517,536,557,576,597,615,636,656,675,695,715,736,756,775,796,817,835,856,877,896,916,937,956,977,996,1015,1036,1055,1075,1096,1116,1136,1157,1176,1195,1217,1236,1256,1277,1295,1317,1336,1357,1377,1396,1416,1436,1456,1477,1495,1516,1537,1557,1576,1596,1615,1637],"xSR":741.5,"ySR":469.95,"xT1":424.9,"yT1":0,"xT2":1058.1,"yT2":0,"toosoon":0,"cond_shown":"equaldotanddens","ratio_trial":250,"smaller_num":"3","larger_num":"12","correct_side":1,"subjID":"alanjaviercardenasriano37","gender":"0","age":"11","school":"6"},{"start_time":1551888073662,"click_time":1551888074909,"finger_time":1551888074230,"fix_duration":250,"trial":14,"RT":568,"MT":679,"sideResp":2,"stimulus":"img/750/equaldotsize/R/2_Ratio_750_L_6_R_8.png","xmouse":[811,811,811,811,811,811,811,811,811,811,811,811,811,811,811,811,811,811,811,811,811,811,811,811,811,811,808,792,781,774,766,761,753,753,753,753,753,753,755,758,765,779,812,832,852,872,888,918,931,947,957,972,987,995,1003,1008,1012,1015,1024,1038,1042,1058,1083],"ymouse":[525,525,525,525,525,525,525,525,525,525,525,525,525,525,525,525,525,525,525,525,525,525,525,525,525,525,513,482,463,448,432,424,411,408,404,399,398,395,390,383,370,345,301,279,255,235,220,199,191,183,180,173,166,163,160,157,154,152,142,125,119,93,42],"timestamp_mouse":[7,31,48,67,86,106,127,147,166,188,206,226,247,268,288,307,328,347,367,387,408,426,447,467,487,508,528,547,568,588,607,627,648,667,687,708,727,748,766,787,807,827,846,867,887,907,928,947,966,988,1007,1026,1047,1067,1088,1108,1127,1147,1167,1187,1207,1227,1247],"xSR":741.5,"ySR":469.95,"xT1":424.9,"yT1":0,"xT2":1058.1,"yT2":0,"toosoon":0,"cond_shown":"equaldotsize","ratio_trial":750,"smaller_num":"6","larger_num":"8","correct_side":2,"subjID":"alanjaviercardenasriano37","gender":"0","age":"11","school":"6"},{"start_time":1551888089190,"click_time":1551888090709,"finger_time":1551888090108,"fix_duration":1379.5860289916561,"trial":15,"RT":918,"MT":601,"sideResp":2,"stimulus":"img/750/equaldotanddens/R/2_Ratio_750_L_6_R_8.png","xmouse":[800,800,800,800,800,800,800,800,800,800,800,800,800,800,800,800,800,800,800,800,800,800,800,800,800,800,800,800,800,800,800,800,800,800,800,800,800,800,800,800,800,800,800,800,800,800,805,827,848,866,876,881,881,883,883,883,883,883,884,884,886,895,900,904,908,918,932,941,952,962,966,968,970,990,1000,1036,1076],"ymouse":[485,485,485,485,485,485,485,485,485,485,485,485,485,485,485,485,485,485,485,485,485,485,485,485,485,485,485,485,485,485,485,485,485,485,485,485,485,485,485,485,485,485,485,485,485,485,452,373,295,220,154,69,50,43,41,41,41,41,40,40,40,40,40,40,40,39,35,33,30,28,27,27,27,36,42,61,80],"timestamp_mouse":[2,20,40,59,80,98,119,140,158,179,199,218,240,259,279,300,319,338,359,380,398,420,438,460,478,500,518,540,559,578,599,619,639,659,679,700,719,739,760,779,800,820,838,860,880,899,918,939,959,980,998,1019,1040,1059,1079,1099,1119,1139,1160,1179,1199,1219,1238,1259,1279,1300,1319,1338,1359,1378,1399,1419,1438,1460,1479,1498,1519],"xSR":741.5,"ySR":469.95,"xT1":424.9,"yT1":0,"xT2":1058.1,"yT2":0,"toosoon":0,"cond_shown":"equaldotanddens","ratio_trial":750,"smaller_num":"6","larger_num":"8","correct_side":2,"subjID":"alanjaviercardenasriano37","gender":"0","age":"11","school":"6"},{"start_time":1551888094193,"click_time":1551888096089,"finger_time":1551888094348,"fix_duration":863.9637820221363,"trial":16,"RT":155,"MT":1741,"sideResp":1,"stimulus":"img/250/equaldotanddens/L/7_Ratio_250_L_8_R_2.png","xmouse":[811,811,811,811,811,812,826,844,850,850,850,850,850,850,850,850,850,850,850,850,850,848,839,818,799,750,724,694,666,637,614,614,614,614,613,614,617,625,627,629,629,631,639,650,660,647,615,526,403,292,191,191,191,191,191,191,191,191,191,191,191,191,191,191,191,191,191,191,191,191,191,191,266,329,388,400,400,400,400,400,400,400,400,400,400,400,400,400,400,400,400,400,400,402,429],"ymouse":[503,503,503,503,503,503,491,472,466,466,466,466,466,466,466,466,466,466,466,466,466,466,467,476,487,512,521,530,538,546,554,554,554,554,554,539,535,523,520,518,518,518,516,503,486,457,420,341,235,130,17,17,17,17,17,17,17,17,17,17,17,17,17,17,17,17,17,17,17,17,17,17,1,13,21,22,22,22,22,22,22,22,22,22,22,22,22,22,22,22,22,22,22,23,31],"timestamp_mouse":[16,37,56,76,96,116,137,155,175,196,215,236,256,276,295,317,337,356,377,397,416,436,457,475,496,516,536,556,577,596,616,637,656,675,696,716,737,757,777,796,815,837,857,876,896,916,937,956,975,996,1016,1036,1056,1075,1096,1116,1137,1156,1176,1197,1216,1236,1255,1275,1296,1316,1336,1356,1376,1397,1416,1437,1456,1476,1497,1515,1536,1556,1577,1597,1616,1635,1656,1676,1697,1716,1737,1756,1777,1795,1816,1837,1856,1876,1896],"xSR":741.5,"ySR":469.95,"xT1":424.9,"yT1":0,"xT2":1058.1,"yT2":0,"toosoon":0,"cond_shown":"equaldotanddens","ratio_trial":250,"smaller_num":"2","larger_num":"8","correct_side":1,"subjID":"alanjaviercardenasriano37","gender":"0","age":"11","school":"6"},{"start_time":1551888100508,"click_time":1551888118830,"finger_time":1551888108609,"fix_duration":476.96420112177395,"trial":17,"RT":8101,"MT":10221,"sideResp":1,"stimulus":"img/500/equaldotsize/R/9_Ratio_500_L_2_R_4.png","xmouse":[835,835,835,835,835,835,835,835,835,835,835,835,835,835,835,835,835,835,835,835,835,835,835,835,835,835,835,835,835,835,835,835,835,835,835,835,835,835,835,835,835,835,835,835,835,835,835,835,835,835,835,835,835,835,835,835,835,835,835,835,835,835,835,835,835,835,835,835,835,835,835,835,835,835,835,835,835,835,835,835,835,835,835,835,835,835,835,835,835,835,835,835,835,835,835,835,835,835,835,835,835,835,835,835,835,835,835,835,835,835,835,835,835,835,835,835,835,835,835,835,835,835,835,835,835,835,835,835,835,835,835,835,835,835,835,835,835,835,835,835,835,835,835,835,835,835,835,835,835,835,835,835,835,835,835,835,835,835,835,835,835,835,835,835,835,835,835,835,835,835,835,835,835,835,835,835,835,835,835,835,835,835,835,835,835,835,835,835,835,835,835,835,835,835,835,835,835,835,835,835,835,835,835,835,835,835,835,835,835,835,835,835,835,835,835,835,835,835,835,835,835,835,835,835,835,835,835,835,835,835,835,835,835,835,835,835,835,835,835,835,835,835,835,835,835,835,835,835,835,835,835,835,835,835,835,835,835,835,835,835,835,835,835,835,835,835,835,835,835,835,835,835,835,835,835,835,835,835,835,835,835,835,835,835,835,835,835,835,835,835,835,835,835,835,835,835,835,835,835,835,835,835,835,835,835,835,835,835,835,835,835,835,835,835,835,835,835,835,835,835,835,835,835,835,835,835,835,835,835,835,835,835,835,835,835,835,835,835,835,835,835,835,835,835,835,835,835,835,835,835,835,835,835,835,835,835,835,835,835,835,835,835,835,835,835,835,835,835,835,835,835,835,835,835,835,835,835,835,835,835,835,835,835,835,835,835,835,835,835,835,835,835,835,835,835,835,835,835,835,835,835,835,835,835,838,870,880,882,884,884,842,802,749,707,675,632,626,625,624,622,622,626,635,641,643,645,645,644,643,643,643,643,648,652,654,658,664,670,678,683,686,686,687,687,687,691,694,697,698,698,698,698,698,699,700,713,720,727,727,727,727,730,731,731,731,731,731,732,735,749,755,755,755,755,757,761,778,804,823,849,869,870,871,871,871,871,871,871,870,868,863,861,858,854,849,843,829,820,813,805,795,795,795,795,795,795,795,795,795,795,795,795,795,795,795,795,795,795,795,795,795,795,795,795,795,795,795,795,795,795,795,795,795,795,795,795,795,795,795,795,795,795,795,795,795,795,795,795,795,795,795,795,795,795,795,795,795,795,795,795,795,795,795,795,795,795,795,795,795,795,795,795,795,795,795,795,795,795,795,795,795,795,795,795,795,795,795,795,795,795,795,795,795,795,795,795,795,795,795,795,795,795,795,795,795,797,800,801,801,801,801,801,801,801,801,801,801,801,801,801,801,801,801,801,801,801,801,801,801,801,801,801,801,801,801,801,801,801,801,801,801,801,801,801,801,801,801,801,801,801,801,801,801,801,801,801,801,801,801,801,801,801,801,801,801,801,801,801,801,801,801,801,801,801,801,801,801,801,801,801,801,801,801,801,801,801,801,801,801,801,801,801,801,801,801,801,801,801,801,801,801,801,801,801,801,801,801,801,801,801,801,801,801,801,801,801,801,801,801,801,801,801,801,801,801,801,801,801,801,801,801,801,801,801,801,801,801,801,801,801,801,801,801,801,801,801,801,801,801,801,801,801,801,801,801,801,801,801,801,801,801,801,801,801,801,801,801,801,801,801,801,801,801,801,801,801,801,801,801,801,801,801,801,801,801,801,801,801,801,801,801,801,801,801,801,801,801,801,801,801,801,801,801,801,801,801,801,801,801,801,801,801,801,801,801,801,801,801,801,801,801,801,801,801,801,801,801,801,801,801,801,801,801,801,801,801,801,801,801,801,801,801,801,801,801,801,801,801,801,801,801,801,801,801,801,801,801,801,801,801,801,801,801,801,801,801,801,801,801,801,801,801,801,801,801,801,801,776,749,710,696,695,695,695,702,720,720,699,689,668,625,606,592,574,555,516,487,454,417,384,360,351,343,337,334,334,334,334,336,340,355,365,380,397,410,422,425],"ymouse":[533,533,533,533,533,533,533,533,533,533,533,533,533,533,533,533,533,533,533,533,533,533,533,533,533,533,533,533,533,533,533,533,533,533,533,533,533,533,533,533,533,533,533,533,533,533,533,533,533,533,533,533,533,533,533,533,533,533,533,533,533,533,533,533,533,533,533,533,533,533,533,533,533,533,533,533,533,533,533,533,533,533,533,533,533,533,533,533,533,533,533,533,533,533,533,533,533,533,533,533,533,533,533,533,533,533,533,533,533,533,533,533,533,533,533,533,533,533,533,533,533,533,533,533,533,533,533,533,533,533,533,533,533,533,533,533,533,533,533,533,533,533,533,533,533,533,533,533,533,533,533,533,533,533,533,533,533,533,533,533,533,533,533,533,533,533,533,533,533,533,533,533,533,533,533,533,533,533,533,533,533,533,533,533,533,533,533,533,533,533,533,533,533,533,533,533,533,533,533,533,533,533,533,533,533,533,533,533,533,533,533,533,533,533,533,533,533,533,533,533,533,533,533,533,533,533,533,533,533,533,533,533,533,533,533,533,533,533,533,533,533,533,533,533,533,533,533,533,533,533,533,533,533,533,533,533,533,533,533,533,533,533,533,533,533,533,533,533,533,533,533,533,533,533,533,533,533,533,533,533,533,533,533,533,533,533,533,533,533,533,533,533,533,533,533,533,533,533,533,533,533,533,533,533,533,533,533,533,533,533,533,533,533,533,533,533,533,533,533,533,533,533,533,533,533,533,533,533,533,533,533,533,533,533,533,533,533,533,533,533,533,533,533,533,533,533,533,533,533,533,533,533,533,533,533,533,533,533,533,533,533,533,533,533,533,533,533,533,533,533,533,533,533,533,533,533,533,533,533,533,533,533,533,533,533,533,533,533,533,533,533,533,533,533,533,533,533,533,533,533,533,533,533,533,533,533,533,534,540,548,578,602,630,654,672,701,705,706,706,700,674,656,641,627,620,612,609,605,597,592,584,579,574,571,571,569,567,563,558,555,553,553,553,553,553,553,549,546,542,541,539,539,538,536,536,531,527,524,524,524,524,524,524,524,524,524,524,524,524,521,518,517,517,517,517,517,512,501,489,471,459,458,458,458,458,458,458,458,458,458,458,460,462,464,469,472,482,489,494,501,510,511,511,511,511,511,511,511,511,511,511,511,511,511,511,511,511,511,511,511,511,511,511,511,511,511,511,511,511,511,511,511,511,511,511,511,511,511,511,511,511,511,511,511,511,511,511,511,511,511,511,511,511,511,511,511,511,511,511,511,511,511,511,511,511,511,511,511,511,511,511,511,511,511,511,511,511,511,511,511,511,511,511,511,511,511,511,511,511,511,511,511,511,511,511,511,511,511,511,511,511,511,511,511,511,511,511,511,511,511,511,511,511,511,511,511,511,511,511,511,511,511,511,511,511,511,511,511,511,511,511,511,511,511,511,511,511,511,511,511,511,511,511,511,511,511,511,511,511,511,511,511,511,511,511,511,511,511,511,511,511,511,511,511,511,511,511,511,511,511,511,511,511,511,511,511,511,511,511,511,511,511,511,511,511,511,511,511,511,511,511,511,511,511,511,511,511,511,511,511,511,511,511,511,511,511,511,511,511,511,511,511,511,511,511,511,511,511,511,511,511,511,511,511,511,511,511,511,511,511,511,511,511,511,511,511,511,511,511,511,511,511,511,511,511,511,511,511,511,511,511,511,511,511,511,511,511,511,511,511,511,511,511,511,511,511,511,511,511,511,511,511,511,511,511,511,511,511,511,511,511,511,511,511,511,511,511,511,511,511,511,511,511,511,511,511,511,511,511,511,511,511,511,511,511,511,511,511,511,511,511,511,511,511,511,511,511,511,511,511,511,511,511,511,511,511,511,511,511,511,511,511,511,511,511,511,511,511,511,511,511,511,511,511,511,511,511,511,511,511,511,511,511,511,511,511,511,511,511,511,511,511,511,511,511,511,511,511,511,511,511,511,511,511,511,511,511,498,483,461,451,450,439,418,405,400,400,411,416,424,426,423,414,398,381,333,291,247,195,135,92,80,72,66,63,57,52,48,41,36,34,36,43,51,59,63,63],"timestamp_mouse":[7,21,41,61,80,102,120,140,161,181,201,222,242,262,281,300,320,341,361,382,401,421,440,460,481,500,521,541,562,581,601,621,641,661,680,700,720,742,762,781,801,821,840,860,882,900,922,941,962,982,1001,1021,1041,1061,1081,1102,1120,1142,1161,1181,1201,1220,1241,1262,1280,1301,1321,1341,1362,1382,1401,1422,1441,1461,1481,1501,1522,1541,1561,1582,1600,1621,1641,1660,1680,1702,1721,1741,1760,1781,1801,1822,1841,1861,1880,1901,1921,1940,1961,1982,2000,2021,2042,2061,2080,2101,2121,2142,2162,2181,2202,2222,2241,2261,2281,2301,2322,2342,2361,2380,2402,2421,2442,2462,2480,2501,2521,2540,2562,2582,2601,2620,2641,2662,2682,2701,2722,2741,2762,2780,2801,2822,2842,2862,2881,2901,2921,2942,2960,2982,3001,3020,3042,3061,3081,3102,3122,3141,3160,3182,3202,3221,3240,3260,3280,3301,3320,3341,3360,3382,3401,3421,3442,3461,3480,3501,3522,3541,3560,3582,3601,3621,3641,3661,3681,3702,3722,3740,3762,3781,3801,3821,3842,3862,3882,3900,3922,3942,3961,3980,4001,4022,4040,4062,4082,4101,4121,4140,4162,4182,4201,4221,4242,4262,4281,4301,4322,4341,4361,4381,4402,4421,4440,4460,4481,4502,4521,4542,4562,4581,4602,4621,4641,4662,4682,4702,4721,4741,4762,4782,4801,4820,4842,4862,4881,4902,4923,4941,4961,4981,5002,5022,5043,5062,5082,5101,5123,5142,5162,5181,5201,5221,5242,5262,5281,5301,5322,5342,5362,5381,5401,5422,5443,5463,5481,5501,5521,5542,5561,5581,5601,5622,5643,5661,5681,5702,5722,5741,5762,5781,5801,5822,5842,5861,5882,5901,5922,5942,5963,5981,6001,6021,6042,6061,6082,6101,6122,6141,6162,6183,6202,6222,6241,6262,6282,6301,6321,6341,6361,6382,6402,6422,6443,6463,6482,6502,6521,6542,6563,6582,6602,6622,6642,6662,6682,6702,6722,6742,6762,6782,6801,6823,6842,6862,6882,6902,6922,6941,6961,6981,7001,7021,7041,7063,7083,7102,7122,7142,7162,7181,7201,7222,7242,7262,7281,7301,7323,7342,7362,7381,7402,7422,7441,7461,7482,7502,7521,7542,7562,7583,7602,7622,7642,7662,7681,7702,7721,7741,7762,7782,7801,7822,7841,7861,7882,7901,7923,7941,7962,7981,8002,8021,8041,8063,8083,8101,8121,8141,8161,8182,8201,8223,8241,8261,8282,8302,8322,8342,8362,8381,8401,8422,8441,8461,8482,8502,8521,8541,8562,8581,8601,8621,8642,8661,8683,8701,8721,8741,8761,8781,8801,8821,8841,8862,8882,8901,8923,8943,8961,8982,9001,9021,9041,9061,9081,9101,9121,9141,9163,9182,9202,9222,9241,9261,9282,9301,9321,9342,9361,9382,9402,9421,9441,9463,9483,9501,9522,9541,9563,9581,9601,9621,9642,9661,9682,9701,9722,9741,9761,9781,9802,9821,9841,9862,9881,9901,9922,9941,9961,9981,10002,10022,10042,10061,10081,10101,10121,10141,10161,10182,10201,10221,10241,10261,10281,10302,10322,10343,10361,10381,10402,10422,10441,10462,10481,10501,10523,10542,10561,10581,10601,10621,10642,10661,10682,10701,10721,10741,10761,10781,10801,10821,10841,10862,10881,10901,10921,10941,10961,10981,11001,11021,11042,11062,11082,11102,11121,11141,11162,11182,11202,11222,11241,11261,11281,11301,11323,11342,11361,11381,11401,11421,11442,11462,11483,11502,11521,11543,11561,11582,11602,11623,11641,11663,11681,11702,11721,11742,11762,11782,11801,11821,11842,11862,11882,11902,11922,11941,11961,11982,12001,12021,12041,12062,12082,12102,12122,12141,12162,12181,12201,12222,12242,12261,12282,12301,12321,12342,12361,12382,12401,12421,12443,12462,12482,12501,12522,12541,12562,12582,12602,12621,12642,12661,12681,12701,12721,12741,12763,12781,12801,12821,12842,12862,12882,12901,12923,12942,12961,12982,13001,13022,13043,13061,13082,13102,13122,13141,13161,13181,13201,13221,13241,13261,13281,13301,13321,13341,13362,13381,13401,13421,13441,13461,13482,13502,13521,13542,13561,13582,13601,13622,13641,13662,13681,13701,13722,13741,13761,13781,13801,13821,13842,13862,13882,13901,13921,13941,13961,13981,14002,14021,14041,14062,14082,14102,14122,14141,14163,14182,14202,14221,14242,14261,14282,14302,14322,14342,14362,14382,14402,14421,14441,14461,14481,14501,14522,14542,14562,14582,14603,14621,14642,14661,14681,14701,14721,14742,14763,14781,14801,14821,14843,14862,14882,14901,14923,14942,14962,14981,15003,15021,15041,15062,15082,15101,15123,15141,15162,15182,15201,15222,15242,15262,15283,15302,15322,15342,15361,15381,15402,15423,15442,15462,15481,15501,15521,15543,15562,15582,15601,15622,15641,15662,15681,15701,15722,15741,15762,15782,15802,15822,15842,15863,15882,15902,15922,15941,15961,15981,16002,16022,16042,16061,16081,16102,16122,16141,16162,16183,16202,16221,16241,16261,16281,16301,16322,16341,16363,16382,16401,16421,16442,16462,16482,16502,16522,16542,16561,16582,16602,16623,16642,16662,16682,16701,16722,16741,16762,16783,16801,16821,16842,16861,16881,16902,16922,16941,16962,16982,17001,17021,17041,17061,17081,17101,17121,17141,17162,17181,17201,17222,17242,17262,17281,17301,17321,17341,17361,17381,17402,17422,17442,17461,17481,17502,17522,17541,17562,17582,17602,17622,17641,17661,17681,17701,17721,17742,17763,17782,17801,17822,17843,17861,17882,17902,17922,17943,17962,17981,18001,18022,18041,18061,18081,18101,18121,18143,18161,18181,18201,18221,18241,18263,18281,18302,18322],"xSR":741.5,"ySR":469.95,"xT1":424.9,"yT1":0,"xT2":1058.1,"yT2":0,"toosoon":0,"cond_shown":"equaldotsize","ratio_trial":500,"smaller_num":"2","larger_num":"4","correct_side":2,"subjID":"alanjaviercardenasriano37","gender":"0","age":"11","school":"6"},{"start_time":1551888124794,"click_time":1551888133710,"finger_time":1551888126909,"fix_duration":362.33359807853503,"trial":18,"RT":2115,"MT":6801,"sideResp":2,"stimulus":"img/900/equaldotanddens/R/5_Ratio_900_L_9_R_10.png","xmouse":[789,789,789,789,789,789,789,789,789,789,789,789,789,789,789,789,789,789,789,789,789,789,789,789,789,789,789,789,789,789,789,789,789,789,789,789,789,789,789,789,789,789,789,789,789,789,789,789,789,789,789,789,789,789,789,789,789,789,789,789,789,789,789,789,789,789,789,789,789,789,789,789,789,789,789,789,789,789,789,789,789,789,789,789,789,789,789,789,789,789,789,789,789,789,789,789,789,789,789,788,786,786,785,785,785,785,785,785,786,788,791,793,797,803,808,809,801,788,797,822,822,822,822,822,822,822,822,822,822,1479,1449,1443,1442,1442,1442,1442,1440,1435,1431,1431,1431,1431,1438,1457,1471,1482,1482,1482,1482,1482,1482,1482,1482,1482,1482,1482,1482,1482,1482,1482,1482,1482,1482,1482,1482,1482,1482,1482,1482,1482,1439,1428,1414,1387,1372,1352,1349,1348,1347,1347,1346,1344,1341,1336,1326,1303,1292,1288,1287,1287,1287,1287,1292,1302,1319,1354,1354,1354,1354,1354,1354,1354,1354,1354,1354,1354,1354,1354,1354,1354,1354,1354,1354,1354,1354,1354,1354,1354,1354,1354,1354,1354,1354,1354,1354,1354,1354,1354,1354,1354,1354,1354,1354,1354,1354,1354,1354,1354,1354,1354,1354,1354,1354,1354,1354,1354,1354,1354,1354,1354,1354,1354,1354,1354,1354,1354,1354,1354,1354,1354,1354,1354,1354,1354,1354,1354,1354,1354,1354,1354,1354,1354,1354,1354,1354,1354,1354,1354,1354,1354,1354,1354,1354,1354,1354,1354,1354,1354,1354,1354,1354,1354,1354,1354,1354,1354,1354,1354,1354,1354,1354,1354,1354,1354,1354,1354,1354,1354,1354,1354,1354,1354,1354,1354,1354,1354,1354,1354,1354,1354,1354,1354,1354,1354,1354,1354,1354,1354,1354,1354,1354,1354,1354,1354,1354,1354,1354,1354,1354,1354,1354,1354,1354,1354,1354,1354,1354,1354,1354,1354,1354,1354,1354,1354,1354,1354,1354,1354,1354,1354,1354,1354,1354,1354,1354,1354,1354,1354,1354,1354,1354,1354,1354,1354,1354,1354,1354,1354,1354,1354,1354,1354,1354,1354,1354,1354,1354,1354,1354,1354,1354,1354,1354,1354,1354,1354,1354,1354,1438,1241,850,735,680,676,680,680,680,680,680,680,698,703,709,725,745,761,761,740,720,714,714,715,740,756,765,772,805,867,953,1040,1159,1186,1193,1193,1193,1193,1195,1197,1198,1196,1187,1185,1183,1179,1172,1155],"ymouse":[510,510,510,510,510,510,510,510,510,510,510,510,510,510,510,510,510,510,510,510,510,510,510,510,510,510,510,510,510,510,510,510,510,510,510,510,510,510,510,510,510,510,510,510,510,510,510,510,510,510,510,510,510,510,510,510,510,510,510,510,510,510,510,510,510,510,510,510,510,510,510,510,510,510,510,510,510,510,510,510,510,510,510,510,510,510,510,510,510,510,510,510,510,510,510,510,510,510,511,501,487,481,477,476,474,468,463,458,452,441,416,400,384,361,346,328,264,169,59,4,4,4,4,4,4,4,4,4,4,4,30,43,51,54,55,57,61,65,67,67,67,63,49,27,14,3,3,3,3,3,3,3,3,3,3,3,3,3,3,3,3,3,3,3,3,3,3,3,3,3,21,52,92,157,199,247,256,259,260,265,277,292,311,351,383,453,480,504,524,533,534,534,542,567,610,722,722,722,722,722,722,722,722,722,722,722,722,722,722,722,722,722,722,722,722,722,722,722,722,722,722,722,722,722,722,722,722,722,722,722,722,722,722,722,722,722,722,722,722,722,722,722,722,722,722,722,722,722,722,722,722,722,722,722,722,722,722,722,722,722,722,722,722,722,722,722,722,722,722,722,722,722,722,722,722,722,722,722,722,722,722,722,722,722,722,722,722,722,722,722,722,722,722,722,722,722,722,722,722,722,722,722,722,722,722,722,722,722,722,722,722,722,722,722,722,722,722,722,722,722,722,722,722,722,722,722,722,722,722,722,722,722,722,722,722,722,722,722,722,722,722,722,722,722,722,722,722,722,722,722,722,722,722,722,722,722,722,722,722,722,722,722,722,722,722,722,722,722,722,722,722,722,722,722,722,722,722,722,722,722,722,722,722,722,722,722,722,722,722,722,722,722,722,722,722,722,722,722,720,631,406,317,245,173,165,165,165,165,165,165,197,216,223,223,218,213,207,186,147,125,102,79,37,15,6,6,12,40,74,105,120,120,116,116,115,115,112,111,109,104,98,98,96,96,93,87],"timestamp_mouse":[15,41,55,75,95,115,136,155,176,195,215,236,257,276,296,315,336,356,375,396,415,437,455,475,495,515,535,555,575,595,615,635,655,675,696,715,735,755,775,796,815,835,857,875,895,915,935,955,975,995,1015,1037,1055,1076,1095,1115,1135,1156,1176,1195,1215,1236,1255,1277,1295,1316,1335,1357,1375,1396,1415,1435,1456,1475,1495,1516,1536,1556,1575,1595,1616,1636,1657,1675,1696,1716,1735,1757,1776,1795,1815,1836,1855,1875,1896,1915,1935,1957,1975,1995,2016,2037,2055,2077,2095,2115,2136,2155,2175,2197,2215,2236,2255,2275,2295,2315,2335,2357,2375,2395,2416,2435,2457,2476,2495,2516,2535,2555,2575,2595,2615,2635,2655,2675,2695,2715,2736,2757,2775,2796,2815,2836,2855,2875,2895,2917,2937,2956,2975,2996,3015,3035,3055,3076,3095,3116,3135,3156,3175,3195,3216,3235,3257,3276,3295,3316,3335,3356,3375,3396,3415,3435,3456,3476,3495,3515,3535,3556,3575,3595,3615,3636,3656,3676,3696,3715,3736,3755,3775,3796,3815,3836,3856,3875,3896,3915,3935,3956,3976,3995,4015,4036,4055,4075,4095,4115,4137,4156,4176,4195,4216,4235,4257,4276,4295,4316,4335,4357,4375,4396,4415,4436,4456,4476,4495,4515,4535,4555,4576,4595,4616,4636,4656,4677,4696,4716,4735,4755,4776,4795,4816,4835,4856,4875,4896,4915,4935,4956,4976,4995,5015,5036,5057,5076,5096,5115,5136,5155,5175,5196,5216,5236,5257,5276,5296,5317,5336,5355,5375,5396,5415,5435,5455,5477,5496,5515,5536,5555,5577,5596,5616,5636,5655,5676,5696,5716,5735,5755,5775,5797,5816,5835,5855,5875,5896,5915,5936,5955,5976,5995,6015,6036,6056,6076,6097,6116,6136,6157,6175,6196,6215,6235,6256,6275,6296,6315,6336,6355,6375,6395,6415,6437,6455,6476,6495,6515,6536,6556,6575,6596,6615,6636,6657,6676,6695,6715,6735,6756,6775,6796,6816,6835,6856,6875,6895,6916,6935,6955,6976,6997,7016,7035,7055,7075,7095,7116,7135,7155,7176,7196,7216,7237,7256,7276,7295,7315,7335,7357,7375,7395,7415,7436,7456,7475,7496,7516,7535,7555,7575,7596,7615,7635,7655,7676,7697,7715,7736,7756,7776,7795,7816,7836,7855,7875,7895,7916,7935,7956,7976,7995,8016,8035,8055,8076,8096,8117,8137,8155,8175,8196,8215,8235,8256,8275,8295,8316,8336,8357,8375,8395,8415,8435,8455,8476,8495,8515,8535,8556,8575,8596,8615,8635,8655,8676,8697,8715,8735,8755,8776,8796,8815,8835,8855,8876,8896,8915],"xSR":741.5,"ySR":469.95,"xT1":424.9,"yT1":0,"xT2":1058.1,"yT2":0,"toosoon":0,"cond_shown":"equaldotanddens","ratio_trial":900,"smaller_num":"9","larger_num":"10","correct_side":2,"subjID":"alanjaviercardenasriano37","gender":"0","age":"11","school":"6"},{"start_time":1551888135380,"click_time":1551888136509,"finger_time":1551888135810,"fix_duration":847.34605531239,"trial":19,"RT":430,"MT":699,"sideResp":2,"stimulus":"img/900/equaldotsize/R/9_Ratio_900_L_18_R_20.png","xmouse":[764,764,764,764,764,764,764,764,764,764,764,764,764,764,764,764,764,764,764,764,769,791,811,832,862,878,890,894,898,901,905,914,919,920,921,921,922,925,926,927,928,933,935,936,937,939,945,955,964,975,979,984,986,992,998,1028,1113],"ymouse":[520,520,520,520,520,520,520,520,520,520,520,520,520,520,520,520,520,520,520,520,505,466,427,374,285,233,178,166,156,143,129,97,85,79,78,78,77,77,77,77,77,78,78,79,79,79,79,76,71,65,63,63,63,64,65,68,73],"timestamp_mouse":[9,39,49,70,89,109,130,151,170,191,211,229,250,270,290,310,330,349,369,389,409,430,450,469,489,510,529,550,569,590,609,629,650,669,689,709,730,749,769,790,809,829,851,869,889,910,929,950,970,989,1010,1029,1050,1069,1090,1109,1129],"xSR":741.5,"ySR":469.95,"xT1":424.9,"yT1":0,"xT2":1058.1,"yT2":0,"toosoon":0,"cond_shown":"equaldotsize","ratio_trial":900,"smaller_num":"18","larger_num":"20","correct_side":2,"subjID":"alanjaviercardenasriano37","gender":"0","age":"11","school":"6"},{"start_time":1551888137661,"click_time":1551888138610,"finger_time":1551888138250,"fix_duration":250,"trial":20,"RT":589,"MT":360,"sideResp":2,"stimulus":"img/500/equaldotsize/R/9_Ratio_500_L_2_R_4.png","xmouse":[789,789,789,789,789,789,789,789,789,789,789,789,789,789,789,789,789,789,789,789,789,789,789,789,789,789,789,797,811,825,842,849,887,921,968,1014,1035,1049,1051,1053,1053,1054,1054,1054,1054,1054,1054,1061],"ymouse":[529,529,532,533,535,535,535,535,535,535,535,535,535,535,535,535,535,535,535,535,535,535,535,535,535,535,535,525,503,464,381,332,246,206,161,120,93,41,26,16,15,14,14,14,14,13,13,13],"timestamp_mouse":[9,28,48,68,88,108,129,148,170,189,208,228,248,269,288,309,330,349,369,389,409,428,448,468,488,508,528,549,568,589,608,629,648,669,688,709,728,749,768,789,808,829,848,869,888,909,929,949],"xSR":741.5,"ySR":469.95,"xT1":424.9,"yT1":0,"xT2":1058.1,"yT2":0,"toosoon":0,"cond_shown":"equaldotsize","ratio_trial":500,"smaller_num":"2","larger_num":"4","correct_side":2,"subjID":"alanjaviercardenasriano37","gender":"0","age":"11","school":"6"},{"start_time":1551888140121,"click_time":1551888140909,"finger_time":1551888140450,"fix_duration":250,"trial":21,"RT":329,"MT":459,"sideResp":2,"stimulus":"img/500/equaldotanddens/R/12_Ratio_500_L_1_R_2.png","xmouse":[812,812,812,812,812,812,812,812,812,812,812,812,812,812,812,817,832,849,873,905,927,949,980,1012,1054,1066,1069,1069,1069,1069,1070,1072,1074,1077,1081,1083,1084,1085,1086,1094],"ymouse":[482,482,482,482,482,482,482,482,482,482,482,482,482,482,482,476,461,445,426,401,384,365,333,293,229,213,207,206,206,205,201,193,185,173,152,141,139,130,122,96],"timestamp_mouse":[8,34,49,68,89,108,128,149,169,189,208,228,248,269,289,308,329,350,369,389,409,428,448,469,489,508,530,548,568,588,609,628,649,668,689,710,728,749,769,788],"xSR":741.5,"ySR":469.95,"xT1":424.9,"yT1":0,"xT2":1058.1,"yT2":0,"toosoon":0,"cond_shown":"equaldotanddens","ratio_trial":500,"smaller_num":"1","larger_num":"2","correct_side":2,"subjID":"alanjaviercardenasriano37","gender":"0","age":"11","school":"6"},{"start_time":1551888142925,"click_time":1551888143769,"finger_time":1551888143349,"fix_duration":1134.1717065915393,"trial":22,"RT":424,"MT":420,"sideResp":2,"stimulus":"img/900/equaldotanddens/L/1_Ratio_900_L_10_R_9.png","xmouse":[810,810,810,810,810,810,810,810,810,809,808,808,808,808,808,808,808,808,808,810,819,829,836,836,832,836,845,866,883,918,936,952,969,989,1032,1049,1063,1064,1066,1069,1072,1079,1088],"ymouse":[494,494,494,494,494,494,494,496,500,503,505,505,505,505,505,505,505,505,505,501,485,458,419,370,308,290,275,254,240,215,202,190,180,170,152,145,137,135,130,120,113,105,94],"timestamp_mouse":[8,30,44,64,84,104,124,146,164,184,205,226,245,264,284,305,324,345,366,385,405,424,444,465,484,505,526,544,564,585,605,624,645,664,684,705,724,745,764,785,804,825,844],"xSR":741.5,"ySR":469.95,"xT1":424.9,"yT1":0,"xT2":1058.1,"yT2":0,"toosoon":0,"cond_shown":"equaldotanddens","ratio_trial":900,"smaller_num":"9","larger_num":"10","correct_side":1,"subjID":"alanjaviercardenasriano37","gender":"0","age":"11","school":"6"},{"start_time":1551888145888,"click_time":1551888147110,"finger_time":1551888146209,"fix_duration":1278.6231782880911,"trial":23,"RT":321,"MT":901,"sideResp":2,"stimulus":"img/500/equaldotanddens/R/14_Ratio_500_L_5_R_10.png","xmouse":[802,802,802,802,802,802,802,802,802,802,802,802,802,802,803,810,887,935,951,950,947,947,960,981,1002,1018,1043,1049,1053,1053,1054,1065,1072,1076,1078,1079,1079,1079,1079,1079,1079,1079,1079,1077,1077,1077,1077,1077,1077,1077,1077,1077,1077,1077,1077,1076,1075,1075,1074,1074,1074,1074],"ymouse":[541,541,541,541,541,541,541,541,541,541,541,541,541,541,539,533,466,427,399,386,380,375,371,364,353,341,312,297,282,264,250,220,205,195,189,189,189,189,189,188,178,161,154,149,147,146,142,137,132,126,124,120,119,119,119,118,116,114,111,109,104,99],"timestamp_mouse":[10,34,42,61,81,101,121,141,161,181,201,222,241,261,281,301,321,342,361,382,402,422,441,461,482,501,521,541,561,581,602,621,641,662,681,703,722,742,761,782,801,821,842,861,882,901,921,942,962,981,1001,1021,1041,1061,1082,1102,1121,1141,1162,1181,1201,1222],"xSR":741.5,"ySR":469.95,"xT1":424.9,"yT1":0,"xT2":1058.1,"yT2":0,"toosoon":0,"cond_shown":"equaldotanddens","ratio_trial":500,"smaller_num":"5","larger_num":"10","correct_side":2,"subjID":"alanjaviercardenasriano37","gender":"0","age":"11","school":"6"},{"start_time":1551888150348,"click_time":1551888151369,"finger_time":1551888150809,"fix_duration":977.1968280233516,"trial":24,"RT":461,"MT":560,"sideResp":2,"stimulus":"img/250/equaldotanddens/R/11_Ratio_250_L_3_R_12.png","xmouse":[813,813,813,813,813,813,813,813,813,813,813,813,813,813,813,813,813,813,813,810,800,784,765,732,721,711,695,687,674,671,670,674,685,748,809,876,928,994,1019,1051,1059,1065,1068,1070,1071,1073,1076,1080,1088,1092,1096,1101],"ymouse":[530,530,530,530,530,530,530,530,530,530,530,530,530,530,530,530,530,530,530,527,523,517,511,491,484,470,447,436,417,407,396,386,375,334,301,262,225,180,162,144,139,138,138,137,136,134,130,124,113,108,101,93],"timestamp_mouse":[8,28,41,62,81,101,121,141,161,182,201,222,241,261,282,302,321,341,361,382,402,422,441,461,483,503,521,541,562,581,601,622,641,661,681,701,721,743,761,781,801,822,842,862,881,902,921,941,962,981,1002,1021],"xSR":741.5,"ySR":469.95,"xT1":424.9,"yT1":0,"xT2":1058.1,"yT2":0,"toosoon":0,"cond_shown":"equaldotanddens","ratio_trial":250,"smaller_num":"3","larger_num":"12","correct_side":2,"subjID":"alanjaviercardenasriano37","gender":"0","age":"11","school":"6"},{"start_time":1551888153684,"click_time":1551888154610,"finger_time":1551888153809,"fix_duration":513.9236393462442,"trial":25,"RT":125,"MT":801,"sideResp":2,"stimulus":"img/250/equaldotanddens/R/4_Ratio_250_L_3_R_12.png","xmouse":[779,779,779,778,778,778,783,785,787,790,799,810,816,819,819,819,819,824,826,828,836,843,845,850,856,867,950,1000,1032,1044,1053,1055,1052,1042,1024,1000,986,986,986,986,986,987,995,1007,1020,1035,1080],"ymouse":[552,534,512,495,483,475,464,461,459,456,439,398,379,366,359,354,348,338,332,322,308,297,292,283,272,260,201,162,133,113,92,87,86,90,94,99,101,101,101,101,101,101,101,101,101,101,97],"timestamp_mouse":[10,38,45,66,85,105,125,145,166,186,205,225,246,265,285,306,325,346,365,386,406,425,445,466,485,506,525,545,565,585,607,626,646,665,685,706,726,746,766,785,806,825,845,865,885,906,925],"xSR":741.5,"ySR":469.95,"xT1":424.9,"yT1":0,"xT2":1058.1,"yT2":0,"toosoon":0,"cond_shown":"equaldotanddens","ratio_trial":250,"smaller_num":"3","larger_num":"12","correct_side":2,"subjID":"alanjaviercardenasriano37","gender":"0","age":"11","school":"6"},{"start_time":1551888155960,"click_time":1551888156969,"finger_time":1551888156449,"fix_duration":250,"trial":26,"RT":489,"MT":520,"sideResp":2,"stimulus":"img/250/equaldotsize/R/10_Ratio_250_L_4_R_16.png","xmouse":[818,818,818,818,818,818,818,818,818,818,818,818,818,818,818,818,818,818,818,818,820,824,833,836,844,853,870,896,904,909,912,918,930,937,942,952,975,993,999,1001,1001,1001,1002,1004,1010,1027,1037,1044,1046,1051,1059],"ymouse":[534,534,534,534,534,534,534,534,534,534,534,534,534,534,534,534,534,534,534,534,534,532,523,518,506,493,461,373,324,288,264,243,220,212,208,196,174,151,143,139,138,138,134,131,126,114,107,102,101,99,95],"timestamp_mouse":[9,29,50,69,89,109,129,149,170,190,210,229,249,269,289,309,329,349,369,389,410,430,449,470,489,510,529,549,570,589,609,631,649,669,690,709,729,749,769,789,810,829,849,870,890,909,929,949,969,990,1009],"xSR":741.5,"ySR":469.95,"xT1":424.9,"yT1":0,"xT2":1058.1,"yT2":0,"toosoon":0,"cond_shown":"equaldotsize","ratio_trial":250,"smaller_num":"4","larger_num":"16","correct_side":2,"subjID":"alanjaviercardenasriano37","gender":"0","age":"11","school":"6"},{"start_time":1551888160740,"click_time":1551888168710,"finger_time":1551888168109,"fix_duration":250,"trial":27,"RT":7369,"MT":601,"sideResp":2,"stimulus":"img/500/randomdotsizeEA/R/14_Ratio_500_L_5_R_10.png","xmouse":[768,768,768,768,768,768,768,768,768,768,768,768,768,768,768,768,768,768,768,768,768,768,768,768,768,768,768,768,768,768,768,768,768,768,768,768,768,768,768,768,768,768,768,768,768,768,768,768,768,768,768,768,768,768,768,768,768,768,768,768,768,768,768,768,768,768,768,768,768,768,768,768,768,768,768,768,768,768,768,768,768,768,768,768,768,768,768,768,768,768,768,768,768,768,768,768,768,768,768,768,768,768,768,768,768,768,768,768,768,768,768,768,768,768,768,768,768,768,768,768,768,768,768,768,768,768,768,768,768,768,768,768,768,768,768,768,768,768,768,768,768,768,768,768,768,768,768,768,768,768,768,768,768,768,768,768,768,768,768,768,768,768,768,768,768,768,768,768,768,768,768,768,768,768,768,768,768,768,768,768,768,768,768,768,768,768,768,768,768,768,768,768,768,768,768,768,768,768,768,768,768,768,768,768,768,768,768,768,768,768,768,768,768,768,768,768,768,768,768,768,768,768,768,768,768,768,768,768,768,768,768,768,768,768,768,768,768,768,768,768,768,768,768,768,768,768,768,768,768,768,768,768,768,768,768,768,768,768,768,768,768,768,768,768,768,768,768,768,768,768,768,768,768,768,768,768,768,768,768,768,768,768,768,768,768,768,768,768,768,768,768,768,768,768,768,768,768,768,768,768,768,768,768,768,768,768,768,768,768,768,768,768,768,768,768,768,768,768,768,768,768,768,768,768,768,768,768,768,768,768,768,768,768,768,768,768,768,768,768,768,768,768,768,768,768,768,768,768,768,768,768,768,768,768,768,768,768,768,768,768,768,768,768,768,762,762,762,780,979,1044,1072,1082,1090,1090,1090,1090,1090,1087,1075,1067,1067,1068,1071,1026,981,951,949,949,949,949,949,952,960,977,979,983,1006,1029,1062],"ymouse":[516,516,516,516,516,516,516,516,516,516,516,516,516,516,516,516,516,516,516,516,516,516,516,516,516,516,516,516,516,516,516,516,516,516,516,516,516,516,516,516,516,516,516,516,516,516,516,516,516,516,516,516,516,516,516,516,516,516,516,516,516,516,516,516,516,516,516,516,516,516,516,516,516,516,516,516,516,516,516,516,516,516,516,516,516,516,516,516,516,516,516,516,516,516,516,516,516,516,516,516,516,516,516,516,516,516,516,516,516,516,516,516,516,516,516,516,516,516,516,516,516,516,516,516,516,516,516,516,516,516,516,516,516,516,516,516,516,516,516,516,516,516,516,516,516,516,516,516,516,516,516,516,516,516,516,516,516,516,516,516,516,516,516,516,516,516,516,516,516,516,516,516,516,516,516,516,516,516,516,516,516,516,516,516,516,516,516,516,516,516,516,516,516,516,516,516,516,516,516,516,516,516,516,516,516,516,516,516,516,516,516,516,516,516,516,516,516,516,516,516,516,516,516,516,516,516,516,516,516,516,516,516,516,516,516,516,516,516,516,516,516,516,516,516,516,516,516,516,516,516,516,516,516,516,516,516,516,516,516,516,516,516,516,516,516,516,516,516,516,516,516,516,516,516,516,516,516,516,516,516,516,516,516,516,516,516,516,516,516,516,516,516,516,516,516,516,516,516,516,516,516,516,516,516,516,516,516,516,516,516,516,516,516,516,516,516,516,516,516,516,516,516,516,516,516,516,516,516,516,516,516,516,516,516,516,516,516,516,516,516,516,516,516,516,516,516,516,516,516,516,516,516,516,516,516,516,516,516,516,516,516,516,516,512,508,508,508,513,592,613,620,620,580,535,535,535,535,526,462,400,348,311,250,63,36,31,31,31,31,31,31,31,30,21,21,21,22,21,10],"timestamp_mouse":[11,29,50,71,89,109,129,149,169,190,211,230,249,271,289,310,330,349,370,391,410,429,450,471,489,509,529,550,569,589,609,631,650,669,689,709,731,749,770,789,810,829,851,869,890,909,929,949,970,990,1009,1029,1050,1069,1090,1110,1129,1149,1170,1190,1209,1229,1249,1270,1289,1309,1330,1350,1370,1390,1411,1431,1450,1470,1489,1511,1530,1550,1569,1589,1609,1630,1651,1670,1689,1709,1730,1751,1769,1791,1810,1829,1849,1869,1889,1909,1930,1950,1969,1989,2010,2029,2049,2069,2089,2109,2130,2151,2169,2190,2209,2231,2249,2269,2289,2309,2329,2349,2369,2390,2409,2429,2451,2469,2490,2509,2529,2551,2570,2589,2610,2631,2650,2671,2689,2709,2730,2749,2769,2789,2809,2829,2850,2869,2889,2910,2929,2949,2969,2990,3010,3030,3051,3070,3091,3109,3129,3149,3169,3189,3210,3230,3250,3271,3289,3309,3329,3350,3369,3390,3410,3429,3450,3470,3490,3510,3529,3549,3569,3589,3610,3629,3649,3669,3689,3711,3730,3750,3769,3789,3810,3829,3850,3870,3890,3910,3930,3949,3969,3990,4010,4029,4050,4070,4089,4109,4129,4149,4170,4190,4210,4230,4250,4269,4289,4310,4329,4349,4369,4390,4409,4430,4449,4469,4489,4511,4530,4549,4569,4589,4609,4630,4650,4670,4691,4710,4730,4749,4770,4789,4811,4829,4849,4870,4889,4909,4930,4949,4969,4989,5010,5030,5050,5070,5091,5111,5130,5149,5170,5189,5209,5230,5251,5269,5290,5310,5330,5350,5369,5390,5410,5430,5449,5471,5490,5509,5529,5550,5571,5591,5609,5630,5649,5669,5690,5710,5729,5749,5770,5790,5810,5830,5850,5869,5890,5911,5930,5949,5970,5990,6009,6031,6051,6070,6089,6111,6129,6150,6170,6189,6211,6230,6250,6269,6290,6310,6330,6351,6370,6390,6411,6430,6449,6469,6491,6509,6531,6549,6570,6589,6611,6630,6650,6670,6689,6709,6729,6750,6771,6790,6810,6830,6850,6869,6890,6909,6929,6949,6970,6989,7010,7029,7050,7069,7090,7109,7129,7150,7170,7190,7209,7231,7249,7270,7290,7311,7329,7350,7369,7390,7409,7429,7449,7470,7490,7509,7529,7549,7570,7590,7609,7631,7651,7669,7689,7709,7729,7751,7770,7789,7809,7830,7850,7869,7890,7909,7931,7950,7970],"xSR":741.5,"ySR":469.95,"xT1":424.9,"yT1":0,"xT2":1058.1,"yT2":0,"toosoon":0,"cond_shown":"randomdotsizeEA","ratio_trial":500,"smaller_num":"5","larger_num":"10","correct_side":2,"subjID":"alanjaviercardenasriano37","gender":"0","age":"11","school":"6"},{"start_time":1551888190149,"click_time":1551888194649,"finger_time":1551888190949,"fix_duration":317.13609477499097,"trial":28,"RT":800,"MT":3700,"sideResp":2,"stimulus":"img/250/randomdotsizeEA/R/12_Ratio_250_L_5_R_20.png","xmouse":[784,784,784,784,784,784,784,784,784,784,784,784,784,784,784,784,784,784,784,784,784,784,784,784,784,784,784,784,784,784,784,784,784,784,784,784,783,781,767,760,765,806,865,964,980,983,987,994,995,995,995,995,995,995,995,995,995,995,995,994,994,993,993,993,993,993,993,993,993,993,993,993,994,994,994,994,994,994,994,994,993,993,993,991,990,989,987,986,982,980,980,980,980,975,956,929,894,890,890,890,890,890,889,883,875,862,838,822,776,751,734,722,710,697,696,696,696,696,696,696,696,696,696,696,696,696,696,696,696,696,696,696,696,696,696,696,696,696,696,695,695,695,695,695,695,695,695,695,695,695,695,695,695,695,695,695,695,695,695,695,695,695,695,695,695,695,695,695,695,695,695,695,695,695,695,695,695,697,737,769,795,806,808,808,807,803,799,798,798,798,798,798,798,800,802,805,812,824,838,840,844,846,850,873,887,904,927,967,1029,1062,1086,1104,1115,1117,1117,1117,1117,1117,1117,1116,1108,1096,1081,1069,1072,1087],"ymouse":[546,546,546,546,546,546,546,546,546,546,546,546,546,546,546,546,546,546,546,546,546,546,546,546,546,546,546,546,546,546,546,546,546,546,546,546,545,542,517,500,400,236,139,63,59,59,65,78,80,80,80,80,80,80,80,80,80,80,80,80,80,80,80,80,80,80,80,81,81,81,81,81,81,81,81,81,81,81,81,81,81,81,81,81,81,80,79,79,79,79,79,79,79,79,78,74,70,69,69,69,69,69,69,69,76,87,112,135,190,222,243,261,277,298,299,299,299,299,299,299,299,299,299,299,299,299,299,299,299,299,299,299,299,299,299,299,299,299,299,299,298,298,298,298,298,298,298,298,298,298,298,298,298,298,298,298,298,298,298,298,298,298,298,298,298,298,298,298,298,298,298,298,298,298,298,298,297,297,314,344,380,397,402,403,403,400,396,395,395,395,395,395,395,395,389,373,350,311,281,279,279,279,279,285,289,292,295,295,283,274,266,261,257,256,256,256,256,256,256,253,242,226,209,147,121,97],"timestamp_mouse":[8,21,42,60,80,100,121,140,161,182,200,222,241,261,281,300,321,340,360,381,400,421,440,461,481,501,521,542,560,580,600,621,641,661,682,700,722,740,761,780,800,821,842,861,880,901,921,941,961,981,1000,1020,1042,1061,1081,1100,1121,1141,1160,1180,1200,1222,1241,1261,1280,1300,1321,1340,1361,1380,1401,1420,1441,1462,1481,1500,1520,1542,1561,1580,1602,1622,1641,1661,1682,1702,1720,1741,1760,1782,1800,1820,1842,1861,1882,1902,1921,1942,1961,1981,2000,2021,2041,2060,2082,2101,2121,2141,2161,2182,2202,2221,2241,2260,2281,2301,2321,2342,2361,2380,2400,2422,2442,2460,2481,2501,2520,2540,2560,2580,2601,2620,2641,2661,2680,2700,2721,2740,2760,2781,2800,2821,2842,2861,2881,2901,2921,2941,2961,2982,3000,3020,3041,3061,3080,3100,3120,3141,3161,3181,3202,3221,3241,3261,3281,3300,3320,3342,3361,3381,3401,3422,3440,3460,3481,3500,3521,3540,3560,3581,3601,3621,3640,3661,3680,3700,3721,3742,3761,3781,3800,3821,3840,3860,3880,3901,3921,3940,3960,3981,4000,4020,4042,4060,4081,4100,4121,4141,4160,4180,4200,4220,4242,4260,4281,4300,4320,4340,4360,4381,4400,4420,4440,4461,4481,4500],"xSR":741.5,"ySR":469.95,"xT1":424.9,"yT1":0,"xT2":1058.1,"yT2":0,"toosoon":0,"cond_shown