[{"start_time":1551886983027,"click_time":1551886989224,"finger_time":1551886983050,"fix_duration":560.1427673757148,"trial":0,"RT":23,"MT":6174,"sideResp":1,"stimulus":[],"xmouse":[696,720,732,738,739,739,740,741,741,742,742,745,749,755,757,759,759,759,759,759,759,760,761,761,761,763,763,763,763,763,763,763,762,761,760,760,760,760,760,759,759,759,759,759,759,759,759,759,759,759,759,759,759,759,759,759,759,759,759,759,759,759,759,759,759,759,759,759,759,759,759,759,759,759,759,759,759,759,759,759,759,759,759,759,759,759,759,759,759,759,759,759,759,759,759,759,759,759,759,759,759,759,759,759,759,759,759,759,759,759,759,759,759,759,759,759,759,759,759,759,759,759,759,759,759,759,759,759,759,759,759,759,759,759,759,759,759,759,759,759,759,759,759,759,759,759,759,759,759,759,759,759,759,759,759,759,759,759,759,759,759,759,759,759,759,759,759,759,759,761,761,761,761,761,761,761,761,761,764,765,767,770,770,770,770,770,770,770,770,770,770,770,770,770,770,770,770,770,770,770,770,770,770,770,770,770,770,770,770,770,770,770,770,770,770,770,770,770,770,770,770,770,770,770,770,770,770,770,770,770,770,770,770,770,770,770,770,770,770,770,770,770,770,770,770,770,770,770,770,770,770,770,770,770,770,770,770,770,770,770,770,770,770,770,770,770,770,770,770,770,766,743,731,725,708,696,683,678,673,667,662,657,653,651,649,646,640,638,630,623,613,581,566,551,542,538,537,537,537,537,537,537,537,531,528,525,519,515,510,505],"ymouse":[387,415,433,450,455,459,461,462,462,463,463,466,469,473,475,475,475,475,475,475,475,474,473,471,470,466,466,466,466,466,466,466,465,463,461,460,460,460,460,460,460,460,460,460,460,460,460,460,460,460,460,460,460,460,460,460,460,460,460,460,460,460,460,460,460,460,460,460,460,460,460,460,460,460,460,460,460,460,460,460,460,460,460,460,460,460,460,460,460,460,460,460,460,460,460,460,460,460,460,460,460,460,460,460,460,460,460,460,460,460,460,460,460,460,460,460,460,460,460,460,460,460,460,460,460,460,460,460,460,460,460,460,460,460,460,460,460,460,460,460,460,460,531,531,531,531,531,531,532,533,533,533,533,533,533,533,533,533,533,533,533,533,533,533,533,533,533,533,533,533,533,533,533,533,533,533,533,533,533,532,532,530,530,530,530,530,530,530,530,530,530,530,530,530,530,530,530,530,530,530,530,530,530,530,530,530,530,530,530,530,530,530,530,530,530,530,530,530,530,530,530,530,530,530,530,530,530,530,530,530,530,530,530,530,530,530,530,530,530,530,530,530,530,530,530,530,530,530,530,530,530,530,530,530,530,530,530,530,530,530,530,530,530,530,530,530,530,530,530,529,519,468,439,427,386,360,321,304,289,278,269,260,255,252,250,247,240,236,228,217,204,170,156,142,136,132,131,131,131,131,131,131,131,124,120,117,111,106,100,93],"timestamp_mouse":[23,36,57,77,98,116,137,157,178,198,217,237,257,277,296,317,337,357,376,397,418,436,457,476,498,518,537,556,576,597,616,636,656,677,696,716,736,756,776,797,817,838,858,878,897,917,936,957,976,998,1018,1037,1057,1077,1096,1117,1136,1156,1177,1197,1217,1237,1258,1276,1297,1317,1337,1356,1377,1397,1417,1436,1457,1478,1497,1516,1537,1557,1576,1598,1617,1636,1656,1677,1696,1716,1738,1758,1777,1797,1816,1836,1856,1876,1896,1916,1937,1957,1978,1998,2018,2036,2056,2077,2097,2116,2137,2157,2178,2196,2216,2236,2256,2277,2297,2318,2336,2357,2377,2396,2416,2438,2458,2476,2496,2517,2536,2556,2577,2598,2618,2637,2656,2677,2698,2716,2738,2758,2777,2796,2817,2837,2859,2877,2897,2918,2937,2957,2978,2997,3017,3036,3056,3078,3096,3117,3137,3157,3176,3197,3218,3238,3256,3276,3298,3318,3336,3357,3376,3396,3417,3436,3458,3477,3496,3516,3537,3556,3577,3596,3617,3636,3657,3677,3696,3718,3737,3756,3778,3796,3816,3837,3858,3878,3896,3916,3938,3957,3977,3998,4016,4036,4058,4077,4097,4118,4136,4157,4177,4197,4216,4237,4257,4276,4298,4318,4336,4357,4378,4396,4417,4436,4458,4477,4496,4518,4536,4557,4577,4598,4617,4638,4658,4677,4697,4718,4736,4756,4777,4797,4817,4836,4856,4876,4897,4916,4938,4956,4977,4996,5016,5037,5057,5077,5098,5116,5137,5156,5176,5197,5217,5236,5258,5276,5297,5318,5337,5357,5376,5397,5416,5437,5457,5477,5496,5517,5536,5558,5577,5596,5616,5636,5656,5678,5697,5716,5736,5756,5776,5797,5816,5836,5856,5876,5896,5916,5936,5958,5977,5997,6018,6037,6057,6076,6098,6116,6137,6156,6176,6197],"xSR":741.5,"ySR":469.95,"xT1":424.9,"yT1":0,"xT2":1058.1,"yT2":0,"toosoon":0,"cond_shown":"Incongruent","ratio_trial":100,"L_num":11,"L_den":22,"R_num":9,"R_den":15,"correct_side":2,"subjID":"AlanJavierCardenasRiano37","gender":null,"age":"sexto","school":null,"test":{"fix_dur":[250,1500],"timestim":1000,"targets_dim":[100,100],"targets_relative_coord":[0.3,0.7],"size_stim":[880,420],"start_dim":[100,100],"size_start":[300,300],"size_fix":60,"samplingrate":20,"img_types":["Congruent","Incongruent"],"ratios":[100,200,300],"rep_conds":19,"nTrials":120,"trials_to_rest":500,"Trials_order":[1,113,68,109,64,6,19,20,10,81,36,114,7,23,59,0,107,47,4,66,27,58,116,49,39,12,42,61,51,28,67,2,43,3,105,102,117,46,82,57,77,35,70,22,92,69,101,106,31,85,71,97,21,8,91,29,38,93,25,13,73,33,15,115,108,87,48,111,94,41,79,50,90,53,52,37,14,65,56,16,98,76,34,75,95,118,112,72,44,55,78,60,18,45,32,5,84,103,89,86,62,26,80,100,11,40,99,30,119,24,96,17,74,110,54,88,9,83,104,63],"cond_shown":["Incongruent","Incongruent","Congruent","Incongruent","Congruent","Congruent","Incongruent","Congruent","Congruent","Incongruent","Congruent","Congruent","Incongruent","Incongruent","Incongruent","Congruent","Incongruent","Incongruent","Congruent","Congruent","Incongruent","Congruent","Congruent","Incongruent","Incongruent","Congruent","Congruent","Incongruent","Incongruent","Congruent","Incongruent","Congruent","Incongruent","Incongruent","Incongruent","Congruent","Incongruent","Congruent","Congruent","Incongruent","Incongruent","Incongruent","Congruent","Congruent","Congruent","Incongruent","Incongruent","Congruent","Incongruent","Incongruent","Incongruent","Incongruent","Incongruent","Congruent","Incongruent","Incongruent","Congruent","Incongruent","Incongruent","Incongruent","Incongruent","Incongruent","Incongruent","Incongruent","Congruent","Incongruent","Congruent","Incongruent","Congruent","Incongruent","Incongruent","Congruent","Congruent","Incongruent","Congruent","Incongruent","Congruent","Incongruent","Congruent","Congruent","Congruent","Congruent","Congruent","Incongruent","Incongruent","Congruent","Congruent","Congruent","Congruent","Incongruent","Congruent","Congruent","Congruent","Incongruent","Congruent","Incongruent","Congruent","Incongruent","Incongruent","Congruent","Congruent","Congruent","Congruent","Congruent","Incongruent","Congruent","Incongruent","Congruent","Incongruent","Congruent","Congruent","Incongruent","Congruent","Congruent","Congruent","Congruent","Incongruent","Incongruent","Congruent","Incongruent"],"ratio_trial":[100,300,200,100,300,100,100,200,300,200,100,100,100,300,300,100,300,300,300,100,200,300,200,100,200,100,100,100,200,300,100,200,100,200,200,100,200,300,300,200,300,300,300,300,200,200,300,300,100,100,300,100,200,200,100,300,200,200,100,100,100,200,200,100,100,200,100,200,300,300,100,200,100,300,300,100,200,300,200,300,200,300,300,200,300,300,300,100,200,100,100,100,100,200,200,300,100,100,300,200,200,200,200,300,300,300,200,100,300,100,100,300,200,200,100,300,200,300,200,200],"left_num":[11,4,3,13,4,11,3,12,11,4,2,8,10,4,13,4,8,1,4,11,4,4,3,13,4,6,9,17,7,8,6,7,8,4,7,4,14,11,1,7,13,4,20,2,5,6,13,3,1,2,1,6,7,5,9,4,3,7,9,3,3,3,9,4,11,4,9,11,9,7,9,12,12,8,11,3,7,3,13,2,15,1,20,3,8,1,2,3,16,17,1,4,1,7,1,1,11,9,2,13,20,5,1,20,4,18,4,11,4,6,3,1,6,16,11,1,4,8,20,14],"right_num":[9,6,14,12,13,6,11,6,4,14,6,2,8,8,12,6,14,3,2,6,14,13,9,6,1,5,8,10,4,1,13,2,6,6,12,15,12,1,6,4,12,6,14,10,14,3,12,2,8,6,2,3,14,14,13,2,14,12,6,4,7,11,8,8,6,1,8,3,3,8,20,6,13,9,1,4,18,4,14,12,4,19,8,1,9,7,12,2,9,10,18,6,18,4,21,3,6,20,6,14,9,14,21,14,2,9,6,6,2,5,4,3,3,9,4,8,6,14,9,6],"left_den":[22,5,10,26,20,22,5,15,22,6,5,16,25,5,26,8,10,2,5,22,6,20,12,26,30,20,15,30,15,16,10,21,16,5,10,10,30,22,5,15,26,5,25,20,10,20,26,6,2,4,2,12,10,10,15,20,6,10,18,6,9,4,15,8,22,30,15,20,10,10,10,15,30,10,22,6,15,6,26,10,25,3,25,10,10,20,10,6,30,30,2,8,2,15,2,2,22,10,4,26,25,10,2,25,20,20,5,22,20,20,20,2,15,30,22,30,5,10,25,30],"right_den":[15,12,28,20,26,15,22,10,20,30,12,5,16,16,15,10,28,15,4,15,30,26,20,10,3,25,16,15,6,5,26,15,10,10,24,30,18,5,12,6,15,12,28,25,20,6,15,10,20,15,10,5,28,20,26,4,20,24,10,10,30,20,10,20,15,3,16,4,5,20,25,10,26,18,5,10,27,20,20,24,10,30,16,2,18,20,24,5,27,15,30,10,30,6,30,15,15,25,30,20,15,20,30,28,4,15,10,15,4,25,16,15,15,27,10,24,10,28,15,9],"correct_side":[2,1,2,2,2,1,1,1,1,1,2,1,2,1,2,2,1,1,1,1,1,2,2,2,2,1,1,2,2,1,1,1,2,1,1,2,2,1,2,2,2,1,1,2,2,2,2,1,1,1,1,2,1,2,1,2,2,1,2,1,1,1,2,1,1,2,1,2,1,1,1,1,2,1,1,1,2,1,2,2,1,2,1,2,1,2,2,1,1,2,2,2,2,2,2,1,1,1,1,2,1,2,2,1,2,1,1,1,2,1,2,1,1,1,1,2,1,1,1,2],"img_shown":["img2/100/Incongruent/R/I_Dist_100_LN_11_LD_22_RN_9_RD_15_1.png","img2/300/Incongruent/L/I_Dist_300_LN_4_LD_5_RN_6_RD_12_0.png","img2/200/Congruent/R/C_Dist_200_LN_3_LD_10_RN_14_RD_28_1.png","img2/100/Incongruent/R/I_Dist_100_LN_13_LD_26_RN_12_RD_20_1.png","img2/300/Congruent/R/C_Dist_300_LN_4_LD_20_RN_13_RD_26_1.png","img2/100/Congruent/L/C_Dist_100_LN_11_LD_22_RN_6_RD_15_0.png","img2/100/Incongruent/L/I_Dist_100_LN_3_LD_5_RN_11_RD_22_0.png","img2/200/Congruent/L/C_Dist_200_LN_12_LD_15_RN_6_RD_10_0.png","img2/300/Congruent/L/C_Dist_300_LN_11_LD_22_RN_4_RD_20_0.png","img2/200/Incongruent/L/I_Dist_200_LN_4_LD_6_RN_14_RD_30_0.png","img2/100/Congruent/R/C_Dist_100_LN_2_LD_5_RN_6_RD_12_1.png","img2/100/Congruent/L/C_Dist_100_LN_8_LD_16_RN_2_RD_5_0.png","img2/100/Incongruent/R/I_Dist_100_LN_10_LD_25_RN_8_RD_16_1.png","img2/300/Incongruent/L/I_Dist_300_LN_4_LD_5_RN_8_RD_16_0.png","img2/300/Incongruent/R/I_Dist_300_LN_13_LD_26_RN_12_RD_15_1.png","img2/100/Congruent/R/C_Dist_100_LN_4_LD_8_RN_6_RD_10_1.png","img2/300/Incongruent/L/I_Dist_300_LN_8_LD_10_RN_14_RD_28_0.png","img2/300/Incongruent/L/I_Dist_300_LN_1_LD_2_RN_3_RD_15_0.png","img2/300/Congruent/L/C_Dist_300_LN_4_LD_5_RN_2_RD_4_0.png","img2/100/Congruent/L/C_Dist_100_LN_11_LD_22_RN_6_RD_15_0.png","img2/200/Incongruent/L/I_Dist_200_LN_4_LD_6_RN_14_RD_30_0.png","img2/300/Congruent/R/C_Dist_300_LN_4_LD_20_RN_13_RD_26_1.png","img2/200/Congruent/R/C_Dist_200_LN_3_LD_12_RN_9_RD_20_1.png","img2/100/Incongruent/R/I_Dist_100_LN_13_LD_26_RN_6_RD_10_1.png","img2/200/Incongruent/R/I_Dist_200_LN_4_LD_30_RN_1_RD_3_1.png","img2/100/Congruent/L/C_Dist_100_LN_6_LD_20_RN_5_RD_25_0.png","img2/100/Congruent/L/C_Dist_100_LN_9_LD_15_RN_8_RD_16_0.png","img2/100/Incongruent/R/I_Dist_100_LN_17_LD_30_RN_10_RD_15_1.png","img2/200/Incongruent/R/I_Dist_200_LN_7_LD_15_RN_4_RD_6_1.png","img2/300/Congruent/L/C_Dist_300_LN_8_LD_16_RN_1_RD_5_0.png","img2/100/Incongruent/L/I_Dist_100_LN_6_LD_10_RN_13_RD_26_0.png","img2/200/Congruent/L/C_Dist_200_LN_7_LD_21_RN_2_RD_15_0.png","img2/100/Incongruent/R/I_Dist_100_LN_8_LD_16_RN_6_RD_10_1.png","img2/200/Incongruent/L/I_Dist_200_LN_4_LD_5_RN_6_RD_10_0.png","img2/200/Incongruent/L/I_Dist_200_LN_7_LD_10_RN_12_RD_24_0.png","img2/100/Congruent/R/C_Dist_100_LN_4_LD_10_RN_15_RD_30_1.png","img2/200/Incongruent/R/I_Dist_200_LN_14_LD_30_RN_12_RD_18_1.png","img2/300/Congruent/L/C_Dist_300_LN_11_LD_22_RN_1_RD_5_0.png","img2/300/Congruent/R/C_Dist_300_LN_1_LD_5_RN_6_RD_12_1.png","img2/200/Incongruent/R/I_Dist_200_LN_7_LD_15_RN_4_RD_6_1.png","img2/300/Incongruent/R/I_Dist_300_LN_13_LD_26_RN_12_RD_15_1.png","img2/300/Incongruent/L/I_Dist_300_LN_4_LD_5_RN_6_RD_12_0.png","img2/300/Congruent/L/C_Dist_300_LN_20_LD_25_RN_14_RD_28_0.png","img2/300/Congruent/R/C_Dist_300_LN_2_LD_20_RN_10_RD_25_1.png","img2/200/Congruent/R/C_Dist_200_LN_5_LD_10_RN_14_RD_20_1.png","img2/200/Incongruent/R/I_Dist_200_LN_6_LD_20_RN_3_RD_6_1.png","img2/300/Incongruent/R/I_Dist_300_LN_13_LD_26_RN_12_RD_15_1.png","img2/300/Congruent/L/C_Dist_300_LN_3_LD_6_RN_2_RD_10_0.png","img2/100/Incongruent/L/I_Dist_100_LN_1_LD_2_RN_8_RD_20_0.png","img2/100/Incongruent/L/I_Dist_100_LN_2_LD_4_RN_6_RD_15_0.png","img2/300/Incongruent/L/I_Dist_300_LN_1_LD_2_RN_2_RD_10_0.png","img2/100/Incongruent/R/I_Dist_100_LN_6_LD_12_RN_3_RD_5_1.png","img2/200/Incongruent/L/I_Dist_200_LN_7_LD_10_RN_14_RD_28_0.png","img2/200/Congruent/R/C_Dist_200_LN_5_LD_10_RN_14_RD_20_1.png","img2/100/Incongruent/L/I_Dist_100_LN_9_LD_15_RN_13_RD_26_0.png","img2/300/Incongruent/R/I_Dist_300_LN_4_LD_20_RN_2_RD_4_1.png","img2/200/Congruent/R/C_Dist_200_LN_3_LD_6_RN_14_RD_20_1.png","img2/200/Incongruent/L/I_Dist_200_LN_7_LD_10_RN_12_RD_24_0.png","img2/100/Incongruent/R/I_Dist_100_LN_9_LD_18_RN_6_RD_10_1.png","img2/100/Incongruent/L/I_Dist_100_LN_3_LD_6_RN_4_RD_10_0.png","img2/100/Incongruent/L/I_Dist_100_LN_3_LD_9_RN_7_RD_30_0.png","img2/200/Incongruent/L/I_Dist_200_LN_3_LD_4_RN_11_RD_20_0.png","img2/200/Incongruent/R/I_Dist_200_LN_9_LD_15_RN_8_RD_10_1.png","img2/100/Incongruent/L/I_Dist_100_LN_4_LD_8_RN_8_RD_20_0.png","img2/100/Congruent/L/C_Dist_100_LN_11_LD_22_RN_6_RD_15_0.png","img2/200/Incongruent/R/I_Dist_200_LN_4_LD_30_RN_1_RD_3_1.png","img2/100/Congruent/L/C_Dist_100_LN_9_LD_15_RN_8_RD_16_0.png","img2/200/Incongruent/R/I_Dist_200_LN_11_LD_20_RN_3_RD_4_1.png","img2/300/Congruent/L/C_Dist_300_LN_9_LD_10_RN_3_RD_5_0.png","img2/300/Incongruent/L/I_Dist_300_LN_7_LD_10_RN_8_RD_20_0.png","img2/100/Incongruent/L/I_Dist_100_LN_9_LD_10_RN_20_RD_25_0.png","img2/200/Congruent/L/C_Dist_200_LN_12_LD_15_RN_6_RD_10_0.png","img2/100/Congruent/R/C_Dist_100_LN_12_LD_30_RN_13_RD_26_1.png","img2/300/Incongruent/L/I_Dist_300_LN_8_LD_10_RN_9_RD_18_0.png","img2/300/Congruent/L/C_Dist_300_LN_11_LD_22_RN_1_RD_5_0.png","img2/100/Incongruent/L/I_Dist_100_LN_3_LD_6_RN_4_RD_10_0.png","img2/200/Congruent/R/C_Dist_200_LN_7_LD_15_RN_18_RD_27_1.png","img2/300/Incongruent/L/I_Dist_300_LN_3_LD_6_RN_4_RD_20_0.png","img2/200/Congruent/R/C_Dist_200_LN_13_LD_26_RN_14_RD_20_1.png","img2/300/Congruent/R/C_Dist_300_LN_2_LD_10_RN_12_RD_24_1.png","img2/200/Congruent/L/C_Dist_200_LN_15_LD_25_RN_4_RD_10_0.png","img2/300/Congruent/R/C_Dist_300_LN_1_LD_3_RN_19_RD_30_1.png","img2/300/Congruent/L/C_Dist_300_LN_20_LD_25_RN_8_RD_16_0.png","img2/200/Incongruent/R/I_Dist_200_LN_3_LD_10_RN_1_RD_2_1.png","img2/300/Incongruent/L/I_Dist_300_LN_8_LD_10_RN_9_RD_18_0.png","img2/300/Congruent/R/C_Dist_300_LN_1_LD_20_RN_7_RD_20_1.png","img2/300/Congruent/R/C_Dist_300_LN_2_LD_10_RN_12_RD_24_1.png","img2/100/Congruent/L/C_Dist_100_LN_3_LD_6_RN_2_RD_5_0.png","img2/200/Congruent/L/C_Dist_200_LN_16_LD_30_RN_9_RD_27_0.png","img2/100/Incongruent/R/I_Dist_100_LN_17_LD_30_RN_10_RD_15_1.png","img2/100/Congruent/R/C_Dist_100_LN_1_LD_2_RN_18_RD_30_1.png","img2/100/Congruent/R/C_Dist_100_LN_4_LD_8_RN_6_RD_10_1.png","img2/100/Congruent/R/C_Dist_100_LN_1_LD_2_RN_18_RD_30_1.png","img2/200/Incongruent/R/I_Dist_200_LN_7_LD_15_RN_4_RD_6_1.png","img2/200/Congruent/R/C_Dist_200_LN_1_LD_2_RN_21_RD_30_1.png","img2/300/Incongruent/L/I_Dist_300_LN_1_LD_2_RN_3_RD_15_0.png","img2/100/Congruent/L/C_Dist_100_LN_11_LD_22_RN_6_RD_15_0.png","img2/100/Incongruent/L/I_Dist_100_LN_9_LD_10_RN_20_RD_25_0.png","img2/300/Incongruent/L/I_Dist_300_LN_2_LD_4_RN_6_RD_30_0.png","img2/200/Congruent/R/C_Dist_200_LN_13_LD_26_RN_14_RD_20_1.png","img2/200/Congruent/L/C_Dist_200_LN_20_LD_25_RN_9_RD_15_0.png","img2/200/Congruent/R/C_Dist_200_LN_5_LD_10_RN_14_RD_20_1.png","img2/200/Congruent/R/C_Dist_200_LN_1_LD_2_RN_21_RD_30_1.png","img2/300/Congruent/L/C_Dist_300_LN_20_LD_25_RN_14_RD_28_0.png","img2/300/Incongruent/R/I_Dist_300_LN_4_LD_20_RN_2_RD_4_1.png","img2/300/Congruent/L/C_Dist_300_LN_18_LD_20_RN_9_RD_15_0.png","img2/200/Incongruent/L/I_Dist_200_LN_4_LD_5_RN_6_RD_10_0.png","img2/100/Congruent/L/C_Dist_100_LN_11_LD_22_RN_6_RD_15_0.png","img2/300/Incongruent/R/I_Dist_300_LN_4_LD_20_RN_2_RD_4_1.png","img2/100/Congruent/L/C_Dist_100_LN_6_LD_20_RN_5_RD_25_0.png","img2/100/Congruent/R/C_Dist_100_LN_3_LD_20_RN_4_RD_16_1.png","img2/300/Incongruent/L/I_Dist_300_LN_1_LD_2_RN_3_RD_15_0.png","img2/200/Congruent/L/C_Dist_200_LN_6_LD_15_RN_3_RD_15_0.png","img2/200/Congruent/L/C_Dist_200_LN_16_LD_30_RN_9_RD_27_0.png","img2/100/Congruent/L/C_Dist_100_LN_11_LD_22_RN_4_RD_10_0.png","img2/300/Congruent/R/C_Dist_300_LN_1_LD_30_RN_8_RD_24_1.png","img2/200/Incongruent/L/I_Dist_200_LN_4_LD_5_RN_6_RD_10_0.png","img2/300/Incongruent/L/I_Dist_300_LN_8_LD_10_RN_14_RD_28_0.png","img2/200/Congruent/L/C_Dist_200_LN_20_LD_25_RN_9_RD_15_0.png","img2/200/Incongruent/R/I_Dist_200_LN_14_LD_30_RN_6_RD_9_1.png"],"dist100_C":[["C_Dist_100_LN_10_LD_25_RN_3_RD_10_0.png","C_Dist_100_LN_11_LD_22_RN_4_RD_10_0.png","C_Dist_100_LN_11_LD_22_RN_6_RD_15_0.png","C_Dist_100_LN_15_LD_25_RN_13_RD_26_0.png","C_Dist_100_LN_3_LD_6_RN_2_RD_5_0.png","C_Dist_100_LN_6_LD_20_RN_5_RD_25_0.png","C_Dist_100_LN_8_LD_16_RN_2_RD_5_0.png","C_Dist_100_LN_9_LD_15_RN_8_RD_16_0.png"],["C_Dist_100_LN_1_LD_2_RN_18_RD_30_1.png","C_Dist_100_LN_1_LD_2_RN_3_RD_5_1.png","C_Dist_100_LN_12_LD_30_RN_13_RD_26_1.png","C_Dist_100_LN_2_LD_5_RN_11_RD_22_1.png","C_Dist_100_LN_2_LD_5_RN_6_RD_12_1.png","C_Dist_100_LN_3_LD_20_RN_4_RD_16_1.png","C_Dist_100_LN_4_LD_10_RN_15_RD_30_1.png","C_Dist_100_LN_4_LD_8_RN_6_RD_10_1.png","C_Dist_100_LN_6_LD_12_RN_15_RD_25_1.png","C_Dist_100_LN_7_LD_14_RN_15_RD_25_1.png","C_Dist_100_LN_7_LD_14_RN_9_RD_15_1.png"]],"dist100_I":[["I_Dist_100_LN_1_LD_2_RN_8_RD_20_0.png","I_Dist_100_LN_2_LD_4_RN_6_RD_15_0.png","I_Dist_100_LN_2_LD_4_RN_8_RD_20_0.png","I_Dist_100_LN_3_LD_5_RN_11_RD_22_0.png","I_Dist_100_LN_3_LD_5_RN_8_RD_16_0.png","I_Dist_100_LN_3_LD_6_RN_4_RD_10_0.png","I_Dist_100_LN_3_LD_9_RN_7_RD_30_0.png","I_Dist_100_LN_4_LD_8_RN_8_RD_20_0.png","I_Dist_100_LN_6_LD_10_RN_11_RD_22_0.png","I_Dist_100_LN_6_LD_10_RN_13_RD_26_0.png","I_Dist_100_LN_6_LD_10_RN_7_RD_14_0.png","I_Dist_100_LN_9_LD_10_RN_20_RD_25_0.png","I_Dist_100_LN_9_LD_15_RN_13_RD_26_0.png","I_Dist_100_LN_9_LD_15_RN_14_RD_28_0.png"],["I_Dist_100_LN_10_LD_25_RN_8_RD_16_1.png","I_Dist_100_LN_10_LD_25_RN_9_RD_18_1.png","I_Dist_100_LN_11_LD_22_RN_9_RD_15_1.png","I_Dist_100_LN_12_LD_24_RN_9_RD_15_1.png","I_Dist_100_LN_12_LD_30_RN_2_RD_4_1.png","I_Dist_100_LN_13_LD_26_RN_12_RD_20_1.png","I_Dist_100_LN_13_LD_26_RN_6_RD_10_1.png","I_Dist_100_LN_17_LD_30_RN_10_RD_15_1.png","I_Dist_100_LN_6_LD_12_RN_3_RD_5_1.png","I_Dist_100_LN_8_LD_16_RN_6_RD_10_1.png","I_Dist_100_LN_8_LD_20_RN_1_RD_2_1.png","I_Dist_100_LN_9_LD_18_RN_6_RD_10_1.png"]],"dist100_S":[["E_Dist_100_LN_2_LD_12_RN_2_RD_30_0.png","E_Dist_100_LN_6_LD_10_RN_6_RD_12_0.png"],["E_Dist_100_LN_6_LD_12_RN_6_RD_10_1.png"]],"dist200_C":[["C_Dist_200_LN_11_LD_22_RN_3_RD_10_0.png","C_Dist_200_LN_12_LD_15_RN_6_RD_10_0.png","C_Dist_200_LN_12_LD_20_RN_6_RD_15_0.png","C_Dist_200_LN_14_LD_28_RN_6_RD_20_0.png","C_Dist_200_LN_15_LD_25_RN_4_RD_10_0.png","C_Dist_200_LN_16_LD_20_RN_12_RD_20_0.png","C_Dist_200_LN_16_LD_30_RN_9_RD_27_0.png","C_Dist_200_LN_20_LD_25_RN_9_RD_15_0.png","C_Dist_200_LN_21_LD_30_RN_2_RD_4_0.png","C_Dist_200_LN_4_LD_10_RN_3_RD_15_0.png","C_Dist_200_LN_4_LD_8_RN_3_RD_10_0.png","C_Dist_200_LN_6_LD_15_RN_3_RD_15_0.png","C_Dist_200_LN_7_LD_21_RN_2_RD_15_0.png","C_Dist_200_LN_8_LD_15_RN_2_RD_6_0.png","C_Dist_200_LN_8_LD_15_RN_3_RD_9_0.png","C_Dist_200_LN_8_LD_15_RN_7_RD_21_0.png","C_Dist_200_LN_9_LD_20_RN_4_RD_16_0.png"],["C_Dist_200_LN_1_LD_2_RN_21_RD_30_1.png","C_Dist_200_LN_13_LD_26_RN_14_RD_20_1.png","C_Dist_200_LN_3_LD_10_RN_11_RD_22_1.png","C_Dist_200_LN_3_LD_10_RN_14_RD_28_1.png","C_Dist_200_LN_3_LD_10_RN_7_RD_14_1.png","C_Dist_200_LN_3_LD_12_RN_9_RD_20_1.png","C_Dist_200_LN_3_LD_6_RN_14_RD_20_1.png","C_Dist_200_LN_5_LD_10_RN_14_RD_20_1.png","C_Dist_200_LN_6_LD_12_RN_7_RD_10_1.png","C_Dist_200_LN_6_LD_20_RN_11_RD_22_1.png","C_Dist_200_LN_7_LD_15_RN_18_RD_27_1.png","C_Dist_200_LN_9_LD_30_RN_13_RD_26_1.png"]],"dist200_I":[["I_Dist_200_LN_1_LD_2_RN_3_RD_10_0.png","I_Dist_200_LN_1_LD_3_RN_2_RD_15_0.png","I_Dist_200_LN_3_LD_4_RN_11_RD_20_0.png","I_Dist_200_LN_4_LD_5_RN_6_RD_10_0.png","I_Dist_200_LN_4_LD_6_RN_14_RD_30_0.png","I_Dist_200_LN_7_LD_10_RN_12_RD_24_0.png","I_Dist_200_LN_7_LD_10_RN_14_RD_28_0.png","I_Dist_200_LN_7_LD_10_RN_8_RD_16_0.png"],["I_Dist_200_LN_11_LD_20_RN_3_RD_4_1.png","I_Dist_200_LN_14_LD_30_RN_12_RD_18_1.png","I_Dist_200_LN_14_LD_30_RN_6_RD_9_1.png","I_Dist_200_LN_3_LD_10_RN_1_RD_2_1.png","I_Dist_200_LN_4_LD_30_RN_1_RD_3_1.png","I_Dist_200_LN_6_LD_20_RN_3_RD_6_1.png","I_Dist_200_LN_7_LD_15_RN_4_RD_6_1.png","I_Dist_200_LN_7_LD_15_RN_6_RD_9_1.png","I_Dist_200_LN_9_LD_15_RN_8_RD_10_1.png"]],"dist200_S":[["E_Dist_200_LN_3_LD_6_RN_3_RD_10_0.png"],["E_Dist_200_LN_3_LD_10_RN_3_RD_6_1.png"]],"dist300_C":[["C_Dist_300_LN_11_LD_22_RN_1_RD_5_0.png","C_Dist_300_LN_11_LD_22_RN_2_RD_10_0.png","C_Dist_300_LN_11_LD_22_RN_4_RD_20_0.png","C_Dist_300_LN_12_LD_24_RN_2_RD_10_0.png","C_Dist_300_LN_18_LD_20_RN_9_RD_15_0.png","C_Dist_300_LN_20_LD_25_RN_13_RD_26_0.png","C_Dist_300_LN_20_LD_25_RN_14_RD_28_0.png","C_Dist_300_LN_20_LD_25_RN_5_RD_10_0.png","C_Dist_300_LN_20_LD_25_RN_8_RD_16_0.png","C_Dist_300_LN_20_LD_25_RN_9_RD_18_0.png","C_Dist_300_LN_24_LD_30_RN_2_RD_4_0.png","C_Dist_300_LN_24_LD_30_RN_8_RD_16_0.png","C_Dist_300_LN_3_LD_6_RN_2_RD_10_0.png","C_Dist_300_LN_4_LD_10_RN_1_RD_10_0.png","C_Dist_300_LN_4_LD_5_RN_2_RD_4_0.png","C_Dist_300_LN_8_LD_16_RN_1_RD_5_0.png","C_Dist_300_LN_9_LD_10_RN_3_RD_5_0.png"],["C_Dist_300_LN_1_LD_20_RN_7_RD_20_1.png","C_Dist_300_LN_1_LD_3_RN_19_RD_30_1.png","C_Dist_300_LN_1_LD_30_RN_8_RD_24_1.png","C_Dist_300_LN_1_LD_5_RN_11_RD_22_1.png","C_Dist_300_LN_1_LD_5_RN_3_RD_6_1.png","C_Dist_300_LN_1_LD_5_RN_6_RD_12_1.png","C_Dist_300_LN_2_LD_10_RN_12_RD_24_1.png","C_Dist_300_LN_2_LD_20_RN_10_RD_25_1.png","C_Dist_300_LN_3_LD_12_RN_11_RD_20_1.png","C_Dist_300_LN_3_LD_6_RN_4_RD_5_1.png","C_Dist_300_LN_4_LD_20_RN_13_RD_26_1.png","C_Dist_300_LN_5_LD_25_RN_6_RD_12_1.png","C_Dist_300_LN_5_LD_25_RN_7_RD_14_1.png","C_Dist_300_LN_7_LD_14_RN_20_RD_25_1.png","C_Dist_300_LN_8_LD_15_RN_10_RD_12_1.png"]],"dist300_I":[["I_Dist_300_LN_1_LD_2_RN_2_RD_10_0.png","I_Dist_300_LN_1_LD_2_RN_3_RD_15_0.png","I_Dist_300_LN_2_LD_4_RN_6_RD_30_0.png","I_Dist_300_LN_3_LD_6_RN_4_RD_20_0.png","I_Dist_300_LN_4_LD_5_RN_6_RD_12_0.png","I_Dist_300_LN_4_LD_5_RN_8_RD_16_0.png","I_Dist_300_LN_7_LD_10_RN_8_RD_20_0.png","I_Dist_300_LN_8_LD_10_RN_14_RD_28_0.png","I_Dist_300_LN_8_LD_10_RN_9_RD_18_0.png"],["I_Dist_300_LN_13_LD_26_RN_12_RD_15_1.png","I_Dist_300_LN_4_LD_20_RN_2_RD_4_1.png"]],"dist300_S":[["E_Dist_300_LN_9_LD_12_RN_9_RD_20_0.png"],["E_Dist_300_LN_18_LD_30_RN_18_RD_20_1.png","E_Dist_300_LN_3_LD_10_RN_3_RD_5_1.png","E_Dist_300_LN_9_LD_20_RN_9_RD_12_1.png"]],"dist500_C":[["C_Dist_500_LN_10_LD_13_RN_7_RD_26_0.png","C_Dist_500_LN_10_LD_15_RN_4_RD_24_0.png","C_Dist_500_LN_12_LD_16_RN_3_RD_12_0.png","C_Dist_500_LN_12_LD_18_RN_4_RD_24_0.png","C_Dist_500_LN_15_LD_18_RN_5_RD_15_0.png","C_Dist_500_LN_15_LD_20_RN_1_RD_4_0.png","C_Dist_500_LN_18_LD_27_RN_1_RD_6_0.png","C_Dist_500_LN_20_LD_24_RN_1_RD_3_0.png","C_Dist_500_LN_20_LD_24_RN_3_RD_9_0.png","C_Dist_500_LN_20_LD_24_RN_7_RD_21_0.png","C_Dist_500_LN_20_LD_28_RN_3_RD_14_0.png","C_Dist_500_LN_21_LD_28_RN_6_RD_24_0.png","C_Dist_500_LN_22_LD_28_RN_2_RD_7_0.png","C_Dist_500_LN_25_LD_30_RN_9_RD_27_0.png","C_Dist_500_LN_4_LD_6_RN_1_RD_6_0.png","C_Dist_500_LN_5_LD_6_RN_2_RD_6_0.png","C_Dist_500_LN_6_LD_9_RN_1_RD_6_0.png","C_Dist_500_LN_7_LD_10_RN_1_RD_5_0.png","C_Dist_500_LN_8_LD_12_RN_1_RD_6_0.png","C_Dist_500_LN_8_LD_12_RN_4_RD_24_0.png"],["C_Dist_500_LN_1_LD_4_RN_12_RD_16_1.png","C_Dist_500_LN_1_LD_4_RN_9_RD_12_1.png","C_Dist_500_LN_1_LD_9_RN_11_RD_18_1.png","C_Dist_500_LN_10_LD_24_RN_22_RD_24_1.png","C_Dist_500_LN_2_LD_12_RN_10_RD_15_1.png","C_Dist_500_LN_2_LD_12_RN_12_RD_18_1.png","C_Dist_500_LN_2_LD_12_RN_4_RD_6_1.png","C_Dist_500_LN_2_LD_24_RN_7_RD_12_1.png","C_Dist_500_LN_2_LD_5_RN_18_RD_20_1.png","C_Dist_500_LN_2_LD_5_RN_9_RD_10_1.png","C_Dist_500_LN_2_LD_8_RN_12_RD_16_1.png","C_Dist_500_LN_2_LD_8_RN_21_RD_28_1.png","C_Dist_500_LN_3_LD_10_RN_4_RD_5_1.png","C_Dist_500_LN_3_LD_12_RN_15_RD_20_1.png","C_Dist_500_LN_3_LD_30_RN_6_RD_10_1.png","C_Dist_500_LN_3_LD_8_RN_14_RD_16_1.png","C_Dist_500_LN_4_LD_16_RN_15_RD_20_1.png","C_Dist_500_LN_4_LD_24_RN_12_RD_18_1.png","C_Dist_500_LN_5_LD_14_RN_6_RD_7_1.png","C_Dist_500_LN_7_LD_21_RN_20_RD_24_1.png","C_Dist_500_LN_7_LD_28_RN_12_RD_16_1.png","C_Dist_500_LN_7_LD_28_RN_9_RD_12_1.png","C_Dist_500_LN_9_LD_27_RN_20_RD_24_1.png"]],"dist500_I":[["I_Dist_500_LN_2_LD_3_RN_4_RD_24_0.png","I_Dist_500_LN_5_LD_6_RN_6_RD_18_0.png","I_Dist_500_LN_7_LD_8_RN_9_RD_24_0.png"],["I_Dist_500_LN_7_LD_21_RN_5_RD_6_1.png"]],"dist500_S":[["E_Dist_500_LN_6_LD_8_RN_6_RD_24_0.png"],["E_Dist_500_LN_2_LD_12_RN_2_RD_3_1.png","E_Dist_500_LN_6_LD_24_RN_6_RD_8_1.png"]]}},{"start_time":1551886992556,"click_time":1551886995304,"finger_time":1551886994505,"fix_duration":250,"trial":1,"RT":1949,"MT":799,"sideResp":1,"stimulus":[],"xmouse":[767,767,767,767,767,767,767,767,767,767,767,767,767,767,767,767,767,767,767,767,767,767,767,767,767,767,767,767,767,767,767,767,767,767,767,767,767,767,767,767,767,767,767,767,767,767,767,767,767,767,767,767,767,767,767,767,767,767,767,767,767,767,767,767,767,767,767,767,767,767,767,767,767,767,767,767,767,767,767,767,767,767,767,767,767,767,767,767,767,767,767,767,767,767,767,764,751,741,731,722,706,699,694,687,681,667,656,647,640,628,606,597,589,581,567,558,548,539,536,532,529,527,527,526,524,520,519,517,515,511,508,505,503,502,501,498,495,492],"ymouse":[637,637,637,637,637,637,637,637,637,637,637,637,637,637,637,637,637,637,637,637,637,637,637,637,637,637,637,637,637,637,637,637,637,637,637,637,637,637,637,637,637,637,637,637,637,637,637,637,637,637,637,637,637,637,637,637,637,637,637,637,637,637,637,637,637,637,637,637,637,637,637,637,637,637,637,637,637,637,637,637,637,637,637,637,637,637,637,637,637,637,637,637,637,637,635,624,594,572,550,528,489,474,461,446,432,398,373,355,338,318,279,264,250,236,214,200,188,172,164,154,150,148,147,146,144,139,137,135,131,126,122,119,117,115,113,108,102,94],"timestamp_mouse":[8,36,48,67,88,107,128,148,167,189,208,227,247,267,288,307,328,349,368,388,409,427,447,468,488,509,527,547,568,587,608,627,647,667,687,708,727,748,768,787,807,828,847,869,887,908,927,947,969,987,1008,1029,1047,1068,1089,1108,1129,1148,1167,1188,1208,1228,1248,1268,1288,1308,1329,1348,1367,1389,1408,1428,1448,1467,1489,1508,1527,1547,1567,1587,1609,1629,1649,1667,1689,1708,1728,1749,1768,1789,1807,1828,1849,1868,1888,1907,1929,1949,1969,1987,2008,2027,2049,2069,2088,2107,2127,2147,2168,2188,2207,2227,2248,2268,2289,2307,2327,2347,2368,2389,2407,2427,2448,2468,2488,2508,2527,2548,2568,2589,2608,2627,2649,2669,2688,2707,2728,2748],"xSR":741.5,"ySR":573.95,"xT1":424.9,"yT1":0,"xT2":1058.1,"yT2":0,"toosoon":0,"cond_shown":"Incongruent","ratio_trial":300,"L_num":4,"L_den":5,"R_num":6,"R_den":12,"correct_side":1,"subjID":"AlanJavierCardenasRiano37","gender":null,"school":null,"age":"sexto"},{"start_time":1551886997438,"click_time":1551886998523,"finger_time":1551886998283,"fix_duration":312.9142566849248,"trial":2,"RT":845,"MT":240,"sideResp":2,"stimulus":[],"xmouse":[813,813,813,813,813,813,813,813,813,813,813,813,813,813,813,813,813,813,813,813,813,813,813,813,813,813,813,813,813,813,813,813,813,813,813,813,813,813,813,813,812,815,824,829,833,837,850,862,878,895,916,940,963,1024,1082],"ymouse":[599,599,599,599,599,599,599,599,599,599,599,599,599,599,599,599,599,599,599,599,599,599,599,599,599,599,599,599,599,599,599,599,599,599,599,599,599,599,599,599,599,589,564,546,527,508,452,416,373,333,298,249,210,135,67],"timestamp_mouse":[5,36,45,65,86,105,125,145,167,185,207,226,245,267,286,307,325,346,366,387,405,425,445,466,486,506,526,546,566,587,607,625,645,666,685,705,725,747,765,785,806,825,845,867,887,906,925,946,965,985,1006,1027,1046,1066,1085],"xSR":741.5,"ySR":573.95,"xT1":424.9,"yT1":0,"xT2":1058.1,"yT2":0,"toosoon":0,"cond_shown":"Congruent","ratio_trial":200,"L_num":3,"L_den":10,"R_num":14,"R_den":28,"correct_side":2,"subjID":"AlanJavierCardenasRiano37","gender":null,"school":null,"age":"sexto"},{"start_time":1551887001994,"click_time":1551887003165,"finger_time":1551887002743,"fix_duration":1487.3596116684596,"trial":3,"RT":749,"MT":422,"sideResp":1,"stimulus":[],"xmouse":[794,794,794,794,794,794,794,794,794,794,794,794,794,794,794,794,794,794,794,794,794,794,794,794,794,794,794,794,794,794,794,794,794,794,794,787,770,740,675,660,656,655,652,645,638,633,624,606,565,542,525,514,506,496,491,487,484,478,470],"ymouse":[641,641,641,641,641,641,641,641,641,641,641,641,641,641,641,641,641,641,641,641,641,641,641,641,641,641,641,641,641,641,641,641,641,641,641,641,627,598,542,527,521,516,509,487,455,428,380,320,233,199,181,167,159,147,139,133,128,118,99],"timestamp_mouse":[9,40,50,70,90,111,129,149,171,190,209,229,250,270,289,310,331,349,369,391,410,430,449,470,490,509,531,549,569,589,611,631,649,669,690,709,729,749,770,790,810,831,849,869,889,909,929,950,969,990,1010,1031,1050,1069,1091,1111,1130,1149,1170],"xSR":741.5,"ySR":573.95,"xT1":424.9,"yT1":0,"xT2":1058.1,"yT2":0,"toosoon":0,"cond_shown":"Incongruent","ratio_trial":100,"L_num":13,"L_den":26,"R_num":12,"R_den":20,"correct_side":2,"subjID":"AlanJavierCardenasRiano37","gender":null,"school":null,"age":"sexto"},{"start_time":1551887005856,"click_time":1551887007804,"finger_time":1551887007664,"fix_duration":250,"trial":4,"RT":1808,"MT":140,"sideResp":2,"stimulus":[],"xmouse":[815,811,808,808,808,808,807,806,804,803,803,803,803,803,803,803,803,803,803,803,803,803,803,803,803,803,803,803,803,803,803,803,803,803,803,803,803,803,803,803,803,803,803,803,803,803,803,803,803,803,803,803,803,803,802,802,802,802,802,802,802,802,802,802,802,802,802,802,802,802,802,802,802,802,802,802,802,802,802,802,802,802,802,802,802,802,802,802,807,814,854,883,932,970,1008,1079,1107,1131],"ymouse":[636,633,632,632,632,632,632,632,632,632,632,632,632,632,632,632,632,632,632,632,632,632,632,632,632,632,632,632,632,632,632,632,632,632,632,632,632,632,632,632,632,632,632,632,632,632,632,632,632,632,632,632,632,632,632,632,632,632,632,632,632,632,632,632,632,632,632,632,632,632,632,632,632,632,632,632,632,632,632,632,632,632,632,632,632,632,632,632,628,622,594,561,485,419,350,213,148,87],"timestamp_mouse":[12,27,51,68,88,109,127,147,167,187,207,228,249,268,287,307,327,347,367,387,408,427,449,467,487,507,528,547,567,587,607,629,649,667,687,708,729,747,767,787,807,827,848,867,887,907,929,948,967,987,1008,1029,1047,1067,1088,1108,1127,1147,1168,1187,1207,1228,1248,1267,1289,1307,1328,1348,1368,1388,1408,1428,1448,1469,1487,1507,1527,1547,1569,1588,1609,1627,1647,1669,1687,1708,1728,1748,1769,1787,1808,1827,1848,1867,1888,1907,1927,1948],"xSR":741.5,"ySR":573.95,"xT1":424.9,"yT1":0,"xT2":1058.1,"yT2":0,"toosoon":0,"cond_shown":"Congruent","ratio_trial":300,"L_num":4,"L_den":20,"R_num":13,"R_den":26,"correct_side":2,"subjID":"AlanJavierCardenasRiano37","gender":null,"school":null,"age":"sexto"},{"start_time":1551887011787,"click_time":1551887014765,"finger_time":1551887013545,"fix_duration":702.5790508633775,"trial":5,"RT":1758,"MT":1220,"sideResp":2,"stimulus":[],"xmouse":[768,768,768,768,768,768,768,768,768,768,768,768,768,768,768,768,768,768,768,768,768,768,768,768,768,768,768,768,768,768,768,768,768,768,768,768,768,768,768,768,768,768,768,768,768,768,768,768,768,768,768,768,768,768,768,768,768,768,768,768,768,768,768,768,768,768,768,768,768,768,768,768,768,768,768,768,768,768,768,768,768,769,769,769,765,762,758,746,738,729,719,705,693,672,663,652,648,642,639,638,637,636,636,636,636,636,636,636,636,636,636,636,638,655,671,713,751,841,875,895,917,955,985,1019,1038,1057,1063,1063,1064,1063,1061,1060,1060,1060,1060,1060,1060,1058,1058,1057,1055,1055,1054,1053,1053,1053,1053,1055,1061],"ymouse":[618,618,618,618,618,618,618,618,618,618,618,618,618,618,618,618,618,618,618,618,618,618,618,618,618,618,618,618,618,618,618,618,618,618,618,618,618,618,618,618,618,618,618,618,618,618,618,618,618,618,618,618,618,618,618,618,618,618,618,618,618,618,618,618,618,618,618,618,618,618,618,618,618,618,618,618,618,618,618,618,618,619,619,616,611,601,582,538,513,487,461,430,403,360,346,332,327,318,314,311,309,308,307,307,307,307,307,307,307,307,307,307,310,319,323,325,325,320,309,294,263,201,136,34,0,0,0,0,0,0,0,0,0,0,0,0,0,0,1,2,6,9,15,21,22,23,24,25,28],"timestamp_mouse":[16,38,56,78,97,116,138,156,178,196,216,238,256,277,296,316,337,357,377,396,416,436,456,476,496,517,537,557,577,596,616,636,656,676,696,716,736,757,777,797,816,837,857,877,897,918,936,957,976,997,1017,1037,1057,1076,1096,1117,1137,1156,1177,1197,1218,1237,1256,1278,1298,1318,1337,1358,1377,1397,1416,1437,1456,1477,1497,1516,1537,1556,1576,1596,1616,1636,1657,1676,1696,1716,1736,1758,1777,1796,1816,1836,1856,1876,1898,1918,1936,1958,1976,1996,2016,2037,2058,2077,2098,2116,2137,2158,2176,2196,2217,2238,2257,2277,2296,2316,2336,2358,2376,2396,2416,2436,2457,2476,2497,2518,2537,2557,2576,2597,2617,2636,2656,2677,2697,2717,2737,2757,2777,2797,2817,2838,2857,2876,2897,2916,2937,2958,2978],"xSR":741.5,"ySR":573.95,"xT1":424.9,"yT1":0,"xT2":1058.1,"yT2":0,"toosoon":0,"cond_shown":"Congruent","ratio_trial":100,"L_num":11,"L_den":22,"R_num":6,"R_den":15,"correct_side":1,"subjID":"AlanJavierCardenasRiano37","gender":null,"school":null,"age":"sexto"},{"start_time":1551887018558,"click_time":1551887021224,"finger_time":1551887020243,"fix_duration":251.78086604874483,"trial":6,"RT":1685,"MT":981,"sideResp":1,"stimulus":[],"xmouse":[763,763,763,763,763,763,763,763,763,763,763,763,763,763,763,763,763,763,763,762,761,759,759,759,759,759,759,759,759,759,759,759,759,759,759,759,759,759,759,759,759,759,759,759,759,759,759,759,759,759,759,759,759,759,759,759,759,759,759,759,759,759,759,759,759,759,759,759,759,759,759,759,759,759,759,759,759,759,759,759,759,758,756,746,732,696,664,638,613,578,560,559,546,526,503,471,466,464,464,464,464,464,464,464,464,464,464,464,464,464,464,464,464,464,464,464,464,464,464,464,464,464,464,464,464,464,464,464,464,464,464,464,464,463],"ymouse":[651,651,651,651,651,651,651,651,651,651,651,651,651,651,651,651,651,651,651,650,650,651,652,653,653,653,653,653,653,653,653,653,653,653,653,653,653,653,653,653,653,653,653,653,653,653,653,653,653,653,653,653,653,653,653,653,653,653,653,653,653,653,653,653,653,653,653,653,653,653,653,653,653,653,653,653,653,653,653,653,653,650,645,626,608,557,499,454,409,304,198,116,29,0,0,0,0,0,0,0,0,0,0,0,0,0,0,0,0,0,0,0,0,0,0,0,0,0,0,0,0,0,0,0,0,0,0,0,0,0,0,0,0,2],"timestamp_mouse":[9,35,47,66,85,105,125,147,165,187,205,225,245,267,285,307,325,345,365,387,405,425,446,466,485,506,526,545,565,586,606,626,645,667,686,705,727,745,767,786,806,826,846,865,885,907,926,947,967,986,1007,1026,1045,1066,1086,1106,1127,1145,1166,1187,1206,1226,1245,1266,1285,1306,1326,1346,1367,1385,1407,1427,1446,1466,1486,1506,1526,1545,1567,1585,1606,1625,1645,1667,1685,1705,1725,1747,1766,1787,1806,1825,1845,1865,1885,1905,1925,1945,1966,1986,2007,2027,2045,2066,2086,2105,2126,2145,2165,2185,2206,2226,2246,2265,2286,2306,2326,2346,2367,2386,2407,2425,2445,2465,2487,2506,2526,2546,2565,2585,2606,2627,2646,2665],"xSR":741.5,"ySR":573.95,"xT1":424.9,"yT1":0,"xT2":1058.1,"yT2":0,"toosoon":0,"cond_shown":"Incongruent","ratio_trial":100,"L_num":3,"L_den":5,"R_num":11,"R_den":22,"correct_side":1,"subjID":"AlanJavierCardenasRiano37","gender":null,"school":null,"age":"sexto"},{"start_time":1551887022805,"click_time":1551887024004,"finger_time":1551887023525,"fix_duration":420.437084738984,"trial":7,"RT":720,"MT":479,"sideResp":1,"stimulus":[],"xmouse":[809,809,809,809,809,809,808,807,806,805,805,804,804,804,804,804,804,804,804,804,804,804,804,804,804,804,804,804,804,802,801,799,794,790,786,782,774,768,759,750,741,730,701,672,655,647,640,636,633,627,622,616,601,592,586,577,554,542,528,517],"ymouse":[594,594,594,594,594,594,594,596,598,598,599,599,599,599,599,599,599,599,599,599,599,599,599,599,599,599,599,599,600,600,600,600,598,588,577,564,543,529,513,499,483,466,420,365,336,314,297,273,262,245,228,208,173,153,141,129,103,90,79,72],"timestamp_mouse":[19,38,59,79,98,120,138,158,180,199,219,239,258,280,299,318,339,359,378,400,419,440,458,478,499,519,538,560,579,598,619,638,658,678,700,720,740,759,779,799,820,838,858,879,899,919,938,960,980,998,1020,1038,1058,1079,1098,1118,1140,1158,1178,1199],"xSR":741.5,"ySR":573.95,"xT1":424.9,"yT1":0,"xT2":1058.1,"yT2":0,"toosoon":0,"cond_shown":"Congruent","ratio_trial":200,"L_num":12,"L_den":15,"R_num":6,"R_den":10,"correct_side":1,"subjID":"AlanJavierCardenasRiano37","gender":null,"school":null,"age":"sexto"},{"start_time":1551887032297,"click_time":1551887034503,"finger_time":1551887034263,"fix_duration":250,"trial":8,"RT":1966,"MT":240,"sideResp":1,"stimulus":[],"xmouse":[799,799,799,799,799,799,799,799,799,799,799,799,799,799,799,799,799,799,799,799,799,799,799,799,799,799,799,799,799,799,799,799,799,799,799,799,799,799,799,799,799,799,799,799,799,799,799,799,799,799,799,799,799,799,799,799,799,799,799,799,799,799,799,799,799,799,799,799,799,799,799,799,799,799,799,799,799,799,799,799,799,799,799,799,799,799,799,799,799,799,799,799,799,799,799,799,798,795,754,714,660,643,632,627,620,605,590,576,540,533,516],"ymouse":[594,594,594,594,594,594,594,594,594,594,594,594,594,594,594,594,594,594,594,594,594,594,594,594,594,594,594,594,594,594,594,594,594,594,594,594,594,594,594,594,594,594,594,594,594,594,594,594,594,594,594,594,594,594,594,594,594,594,594,594,594,594,594,594,594,594,594,594,594,594,594,594,594,594,594,594,594,594,594,594,594,594,594,594,594,594,594,594,594,594,594,594,594,594,594,594,594,592,541,493,430,401,353,318,271,212,160,111,38,32,17],"timestamp_mouse":[7,26,46,66,87,107,127,146,168,188,207,227,247,266,287,307,326,347,367,386,406,426,446,466,487,508,527,547,568,588,607,626,647,667,686,708,726,746,768,787,807,826,847,868,887,907,926,948,967,988,1007,1026,1047,1067,1086,1107,1127,1146,1167,1186,1207,1226,1247,1266,1286,1307,1326,1348,1366,1386,1407,1427,1447,1466,1486,1508,1526,1546,1567,1587,1606,1627,1646,1667,1686,1706,1727,1748,1766,1786,1806,1827,1847,1867,1886,1907,1926,1947,1966,1986,2007,2027,2048,2067,2086,2107,2127,2146,2166,2187,2206],"xSR":741.5,"ySR":573.95,"xT1":424.9,"yT1":0,"xT2":1058.1,"yT2":0,"toosoon":0,"cond_shown":"Congruent","ratio_trial":300,"L_num":11,"L_den":22,"R_num":4,"R_den":20,"correct_side":1,"subjID":"AlanJavierCardenasRiano37","gender":null,"school":null,"age":"sexto"},{"start_time":1551887036723,"click_time":1551887038724,"finger_time":1551887037545,"fix_duration":1356.8950537002163,"trial":9,"RT":822,"MT":1179,"sideResp":2,"stimulus":[],"xmouse":[801,801,801,801,801,801,801,801,801,801,801,801,801,801,801,801,801,801,801,801,801,801,801,801,801,801,801,801,801,801,801,801,801,801,801,801,801,808,822,828,833,845,851,860,866,872,884,889,896,903,906,909,909,908,906,904,902,900,900,900,900,901,912,924,945,965,977,995,1002,1006,1009,1012,1015,1017,1018,1019,1022,1025,1028,1031,1033,1037,1042,1044,1045,1045,1046,1047,1049,1049,1049,1049,1049,1049,1050,1050,1053,1055,1056,1057,1059],"ymouse":[644,644,644,644,644,644,644,644,644,644,644,644,644,644,644,644,644,644,644,644,644,644,644,644,644,644,644,644,644,644,644,644,644,644,644,644,642,625,601,585,575,551,541,528,520,513,494,483,465,433,408,385,337,317,299,286,273,255,247,243,238,233,212,197,180,165,152,133,124,119,116,112,109,108,107,106,105,103,102,100,100,99,98,97,96,96,95,94,92,91,89,88,85,84,83,82,82,81,81,81,81],"timestamp_mouse":[7,22,41,62,81,100,122,141,162,181,200,222,242,261,282,301,322,341,361,382,401,422,441,462,482,502,522,542,561,580,602,622,642,660,681,702,721,741,762,782,801,822,840,862,880,901,922,940,962,981,1001,1022,1042,1062,1080,1102,1121,1141,1161,1181,1202,1221,1241,1262,1281,1300,1321,1341,1361,1381,1402,1420,1442,1460,1482,1501,1521,1541,1561,1580,1601,1620,1642,1661,1682,1702,1720,1741,1761,1781,1801,1820,1841,1860,1881,1901,1922,1941,1961,1981,2001],"xSR":741.5,"ySR":573.95,"xT1":424.9,"yT1":0,"xT2":1058.1,"yT2":0,"toosoon":0,"cond_shown":"Incongruent","ratio_trial":200,"L_num":4,"L_den":6,"R_num":14,"R_den":30,"correct_side":1,"subjID":"AlanJavierCardenasRiano37","gender":null,"school":null,"age":"sexto"},{"start_time":1551887042511,"click_time":1551887044625,"finger_time":1551887043104,"fix_duration":745.4721869869055,"trial":10,"RT":593,"MT":1521,"sideResp":2,"stimulus":[],"xmouse":[776,776,776,776,776,776,776,776,776,776,776,776,776,776,776,776,776,776,776,776,776,776,776,776,776,776,776,776,776,776,776,777,777,777,777,777,777,777,777,777,777,779,780,782,782,783,783,783,783,783,783,783,783,783,783,783,783,783,783,783,783,783,783,783,783,783,783,781,778,776,772,766,764,762,762,762,762,762,762,762,762,768,780,799,831,868,941,962,977,986,991,999,1003,1008,1013,1016,1019,1031,1039,1044,1048,1055,1061,1067,1072,1075],"ymouse":[584,584,584,584,584,584,584,584,584,584,584,584,584,584,584,584,584,584,584,584,584,584,584,584,584,584,584,581,574,569,564,562,561,561,561,561,561,561,561,563,565,570,581,586,590,595,597,600,601,602,602,603,604,604,604,604,604,604,604,604,604,604,604,604,604,604,604,604,603,601,596,587,585,582,582,582,582,582,582,581,579,563,547,522,482,439,353,329,310,300,291,280,275,271,265,260,254,229,208,192,176,145,129,114,104,97],"timestamp_mouse":[14,33,53,73,94,112,134,154,172,193,213,233,253,273,293,313,333,353,373,393,413,434,452,473,493,514,534,553,573,593,612,633,653,673,693,714,734,753,773,794,814,833,854,873,893,913,933,953,972,993,1012,1033,1052,1073,1093,1113,1133,1153,1173,1192,1212,1233,1253,1273,1294,1312,1333,1353,1372,1392,1414,1434,1453,1474,1492,1514,1533,1553,1572,1592,1614,1634,1653,1672,1693,1713,1734,1752,1772,1793,1813,1834,1853,1873,1894,1913,1933,1954,1974,1993,2013,2034,2053,2073,2093,2114],"xSR":741.5,"ySR":573.95,"xT1":424.9,"yT1":0,"xT2":1058.1,"yT2":0,"toosoon":0,"cond_shown":"Congruent","ratio_trial":100,"L_num":2,"L_den":5,"R_num":6,"R_den":12,"correct_side":2,"subjID":"AlanJavierCardenasRiano37","gender":null,"school":null,"age":"sexto"},{"start_time":1551887048053,"click_time":1551887051564,"finger_time":1551887050325,"fix_duration":728.9710576680595,"trial":11,"RT":2272,"MT":1239,"sideResp":1,"stimulus":[],"xmouse":[807,807,807,807,807,807,807,807,807,807,807,807,807,807,807,807,807,807,807,807,807,807,807,807,807,807,807,807,807,807,807,807,807,807,807,807,807,807,807,807,807,807,807,807,807,807,807,807,807,807,807,807,807,807,807,807,807,807,807,807,807,807,807,807,807,807,807,807,807,807,807,807,807,807,807,807,807,807,807,807,807,807,807,807,807,807,807,807,807,807,807,807,807,807,807,807,807,807,807,807,807,807,807,807,807,807,807,807,806,806,805,805,805,804,802,787,769,761,761,761,761,761,761,761,761,761,761,761,758,750,739,732,728,721,716,705,696,684,672,651,639,620,609,601,597,596,595,595,595,595,593,592,588,582,574,570,567,562,559,558,558,558,558,558,558,558,558,554,549,545,536,534,531,529,525,524],"ymouse":[642,642,642,642,642,642,642,642,642,642,642,642,642,642,642,642,642,642,642,642,642,642,642,642,642,642,642,642,642,642,642,642,642,642,642,642,642,642,642,642,642,642,642,642,642,642,642,642,642,642,642,642,642,642,642,642,642,642,642,642,642,642,642,642,642,642,642,642,642,642,642,642,642,642,642,642,642,642,642,642,642,642,642,642,642,642,642,642,642,642,642,642,642,642,642,642,642,642,642,642,642,642,642,642,642,642,642,642,641,638,611,604,591,558,459,400,359,345,343,343,343,343,343,343,343,343,343,343,340,331,323,315,312,306,303,296,290,282,274,260,252,234,223,214,208,206,206,206,205,201,176,159,132,110,83,70,60,53,48,47,47,47,47,47,47,47,46,46,47,47,50,51,52,52,52,52],"timestamp_mouse":[11,38,50,71,91,111,130,151,172,191,212,231,251,271,291,311,331,351,371,391,410,431,451,471,492,512,531,551,572,591,611,631,650,672,691,710,731,751,771,791,812,832,852,871,891,911,931,951,971,992,1011,1031,1051,1072,1091,1111,1131,1151,1171,1192,1211,1231,1251,1271,1290,1311,1331,1351,1371,1391,1411,1431,1451,1471,1491,1511,1532,1550,1571,1591,1612,1631,1651,1671,1691,1712,1730,1751,1772,1791,1811,1831,1851,1871,1890,1911,1932,1951,1971,1991,2011,2031,2051,2070,2092,2111,2132,2151,2172,2191,2211,2231,2252,2272,2292,2310,2331,2351,2370,2391,2411,2432,2451,2471,2491,2511,2531,2550,2570,2592,2610,2631,2652,2671,2691,2710,2731,2752,2772,2792,2811,2830,2851,2871,2890,2910,2932,2951,2971,2991,3011,3031,3052,3070,3092,3111,3131,3152,3171,3191,3211,3231,3251,3271,3291,3311,3331,3351,3372,3392,3411,3431,3451,3471,3492,3511],"xSR":741.5,"ySR":573.95,"xT1":424.9,"yT1":0,"xT2":1058.1,"yT2":0,"toosoon":0,"cond_shown":"Congruent","ratio_trial":100,"L_num":8,"L_den":16,"R_num":2,"R_den":5,"correct_side":1,"subjID":"AlanJavierCardenasRiano37","gender":null,"school":null,"age":"sexto"},{"start_time":1551887053596,"click_time":1551887056345,"finger_time":1551887055624,"fix_duration":250,"trial":12,"RT":2028,"MT":721,"sideResp":2,"stimulus":[],"xmouse":[798,798,798,798,798,798,798,798,798,798,798,798,798,798,798,795,794,792,787,786,784,784,784,784,784,784,784,784,784,784,784,784,784,784,784,784,784,784,784,784,784,784,784,784,784,784,784,784,784,784,784,784,784,784,784,784,784,784,784,784,784,784,784,784,784,784,784,784,784,784,784,784,785,785,785,785,785,785,785,785,785,785,785,785,785,785,785,785,785,784,784,784,784,784,781,776,772,764,761,755,747,735,721,694,687,684,683,688,698,699,699,703,720,833,916,928,929,932,934,939,943,946,954,975,1003,1042,1054,1058,1059,1059,1059,1059,1059,1059,1060,1060,1064,1104],"ymouse":[621,621,621,621,621,621,621,621,621,621,621,621,621,621,621,622,622,623,623,624,624,624,624,624,624,624,624,624,624,624,624,624,624,624,624,624,624,624,624,624,624,624,624,624,624,624,624,624,624,624,624,624,624,624,624,624,624,624,624,624,624,624,624,624,624,624,624,624,624,624,624,624,624,625,625,625,625,625,625,625,625,625,625,625,625,625,625,625,622,622,621,621,621,621,616,612,608,600,597,589,579,558,526,462,419,392,368,351,337,336,336,336,336,344,355,356,356,355,352,349,344,334,308,281,260,232,222,218,215,215,215,214,213,211,208,200,180,63],"timestamp_mouse":[7,35,49,69,89,109,129,149,168,188,207,229,249,268,288,308,329,347,369,388,408,428,448,468,487,509,527,562,567,587,609,628,648,667,688,709,727,748,768,788,807,829,848,869,887,908,929,948,968,989,1009,1029,1048,1069,1089,1108,1128,1148,1168,1188,1209,1229,1247,1269,1289,1308,1328,1349,1368,1389,1408,1428,1448,1468,1488,1507,1528,1548,1568,1589,1609,1629,1648,1669,1687,1708,1729,1748,1768,1788,1809,1829,1849,1868,1888,1908,1928,1950,1967,1989,2008,2028,2048,2069,2088,2108,2129,2148,2168,2188,2207,2228,2249,2269,2289,2308,2328,2349,2368,2389,2409,2428,2449,2468,2488,2507,2528,2548,2568,2588,2609,2628,2648,2667,2689,2707,2729,2749],"xSR":741.5,"ySR":573.95,"xT1":424.9,"yT1":0,"xT2":1058.1,"yT2":0,"toosoon":0,"cond_shown":"Incongruent","ratio_trial":100,"L_num":10,"L_den":25,"R_num":8,"R_den":16,"correct_side":2,"subjID":"AlanJavierCardenasRiano37","gender":null,"school":null,"age":"sexto"},{"start_time":1551887061294,"click_time":1551887062945,"finger_time":1551887062764,"fix_duration":1348.5002855356543,"trial":13,"RT":1470,"MT":181,"sideResp":1,"stimulus":[],"xmouse":[790,790,790,790,790,790,790,790,790,790,790,790,790,790,790,790,790,790,790,790,790,790,790,790,790,790,790,790,790,790,790,790,790,790,790,790,790,790,790,790,790,790,790,790,790,790,790,790,790,790,790,790,790,790,790,790,790,790,790,790,790,790,790,790,790,790,790,790,790,790,790,790,786,767,755,733,706,674,607,562,537,512,488],"ymouse":[603,603,603,603,603,603,603,603,603,603,603,603,603,603,603,603,603,603,603,603,603,603,603,603,603,603,603,603,603,603,603,603,603,603,603,603,603,603,603,603,603,603,603,603,603,603,603,603,603,603,603,603,603,603,603,603,603,603,603,603,603,603,603,603,603,603,603,603,603,603,603,601,590,546,515,478,439,393,298,204,150,105,54],"timestamp_mouse":[10,31,51,70,89,110,130,151,169,191,211,231,251,270,290,309,329,349,370,389,409,431,450,470,491,510,531,550,571,591,610,631,651,671,691,709,730,751,770,790,810,831,851,870,890,910,931,951,970,990,1011,1031,1051,1070,1090,1110,1130,1151,1170,1191,1210,1231,1249,1270,1290,1310,1331,1350,1370,1390,1410,1431,1450,1470,1490,1510,1531,1550,1570,1590,1611,1630,1651],"xSR":741.5,"ySR":573.95,"xT1":424.9,"yT1":0,"xT2":1058.1,"yT2":0,"toosoon":0,"cond_shown":"Incongruent","ratio_trial":300,"L_num":4,"L_den":5,"R_num":8,"R_den":16,"correct_side":1,"subjID":"AlanJavierCardenasRiano37","gender":null,"school":null,"age":"sexto"},{"start_time":1551887064736,"click_time":1551887066964,"finger_time":1551887066485,"fix_duration":250,"trial":14,"RT":1749,"MT":479,"sideResp":2,"stimulus":[],"xmouse":[782,782,782,782,782,782,782,782,782,782,782,782,782,782,782,782,782,782,782,782,782,782,782,782,782,782,782,782,782,782,782,782,782,782,782,782,782,782,782,782,782,782,782,782,782,782,782,782,782,782,782,782,782,782,782,782,782,782,782,782,782,782,782,782,782,782,782,782,782,782,782,782,782,782,782,782,782,782,782,782,782,782,782,782,782,789,797,811,819,829,841,860,871,877,883,895,901,909,918,927,937,975,999,1021,1044,1076,1081,1085,1092,1092,1087,1078],"ymouse":[592,594,595,596,597,598,598,598,598,598,598,598,598,598,598,598,598,598,598,598,598,598,598,598,598,598,598,598,598,598,598,598,598,598,598,598,598,598,598,598,598,598,598,598,598,598,598,598,598,598,598,598,598,598,598,598,598,598,598,598,598,598,598,598,598,598,598,598,598,598,598,598,598,598,598,598,598,598,598,598,598,598,598,598,597,588,580,565,556,541,524,483,457,434,411,379,368,356,341,333,323,298,287,279,270,258,249,225,178,149,107,92],"timestamp_mouse":[16,38,49,67,88,107,128,148,168,188,208,228,248,268,287,309,328,348,367,389,409,427,448,469,488,507,528,549,567,587,608,627,648,668,688,708,729,747,768,788,808,828,848,868,888,908,928,948,968,988,1008,1028,1048,1068,1088,1109,1128,1149,1167,1188,1208,1228,1248,1268,1288,1309,1328,1348,1368,1389,1408,1428,1447,1469,1489,1509,1528,1547,1568,1588,1608,1627,1648,1668,1688,1709,1728,1749,1768,1789,1808,1828,1848,1868,1889,1909,1928,1948,1969,1987,2008,2028,2049,2068,2088,2109,2127,2149,2169,2188,2209,2228],"xSR":741.5,"ySR":573.95,"xT1":424.9,"yT1":0,"xT2":1058.1,"yT2":0,"toosoon":0,"cond_shown":"Incongruent","ratio_trial":300,"L_num":13,"L_den":26,"R_num":12,"R_den":15,"correct_side":2,"subjID":"AlanJavierCardenasRiano37","gender":null,"school":null,"age":"sexto"},{"start_time":1551887072700,"click_time":1551887075025,"finger_time":1551887074405,"fix_duration":815.1859109010453,"trial":15,"RT":1705,"MT":620,"sideResp":1,"stimulus":[],"xmouse":[770,770,770,770,770,770,770,770,770,770,770,770,770,770,770,770,770,770,770,770,770,770,770,770,770,770,770,770,770,770,770,770,770,770,770,770,770,770,770,770,770,770,770,770,770,770,770,770,770,770,770,770,770,770,770,770,770,770,770,770,770,770,770,770,770,770,770,770,770,770,770,770,770,770,770,770,770,770,770,770,770,770,770,770,767,758,744,720,669,641,631,622,619,613,610,605,600,588,578,574,565,561,554,551,548,546,544,543,539,535,533,530,528,522,519,516,513],"ymouse":[596,596,596,596,596,596,596,596,596,596,596,596,596,596,596,596,596,596,596,596,596,596,596,596,596,596,596,596,596,596,596,596,596,596,596,596,596,596,596,596,596,596,596,596,596,596,596,596,596,596,596,596,596,596,596,596,596,596,596,596,596,596,596,596,596,596,596,596,596,596,596,596,596,596,596,596,596,596,596,596,596,596,596,596,592,571,545,505,435,399,383,370,362,344,333,317,301,265,240,231,210,197,180,173,166,162,157,153,147,140,136,131,127,117,111,102,93],"timestamp_mouse":[10,33,45,65,84,104,123,144,164,183,204,224,244,265,285,304,323,345,363,384,404,423,444,464,483,504,524,544,564,584,604,624,645,663,685,704,724,745,764,784,805,824,844,864,883,905,924,944,964,984,1003,1024,1045,1064,1084,1103,1124,1144,1164,1185,1205,1224,1245,1264,1284,1305,1325,1344,1364,1385,1404,1423,1444,1464,1484,1504,1524,1544,1564,1584,1604,1624,1644,1665,1684,1705,1724,1744,1765,1784,1804,1824,1845,1864,1885,1903,1924,1945,1964,1985,2005,2024,2044,2064,2085,2105,2125,2144,2164,2185,2203,2224,2244,2264,2283,2304,2325],"xSR":741.5,"ySR":573.95,"xT1":424.9,"yT1":0,"xT2":1058.1,"yT2":0,"toosoon":0,"cond_shown":"Congruent","ratio_trial":100,"L_num":4,"L_den":8,"R_num":6,"R_den":10,"correct_side":2,"subjID":"AlanJavierCardenasRiano37","gender":null,"school":null,"age":"sexto"},{"start_time":1551887077639,"click_time":1551887079164,"finger_time":1551887078484,"fix_duration":833.3879303542719,"trial":16,"RT":845,"MT":680,"sideResp":2,"stimulus":[],"xmouse":[820,820,820,820,820,820,820,820,820,820,820,820,820,820,820,820,820,820,820,820,820,820,820,820,820,820,820,820,820,820,820,820,820,819,818,818,817,817,817,817,818,822,834,846,859,872,894,900,902,904,905,904,904,911,917,925,936,938,942,949,958,976,987,999,1003,1005,1006,1009,1014,1019,1023,1027,1032,1036,1042,1051,1059],"ymouse":[640,640,640,639,639,638,638,638,637,636,636,636,635,634,634,634,634,634,634,634,634,634,634,634,634,634,634,634,634,634,634,634,634,632,627,624,617,614,612,608,593,579,554,535,516,497,470,462,460,457,450,418,397,365,349,325,282,262,244,224,206,176,162,148,143,140,139,139,138,137,136,133,127,124,118,108,97],"timestamp_mouse":[7,25,45,65,85,106,125,145,165,186,205,225,245,264,286,306,326,345,365,386,405,425,445,465,485,506,526,545,565,585,606,625,646,665,685,706,726,745,766,786,806,825,845,865,885,905,926,946,965,984,1005,1026,1045,1064,1085,1105,1126,1145,1165,1185,1206,1225,1246,1265,1285,1304,1326,1345,1366,1385,1405,1425,1444,1465,1485,1506,1525],"xSR":741.5,"ySR":573.95,"xT1":424.9,"yT1":0,"xT2":1058.1,"yT2":0,"toosoon":0,"cond_shown":"Incongruent","ratio_trial":300,"L_num":8,"L_den":10,"R_num":14,"R_den":28,"correct_side":1,"subjID":"AlanJavierCardenasRiano37","gender":null,"school":null,"age":"sexto"},{"start_time":1551887092251,"click_time":1551887097204,"finger_time":1551887096923,"fix_duration":885.5238657011367,"trial":17,"RT":4672,"MT":281,"sideResp":1,"stimulus":[],"xmouse":[759,759,759,759,759,759,759,759,759,759,759,759,759,759,759,759,759,759,759,759,759,759,759,759,759,759,759,759,759,759,759,759,759,759,759,759,759,759,759,759,759,759,759,759,759,759,759,759,759,759,759,759,759,759,759,759,759,759,759,759,759,759,759,759,759,759,759,759,759,759,759,759,759,759,759,759,759,759,759,759,759,759,759,759,759,759,759,759,759,759,759,759,759,759,759,759,759,759,759,759,759,759,759,759,759,759,759,759,759,759,759,759,759,759,759,759,759,759,759,759,759,759,759,759,759,759,759,759,759,759,759,759,759,759,759,759,759,759,759,759,759,759,759,759,759,759,759,759,759,759,759,759,759,759,759,759,759,759,759,759,759,759,759,759,759,759,759,759,759,759,759,759,759,759,759,759,759,759,759,759,759,759,759,759,759,759,759,759,759,759,759,759,759,759,759,759,759,759,759,759,759,759,759,759,759,759,759,759,759,759,759,759,759,759,759,759,759,759,759,759,759,759,759,759,759,759,759,759,759,759,755,751,747,737,713,694,672,650,630,591,571,551,521,504,478,477,477,477],"ymouse":[617,617,617,617,617,617,617,617,617,617,617,617,617,617,617,617,617,617,617,617,617,617,617,617,617,617,617,617,617,617,617,617,617,617,617,617,617,617,617,617,617,617,617,617,617,617,617,617,617,617,617,617,617,617,617,617,617,617,617,617,617,617,617,617,617,617,617,617,617,617,617,617,617,617,617,617,617,617,617,617,617,617,617,617,617,617,617,617,617,617,617,617,617,617,617,617,617,617,617,617,617,617,617,617,617,617,617,617,617,617,617,617,617,617,617,617,617,617,617,617,617,617,617,617,617,617,617,617,617,617,617,617,617,617,617,617,617,617,617,617,617,617,617,617,617,617,617,617,617,617,617,617,617,617,617,617,617,617,617,617,617,617,617,617,617,617,617,617,617,617,617,617,617,617,617,617,617,617,617,617,617,617,617,617,617,617,617,617,617,617,617,617,617,617,617,617,617,617,617,617,617,617,617,617,617,617,617,617,617,617,617,617,617,617,617,617,617,617,617,617,617,617,617,617,617,617,617,617,617,608,599,587,574,549,477,439,397,364,336,298,284,272,253,240,190,161,124,93],"timestamp_mouse":[14,34,56,73,93,113,133,153,173,193,214,232,253,274,293,312,333,353,373,394,413,433,453,472,494,513,533,553,573,594,613,633,654,672,693,713,732,753,774,793,813,833,853,873,893,913,933,953,972,994,1014,1033,1053,1074,1094,1113,1133,1153,1172,1193,1213,1233,1254,1274,1293,1313,1333,1352,1373,1392,1414,1433,1453,1473,1494,1514,1533,1552,1574,1593,1613,1634,1654,1674,1692,1713,1733,1752,1774,1793,1813,1833,1854,1874,1894,1913,1932,1954,1973,1993,2013,2034,2054,2074,2093,2113,2134,2153,2174,2194,2212,2233,2254,2273,2294,2313,2332,2354,2373,2394,2413,2434,2454,2473,2494,2513,2534,2554,2573,2594,2613,2633,2653,2673,2694,2713,2734,2752,2772,2794,2813,2834,2854,2874,2894,2913,2932,2954,2974,2994,3013,3033,3054,3074,3094,3114,3134,3153,3173,3194,3213,3233,3253,3273,3294,3313,3333,3354,3373,3394,3414,3433,3454,3472,3493,3514,3533,3554,3574,3594,3614,3634,3653,3674,3694,3713,3734,3754,3774,3794,3814,3833,3853,3874,3892,3913,3933,3954,3974,3994,4012,4032,4054,4073,4094,4113,4132,4154,4174,4194,4212,4234,4254,4274,4293,4313,4334,4353,4374,4394,4413,4433,4454,4474,4494,4513,4533,4553,4573,4593,4614,4634,4653,4672,4694,4713,4734,4754,4773,4793,4813,4833,4854,4874,4893,4913,4933,4953],"xSR":741.5,"ySR":573.95,"xT1":424.9,"yT1":0,"xT2":1058.1,"yT2":0,"toosoon":0,"cond_shown":"Incongruent","ratio_trial":300,"L_num":1,"L_den":2,"R_num":3,"R_den":15,"correct_side":1,"subjID":"AlanJavierCardenasRiano37","gender":null,"school":null,"age":"sexto"},{"start_time":1551887099701,"click_time":1551887102464,"finger_time":1551887101964,"fix_duration":1434.6852205780513,"trial":18,"RT":2263,"MT":500,"sideResp":1,"stimulus":[],"xmouse":[820,820,820,820,820,820,820,820,820,820,820,820,820,820,820,820,820,820,820,820,820,820,820,820,820,820,820,820,820,820,820,820,820,820,820,820,820,820,820,820,820,820,820,820,820,820,820,820,820,820,820,820,820,820,820,820,820,820,820,820,820,820,820,820,820,820,820,820,820,820,820,820,820,820,820,820,820,820,820,820,820,820,820,820,820,820,820,820,820,820,820,820,820,820,820,820,820,820,820,820,820,820,820,820,820,820,820,820,820,820,820,820,816,809,797,779,758,736,690,674,653,640,629,609,600,592,584,578,569,565,562,559,556,551,547,541,534,529,518],"ymouse":[624,624,624,624,624,624,624,624,624,624,624,624,624,624,624,624,624,624,624,624,624,624,624,624,624,624,624,624,624,624,624,624,624,624,624,624,624,624,624,624,624,624,624,624,624,624,624,624,624,624,624,624,624,624,624,624,624,624,624,624,624,624,624,624,624,624,624,624,624,624,624,624,624,624,624,624,624,624,624,624,624,624,624,624,624,624,624,624,624,624,624,624,624,624,624,624,624,624,624,624,624,624,624,624,624,624,624,624,624,624,623,619,593,570,532,489,438,389,307,282,256,243,229,202,191,182,172,164,151,145,141,138,134,128,123,116,107,82,45],"timestamp_mouse":[7,30,43,63,83,104,122,142,164,182,204,224,243,263,283,303,324,344,362,384,403,423,443,462,484,503,524,544,563,584,603,622,644,663,684,702,724,743,764,784,804,824,844,863,882,903,923,944,963,984,1004,1023,1043,1063,1084,1103,1123,1144,1163,1184,1202,1224,1244,1263,1282,1303,1324,1343,1362,1384,1403,1424,1444,1462,1483,1502,1524,1543,1564,1583,1604,1623,1643,1663,1684,1703,1724,1744,1763,1784,1803,1824,1843,1863,1883,1904,1924,1944,1964,1983,2002,2024,2044,2063,2083,2103,2124,2144,2163,2184,2202,2224,2243,2263,2283,2304,2324,2342,2362,2383,2402,2423,2443,2464,2484,2503,2523,2543,2562,2584,2604,2623,2643,2663,2682,2704,2724,2743,2762],"xSR":741.5,"ySR":573.95,"xT1":424.9,"yT1":0,"xT2":1058.1,"yT2":0,"toosoon":0,"cond_shown":"Congruent","ratio_trial":300,"L_num":4,"L_den":5,"R_num":2,"R_den":4,"correct_side":1,"subjID":"AlanJavierCardenasRiano37","gender":null,"school":null,"age":"sexto"},{"start_time":1551887104435,"click_time":1551887106844,"finger_time":1551887106344,"fix_duration":250,"trial":19,"RT":1909,"MT":500,"sideResp":2,"stimulus":[],"xmouse":[783,783,783,783,783,783,783,783,783,783,783,783,783,783,783,783,783,783,783,783,783,783,783,783,783,783,783,783,783,783,783,783,783,783,783,783,783,783,783,783,783,783,783,783,783,783,783,783,783,783,783,783,783,783,783,783,783,783,783,783,783,783,783,783,783,783,783,783,783,783,783,783,783,783,783,783,783,783,783,783,783,783,783,783,783,783,783,783,783,783,783,783,783,783,782,789,803,815,821,830,861,911,967,991,999,1001,1004,1004,1004,1004,1004,1004,1004,1005,1008,1010,1022,1031,1042,1051,1061],"ymouse":[641,641,641,641,641,641,641,641,641,641,641,641,641,641,641,641,641,641,641,641,641,641,641,641,641,641,641,641,641,641,641,641,641,641,641,641,641,641,641,641,641,641,641,641,641,641,641,641,641,641,641,641,641,641,641,641,641,641,641,641,641,641,641,641,641,641,641,641,641,641,641,641,641,641,641,641,641,641,641,641,641,641,641,641,641,641,641,641,641,641,641,641,641,641,639,565,493,427,376,341,295,239,189,160,137,130,120,119,119,119,119,117,113,106,102,99,91,86,78,71,61],"timestamp_mouse":[10,41,50,69,88,110,129,149,168,190,209,229,249,269,289,310,330,349,369,389,410,429,448,469,489,510,528,549,569,589,610,629,649,669,689,710,729,749,769,788,808,829,849,869,890,909,929,949,969,989,1010,1030,1050,1069,1089,1110,1129,1149,1168,1190,1209,1229,1249,1269,1290,1310,1329,1350,1369,1389,1408,1429,1449,1468,1493,1509,1529,1549,1569,1589,1610,1629,1649,1669,1690,1710,1730,1749,1769,1789,1809,1830,1849,1870,1889,1909,1929,1948,1969,1990,2009,2029,2049,2068,2089,2109,2129,2150,2170,2190,2209,2229,2250,2270,2288,2310,2330,2350,2370,2390,2408],"xSR":741.5,"ySR":573.95,"xT1":424.9,"yT1":0,"xT2":1058.1,"yT2":0,"toosoon":0,"cond_shown":"Congruent","ratio_trial":100,"L_num":11,"L_den":22,"R_num":6,"R_den":15,"correct_side":1,"subjID":"AlanJavierCardenasRiano37","gender":null,"school":null,"age":"sexto"},{"start_time":1551887110997,"click_time":1551887112784,"finger_time":1551887112664,"fix_duration":250,"trial":20,"RT":1667,"MT":120,"sideResp":1,"stimulus":[],"xmouse":[773,773,773,773,773,773,773,773,773,773,773,773,773,773,773,773,773,773,773,773,773,773,773,773,773,773,773,773,773,773,773,773,773,773,773,773,773,773,773,773,773,773,773,773,773,773,773,773,773,773,773,773,773,773,773,773,773,773,773,773,773,773,773,773,773,773,773,773,773,773,773,773,773,773,773,773,773,773,773,773,773,772,750,728,695,653,590,536,527,523],"ymouse":[661,661,661,661,661,661,661,661,661,661,661,661,661,661,661,661,661,661,661,661,661,661,661,661,661,661,661,661,661,661,661,661,661,661,661,661,661,661,661,661,661,661,661,661,661,661,661,661,661,661,661,661,661,661,661,661,661,661,661,661,661,661,661,661,661,661,661,661,661,661,660,659,657,655,655,655,655,655,655,654,652,641,599,562,501,429,310,169,119,79],"timestamp_mouse":[9,27,47,67,88,106,127,147,167,187,207,227,247,267,287,307,327,347,367,387,408,427,447,467,487,508,527,547,567,587,606,627,648,666,688,707,728,748,767,788,808,827,848,867,887,908,928,948,968,988,1007,1027,1047,1068,1087,1108,1127,1148,1168,1186,1206,1227,1246,1268,1287,1306,1327,1348,1367,1387,1407,1427,1447,1467,1486,1507,1527,1547,1567,1587,1607,1627,1648,1667,1688,1707,1727,1747,1767,1787],"xSR":741.5,"ySR":573.95,"xT1":424.9,"yT1":0,"xT2":1058.1,"yT2":0,"toosoon":0,"cond_shown":"Incongruent","ratio_trial":200,"L_num":4,"L_den":6,"R_num":14,"R_den":30,"correct_side":1,"subjID":"AlanJavierCardenasRiano37","gender":null,"school":null,"age":"sexto"},{"start_time":1551887114415,"click_time":1551887116704,"finger_time":1551887116564,"fix_duration":250,"trial":21,"RT":2149,"MT":140,"sideResp":2,"stimulus":[],"xmouse":[823,823,823,823,823,823,823,823,823,823,823,823,823,823,823,823,823,823,823,823,823,823,823,823,823,823,823,823,823,823,823,823,823,823,823,823,823,823,823,823,823,823,823,823,823,823,823,823,823,823,823,823,823,823,823,823,823,823,823,823,823,823,823,823,823,823,823,823,823,823,823,823,823,823,823,823,823,823,823,823,823,823,823,823,823,823,823,823,823,823,823,823,823,823,823,823,823,823,823,823,823,823,823,823,823,823,826,873,917,977,1022,1046,1061,1067,1075],"ymouse":[592,592,592,592,592,592,592,592,592,592,592,592,592,592,592,592,592,592,592,592,592,592,592,592,592,592,592,592,592,592,592,592,592,592,592,592,592,592,592,592,592,592,592,592,592,592,592,592,592,592,592,592,592,592,592,592,592,592,592,592,592,592,592,592,592,592,592,592,592,592,592,592,592,592,592,592,592,592,592,592,592,592,592,592,592,592,592,592,592,592,592,592,592,592,592,592,592,592,592,592,592,592,592,592,592,587,577,488,420,331,253,207,140,118,88],"timestamp_mouse":[12,34,50,68,90,108,130,150,170,190,209,230,249,269,289,308,329,348,369,389,410,429,449,470,488,510,529,548,569,589,610,628,649,668,689,709,729,750,770,789,808,830,849,870,889,910,930,949,970,989,1010,1029,1048,1070,1089,1109,1130,1149,1169,1189,1208,1230,1248,1269,1289,1308,1328,1349,1369,1390,1409,1429,1449,1470,1488,1509,1529,1549,1570,1589,1609,1630,1650,1670,1689,1709,1730,1749,1768,1790,1810,1829,1849,1870,1890,1910,1928,1950,1969,1989,2009,2029,2049,2069,2088,2110,2129,2149,2170,2189,2209,2229,2250,2268,2289],"xSR":741.5,"ySR":573.95,"xT1":424.9,"yT1":0,"xT2":1058.1,"yT2":0,"toosoon":0,"cond_shown":"Congruent","ratio_trial":300,"L_num":4,"L_den":20,"R_num":13,"R_den":26,"correct_side":2,"subjID":"AlanJavierCardenasRiano37","gender":null,"school":null,"age":"sexto"},{"start_time":1551887120027,"click_time":1551887125265,"finger_time":1551887124124,"fix_duration":440.3458289228871,"trial":22,"RT":4097,"MT":1141,"sideResp":2,"stimulus":[],"xmouse":[759,759,759,759,759,759,759,759,759,759,759,759,759,759,759,759,759,759,759,759,759,759,759,759,759,759,759,759,759,759,759,759,759,759,759,759,759,759,759,759,759,759,759,759,759,759,759,759,759,759,759,759,759,759,759,759,759,759,759,759,759,759,759,759,759,759,759,759,759,759,759,759,759,759,759,759,759,759,759,759,759,759,759,759,759,759,759,759,759,759,759,759,759,759,759,759,759,759,759,759,759,759,759,759,759,759,759,759,759,759,759,759,759,759,759,759,759,759,759,759,759,759,759,759,759,759,759,759,759,759,759,759,759,759,759,759,759,759,759,759,759,759,759,759,759,759,759,759,759,759,759,759,759,759,759,759,759,759,759,759,759,759,759,759,759,759,759,759,759,759,759,759,759,759,759,759,759,759,759,759,759,759,759,759,759,759,759,759,759,759,759,759,759,759,759,759,759,759,759,759,759,762,764,770,774,775,770,766,766,774,829,868,918,1003,1059,1173,1234,1293,1336,1363,1377,1391,1391,1391,1391,1391,1385,1375,1362,1348,1337,1321,1316,1313,1308,1301,1286,1275,1263,1252,1228,1224,1223,1222,1222,1220,1217,1215,1212,1210,1204,1196,1191,1184,1183,1180,1177,1175,1173,1171,1167,1143],"ymouse":[626,626,626,626,626,626,626,626,626,626,626,626,626,626,626,626,626,626,626,626,626,626,626,626,626,626,626,626,626,626,626,626,626,626,626,626,626,626,626,626,626,626,626,626,626,626,626,626,626,626,626,626,626,626,626,626,626,626,626,626,626,626,626,626,626,626,626,626,626,626,626,626,626,626,626,626,626,626,626,626,626,626,626,626,626,626,626,626,626,626,626,626,626,626,626,626,626,626,626,626,626,626,626,626,626,626,626,626,626,626,626,626,626,626,626,626,626,626,626,626,626,626,626,626,626,626,626,626,626,626,626,626,626,626,626,626,626,626,626,626,626,626,626,626,626,626,626,626,626,626,626,626,626,626,626,626,626,626,626,626,626,626,626,626,626,626,626,626,626,626,626,626,626,626,626,626,626,626,626,626,626,626,626,626,626,626,626,626,626,626,626,626,626,626,626,626,626,626,626,626,626,616,607,585,571,542,522,502,480,450,366,323,282,224,188,88,13,0,0,0,0,0,0,0,0,0,0,0,0,0,0,0,0,0,1,4,11,15,23,32,54,57,58,59,59,60,60,60,60,60,57,53,50,46,46,46,45,44,44,44,44,40],"timestamp_mouse":[17,36,58,78,98,117,137,158,178,196,217,237,256,278,297,318,338,356,377,398,417,437,458,476,498,516,537,558,577,598,617,637,657,676,698,717,737,756,778,797,817,837,856,877,898,917,937,958,976,997,1017,1037,1057,1078,1097,1118,1137,1158,1178,1197,1217,1237,1258,1277,1297,1318,1337,1358,1377,1397,1417,1438,1457,1477,1497,1517,1537,1556,1577,1597,1618,1637,1657,1678,1697,1718,1737,1757,1777,1798,1817,1837,1857,1878,1897,1917,1936,1957,1977,1998,2017,2038,2057,2076,2098,2118,2137,2156,2177,2197,2216,2237,2257,2277,2298,2318,2337,2357,2377,2397,2417,2437,2457,2477,2497,2518,2537,2557,2577,2597,2617,2636,2657,2677,2698,2717,2737,2757,2776,2798,2817,2837,2856,2877,2898,2916,2937,2957,2977,2998,3017,3037,3057,3076,3098,3117,3137,3157,3177,3198,3218,3237,3258,3276,3297,3317,3337,3357,3377,3397,3417,3437,3457,3477,3497,3517,3537,3558,3576,3598,3617,3637,3658,3677,3696,3717,3736,3758,3777,3797,3817,3837,3857,3876,3897,3917,3936,3958,3977,3997,4018,4037,4058,4077,4097,4117,4136,4157,4177,4198,4218,4237,4256,4277,4298,4318,4337,4356,4378,4397,4418,4436,4457,4478,4497,4517,4537,4557,4578,4598,4618,4637,4657,4677,4697,4717,4737,4757,4778,4796,4819,4837,4857,4877,4897,4918,4937,4957,4978,4997,5018,5037,5057,5077,5098,5119,5137,5158,5177,5197,5216,5238],"xSR":741.5,"ySR":573.95,"xT1":424.9,"yT1":0,"xT2":1058.1,"yT2":0,"toosoon":0,"cond_shown":"Congruent","ratio_trial":200,"L_num":3,"L_den":12,"R_num":9,"R_den":20,"correct_side":2,"subjID":"AlanJavierCardenasRiano37","gender":null,"school":null,"age":"sexto"},{"start_time":1551887128729,"click_time":1551887133924,"finger_time":1551887132984,"fix_duration":763.7141079987307,"trial":23,"RT":4255,"MT":940,"sideResp":2,"stimulus":[],"xmouse":[763,763,763,763,763,763,763,763,763,763,763,763,763,763,763,763,763,763,763,763,763,763,763,763,763,763,763,763,763,763,763,763,763,763,763,763,763,763,763,763,763,763,763,763,763,763,763,763,763,763,763,763,763,763,763,763,763,763,763,763,763,763,763,763,763,763,763,763,763,763,763,763,763,763,763,763,763,763,763,763,763,763,763,763,763,763,763,763,763,763,763,763,763,763,763,763,763,763,763,763,763,763,763,763,763,763,763,763,763,763,763,763,763,763,763,763,763,763,763,763,763,763,763,763,763,763,763,763,763,763,763,763,763,763,763,763,763,763,763,763,763,763,763,763,763,763,763,763,763,763,763,763,763,763,763,763,763,763,763,763,763,763,763,763,763,763,763,763,763,763,763,763,763,763,763,763,763,763,763,763,763,763,763,763,763,763,763,763,763,763,763,763,763,763,763,763,763,763,763,763,763,763,763,763,763,763,763,763,763,763,776,804,847,886,912,922,934,939,946,950,963,973,987,1007,1032,1079,1290,1405,1459,1461,1461,1461,1459,1454,1448,1442,1413,1376,1352,1336,1327,1325,1318,1306,1290,1272,1233,1218,1211,1208,1206,1201,1199,1199,1196,1187,1186,1174,1159,1147],"ymouse":[658,656,656,656,656,656,656,656,656,656,656,656,656,656,656,656,656,656,656,656,656,656,656,656,656,656,656,656,656,656,656,656,656,656,656,656,656,656,656,656,656,656,656,656,656,656,656,656,656,656,656,656,656,656,656,656,656,656,656,656,656,656,656,656,656,656,656,656,656,656,656,656,656,656,656,656,656,656,656,656,656,656,656,656,656,656,656,656,656,656,656,656,656,656,656,656,656,656,656,656,656,656,656,656,656,656,656,656,656,656,656,656,656,656,656,656,656,656,656,656,656,656,656,656,656,656,656,656,656,656,656,656,656,656,656,656,656,656,656,656,656,656,656,656,656,656,656,656,656,656,656,656,656,656,656,656,656,656,656,656,656,656,656,656,656,656,656,656,656,656,656,656,656,656,656,656,656,656,656,656,656,656,656,656,656,656,656,656,656,656,656,656,656,656,656,656,656,656,656,656,656,656,656,656,656,656,656,656,656,656,634,590,527,472,425,389,319,286,241,215,164,133,96,50,3,0,0,0,0,0,0,0,0,0,1,4,14,21,25,26,26,26,26,26,26,26,29,33,35,37,39,46,48,50,50,53,53,57,59,61],"timestamp_mouse":[15,35,54,76,95,115,135,154,176,195,215,235,255,275,295,315,335,355,375,394,416,434,455,475,496,515,536,556,576,596,615,635,655,675,695,716,735,756,774,796,815,835,856,875,895,916,935,955,976,996,1015,1035,1055,1075,1095,1116,1136,1155,1175,1195,1215,1235,1254,1275,1295,1315,1335,1355,1375,1395,1415,1436,1456,1476,1496,1516,1535,1555,1575,1595,1615,1634,1656,1674,1695,1716,1735,1755,1775,1795,1815,1834,1855,1876,1894,1916,1935,1955,1974,1996,2014,2036,2055,2075,2095,2115,2134,2155,2176,2194,2216,2235,2254,2275,2296,2315,2335,2355,2376,2395,2416,2435,2456,2474,2496,2516,2536,2556,2576,2595,2616,2635,2655,2675,2695,2716,2735,2755,2775,2796,2816,2835,2856,2876,2895,2915,2936,2956,2975,2995,3015,3035,3056,3074,3096,3116,3135,3155,3176,3196,3215,3235,3255,3276,3295,3316,3335,3355,3375,3395,3414,3435,3455,3475,3494,3516,3535,3555,3576,3594,3616,3635,3656,3676,3696,3716,3734,3756,3776,3795,3816,3836,3856,3876,3895,3915,3935,3954,3975,3995,4015,4035,4056,4074,4095,4115,4135,4155,4176,4195,4216,4235,4255,4275,4296,4315,4335,4355,4375,4395,4416,4434,4456,4475,4496,4516,4535,4554,4574,4595,4616,4635,4655,4675,4695,4716,4736,4756,4775,4795,4815,4834,4856,4875,4896,4915,4935,4954,4975,4996,5015,5035,5055,5075,5095,5116,5135,5156,5175,5195],"xSR":741.5,"ySR":573.95,"xT1":424.9,"yT1":0,"xT2":1058.1,"yT2":0,"toosoon":0,"cond_shown":"Incongruent","ratio_trial":100,"L_num":13,"L_den":26,"R_num":6,"R_den":10,"correct_side":2,"subjID":"AlanJavierCardenasRiano37","gender":null,"school":null,"age":"sexto"},{"start_time":1551887138040,"click_time":1551887141664,"finger_time":1551887141564,"fix_duration":414.433896832357,"trial":24,"RT":3524,"MT":100,"sideResp":1,"stimulus":[],"xmouse":[767,767,767,767,767,767,767,767,767,767,767,767,767,767,767,767,767,767,767,767,767,767,767,767,767,767,767,767,767,767,767,767,767,767,767,767,767,767,767,767,767,767,767,767,767,767,767,767,767,767,767,767,767,767,767,767,767,767,767,767,767,767,767,767,767,767,767,767,767,767,767,767,767,767,767,767,767,767,767,767,767,767,767,767,767,767,767,767,767,767,767,767,767,767,767,767,767,767,767,767,767,767,767,767,767,767,767,767,767,767,767,767,767,767,767,767,767,767,767,767,767,767,767,767,767,767,767,767,767,767,767,767,767,767,767,767,767,767,767,767,767,767,767,767,767,767,767,767,767,767,767,767,767,767,767,767,767,767,767,767,767,767,767,767,767,767,767,767,767,767,767,767,767,767,768,764,741,718,675,628,541,518],"ymouse":[652,652,652,652,652,652,652,652,652,652,652,652,652,652,652,652,652,652,652,652,652,652,652,652,652,652,652,652,652,652,652,652,652,652,652,652,652,652,652,652,652,652,652,652,652,652,652,652,652,652,652,652,652,652,652,652,652,652,652,652,652,652,652,652,652,652,652,652,652,652,652,652,652,652,652,652,652,652,652,652,652,652,652,652,652,652,652,652,652,652,652,652,652,652,652,652,652,652,652,652,652,652,652,652,652,652,652,652,652,652,652,652,652,652,652,652,652,652,652,652,652,652,652,652,652,652,652,652,652,652,652,652,652,652,652,652,652,652,652,652,652,652,652,652,652,652,652,652,652,652,652,652,652,652,652,652,652,652,652,652,652,652,652,652,652,652,652,652,652,652,652,652,652,652,652,635,543,467,359,249,72,21],"timestamp_mouse":[8,24,44,65,84,104,125,144,164,184,205,225,244,265,284,304,325,344,364,385,404,424,444,464,485,503,524,544,565,584,605,624,644,665,685,704,725,744,763,785,805,824,845,864,885,905,925,944,964,985,1004,1023,1045,1065,1085,1105,1124,1144,1165,1185,1204,1223,1245,1265,1285,1305,1324,1345,1364,1385,1405,1423,1445,1465,1485,1504,1524,1545,1564,1585,1605,1625,1644,1665,1685,1705,1725,1745,1764,1784,1803,1825,1844,1863,1884,1904,1924,1945,1963,1985,2004,2025,2045,2065,2084,2104,2124,2144,2163,2184,2205,2224,2244,2265,2283,2304,2324,2344,2364,2385,2404,2424,2445,2463,2483,2504,2524,2544,2564,2585,2605,2624,2644,2665,2685,2705,2724,2745,2765,2784,2804,2825,2844,2865,2885,2905,2924,2945,2964,2983,3004,3025,3045,3065,3084,3104,3124,3145,3164,3184,3204,3224,3245,3264,3284,3304,3325,3344,3365,3384,3404,3424,3445,3465,3485,3504,3524,3544,3564,3584,3605,3624],"xSR":741.5,"ySR":573.95,"xT1":424.9,"yT1":0,"xT2":1058.1,"yT2":0,"toosoon":0,"cond_shown":"Incongruent","ratio_trial":200,"L_num":4,"L_den":30,"R_num":1,"R_den":3,"correct_side":2,"subjID":"AlanJavierCardenasRiano37","gender":null,"school":null,"age":"sexto"},{"start_time":1551887150134,"click_time":1551887157044,"finger_time":1551887152864,"fix_duration":1088.634151492579,"trial":25,"RT":2730,"MT":4180,"sideResp":2,"stimulus":[],"xmouse":[757,757,757,757,757,757,757,757,757,757,757,757,757,757,757,757,757,757,757,757,757,757,757,757,757,757,757,757,757,757,757,757,757,757,757,757,757,757,757,757,757,757,757,757,757,757,757,757,757,757,757,757,757,757,757,757,757,757,757,757,757,757,757,757,757,757,757,757,757,757,757,757,757,757,757,757,757,757,757,757,757,757,757,757,757,757,757,757,757,757,757,757,757,757,757,757,757,757,757,757,757,757,757,757,757,757,757,757,757,757,757,757,757,757,757,757,757,757,757,757,758,760,761,762,762,762,762,762,762,762,762,762,762,763,765,768,774,774,763,744,729,715,715,717,718,719,719,719,719,721,729,732,734,736,736,736,736,735,733,730,723,720,718,716,716,716,714,712,705,703,699,691,691,690,690,688,688,688,688,688,688,688,688,688,688,688,688,688,688,688,688,690,698,706,710,716,717,719,720,723,731,731,731,731,731,731,731,731,731,738,744,745,747,748,748,749,749,750,750,751,751,751,751,751,751,751,751,751,751,751,751,751,751,752,752,752,752,752,752,752,752,752,752,752,752,752,752,752,752,752,752,752,752,752,752,752,752,752,752,752,752,752,752,752,752,752,752,752,752,752,752,752,752,752,752,752,752,752,752,752,752,752,752,752,752,752,752,752,752,752,752,752,752,752,752,752,752,752,752,752,752,752,752,752,752,752,752,752,752,752,752,752,752,752,752,752,752,752,752,734,723,723,723,723,728,738,741,744,749,756,766,796,814,833,847,858,870,882,902,939,969,982,992,1005,1022,1070],"ymouse":[622,622,622,622,622,622,622,622,622,622,622,622,622,622,622,622,622,622,622,622,622,622,622,622,622,622,622,622,622,622,622,622,622,622,622,622,622,622,622,622,622,622,622,622,622,622,622,622,622,622,622,622,622,622,622,622,622,622,622,622,622,622,622,622,622,622,622,622,622,622,622,622,622,622,622,622,622,622,622,622,622,622,622,622,622,622,622,622,622,622,622,622,622,622,622,622,622,622,622,622,622,622,622,622,622,622,622,622,622,622,622,622,622,622,622,622,622,622,622,622,620,615,612,610,609,609,609,609,609,609,609,609,609,606,601,590,551,527,477,436,398,349,334,322,314,303,279,264,251,234,220,214,208,205,201,197,195,192,190,188,183,181,180,179,179,178,176,175,174,172,172,169,169,169,169,167,164,163,163,163,163,163,163,163,163,163,163,163,163,163,163,163,163,163,163,163,163,163,167,174,195,202,204,204,204,204,204,205,208,215,221,223,224,226,226,227,227,227,227,227,227,227,227,227,227,227,227,227,227,227,227,227,227,227,227,227,227,227,228,229,234,234,234,234,234,234,234,234,234,234,234,234,234,234,234,234,234,234,234,234,234,234,234,234,234,234,234,234,234,234,234,234,234,234,234,234,234,234,234,234,234,234,234,234,234,234,234,234,234,234,234,234,234,234,234,234,234,234,234,234,234,234,234,234,234,234,234,234,234,234,234,234,234,234,234,234,234,234,235,210,197,197,197,197,195,190,189,187,185,177,167,142,130,121,112,105,94,87,80,71,63,59,55,55,55,55],"timestamp_mouse":[10,30,57,70,89,110,130,150,169,191,211,231,250,271,290,310,331,351,371,391,410,431,450,470,489,511,530,551,571,590,611,630,650,671,691,709,730,750,770,790,809,830,851,871,891,910,930,951,971,991,1010,1030,1051,1070,1089,1110,1129,1151,1171,1190,1209,1230,1250,1271,1291,1310,1331,1351,1370,1389,1411,1430,1450,1470,1489,1511,1530,1551,1571,1590,1611,1630,1650,1670,1691,1710,1730,1750,1770,1789,1810,1830,1849,1871,1891,1911,1931,1951,1971,1991,2009,2031,2050,2071,2091,2110,2130,2150,2171,2190,2211,2230,2250,2270,2291,2311,2329,2349,2371,2391,2410,2430,2451,2470,2490,2509,2530,2549,2571,2590,2611,2630,2651,2670,2690,2710,2730,2749,2771,2790,2810,2830,2850,2870,2891,2910,2931,2950,2970,2989,3010,3029,3050,3071,3090,3110,3130,3150,3170,3191,3210,3229,3250,3270,3290,3310,3330,3351,3370,3391,3410,3430,3450,3470,3490,3510,3530,3550,3570,3589,3610,3629,3650,3670,3690,3711,3729,3750,3770,3790,3809,3831,3850,3871,3891,3910,3930,3951,3970,3990,4010,4030,4050,4071,4090,4110,4129,4150,4171,4191,4210,4229,4250,4270,4290,4310,4330,4350,4371,4390,4410,4429,4450,4471,4489,4509,4530,4551,4571,4591,4610,4629,4651,4671,4689,4710,4731,4750,4769,4791,4810,4831,4850,4871,4890,4911,4931,4949,4971,4990,5010,5030,5050,5071,5091,5110,5130,5151,5171,5189,5211,5230,5250,5270,5290,5310,5330,5350,5371,5390,5411,5430,5450,5469,5490,5511,5530,5550,5570,5590,5611,5630,5651,5670,5690,5711,5731,5750,5769,5790,5811,5830,5850,5870,5889,5911,5930,5950,5969,5991,6011,6031,6050,6070,6090,6110,6131,6150,6169,6189,6211,6231,6250,6270,6291,6311,6329,6350,6371,6391,6410,6430,6450,6470,6491,6510,6530,6550,6571,6591,6611,6631,6650,6670,6690,6710,6730,6750,6770,6790,6810,6830,6850,6871,6891,6910],"xSR":741.5,"ySR":573.95,"xT1":424.9,"yT1":0,"xT2":1058.1,"yT2":0,"toosoon":0,"cond_shown":"Congruent","ratio_trial":100,"L_num":6,"L_den":20,"R_num":5,"R_den":25,"correct_side":1,"subjID":"AlanJavierCardenasRiano37","gender":null,"school":null,"age":"sexto"},{"start_time":1551887164363,"click_time":1551887167345,"finger_time":1551887167105,"fix_duration":298.6703641968316,"trial":26,"RT":2742,"MT":240,"sideResp":1,"stimulus":[],"xmouse":[749,749,749,749,749,749,749,749,749,749,749,749,749,749,749,749,749,749,749,749,749,749,749,749,749,749,749,749,749,749,749,749,749,749,749,749,749,749,749,749,749,749,749,749,749,749,749,749,749,749,749,749,749,749,749,749,749,749,749,749,749,749,749,749,749,749,749,749,749,749,749,749,749,749,749,749,749,749,749,749,749,749,749,749,749,749,749,749,749,749,749,749,749,749,749,749,749,749,749,749,749,749,749,749,749,749,749,749,749,749,749,749,749,749,749,749,749,749,749,749,749,749,749,749,749,749,749,749,749,749,749,749,749,749,749,749,745,737,732,724,716,708,699,687,674,629,602,595,571,516],"ymouse":[648,648,648,648,648,648,648,648,648,648,648,648,648,648,648,648,648,648,648,648,648,648,648,648,648,648,648,648,648,648,648,648,648,648,648,648,648,648,648,648,648,648,648,648,648,648,648,648,648,648,648,648,648,648,648,648,648,648,648,648,648,648,648,648,648,648,648,648,648,648,648,648,648,648,648,648,648,648,648,648,648,648,648,648,648,648,648,648,648,648,648,648,648,648,648,648,648,648,648,648,648,648,648,648,648,648,648,648,648,648,648,648,648,648,648,648,648,648,648,648,648,648,648,648,648,648,648,648,648,648,648,648,648,648,648,648,640,620,601,575,519,477,430,386,335,218,128,106,58,4],"timestamp_mouse":[8,21,41,61,82,101,121,141,161,181,201,221,241,261,281,301,322,341,362,382,402,421,442,461,482,501,522,541,561,581,602,622,642,661,681,702,721,741,761,782,801,822,842,861,882,900,921,942,961,981,1002,1022,1041,1060,1082,1101,1121,1142,1162,1182,1201,1221,1242,1262,1281,1301,1321,1341,1362,1382,1402,1421,1442,1462,1482,1502,1522,1541,1561,1582,1602,1621,1642,1662,1682,1701,1721,1741,1762,1780,1801,1822,1842,1862,1881,1901,1922,1940,1962,1981,2002,2022,2041,2062,2081,2101,2122,2141,2161,2181,2201,2222,2241,2262,2282,2301,2322,2341,2361,2382,2402,2422,2442,2461,2482,2501,2522,2541,2561,2580,2602,2622,2642,2662,2681,2701,2722,2742,2761,2781,2802,2820,2842,2862,2881,2901,2921,2942,2961,2982],"xSR":741.5,"ySR":573.95,"xT1":424.9,"yT1":0,"xT2":1058.1,"yT2":0,"toosoon":0,"cond_shown":"Congruent","ratio_trial":100,"L_num":9,"L_den":15,"R_num":8,"R_den":16,"correct_side":1,"subjID":"AlanJavierCardenasRiano37","gender":null,"school":null,"age":"sexto"},{"start_time":1551887175831,"click_time":1551887185344,"finger_time":1551887177164,"fix_duration":1024.2161230843876,"trial":27,"RT":1333,"MT":8180,"sideResp":1,"stimulus":[],"xmouse":[760,760,760,760,760,760,760,760,760,760,760,760,760,760,760,760,760,760,760,760,760,760,760,760,760,760,760,760,760,760,760,760,760,760,760,760,760,760,760,760,760,760,760,760,760,760,760,760,760,760,760,760,760,760,760,760,760,760,760,760,760,760,760,760,760,742,655,590,519,456,420,395,394,394,394,394,394,390,383,373,360,357,354,354,355,367,372,377,378,379,379,379,379,379,378,376,375,375,371,367,359,357,357,357,357,357,357,358,360,363,366,370,371,372,372,372,372,372,372,372,372,372,372,372,372,372,372,372,372,372,372,372,372,372,368,359,359,359,359,359,359,359,359,359,359,360,369,372,374,374,374,374,374,374,374,374,374,374,374,374,374,374,374,374,374,375,374,373,372,371,371,371,371,371,371,371,371,371,371,371,371,371,371,371,371,371,371,371,371,371,371,371,371,371,371,371,371,371,371,371,371,371,371,371,371,371,371,371,371,371,371,371,371,371,371,371,371,371,371,371,371,371,371,371,371,371,371,371,371,371,371,371,371,371,371,371,371,371,371,371,371,371,371,371,371,371,371,371,371,371,371,371,371,371,371,371,371,371,371,371,371,371,371,371,371,371,371,371,371,371,371,371,371,371,371,371,371,371,371,371,371,371,371,371,371,371,371,371,371,371,371,371,371,371,371,371,371,371,371,371,371,371,371,371,371,371,371,371,371,371,371,371,371,371,371,371,371,371,371,371,371,371,371,371,371,371,371,371,371,371,371,371,371,371,371,371,371,371,371,371,371,371,371,371,371,371,371,371,371,371,371,371,371,371,371,371,371,371,371,371,371,371,371,371,371,371,371,371,371,371,371,371,371,371,371,371,371,371,371,371,371,371,371,371,371,371,371,371,371,371,371,371,371,371,371,371,371,371,371,371,371,371,371,371,371,371,371,371,371,371,371,371,371,371,371,371,371,371,371,371,371,371,371,371,371,371,371,371,371,371,371,371,371,371,371,371,371,371,371,371,371,371,371,371,370,370,370,370,370,369,369,368,368,368,367,366,365,365,365,365,366,368,370,374,375,378,382,383,383,383,383,385,388,402,415,439],"ymouse":[593,593,593,593,593,593,593,593,593,593,593,593,593,593,593,593,593,593,593,593,593,593,593,593,593,593,593,593,593,593,593,593,593,593,593,593,593,593,593,593,593,593,593,593,593,593,593,593,593,593,593,593,593,593,593,593,593,593,593,593,593,593,593,593,589,574,543,524,503,484,475,468,467,467,467,467,467,461,454,444,426,416,402,398,386,372,368,364,357,351,345,341,337,332,328,323,307,297,285,271,250,241,229,219,210,187,176,166,155,146,137,125,122,120,118,118,118,118,118,118,118,118,118,118,118,118,118,118,118,118,118,118,118,117,117,118,118,118,118,118,118,118,118,118,118,120,120,121,121,121,121,121,121,121,121,121,121,121,121,121,121,121,121,121,121,121,126,130,135,138,139,139,139,139,139,139,139,139,139,139,139,139,139,139,139,139,139,139,139,139,139,139,139,139,139,139,139,139,139,139,139,139,139,139,139,139,139,139,139,139,139,139,139,139,139,139,139,139,139,139,139,139,139,139,139,139,139,139,139,139,139,139,139,139,139,139,139,139,139,139,139,139,139,139,139,139,139,139,139,139,139,139,139,139,139,139,139,139,139,139,139,139,139,139,139,139,139,139,139,139,139,139,139,139,139,139,139,139,139,139,139,139,139,139,139,139,139,139,139,139,139,139,139,139,139,139,139,139,139,139,139,139,139,139,139,139,139,139,139,139,139,139,139,139,139,139,139,139,139,139,139,139,139,139,139,139,139,139,139,139,139,139,139,139,139,139,139,139,139,139,139,139,139,139,139,139,139,139,139,139,139,139,139,139,139,139,139,139,139,139,139,139,139,139,139,139,139,139,139,139,139,139,139,139,139,139,139,139,139,139,139,139,139,139,139,139,139,139,139,139,139,139,139,139,139,139,139,139,139,139,139,139,139,139,139,139,139,139,139,139,139,139,139,139,139,139,139,139,139,139,139,139,139,139,139,139,139,139,139,139,139,139,139,139,139,139,139,139,139,139,139,139,139,139,140,127,123,121,118,115,111,110,110,110,109,104,101,99,94,91,80,76,71,65,61,57,53,53,53,53,53,53,53,55,58,65],"timestamp_mouse":[13,44,54,73,93,113,134,154,173,193,213,233,254,272,293,314,332,353,373,394,413,433,454,473,493,513,534,553,574,592,613,633,653,672,694,713,733,753,773,793,813,833,853,873,894,913,933,953,973,993,1013,1033,1053,1074,1094,1114,1133,1153,1173,1194,1212,1233,1253,1274,1293,1313,1333,1354,1374,1392,1413,1433,1453,1473,1494,1514,1532,1553,1574,1593,1613,1633,1653,1672,1693,1714,1733,1753,1773,1794,1814,1833,1853,1874,1893,1914,1933,1954,1973,1994,2014,2033,2053,2073,2093,2113,2133,2154,2173,2194,2213,2233,2253,2273,2294,2313,2333,2353,2373,2394,2414,2434,2453,2474,2493,2513,2533,2553,2573,2593,2614,2634,2654,2674,2693,2713,2734,2754,2773,2793,2814,2834,2853,2873,2893,2914,2933,2954,2973,2994,3013,3034,3053,3073,3094,3113,3134,3153,3173,3194,3214,3233,3253,3273,3293,3313,3334,3353,3374,3394,3414,3434,3453,3473,3494,3513,3533,3554,3573,3594,3613,3633,3654,3673,3694,3713,3734,3753,3773,3794,3813,3833,3852,3874,3893,3914,3933,3952,3973,3993,4014,4034,4053,4074,4093,4114,4133,4153,4174,4194,4214,4233,4253,4273,4293,4314,4333,4353,4373,4393,4413,4434,4454,4473,4493,4513,4534,4554,4573,4593,4614,4633,4654,4673,4693,4714,4734,4753,4773,4793,4813,4833,4853,4874,4893,4914,4934,4954,4973,4993,5014,5033,5054,5074,5094,5114,5134,5154,5172,5194,5213,5234,5253,5272,5294,5314,5332,5354,5373,5392,5413,5434,5453,5473,5493,5514,5534,5553,5573,5594,5614,5634,5652,5673,5693,5714,5733,5753,5774,5793,5814,5833,5853,5874,5894,5913,5933,5953,5974,5993,6013,6033,6053,6073,6094,6113,6133,6153,6173,6193,6213,6234,6253,6273,6293,6314,6332,6353,6373,6393,6414,6434,6453,6472,6494,6514,6534,6553,6573,6593,6614,6634,6653,6674,6693,6713,6734,6752,6773,6793,6814,6833,6853,6873,6893,6913,6933,6954,6973,6993,7014,7032,7053,7073,7093,7113,7133,7153,7173,7194,7214,7234,7253,7273,7293,7313,7334,7353,7373,7392,7413,7433,7453,7473,7494,7513,7532,7553,7573,7594,7614,7633,7654,7673,7693,7714,7733,7753,7774,7794,7814,7834,7853,7873,7894,7913,7933,7953,7974,7994,8013,8033,8053,8074,8094,8113,8133,8153,8173,8193,8213,8233,8252,8273,8293,8314,8332,8353,8374,8394,8414,8433,8454,8473,8494,8513,8533,8554,8573,8594,8613,8633,8654,8673,8693,8714,8733,8752,8773,8794,8814,8833,8853,8873,8893,8913,8933,8953,8974,8993,9013,9033,9053,9073,9094,9113,9133,9153,9173,9194,9214,9232,9253,9274,9293,9313,9333,9353,9373,9394,9414,9433,9454,9473,9494,9513],"xSR":741.5,"ySR":573.95,"xT1":424.9,"yT1":0,"xT2":1058.1,"yT2":0,"toosoon":0,"cond_shown":"Incongruent","ratio_trial":100,"L_num":17,"L_den":30,"R_num":10,"R_den":15,"correct_side":2,"subjID":"AlanJavierCardenasRiano37","gender":null,"school":null,"age":"sexto"},{"start_time":1551887187663,"click_time":1551887189944,"finger_time":1551887189325,"fix_duration":257.0349588012495,"trial":28,"RT":1662,"MT":619,"sideResp":2,"stimulus":[],"xmouse":[785,785,785,785,785,785,785,785,785,785,785,785,785,785,785,785,785,785,785,785,785,785,785,785,785,785,785,785,785,785,785,785,785,785,785,785,785,785,785,785,785,785,785,785,785,785,785,785,785,785,785,785,785,785,785,785,785,785,785,785,785,785,785,785,785,785,785,785,785,785,785,785,785,785,785,785,785,785,785,785,785,785,789,814,838,843,844,844,844,848,852,856,860,872,918,973,1008,1017,1022,1024,1023,1022,1021,1017,1017,1017,1017,1017,1017,1017,1017,1017,1028,1045,1070],"ymouse":[648,648,648,648,648,648,648,648,648,648,648,648,648,648,648,648,648,648,648,648,648,648,648,648,648,648,648,648,648,648,648,648,648,648,648,648,648,648,648,648,648,648,648,648,648,648,648,648,648,648,648,648,648,648,648,648,648,648,648,648,648,648,648,648,648,648,648,648,648,648,648,648,648,648,648,648,648,648,648,648,641,620,590,528,459,441,431,426,423,413,408,405,404,398,255,146,89,79,75,69,67,65,59,35,28,28,28,28,28,28,28,27,23,20,19],"timestamp_mouse":[8,21,42,60,81,101,120,141,162,181,201,222,241,261,282,301,320,342,361,382,402,421,441,461,482,502,522,541,561,581,601,621,641,662,682,701,721,741,761,781,801,821,842,861,882,900,921,941,961,982,1001,1021,1042,1061,1081,1101,1122,1142,1162,1181,1201,1222,1240,1262,1281,1301,1322,1341,1362,1382,1402,1421,1441,1462,1482,1501,1521,1542,1562,1582,1601,1622,1642,1662,1681,1701,1722,1741,1761,1782,1800,1821,1841,1862,1881,1900,1921,1941,1961,1981,2002,2021,2041,2061,2081,2101,2121,2141,2161,2182,2201,2221,2240,2261,2281],"xSR":741.5,"ySR":573.95,"xT1":424.9,"yT1":0,"xT2":1058.1,"yT2":0,"toosoon":0,"cond_shown":"Incongruent","ratio_trial":200,"L_num":7,"L_den":15,"R_num":4,"R_den":6,"correct_side":2,"subjID":"AlanJavierCardenasRiano37","gender":null,"school":null,"age":"sexto"},{"start_time":1551887205731,"click_time":1551887213684,"finger_time":1551887209405,"fix_duration":406.9950912552138,"trial":29,"RT":3674,"MT":4279,"sideResp":2,"stimulus":[],"xmouse":[828,824,820,815,810,803,803,802,802,802,802,802,802,802,802,802,802,802,802,802,802,802,802,802,802,802,802,802,802,802,802,802,802,802,802,802,802,802,802,802,802,802,802,802,802,802,802,802,802,802,802,802,802,802,802,802,802,802,802,802,802,802,802,802,802,802,802,802,802,802,802,802,802,801,800,800,799,799,799,799,799,799,799,799,799,799,799,799,799,799,799,799,799,799,799,799,799,799,799,799,799,799,799,799,799,799,799,799,799,799,799,799,799,799,799,799,799,799,799,799,799,799,799,799,799,799,799,799,799,799,799,799,799,799,799,799,799,799,799,799,799,799,799,799,799,799,799,799,799,799,799,799,799,799,799,799,799,799,799,799,799,799,799,799,799,799,799,799,799,799,799,798,796,794,792,791,791,791,791,791,784,762,742,729,719,708,705,702,702,702,702,699,693,684,672,645,633,623,611,596,582,579,577,577,576,573,571,570,568,563,548,542,532,518,500,465,446,412,367,308,173,133,113,100,95,95,95,95,95,97,239,373,521,675,805,1054,1151,1228,1299,1373,1575,1575,1575,1575,1575,1575,1575,1561,1549,1538,1496,1485,1482,1481,1481,1481,1481,1481,1482,1484,1485,1485,1487,1487,1487,1487,1487,1488,1488,1488,1469,1436,1368,1326,1125,898,442,324,238,192,138,15,0,0,0,0,0,0,0,0,0,0,0,0,0,0,0,0,0,0,0,0,4,9,15,28,40,55,59,61,61,57,54,54,54,41,41,41,41,41,54,65,74,81,90,98,98,98,98,98,98,98,98,98,98,98,98,98,98,98,98,98,98,98,98,98,98,98,108,130,224,270,299,314,323,339,356,415,545,661,904,1028,1152,1279,1380,1507,1527,1531,1531,1531,1531,1531,1531,1531,1531,1531,1531,1531,1531,1531,1524,1511,1494,1479,1463,1445,1444,1443,1439,1427,1375,1343,1315,1281,1248,1222,1174,1148],"ymouse":[667,665,662,660,657,656,656,656,656,656,656,656,656,656,656,656,656,656,656,656,656,656,656,656,656,656,656,656,656,656,656,656,656,656,656,656,656,656,656,656,656,656,656,656,656,656,656,656,656,656,656,656,656,656,656,656,656,656,656,656,656,656,656,656,656,656,656,656,656,656,656,656,656,654,653,651,650,650,650,650,650,650,650,650,650,650,650,650,650,650,650,650,650,650,650,650,650,650,650,650,650,650,650,650,650,650,650,650,650,650,650,650,650,650,650,650,650,650,650,650,650,650,650,650,650,650,650,650,650,650,650,650,650,650,650,650,650,650,650,650,650,650,650,650,650,650,650,650,650,650,650,650,650,650,650,650,650,650,650,650,650,650,650,650,650,650,650,650,650,650,646,633,628,623,616,611,611,611,611,611,604,593,585,578,570,552,541,528,516,507,472,455,435,414,392,357,343,333,324,315,307,306,305,305,305,302,302,301,300,300,296,295,293,289,283,264,251,230,204,171,95,73,57,48,45,45,45,45,45,45,67,96,117,139,157,192,205,209,210,210,171,171,171,171,171,171,127,122,117,113,102,98,97,97,97,97,97,97,96,96,95,94,94,94,94,94,94,93,93,91,77,60,30,13,0,0,0,0,0,5,11,29,40,49,49,49,49,49,49,49,50,52,52,52,52,52,52,52,52,52,52,52,53,53,53,50,41,30,23,14,0,0,0,0,0,0,0,0,0,0,2,3,4,4,4,5,5,5,5,5,5,5,5,5,5,5,5,5,5,5,5,5,5,5,5,5,5,5,11,20,36,42,42,41,38,35,33,33,33,33,2,0,0,0,0,0,0,0,0,0,0,0,0,0,0,0,0,0,0,0,0,0,0,0,0,0,0,0,0,3,12,16,20,28,38,46,63,70],"timestamp_mouse":[19,33,53,73,94,113,133,154,173,192,213,233,252,272,293,314,334,353,373,392,414,433,454,473,493,514,534,554,573,593,614,634,654,673,693,714,732,754,772,793,813,833,853,873,893,913,934,953,973,994,1013,1033,1053,1073,1093,1113,1132,1154,1173,1193,1213,1234,1253,1273,1293,1314,1334,1353,1373,1393,1414,1433,1454,1474,1493,1513,1533,1553,1574,1593,1614,1634,1653,1674,1694,1713,1733,1753,1772,1793,1814,1833,1853,1874,1894,1914,1933,1953,1974,1993,2014,2034,2053,2074,2094,2114,2134,2153,2174,2194,2214,2233,2252,2273,2294,2314,2334,2352,2372,2393,2414,2433,2454,2473,2494,2514,2533,2554,2573,2594,2613,2633,2653,2674,2694,2713,2733,2754,2772,2794,2814,2834,2853,2873,2892,2914,2933,2953,2974,2994,3014,3034,3054,3074,3092,3113,3133,3153,3173,3193,3214,3233,3254,3274,3294,3314,3333,3354,3373,3394,3413,3433,3452,3472,3494,3513,3533,3554,3574,3593,3613,3633,3654,3674,3694,3714,3733,3753,3773,3794,3812,3833,3853,3873,3893,3913,3933,3953,3973,3993,4013,4033,4054,4073,4093,4113,4134,4153,4174,4194,4213,4233,4253,4274,4294,4313,4334,4353,4374,4393,4413,4433,4453,4473,4494,4513,4533,4554,4574,4594,4613,4634,4653,4673,4693,4713,4734,4754,4773,4794,4813,4834,4853,4873,4893,4913,4934,4953,4973,4993,5013,5033,5054,5073,5093,5113,5134,5153,5173,5193,5213,5234,5253,5273,5293,5314,5333,5353,5373,5393,5413,5432,5453,5473,5493,5514,5534,5554,5573,5593,5613,5634,5653,5673,5694,5713,5734,5754,5774,5794,5813,5833,5853,5873,5893,5913,5933,5952,5972,5992,6014,6034,6054,6073,6093,6114,6133,6154,6173,6193,6213,6232,6253,6273,6293,6314,6333,6353,6374,6393,6413,6433,6453,6473,6493,6514,6532,6553,6573,6593,6613,6633,6653,6673,6693,6714,6733,6753,6773,6793,6813,6833,6853,6873,6893,6914,6933,6953,6973,6993,7013,7033,7053,7073,7094,7115,7133,7152,7173,7193,7214,7232,7254,7273,7294,7314,7333,7354,7373,7394,7413,7433,7454,7474,7493,7514,7533,7553,7573,7594,7613,7632,7654,7674,7693,7715,7733,7754,7774,7793,7814,7833,7854,7874,7894,7913,7932,7953],"xSR":741.5,"ySR":573.95,"xT1":424.9,"yT1":0,"xT2":1058.1,"yT2":0,"toosoon":0,"cond_shown":"Congruent","ratio_trial":300,"L_num":8,"L_den":16,"R_num":1,"R_den":5,"correct_side":1,"subjID":"AlanJavierCardenasRiano37","gender":null,"school":null,"age":"sexto"},{"start_time":1551887220903,"click_time":1551887223504,"finger_time":1551887222545,"fix_duration":477.233589201013,"trial":30,"RT":1642,"MT":959,"sideResp":2,"stimulus":[],"xmouse":[836,836,836,836,836,836,836,836,836,836,836,836,836,836,836,836,836,836,836,836,836,836,836,836,836,836,836,836,836,836,836,836,836,836,836,836,836,836,836,836,836,836,836,836,836,836,836,836,836,836,836,836,836,836,836,836,836,836,836,836,836,836,836,836,836,836,836,836,836,836,836,836,836,836,836,836,836,836,836,836,836,836,836,832,826,823,817,814,817,817,817,826,849,855,861,867,870,871,872,873,873,876,881,886,887,888,889,893,895,903,917,943,1017,1037,1043,1043,1043,1043,1043,1043,1043,1043,1043,1043,1043,1045,1047,1050,1050,1052,1061],"ymouse":[595,595,595,595,595,595,595,595,595,595,595,595,595,595,595,595,595,595,595,595,595,595,595,595,595,595,595,595,595,595,595,595,595,595,595,595,595,595,595,595,595,595,595,595,595,595,595,595,595,595,595,595,595,595,595,595,595,595,595,595,595,595,595,595,595,595,595,595,595,595,595,595,595,595,595,595,595,595,595,595,595,593,493,406,310,236,187,131,89,89,89,88,91,92,92,93,94,94,94,94,94,94,93,89,88,88,87,83,81,75,63,46,5,0,0,0,0,0,0,0,0,0,0,0,0,1,2,5,5,6,10],"timestamp_mouse":[8,21,43,61,82,102,122,141,161,182,201,222,242,262,281,301,321,342,361,382,401,422,441,462,481,503,522,541,561,582,602,621,641,661,681,702,722,742,761,781,801,821,841,861,881,901,921,942,961,982,1002,1022,1041,1062,1082,1102,1122,1142,1162,1182,1202,1222,1241,1261,1282,1302,1321,1341,1361,1382,1401,1421,1442,1461,1481,1503,1521,1541,1561,1581,1601,1621,1642,1661,1681,1701,1721,1741,1761,1782,1802,1821,1841,1861,1881,1901,1921,1941,1961,1981,2002,2021,2041,2061,2081,2101,2121,2141,2161,2181,2201,2221,2241,2261,2281,2301,2321,2341,2361,2382,2401,2421,2442,2461,2481,2502,2522,2543,2561,2581,2601],"xSR":741.5,"ySR":573.95,"xT1":424.9,"yT1":0,"xT2":1058.1,"yT2":0,"toosoon":0,"cond_shown":"Incongruent","ratio_trial":100,"L_num":6,"L_den":10,"R_num":13,"R_den":26,"correct_side":1,"subjID":"AlanJavierCardenasRiano37","gender":null,"school":null,"age":"sexto"},{"start_time":1551887226236,"click_time":1551887228285,"finger_time":1551887227664,"fix_duration":270.9629685792686,"trial":31,"RT":1428,"MT":621,"sideResp":1,"stimulus":[],"xmouse":[762,762,762,762,762,762,762,762,762,762,762,762,762,761,761,761,761,761,761,761,761,761,761,761,761,761,761,761,761,761,761,761,761,761,761,761,761,761,761,761,761,761,761,761,761,761,761,761,761,761,761,761,761,761,761,761,761,761,761,761,761,761,761,761,761,761,761,761,761,761,758,730,645,574,522,498,496,493,493,493,517,525,529,530,530,530,530,530,530,530,529,526,525,522,522,520,500,490,484,480,479,479,477],"ymouse":[643,643,643,643,643,643,643,643,643,642,642,640,639,637,637,637,637,637,637,637,637,637,637,637,637,637,637,637,637,637,637,637,637,637,637,637,637,637,637,637,637,637,637,637,637,637,637,637,637,637,637,637,637,637,637,637,637,637,637,637,637,637,637,637,637,637,637,637,637,637,634,606,546,495,456,419,395,336,249,160,0,0,0,0,0,0,0,0,0,0,0,0,0,0,0,0,0,0,0,0,0,0,2],"timestamp_mouse":[8,28,49,68,88,108,129,148,169,189,209,228,248,268,289,310,328,348,368,388,409,428,448,468,488,508,528,548,569,588,608,629,649,668,689,708,730,748,768,789,808,828,848,868,888,909,928,948,969,989,1008,1028,1048,1069,1088,1108,1129,1149,1169,1188,1209,1228,1248,1268,1288,1309,1329,1348,1368,1388,1409,1428,1448,1468,1488,1509,1527,1549,1568,1588,1610,1628,1649,1668,1689,1709,1729,1748,1769,1789,1808,1828,1849,1868,1889,1908,1928,1948,1968,1988,2009,2028,2049],"xSR":741.5,"ySR":573.95,"xT1":424.9,"yT1":0,"xT2":1058.1,"yT2":0,"toosoon":0,"cond_shown":"Congruent","ratio_trial":200,"L_num":7,"L_den":21,"R_num":2,"R_den":15,"correct_side":1,"subjID":"AlanJavierCardenasRiano37","gender":null,"school":n