[{"start_time":1551881834126,"click_time":1551881835865,"finger_time":1551881835465,"fix_duration":616.534203317442,"trial":0,"RT":1339,"MT":400,"sideResp":1,"stimulus":[],"xmouse":[808,808,808,808,808,808,808,808,808,808,808,808,808,808,808,808,808,808,808,808,808,808,808,808,808,808,808,808,808,808,808,808,808,808,808,808,808,805,799,798,798,798,798,798,798,798,798,798,798,798,798,798,798,798,798,796,792,757,755,755,755,756,761,761,761,762,762,762,762,762,762,753,721,710,698,683,665,634,621,615,610,605,567,549,536,529,526,518],"ymouse":[527,527,527,527,527,527,527,527,527,527,527,527,527,527,527,527,527,527,527,527,527,527,527,527,527,527,527,527,527,527,527,527,527,527,527,525,523,509,500,499,499,499,499,499,499,499,499,499,499,499,499,499,499,499,499,499,499,510,510,510,510,510,511,511,511,508,499,464,426,402,377,352,317,308,300,289,276,251,230,216,203,189,143,121,101,85,73,57],"timestamp_mouse":[9,19,41,60,79,99,119,139,161,179,201,219,241,260,280,299,319,339,360,380,399,420,440,460,479,499,520,540,559,580,601,619,639,661,680,700,719,739,759,780,799,820,840,860,880,899,919,939,959,979,999,1020,1040,1061,1080,1099,1120,1139,1160,1179,1199,1219,1241,1260,1279,1300,1320,1339,1359,1379,1399,1419,1439,1461,1479,1499,1520,1539,1560,1579,1601,1620,1640,1660,1681,1700,1719,1739],"xSR":741.5,"ySR":500.5,"xT1":424.9,"yT1":0,"xT2":1058.1,"yT2":0,"toosoon":0,"cond_shown":"Congruent","ratio_trial":300,"L_num":11,"L_den":22,"R_num":4,"R_den":20,"correct_side":1,"subjID":"samuelsolerlozano36","gender":"0","age":"11","school":"6","test":{"fix_dur":[250,1500],"timestim":1000,"targets_dim":[100,100],"targets_relative_coord":[0.3,0.7],"size_stim":[880,420],"start_dim":[100,100],"size_start":[300,300],"size_fix":60,"samplingrate":20,"img_types":["Congruent","Incongruent"],"ratios":[100,200,300],"rep_conds":19,"nTrials":120,"trials_to_rest":500,"Trials_order":[118,35,41,103,38,2,17,100,9,8,12,66,101,111,51,52,89,56,33,50,75,4,64,57,88,117,104,110,112,108,115,11,18,77,3,102,74,10,16,73,83,92,60,99,63,91,113,81,79,30,80,76,78,84,58,96,109,87,69,37,107,86,5,24,67,53,25,45,23,61,98,43,116,65,13,20,34,95,48,94,36,71,40,39,6,1,26,105,42,72,28,119,22,44,7,14,46,82,29,47,32,59,62,114,54,31,21,19,85,97,55,106,68,15,93,0,90,27,70,49],"cond_shown":["Congruent","Incongruent","Incongruent","Incongruent","Congruent","Congruent","Incongruent","Congruent","Incongruent","Congruent","Congruent","Congruent","Incongruent","Incongruent","Incongruent","Congruent","Incongruent","Congruent","Incongruent","Congruent","Incongruent","Congruent","Congruent","Incongruent","Congruent","Incongruent","Congruent","Congruent","Congruent","Congruent","Incongruent","Incongruent","Congruent","Incongruent","Incongruent","Congruent","Congruent","Congruent","Congruent","Incongruent","Incongruent","Congruent","Congruent","Incongruent","Incongruent","Incongruent","Incongruent","Incongruent","Incongruent","Congruent","Congruent","Congruent","Congruent","Congruent","Congruent","Congruent","Incongruent","Incongruent","Incongruent","Incongruent","Incongruent","Congruent","Incongruent","Congruent","Incongruent","Incongruent","Incongruent","Incongruent","Incongruent","Incongruent","Congruent","Incongruent","Congruent","Incongruent","Incongruent","Congruent","Congruent","Incongruent","Congruent","Congruent","Congruent","Incongruent","Congruent","Incongruent","Congruent","Incongruent","Congruent","Incongruent","Congruent","Congruent","Congruent","Incongruent","Congruent","Congruent","Incongruent","Congruent","Congruent","Congruent","Incongruent","Incongruent","Congruent","Incongruent","Congruent","Congruent","Congruent","Incongruent","Incongruent","Incongruent","Incongruent","Incongruent","Incongruent","Congruent","Congruent","Incongruent","Incongruent","Congruent","Congruent","Incongruent","Congruent","Incongruent"],"ratio_trial":[300,300,300,100,200,200,300,300,200,200,100,100,300,200,200,300,300,200,200,200,200,300,300,200,300,200,200,200,300,100,100,300,100,300,200,100,200,300,300,100,300,200,100,200,200,100,300,200,100,100,200,300,100,100,300,100,100,200,200,100,300,200,300,100,100,300,100,200,300,100,200,100,200,300,100,200,300,300,100,300,100,300,300,200,100,100,200,200,100,100,300,300,300,200,100,200,300,300,300,300,200,300,200,100,100,100,200,100,100,100,100,300,200,200,200,100,100,200,300,100],"left_num":[11,8,13,3,5,1,4,12,4,7,3,1,4,4,4,5,4,3,3,3,7,11,8,11,20,9,13,15,1,7,9,8,11,13,6,3,15,4,1,6,4,3,2,4,9,1,13,7,17,9,3,11,2,1,3,12,4,4,14,12,3,5,4,7,12,7,11,11,1,17,4,10,6,8,2,3,12,13,7,1,7,4,20,3,6,9,21,4,6,3,1,4,4,8,8,13,1,1,4,4,11,4,4,4,2,9,7,10,10,9,8,1,3,14,1,11,6,7,20,6],"right_num":[4,9,12,8,14,21,6,2,14,18,4,3,2,14,6,6,2,14,11,14,4,2,1,3,14,8,14,4,19,9,13,14,4,12,3,2,4,13,8,3,2,9,11,1,8,8,12,6,10,8,14,1,11,18,4,13,8,14,12,2,4,14,2,9,9,8,9,3,3,10,3,8,7,14,8,11,2,12,9,6,15,2,5,11,15,20,2,1,15,2,6,2,1,2,1,14,7,6,2,2,3,2,3,15,11,6,6,8,8,6,6,19,9,6,2,6,15,8,9,3],"left_den":[22,10,26,5,10,2,5,24,6,15,20,2,20,6,5,25,20,6,4,10,15,22,16,20,25,15,26,25,3,14,15,10,22,26,20,6,25,20,30,12,20,12,5,30,15,2,26,15,30,15,6,22,5,2,6,30,8,6,30,30,6,10,20,14,24,10,22,20,2,30,10,25,12,10,4,10,24,26,14,5,14,20,25,4,12,10,30,30,12,6,5,20,10,15,20,26,20,5,20,20,22,20,10,10,5,18,15,25,25,18,16,3,12,30,3,22,12,10,25,12],"right_den":[20,18,15,16,20,30,12,10,30,27,16,5,4,30,10,12,4,20,20,28,6,10,5,4,28,10,20,10,30,15,26,28,10,15,6,5,10,26,24,5,4,20,22,3,10,20,15,9,15,16,20,5,22,30,5,26,20,30,18,4,20,20,4,15,15,20,15,4,15,15,15,16,10,28,20,22,10,15,15,12,25,4,10,20,25,25,4,3,25,5,12,4,10,6,2,20,20,12,4,4,10,4,15,30,22,10,9,16,16,10,10,30,20,9,15,15,25,16,18,5],"correct_side":[1,1,2,1,2,2,1,1,1,2,2,2,2,1,1,2,2,2,1,2,2,1,1,2,1,2,2,1,2,2,1,1,1,2,2,1,1,2,2,2,2,2,2,2,2,1,2,2,2,1,2,1,2,2,2,2,1,1,2,2,1,2,2,2,2,1,2,2,1,2,1,2,2,1,1,2,1,2,2,2,2,2,1,1,2,1,1,2,2,1,2,2,1,1,2,2,2,2,2,2,1,2,1,2,2,2,2,2,2,2,2,2,2,2,1,1,2,1,1,2],"img_shown":["img2/300/Congruent/L/C_Dist_300_LN_11_LD_22_RN_4_RD_20_0.png","img2/300/Incongruent/L/I_Dist_300_LN_8_LD_10_RN_9_RD_18_0.png","img2/300/Incongruent/R/I_Dist_300_LN_13_LD_26_RN_12_RD_15_1.png","img2/100/Incongruent/L/I_Dist_100_LN_3_LD_5_RN_8_RD_16_0.png","img2/200/Congruent/R/C_Dist_200_LN_5_LD_10_RN_14_RD_20_1.png","img2/200/Congruent/R/C_Dist_200_LN_1_LD_2_RN_21_RD_30_1.png","img2/300/Incongruent/L/I_Dist_300_LN_4_LD_5_RN_6_RD_12_0.png","img2/300/Congruent/L/C_Dist_300_LN_12_LD_24_RN_2_RD_10_0.png","img2/200/Incongruent/L/I_Dist_200_LN_4_LD_6_RN_14_RD_30_0.png","img2/200/Congruent/R/C_Dist_200_LN_7_LD_15_RN_18_RD_27_1.png","img2/100/Congruent/R/C_Dist_100_LN_3_LD_20_RN_4_RD_16_1.png","img2/100/Congruent/R/C_Dist_100_LN_1_LD_2_RN_3_RD_5_1.png","img2/300/Incongruent/R/I_Dist_300_LN_4_LD_20_RN_2_RD_4_1.png","img2/200/Incongruent/L/I_Dist_200_LN_4_LD_6_RN_14_RD_30_0.png","img2/200/Incongruent/L/I_Dist_200_LN_4_LD_5_RN_6_RD_10_0.png","img2/300/Congruent/R/C_Dist_300_LN_5_LD_25_RN_6_RD_12_1.png","img2/300/Incongruent/R/I_Dist_300_LN_4_LD_20_RN_2_RD_4_1.png","img2/200/Congruent/R/C_Dist_200_LN_3_LD_6_RN_14_RD_20_1.png","img2/200/Incongruent/L/I_Dist_200_LN_3_LD_4_RN_11_RD_20_0.png","img2/200/Congruent/R/C_Dist_200_LN_3_LD_10_RN_14_RD_28_1.png","img2/200/Incongruent/R/I_Dist_200_LN_7_LD_15_RN_4_RD_6_1.png","img2/300/Congruent/L/C_Dist_300_LN_11_LD_22_RN_2_RD_10_0.png","img2/300/Congruent/L/C_Dist_300_LN_8_LD_16_RN_1_RD_5_0.png","img2/200/Incongruent/R/I_Dist_200_LN_11_LD_20_RN_3_RD_4_1.png","img2/300/Congruent/L/C_Dist_300_LN_20_LD_25_RN_14_RD_28_0.png","img2/200/Incongruent/R/I_Dist_200_LN_9_LD_15_RN_8_RD_10_1.png","img2/200/Congruent/R/C_Dist_200_LN_13_LD_26_RN_14_RD_20_1.png","img2/200/Congruent/L/C_Dist_200_LN_15_LD_25_RN_4_RD_10_0.png","img2/300/Congruent/R/C_Dist_300_LN_1_LD_3_RN_19_RD_30_1.png","img2/100/Congruent/R/C_Dist_100_LN_7_LD_14_RN_9_RD_15_1.png","img2/100/Incongruent/L/I_Dist_100_LN_9_LD_15_RN_13_RD_26_0.png","img2/300/Incongruent/L/I_Dist_300_LN_8_LD_10_RN_14_RD_28_0.png","img2/100/Congruent/L/C_Dist_100_LN_11_LD_22_RN_4_RD_10_0.png","img2/300/Incongruent/R/I_Dist_300_LN_13_LD_26_RN_12_RD_15_1.png","img2/200/Incongruent/R/I_Dist_200_LN_6_LD_20_RN_3_RD_6_1.png","img2/100/Congruent/L/C_Dist_100_LN_3_LD_6_RN_2_RD_5_0.png","img2/200/Congruent/L/C_Dist_200_LN_15_LD_25_RN_4_RD_10_0.png","img2/300/Congruent/R/C_Dist_300_LN_4_LD_20_RN_13_RD_26_1.png","img2/300/Congruent/R/C_Dist_300_LN_1_LD_30_RN_8_RD_24_1.png","img2/100/Incongruent/R/I_Dist_100_LN_6_LD_12_RN_3_RD_5_1.png","img2/300/Incongruent/R/I_Dist_300_LN_4_LD_20_RN_2_RD_4_1.png","img2/200/Congruent/R/C_Dist_200_LN_3_LD_12_RN_9_RD_20_1.png","img2/100/Congruent/R/C_Dist_100_LN_2_LD_5_RN_11_RD_22_1.png","img2/200/Incongruent/R/I_Dist_200_LN_4_LD_30_RN_1_RD_3_1.png","img2/200/Incongruent/R/I_Dist_200_LN_9_LD_15_RN_8_RD_10_1.png","img2/100/Incongruent/L/I_Dist_100_LN_1_LD_2_RN_8_RD_20_0.png","img2/300/Incongruent/R/I_Dist_300_LN_13_LD_26_RN_12_RD_15_1.png","img2/200/Incongruent/R/I_Dist_200_LN_7_LD_15_RN_6_RD_9_1.png","img2/100/Incongruent/R/I_Dist_100_LN_17_LD_30_RN_10_RD_15_1.png","img2/100/Congruent/L/C_Dist_100_LN_9_LD_15_RN_8_RD_16_0.png","img2/200/Congruent/R/C_Dist_200_LN_3_LD_6_RN_14_RD_20_1.png","img2/300/Congruent/L/C_Dist_300_LN_11_LD_22_RN_1_RD_5_0.png","img2/100/Congruent/R/C_Dist_100_LN_2_LD_5_RN_11_RD_22_1.png","img2/100/Congruent/R/C_Dist_100_LN_1_LD_2_RN_18_RD_30_1.png","img2/300/Congruent/R/C_Dist_300_LN_3_LD_6_RN_4_RD_5_1.png","img2/100/Congruent/R/C_Dist_100_LN_12_LD_30_RN_13_RD_26_1.png","img2/100/Incongruent/L/I_Dist_100_LN_4_LD_8_RN_8_RD_20_0.png","img2/200/Incongruent/L/I_Dist_200_LN_4_LD_6_RN_14_RD_30_0.png","img2/200/Incongruent/R/I_Dist_200_LN_14_LD_30_RN_12_RD_18_1.png","img2/100/Incongruent/R/I_Dist_100_LN_12_LD_30_RN_2_RD_4_1.png","img2/300/Incongruent/L/I_Dist_300_LN_3_LD_6_RN_4_RD_20_0.png","img2/200/Congruent/R/C_Dist_200_LN_5_LD_10_RN_14_RD_20_1.png","img2/300/Incongruent/R/I_Dist_300_LN_4_LD_20_RN_2_RD_4_1.png","img2/100/Congruent/R/C_Dist_100_LN_7_LD_14_RN_9_RD_15_1.png","img2/100/Incongruent/R/I_Dist_100_LN_12_LD_24_RN_9_RD_15_1.png","img2/300/Incongruent/L/I_Dist_300_LN_7_LD_10_RN_8_RD_20_0.png","img2/100/Incongruent/R/I_Dist_100_LN_11_LD_22_RN_9_RD_15_1.png","img2/200/Incongruent/R/I_Dist_200_LN_11_LD_20_RN_3_RD_4_1.png","img2/300/Incongruent/L/I_Dist_300_LN_1_LD_2_RN_3_RD_15_0.png","img2/100/Incongruent/R/I_Dist_100_LN_17_LD_30_RN_10_RD_15_1.png","img2/200/Congruent/L/C_Dist_200_LN_4_LD_10_RN_3_RD_15_0.png","img2/100/Incongruent/R/I_Dist_100_LN_10_LD_25_RN_8_RD_16_1.png","img2/200/Congruent/R/C_Dist_200_LN_6_LD_12_RN_7_RD_10_1.png","img2/300/Incongruent/L/I_Dist_300_LN_8_LD_10_RN_14_RD_28_0.png","img2/100/Incongruent/L/I_Dist_100_LN_2_LD_4_RN_8_RD_20_0.png","img2/200/Congruent/R/C_Dist_200_LN_3_LD_10_RN_11_RD_22_1.png","img2/300/Congruent/L/C_Dist_300_LN_12_LD_24_RN_2_RD_10_0.png","img2/300/Incongruent/R/I_Dist_300_LN_13_LD_26_RN_12_RD_15_1.png","img2/100/Congruent/R/C_Dist_100_LN_7_LD_14_RN_9_RD_15_1.png","img2/300/Congruent/R/C_Dist_300_LN_1_LD_5_RN_6_RD_12_1.png","img2/100/Congruent/R/C_Dist_100_LN_7_LD_14_RN_15_RD_25_1.png","img2/300/Incongruent/R/I_Dist_300_LN_4_LD_20_RN_2_RD_4_1.png","img2/300/Congruent/L/C_Dist_300_LN_20_LD_25_RN_5_RD_10_0.png","img2/200/Incongruent/L/I_Dist_200_LN_3_LD_4_RN_11_RD_20_0.png","img2/100/Congruent/R/C_Dist_100_LN_6_LD_12_RN_15_RD_25_1.png","img2/100/Incongruent/L/I_Dist_100_LN_9_LD_10_RN_20_RD_25_0.png","img2/200/Congruent/L/C_Dist_200_LN_21_LD_30_RN_2_RD_4_0.png","img2/200/Incongruent/R/I_Dist_200_LN_4_LD_30_RN_1_RD_3_1.png","img2/100/Congruent/R/C_Dist_100_LN_6_LD_12_RN_15_RD_25_1.png","img2/100/Congruent/L/C_Dist_100_LN_3_LD_6_RN_2_RD_5_0.png","img2/300/Congruent/R/C_Dist_300_LN_1_LD_5_RN_6_RD_12_1.png","img2/300/Incongruent/R/I_Dist_300_LN_4_LD_20_RN_2_RD_4_1.png","img2/300/Congruent/L/C_Dist_300_LN_4_LD_10_RN_1_RD_10_0.png","img2/200/Congruent/L/C_Dist_200_LN_8_LD_15_RN_2_RD_6_0.png","img2/100/Incongruent/R/I_Dist_100_LN_8_LD_20_RN_1_RD_2_1.png","img2/200/Congruent/R/C_Dist_200_LN_13_LD_26_RN_14_RD_20_1.png","img2/300/Congruent/R/C_Dist_300_LN_1_LD_20_RN_7_RD_20_1.png","img2/300/Congruent/R/C_Dist_300_LN_1_LD_5_RN_6_RD_12_1.png","img2/300/Incongruent/R/I_Dist_300_LN_4_LD_20_RN_2_RD_4_1.png","img2/300/Incongruent/R/I_Dist_300_LN_4_LD_20_RN_2_RD_4_1.png","img2/200/Congruent/L/C_Dist_200_LN_11_LD_22_RN_3_RD_10_0.png","img2/300/Incongruent/R/I_Dist_300_LN_4_LD_20_RN_2_RD_4_1.png","img2/200/Congruent/L/C_Dist_200_LN_4_LD_10_RN_3_RD_15_0.png","img2/100/Congruent/R/C_Dist_100_LN_4_LD_10_RN_15_RD_30_1.png","img2/100/Congruent/R/C_Dist_100_LN_2_LD_5_RN_11_RD_22_1.png","img2/100/Incongruent/R/I_Dist_100_LN_9_LD_18_RN_6_RD_10_1.png","img2/200/Incongruent/R/I_Dist_200_LN_7_LD_15_RN_6_RD_9_1.png","img2/100/Incongruent/R/I_Dist_100_LN_10_LD_25_RN_8_RD_16_1.png","img2/100/Incongruent/R/I_Dist_100_LN_10_LD_25_RN_8_RD_16_1.png","img2/100/Incongruent/R/I_Dist_100_LN_9_LD_18_RN_6_RD_10_1.png","img2/100/Incongruent/R/I_Dist_100_LN_8_LD_16_RN_6_RD_10_1.png","img2/300/Congruent/R/C_Dist_300_LN_1_LD_3_RN_19_RD_30_1.png","img2/200/Congruent/R/C_Dist_200_LN_3_LD_12_RN_9_RD_20_1.png","img2/200/Incongruent/R/I_Dist_200_LN_14_LD_30_RN_6_RD_9_1.png","img2/200/Incongruent/L/I_Dist_200_LN_1_LD_3_RN_2_RD_15_0.png","img2/100/Congruent/L/C_Dist_100_LN_11_LD_22_RN_6_RD_15_0.png","img2/100/Congruent/R/C_Dist_100_LN_6_LD_12_RN_15_RD_25_1.png","img2/200/Incongruent/L/I_Dist_200_LN_7_LD_10_RN_8_RD_16_0.png","img2/300/Congruent/L/C_Dist_300_LN_20_LD_25_RN_9_RD_18_0.png","img2/100/Incongruent/R/I_Dist_100_LN_6_LD_12_RN_3_RD_5_1.png"],"dist100_C":[["C_Dist_100_LN_10_LD_25_RN_3_RD_10_0.png","C_Dist_100_LN_11_LD_22_RN_4_RD_10_0.png","C_Dist_100_LN_11_LD_22_RN_6_RD_15_0.png","C_Dist_100_LN_15_LD_25_RN_13_RD_26_0.png","C_Dist_100_LN_3_LD_6_RN_2_RD_5_0.png","C_Dist_100_LN_6_LD_20_RN_5_RD_25_0.png","C_Dist_100_LN_8_LD_16_RN_2_RD_5_0.png","C_Dist_100_LN_9_LD_15_RN_8_RD_16_0.png"],["C_Dist_100_LN_1_LD_2_RN_18_RD_30_1.png","C_Dist_100_LN_1_LD_2_RN_3_RD_5_1.png","C_Dist_100_LN_12_LD_30_RN_13_RD_26_1.png","C_Dist_100_LN_2_LD_5_RN_11_RD_22_1.png","C_Dist_100_LN_2_LD_5_RN_6_RD_12_1.png","C_Dist_100_LN_3_LD_20_RN_4_RD_16_1.png","C_Dist_100_LN_4_LD_10_RN_15_RD_30_1.png","C_Dist_100_LN_4_LD_8_RN_6_RD_10_1.png","C_Dist_100_LN_6_LD_12_RN_15_RD_25_1.png","C_Dist_100_LN_7_LD_14_RN_15_RD_25_1.png","C_Dist_100_LN_7_LD_14_RN_9_RD_15_1.png"]],"dist100_I":[["I_Dist_100_LN_1_LD_2_RN_8_RD_20_0.png","I_Dist_100_LN_2_LD_4_RN_6_RD_15_0.png","I_Dist_100_LN_2_LD_4_RN_8_RD_20_0.png","I_Dist_100_LN_3_LD_5_RN_11_RD_22_0.png","I_Dist_100_LN_3_LD_5_RN_8_RD_16_0.png","I_Dist_100_LN_3_LD_6_RN_4_RD_10_0.png","I_Dist_100_LN_3_LD_9_RN_7_RD_30_0.png","I_Dist_100_LN_4_LD_8_RN_8_RD_20_0.png","I_Dist_100_LN_6_LD_10_RN_11_RD_22_0.png","I_Dist_100_LN_6_LD_10_RN_13_RD_26_0.png","I_Dist_100_LN_6_LD_10_RN_7_RD_14_0.png","I_Dist_100_LN_9_LD_10_RN_20_RD_25_0.png","I_Dist_100_LN_9_LD_15_RN_13_RD_26_0.png","I_Dist_100_LN_9_LD_15_RN_14_RD_28_0.png"],["I_Dist_100_LN_10_LD_25_RN_8_RD_16_1.png","I_Dist_100_LN_10_LD_25_RN_9_RD_18_1.png","I_Dist_100_LN_11_LD_22_RN_9_RD_15_1.png","I_Dist_100_LN_12_LD_24_RN_9_RD_15_1.png","I_Dist_100_LN_12_LD_30_RN_2_RD_4_1.png","I_Dist_100_LN_13_LD_26_RN_12_RD_20_1.png","I_Dist_100_LN_13_LD_26_RN_6_RD_10_1.png","I_Dist_100_LN_17_LD_30_RN_10_RD_15_1.png","I_Dist_100_LN_6_LD_12_RN_3_RD_5_1.png","I_Dist_100_LN_8_LD_16_RN_6_RD_10_1.png","I_Dist_100_LN_8_LD_20_RN_1_RD_2_1.png","I_Dist_100_LN_9_LD_18_RN_6_RD_10_1.png"]],"dist100_S":[["E_Dist_100_LN_2_LD_12_RN_2_RD_30_0.png","E_Dist_100_LN_6_LD_10_RN_6_RD_12_0.png"],["E_Dist_100_LN_6_LD_12_RN_6_RD_10_1.png"]],"dist200_C":[["C_Dist_200_LN_11_LD_22_RN_3_RD_10_0.png","C_Dist_200_LN_12_LD_15_RN_6_RD_10_0.png","C_Dist_200_LN_12_LD_20_RN_6_RD_15_0.png","C_Dist_200_LN_14_LD_28_RN_6_RD_20_0.png","C_Dist_200_LN_15_LD_25_RN_4_RD_10_0.png","C_Dist_200_LN_16_LD_20_RN_12_RD_20_0.png","C_Dist_200_LN_16_LD_30_RN_9_RD_27_0.png","C_Dist_200_LN_20_LD_25_RN_9_RD_15_0.png","C_Dist_200_LN_21_LD_30_RN_2_RD_4_0.png","C_Dist_200_LN_4_LD_10_RN_3_RD_15_0.png","C_Dist_200_LN_4_LD_8_RN_3_RD_10_0.png","C_Dist_200_LN_6_LD_15_RN_3_RD_15_0.png","C_Dist_200_LN_7_LD_21_RN_2_RD_15_0.png","C_Dist_200_LN_8_LD_15_RN_2_RD_6_0.png","C_Dist_200_LN_8_LD_15_RN_3_RD_9_0.png","C_Dist_200_LN_8_LD_15_RN_7_RD_21_0.png","C_Dist_200_LN_9_LD_20_RN_4_RD_16_0.png"],["C_Dist_200_LN_1_LD_2_RN_21_RD_30_1.png","C_Dist_200_LN_13_LD_26_RN_14_RD_20_1.png","C_Dist_200_LN_3_LD_10_RN_11_RD_22_1.png","C_Dist_200_LN_3_LD_10_RN_14_RD_28_1.png","C_Dist_200_LN_3_LD_10_RN_7_RD_14_1.png","C_Dist_200_LN_3_LD_12_RN_9_RD_20_1.png","C_Dist_200_LN_3_LD_6_RN_14_RD_20_1.png","C_Dist_200_LN_5_LD_10_RN_14_RD_20_1.png","C_Dist_200_LN_6_LD_12_RN_7_RD_10_1.png","C_Dist_200_LN_6_LD_20_RN_11_RD_22_1.png","C_Dist_200_LN_7_LD_15_RN_18_RD_27_1.png","C_Dist_200_LN_9_LD_30_RN_13_RD_26_1.png"]],"dist200_I":[["I_Dist_200_LN_1_LD_2_RN_3_RD_10_0.png","I_Dist_200_LN_1_LD_3_RN_2_RD_15_0.png","I_Dist_200_LN_3_LD_4_RN_11_RD_20_0.png","I_Dist_200_LN_4_LD_5_RN_6_RD_10_0.png","I_Dist_200_LN_4_LD_6_RN_14_RD_30_0.png","I_Dist_200_LN_7_LD_10_RN_12_RD_24_0.png","I_Dist_200_LN_7_LD_10_RN_14_RD_28_0.png","I_Dist_200_LN_7_LD_10_RN_8_RD_16_0.png"],["I_Dist_200_LN_11_LD_20_RN_3_RD_4_1.png","I_Dist_200_LN_14_LD_30_RN_12_RD_18_1.png","I_Dist_200_LN_14_LD_30_RN_6_RD_9_1.png","I_Dist_200_LN_3_LD_10_RN_1_RD_2_1.png","I_Dist_200_LN_4_LD_30_RN_1_RD_3_1.png","I_Dist_200_LN_6_LD_20_RN_3_RD_6_1.png","I_Dist_200_LN_7_LD_15_RN_4_RD_6_1.png","I_Dist_200_LN_7_LD_15_RN_6_RD_9_1.png","I_Dist_200_LN_9_LD_15_RN_8_RD_10_1.png"]],"dist200_S":[["E_Dist_200_LN_3_LD_6_RN_3_RD_10_0.png"],["E_Dist_200_LN_3_LD_10_RN_3_RD_6_1.png"]],"dist300_C":[["C_Dist_300_LN_11_LD_22_RN_1_RD_5_0.png","C_Dist_300_LN_11_LD_22_RN_2_RD_10_0.png","C_Dist_300_LN_11_LD_22_RN_4_RD_20_0.png","C_Dist_300_LN_12_LD_24_RN_2_RD_10_0.png","C_Dist_300_LN_18_LD_20_RN_9_RD_15_0.png","C_Dist_300_LN_20_LD_25_RN_13_RD_26_0.png","C_Dist_300_LN_20_LD_25_RN_14_RD_28_0.png","C_Dist_300_LN_20_LD_25_RN_5_RD_10_0.png","C_Dist_300_LN_20_LD_25_RN_8_RD_16_0.png","C_Dist_300_LN_20_LD_25_RN_9_RD_18_0.png","C_Dist_300_LN_24_LD_30_RN_2_RD_4_0.png","C_Dist_300_LN_24_LD_30_RN_8_RD_16_0.png","C_Dist_300_LN_3_LD_6_RN_2_RD_10_0.png","C_Dist_300_LN_4_LD_10_RN_1_RD_10_0.png","C_Dist_300_LN_4_LD_5_RN_2_RD_4_0.png","C_Dist_300_LN_8_LD_16_RN_1_RD_5_0.png","C_Dist_300_LN_9_LD_10_RN_3_RD_5_0.png"],["C_Dist_300_LN_1_LD_20_RN_7_RD_20_1.png","C_Dist_300_LN_1_LD_3_RN_19_RD_30_1.png","C_Dist_300_LN_1_LD_30_RN_8_RD_24_1.png","C_Dist_300_LN_1_LD_5_RN_11_RD_22_1.png","C_Dist_300_LN_1_LD_5_RN_3_RD_6_1.png","C_Dist_300_LN_1_LD_5_RN_6_RD_12_1.png","C_Dist_300_LN_2_LD_10_RN_12_RD_24_1.png","C_Dist_300_LN_2_LD_20_RN_10_RD_25_1.png","C_Dist_300_LN_3_LD_12_RN_11_RD_20_1.png","C_Dist_300_LN_3_LD_6_RN_4_RD_5_1.png","C_Dist_300_LN_4_LD_20_RN_13_RD_26_1.png","C_Dist_300_LN_5_LD_25_RN_6_RD_12_1.png","C_Dist_300_LN_5_LD_25_RN_7_RD_14_1.png","C_Dist_300_LN_7_LD_14_RN_20_RD_25_1.png","C_Dist_300_LN_8_LD_15_RN_10_RD_12_1.png"]],"dist300_I":[["I_Dist_300_LN_1_LD_2_RN_2_RD_10_0.png","I_Dist_300_LN_1_LD_2_RN_3_RD_15_0.png","I_Dist_300_LN_2_LD_4_RN_6_RD_30_0.png","I_Dist_300_LN_3_LD_6_RN_4_RD_20_0.png","I_Dist_300_LN_4_LD_5_RN_6_RD_12_0.png","I_Dist_300_LN_4_LD_5_RN_8_RD_16_0.png","I_Dist_300_LN_7_LD_10_RN_8_RD_20_0.png","I_Dist_300_LN_8_LD_10_RN_14_RD_28_0.png","I_Dist_300_LN_8_LD_10_RN_9_RD_18_0.png"],["I_Dist_300_LN_13_LD_26_RN_12_RD_15_1.png","I_Dist_300_LN_4_LD_20_RN_2_RD_4_1.png"]],"dist300_S":[["E_Dist_300_LN_9_LD_12_RN_9_RD_20_0.png"],["E_Dist_300_LN_18_LD_30_RN_18_RD_20_1.png","E_Dist_300_LN_3_LD_10_RN_3_RD_5_1.png","E_Dist_300_LN_9_LD_20_RN_9_RD_12_1.png"]],"dist500_C":[["C_Dist_500_LN_10_LD_13_RN_7_RD_26_0.png","C_Dist_500_LN_10_LD_15_RN_4_RD_24_0.png","C_Dist_500_LN_12_LD_16_RN_3_RD_12_0.png","C_Dist_500_LN_12_LD_18_RN_4_RD_24_0.png","C_Dist_500_LN_15_LD_18_RN_5_RD_15_0.png","C_Dist_500_LN_15_LD_20_RN_1_RD_4_0.png","C_Dist_500_LN_18_LD_27_RN_1_RD_6_0.png","C_Dist_500_LN_20_LD_24_RN_1_RD_3_0.png","C_Dist_500_LN_20_LD_24_RN_3_RD_9_0.png","C_Dist_500_LN_20_LD_24_RN_7_RD_21_0.png","C_Dist_500_LN_20_LD_28_RN_3_RD_14_0.png","C_Dist_500_LN_21_LD_28_RN_6_RD_24_0.png","C_Dist_500_LN_22_LD_28_RN_2_RD_7_0.png","C_Dist_500_LN_25_LD_30_RN_9_RD_27_0.png","C_Dist_500_LN_4_LD_6_RN_1_RD_6_0.png","C_Dist_500_LN_5_LD_6_RN_2_RD_6_0.png","C_Dist_500_LN_6_LD_9_RN_1_RD_6_0.png","C_Dist_500_LN_7_LD_10_RN_1_RD_5_0.png","C_Dist_500_LN_8_LD_12_RN_1_RD_6_0.png","C_Dist_500_LN_8_LD_12_RN_4_RD_24_0.png"],["C_Dist_500_LN_1_LD_4_RN_12_RD_16_1.png","C_Dist_500_LN_1_LD_4_RN_9_RD_12_1.png","C_Dist_500_LN_1_LD_9_RN_11_RD_18_1.png","C_Dist_500_LN_10_LD_24_RN_22_RD_24_1.png","C_Dist_500_LN_2_LD_12_RN_10_RD_15_1.png","C_Dist_500_LN_2_LD_12_RN_12_RD_18_1.png","C_Dist_500_LN_2_LD_12_RN_4_RD_6_1.png","C_Dist_500_LN_2_LD_24_RN_7_RD_12_1.png","C_Dist_500_LN_2_LD_5_RN_18_RD_20_1.png","C_Dist_500_LN_2_LD_5_RN_9_RD_10_1.png","C_Dist_500_LN_2_LD_8_RN_12_RD_16_1.png","C_Dist_500_LN_2_LD_8_RN_21_RD_28_1.png","C_Dist_500_LN_3_LD_10_RN_4_RD_5_1.png","C_Dist_500_LN_3_LD_12_RN_15_RD_20_1.png","C_Dist_500_LN_3_LD_30_RN_6_RD_10_1.png","C_Dist_500_LN_3_LD_8_RN_14_RD_16_1.png","C_Dist_500_LN_4_LD_16_RN_15_RD_20_1.png","C_Dist_500_LN_4_LD_24_RN_12_RD_18_1.png","C_Dist_500_LN_5_LD_14_RN_6_RD_7_1.png","C_Dist_500_LN_7_LD_21_RN_20_RD_24_1.png","C_Dist_500_LN_7_LD_28_RN_12_RD_16_1.png","C_Dist_500_LN_7_LD_28_RN_9_RD_12_1.png","C_Dist_500_LN_9_LD_27_RN_20_RD_24_1.png"]],"dist500_I":[["I_Dist_500_LN_2_LD_3_RN_4_RD_24_0.png","I_Dist_500_LN_5_LD_6_RN_6_RD_18_0.png","I_Dist_500_LN_7_LD_8_RN_9_RD_24_0.png"],["I_Dist_500_LN_7_LD_21_RN_5_RD_6_1.png"]],"dist500_S":[["E_Dist_500_LN_6_LD_8_RN_6_RD_24_0.png"],["E_Dist_500_LN_2_LD_12_RN_2_RD_3_1.png","E_Dist_500_LN_6_LD_24_RN_6_RD_8_1.png"]]}},{"start_time":1551881837341,"click_time":1551881838665,"finger_time":1551881838085,"fix_duration":374.8773069958595,"trial":1,"RT":744,"MT":580,"sideResp":2,"stimulus":[],"xmouse":[796,796,796,796,796,796,796,796,796,796,797,797,797,797,797,797,797,797,797,797,797,797,797,797,797,797,797,797,797,797,797,798,796,796,797,799,809,842,875,894,899,907,914,925,941,961,983,983,983,983,983,983,1018,1020,1020,1021,1023,1029,1033,1034,1035,1038,1043,1048,1053,1057,1063],"ymouse":[509,509,509,509,509,509,509,509,509,509,510,510,510,510,510,510,510,510,510,510,510,510,510,510,510,510,510,510,510,510,518,534,541,544,544,544,534,479,408,320,238,115,83,60,41,23,3,3,3,3,3,3,3,15,21,25,29,35,38,38,38,38,38,38,38,38,39],"timestamp_mouse":[9,26,46,65,84,105,125,144,164,185,204,226,246,264,284,305,325,345,364,386,406,424,444,465,484,505,525,545,565,585,604,625,645,665,684,705,725,744,764,784,805,824,844,864,884,905,925,944,965,986,1004,1024,1044,1064,1085,1105,1124,1144,1165,1185,1205,1224,1245,1264,1285,1306,1324],"xSR":741.5,"ySR":469.95,"xT1":424.9,"yT1":0,"xT2":1058.1,"yT2":0,"toosoon":0,"cond_shown":"Incongruent","ratio_trial":300,"L_num":8,"L_den":10,"R_num":9,"R_den":18,"correct_side":1,"subjID":"samuelsolerlozano36","gender":"0","school":"6","age":"11"},{"start_time":1551881843397,"click_time":1551881845066,"finger_time":1551881844246,"fix_duration":250,"trial":2,"RT":849,"MT":820,"sideResp":1,"stimulus":[],"xmouse":[768,768,768,766,766,764,764,764,764,764,764,764,764,764,764,764,764,764,766,766,767,767,767,767,767,767,767,767,767,767,767,767,767,767,767,767,767,767,767,766,763,761,753,733,726,718,711,703,683,676,672,670,666,647,626,618,610,601,573,557,540,527,520,511,508,505,501,497,491,489,485,481,477,470,469,469,469,469,469,469,469,469,469,469],"ymouse":[533,532,531,528,524,521,519,517,517,517,517,517,517,517,516,516,516,516,515,512,510,510,510,510,510,510,510,510,510,510,510,510,510,510,510,510,510,509,503,496,486,473,454,403,376,338,312,285,245,235,227,225,221,203,187,180,175,169,152,144,138,132,128,125,123,121,119,117,113,112,110,107,105,101,101,101,101,101,101,101,101,100,100,97],"timestamp_mouse":[11,28,51,69,88,109,129,149,169,189,209,228,248,270,289,308,329,348,368,389,409,429,450,468,489,509,529,550,568,588,608,629,648,668,690,708,729,749,768,789,808,828,849,868,889,908,928,949,968,988,1009,1029,1050,1068,1089,1109,1128,1149,1168,1190,1209,1230,1250,1269,1289,1308,1329,1350,1369,1389,1410,1430,1449,1470,1489,1509,1530,1550,1569,1589,1609,1628,1650,1669],"xSR":741.5,"ySR":469.95,"xT1":424.9,"yT1":0,"xT2":1058.1,"yT2":0,"toosoon":0,"cond_shown":"Incongruent","ratio_trial":300,"L_num":13,"L_den":26,"R_num":12,"R_den":15,"correct_side":2,"subjID":"samuelsolerlozano36","gender":"0","school":"6","age":"11"},{"start_time":1551881849078,"click_time":1551881851186,"finger_time":1551881850447,"fix_duration":1289.2180618389193,"trial":3,"RT":1369,"MT":739,"sideResp":2,"stimulus":[],"xmouse":[808,808,808,808,808,808,808,808,808,808,808,808,808,808,808,808,808,808,808,808,808,808,808,808,808,808,808,808,808,808,808,808,808,808,808,808,808,808,808,808,808,808,808,808,808,808,808,808,808,808,808,808,808,808,808,808,808,808,808,808,808,808,808,808,808,808,805,800,777,719,702,690,685,682,676,674,673,673,673,673,673,674,675,684,724,763,812,871,936,1015,1029,1030,1032,1036,1047,1052,1055,1057,1059,1063,1066,1068,1072,1073,1075,1076],"ymouse":[526,526,526,526,526,526,526,526,526,526,526,526,526,526,526,526,526,526,526,526,526,526,526,526,526,526,526,526,526,526,526,526,526,526,526,526,526,526,526,526,526,526,526,526,526,526,526,526,526,526,526,526,526,526,526,526,526,526,526,526,526,526,526,526,526,526,512,502,461,376,353,333,325,317,306,303,300,300,300,299,298,296,295,292,283,275,269,256,237,213,205,203,199,192,178,171,166,161,157,145,138,132,124,117,102,96],"timestamp_mouse":[8,36,48,69,89,108,128,147,168,188,208,228,249,268,288,308,329,348,368,388,409,429,448,468,489,508,528,548,569,589,608,628,649,669,688,709,729,748,768,788,808,828,848,868,888,909,928,949,968,988,1009,1028,1048,1069,1088,1109,1128,1149,1168,1188,1209,1228,1249,1268,1287,1308,1328,1348,1369,1388,1408,1428,1448,1468,1488,1509,1528,1548,1568,1588,1608,1628,1648,1667,1688,1708,1728,1748,1768,1787,1808,1828,1849,1868,1888,1909,1928,1948,1968,1988,2009,2028,2048,2068,2089,2108],"xSR":741.5,"ySR":469.95,"xT1":424.9,"yT1":0,"xT2":1058.1,"yT2":0,"toosoon":0,"cond_shown":"Incongruent","ratio_trial":100,"L_num":3,"L_den":5,"R_num":8,"R_den":16,"correct_side":1,"subjID":"samuelsolerlozano36","gender":"0","school":"6","age":"11"},{"start_time":1551881852563,"click_time":1551881853447,"finger_time":1551881853087,"fix_duration":295.22051665326677,"trial":4,"RT":524,"MT":360,"sideResp":1,"stimulus":[],"xmouse":[786,786,786,786,786,788,789,790,790,790,790,791,791,791,791,791,786,785,784,783,782,782,782,782,782,781,780,780,777,766,719,694,679,669,662,645,637,626,625,623,611,602,586,556,490],"ymouse":[519,519,519,519,519,519,517,516,516,516,516,512,511,509,509,509,508,508,508,508,507,506,506,506,505,488,457,437,407,361,234,180,139,114,91,60,51,44,43,43,43,47,51,55,59],"timestamp_mouse":[10,23,49,64,83,102,123,143,163,183,204,223,243,263,283,304,324,343,363,383,403,423,443,463,483,502,524,543,563,583,604,623,643,663,683,702,723,743,763,783,803,823,842,863,884],"xSR":741.5,"ySR":469.95,"xT1":424.9,"yT1":0,"xT2":1058.1,"yT2":0,"toosoon":0,"cond_shown":"Congruent","ratio_trial":200,"L_num":5,"L_den":10,"R_num":14,"R_den":20,"correct_side":2,"subjID":"samuelsolerlozano36","gender":"0","school":"6","age":"11"},{"start_time":1551881855697,"click_time":1551881857066,"finger_time":1551881856606,"fix_duration":929.6310139823692,"trial":5,"RT":909,"MT":460,"sideResp":1,"stimulus":[],"xmouse":[790,790,790,790,790,790,790,790,790,790,790,790,790,790,790,790,790,790,790,790,790,790,790,790,790,790,791,791,791,791,791,791,792,792,792,792,792,792,792,792,792,792,792,788,782,772,761,745,699,671,660,645,639,617,603,594,590,590,589,587,582,573,567,561,555,547,540,536,524],"ymouse":[503,503,503,503,503,503,503,503,503,503,503,503,503,503,503,503,503,503,503,502,502,501,500,499,499,499,497,497,497,497,497,497,496,496,496,496,496,496,496,496,496,495,494,489,481,465,444,416,334,270,243,216,198,162,145,131,124,123,120,117,114,109,107,104,102,98,97,96,95],"timestamp_mouse":[8,44,49,69,89,110,129,149,169,189,209,229,249,269,289,309,329,348,369,389,409,429,449,469,489,510,529,549,569,589,609,630,650,669,690,709,729,749,769,789,809,829,849,869,889,909,929,950,969,989,1009,1029,1049,1069,1089,1109,1129,1150,1169,1189,1210,1229,1250,1269,1289,1309,1329,1349,1369],"xSR":741.5,"ySR":469.95,"xT1":424.9,"yT1":0,"xT2":1058.1,"yT2":0,"toosoon":0,"cond_shown":"Congruent","ratio_trial":200,"L_num":1,"L_den":2,"R_num":21,"R_den":30,"correct_side":2,"subjID":"samuelsolerlozano36","gender":"0","school":"6","age":"11"},{"start_time":1551881859517,"click_time":1551881861248,"finger_time":1551881860906,"fix_duration":250,"trial":6,"RT":1389,"MT":342,"sideResp":2,"stimulus":[],"xmouse":[789,789,789,789,789,789,789,789,789,789,789,789,789,789,789,789,789,789,789,789,789,789,789,789,789,789,789,789,789,789,789,789,789,789,789,789,789,789,789,789,789,789,789,789,789,789,789,789,789,789,789,789,789,789,789,789,789,789,789,790,790,790,792,793,795,797,798,800,800,800,800,800,802,802,803,805,806,814,827,839,856,876,949,1003,1050,1080,1101],"ymouse":[489,489,489,489,489,489,489,489,489,489,489,489,489,489,489,489,489,489,489,489,489,489,489,489,489,489,489,489,489,489,489,489,489,489,489,489,489,489,489,489,489,489,489,489,489,489,489,489,489,489,489,489,489,489,489,489,489,489,489,489,489,489,489,488,486,485,482,474,471,462,456,453,448,446,445,443,441,429,407,386,357,325,241,194,149,117,96],"timestamp_mouse":[10,38,49,69,90,109,128,149,169,189,210,230,248,270,290,310,330,349,370,388,409,430,449,469,489,510,529,549,569,589,610,629,649,669,689,710,729,749,770,789,809,829,849,870,889,910,930,950,969,989,1009,1029,1049,1069,1090,1110,1129,1150,1170,1189,1208,1229,1249,1269,1290,1309,1329,1349,1369,1389,1410,1429,1449,1469,1489,1509,1529,1548,1569,1589,1609,1629,1650,1669,1689,1709,1730],"xSR":741.5,"ySR":469.95,"xT1":424.9,"yT1":0,"xT2":1058.1,"yT2":0,"toosoon":0,"cond_shown":"Incongruent","ratio_trial":300,"L_num":4,"L_den":5,"R_num":6,"R_den":12,"correct_side":1,"subjID":"samuelsolerlozano36","gender":"0","school":"6","age":"11"},{"start_time":1551881865738,"click_time":1551881867766,"finger_time":1551881867127,"fix_duration":389.0492763588235,"trial":7,"RT":1389,"MT":639,"sideResp":2,"stimulus":[],"xmouse":[796,796,796,796,796,796,796,796,796,796,796,796,796,796,796,796,796,796,796,796,796,796,796,796,796,796,796,796,796,796,796,796,796,796,796,796,796,796,796,796,796,796,796,796,796,796,796,796,796,796,796,796,796,796,796,796,796,796,796,796,796,796,796,796,796,796,796,796,796,796,796,796,796,797,797,798,801,802,802,802,802,802,802,802,802,802,802,802,805,808,809,814,820,828,841,851,871,880,913,956,1017,1121],"ymouse":[502,502,502,502,502,502,502,502,502,502,502,502,502,502,502,502,502,502,502,502,502,502,502,502,502,502,502,502,502,502,502,502,502,502,502,501,501,500,499,499,499,499,498,498,498,498,498,498,498,498,498,498,498,498,498,498,498,498,498,498,498,498,498,498,498,498,494,483,474,463,453,439,434,430,428,425,419,418,417,417,417,417,417,417,417,417,417,416,413,410,405,391,378,365,347,333,310,299,272,238,187,63],"timestamp_mouse":[9,43,48,69,88,108,129,148,168,188,207,229,248,269,288,308,329,348,369,388,408,429,449,468,488,508,528,548,568,588,608,628,649,667,688,708,728,748,768,788,808,828,848,869,889,909,928,949,969,988,1008,1029,1048,1069,1088,1108,1128,1149,1167,1188,1208,1228,1248,1269,1288,1308,1328,1349,1368,1389,1408,1428,1448,1468,1488,1508,1528,1549,1568,1589,1609,1628,1648,1668,1688,1707,1729,1748,1768,1788,1808,1828,1847,1868,1888,1908,1927,1949,1968,1987,2008,2028],"xSR":741.5,"ySR":469.95,"xT1":424.9,"yT1":0,"xT2":1058.1,"yT2":0,"toosoon":0,"cond_shown":"Congruent","ratio_trial":300,"L_num":12,"L_den":24,"R_num":2,"R_den":10,"correct_side":1,"subjID":"samuelsolerlozano36","gender":"0","school":"6","age":"11"},{"start_time":1551881869117,"click_time":1551881869687,"finger_time":1551881869447,"fix_duration":250,"trial":8,"RT":330,"MT":240,"sideResp":2,"stimulus":[],"xmouse":[795,795,795,795,795,795,795,795,795,795,795,795,795,798,807,821,843,894,925,948,965,977,1000,1009,1018,1026,1034,1065,1070],"ymouse":[538,538,538,538,538,538,538,538,538,538,538,538,535,529,516,496,470,391,317,273,235,206,169,157,146,138,128,102,99],"timestamp_mouse":[9,30,64,70,89,109,129,150,168,190,209,230,250,269,289,309,330,349,369,389,409,429,449,470,489,509,530,549,569],"xSR":741.5,"ySR":469.95,"xT1":424.9,"yT1":0,"xT2":1058.1,"yT2":0,"toosoon":0,"cond_shown":"Incongruent","ratio_trial":200,"L_num":4,"L_den":6,"R_num":14,"R_den":30,"correct_side":1,"subjID":"samuelsolerlozano36","gender":"0","school":"6","age":"11"},{"start_time":1551881871204,"click_time":1551881872526,"finger_time":1551881872126,"fix_duration":276.09774403053865,"trial":9,"RT":922,"MT":400,"sideResp":1,"stimulus":[],"xmouse":[810,810,810,810,810,810,810,810,810,810,810,810,810,810,810,810,810,810,810,810,810,810,810,810,810,810,810,810,810,810,810,810,810,810,810,810,810,810,810,810,810,810,810,810,810,804,791,782,765,756,740,711,675,631,605,594,588,587,585,582,578,576,575,570,560,533,516],"ymouse":[502,502,502,502,502,502,502,502,502,502,502,502,502,502,502,502,502,502,502,502,502,502,502,502,502,502,502,502,502,502,502,502,502,502,502,502,502,502,502,502,502,502,502,499,495,474,449,423,379,355,327,286,245,200,176,166,157,153,149,144,139,135,133,128,121,106,97],"timestamp_mouse":[8,22,42,62,82,103,122,143,163,182,203,223,242,262,282,301,322,342,362,382,403,422,443,462,483,502,522,543,562,582,603,622,643,663,682,702,723,742,763,782,802,822,842,862,882,902,922,942,962,982,1002,1022,1042,1062,1082,1102,1122,1142,1163,1183,1203,1222,1242,1262,1282,1302,1322],"xSR":741.5,"ySR":469.95,"xT1":424.9,"yT1":0,"xT2":1058.1,"yT2":0,"toosoon":0,"cond_shown":"Congruent","ratio_trial":200,"L_num":7,"L_den":15,"R_num":18,"R_den":27,"correct_side":2,"subjID":"samuelsolerlozano36","gender":"0","school":"6","age":"11"},{"start_time":1551881876568,"click_time":1551881879706,"finger_time":1551881878346,"fix_duration":1419.8907939364533,"trial":10,"RT":1778,"MT":1360,"sideResp":2,"stimulus":[],"xmouse":[792,792,792,792,792,792,792,792,792,792,792,792,792,792,792,792,792,792,793,793,793,793,793,793,793,793,793,793,793,793,793,793,793,793,793,793,793,793,793,793,793,793,793,793,793,793,793,793,793,793,793,793,793,793,793,793,793,793,793,793,793,793,793,793,793,793,793,793,793,793,793,793,793,793,793,793,793,793,793,793,793,793,793,793,793,800,816,838,857,884,892,898,902,906,913,916,922,926,931,948,954,959,960,960,960,960,960,960,960,960,960,960,960,960,960,960,960,960,960,960,960,960,960,960,960,960,960,960,960,960,961,961,960,960,959,959,959,959,959,963,966,970,973,977,992,1003,1012,1022,1033,1051,1059,1067,1073,1080,1099,1112,1118],"ymouse":[515,515,515,515,515,515,515,515,515,515,515,515,515,515,515,515,515,515,515,515,515,515,515,515,515,515,515,515,515,515,515,515,515,515,515,515,515,515,515,515,515,515,515,515,515,515,515,515,515,515,515,515,515,515,515,515,515,515,515,515,515,515,515,515,515,515,515,515,515,515,515,515,515,515,515,515,515,515,515,515,515,515,515,515,515,511,500,483,464,427,416,408,403,399,392,390,386,383,379,367,363,360,359,359,359,359,359,359,359,359,359,359,359,359,359,359,359,359,359,359,359,359,359,359,359,359,359,359,359,359,359,358,357,357,356,355,353,350,344,327,317,305,295,285,257,243,229,215,201,179,171,161,154,146,121,101,86],"timestamp_mouse":[18,39,63,79,99,118,138,157,178,198,219,238,258,278,299,317,338,358,378,398,419,437,458,479,498,518,539,559,578,599,619,639,659,679,698,719,739,759,778,798,818,839,858,878,898,919,939,959,978,998,1018,1039,1059,1079,1098,1118,1138,1157,1178,1198,1219,1238,1259,1278,1299,1319,1339,1359,1379,1398,1418,1438,1459,1478,1498,1518,1538,1558,1578,1598,1617,1639,1657,1678,1698,1719,1738,1758,1778,1799,1819,1838,1858,1878,1897,1919,1937,1959,1978,1999,2017,2038,2058,2078,2098,2117,2138,2158,2178,2198,2219,2238,2258,2278,2299,2319,2339,2357,2378,2398,2418,2438,2458,2478,2499,2517,2538,2558,2579,2598,2619,2638,2659,2678,2698,2718,2739,2758,2778,2798,2819,2839,2858,2879,2897,2918,2938,2958,2978,2998,3018,3038,3059,3079,3099,3119,3138],"xSR":741.5,"ySR":469.95,"xT1":424.9,"yT1":0,"xT2":1058.1,"yT2":0,"toosoon":0,"cond_shown":"Congruent","ratio_trial":100,"L_num":3,"L_den":20,"R_num":4,"R_den":16,"correct_side":2,"subjID":"samuelsolerlozano36","gender":"0","school":"6","age":"11"},{"start_time":1551881881805,"click_time":1551881885606,"finger_time":1551881885026,"fix_duration":897.0718565231838,"trial":11,"RT":3221,"MT":580,"sideResp":2,"stimulus":[],"xmouse":[789,789,791,792,792,792,792,792,792,792,792,792,792,792,792,792,792,792,792,792,792,792,792,792,792,792,792,792,792,792,792,792,792,792,792,792,792,792,792,792,792,792,792,792,792,792,792,792,792,792,792,792,792,792,792,792,792,792,792,792,792,792,792,792,792,792,792,792,792,792,792,793,793,793,793,793,793,793,793,793,793,793,793,793,793,793,793,793,793,793,794,795,796,796,796,796,797,797,797,797,797,797,797,797,797,797,797,797,800,801,801,801,801,801,801,801,801,801,801,801,801,801,801,801,801,801,801,801,801,801,801,801,801,801,801,801,801,801,802,803,803,803,803,803,803,803,803,803,803,803,803,803,803,803,803,803,803,806,810,814,822,837,852,891,909,930,942,952,972,984,1000,1014,1029,1044,1051,1056,1058,1059,1060,1061,1061,1061,1061,1062,1065,1068,1071,1071,1074,1076,1077],"ymouse":[513,513,513,512,512,512,512,512,512,512,512,512,512,512,512,512,512,512,512,512,512,512,512,512,512,512,512,512,512,512,512,512,512,512,512,512,512,512,512,512,512,512,512,512,512,512,512,512,512,512,512,512,512,512,512,512,512,512,512,512,512,512,512,512,512,512,512,511,510,510,509,509,509,509,509,509,509,509,509,509,509,509,509,509,509,509,509,509,509,509,504,503,501,499,498,497,497,497,497,497,497,497,497,497,497,497,497,496,491,491,491,491,491,491,491,491,491,491,491,491,491,491,491,491,491,491,491,491,491,491,491,491,491,491,491,491,491,491,489,487,487,487,487,487,487,487,487,487,487,487,487,487,487,487,487,487,487,483,479,474,471,462,454,438,426,407,397,386,354,332,306,277,245,176,143,130,125,122,121,120,120,120,120,118,115,113,112,111,105,100,97],"timestamp_mouse":[1,21,41,61,82,100,122,141,161,181,201,221,242,262,281,301,322,342,361,381,401,422,442,461,481,501,522,542,561,582,602,621,641,661,682,702,721,741,761,781,801,820,841,861,881,901,922,941,960,981,1002,1021,1041,1061,1081,1102,1121,1141,1161,1181,1202,1221,1241,1261,1282,1301,1322,1341,1361,1381,1402,1421,1442,1460,1481,1502,1521,1542,1561,1581,1602,1621,1642,1661,1681,1701,1722,1741,1762,1781,1802,1821,1841,1861,1881,1901,1921,1942,1961,1981,2001,2021,2042,2061,2081,2101,2122,2141,2160,2181,2201,2222,2242,2261,2280,2301,2321,2341,2360,2382,2402,2422,2441,2461,2481,2502,2522,2542,2561,2581,2601,2620,2642,2662,2680,2701,2722,2741,2762,2782,2801,2822,2841,2861,2881,2902,2921,2942,2961,2982,3001,3022,3042,3062,3082,3100,3121,3141,3161,3181,3201,3221,3241,3261,3281,3300,3321,3341,3361,3382,3402,3421,3442,3461,3482,3501,3521,3541,3561,3582,3602,3622,3641,3661,3682,3701,3721,3741,3761,3781,3801],"xSR":741.5,"ySR":469.95,"xT1":424.9,"yT1":0,"xT2":1058.1,"yT2":0,"toosoon":0,"cond_shown":"Congruent","ratio_trial":100,"L_num":1,"L_den":2,"R_num":3,"R_den":5,"correct_side":2,"subjID":"samuelsolerlozano36","gender":"0","school":"6","age":"11"},{"start_time":1551881887539,"click_time":1551881889247,"finger_time":1551881888846,"fix_duration":250,"trial":12,"RT":1307,"MT":401,"sideResp":2,"stimulus":[],"xmouse":[797,797,797,797,797,797,798,798,798,798,798,798,798,798,798,798,798,798,798,798,797,793,793,793,793,793,793,793,793,793,793,793,793,793,793,793,793,793,793,793,793,793,793,793,793,793,793,793,793,793,793,793,793,793,793,793,793,793,793,793,794,798,802,807,810,812,821,830,838,845,852,870,885,899,915,930,976,1012,1031,1044,1055,1077,1085,1095,1104,1112],"ymouse":[535,535,535,534,534,534,532,531,531,531,531,530,528,528,526,525,524,524,524,524,524,522,522,522,522,522,522,521,519,518,517,515,514,514,514,514,514,514,514,514,514,514,514,514,514,514,514,514,514,514,514,514,514,514,514,514,514,514,514,511,507,497,490,480,471,465,444,424,411,396,383,352,330,311,289,268,217,186,172,163,155,139,130,120,109,98],"timestamp_mouse":[7,42,48,68,88,106,127,147,168,187,207,227,247,268,287,308,327,347,368,387,407,427,447,468,487,508,528,547,567,587,607,627,647,667,687,707,727,747,767,787,808,827,846,867,888,907,927,947,967,987,1007,1027,1047,1066,1087,1107,1127,1148,1168,1187,1207,1227,1247,1268,1287,1307,1327,1347,1367,1388,1407,1426,1446,1467,1486,1508,1527,1547,1567,1588,1607,1627,1646,1667,1687,1708],"xSR":741.5,"ySR":469.95,"xT1":424.9,"yT1":0,"xT2":1058.1,"yT2":0,"toosoon":0,"cond_shown":"Incongruent","ratio_trial":300,"L_num":4,"L_den":20,"R_num":2,"R_den":4,"correct_side":2,"subjID":"samuelsolerlozano36","gender":"0","school":"6","age":"11"},{"start_time":1551881891453,"click_time":1551881893746,"finger_time":1551881892807,"fix_duration":886.6177894574671,"trial":13,"RT":1354,"MT":939,"sideResp":1,"stimulus":[],"xmouse":[808,808,808,808,809,809,809,809,809,809,809,809,809,810,810,813,813,813,813,813,813,813,813,813,813,813,813,813,813,813,813,813,813,813,813,813,813,813,813,814,814,815,815,815,815,815,816,816,817,817,817,817,818,818,818,818,819,819,819,819,819,819,819,819,819,819,818,814,809,803,785,768,756,749,736,691,653,613,570,548,534,534,534,534,534,534,537,541,549,554,560,561,561,561,561,561,562,561,554,549,545,544,544,544,544,544,544,544,544,544,544,544,541,532,523],"ymouse":[499,498,498,498,497,497,497,497,497,497,497,497,497,497,496,493,493,493,493,493,493,493,493,493,493,493,493,493,493,493,493,493,493,493,493,493,493,493,493,492,492,491,491,491,491,491,490,490,488,487,487,487,486,485,484,484,483,483,483,482,482,482,481,481,481,478,474,463,450,428,366,306,279,259,241,196,169,145,121,106,97,97,97,97,97,97,97,97,100,102,106,106,106,106,106,106,106,106,105,102,101,100,100,100,100,100,100,100,100,100,100,100,96,85,78],"timestamp_mouse":[14,33,53,73,93,114,133,153,173,193,213,234,253,273,293,313,334,354,374,393,413,433,452,473,493,513,534,554,573,594,613,633,654,674,692,713,734,753,773,793,813,834,854,872,892,913,933,953,973,993,1013,1033,1053,1073,1094,1113,1134,1154,1173,1193,1214,1233,1253,1273,1293,1312,1333,1354,1373,1393,1414,1433,1453,1473,1493,1514,1532,1553,1573,1592,1613,1633,1653,1673,1694,1713,1734,1753,1773,1794,1813,1833,1854,1872,1894,1914,1933,1953,1974,1993,2012,2033,2053,2073,2093,2114,2134,2153,2173,2194,2212,2233,2253,2273,2293],"xSR":741.5,"ySR":469.95,"xT1":424.9,"yT1":0,"xT2":1058.1,"yT2":0,"toosoon":0,"cond_shown":"Incongruent","ratio_trial":200,"L_num":4,"L_den":6,"R_num":14,"R_den":30,"correct_side":1,"subjID":"samuelsolerlozano36","gender":"0","school":"6","age":"11"},{"start_time":1551881895118,"click_time":1551881897206,"finger_time":1551881896567,"fix_duration":250,"trial":14,"RT":1449,"MT":639,"sideResp":1,"stimulus":[],"xmouse":[781,780,780,780,780,779,779,778,778,778,778,778,778,778,778,777,777,777,777,777,777,776,775,775,773,773,772,771,771,770,770,770,770,770,770,770,770,770,770,770,770,770,770,770,770,770,770,770,770,770,770,770,770,770,770,770,770,770,770,770,770,770,770,770,770,770,770,769,768,766,763,760,754,753,753,753,753,747,742,739,736,731,721,717,713,706,693,664,652,645,640,636,627,624,622,621,619,618,617,616,614,607,576,553,507],"ymouse":[501,501,501,501,501,501,501,501,501,501,501,501,501,501,501,501,501,501,501,501,501,500,499,498,497,496,495,493,492,491,491,491,491,491,491,491,491,491,491,491,491,491,491,491,491,491,491,491,491,491,491,491,491,491,491,491,491,491,491,491,491,491,491,491,491,491,491,490,488,486,482,478,467,455,439,421,403,358,331,313,294,278,251,239,228,212,192,163,153,148,144,141,137,135,133,133,132,131,130,129,127,122,102,89,69],"timestamp_mouse":[9,29,48,68,88,108,128,148,168,189,208,228,248,269,288,308,328,349,369,388,409,428,448,468,487,508,529,548,568,588,609,628,648,668,689,708,728,748,768,788,808,828,848,868,888,909,928,948,969,988,1008,1028,1049,1069,1088,1108,1128,1148,1168,1188,1208,1229,1247,1268,1288,1309,1328,1348,1368,1388,1408,1428,1449,1468,1488,1508,1529,1548,1568,1588,1609,1628,1649,1669,1688,1708,1728,1748,1769,1788,1808,1828,1849,1868,1888,1908,1928,1949,1969,1988,2009,2027,2048,2068,2088],"xSR":741.5,"ySR":469.95,"xT1":424.9,"yT1":0,"xT2":1058.1,"yT2":0,"toosoon":0,"cond_shown":"Incongruent","ratio_trial":200,"L_num":4,"L_den":5,"R_num":6,"R_den":10,"correct_side":1,"subjID":"samuelsolerlozano36","gender":"0","school":"6","age":"11"},{"start_time":1551881900538,"click_time":1551881901666,"finger_time":1551881901327,"fix_duration":250,"trial":15,"RT":789,"MT":339,"sideResp":2,"stimulus":[],"xmouse":[791,791,791,791,791,791,791,791,791,791,791,791,791,791,791,791,785,779,773,768,766,766,766,766,766,766,766,766,766,766,766,766,766,766,766,766,765,774,780,783,789,801,809,815,823,831,850,874,894,910,923,949,967,987,1014,1040,1065],"ymouse":[531,531,531,531,531,531,531,531,531,531,531,531,531,531,531,531,531,531,531,531,531,531,531,531,531,531,531,531,531,531,531,531,531,531,531,531,523,505,480,460,438,396,370,344,318,294,245,209,189,175,161,137,128,117,105,94,84],"timestamp_mouse":[9,28,48,68,89,108,128,148,169,188,208,228,248,267,289,308,328,349,368,389,408,428,448,468,488,508,528,549,569,589,609,628,648,669,689,709,727,749,768,789,808,828,847,868,888,908,927,949,968,988,1008,1029,1048,1068,1088,1109,1128],"xSR":741.5,"ySR":469.95,"xT1":424.9,"yT1":0,"xT2":1058.1,"yT2":0,"toosoon":0,"cond_shown":"Congruent","ratio_trial":300,"L_num":5,"L_den":25,"R_num":6,"R_den":12,"correct_side":2,"subjID":"samuelsolerlozano36","gender":"0","school":"6","age":"11"},{"start_time":1551881903339,"click_time":1551881904667,"finger_time":1551881904226,"fix_duration":250,"trial":16,"RT":887,"MT":441,"sideResp":1,"stimulus":[],"xmouse":[804,804,804,804,804,804,804,804,804,804,804,804,804,804,804,804,804,804,804,804,804,804,804,804,804,804,804,804,804,804,804,804,805,805,807,807,807,808,808,808,808,808,808,806,797,784,728,716,691,678,668,659,653,647,638,630,613,605,597,587,576,555,548,540,533,529,515],"ymouse":[517,517,517,517,517,517,517,517,517,517,517,517,517,517,517,517,517,517,517,517,517,517,517,517,517,517,517,517,517,517,517,515,512,511,510,508,508,508,508,508,508,504,496,481,458,431,355,340,306,289,274,257,248,238,224,213,189,178,167,156,145,125,118,112,105,102,91],"timestamp_mouse":[9,42,48,68,87,108,127,148,167,188,207,227,248,267,287,307,328,346,368,387,407,427,447,467,487,507,527,547,567,587,606,627,647,667,687,707,727,747,767,788,807,827,847,867,887,908,927,948,967,988,1007,1027,1048,1067,1087,1108,1128,1147,1168,1187,1207,1227,1247,1269,1287,1308,1328],"xSR":741.5,"ySR":469.95,"xT1":424.9,"yT1":0,"xT2":1058.1,"yT2":0,"toosoon":0,"cond_shown":"Incongruent","ratio_trial":300,"L_num":4,"L_den":20,"R_num":2,"R_den":4,"correct_side":2,"subjID":"samuelsolerlozano36","gender":"0","school":"6","age":"11"},{"start_time":1551881906140,"click_time":1551881907027,"finger_time":1551881906466,"fix_duration":311.8700031675843,"trial":17,"RT":326,"MT":561,"sideResp":2,"stimulus":[],"xmouse":[800,800,800,800,800,800,800,800,800,800,800,800,800,800,803,808,826,837,855,869,885,928,952,966,977,983,998,1000,1006,1010,1011,1019,1022,1026,1031,1035,1039,1043,1045,1047,1050,1054,1055,1057,1060],"ymouse":[508,508,508,508,508,508,508,508,508,508,508,508,508,510,508,498,463,433,375,321,264,164,121,97,78,63,28,24,15,11,9,5,4,3,3,3,4,10,14,22,29,42,47,49,52],"timestamp_mouse":[8,39,46,68,86,107,126,146,166,188,206,226,246,267,286,307,326,346,367,386,406,426,446,467,486,507,526,548,567,587,606,626,646,666,687,708,726,746,766,787,806,826,846,866,886],"xSR":741.5,"ySR":469.95,"xT1":424.9,"yT1":0,"xT2":1058.1,"yT2":0,"toosoon":0,"cond_shown":"Congruent","ratio_trial":200,"L_num":3,"L_den":6,"R_num":14,"R_den":20,"correct_side":2,"subjID":"samuelsolerlozano36","gender":"0","school":"6","age":"11"},{"start_time":1551881908961,"click_time":1551881909706,"finger_time":1551881909406,"fix_duration":493.5393972167449,"trial":18,"RT":445,"MT":300,"sideResp":2,"stimulus":[],"xmouse":[816,816,816,816,816,816,816,816,816,816,816,816,816,816,816,818,819,822,824,828,837,841,845,852,865,905,946,964,973,979,991,1000,1008,1018,1026,1038,1050,1061],"ymouse":[519,519,519,519,519,519,519,519,519,519,519,519,519,519,519,518,517,513,509,504,488,479,466,448,419,325,244,201,168,146,121,111,103,95,88,76,67,60],"timestamp_mouse":[10,37,45,65,86,105,125,145,165,185,206,225,245,265,285,306,326,345,365,385,405,425,445,467,486,505,526,545,566,585,605,626,645,665,687,705,725,745],"xSR":741.5,"ySR":469.95,"xT1":424.9,"yT1":0,"xT2":1058.1,"yT2":0,"toosoon":0,"cond_shown":"Incongruent","ratio_trial":200,"L_num":3,"L_den":4,"R_num":11,"R_den":20,"correct_side":1,"subjID":"samuelsolerlozano36","gender":"0","school":"6","age":"11"},{"start_time":1551881913356,"click_time":1551881914387,"finger_time":1551881913867,"fix_duration":948.8757341642194,"trial":19,"RT":511,"MT":520,"sideResp":1,"stimulus":[],"xmouse":[793,793,793,793,793,793,793,793,793,793,793,793,793,793,793,793,793,793,793,793,793,793,789,783,765,720,693,676,665,654,636,626,618,613,605,584,567,561,557,553,543,536,529,521,515,508,502,499,495,493,488,486],"ymouse":[507,507,507,507,507,507,507,507,507,507,507,507,507,507,507,507,507,507,507,507,507,507,506,499,477,436,419,403,389,370,339,322,308,298,285,261,246,240,235,232,216,206,193,179,168,150,138,131,122,116,102,96],"timestamp_mouse":[11,40,51,71,90,112,130,150,170,191,212,231,252,270,292,311,332,351,370,392,410,431,450,470,491,511,531,550,570,591,611,631,650,670,690,710,730,750,770,791,811,830,850,870,891,911,930,950,971,990,1011,1031],"xSR":741.5,"ySR":469.95,"xT1":424.9,"yT1":0,"xT2":1058.1,"yT2":0,"toosoon":0,"cond_shown":"Congruent","ratio_trial":200,"L_num":3,"L_den":10,"R_num":14,"R_den":28,"correct_side":2,"subjID":"samuelsolerlozano36","gender":"0","school":"6","age":"11"},{"start_time":1551881917379,"click_time":1551881919866,"finger_time":1551881919706,"fix_duration":250,"trial":20,"RT":2327,"MT":160,"sideResp":2,"stimulus":[],"xmouse":[804,804,804,804,804,804,804,804,804,804,804,804,804,804,804,804,804,804,804,804,804,804,804,804,804,804,804,804,804,804,804,804,804,804,804,804,804,804,804,804,804,804,804,804,804,804,804,804,804,804,804,804,804,804,804,804,804,804,804,804,804,804,804,804,804,804,804,804,804,804,804,804,804,804,804,804,804,804,804,804,804,804,804,804,804,804,804,804,804,804,804,804,804,804,804,804,804,804,804,804,804,804,804,804,804,804,804,804,804,804,804,804,801,798,793,813,868,942,1016,1071,1084,1095,1108,1125,1154],"ymouse":[509,509,509,509,509,509,509,509,509,509,509,509,509,509,509,509,509,509,509,509,509,509,509,509,509,509,509,509,509,509,509,509,509,509,509,509,509,509,509,509,509,509,509,509,509,509,509,509,509,509,509,509,509,509,509,509,509,509,509,509,509,509,509,509,509,509,509,509,509,509,509,509,509,509,509,509,509,509,509,509,509,509,509,509,509,509,509,509,509,509,509,509,509,509,509,509,509,509,509,509,509,509,509,509,509,509,509,509,509,509,509,509,508,508,508,493,437,363,306,254,230,205,175,143,93],"timestamp_mouse":[8,36,48,68,88,107,129,147,167,187,208,229,247,267,288,308,327,347,367,387,408,427,447,467,487,507,528,547,568,587,607,627,648,667,687,707,727,747,767,788,807,827,847,867,887,907,927,947,968,987,1007,1028,1048,1069,1087,1109,1128,1147,1168,1187,1209,1229,1247,1267,1287,1307,1327,1347,1367,1387,1408,1428,1448,1468,1487,1508,1528,1547,1567,1587,1607,1627,1648,1667,1687,1707,1746,1747,1767,1788,1808,1829,1847,1867,1887,1907,1927,1948,1967,1987,2007,2028,2048,2067,2087,2108,2128,2147,2167,2187,2208,2229,2247,2267,2287,2307,2327,2349,2368,2387,2408,2427,2447,2467,2487],"xSR":741.5,"ySR":469.95,"xT1":424.9,"yT1":0,"xT2":1058.1,"yT2":0,"toosoon":0,"cond_shown":"Incongruent","ratio_trial":200,"L_num":7,"L_den":15,"R_num":4,"R_den":6,"correct_side":2,"subjID":"samuelsolerlozano36","gender":"0","school":"6","age":"11"},{"start_time":1551881924703,"click_time":1551881926366,"finger_time":1551881924986,"fix_duration":276.7270913833888,"trial":21,"RT":283,"MT":1380,"sideResp":2,"stimulus":[],"xmouse":[802,802,802,802,802,802,802,802,802,802,802,802,797,777,761,749,746,746,746,746,744,740,723,713,713,713,713,713,713,713,713,713,713,713,713,713,721,754,809,818,818,818,818,818,818,818,818,818,818,818,818,818,818,818,818,818,818,818,818,818,818,818,818,818,818,818,819,822,851,882,897,908,917,939,949,954,958,960,970,982,1008,1038,1064,1103],"ymouse":[482,482,482,482,482,482,482,482,482,482,482,482,479,471,465,460,458,458,458,458,458,457,450,447,447,447,447,447,447,447,447,447,447,447,447,447,450,460,487,503,511,515,515,515,515,515,515,515,515,515,515,515,515,515,515,515,515,515,515,515,515,515,515,515,515,515,511,504,445,371,336,310,291,264,255,248,239,230,208,193,163,138,116,80],"timestamp_mouse":[8,24,44,65,84,104,124,143,163,183,203,224,243,264,283,303,325,344,364,383,403,423,444,464,483,503,524,543,563,583,605,623,643,663,683,703,724,745,763,783,803,824,843,864,884,903,923,944,963,984,1003,1023,1045,1063,1085,1104,1125,1143,1163,1183,1203,1224,1244,1263,1283,1303,1323,1344,1364,1384,1404,1423,1443,1463,1484,1503,1523,1543,1563,1583,1604,1623,1643,1663],"xSR":741.5,"ySR":469.95,"xT1":424.9,"yT1":0,"xT2":1058.1,"yT2":0,"toosoon":0,"cond_shown":"Congruent","ratio_trial":300,"L_num":11,"L_den":22,"R_num":2,"R_den":10,"correct_side":1,"subjID":"samuelsolerlozano36","gender":"0","school":"6","age":"11"},{"start_time":1551881930625,"click_time":1551881931726,"finger_time":1551881931186,"fix_duration":1497.1066055474264,"trial":22,"RT":561,"MT":540,"sideResp":2,"stimulus":[],"xmouse":[812,812,812,812,812,812,812,812,812,812,812,812,812,812,812,812,812,812,812,812,812,812,812,812,812,812,812,821,837,853,861,864,865,865,865,865,865,865,865,865,865,865,865,864,853,844,831,811,811,811,811,821,898,994,1055,1094],"ymouse":[504,504,504,504,504,504,504,504,504,504,504,504,504,504,504,504,504,504,504,504,504,504,504,504,504,504,504,489,467,445,429,420,417,417,417,417,417,417,417,417,417,417,417,417,426,433,442,454,454,454,454,444,345,221,139,75],"timestamp_mouse":[9,23,55,62,81,102,122,143,161,182,202,221,241,262,281,301,322,341,362,381,402,421,443,462,482,502,521,541,561,581,603,621,641,661,681,701,721,742,761,781,802,821,841,862,882,901,921,941,961,982,1001,1021,1042,1061,1081,1101],"xSR":741.5,"ySR":469.95,"xT1":424.9,"yT1":0,"xT2":1058.1,"yT2":0,"toosoon":0,"cond_shown":"Congruent","ratio_trial":300,"L_num":8,"L_den":16,"R_num":1,"R_den":5,"correct_side":1,"subjID":"samuelsolerlozano36","gender":"0","school":"6","age":"11"},{"start_time":1551881934046,"click_time":1551881935747,"finger_time":1551881935407,"fix_duration":1277.5429501749627,"trial":23,"RT":1361,"MT":340,"sideResp":1,"stimulus":[],"xmouse":[805,805,805,805,805,805,805,805,805,805,805,805,805,805,805,805,805,805,805,805,805,805,805,805,805,805,805,805,805,805,805,805,805,805,805,805,805,805,805,805,805,805,805,805,805,805,805,805,805,805,805,805,805,805,805,805,805,805,805,805,805,805,805,805,805,805,805,797,774,748,734,700,685,676,666,656,644,637,627,621,613,584,563,533,526,524],"ymouse":[515,515,515,515,515,515,515,515,515,515,515,515,515,515,515,515,515,515,515,515,515,515,515,515,515,515,515,515,515,515,515,515,515,515,515,515,515,515,515,515,515,515,515,515,515,515,515,515,515,515,515,515,515,515,515,515,515,515,515,515,515,515,515,515,515,515,515,502,458,406,377,303,264,240,220,204,189,184,177,171,162,138,123,101,97,96],"timestamp_mouse":[8,34,41,60,81,100,121,140,160,180,201,220,240,261,282,301,320,342,362,381,401,421,440,461,480,501,521,540,560,580,600,620,640,660,680,700,720,741,760,780,801,820,841,860,882,902,920,941,961,982,1000,1020,1041,1061,1081,1100,1121,1140,1161,1180,1200,1220,1241,1260,1281,1301,1320,1340,1361,1382,1401,1420,1441,1460,1480,1500,1520,1541,1560,1580,1600,1620,1640,1661,1680,1701],"xSR":741.5,"ySR":469.95,"xT1":424.9,"yT1":0,"xT2":1058.1,"yT2":0,"toosoon":0,"cond_shown":"Incongruent","ratio_trial":200,"L_num":11,"L_den":20,"R_num":3,"R_den":4,"correct_side":2,"subjID":"samuelsolerlozano36","gender":"0","school":"6","age":"11"},{"start_time":1551881938030,"click_time":1551881938928,"finger_time":1551881938426,"fix_duration":1301.2071817238204,"trial":24,"RT":396,"MT":502,"sideResp":1,"stimulus":[],"xmouse":[782,782,782,782,782,782,782,782,782,782,782,782,782,782,782,782,782,779,775,770,764,741,710,682,653,630,612,609,604,598,594,588,586,585,583,580,560,546,537,533,531,531,527,525,524],"ymouse":[520,520,520,520,520,520,520,520,520,520,520,520,520,520,520,520,512,496,482,465,445,380,320,275,233,202,165,149,137,122,113,103,95,93,89,87,80,76,74,73,73,73,73,72,72],"timestamp_mouse":[17,44,57,76,97,116,136,157,176,196,216,236,256,276,297,317,337,356,377,396,416,437,456,476,496,517,537,556,576,597,617,636,657,676,696,717,736,756,776,796,818,836,857,876,898],"xSR":741.5,"ySR":469.95,"xT1":424.9,"yT1":0,"xT2":1058.1,"yT2":0,"toosoon":0,"cond_shown":"Congruent","ratio_trial":300,"L_num":20,"L_den":25,"R_num":14,"R_den":28,"correct_side":1,"subjID":"samuelsolerlozano36","gender":"0","school":"6","age":"11"},{"start_time":1551881941057,"click_time":1551881942747,"finger_time":1551881941467,"fix_duration":969.3962271005233,"trial":25,"RT":410,"MT":1280,"sideResp":1,"stimulus":[],"xmouse":[829,829,829,829,829,829,829,829,829,829,829,829,829,829,829,829,829,827,825,823,820,820,820,820,820,820,820,820,820,820,820,820,820,820,820,820,820,820,820,820,820,820,820,820,819,818,817,816,815,814,814,814,814,814,812,810,809,809,809,809,809,809,809,809,809,809,809,806,802,793,744,729,704,690,677,649,629,600,570,544,530,530,530,530,521],"ymouse":[516,516,516,516,516,516,516,516,516,516,516,516,516,516,516,516,516,505,498,484,465,461,461,461,461,461,461,461,461,461,461,461,461,461,461,461,461,461,461,461,461,462,466,469,472,477,479,481,482,483,483,483,483,483,486,489,491,492,492,492,492,492,492,492,492,492,492,490,482,460,325,298,254,230,208,161,135,104,79,59,50,50,50,50,49],"timestamp_mouse":[9,30,49,69,90,111,129,151,169,189,211,230,250,270,290,310,329,349,369,390,410,429,449,469,490,510,529,549,569,591,609,630,650,670,691,710,729,749,769,790,810,829,849,869,889,909,930,951,969,989,1009,1029,1049,1069,1089,1109,1129,1149,1169,1189,1209,1229,1250,1270,1289,1309,1331,1350,1369,1389,1409,1429,1450,1469,1489,1510,1529,1549,1569,1590,1609,1630,1649,1669,1690],"xSR":741.5,"ySR":469.95,"xT1":424.9,"yT1":0,"xT2":1058.1,"yT2":0,"toosoon":0,"cond_shown":"Incongruent","ratio_trial":200,"L_num":9,"L_den":15,"R_num":8,"R_den":10,"correct_side":2,"subjID":"samuelsolerlozano36","gender":"0","school":"6","age":"11"},{"start_time":1551881944718,"click_time":1551881946446,"finger_time":1551881946266,"fix_duration":651.4687083877355,"trial":26,"RT":1548,"MT":180,"sideResp":2,"stimulus":[],"xmouse":[786,786,786,786,786,786,786,786,786,786,786,786,786,786,786,786,786,787,788,791,791,791,791,791,791,791,791,791,791,791,791,791,791,791,791,791,791,791,791,791,791,791,791,791,791,791,791,791,791,791,791,791,791,791,791,791,791,791,791,791,791,791,791,791,791,791,791,791,791,791,791,791,791,791,797,802,815,855,897,925,945,964,1006,1023,1037,1048,1060],"ymouse":[525,525,525,525,525,525,525,525,525,525,525,525,525,525,525,525,525,525,524,523,523,523,523,523,523,523,523,523,523,523,523,523,523,523,523,523,523,523,523,523,523,523,523,523,523,523,523,523,523,523,523,523,523,523,523,523,523,523,523,523,523,523,523,523,523,523,523,523,523,523,523,523,523,523,517,509,486,408,310,245,199,156,97,69,49,33,21],"timestamp_mouse":[9,28,48,69,89,108,128,148,169,190,208,228,248,268,289,308,328,349,369,388,408,429,449,468,489,508,529,548,568,589,608,628,648,669,688,709,729,750,769,789,808,828,849,868,888,908,930,948,969,988,1009,1030,1049,1069,1089,1108,1129,1148,1168,1188,1209,1228,1248,1268,1288,1309,1329,1349,1368,1388,1408,1429,1448,1470,1488,1508,1530,1548,1568,1588,1608,1628,1648,1668,1688,1709,1728],"xSR":741.5,"ySR":469.95,"xT1":424.9,"yT1":0,"xT2":1058.1,"yT2":0,"toosoon":0,"cond_shown":"Congruent","ratio_trial":200,"L_num":13,"L_den":26,"R_num":14,"R_den":20,"correct_side":2,"subjID":"samuelsolerlozano36","gender":"0","school":"6","age":"11"},{"start_time":1551881947964,"click_time":1551881949706,"finger_time":1551881949326,"fix_duration":554.5587984267411,"trial":27,"RT":1362,"MT":380,"sideResp":2,"stimulus":[],"xmouse":[811,811,811,811,811,811,811,811,811,811,811,811,811,811,811,811,811,811,811,811,811,811,811,811,811,811,811,811,811,811,811,811,811,811,811,811,811,811,811,811,811,811,811,811,811,811,811,811,811,811,811,811,811,811,811,811,811,811,811,811,811,811,811,811,811,811,819,836,858,884,923,940,953,962,969,977,981,986,986,986,986,986,986,986,986,986,986,1070],"ymouse":[505,505,505,505,505,505,505,505,505,505,505,505,505,505,505,505,505,505,505,505,505,505,505,505,505,505,505,505,505,505,505,505,505,505,505,505,505,505,505,505,505,505,505,505,505,505,505,505,505,505,505,504,503,503,503,503,503,503,503,503,503,503,503,503,503,502,492,477,455,419,322,260,194,129,77,29,15,3,3,3,3,3,3,3,3,3,3,7],"timestamp_mouse":[11,33,42,63,83,102,122,143,162,182,203,222,243,262,282,303,324,342,362,383,403,422,442,462,483,502,524,542,563,582,603,622,642,662,682,702,722,742,763,783,803,822,844,862,883,904,922,942,964,982,1002,1022,1043,1063,1082,1103,1122,1143,1162,1182,1202,1223,1242,1263,1284,1302,1322,1342,1362,1382,1403,1423,1442,1462,1483,1502,1523,1543,1562,1582,1603,1624,1642,1662,1683,1702,1722,1742],"xSR":741.5,"ySR":469.95,"xT1":424.9,"yT1":0,"xT2":1058.1,"yT2":0,"toosoon":0,"cond_shown":"Congruent","ratio_trial":200,"L_num":15,"L_den":25,"R_num":4,"R_den":10,"correct_side":1,"subjID":"samuelsolerlozano36","gender":"0","school":"6","age":"11"},{"start_time":1551881951064,"click_time":1551881951666,"finger_time":1551881951366,"fix_duration":257.4194854083545,"trial":28,"RT":302,"MT":300,"sideResp":1,"stimulus":[],"xmouse":[821,821,821,821,821,821,821,821,821,821,821,821,821,819,817,795,775,734,687,646,608,594,587,577,569,553,546,539,534,528,511],"ymouse":[493,493,493,493,493,493,493,493,493,493,493,493,493,491,486,450,424,383,337,291,247,219,198,177,159,121,107,94,83,72,44],"timestamp_mouse":[9,22,49,63,82,103,122,142,162,182,204,224,242,262,282,302,323,342,362,384,402,423,442,463,482,502,522,542,562,584,602],"xSR":741.5,"ySR":469.95,"xT1":424.9,"yT1":0,"xT2":1058.1,"yT2":0,"toosoon":0,"cond_shown":"Congruent","ratio_trial":300,"L_num":1,"L_den":3,"R_num":19,"R_den":30,"correct_side":2,"subjID":"samuelsolerlozano36","gender":"0","school":"6","age":"11"},{"start_time":1551881953872,"click_time":1551881955027,"finger_time":1551881954506,"fix_duration":1324.0509475817098,"trial":29,"RT":634,"MT":521,"sideResp":2,"stimulus":[],"xmouse":[789,789,789,789,789,789,789,789,789,789,789,789,789,789,789,789,789,789,788,787,787,787,786,785,785,785,785,784,784,784,787,794,804,813,845,867,893,912,928,944,944,944,944,944,944,944,944,944,944,944,944,944,944,944,944,944,944,1089],"ymouse":[501,501,501,501,501,501,501,501,501,501,501,500,499,499,499,498,498,497,496,494,493,492,491,489,489,489,489,487,486,482,476,468,456,435,327,251,164,101,49,6,6,6,6,6,6,6,6,6,6,6,6,6,6,6,6,6,6,11],"timestamp_mouse":[16,40,54,74,94,114,136,154,175,195,214,234,255,275,296,315,335,354,375,394,414,434,455,474,494,514,534,554,575,594,614,634,654,674,695,715,734,754,774,794,816,835,854,874,895,914,934,954,975,995,1015,1034,1054,1075,1095,1114,1135,1155],"xSR":741.5,"ySR":469.95,"xT1":424.9,"yT1":0,"xT2":1058.1,"yT2":0,"toosoon":0,"cond_shown":"Congruent","ratio_trial":100,"L_num":7,"L_den":14,"R_num":9,"R_den":15,"correct_side":2,"subjID":"samuelsolerlozano36","gender":"0","school":"6","age":"11"},{"start_time":1551881956819,"click_time":1551881958426,"finger_time":1551881957048,"fix_duration":250,"trial":30,"RT":229,"MT":1378,"sideResp":2,"stimulus":[],"xmouse":[791,791,791,791,791,791,793,807,817,823,836,843,843,843,843,843,843,843,836,826,815,807,801,800,800,800,800,799,798,798,798,797,795,794,794,794,794,794,794,794,794,794,794,794,794,794,794,794,794,791,789,786,779,777,775,774,774,788,804,826,846,865,900,918,927,938,948,977,990,997,1003,1012,1032,1042,1050,1054,1057,1057,1057,1058,1059],"ymouse":[522,522,522,522,521,520,516,504,498,494,488,486,486,486,486,486,486,486,486,491,495,500,506,507,509,511,512,515,516,517,518,521,525,526,526,526,526,526,526,526,526,526,526,526,526,526,526,526,526,527,523,506,485,481,475,470,459,417,377,328,283,242,174,135,114,102,94,78,74,71,70,70,70,71,71,71,70,70,70,70,70],"timestamp_mouse":[9,28,63,68,87,107,127,147,168,188,207,229,248,268,287,308,327,347,367,387,407,428,447,467,487,507,527,548,567,587,609,627,647,667,687,709,729,747,767,788,808,827,847,868,888,907,927,948,967,988,1007,1027,1047,1068,1088,1109,1129,1147,1168,1187,1207,1227,1247,1268,1287,1307,1327,1348,1369,1387,1407,1427,1447,1469,1487,1508,1527,1547,1567,1587,1607],"xSR":741.5,"ySR":469.95,"xT1":424.9,"yT1":0,"xT2":1058.1,"yT2":0,"toosoon":0,"cond_shown":"Incongruent","ratio_trial":100,"L_num":9,"L_den":15,"R_num":13,"R_den":26,"correct_side":1,"subjID":"samuelsolerlozano36","gender":"0","school":"6","age":"11"},{"start_time":1551881960449,"click_time":1551881963347,"finger_time":1551881960807,"fix_duration":500.85832091856764,"trial":31,"RT":358,"MT":2540,"sideResp":1,"stimulus":[],"xmouse":[772,772,772,772,772,772,772,772,772,772,772,772,771,770,767,760,758,757,756,755,755,755,755,755,755,755,755,755,755,755,755,755,755,755,755,759,762,764,768,770,772,773,774,774,776,776,776,776,776,776,776,776,776,776,776,776,776,776,776,776,776,776,776,776,776,776,776,776,777,777,779,779,779,779,780,780,781,781,781,781,781,781,781,781,781,781,781,781,781,781,781,781,781,781,781,781,781,781,781,781,781,781,781,781,781,781,781,781,781,781,781,781,781,781,781,781,781,781,781,781,781,781,780,772,755,707,683,664,649,640,632,626,614,604,596,586,583,576,569,562,544,538,532,528,524],"ymouse":[528,528,528,528,528,528,528,528,528,528,528,528,528,526,519,487,475,462,455,452,451,451,451,451,451,451,451,451,451,451,451,451,451,451,452,466,475,484,489,495,500,501,504,505,506,507,507,507,507,507,507,507,507,507,507,507,507,507,507,507,507,507,507,507,507,507,507,507,508,508,509,510,510,510,511,511,511,511,511,511,511,511,511,511,511,511,511,511,511,511,511,511,511,511,511,511,511,511,511,511,511,511,511,511,511,511,511,511,511,511,511,511,511,511,511,511,511,511,511,511,511,511,500,479,439,325,276,235,207,187,165,156,137,123,113,100,96,92,88,83,70,66,63,60,58],"timestamp_mouse":[18,46,59,77,97,118,138,157,178,197,217,239,257,277,297,317,337,358,377,398,417,438,457,477,498,518,537,557,579,598,618,638,658,678,697,718,738,758,778,798,817,838,858,877,897,917,937,958,977,997,1017,1037,1057,1077,1097,1118,1139,1157,1178,1198,1217,1237,1259,1278,1298,1319,1337,1358,1377,1398,1417,1439,1458,1477,1497,1519,1537,1558,1578,1597,1618,1637,1657,1679,1697,1717,1738,1758,1778,1799,1817,1837,1859,1877,1898,1917,1938,1959,1977,1998,2019,2037,2058,2079,2097,2118,2138,2158,2178,2197,2217,2238,2258,2277,2298,2317,2339,2358,2377,2397,2417,2437,2457,2478,2497,2517,2538,2558,2577,2597,2617,2638,2658,2677,2698,2717,2738,2757,2777,2797,2817,2839,2857,2877,2897],"xSR":741.5,"ySR":469.95,"xT1":424.9,"yT1":0,"xT2":1058.1,"yT2":0,"toosoon":0,"cond_shown":"Incongruent","ratio_trial":300,"L_num":8,"L_den":10,"R_num":14,"R_den":28,"correct_side":1,"subjID":"samuelsolerlozano36","gender":"0","school":"6","age":"11"},{"start_time":1551881965593,"click_time":1551881967446,"finger_time":1551881967066,"fix_duration":1125.0510731865788,"trial":32,"RT":1473,"MT":380,"sideResp":2,"stimulus":[],"xmouse":[797,797,797,797,797,797,797,797,797,797,797,797,797,797,797,797,797,797,797,797,797,797,797,797,797,797,797,797,797,797,797,797,797,797,797,797,797,797,797,797,797,797,797,797,797,797,797,797,797,797,797,797,797,797,797,797,797,797,797,797,797,797,797,797,797,797,797,797,797,797,797,798,805,829,867,894,915,933,954,963,970,977,984,998,1007,1014,1020,1030,1040,1046,1051,1056,1059],"ymouse":[527,527,527,527,527,527,527,527,527,527,527,527,527,527,527,527,527,527,527,527,527,527,527,527,527,527,527,527,527,527,527,527,527,527,527,527,527,527,527,527,527,527,527,527,527,527,527,527,527,527,527,527,527,527,527,527,527,527,527,527,527,527,527,527,527,527,527,527,527,522,518,508,488,399,269,175,104,68,30,17,12,8,5,1,1,1,2,9,16,20,23,27,30],"timestamp_mouse":[13,44,54,73,94,113,133,154,173,193,214,234,252,274,292,313,333,354,373,394,414,432,453,473,494,513,534,554,574,592,613,634,653,672,693,714,733,753,772,793,814,833,854,873,894,912,934,953,973,992,1012,1032,1053,1073,1092,1113,1134,1153,1173,1192,1213,1232,1253,1273,1292,1314,1333,1354,1373,1392,1414,1433,1454,1473,1492,1513,1534,1552,1574,1593,1613,1632,1652,1672,1693,1713,1734,1752,1774,1793,1813,1833,1852],"xSR":741.5,"ySR":469.95,"xT1":424.9,"yT1":0,"xT2":1058.1,"yT2":0,"toosoon":0,"cond_shown":"Congruent","ratio_trial":100,"L_num":11,"L_den":22,"R_num":4,"R_den":10,"correct_side":1,"subjID":"samuelsolerlozano36","gender":"0","school":"6","age":"11"},{"start_time":1551881969562,"click_time":1551881971666,"finger_time":1551881970106,"fix_duration":874.6570946504887,"trial":33,"RT":544,"MT":1560,"sideResp":1,"stimulus":[],"xmouse":[799,800,802,803,803,804,805,806,806,807,807,807,807,807,807,807,807,807,807,805,794,791,789,786,784,780,780,779,778,777,771,770,770,770,770,770,770,770,770,770,770,770,770,770,770,770,770,771,772,773,774,775,776,776,776,776,776,777,778,780,786,790,792,794,795,798,800,801,802,802,802,802,802,802,802,802,802,801,801,801,795,792,790,785,777,750,731,717,704,682,648,640,636,633,630,629,626,619,607,596,578,568,557,545,533,509],"ymouse":[531,531,532,532,532,533,533,533,533,533,533,533,533,533,533,533,533,533,531,529,510,505,498,493,488,479,474,463,451,435,392,380,378,378,378,377,377,377,377,377,377,377,377,377,377,377,377,377,378,380,389,394,398,402,407,420,426,437,444,454,476,484,491,495,500,511,518,520,522,522,522,522,522,522,522,523,523,523,523,523,509,497,482,463,438,373,327,296,269,232,173,155,145,136,130,127,126,125,124,122,119,117,116,112,107,95],"timestamp_mouse":[10,32,45,64,85,104,124,145,164,184,204,225,245,265,283,304,324,344,364,383,404,423,444,464,485,503,524,544,564,584,604,625,644,663,684,704,724,745,764,785,804,825,844,864,885,904,924,944,964,984,1005,1025,1044,1063,1085,1103,1125,1144,1164,1183,1204,1224,1244,1264,1284,1303,1324,1344,1365,1383,1404,1423,1445,1464,1484,1504,1525,1544,1565,1583,1604,1623,1644,1664,1684,1704,1724,1744,1764,1785,1804,1823,1844,1864,1884,1903,1924,1944,1963,1984,2004,2025,2044,2064,2085,2104],"xSR":741.5,"ySR":469.95,"xT1":424.9,"yT1":0,"xT2":1058.1,"yT2":0,"toosoon":0,"cond_shown":"Incongruent","ratio_trial":300,"L_num":13,"L_den":26,"R_num":12,"R_den":15,"correct_side":2,"subjID":"samuelsolerlozano36","gender":"0","school":"6","age":"11"},{"start_time":1551881974809,"click_time":1551881975227,"finger_time":1551881974965,"fix_duration":402.3118740362036,"trial":34,"RT":156,"MT":262,"sideResp":2,"stimulus":[],"xmouse":[819,820,821,824,826,830,838,858,865,871,880,889,907,930,946,966,987,1037,1057,1074,1089],"ymouse":[529,527,525,521,517,513,502,463,444,424,407,391,359,324,303,276,245,173,143,114,87],"timestamp_mouse":[19,38,57,76,97,118,136,156,176,197,217,237,256,276,297,318,336,357,378,397,418],"xSR":741.5,"ySR":469.95,"xT1":424.9,"yT1":0,"xT2":1058.1,"yT2":0,"toosoon":0,"cond_shown":"Incongruent","ratio_trial":200,"L_num":6,"L_den":20,"R_num":3,"R_den":6,"correct_side":2,"subjID":"samuelsolerlozano36","gender":"0","school":"6","age":"11"},{"start_time":1551881977802,"click_time":1551881978566,"finger_time":1551881978267,"fix_duration":1295.2850550955209,"trial":35,"RT":465,"MT":299,"sideResp":2,"stimulus":[],"xmouse":[750,750,750,750,750,750,750,750,750,750,750,750,750,750,750,750,749,750,752,752,755,765,791,836,858,892,910,932,965,978,988,1000,1010,1026,1035,1047,1052,1056,1062],"ymouse":[527,527,527,527,527,527,527,527,527,527,527,527,527,527,527,527,527,524,524,524,519,506,474,420,396,369,354,338,304,285,268,252,235,195,175,149,133,119,96],"timestamp_mouse":[8,36,43,64,85,103,125,144,164,184,204,223,245,265,283,305,324,344,364,383,404,424,445,465,484,504,524,544,564,584,603,623,643,664,684,704,723,744,764],"xSR":741.5,"ySR":469.95,"xT1":424.9,"yT1":0,"xT2":1058.1,"yT2":0,"toosoon":0,"cond_shown":"Congruent","ratio_trial":100,"L_num":3,"L_den":6,"R_num":2,"R_den":5,"correct_side":1,"subjID":"samuelsolerlozano36","gender":"0","school":"6","age":"11"},{"start_time":1551881980756,"click_time":1551881981446,"finger_time":1551881981086,"fix_duration":669.8741772868327,"trial":36,"RT":330,"MT":360,"sideResp":1,"stimulus":[],"xmouse":[793,793,793,793,793,793,793,793,793,793,793,793,793,793,793,794,791,776,758,737,712,705,698,691,679,643,628,607,602,599,582,562,542,526,513],"ymouse":[517,517,517,517,517,517,517,517,517,517,517,517,517,513,509,470,436,374,312,251,192,177,159,142,120,66,44,18,11,9,7,7,15,26,40],"timestamp_mouse":[10,42,51,71,90,109,130,151,171,190,210,231,250,269,291,310,330,350,371,389,410,431,450,470,490,509,530,550,570,590,610,630,650,670,689],"xSR":741.5,"ySR":469.95,"xT1":424.9,"yT1":0,"xT2":1058.1,"yT2":0,"toosoon":0,"cond_shown":"Congruent","ratio_trial":200,"L_num":15,"L_den":25,"R_num":4,"R_den":10,"correct_side":1,"subjID":"samuelsolerlozano36","gender":"0","school":"6","age":"11"},{"start_time":1551881982798,"click_time":1551881983527,"finger_time":1551881983086,"fix_duration":250,"trial":37,"RT":288,"MT":441,"sideResp":2,"stimulus":[],"xmouse":[780,780,780,780,780,780,780,780,780,780,780,780,781,785,787,787,787,787,793,803,815,825,834,850,861,870,879,890,913,928,942,957,975,1008,1034,1049,1064],"ymouse":[489,490,490,490,490,490,491,491,491,491,491,491,490,479,460,444,423,395,329,303,276,254,232,195,175,163,152,143,125,117,111,106,100,91,81,73,67],"timestamp_mouse":[10,28,48,68,89,109,128,149,169,188,207,228,248,268,288,308,328,349,368,388,408,429,448,468,487,508,527,548,568,588,607,629,648,667,688,708,729],"xSR":741.5,"ySR":469.95,"xT1":424.9,"yT1":0,"xT2":1058.1,"yT2":0,"toosoon":0,"cond_shown":"Congruent","ratio_trial":300,"L_num":4,"L_den":20,"R_num":13,"R_den":26,"correct_side":2,"subjID":"samuelsolerlozano36","gender":"0","school":"6","age":"11"},{"start_time":1551881984836,"click_time":1551881985566,"finger_time":1551881985166,"fix_duration":250,"trial":38,"RT":330,"MT":400,"sideResp":2,"stimulus":[],"xmouse":[801,801,801,801,800,800,800,800,800,799,799,797,797,798,799,801,807,809,812,814,817,829,835,848,859,868,890,901,913,927,943,982,1013,1027,1038,1047,1066],"ymouse":[514,514,514,514,513,513,513,513,512,512,512,506,502,493,486,475,441,418,398,381,359,266,206,140,111,89,64,54,44,34,24,9,6,5,5,6,20],"timestamp_mouse":[9,30,60,70,90,111,130,151,171,190,211,229,250,269,290,310,330,350,370,391,409,429,450,470,490,509,530,550,570,590,609,629,649,670,689,710,730],"xSR":741.5,"ySR":469.95,"xT1":424.9,"yT1":0,"xT2":1058.1,"yT2":0,"toosoon":0,"cond_shown":"Congruent","ratio_trial":300,"L_num":1,"L_den":30,"R_num":8,"R_den":24,"correct_side":2,"subjID":"samuelsolerlozano36","gender":"0","school":"6","age":"11"},{"start_time":1551881987217,"click_time":1551881987986,"finger_time":1551881987487,"fix_duration":250,"trial":39,"RT":270,"MT":499,"sideResp":1,"stimulus":[],"xmouse":[805,805,805,805,805,805,804,803,802,802,802,802,800,796,791,789,786,773,770,769,768,767,761,752,737,729,722,707,697,688,682,672,645,621,603,588,572,532,515],"ymouse":[509,509,509,509,509,509,509,509,507,506,503,499,477,440,415,395,374,332,313,301,290,284,267,251,224,207,192,159,146,132,123,113,95,83,76,69,64,58,58],"timestamp_mouse":[9,36,49,68,89,110,130,149,168,189,209,229,248,270,289,308,329,348,370,388,408,429,449,469,489,510,530,549,568,589,610,630,649,668,688,708,729,748,768],"xSR":741.5,"ySR":469.95,"xT1":424.9,"yT1":0,"xT2":1058.1,"yT2":0,"toosoon":0,"cond_shown":"Incongruent","ratio_trial":100,"L_num":6,"L_den":12,"R_num":3,"R_den":5,"correct_side":2,"subjID":"samuelsolerlozano36","gender":"0","school":"6","age":"11"},{"start_time":1551881989585,"click_time":1551881990287,"finger_time":1551881989906,"fix_duration":878.4251643671039,"trial":40,"RT":321,"MT":381,"sideResp":2,"stimulus":[],"xmouse":[783,783,783,783,783,783,783,783,783,783,783,783,783,783,784,786,788,789,789,789,797,805,821,831,853,867,877,888,900,937,964,991,1011,1027,1049,1060],"ymouse":[501,501,501,501,501,501,501,501,501,501,501,501,501,501,495,485,467,445,417,320,257,208,156,125,84,70,66,65,65,65,66,70,70,70,69,66],"timestamp_mouse":[8,34,40,62,82,101,121,142,162,181,202,222,242,262,281,302,321,342,361,381,401,421,441,461,481,502,521,541,562,580,601,621,641,660,680,701],"xSR":741.5,"ySR":469.95,"xT1":424.9,"yT1":0,"xT2":1058.1,"yT2":0,"toosoon":0,"cond_shown":"Incongruent","ratio_trial":300,"L_num":4,"L_den":20,"R_num":2,"R_den":4,"correct_side":2,"subjID":"samuelsolerlozano36","gender":"0","school":"6","age":"11"},{"start_time":1551881991684,"click_time":1551881993586,"finger_time":1551881992066,"fix_duration":397.41626010455036,"trial":41,"RT":382,"MT":1520,"sideResp":1,"stimulus":[],"xmouse":[803,803,803,803,802,802,802,802,802,802,802,802,802,802,802,803,804,805,807,808,809,809,811,814,818,822,823,823,823,823,823,823,823,823,823,823,823,822,822,820,820,820,820,820,820,820,820,820,820,820,820,821,822,822,822,822,822,822,822,821,821,821,821,821,821,821,821,821,821,816,800,782,763,751,738,736,734,732,731,727,718,709,694,677,642,624,610,593,574,551,549,548,547,543,528,518],"ymouse":[510,510,510,510,509,509,509,509,509,509,509,508,507,506,502,498,493,486,479,452,431,404,383,360,316,294,275,258,247,237,237,237,237,237,237,237,238,241,249,284,308,346,371,389,409,418,424,430,436,449,457,460,464,467,473,476,478,481,482,485,485,486,486,486,486,486,485,481,466,415,353,303,259,230,192,179,166,154,144,131,120,114,105,96,76,63,53,44,36,29,29,29,34,41,68,81],"timestamp_mouse":[8,22,43,63,83,102,122,142,162,182,201,222,243,261,281,301,323,341,363,382,403,421,443,462,481,502,521,542,562,582,602,622,643,662,681,703,723,742,762,781,803,822,843,863,881,901,922,941,961,982,1001,1021,1042,1063,1082,1101,1123,1141,1163,1181,1203,1222,1242,1261,1281,1301,1323,1341,1361,1381,1402,1421,1442,1461,1482,1501,1522,1541,1562,1582,1602,1623,1641,1661,1682,1701,1722,1741,1762,1781,1802,1822,1841,1861,1883,1902],"xSR":741.5,"ySR":469.95,"xT1":424.9,"yT1":0,"xT2":1058.1,"yT2":0,"toosoon":0,"cond_shown":"Congruent","ratio_trial":200,"L_num":3,"L_den":12,"R_num":9,"R_den":20,"correct_side":2,"subjID":"samuelsolerlozano36","gender":"0","school":"6","age":"11"},{"start_time":1551881995977,"click_time":1551881996767,"finger_time":1551881996086,"fix_duration":1009.5873138320229,"trial":42,"RT":109,"MT":681,"sideResp":2,"stimulus":[],"xmouse":[780,780,780,780,781,783,784,784,785,785,785,785,785,785,785,789,794,798,801,806,812,822,834,848,878,901,915,926,938,962,974,984,998,1011,1037,1048,1066,1077,1090,1127],"ymouse":[498,496,493,493,476,467,462,456,451,448,447,446,446,446,441,419,398,374,351,317,303,289,277,260,232,211,201,193,186,175,171,166,159,151,135,130,118,111,103,80],"timestamp_mouse":[11,29,55,69,88,109,129,150,168,189,209,229,249,269,289,309,329,348,368,388,410,429,449,470,488,510,530,549,570,590,609,628,648,670,689,710,729,748,768,790],"xSR":741.5,"ySR":469.95,"xT1":424.9,"yT1":0,"xT2":1058.1,"yT2":0,"toosoon":0,"cond_shown":"Congruent","ratio_trial":100,"L_num":2,"L_den":5,"R_num":11,"R_den":22,"correct_side":2,"subjID":"samuelsolerlozano36","gender":"0","school":"6","age":"11"},{"start_time":1551881998038,"click_time":1551881998986,"finger_time":1551881998425,"fix_duration":250,"trial":43,"RT":387,"MT":561,"sideResp":2,"stimulus":[],"xmouse":[803,800,796,792,787,785,784,784,784,784,784,785,786,787,789,789,792,795,797,799,802,817,826,833,837,843,861,870,879,890,899,919,930,944,953,962,980,987,994,997,1001,1015,1024,1026,1028,1033,1056,1065],"ymouse":[545,542,535,526,515,509,505,504,504,504,504,501,497,493,489,487,483,477,472,468,462,410,389,372,355,339,306,291,277,264,253,226,212,192,179,166,130,112,92,76,59,30,18,16,15,14,14,14],"timestamp_mouse":[8,41,49,69,87,109,127,148,168,189,207,227,248,267,288,308,328,347,369,387,408,428,448,467,488,508,528,547,568,588,609,627,648,668,688,708,728,749,769,788,808,828,848,868,888,909,928,948],"xSR":741.5,"ySR":469.95,"xT1":424.9,"yT1":0,"xT2":1058.1,"yT2":0,"toosoon":0,"cond_shown":"Incongruent","ratio_trial":200,"L_num":4,"L_den":30,"R_num":1,"R_den":3,"correct_side":2,"subjID":"samuelsolerlozano36","gender":"0","school":"6","age":"11"},{"start_time":1551882001649,"click_time":1551882002745,"finger_time":1551882002066,"fix_duration":1362.2294609020269,"trial":44,"RT":417,"MT":679,"sideResp":2,"stimulus":[],"xmouse":[781,781,781,781,781,781,781,781,781,781,780,779,779,779,779,779,779,779,779,778,773,772,772,772,790,801,809,818,828,849,857,864,870,879,905,918,930,945,963,994,1002,1002,1002,1002,1002,1002,1002,1002,1002,1002,1002,1002,1002,1140],"ymouse":[527,527,527,527,527,527,527,527,527,527,526,526,526,526,526,526,522,519,505,439,403,385,371,352,289,251,229,209,188,151,138,126,117,106,74,59,46,33,20,3,1,1,1,1,1,1,1,1,1,1,1,1,1,6],"timestamp_mouse":[37,57,77,97,117,138,156,178,197,217,238,257,277,296,317,336,357,377,397,417,436,456,477,497,517,538,556,577,597,617,637,657,678,696,717,738,757,777,797,817,837,856,877,897,917,938,957,977,996,1017,1037,1056,1076,1096],"xSR":741.5,"ySR":469.95,"xT1":424.9,"yT1":0,"xT2":1058.1,"yT2":0,"toosoon":0,"cond_shown":"Incongruent","ratio_trial":200,"L_num":9,"L_den":15,"R_num":8,"R_den":10,"correct_side":2,"subjID":"samuelsolerlozano36","gender":"0","school":"6","age":"11"},{"start_time":1551882005407,"click_time":1551882006426,"finger_time":1551882005505,"fix_duration":1000.4931622402829,"trial":45,"RT":98,"MT":921,"sideResp":2,"stimulus":[],"xmouse":[799,799,801,804,808,811,812,813,814,814,816,818,821,821,821,821,821,823,824,825,825,825,827,829,829,830,830,830,830,830,830,830,830,830,830,830,830,830,830,830,830,830,832,842,852,873,902,957,990,1035,1082],"ymouse":[550,533,492,470,448,437,433,432,431,431,431,432,438,439,441,441,441,441,438,436,436,436,435,435,435,435,435,435,435,435,435,435,435,435,435,435,435,435,435,435,435,435,434,419,399,361,308,210,172,126,72],"timestamp_mouse":[19,39,60,79,98,119,140,159,179,199,218,238,259,279,299,319,339,360,380,400,420,440,460,479,499,520,539,560,579,599,619,639,660,679,698,718,740,760,780,800,820,839,859,880,898,919,940,958,978,999,1019],"xSR":741.5,"ySR":469.95,"xT1":424.9,"yT1":0,"xT2":1058.1,"yT2":0,"toosoon":0,"cond_shown":"Incongruent","ratio_trial":100,"L_num":1,"L_den":2,"R_num":8,"R_den":20,"correct_side":1,"subjID":"samuelsolerlozano36","gender":"0","school":"6","age":"11"},{"start_time":1551882013975,"click_time":1551882015225,"finger_time":1551882014726,"fix_duration":466.69353697024985,"trial":46,"RT":751,"MT":499,"sideResp":2,"stimulus":[],"xmouse":[793,793,793,793,793,793,793,793,793,793,793,793,793,793,793,793,793,793,793,793,790,786,783,782,781,781,781,781,781,780,780,779,781,783,798,817,830,841,848,861,870,876,881,887,901,913,921,928,935,953,965,972,979,985,1003,1012,1019,1025,1031,1044,1051,1058,1063],"ymouse":[537,537,537,538,538,538,538,538,538,538,538,538,538,538,538,538,538,538,537,536,532,530,529,528,528,528,528,528,528,528,528,529,529,529,518,495,479,465,450,419,403,389,372,352,303,261,234,209,187,148,128,114,100,89,72,67,64,62,62,60,57,54,52],"timestamp_mouse":[11,40,52,71,91,112,130,151,170,192,211,231,251,271,291,310,331,352,371,391,410,432,452,472,492,511,530,551,571,592,611,632,651,671,691,710,730,751,770,790,811,831,851,871,890,911,930,950,971,991,1011,1031,1051,1071,1091,1111,1131,1150,1171,1191,1211,1231,1250],"xSR":741.5,"ySR":469.95,"xT1":424.9,"yT1":0,"xT2":1058.1,"yT2":0,"toosoon":0,"cond_shown":"Incongruent","ratio_trial":300,"L_num":13,"L_den":26,"R_num":12,"R_den":15,"correct_side":2,"subjID":"samuelsolerlozano36","gender":"0","school":"6","age":"11"},{"start_time":1551882018808,"click_time":1551882019466,"finger_time":1551882019125,"fix_duration":981.7783082872841,"trial":47,"RT":317,"MT":341,"sideResp":2,"stimulus":[],"xmouse":[793,793,793,793,793,793,793,793,793,793,793,793,797,801,819,833,847,866,877,891,906,920,943,963,975,986,997,1019,1027,1038,1045,1050,1059],"ymouse":[523,523,523,523,523,523,523,523,523,523,522,521,506,500,476,458,442,403,378,345,310,280,230,185,156,132,109,73,59,45,37,31,23],"timestamp_mouse":[20,40,58,77,97,118,138,158,177,198,218,237,257,279,298,317,338,358,378,398,418,438,458,479,498,518,537,557,577,598,617,638,657],"xSR":741.5,"ySR":469.95,"xT1":424.9,"yT1":0,"xT2":1058.1,"yT2":0,"toosoon":0,"cond_shown":"Incongruent","ratio_trial":200,"L_num":7,"L_den":15,"R_num":6,"R_den":9,"correct_side":2,"subjID":"samuelsolerlozano36","gender":"0","school":"6","age":"11"},{"start_time":1551882021426,"click_time":1551882022507,"finger_time":1551882022146,"fix_duration":518.896608026136,"trial":48,"RT":720,"MT":361,"sideResp":2,"stimulus":[],"xmouse":[808,808,808,808,808,805,803,796,793,791,787,785,782,782,782,782,782,782,782,782,782,782,782,782,782,781,780,780,780,780,780,780,783,789,802,822,850,906,925,941,958,978,1002,1011,1020,1025,1031,1041,1045,1049,1054,1058,1065,1072,1076],"ymouse":[540,540,540,540,540,538,537,533,532,530,530,530,530,530,530,530,530,530,530,530,530,530,530,530,530,530,530,530,530,530,529,527,523,519,509,495,477,444,429,413,395,370,329,308,280,260,242,208,191,175,160,146,118,102,93],"timestamp_mouse":[1,20,47,59,80,101,119,139,160,180,199,220,240,260,281,300,320,340,360,381,400,421,440,461,481,499,520,540,560,580,600,620,640,660,679,699,720,740,760,780,801,820,839,860,880,899,919,940,959,980,1000,1020,1041,1060,1081],"xSR":741.5,"ySR":469.95,"xT1":424.9,"yT1":0,"xT2":1058.1,"yT2":0,"toosoon":0,"cond_shown":"Incongruent","ratio_trial":100,"L_num":17,"L_den":30,"R_num":10,"R_den":15,"correct_side":2,"subjID":"samuelsolerlozano36","gender":"0","school":"6","age":"11"},{"start_time":1551882024061,"click_time":1551882024686,"finger_time":1551882024185,"fix_duration":614.4462692543289,"trial":49,"RT":124,"MT":501,"sideResp":2,"stimulus":[],"xmouse":[800,798,797,797,796,794,791,785,782,780,777,776,775,773,770,770,780,797,818,833,880,931,963,989,1007,1025,1030,1036,1040,1042,1052,1059],"ymouse":[475,474,472,472,472,471,468,462,459,458,457,457,455,445,426,357,304,256,219,198,138,100,82,69,61,47,44,40,37,35,32,31],"timestamp_mouse":[10,24,53,65,85,104,124,145,165,185,204,225,245,265,285,305,325,344,365,385,405,426,445,465,484,504,524,544,564,586,605,625],"xSR":741.5,"ySR":469.95,"xT1":424.9,"yT1":0,"xT2":1058.1,"yT2":0,"toosoon":0,"cond_shown":"Congruent","ratio_trial":100,"L_num":9,"L_den":15,"R_num":8,"R_den":16,"correct_side":1,"subjID":"samuelsolerlozano36","gender":"0","school":"6","age":"11"},{"start_time":1551882026772,"click_time":1551882027287,"finger_time":1551882026967,"fix_duration":704.3577938347366,"trial":50,"RT":195,"MT":320,"sideResp":1,"stimulus":[],"xmouse":[789,789,789,789,788,786,785,784,784,784,782,773,762,750,725,707,696,685,673,653,633,606,567,543,525,523],"ymouse":[530,530,530,530,526,521,515,507,496,461,438,406,365,325,251,212,192,176,163,141,127,109,87,76,66,64],"timestamp_mouse":[15,44,55,75,95,116,134,155,175,195,216,235,255,275,295,315,335,355,375,395,414,435,456,475,496,514],"xSR":741.5,"ySR":469.95,"xT1":424.9,"yT1":0,"xT2":1058.1,"yT2":0,"toosoon":0,"cond_shown":"Congruent","ratio_trial":200,"L_num":3,"L_den":6,"R_num":14,"R_den":20,"correct_side":2,"subjID":"samuelsolerlozano36","gender":"0","school":"6","age":"11"},{"start_time":1551882028389,"click_time":1551882029067,"finger_time":1551882028827,"fix_duration":360.78611212740196,"trial":51,"RT":438,"MT":240,"sideResp":1,"stimulus":[],"xmouse":[790,790,790,790,790,790,790,790,790,790,790,790,790,790,790,790,790,790,791,791,791,790,776,733,689,667,642,621,589,578,565,552,540,519],"ymouse":[515,515,515,515,515,515,515,515,515,515,515,515,516,516,516,516,516,516,515,506,487,458,412,283,189,147,109,83,45,32,21,14,11,10],"timestamp_mouse":[18,38,58,78,98,119,137,159,178,198,218,238,257,278,297,318,337,358,378,398,418,438,458,478,498,518,538,559,578,597,618,638,657,677],"xSR":741.5,"ySR":469.95,"xT1":424.9,"yT1":0,"xT2":1058.1,"yT2":0,"toosoon":0,"cond_shown":"Congruent","ratio_trial":300,"L_num":11,"L_den":22,"R_num":1,"R_den":5,"correct_side":1,"subjID":"samuelsolerlozano36","gender":"0","school":"6","age":"11"},{"start_time":1551882030798,"click_time":1551882031567,"finger_time":1551882031026,"fix_duration":709.0191072671361,"trial":52,"RT":228,"MT":541,"sideResp":1,"stimulus":[],"xmouse":[780,780,781,781,781,781,781,782,783,783,783,783,783,783,783,783,783,783,775,769,761,752,745,721,699,684,666,649,615,603,594,585,574,552,547,545,541,536,521],"ymouse":[536,536,535,535,532,527,519,508,485,477,470,460,450,404,383,360,335,310,255,232,208,185,169,140,127,121,115,112,107,103,101,98,95,88,87,85,84,82,80],"timestamp_mouse":[13,33,49,70,88,109,129,149,168,189,209,228,250,269,290,309,328,349,370,389,409,429,448,468,488,508,529,550,570,589,609,629,650,670,689,709,728,748,768],"xSR":741.5,"ySR":469.95,"xT1":424.9,"yT1":0,"xT2":1058.1,"yT2":0,"toosoon":0,"cond_shown":"Congruent","ratio_trial":100,"L_num":2,"L_den":5,"R_num":11,"R_den":22,"correct_side":2,"subjID":"samuelsolerlozano36","gender":"0","school":"6","age":"11"},{"start_time":1551882032964,"click_time":1551882034427,"finger_time":1551882034088,"fix_duration":396.0464049727911,"trial":53,"RT":1124,"MT":339,"sideResp":1,"stimulus":[],"xmouse":[817,817,817,817,817,817,817,817,817,817,817,817,813,810,800,783,782,782,782,781,778,778,778,778,778,777,777,777,777,777,777,777,777,777,777,774,774,774,774,774,774,774,774,774,774,774,774,774,774,774,774,774,774,774,774,774,771,762,747,725,687,674,662,651,637,603,572,554,539,531,517,512,500,485],"ymouse":[512,512,512,512,512,512,512,512,512,512,512,512,513,514,517,520,520,520,520,520,520,520,520,520,520,520,520,520,520,520,520,520,520,520,520,520,520,520,520,520,520,520,520,520,520,520,520,520,520,520,520,520,520,517,512,492,461,436,407,367,289,263,241,223,209,182,164,154,145,138,123,117,106,96],"timestamp_mouse":[8,23,45,64,84,103,123,142,163,184,202,223,244,263,284,303,324,343,362,384,403,423,443,464,483,503,523,544,562,583,603,623,643,664,684,702,723,743,763,784,803,822,842,863,883,903,923,942,963,984,1003,1023,1043,1063,1084,1103,1124,1143,1163,1182,1202,1222,1243,1263,1284,1303,1322,1343,1363,1383,1402,1422,1443,1463],"xSR":741.5,"ySR":469.95,"xT1":424.9,"yT1":0,"xT2":1058.1,"yT2":0,"toosoon":0,"cond_shown":"Congruent","ratio_trial":100,"L_num":1,"L_den":2,"R_num":18,"R_den":30,"correct_side":2,"subjID":"samuelsolerlozano36","gender":"0","school":"6","age":"11"},{"start_time":1551882036938,"click_time":1551882037667,"finger_time":1551882037366,"fix_duration":250,"trial":54,"RT":428,"MT":301,"sideResp":2,"stimulus":[],"xmouse":[793,793,793,793,793,793,793,793,793,793,793,793,793,793,793,793,793,793,793,796,802,825,845,871,901,933,978,998,1009,1017,1026,1039,1044,1049,1053,1056,1062],"ymouse":[544,544,544,544,544,544,544,544,544,544,544,544,544,544,544,544,544,544,543,533,519,465,419,358,287,224,149,120,108,101,94,83,78,73,69,67,65],"timestamp_mouse":[10,43,49,69,89,109,129,149,168,189,209,229,249,269,289,310,329,350,370,388,409,428,448,469,489,509,528,549,568,588,609,629,648,669,689,710,729],"xSR":741.5,"ySR":469.95,"xT1":424.9,"yT1":0,"xT2":1058.1,"yT2":0,"toosoon":0,"cond_shown":"Congruent","ratio_trial":300,"L_num":3,"L_den":6,"R_num":4,"R_den":5,"correct_side":2,"subjID":"samuelsolerlozano36","gender":"0","school":"6","age":"11"},{"start_time":1551882038817,"click_time":1551882039648,"finger_time":1551882039186,"fix_duration":448.410961658238,"trial":55,"RT":369,"MT":462,"sideResp":2,"stimulus":[],"xmouse":[758,758,757,757,757,757,756,755,755,755,755,755,755,756,760,765,770,783,788,794,801,809,826,837,846,861,880,925,942,956,966,977,993,1000,1005,1009,1018,1033,1041,1049,1056,1065],"ymouse":[506,505,504,504,504,504,504,504,504,504,504,504,504,504,504,501,496,477,465,452,434,415,368,327,301,266,234,174,156,143,134,127,115,109,105,102,99,97,96,94,93,90],"timestamp_mouse":[9,30,50,71,90,110,129,151,170,190,210,230,250,270,289,309,330,350,369,390,410,431,449,471,491,510,530,549,571,590,610,631,650,670,690,710,730,750,770,790,810,831],"xSR":741.5,"ySR":469.95,"xT1":424.9,"yT1":0,"xT2":1058.1,"yT2":0,"toosoon":0,"cond_shown":"Congruent","ratio_trial":100,"L_num":12,"L_den":30,"R_num":13,"R_den":26,"correct_side":2,"subjID":"samuelsolerlozano36","gender":"0","school":"6","age":"11"},{"start_time":1551882040804,"click_time":1551882041667,"finger_time":1551882040947,"fix_duration":314.58902837831215,"trial":56,"RT":143,"MT":720,"sideResp":2,"stimulus":[],"xmouse":[789,789,785,776,775,775,774,772,769,768,768,768,768,768,768,768,768,768,768,768,770,782,795,828,838,848,859,873,904,921,937,954,967,985,992,996,1003,1006,1016,1026,1036,1044,1050,1065],"ymouse":[528,526,518,496,490,482,471,461,445,440,437,434,433,432,431,431,431,431,431,431,429,422,409,353,328,307,284,260,215,195,175,156,140,118,111,107,104,103,102,102,100,98,97,93],"timestamp_mouse":[5,24,45,63,82,103,124,143,163,183,203,223,243,262,283,304,323,343,363,383,403,422,443,463,483,503,523,544,562,584,603,623,644,663,684,704,724,744,763,782,803,822,844,863],"xSR":741.5,"ySR":469.95,"xT1":424.9,"yT1":0,"xT2":1058.1,"yT2":0,"toosoon":0,"cond_shown":"Incongruent","ratio_trial":100,"L_num":4,"L_den":8,"R_num":8,"R_den":20,"correct_side":1,"subjID":"samuelsolerlozano36","gender":"0","school":"6","age":"11"},{"start_time":1551882043204,"click_time":1551882044028,"finger_time":1551882043548,"fix_duration":516.8000094254791,"trial":57,"RT":344,"MT":480,"sideResp":1,"stimulus":[],"xmouse":[781,782,782,782,782,782,782,782,782,782,782,782,782,780,780,780,780,780,774,769,764,760,755,742,723,704,682,660,607,586,569,559,555,548,543,542,541,540,540,538,531,519],"ymouse":[540,540,540,540,540,540,540,540,540,540,540,540,539,533,522,504,482,454,365,324,291,264,241,201,171,148,126,103,61,48,42,39,39,42,57,65,70,74,75,76,76,76],"timestamp_mouse":[4,33,43,63,83,103,122,143,163,184,203,222,242,263,283,304,324,344,363,383,403,422,443,463,482,503,524,543,563,583,604,624,644,664,683,702,724,743,763,784,803,824],"xSR":741.5,"ySR":469.95,"xT1":424.9,"yT1":0,"xT2":1058.1,"yT2":0,"toosoon":0,"cond_shown":"Incongruent","ratio_trial":200,"L_num":4,"L_den":6,"R_num":14,"R_den":30,"correct_side":1,"subjID":"samuelsolerlozano36","gender":"0","school":"6","age":"11"},{"start_time":1551882046689,"click_time":1551882047567,"finger_time":1551882047287,"fix_duration":720.1945945258431,"trial":58,"RT":598,"MT":280,"sideResp":2,"stimulus":[],"xmouse":[768,768,768,768,768,768,768,768,768,768,768,768,768,768,768,768,768,768,768,768,768,768,768,768,768,768,768,769,775,789,809,835,860,904,922,936,949,962,993,1023,1035,1043,1050,1073],"ymouse":[516,516,516,516,516,516,516,516,516,516,516,516,516,516,516,516,516,516,516,516,516,516,516,516,516,516,516,514,495,461,425,372,325,249,217,193,171,153,119,100,93,88,84,77],"timestamp_mouse":[18,52,57,79,98,118,138,158,179,199,218,238,258,278,297,319,339,358,378,399,417,438,458,478,498,519,538,559,578,598,618,637,659,678,697,718,738,757,777,798,817,837,858,878],"xSR":741.5,"ySR":469.95,"xT1":424.9,"yT1":0,"xT2":1058.1,"yT2":0,"toosoon":0,"cond_shown":"Incongruent","ratio_trial":200,"L_num":14,"L_den":30,"R_num":12,"R_den":18,"correct_side":2,"subjID":"samuelsolerlozano36","gender":"0","school":"6","age":"11"},{"start_time":1551882048580,"click_time":1551882049867,"finger_time":1551882049406,"fix_duration":250,"trial":59,"RT":826,"MT":461,"sideResp":1,"stimulus":[],"xmouse":[790,790,790,790,790,790,790,790,790,790,790,790,790,790,790,790,789,786,779,749,744,744,744,744,744,744,744,744,744,744,744,744,746,747,753,755,757,759,762,764,764,764,759,752,737,729,719,705,682,620,587,555,544,544,544,544,544,544,544,544,544,544,544,544,489],"ymouse":[531,531,531,531,531,531,531,531,531,531,531,531,531,531,531,531,530,529,526,515,514,514,514,514,514,514,514,514,514,514,514,514,513,513,512,511,509,508,504,492,484,467,446,420,364,302,257,208,157,64,32,13,6,6,6,6,6,6,6,6,6,6,6,6,4],"timestamp_mouse":[7,27,47,67,88,107,127,147,167,188,207,227,247,267,287,306,326,347,367,387,408,427,448,467,487,506,528,548,567,587,608,628,648,667,687,707,727,748,766,786,807,826,846,868,886,907,927,947,967,987,1007,1027,1046,1068,1087,1107,1126,1147,1168,1187,1207,1227,1247,1267,1287],"xSR":741.5,"ySR":469.95,"xT1":424.9,"yT1":0,"xT2":1058.1,"yT2":0,"toosoon":0,"cond_shown":"Incongruent","ratio_trial":100,"L_num":12,"L_den":30,"R_num":2,"R_den":4,"correct_side":2,"subjID":"samuelsolerlozano36","gender":"0","school":"6","age":"11"},{"start_time":1551882052271,"click_time":1551882053927,"finger_time":1551882053648,"fix_duration":1264.5395177922146,"trial":60,"RT":1377,"MT":279,"sideResp":1,"stimulus":[],"xmouse":[813,813,813,813,813,813,813,813,813,813,813,813,813,813,813,813,813,813,813,813,813,813,813,813,813,813,813,813,813,813,813,813,813,813,813,813,813,813,813,813,813,813,813,813,813,813,813,813,813,813,813,813,813,813,813,813,813,813,813,813,813,813,813,813,812,810,805,799,793,777,764,745,729,713,686,668,650,630,607,548,513,496,487],"ymouse":[517,517,517,517,517,517,517,517,517,517,517,517,517,517,517,517,517,517,517,517,517,517,517,517,517,517,517,517,517,517,517,517,517,517,517,517,517,517,517,517,517,517,517,517,517,517,517,517,517,517,517,517,517,517,517,517,517,517,517,517,517,517,517,517,517,510,498,481,463,406,374,331,293,264,220,199,181,167,153,125,110,102,99],"timestamp_mouse":[16,37,63,77,97,116,136,156,175,196,217,236,257,276,297,316,336,357,376,397,416,437,456,477,496,515,537,555,577,596,616,637,656,676,696,715,737,756,775,796,816,837,855,877,896,916,936,957,977,996,1017,1037,1056,1077,1097,1116,1136,1157,1176,1195,1216,1237,1256,1275,1296,1316,1335,1356,1377,1396,1415,1436,1455,1476,1496,1516,1536,1556,1576,1595,1615,1636,1656],"xSR":741.5,"ySR":469.95,"xT1":424.9,"yT1":0,"xT2":1058.1,"yT2":0,"toosoon":0,"cond_shown":"Incongruent","ratio_trial":300,"L_num":3,"L_den":6,"R_num":4,"R_den":20,"correct_side":1,"subjID":"samuelsolerlozano36","gender":"0","school":"6","age":"11"},{"start_time":1551882056426,"click_time":1551882058187,"finger_time":1551882057767,"fix_duration":1376.4177750343404,"trial":61,"RT":1341,"MT":420,"sideResp":1,"stimulus":[],"xmouse":[808,808,808,808,808,808,808,808,808,808,808,808,808,808,808,808,808,808,809,809,809,809,809,809,809,810,810,810,810,810,810,810,810,810,810,810,810,810,810,810,810,810,810,810,810,810,810,810,810,810,810,810,811,811,811,811,810,809,808,808,807,806,806,805,802,797,792,775,760,735,707,689,658,637,612,594,579,561,557,554,554,552,551,551,551,550,549,529,517],"ymouse":[524,524,524,524,524,524,524,524,524,524,524,524,524,524,524,524,524,524,524,524,524,524,524,524,524,525,525,525,525,525,525,525,525,525,525,525,525,525,525,525,525,525,525,525,525,525,525,525,525,525,525,525,525,525,525,526,526,525,524,524,523,523,522,520,516,509,499,468,444,410,380,358,315,285,237,211,184,141,124,113,106,101,98,98,98,98,96,83,76],"timestamp_mouse":[8,21,41,62,82,102,121,141,160,181,201,222,240,262,282,302,322,341,361,381,401,421,441,461,481,502,522,540,561,581,602,621,641,661,680,702,721,741,762,781,802,822,841,862,882,902,921,941,962,981,1001,1022,1041,1061,1081,1102,1122,1141,1160,1181,1201,1221,1241,1262,1281,1300,1320,1341,1362,1382,1402,1420,1442,1461,1481,1501,1521,1541,1561,1581,1601,1622,1641,1661,1681,1700,1722,1740,1761],"xSR":741.5,"ySR":469.95,"xT1":424.9,"yT1":0,"xT2":1058.1,"yT2":0,"toosoon":0,"cond_shown":"Congruent","ratio_trial":200,"L_num":5,"L_den":10,"R_num":14,"R_den":20,"correct_side":2,"subjID":"samuelsolerlozano36","gender":"0","school":"6","age":"11"},{"start_time":1551882060122,"click_time":1551882060627,"finger_time":1551882060487,"fix_duration":1073.2413302685645,"trial":62,"RT":365,"MT":140,"sideResp":2,"stimulus":[],"xmouse":[811,811,811,811,811,811,811,811,811,811,811,811,811,811,810,811,815,824,837,852,879,923,1038,1080,1107,1127],"ymouse":[543,543,542,542,542,542,542,542,542,542,542,542,542,542,536,533,519,487,451,418,372,312,182,134,100,72],"timestamp_mouse":[9,25,45,66,86,104,126,144,165,184,205,225,245,264,286,305,326,344,365,384,405,425,445,465,485,504],"xSR":741.5,"ySR":469.95,"xT1":424.9,"yT1":0,"xT2":1058.1,"yT2":0,"toosoon":0,"cond