[{"start_time":1551882946192,"click_time":1551882948161,"finger_time":1551882947599,"fix_duration":726.0515164789065,"trial":0,"RT":1407,"MT":562,"sideResp":2,"stimulus":"img/500/equaldotsize/R/6_Ratio_500_L_9_R_18.png","xmouse":[804,804,804,804,804,804,804,804,804,804,804,804,804,804,804,804,804,804,804,804,804,804,804,804,804,804,804,804,804,804,804,804,804,804,804,804,804,804,804,804,804,804,804,804,804,804,804,804,804,804,804,804,804,804,804,804,804,804,804,804,804,804,804,804,804,804,804,804,804,817,930,988,1012,1017,1018,1019,1022,1023,1023,1023,1023,1023,1023,1023,1023,1023,1023,1023,1023,1023,1031,1037,1040,1042,1045,1054,1055,1057,1059],"ymouse":[510,510,510,510,510,510,510,510,510,510,510,510,510,510,510,510,510,510,510,510,510,510,510,510,510,510,510,510,510,510,510,510,510,510,510,510,510,510,510,510,510,510,510,510,510,510,510,510,510,510,510,510,510,510,510,510,510,510,510,510,510,510,510,510,510,510,510,510,503,477,302,232,208,203,201,199,184,178,175,175,175,175,175,175,175,175,175,175,175,174,158,147,138,132,121,99,95,90,86],"timestamp_mouse":[9,39,47,68,88,107,128,147,167,187,207,227,247,267,288,308,327,347,367,388,407,427,447,467,489,507,528,548,567,588,608,627,647,668,687,707,727,747,767,788,807,828,847,867,887,908,927,947,967,988,1007,1028,1047,1068,1087,1108,1127,1147,1168,1187,1209,1228,1248,1267,1287,1308,1327,1347,1367,1387,1407,1427,1447,1468,1488,1507,1528,1548,1567,1588,1608,1628,1647,1668,1688,1708,1728,1747,1767,1787,1808,1827,1847,1868,1887,1907,1927,1947,1968],"xSR":741.5,"ySR":469.95,"xT1":424.9,"yT1":0,"xT2":1058.1,"yT2":0,"toosoon":0,"cond_shown":"equaldotsize","ratio_trial":500,"smaller_num":"9","larger_num":"18","correct_side":2,"subjID":"samuelsolerlozano36","gender":"0","age":"11","school":"6","test":{"fix_dur":[250,1500],"timestim":300,"targets_dim":[100,100],"targets_relative_coord":[0.3,0.7],"size_stim":[880,420],"start_dim":[100,100],"size_start":[300,300],"size_fix":60,"samplingrate":20,"img_types":["equaldotsize","equaldotanddens","randomdotsizeEA"],"ratios":[250,500,750,900],"rep_conds":9,"nTrials":120,"trials_to_rest":500,"Trials_order":[111,73,70,48,88,71,76,119,41,84,74,37,58,66,100,110,57,67,94,60,36,1,6,43,79,56,86,55,5,105,49,21,80,109,99,96,77,108,35,117,40,87,27,16,85,112,81,8,89,78,115,93,29,82,51,0,3,19,33,34,4,10,24,31,30,65,75,50,53,12,2,101,61,114,46,91,52,28,90,107,38,102,42,63,68,45,72,13,104,106,44,25,103,14,54,15,17,20,118,32,98,26,59,95,69,22,47,62,64,11,92,116,7,113,18,83,23,97,9,39],"cond_shown":["equaldotsize","equaldotanddens","equaldotanddens","equaldotsize","equaldotanddens","randomdotsizeEA","equaldotanddens","randomdotsizeEA","randomdotsizeEA","equaldotsize","randomdotsizeEA","equaldotanddens","equaldotanddens","equaldotsize","equaldotanddens","randomdotsizeEA","equaldotsize","equaldotanddens","equaldotanddens","equaldotsize","equaldotsize","equaldotanddens","equaldotsize","equaldotanddens","equaldotanddens","randomdotsizeEA","randomdotsizeEA","equaldotanddens","randomdotsizeEA","equaldotsize","equaldotanddens","equaldotsize","randomdotsizeEA","equaldotanddens","equaldotsize","equaldotsize","randomdotsizeEA","equaldotsize","randomdotsizeEA","equaldotsize","equaldotanddens","equaldotsize","equaldotsize","equaldotanddens","equaldotanddens","equaldotanddens","equaldotsize","randomdotsizeEA","randomdotsizeEA","equaldotsize","equaldotanddens","equaldotsize","randomdotsizeEA","equaldotanddens","equaldotsize","equaldotsize","equaldotsize","equaldotanddens","equaldotsize","equaldotanddens","equaldotanddens","equaldotanddens","equaldotsize","equaldotanddens","equaldotsize","randomdotsizeEA","equaldotsize","randomdotsizeEA","randomdotsizeEA","equaldotsize","randomdotsizeEA","randomdotsizeEA","equaldotanddens","equaldotsize","equaldotanddens","equaldotanddens","equaldotanddens","equaldotanddens","equaldotsize","randomdotsizeEA","randomdotsizeEA","equaldotsize","equaldotsize","equaldotsize","randomdotsizeEA","equaldotsize","equaldotsize","equaldotanddens","randomdotsizeEA","equaldotanddens","randomdotsizeEA","equaldotanddens","equaldotanddens","randomdotsizeEA","equaldotsize","equaldotsize","randomdotsizeEA","randomdotsizeEA","equaldotanddens","randomdotsizeEA","randomdotsizeEA","randomdotsizeEA","randomdotsizeEA","randomdotsizeEA","equaldotsize","equaldotanddens","randomdotsizeEA","randomdotsizeEA","equaldotanddens","randomdotsizeEA","randomdotsizeEA","randomdotsizeEA","equaldotanddens","randomdotsizeEA","equaldotsize","randomdotsizeEA","randomdotsizeEA","equaldotanddens","equaldotsize","equaldotsize"],"ratio_trial":[500,250,900,250,500,900,500,900,500,250,250,250,900,750,500,250,900,750,900,250,250,250,750,750,750,750,250,750,500,900,250,900,750,250,500,250,500,250,900,900,500,500,500,500,250,500,900,750,500,750,750,900,500,900,500,250,500,750,900,900,500,900,250,750,750,500,500,250,500,250,250,500,250,750,900,750,500,500,750,900,250,750,750,500,750,900,250,250,750,900,750,250,750,250,750,500,500,750,900,750,250,250,900,900,900,900,900,250,500,900,750,750,750,500,750,900,900,250,900,500],"smaller_num":["9","3","18","2","9","18","9","18","4","3","3","6","18","15","9","2","18","6","18","1","4","3","6","3","3","9","3","6","2","9","1","18","3","4","6","4","6","1","18","18","6","2","4","6","6","4","9","9","6","12","15","18","6","18","10","3","6","15","18","18","4","9","2","12","9","1","6","2","2","3","4","3","5","6","9","15","4","2","3","9","5","6","3","10","15","18","5","3","3","9","15","2","6","4","18","5","3","15","18","3","2","4","18","9","18","9","9","1","9","18","15","3","15","5","3","9","18","4","18","6"],"larger_num":["18","12","20","8","18","20","18","20","8","12","12","24","20","20","18","8","20","8","20","4","16","12","8","4","4","12","12","8","4","10","4","20","4","16","12","16","12","4","20","20","12","4","8","12","24","8","10","12","12","16","20","20","12","20","20","12","12","20","20","20","8","10","8","16","12","2","12","8","4","12","16","6","20","8","10","20","8","4","4","10","20","8","4","20","20","20","20","12","4","10","20","8","8","16","24","10","6","20","20","4","8","16","20","10","20","10","10","4","18","20","20","4","20","10","4","10","20","16","20","12"],"correct_side":[2,2,1,1,2,1,2,2,1,2,1,2,2,1,2,1,1,2,2,2,1,2,1,2,1,2,1,1,1,2,2,1,1,1,1,1,1,2,1,2,1,1,1,1,2,1,2,2,1,2,2,1,1,2,2,1,1,2,1,1,1,2,2,2,2,2,1,2,1,1,1,2,2,1,2,2,1,2,1,2,2,1,2,2,2,2,2,2,1,1,2,1,1,1,1,1,2,2,2,2,1,1,1,2,2,2,2,2,1,1,2,1,1,1,1,2,1,1,1,1],"img_shown":["img/500/equaldotsize/R/6_Ratio_500_L_9_R_18.png","img/250/equaldotanddens/R/4_Ratio_250_L_3_R_12.png","img/900/equaldotanddens/L/2_Ratio_900_L_20_R_18.png","img/250/equaldotsize/L/7_Ratio_250_L_8_R_2.png","img/500/equaldotanddens/R/1_Ratio_500_L_9_R_18.png","img/900/randomdotsizeEA/L/4_Ratio_900_L_20_R_18.png","img/500/equaldotanddens/R/6_Ratio_500_L_9_R_18.png","img/900/randomdotsizeEA/R/14_Ratio_900_L_18_R_20.png","img/500/randomdotsizeEA/L/8_Ratio_500_L_8_R_4.png","img/250/equaldotsize/R/9_Ratio_250_L_3_R_12.png","img/250/randomdotsizeEA/L/14_Ratio_250_L_12_R_3.png","img/250/equaldotanddens/R/6_Ratio_250_L_6_R_24.png","img/900/equaldotanddens/R/9_Ratio_900_L_18_R_20.png","img/750/equaldotsize/L/1_Ratio_750_L_20_R_15.png","img/500/equaldotanddens/R/6_Ratio_500_L_9_R_18.png","img/250/randomdotsizeEA/L/7_Ratio_250_L_8_R_2.png","img/900/equaldotsize/L/2_Ratio_900_L_20_R_18.png","img/750/equaldotanddens/R/2_Ratio_750_L_6_R_8.png","img/900/equaldotanddens/R/12_Ratio_900_L_18_R_20.png","img/250/equaldotsize/R/8_Ratio_250_L_1_R_4.png","img/250/equaldotsize/L/2_Ratio_250_L_16_R_4.png","img/250/equaldotanddens/R/4_Ratio_250_L_3_R_12.png","img/750/equaldotsize/L/13_Ratio_750_L_8_R_6.png","img/750/equaldotanddens/R/7_Ratio_750_L_3_R_4.png","img/750/equaldotanddens/L/10_Ratio_750_L_4_R_3.png","img/750/randomdotsizeEA/R/15_Ratio_750_L_9_R_12.png","img/250/randomdotsizeEA/L/15_Ratio_250_L_12_R_3.png","img/750/equaldotanddens/L/13_Ratio_750_L_8_R_6.png","img/500/randomdotsizeEA/L/10_Ratio_500_L_4_R_2.png","img/900/equaldotsize/R/15_Ratio_900_L_9_R_10.png","img/250/equaldotanddens/R/8_Ratio_250_L_1_R_4.png","img/900/equaldotsize/L/4_Ratio_900_L_20_R_18.png","img/750/randomdotsizeEA/L/9_Ratio_750_L_4_R_3.png","img/250/equaldotanddens/L/2_Ratio_250_L_16_R_4.png","img/500/equaldotsize/L/11_Ratio_500_L_12_R_6.png","img/250/equaldotsize/L/2_Ratio_250_L_16_R_4.png","img/500/randomdotsizeEA/L/11_Ratio_500_L_12_R_6.png","img/250/equaldotsize/R/8_Ratio_250_L_1_R_4.png","img/900/randomdotsizeEA/L/4_Ratio_900_L_20_R_18.png","img/900/equaldotsize/R/11_Ratio_900_L_18_R_20.png","img/500/equaldotanddens/L/13_Ratio_500_L_12_R_6.png","img/500/equaldotsize/L/5_Ratio_500_L_4_R_2.png","img/500/equaldotsize/L/8_Ratio_500_L_8_R_4.png","img/500/equaldotanddens/L/13_Ratio_500_L_12_R_6.png","img/250/equaldotanddens/R/6_Ratio_250_L_6_R_24.png","img/500/equaldotanddens/L/8_Ratio_500_L_8_R_4.png","img/900/equaldotsize/R/3_Ratio_900_L_9_R_10.png","img/750/randomdotsizeEA/R/15_Ratio_750_L_9_R_12.png","img/500/randomdotsizeEA/L/13_Ratio_500_L_12_R_6.png","img/750/equaldotsize/R/11_Ratio_750_L_12_R_16.png","img/750/equaldotanddens/R/5_Ratio_750_L_15_R_20.png","img/900/equaldotsize/L/2_Ratio_900_L_20_R_18.png","img/500/randomdotsizeEA/L/13_Ratio_500_L_12_R_6.png","img/900/equaldotanddens/R/14_Ratio_900_L_18_R_20.png","img/500/equaldotsize/R/3_Ratio_500_L_10_R_20.png","img/250/equaldotsize/L/14_Ratio_250_L_12_R_3.png","img/500/equaldotsize/L/11_Ratio_500_L_12_R_6.png","img/750/equaldotanddens/R/5_Ratio_750_L_15_R_20.png","img/900/equaldotsize/L/10_Ratio_900_L_20_R_18.png","img/900/equaldotanddens/L/2_Ratio_900_L_20_R_18.png","img/500/equaldotanddens/L/8_Ratio_500_L_8_R_4.png","img/900/equaldotanddens/R/15_Ratio_900_L_9_R_10.png","img/250/equaldotsize/R/13_Ratio_250_L_2_R_8.png","img/750/equaldotanddens/R/11_Ratio_750_L_12_R_16.png","img/750/equaldotsize/R/15_Ratio_750_L_9_R_12.png","img/500/randomdotsizeEA/R/15_Ratio_500_L_1_R_2.png","img/500/equaldotsize/L/13_Ratio_500_L_12_R_6.png","img/250/randomdotsizeEA/R/13_Ratio_250_L_2_R_8.png","img/500/randomdotsizeEA/L/10_Ratio_500_L_4_R_2.png","img/250/equaldotsize/L/15_Ratio_250_L_12_R_3.png","img/250/randomdotsizeEA/L/2_Ratio_250_L_16_R_4.png","img/500/randomdotsizeEA/R/2_Ratio_500_L_3_R_6.png","img/250/equaldotanddens/R/12_Ratio_250_L_5_R_20.png","img/750/equaldotsize/L/13_Ratio_750_L_8_R_6.png","img/900/equaldotanddens/R/7_Ratio_900_L_9_R_10.png","img/750/equaldotanddens/R/4_Ratio_750_L_15_R_20.png","img/500/equaldotanddens/L/8_Ratio_500_L_8_R_4.png","img/500/equaldotanddens/R/9_Ratio_500_L_2_R_4.png","img/750/equaldotsize/L/10_Ratio_750_L_4_R_3.png","img/900/randomdotsizeEA/R/3_Ratio_900_L_9_R_10.png","img/250/randomdotsizeEA/R/12_Ratio_250_L_5_R_20.png","img/750/equaldotsize/L/13_Ratio_750_L_8_R_6.png","img/750/equaldotsize/R/12_Ratio_750_L_3_R_4.png","img/500/equaldotsize/R/3_Ratio_500_L_10_R_20.png","img/750/randomdotsizeEA/R/5_Ratio_750_L_15_R_20.png","img/900/equaldotsize/R/11_Ratio_900_L_18_R_20.png","img/250/equaldotsize/R/12_Ratio_250_L_5_R_20.png","img/250/equaldotanddens/R/11_Ratio_250_L_3_R_12.png","img/750/randomdotsizeEA/L/10_Ratio_750_L_4_R_3.png","img/900/equaldotanddens/L/1_Ratio_900_L_10_R_9.png","img/750/randomdotsizeEA/R/3_Ratio_750_L_15_R_20.png","img/250/equaldotanddens/L/7_Ratio_250_L_8_R_2.png","img/750/equaldotanddens/L/14_Ratio_750_L_8_R_6.png","img/250/randomdotsizeEA/L/2_Ratio_250_L_16_R_4.png","img/750/equaldotsize/L/6_Ratio_750_L_24_R_18.png","img/500/equaldotsize/L/7_Ratio_500_L_10_R_5.png","img/500/randomdotsizeEA/R/2_Ratio_500_L_3_R_6.png","img/750/randomdotsizeEA/R/3_Ratio_750_L_15_R_20.png","img/900/equaldotanddens/R/13_Ratio_900_L_18_R_20.png","img/750/randomdotsizeEA/R/7_Ratio_750_L_3_R_4.png","img/250/randomdotsizeEA/L/1_Ratio_250_L_8_R_2.png","img/250/randomdotsizeEA/L/2_Ratio_250_L_16_R_4.png","img/900/randomdotsizeEA/L/10_Ratio_900_L_20_R_18.png","img/900/randomdotsizeEA/R/6_Ratio_900_L_9_R_10.png","img/900/equaldotsize/R/13_Ratio_900_L_18_R_20.png","img/900/equaldotanddens/R/6_Ratio_900_L_9_R_10.png","img/900/randomdotsizeEA/R/5_Ratio_900_L_9_R_10.png","img/250/randomdotsizeEA/R/8_Ratio_250_L_1_R_4.png","img/500/equaldotanddens/L/4_Ratio_500_L_18_R_9.png","img/900/randomdotsizeEA/L/2_Ratio_900_L_20_R_18.png","img/750/randomdotsizeEA/R/4_Ratio_750_L_15_R_20.png","img/750/randomdotsizeEA/L/9_Ratio_750_L_4_R_3.png","img/750/equaldotanddens/L/1_Ratio_750_L_20_R_15.png","img/500/randomdotsizeEA/L/7_Ratio_500_L_10_R_5.png","img/750/equaldotsize/L/10_Ratio_750_L_4_R_3.png","img/900/randomdotsizeEA/R/3_Ratio_900_L_9_R_10.png","img/900/randomdotsizeEA/L/4_Ratio_900_L_20_R_18.png","img/250/equaldotanddens/L/2_Ratio_250_L_16_R_4.png","img/900/equaldotsize/L/10_Ratio_900_L_20_R_18.png","img/500/equaldotsize/L/13_Ratio_500_L_12_R_6.png"],"Rat0":[["12_Ratio_0_L_9_R_0.png","13_Ratio_0_L_6_R_0.png","5_Ratio_0_L_2_R_0.png","6_Ratio_0_L_4_R_0.png","8_Ratio_0_L_6_R_0.png"],["1_Ratio_0_L_0_R_17.png","10_Ratio_0_L_0_R_22.png","11_Ratio_0_L_0_R_1.png","14_Ratio_0_L_0_R_24.png","15_Ratio_0_L_0_R_4.png","2_Ratio_0_L_0_R_5.png","3_Ratio_0_L_0_R_17.png","4_Ratio_0_L_0_R_7.png","7_Ratio_0_L_0_R_19.png","9_Ratio_0_L_0_R_15.png"]],"Rat250":[["1_Ratio_250_L_8_R_2.png","14_Ratio_250_L_12_R_3.png","15_Ratio_250_L_12_R_3.png","2_Ratio_250_L_16_R_4.png","3_Ratio_250_L_8_R_2.png","5_Ratio_250_L_24_R_6.png","7_Ratio_250_L_8_R_2.png"],["10_Ratio_250_L_4_R_16.png","11_Ratio_250_L_3_R_12.png","12_Ratio_250_L_5_R_20.png","13_Ratio_250_L_2_R_8.png","4_Ratio_250_L_3_R_12.png","6_Ratio_250_L_6_R_24.png","8_Ratio_250_L_1_R_4.png","9_Ratio_250_L_3_R_12.png"]],"Rat500":[["10_Ratio_500_L_4_R_2.png","11_Ratio_500_L_12_R_6.png","13_Ratio_500_L_12_R_6.png","4_Ratio_500_L_18_R_9.png","5_Ratio_500_L_4_R_2.png","7_Ratio_500_L_10_R_5.png","8_Ratio_500_L_8_R_4.png"],["1_Ratio_500_L_9_R_18.png","12_Ratio_500_L_1_R_2.png","14_Ratio_500_L_5_R_10.png","15_Ratio_500_L_1_R_2.png","2_Ratio_500_L_3_R_6.png","3_Ratio_500_L_10_R_20.png","6_Ratio_500_L_9_R_18.png","9_Ratio_500_L_2_R_4.png"]],"Rat750":[["1_Ratio_750_L_20_R_15.png","10_Ratio_750_L_4_R_3.png","13_Ratio_750_L_8_R_6.png","14_Ratio_750_L_8_R_6.png","6_Ratio_750_L_24_R_18.png","8_Ratio_750_L_4_R_3.png","9_Ratio_750_L_4_R_3.png"],["11_Ratio_750_L_12_R_16.png","12_Ratio_750_L_3_R_4.png","15_Ratio_750_L_9_R_12.png","2_Ratio_750_L_6_R_8.png","3_Ratio_750_L_15_R_20.png","4_Ratio_750_L_15_R_20.png","5_Ratio_750_L_15_R_20.png","7_Ratio_750_L_3_R_4.png"]],"Rat900":[["1_Ratio_900_L_10_R_9.png","10_Ratio_900_L_20_R_18.png","2_Ratio_900_L_20_R_18.png","4_Ratio_900_L_20_R_18.png","8_Ratio_900_L_20_R_18.png"],["11_Ratio_900_L_18_R_20.png","12_Ratio_900_L_18_R_20.png","13_Ratio_900_L_18_R_20.png","14_Ratio_900_L_18_R_20.png","15_Ratio_900_L_9_R_10.png","3_Ratio_900_L_9_R_10.png","5_Ratio_900_L_9_R_10.png","6_Ratio_900_L_9_R_10.png","7_Ratio_900_L_9_R_10.png","9_Ratio_900_L_18_R_20.png"]],"Rat1000":[["10_Ratio_1000_L_16_R_16.png","11_Ratio_1000_L_6_R_6.png","12_Ratio_1000_L_14_R_14.png","13_Ratio_1000_L_20_R_20.png","15_Ratio_1000_L_15_R_15.png","2_Ratio_1000_L_17_R_17.png","4_Ratio_1000_L_9_R_9.png","5_Ratio_1000_L_6_R_6.png","6_Ratio_1000_L_19_R_19.png","8_Ratio_1000_L_14_R_14.png","9_Ratio_1000_L_25_R_25.png"],["1_Ratio_1000_L_1_R_1.png","14_Ratio_1000_L_17_R_17.png","3_Ratio_1000_L_17_R_17.png","7_Ratio_1000_L_6_R_6.png"]]}},{"start_time":1551882950109,"click_time":1551882951160,"finger_time":1551882950579,"fix_duration":907.5146349136942,"trial":1,"RT":470,"MT":581,"sideResp":2,"stimulus":"img/250/equaldotanddens/R/4_Ratio_250_L_3_R_12.png","xmouse":[774,774,774,774,774,774,774,774,774,774,774,774,774,774,774,774,774,774,774,775,777,781,786,792,802,828,841,857,881,909,922,934,945,954,967,977,992,1017,1035,1053,1057,1060,1062,1066,1069,1074,1074,1076,1078,1083,1086,1090,1092],"ymouse":[532,532,532,532,532,532,532,532,532,532,532,532,532,532,532,532,532,532,532,532,525,509,489,469,430,356,332,305,275,247,237,230,224,219,212,207,199,187,176,164,160,156,153,148,143,137,136,132,128,118,112,104,96],"timestamp_mouse":[10,41,50,71,90,111,130,151,171,190,211,231,251,270,291,310,330,350,371,390,412,430,450,470,491,510,530,551,572,591,610,630,650,670,690,710,730,750,770,790,810,830,850,870,891,910,930,950,970,991,1010,1030,1050],"xSR":741.5,"ySR":469.95,"xT1":424.9,"yT1":0,"xT2":1058.1,"yT2":0,"toosoon":0,"cond_shown":"equaldotanddens","ratio_trial":250,"smaller_num":"3","larger_num":"12","correct_side":2,"subjID":"samuelsolerlozano36","gender":"0","age":"11","school":"6"},{"start_time":1551882952362,"click_time":1551882953400,"finger_time":1551882952999,"fix_duration":320.3075842237081,"trial":2,"RT":637,"MT":401,"sideResp":1,"stimulus":"img/900/equaldotanddens/L/2_Ratio_900_L_20_R_18.png","xmouse":[822,822,822,822,822,822,822,822,822,822,822,822,822,822,822,822,822,822,822,822,819,818,818,817,817,817,813,803,798,791,785,767,754,741,725,710,697,690,679,668,655,644,631,626,620,609,585,575,570,561,549,521],"ymouse":[533,533,533,533,533,533,533,533,533,533,533,533,533,533,533,533,533,533,533,533,533,533,533,533,533,533,527,513,504,495,485,454,432,408,385,356,327,312,296,280,265,250,230,222,212,197,171,160,149,135,118,83],"timestamp_mouse":[17,40,58,79,98,118,137,158,178,198,218,238,258,278,297,317,337,358,377,397,418,438,457,477,497,517,537,558,577,597,617,637,657,677,698,717,737,757,778,797,817,837,857,877,897,917,938,958,977,998,1017,1038],"xSR":741.5,"ySR":469.95,"xT1":424.9,"yT1":0,"xT2":1058.1,"yT2":0,"toosoon":0,"cond_shown":"equaldotanddens","ratio_trial":900,"smaller_num":"18","larger_num":"20","correct_side":1,"subjID":"samuelsolerlozano36","gender":"0","age":"11","school":"6"},{"start_time":1551882954505,"click_time":1551882955619,"finger_time":1551882954860,"fix_duration":344.173119611461,"trial":3,"RT":355,"MT":759,"sideResp":1,"stimulus":"img/250/equaldotsize/L/7_Ratio_250_L_8_R_2.png","xmouse":[754,754,754,753,752,750,750,749,749,748,747,747,746,745,743,743,742,741,737,735,735,735,735,735,735,735,735,735,735,735,735,735,736,742,742,731,721,717,708,698,691,682,671,663,654,641,632,619,596,558,540,525,515,509,492,483],"ymouse":[525,524,524,524,524,523,523,522,522,522,522,522,522,522,522,522,521,521,520,519,519,519,519,519,519,519,519,519,519,519,519,514,482,439,400,339,302,291,262,237,224,208,196,187,180,173,168,162,148,128,120,114,111,110,103,97],"timestamp_mouse":[14,50,54,74,95,114,134,154,174,195,215,234,254,274,295,314,336,355,374,395,414,434,455,475,494,515,534,555,574,594,614,634,654,675,694,714,734,754,774,794,814,834,855,875,895,914,935,954,975,995,1014,1034,1055,1074,1094,1114],"xSR":741.5,"ySR":469.95,"xT1":424.9,"yT1":0,"xT2":1058.1,"yT2":0,"toosoon":0,"cond_shown":"equaldotsize","ratio_trial":250,"smaller_num":"2","larger_num":"8","correct_side":1,"subjID":"samuelsolerlozano36","gender":"0","age":"11","school":"6"},{"start_time":1551882956800,"click_time":1551882957800,"finger_time":1551882957420,"fix_duration":398.6945059925524,"trial":4,"RT":620,"MT":380,"sideResp":2,"stimulus":"img/500/equaldotanddens/R/1_Ratio_500_L_9_R_18.png","xmouse":[763,763,763,765,767,768,768,768,768,768,768,768,768,768,768,768,768,768,768,768,768,768,768,768,768,768,768,768,770,770,774,777,781,786,799,828,842,856,870,887,915,927,937,943,964,978,1003,1019,1036,1056,1090],"ymouse":[507,507,507,507,507,507,507,507,507,507,507,507,507,507,507,507,507,507,507,507,507,507,507,507,507,507,507,507,504,498,471,454,440,422,394,341,318,296,277,257,223,210,201,189,159,141,117,108,100,94,85],"timestamp_mouse":[1,33,39,59,79,100,120,141,159,179,199,219,239,260,279,299,319,339,359,379,399,420,439,459,479,500,519,539,560,579,600,620,640,659,679,700,719,739,760,779,799,819,839,859,879,900,919,939,960,980,1000],"xSR":741.5,"ySR":469.95,"xT1":424.9,"yT1":0,"xT2":1058.1,"yT2":0,"toosoon":0,"cond_shown":"equaldotanddens","ratio_trial":500,"smaller_num":"9","larger_num":"18","correct_side":2,"subjID":"samuelsolerlozano36","gender":"0","age":"11","school":"6"},{"start_time":1551882959468,"click_time":1551882960460,"finger_time":1551882960099,"fix_duration":967.0595273419798,"trial":5,"RT":631,"MT":361,"sideResp":1,"stimulus":"img/900/randomdotsizeEA/L/4_Ratio_900_L_20_R_18.png","xmouse":[804,804,804,804,804,804,804,804,804,804,804,804,804,804,804,804,805,805,806,806,806,806,806,806,806,806,806,806,806,806,806,794,785,775,767,759,745,738,728,718,701,679,667,655,640,619,589,540,523,515],"ymouse":[504,504,504,504,504,504,504,504,504,504,504,504,504,504,504,504,504,504,504,504,504,504,504,504,504,504,504,504,504,500,493,464,447,424,401,377,337,320,305,287,262,231,215,198,179,158,138,112,101,96],"timestamp_mouse":[11,34,51,71,92,112,131,151,171,191,212,232,251,271,292,311,331,352,371,392,411,431,452,471,491,512,531,551,572,591,611,631,651,672,691,711,731,751,772,791,811,832,851,871,891,912,932,951,972,992],"xSR":741.5,"ySR":469.95,"xT1":424.9,"yT1":0,"xT2":1058.1,"yT2":0,"toosoon":0,"cond_shown":"randomdotsizeEA","ratio_trial":900,"smaller_num":"18","larger_num":"20","correct_side":1,"subjID":"samuelsolerlozano36","gender":"0","age":"11","school":"6"},{"start_time":1551882962492,"click_time":1551882963400,"finger_time":1551882963020,"fix_duration":1252.4654041660583,"trial":6,"RT":528,"MT":380,"sideResp":2,"stimulus":"img/500/equaldotanddens/R/6_Ratio_500_L_9_R_18.png","xmouse":[767,767,767,767,767,767,767,767,767,767,767,767,767,767,767,767,767,767,767,767,767,767,767,768,768,768,775,793,804,817,849,869,893,916,938,971,983,997,1007,1022,1039,1049,1062,1071,1077,1080],"ymouse":[523,523,523,523,523,523,523,523,523,523,523,523,523,523,523,523,523,523,523,523,523,523,523,514,506,489,432,384,360,339,300,285,270,259,248,224,213,201,191,173,151,136,122,111,101,93],"timestamp_mouse":[9,38,47,67,87,107,127,148,167,187,207,227,248,267,287,308,327,347,368,388,407,427,448,468,488,507,528,548,567,587,607,627,647,667,687,707,727,747,768,787,807,827,847,868,888,907],"xSR":741.5,"ySR":469.95,"xT1":424.9,"yT1":0,"xT2":1058.1,"yT2":0,"toosoon":0,"cond_shown":"equaldotanddens","ratio_trial":500,"smaller_num":"9","larger_num":"18","correct_side":2,"subjID":"samuelsolerlozano36","gender":"0","age":"11","school":"6"},{"start_time":1551882965551,"click_time":1551882966859,"finger_time":1551882966239,"fix_duration":1449.4495742832908,"trial":7,"RT":688,"MT":620,"sideResp":2,"stimulus":"img/900/randomdotsizeEA/R/14_Ratio_900_L_18_R_20.png","xmouse":[818,818,818,818,818,818,818,818,818,818,818,818,818,818,818,818,818,818,818,818,818,818,818,818,818,818,819,820,821,822,822,823,827,830,837,844,858,881,896,908,921,933,954,963,974,984,996,999,1006,1009,1017,1025,1050,1061,1069,1075,1080,1083,1089,1094,1096,1099,1102,1103,1104,1105],"ymouse":[542,542,542,542,542,542,542,542,542,542,542,542,542,542,542,542,542,542,542,542,542,542,542,542,542,542,542,541,538,535,531,525,496,475,452,432,400,361,341,324,305,289,260,245,232,219,206,204,197,194,188,182,164,155,146,139,133,130,124,120,117,114,107,106,102,98],"timestamp_mouse":[9,40,48,69,89,109,129,148,169,188,208,229,249,269,288,309,328,348,368,389,409,428,449,469,488,509,528,549,568,588,608,629,649,668,688,708,729,748,768,788,809,828,849,868,888,908,930,948,968,988,1008,1029,1048,1068,1088,1108,1128,1148,1168,1188,1208,1229,1249,1269,1288,1308],"xSR":741.5,"ySR":469.95,"xT1":424.9,"yT1":0,"xT2":1058.1,"yT2":0,"toosoon":0,"cond_shown":"randomdotsizeEA","ratio_trial":900,"smaller_num":"18","larger_num":"20","correct_side":2,"subjID":"samuelsolerlozano36","gender":"0","age":"11","school":"6"},{"start_time":1551882968641,"click_time":1551882969799,"finger_time":1551882969340,"fix_duration":960.1427623507107,"trial":8,"RT":699,"MT":459,"sideResp":2,"stimulus":"img/500/randomdotsizeEA/L/8_Ratio_500_L_8_R_4.png","xmouse":[788,788,788,788,788,788,788,788,788,788,788,788,788,788,788,788,788,788,788,788,788,788,788,788,788,788,788,788,788,788,788,788,790,793,796,803,813,839,851,860,869,885,916,931,947,961,970,991,1000,1012,1028,1036,1043,1044,1046,1051,1058,1064],"ymouse":[515,515,515,515,515,515,515,515,515,515,515,515,515,515,515,515,515,515,515,515,515,515,515,515,515,515,515,515,515,515,515,515,504,482,457,434,398,339,310,288,267,239,201,184,168,157,149,133,126,120,111,105,101,101,100,100,98,95],"timestamp_mouse":[19,39,59,78,98,119,138,158,179,198,218,239,258,278,298,318,339,359,379,398,418,439,458,478,499,518,538,559,579,599,620,638,658,679,699,718,738,758,778,798,818,839,858,878,898,919,938,959,978,998,1018,1039,1058,1078,1099,1119,1138,1158],"xSR":741.5,"ySR":469.95,"xT1":424.9,"yT1":0,"xT2":1058.1,"yT2":0,"toosoon":0,"cond_shown":"randomdotsizeEA","ratio_trial":500,"smaller_num":"4","larger_num":"8","correct_side":1,"subjID":"samuelsolerlozano36","gender":"0","age":"11","school":"6"},{"start_time":1551882973506,"click_time":1551882974659,"finger_time":1551882974320,"fix_duration":1364.2877543949703,"trial":9,"RT":814,"MT":339,"sideResp":2,"stimulus":"img/250/equaldotsize/R/9_Ratio_250_L_3_R_12.png","xmouse":[794,794,794,794,794,794,794,794,794,794,794,794,794,794,794,794,794,794,794,794,794,794,794,794,794,794,794,794,794,794,794,794,794,794,794,794,794,800,816,835,856,862,881,894,907,916,929,944,963,985,1002,1018,1030,1036,1045,1052,1058,1065],"ymouse":[506,506,506,506,506,506,506,506,506,506,506,506,506,506,506,506,506,506,506,506,506,506,506,506,506,506,506,506,506,506,506,506,506,506,506,506,506,504,496,488,462,439,374,310,214,172,140,120,94,67,53,39,28,23,20,20,20,20],"timestamp_mouse":[20,43,53,73,93,113,133,154,173,193,213,233,254,274,295,313,333,353,374,393,413,434,453,473,493,513,533,553,574,593,614,634,653,673,693,713,735,754,774,793,814,833,854,874,894,913,934,954,973,994,1013,1033,1054,1073,1093,1113,1133,1153],"xSR":741.5,"ySR":469.95,"xT1":424.9,"yT1":0,"xT2":1058.1,"yT2":0,"toosoon":0,"cond_shown":"equaldotsize","ratio_trial":250,"smaller_num":"3","larger_num":"12","correct_side":2,"subjID":"samuelsolerlozano36","gender":"0","age":"11","school":"6"},{"start_time":1551882976496,"click_time":1551882977519,"finger_time":1551882977199,"fix_duration":895.490017381688,"trial":10,"RT":703,"MT":320,"sideResp":1,"stimulus":"img/250/randomdotsizeEA/L/14_Ratio_250_L_12_R_3.png","xmouse":[791,791,791,791,791,791,791,791,791,791,791,791,791,791,791,791,791,791,791,791,791,791,791,791,791,791,791,791,791,791,791,791,793,793,783,772,739,712,702,666,640,610,610,610,610,610,610,610,610,610,610,486],"ymouse":[526,526,526,526,526,526,526,526,526,526,526,526,526,526,526,526,526,526,526,526,526,526,526,526,526,526,526,526,526,526,526,526,526,516,477,434,305,210,179,99,54,10,10,10,10,10,10,10,10,10,10,27],"timestamp_mouse":[9,34,44,63,84,104,123,144,163,183,204,224,245,264,284,303,324,344,363,383,403,424,444,463,484,503,523,544,563,583,603,623,643,663,683,703,723,743,764,783,803,823,843,863,883,903,924,943,963,983,1003,1023],"xSR":741.5,"ySR":469.95,"xT1":424.9,"yT1":0,"xT2":1058.1,"yT2":0,"toosoon":0,"cond_shown":"randomdotsizeEA","ratio_trial":250,"smaller_num":"3","larger_num":"12","correct_side":1,"subjID":"samuelsolerlozano36","gender":"0","age":"11","school":"6"},{"start_time":1551882980541,"click_time":1551882981359,"finger_time":1551882981139,"fix_duration":680.9213210585143,"trial":11,"RT":598,"MT":220,"sideResp":2,"stimulus":"img/250/equaldotanddens/R/6_Ratio_250_L_6_R_24.png","xmouse":[754,754,754,754,754,754,754,754,754,754,754,754,754,754,754,754,754,754,754,754,754,754,754,754,754,754,754,766,774,781,784,787,833,873,912,954,968,1011,1027,1047,1079],"ymouse":[532,532,532,532,532,532,532,532,532,532,532,532,532,532,532,532,532,532,532,532,532,532,532,532,532,532,532,513,491,468,448,425,322,259,212,162,147,88,71,54,39],"timestamp_mouse":[18,41,58,78,98,119,138,158,178,199,218,238,258,279,298,319,338,359,379,398,419,439,458,478,498,518,539,558,578,598,619,639,658,678,698,718,739,758,778,798,818],"xSR":741.5,"ySR":469.95,"xT1":424.9,"yT1":0,"xT2":1058.1,"yT2":0,"toosoon":0,"cond_shown":"equaldotanddens","ratio_trial":250,"smaller_num":"6","larger_num":"24","correct_side":2,"subjID":"samuelsolerlozano36","gender":"0","age":"11","school":"6"},{"start_time":1551882983559,"click_time":1551882984619,"finger_time":1551882984080,"fix_duration":1437.7583414796159,"trial":12,"RT":521,"MT":539,"sideResp":1,"stimulus":"img/900/equaldotanddens/R/9_Ratio_900_L_18_R_20.png","xmouse":[757,757,757,757,757,757,757,757,757,757,757,757,757,757,757,757,757,758,763,763,763,763,763,763,763,764,766,769,774,777,777,777,770,747,736,725,713,692,674,655,636,616,580,563,550,542,537,536,536,536,536,535,527,522],"ymouse":[507,507,507,507,507,507,507,507,507,507,507,507,507,507,507,507,507,507,497,495,494,493,485,478,474,470,461,452,415,378,340,296,249,160,124,95,71,49,44,42,40,40,43,51,58,64,68,69,69,69,69,69,69,69],"timestamp_mouse":[8,20,40,61,80,101,120,140,160,180,201,220,242,260,281,301,320,340,360,380,400,421,441,460,480,501,521,541,560,580,601,620,640,660,680,700,720,741,761,780,800,821,840,860,881,900,920,941,961,980,1001,1020,1040,1060],"xSR":741.5,"ySR":469.95,"xT1":424.9,"yT1":0,"xT2":1058.1,"yT2":0,"toosoon":0,"cond_shown":"equaldotanddens","ratio_trial":900,"smaller_num":"18","larger_num":"20","correct_side":2,"subjID":"samuelsolerlozano36","gender":"0","age":"11","school":"6"},{"start_time":1551882986680,"click_time":1551882987639,"finger_time":1551882987320,"fix_duration":1078.2123012510947,"trial":13,"RT":640,"MT":319,"sideResp":1,"stimulus":"img/750/equaldotsize/L/1_Ratio_750_L_20_R_15.png","xmouse":[785,785,785,785,785,785,785,785,785,785,785,785,785,785,785,785,785,785,785,785,785,785,785,785,785,785,785,784,784,783,782,779,766,754,740,726,702,685,668,646,633,609,597,586,575,566,548,537,523],"ymouse":[523,523,523,523,523,523,523,523,523,523,523,523,523,523,523,521,519,517,515,513,510,507,502,500,499,498,496,495,494,494,490,482,445,404,355,301,230,185,144,104,86,69,67,66,66,66,67,67,68],"timestamp_mouse":[1,19,39,68,80,99,120,140,159,179,199,219,240,260,280,300,319,339,360,380,399,419,440,460,479,499,519,539,559,579,600,619,640,660,679,699,719,739,759,779,799,819,839,859,879,900,919,939,959],"xSR":741.5,"ySR":469.95,"xT1":424.9,"yT1":0,"xT2":1058.1,"yT2":0,"toosoon":0,"cond_shown":"equaldotsize","ratio_trial":750,"smaller_num":"15","larger_num":"20","correct_side":1,"subjID":"samuelsolerlozano36","gender":"0","age":"11","school":"6"},{"start_time":1551882989138,"click_time":1551882990319,"finger_time":1551882989800,"fix_duration":437.2780377258911,"trial":14,"RT":662,"MT":519,"sideResp":2,"stimulus":"img/500/equaldotanddens/R/6_Ratio_500_L_9_R_18.png","xmouse":[780,780,780,780,780,780,780,780,780,780,780,780,780,780,780,780,780,780,780,780,780,780,780,780,780,780,780,780,780,782,783,785,788,795,801,810,819,839,871,885,898,910,925,958,969,981,984,997,1019,1027,1032,1033,1036,1050,1058,1068,1078,1086,1093,1095],"ymouse":[515,515,515,515,515,515,514,514,514,513,512,512,511,511,511,511,511,511,511,511,511,511,511,510,508,508,507,507,505,501,495,489,479,447,428,410,391,356,301,275,253,233,212,167,155,147,145,136,123,119,116,115,114,110,109,108,106,104,100,98],"timestamp_mouse":[9,31,41,62,82,103,121,141,161,181,201,221,241,262,283,302,322,341,361,381,402,421,441,461,481,501,521,541,561,582,601,622,642,662,681,702,721,741,762,781,802,822,841,862,881,902,921,942,961,981,1001,1021,1042,1061,1081,1102,1122,1141,1161,1181],"xSR":741.5,"ySR":469.95,"xT1":424.9,"yT1":0,"xT2":1058.1,"yT2":0,"toosoon":0,"cond_shown":"equaldotanddens","ratio_trial":500,"smaller_num":"9","larger_num":"18","correct_side":2,"subjID":"samuelsolerlozano36","gender":"0","age":"11","school":"6"},{"start_time":1551882991563,"click_time":1551882992719,"finger_time":1551882992320,"fix_duration":263.4880307577543,"trial":15,"RT":757,"MT":399,"sideResp":1,"stimulus":"img/250/randomdotsizeEA/L/7_Ratio_250_L_8_R_2.png","xmouse":[815,815,815,815,815,815,814,814,813,813,813,812,812,812,812,812,812,812,812,811,811,810,807,806,806,806,806,806,806,806,805,802,799,795,788,782,779,769,759,750,741,718,700,681,666,661,662,663,663,658,650,626,614,600,594,572,538,521],"ymouse":[545,545,545,545,545,545,545,545,546,546,546,546,546,546,546,546,546,546,546,546,546,546,546,544,544,544,544,544,544,544,544,541,537,529,517,505,494,462,439,413,386,322,279,238,203,180,160,148,135,124,115,96,90,86,84,81,74,69],"timestamp_mouse":[17,36,57,77,97,116,135,156,177,196,217,237,257,276,296,316,337,356,377,396,417,436,457,476,497,517,536,556,577,597,617,637,656,677,696,717,736,757,776,796,816,837,856,876,897,916,937,956,976,996,1016,1037,1056,1077,1097,1116,1136,1156],"xSR":741.5,"ySR":469.95,"xT1":424.9,"yT1":0,"xT2":1058.1,"yT2":0,"toosoon":0,"cond_shown":"randomdotsizeEA","ratio_trial":250,"smaller_num":"2","larger_num":"8","correct_side":1,"subjID":"samuelsolerlozano36","gender":"0","age":"11","school":"6"},{"start_time":1551882994248,"click_time":1551882995279,"finger_time":1551882994899,"fix_duration":746.0303481357396,"trial":16,"RT":651,"MT":380,"sideResp":1,"stimulus":"img/900/equaldotsize/L/2_Ratio_900_L_20_R_18.png","xmouse":[782,782,782,782,782,782,782,782,782,782,782,782,782,782,782,782,782,782,782,782,782,782,782,782,782,782,782,782,782,782,781,774,762,709,686,672,661,649,642,634,628,624,600,588,577,563,553,543,536,530,526,521],"ymouse":[498,498,498,498,498,498,498,498,498,498,498,498,498,498,498,498,498,498,498,498,498,498,498,498,498,498,498,498,498,499,498,479,453,344,288,246,210,170,156,142,132,124,86,69,58,48,43,38,35,35,35,36],"timestamp_mouse":[11,43,51,71,91,112,132,151,172,192,212,231,251,271,291,311,331,353,371,392,412,431,452,472,492,511,531,552,571,591,611,631,651,672,691,711,732,751,771,791,811,832,851,871,891,912,931,951,971,991,1011,1031],"xSR":741.5,"ySR":469.95,"xT1":424.9,"yT1":0,"xT2":1058.1,"yT2":0,"toosoon":0,"cond_shown":"equaldotsize","ratio_trial":900,"smaller_num":"18","larger_num":"20","correct_side":1,"subjID":"samuelsolerlozano36","gender":"0","age":"11","school":"6"},{"start_time":1551882998073,"click_time":1551882999019,"finger_time":1551882998739,"fix_duration":351.1477175994121,"trial":17,"RT":666,"MT":280,"sideResp":1,"stimulus":"img/750/equaldotanddens/R/2_Ratio_750_L_6_R_8.png","xmouse":[791,791,791,791,791,791,791,791,791,791,791,791,791,791,791,791,791,791,791,791,791,791,791,791,791,791,791,791,791,791,790,782,773,759,745,732,716,702,682,660,630,598,585,574,563,555,531,519],"ymouse":[513,513,513,513,513,513,513,513,513,513,513,513,513,513,513,513,513,513,513,513,513,513,513,513,513,513,513,513,513,513,512,501,487,466,438,406,342,300,263,226,186,157,148,142,134,127,101,87],"timestamp_mouse":[8,42,47,66,87,106,127,147,166,187,207,226,247,266,286,306,327,346,367,387,407,426,446,467,486,506,527,547,566,587,606,626,647,666,686,706,727,746,766,787,807,827,845,866,886,906,926,946],"xSR":741.5,"ySR":469.95,"xT1":424.9,"yT1":0,"xT2":1058.1,"yT2":0,"toosoon":0,"cond_shown":"equaldotanddens","ratio_trial":750,"smaller_num":"6","larger_num":"8","correct_side":2,"subjID":"samuelsolerlozano36","gender":"0","age":"11","school":"6"},{"start_time":1551883002622,"click_time":1551883004020,"finger_time":1551883003400,"fix_duration":1221.44195543567,"trial":18,"RT":778,"MT":620,"sideResp":2,"stimulus":"img/900/equaldotanddens/R/12_Ratio_900_L_18_R_20.png","xmouse":[784,784,784,784,784,784,784,784,784,784,784,784,784,784,784,784,784,784,784,784,784,784,784,784,784,784,784,784,784,784,784,784,784,784,784,784,784,797,823,833,846,858,874,893,900,906,913,918,925,941,951,962,980,1015,1033,1044,1050,1054,1060,1065,1069,1074,1075,1075,1076,1077,1080,1082,1084,1085],"ymouse":[496,496,496,496,496,496,496,496,496,496,496,496,496,496,496,496,496,496,496,496,496,496,496,496,496,496,496,496,496,496,496,496,496,496,496,496,496,488,458,441,418,397,370,330,313,300,288,279,267,244,232,218,197,165,151,141,135,131,124,119,115,113,112,112,111,109,105,102,101,98],"timestamp_mouse":[17,37,57,78,97,118,137,157,178,197,217,237,258,277,297,318,337,358,377,397,417,438,457,478,497,517,537,558,577,597,617,637,657,677,697,717,738,758,778,797,817,838,857,878,897,917,937,957,977,997,1017,1038,1057,1077,1097,1117,1137,1157,1177,1197,1217,1237,1257,1278,1298,1317,1337,1357,1377,1397],"xSR":741.5,"ySR":469.95,"xT1":424.9,"yT1":0,"xT2":1058.1,"yT2":0,"toosoon":0,"cond_shown":"equaldotanddens","ratio_trial":900,"smaller_num":"18","larger_num":"20","correct_side":2,"subjID":"samuelsolerlozano36","gender":"0","age":"11","school":"6"},{"start_time":1551883006135,"click_time":1551883007761,"finger_time":1551883007200,"fix_duration":1213.4044406097496,"trial":19,"RT":1065,"MT":561,"sideResp":2,"stimulus":"img/250/equaldotsize/R/8_Ratio_250_L_1_R_4.png","xmouse":[811,811,811,811,811,811,811,811,811,811,811,811,811,811,811,811,811,811,811,811,811,811,811,814,817,818,818,819,819,819,819,819,819,819,819,819,819,819,819,819,819,819,819,819,819,819,819,819,819,819,819,819,818,806,800,799,799,801,807,809,812,818,828,861,877,883,897,908,935,950,961,971,979,998,1012,1029,1043,1063,1073,1095,1105,1117],"ymouse":[499,499,499,499,499,499,499,499,499,499,499,499,499,499,499,499,499,499,499,499,499,499,499,490,486,484,482,480,479,479,479,479,479,479,479,479,479,479,479,479,479,479,479,479,479,479,479,479,479,479,479,479,471,451,441,434,429,418,408,403,398,390,378,348,329,321,300,286,261,250,242,232,224,203,192,180,169,153,143,117,105,91],"timestamp_mouse":[8,34,46,65,85,106,125,145,165,185,205,225,245,266,286,305,324,345,366,384,406,426,446,465,484,505,525,546,564,586,605,625,646,666,685,704,726,746,765,786,805,826,845,865,884,906,924,946,965,985,1006,1024,1046,1065,1084,1104,1125,1145,1165,1184,1205,1225,1245,1265,1284,1304,1324,1346,1364,1385,1405,1425,1445,1465,1485,1506,1526,1545,1565,1585,1606,1626],"xSR":741.5,"ySR":469.95,"xT1":424.9,"yT1":0,"xT2":1058.1,"yT2":0,"toosoon":0,"cond_shown":"equaldotsize","ratio_trial":250,"smaller_num":"1","larger_num":"4","correct_side":2,"subjID":"samuelsolerlozano36","gender":"0","age":"11","school":"6"},{"start_time":1551883009277,"click_time":1551883010220,"finger_time":1551883009860,"fix_duration":676.3219168699441,"trial":20,"RT":583,"MT":360,"sideResp":1,"stimulus":"img/250/equaldotsize/L/2_Ratio_250_L_16_R_4.png","xmouse":[772,772,772,772,772,772,772,772,772,772,772,772,772,772,772,772,772,772,772,772,772,772,772,772,772,771,767,761,752,741,725,711,703,695,689,679,662,653,644,634,623,593,579,566,554,543,539,522],"ymouse":[517,517,517,517,517,517,517,517,517,517,517,517,517,517,517,517,517,517,517,517,517,517,517,517,517,517,509,494,473,451,415,377,358,339,320,301,266,249,233,218,202,165,148,128,112,97,88,62],"timestamp_mouse":[9,37,43,63,84,102,122,143,162,183,202,223,244,263,283,303,324,343,363,383,404,423,442,463,482,503,523,543,563,583,604,623,643,663,683,702,724,742,763,782,803,824,842,864,884,903,922,942],"xSR":741.5,"ySR":469.95,"xT1":424.9,"yT1":0,"xT2":1058.1,"yT2":0,"toosoon":0,"cond_shown":"equaldotsize","ratio_trial":250,"smaller_num":"4","larger_num":"16","correct_side":1,"subjID":"samuelsolerlozano36","gender":"0","age":"11","school":"6"},{"start_time":1551883011976,"click_time":1551883012801,"finger_time":1551883012581,"fix_duration":1153.919125384121,"trial":21,"RT":605,"MT":220,"sideResp":2,"stimulus":"img/250/equaldotanddens/R/4_Ratio_250_L_3_R_12.png","xmouse":[771,771,771,771,771,771,771,771,771,771,771,771,771,771,771,771,771,771,771,771,771,771,771,771,771,771,767,767,768,782,802,845,865,884,909,927,967,985,999,1020,1037,1061],"ymouse":[527,527,527,527,527,527,527,527,527,527,527,527,527,527,527,527,527,527,527,527,527,527,527,527,527,527,527,527,520,471,401,286,247,220,186,166,126,107,96,84,75,65],"timestamp_mouse":[9,39,45,65,84,104,125,145,164,183,204,223,245,264,284,304,324,344,364,385,405,424,445,465,484,504,525,545,565,584,605,624,644,663,685,704,724,744,764,785,805,825],"xSR":741.5,"ySR":469.95,"xT1":424.9,"yT1":0,"xT2":1058.1,"yT2":0,"toosoon":0,"cond_shown":"equaldotanddens","ratio_trial":250,"smaller_num":"3","larger_num":"12","correct_side":2,"subjID":"samuelsolerlozano36","gender":"0","age":"11","school":"6"},{"start_time":1551883015099,"click_time":1551883015860,"finger_time":1551883015680,"fix_duration":1398.666205734498,"trial":22,"RT":581,"MT":180,"sideResp":1,"stimulus":"img/750/equaldotsize/L/13_Ratio_750_L_8_R_6.png","xmouse":[788,788,788,788,788,788,788,788,788,788,788,788,788,788,788,788,788,788,788,788,788,788,788,788,788,788,788,785,772,754,727,687,679,671,661,626,595,561,501],"ymouse":[521,521,521,521,521,521,521,521,521,521,521,521,521,521,521,521,521,521,521,521,521,521,521,521,521,521,521,515,495,465,414,316,288,262,239,190,163,136,94],"timestamp_mouse":[11,20,40,62,81,100,121,141,162,180,201,220,242,261,282,301,321,341,361,381,400,421,441,460,481,501,521,541,562,581,601,620,641,661,681,701,720,741,761],"xSR":741.5,"ySR":469.95,"xT1":424.9,"yT1":0,"xT2":1058.1,"yT2":0,"toosoon":0,"cond_shown":"equaldotsize","ratio_trial":750,"smaller_num":"6","larger_num":"8","correct_side":1,"subjID":"samuelsolerlozano36","gender":"0","age":"11","school":"6"},{"start_time":1551883017175,"click_time":1551883018200,"finger_time":1551883017880,"fix_duration":634.6289408955937,"trial":23,"RT":705,"MT":320,"sideResp":2,"stimulus":"img/750/equaldotanddens/R/7_Ratio_750_L_3_R_4.png","xmouse":[764,764,764,764,764,764,764,764,764,764,764,764,764,764,764,764,764,764,764,764,764,764,764,764,764,764,764,764,764,764,765,767,773,786,808,823,857,880,906,938,971,1020,1028,1034,1039,1052,1074,1079,1082,1083,1085,1093],"ymouse":[538,538,538,538,538,538,538,538,538,538,538,538,538,538,538,538,538,538,538,538,538,538,538,538,538,538,538,538,538,538,538,538,531,517,486,462,409,378,346,312,282,238,226,215,202,174,138,128,121,116,110,90],"timestamp_mouse":[8,24,46,65,86,105,124,145,165,184,204,224,246,264,284,305,325,344,365,385,405,425,444,465,485,505,525,546,566,585,606,625,644,664,686,705,725,745,765,786,806,826,844,865,885,905,926,944,965,985,1005,1025],"xSR":741.5,"ySR":469.95,"xT1":424.9,"yT1":0,"xT2":1058.1,"yT2":0,"toosoon":0,"cond_shown":"equaldotanddens","ratio_trial":750,"smaller_num":"3","larger_num":"4","correct_side":2,"subjID":"samuelsolerlozano36","gender":"0","age":"11","school":"6"},{"start_time":1551883019707,"click_time":1551883020600,"finger_time":1551883020420,"fix_duration":805.3420266651935,"trial":24,"RT":713,"MT":180,"sideResp":1,"stimulus":"img/750/equaldotanddens/L/10_Ratio_750_L_4_R_3.png","xmouse":[814,814,814,814,814,814,814,814,814,814,814,814,814,814,814,814,814,814,814,814,814,814,814,814,814,814,814,814,814,814,814,814,810,806,784,758,731,701,664,616,595,576,558,534,503],"ymouse":[561,561,561,561,561,561,561,561,561,561,561,561,561,561,561,561,561,561,561,561,561,561,561,561,561,561,561,561,561,561,561,561,553,540,477,434,387,334,268,203,182,163,142,113,67],"timestamp_mouse":[14,43,53,72,94,114,134,154,174,193,214,233,253,273,294,314,334,352,374,394,414,433,452,473,494,513,533,553,573,594,613,633,653,674,693,713,734,754,774,793,812,832,854,873,893],"xSR":741.5,"ySR":469.95,"xT1":424.9,"yT1":0,"xT2":1058.1,"yT2":0,"toosoon":0,"cond_shown":"equaldotanddens","ratio_trial":750,"smaller_num":"3","larger_num":"4","correct_side":1,"subjID":"samuelsolerlozano36","gender":"0","age":"11","school":"6"},{"start_time":1551883022316,"click_time":1551883023100,"finger_time":1551883022819,"fix_duration":915.1254545886986,"trial":25,"RT":503,"MT":281,"sideResp":1,"stimulus":"img/750/randomdotsizeEA/R/15_Ratio_750_L_9_R_12.png","xmouse":[763,763,763,763,763,763,763,763,763,763,763,763,763,763,763,763,763,763,763,763,763,763,763,763,756,751,745,741,738,735,710,683,655,619,568,560,555,545,529,516],"ymouse":[520,520,520,520,520,520,520,520,520,520,520,520,520,520,520,520,520,520,520,520,520,520,520,516,484,466,450,434,414,396,329,284,245,205,141,125,114,104,85,66],"timestamp_mouse":[8,23,44,64,85,104,123,144,164,183,204,225,243,263,284,303,324,345,364,384,404,425,443,464,484,503,523,544,565,583,604,624,644,665,684,704,724,743,764,784],"xSR":741.5,"ySR":469.95,"xT1":424.9,"yT1":0,"xT2":1058.1,"yT2":0,"toosoon":0,"cond_shown":"randomdotsizeEA","ratio_trial":750,"smaller_num":"9","larger_num":"12","correct_side":2,"subjID":"samuelsolerlozano36","gender":"0","age":"11","school":"6"},{"start_time":1551883024544,"click_time":1551883025441,"finger_time":1551883024860,"fix_duration":561.5253373116392,"trial":26,"RT":316,"MT":581,"sideResp":2,"stimulus":"img/250/randomdotsizeEA/L/15_Ratio_250_L_12_R_3.png","xmouse":[779,779,779,779,779,779,779,779,779,779,779,780,787,802,822,850,857,892,909,934,962,987,1034,1056,1080,1113,1129,1157,1168,1173,1178,1181,1186,1189,1192,1192,1193,1193,1193,1191,1189,1186,1175,1167,1148],"ymouse":[540,540,540,540,540,540,540,540,540,540,540,539,534,525,517,504,500,468,445,412,379,354,306,278,242,201,181,146,132,121,112,104,91,84,75,65,52,43,39,36,33,31,30,30,37],"timestamp_mouse":[17,37,56,76,95,116,135,155,176,196,215,236,256,275,296,316,336,356,375,396,416,436,456,476,496,517,535,556,575,595,616,637,656,675,695,717,736,756,776,795,817,837,856,875,897],"xSR":741.5,"ySR":469.95,"xT1":424.9,"yT1":0,"xT2":1058.1,"yT2":0,"toosoon":0,"cond_shown":"randomdotsizeEA","ratio_trial":250,"smaller_num":"3","larger_num":"12","correct_side":1,"subjID":"samuelsolerlozano36","gender":"0","age":"11","school":"6"},{"start_time":1551883026634,"click_time":1551883027401,"finger_time":1551883027300,"fix_duration":250,"trial":27,"RT":666,"MT":101,"sideResp":1,"stimulus":"img/750/equaldotanddens/L/13_Ratio_750_L_8_R_6.png","xmouse":[801,801,801,801,801,801,801,801,801,801,801,801,801,801,801,801,801,801,801,801,801,801,801,801,801,801,801,801,801,801,801,799,786,703,647,593,540,493,438],"ymouse":[521,521,521,521,521,521,521,521,521,521,521,521,521,521,521,521,521,521,521,521,521,521,521,521,521,521,521,521,521,521,521,521,498,397,328,261,197,143,78],"timestamp_mouse":[10,39,47,66,87,107,126,147,165,185,206,226,245,266,287,305,326,347,366,387,405,426,447,466,486,506,526,547,566,587,606,626,646,666,686,706,727,746,766],"xSR":741.5,"ySR":469.95,"xT1":424.9,"yT1":0,"xT2":1058.1,"yT2":0,"toosoon":0,"cond_shown":"equaldotanddens","ratio_trial":750,"smaller_num":"6","larger_num":"8","correct_side":1,"subjID":"samuelsolerlozano36","gender":"0","age":"11","school":"6"},{"start_time":1551883028331,"click_time":1551883029200,"finger_time":1551883029000,"fix_duration":250,"trial":28,"RT":669,"MT":200,"sideResp":1,"stimulus":"img/500/randomdotsizeEA/L/10_Ratio_500_L_4_R_2.png","xmouse":[779,779,779,779,779,779,779,779,780,780,781,781,781,781,782,782,783,786,787,789,790,791,792,792,792,792,792,792,792,792,792,792,792,774,760,734,684,645,566,530,502,486,481,470],"ymouse":[536,536,536,536,536,536,536,536,536,536,535,535,535,535,535,535,534,534,531,522,515,508,503,502,502,502,502,502,502,502,502,497,492,460,439,402,333,287,195,161,134,117,106,83],"timestamp_mouse":[9,32,49,68,89,109,130,148,169,188,209,229,248,269,290,309,328,348,369,390,410,429,449,469,489,510,529,549,569,588,609,628,648,669,689,708,729,749,769,789,809,829,849,869],"xSR":741.5,"ySR":469.95,"xT1":424.9,"yT1":0,"xT2":1058.1,"yT2":0,"toosoon":0,"cond_shown":"randomdotsizeEA","ratio_trial":500,"smaller_num":"2","larger_num":"4","correct_side":1,"subjID":"samuelsolerlozano36","gender":"0","age":"11","school":"6"},{"start_time":1551883030855,"click_time":1551883032000,"finger_time":1551883031599,"fix_duration":972.5860961096364,"trial":29,"RT":744,"MT":401,"sideResp":2,"stimulus":"img/900/equaldotsize/R/15_Ratio_900_L_9_R_10.png","xmouse":[792,792,792,792,792,792,792,792,792,792,792,792,792,792,792,792,792,790,790,790,789,789,789,789,789,789,789,789,789,789,789,789,789,790,792,797,806,829,884,910,930,978,1060,1098,1122,1138,1153,1166,1185,1189,1191,1191,1191,1191,1191,1189,1182,1150],"ymouse":[551,551,551,551,551,551,551,551,551,551,551,551,551,551,551,546,538,532,532,532,530,528,528,528,528,528,528,528,528,528,528,528,518,513,510,501,484,453,382,346,321,270,194,163,141,127,112,97,67,60,55,53,53,53,53,53,53,69],"timestamp_mouse":[9,33,45,64,85,105,124,146,164,184,205,225,246,265,284,304,325,345,365,386,404,426,445,464,486,506,525,546,565,585,606,624,645,665,684,706,726,744,764,785,805,826,845,864,885,906,925,946,965,985,1004,1025,1045,1064,1084,1104,1125,1145],"xSR":741.5,"ySR":469.95,"xT1":424.9,"yT1":0,"xT2":1058.1,"yT2":0,"toosoon":0,"cond_shown":"equaldotsize","ratio_trial":900,"smaller_num":"9","larger_num":"10","correct_side":2,"subjID":"samuelsolerlozano36","gender":"0","age":"11","school":"6"},{"start_time":1551883033335,"click_time":1551883034240,"finger_time":1551883033940,"fix_duration":473.4061241418931,"trial":30,"RT":605,"MT":300,"sideResp":2,"stimulus":"img/250/equaldotanddens/R/8_Ratio_250_L_1_R_4.png","xmouse":[819,819,819,819,819,819,819,819,819,819,819,819,819,819,819,819,819,819,819,819,819,819,819,819,814,812,812,812,812,821,833,846,851,862,872,889,928,956,989,1000,1008,1016,1025,1056,1071,1086],"ymouse":[519,519,519,519,519,519,519,519,519,519,519,519,519,519,519,519,519,519,519,519,519,519,519,519,519,514,513,512,497,470,427,381,353,303,279,255,204,171,137,128,124,120,116,108,103,95],"timestamp_mouse":[8,26,46,66,86,105,125,144,165,186,206,226,244,266,286,304,326,345,364,385,406,424,445,466,484,505,524,545,565,586,605,624,645,665,684,704,724,745,765,784,805,825,845,865,884,905],"xSR":741.5,"ySR":469.95,"xT1":424.9,"yT1":0,"xT2":1058.1,"yT2":0,"toosoon":0,"cond_shown":"equaldotanddens","ratio_trial":250,"smaller_num":"1","larger_num":"4","correct_side":2,"subjID":"samuelsolerlozano36","gender":"0","age":"11","school":"6"},{"start_time":1551883035921,"click_time":1551883037019,"finger_time":1551883036660,"fix_duration":1038.4564279005688,"trial":31,"RT":739,"MT":359,"sideResp":2,"stimulus":"img/900/equaldotsize/L/4_Ratio_900_L_20_R_18.png","xmouse":[782,782,782,782,782,782,782,782,782,782,782,782,782,782,782,782,782,782,782,782,782,781,781,781,781,781,781,781,781,781,781,781,779,777,773,768,767,767,771,779,786,795,812,840,904,937,982,993,1016,1037,1048,1054,1059,1061,1066,1067],"ymouse":[537,537,537,537,537,537,537,537,537,537,537,537,537,537,537,537,537,537,537,537,537,538,538,538,538,538,538,538,538,538,538,536,531,525,517,491,473,454,421,368,335,310,287,262,217,194,161,154,137,121,115,109,106,104,100,99],"timestamp_mouse":[1,19,46,60,79,99,120,139,160,179,199,219,240,258,279,298,320,340,359,378,398,419,440,458,479,499,520,539,559,579,598,619,640,659,678,700,720,739,758,780,798,819,839,860,880,899,919,939,959,979,998,1019,1040,1060,1079,1098],"xSR":741.5,"ySR":469.95,"xT1":424.9,"yT1":0,"xT2":1058.1,"yT2":0,"toosoon":0,"cond_shown":"equaldotsize","ratio_trial":900,"smaller_num":"18","larger_num":"20","correct_side":1,"subjID":"samuelsolerlozano36","gender":"0","age":"11","school":"6"},{"start_time":1551883038370,"click_time":1551883039520,"finger_time":1551883038860,"fix_duration":628.900505586414,"trial":32,"RT":490,"MT":660,"sideResp":2,"stimulus":"img/750/randomdotsizeEA/L/9_Ratio_750_L_4_R_3.png","xmouse":[757,757,757,757,757,757,757,757,757,757,757,757,757,757,757,757,757,757,757,757,757,759,761,761,761,758,742,731,720,712,705,687,677,667,657,654,652,652,652,652,659,705,741,801,863,971,1071,1088,1096,1104,1110,1125,1132,1138,1141,1141,1137,1130],"ymouse":[536,536,536,536,536,536,536,536,536,536,536,536,536,536,536,536,536,536,536,536,536,520,501,481,459,444,405,387,368,354,344,313,297,284,267,262,258,258,258,258,257,257,257,257,257,250,234,226,220,209,198,174,164,152,137,127,104,93],"timestamp_mouse":[12,33,51,70,89,110,130,150,169,190,210,229,250,269,291,310,329,349,371,389,409,430,450,469,490,511,530,550,570,591,610,630,650,669,689,711,730,750,769,789,811,830,849,870,889,910,930,950,971,990,1011,1030,1049,1069,1090,1110,1130,1150],"xSR":741.5,"ySR":469.95,"xT1":424.9,"yT1":0,"xT2":1058.1,"yT2":0,"toosoon":0,"cond_shown":"randomdotsizeEA","ratio_trial":750,"smaller_num":"3","larger_num":"4","correct_side":1,"subjID":"samuelsolerlozano36","gender":"0","age":"11","school":"6"},{"start_time":1551883041491,"click_time":1551883042461,"finger_time":1551883042181,"fix_duration":1249.445568297446,"trial":33,"RT":690,"MT":280,"sideResp":1,"stimulus":"img/250/equaldotanddens/L/2_Ratio_250_L_16_R_4.png","xmouse":[765,765,765,765,765,765,765,765,765,765,765,765,765,765,765,765,765,765,765,765,765,765,765,765,765,765,765,765,765,765,765,765,759,757,744,730,689,676,665,659,644,636,628,619,606,579,562,534,524],"ymouse":[528,528,528,528,528,528,528,528,528,528,528,528,528,528,528,528,528,528,528,528,528,528,528,528,528,528,528,528,528,528,528,528,508,490,451,412,329,297,258,235,200,184,169,153,136,108,97,81,76],"timestamp_mouse":[8,42,50,69,90,109,130,150,170,189,209,230,249,270,289,310,329,348,368,389,409,429,449,468,489,509,529,548,568,590,609,630,649,669,690,709,728,748,769,789,809,828,849,868,889,909,928,948,970],"xSR":741.5,"ySR":469.95,"xT1":424.9,"yT1":0,"xT2":1058.1,"yT2":0,"toosoon":0,"cond_shown":"equaldotanddens","ratio_trial":250,"smaller_num":"4","larger_num":"16","correct_side":1,"subjID":"samuelsolerlozano36","gender":"0","age":"11","school":"6"},{"start_time":1551883043562,"click_time":1551883044640,"finger_time":1551883044279,"fix_duration":320.3397156418336,"trial":34,"RT":717,"MT":361,"sideResp":1,"stimulus":"img/500/equaldotsize/L/11_Ratio_500_L_12_R_6.png","xmouse":[781,781,781,781,781,781,781,781,781,781,781,781,781,781,781,781,781,781,781,781,781,781,781,781,781,781,781,781,781,781,781,781,783,786,789,791,791,784,767,746,725,710,684,674,669,663,650,638,625,613,598,555,535,517],"ymouse":[521,521,521,521,521,521,521,521,521,521,521,521,521,521,521,521,521,521,521,521,521,521,521,521,521,521,521,521,521,521,521,521,515,504,487,466,408,354,301,262,230,208,169,153,145,135,121,113,106,101,93,80,75,70],"timestamp_mouse":[19,38,58,79,98,117,137,159,177,199,218,238,258,277,297,319,338,359,377,397,419,438,458,478,499,518,538,559,578,599,619,639,657,678,699,717,738,757,778,798,818,838,857,877,898,918,938,958,977,999,1019,1038,1058,1077],"xSR":741.5,"ySR":469.95,"xT1":424.9,"yT1":0,"xT2":1058.1,"yT2":0,"toosoon":0,"cond_shown":"equaldotsize","ratio_trial":500,"smaller_num":"6","larger_num":"12","correct_side":1,"subjID":"samuelsolerlozano36","gender":"0","age":"11","school":"6"},{"start_time":1551883046641,"click_time":1551883047460,"finger_time":1551883047320,"fix_duration":1259.1945306241423,"trial":35,"RT":679,"MT":140,"sideResp":1,"stimulus":"img/250/equaldotsize/L/2_Ratio_250_L_16_R_4.png","xmouse":[751,751,751,751,751,751,751,751,751,751,751,751,751,751,751,751,751,751,755,757,758,758,758,758,758,758,758,758,758,758,758,760,760,760,752,739,719,694,618,584,555,523],"ymouse":[530,530,530,530,530,530,530,530,530,530,530,530,530,530,530,530,530,530,530,530,530,530,530,530,530,530,530,530,530,530,530,526,506,479,393,339,276,209,93,59,41,25],"timestamp_mouse":[1,19,42,59,80,99,120,138,160,180,198,220,238,260,280,300,318,339,359,379,400,419,439,459,480,500,518,539,560,579,600,620,639,659,679,700,720,740,759,779,798,818],"xSR":741.5,"ySR":469.95,"xT1":424.9,"yT1":0,"xT2":1058.1,"yT2":0,"toosoon":0,"cond_shown":"equaldotsize","ratio_trial":250,"smaller_num":"4","larger_num":"16","correct_side":1,"subjID":"samuelsolerlozano36","gender":"0","age":"11","school":"6"},{"start_time":1551883048801,"click_time":1551883050060,"finger_time":1551883049240,"fix_duration":559.4139838655259,"trial":36,"RT":439,"MT":820,"sideResp":1,"stimulus":"img/500/randomdotsizeEA/L/11_Ratio_500_L_12_R_6.png","xmouse":[791,791,791,791,791,791,791,791,791,791,791,791,791,791,791,791,789,787,786,786,785,783,781,773,762,754,754,754,754,754,754,754,754,754,754,754,754,754,754,754,754,755,756,757,757,757,757,759,758,742,687,655,634,615,608,593,581,569,559,549,537,533,528,524],"ymouse":[520,520,520,520,520,520,520,520,520,520,520,520,520,520,520,520,517,502,497,495,487,480,468,448,420,401,398,397,397,397,397,397,397,397,397,397,397,397,397,397,398,405,409,414,415,415,415,397,351,294,172,123,95,72,67,64,62,62,62,64,69,71,72,73],"timestamp_mouse":[1,20,40,59,80,99,120,138,160,179,199,220,238,259,280,298,319,340,360,378,399,418,439,460,479,500,518,539,559,578,600,620,639,659,678,698,718,738,760,780,799,819,839,859,878,900,920,939,959,979,999,1018,1038,1059,1079,1099,1118,1139,1159,1178,1199,1218,1239,1259],"xSR":741.5,"ySR":469.95,"xT1":424.9,"yT1":0,"xT2":1058.1,"yT2":0,"toosoon":0,"cond_shown":"randomdotsizeEA","ratio_trial":500,"smaller_num":"6","larger_num":"12","correct_side":1,"subjID":"samuelsolerlozano36","gender":"0","age":"11","school":"6"},{"start_time":1551883051032,"click_time":1551883051901,"finger_time":1551883051780,"fix_duration":250,"trial":37,"RT":748,"MT":121,"sideResp":2,"stimulus":"img/250/equaldotsize/R/8_Ratio_250_L_1_R_4.png","xmouse":[785,785,785,785,785,785,785,785,785,785,785,785,785,785,785,785,785,785,785,785,785,785,785,785,785,785,785,785,785,785,785,785,785,785,786,791,799,814,849,976,1060,1076,1102,1130],"ymouse":[525,525,525,525,525,525,525,525,525,525,525,525,525,525,525,525,525,525,525,525,525,525,525,525,525,525,525,525,525,525,525,525,525,525,525,512,494,457,394,234,152,134,105,72],"timestamp_mouse":[16,34,48,67,88,108,128,147,168,188,209,227,249,267,289,309,327,348,367,388,407,429,447,468,488,508,527,548,568,588,609,627,649,668,688,709,728,748,767,788,808,829,848,868],"xSR":741.5,"ySR":469.95,"xT1":424.9,"yT1":0,"xT2":1058.1,"yT2":0,"toosoon":0,"cond_shown":"equaldotsize","ratio_trial":250,"smaller_num":"1","larger_num":"4","correct_side":2,"subjID":"samuelsolerlozano36","gender":"0","age":"11","school":"6"},{"start_time":1551883053311,"click_time":1551883054561,"finger_time":1551883054080,"fix_duration":328.78704269070823,"trial":38,"RT":769,"MT":481,"sideResp":1,"stimulus":"img/900/randomdotsizeEA/L/4_Ratio_900_L_20_R_18.png","xmouse":[811,810,810,810,810,810,810,810,810,810,810,810,810,810,810,810,810,810,810,810,810,810,810,810,810,810,810,810,810,810,810,810,810,810,810,808,804,794,785,763,753,745,737,731,725,716,710,702,682,649,636,624,616,611,596,590,587,586,586,582,563,538,513],"ymouse":[520,521,521,521,521,521,521,521,521,521,521,521,521,521,521,521,521,521,521,521,521,521,521,521,521,521,521,521,521,521,521,521,521,521,521,521,514,479,451,387,351,324,306,291,282,267,258,246,225,198,184,169,156,143,115,106,101,100,100,98,93,85,75],"timestamp_mouse":[10,37,48,69,90,108,128,149,168,189,208,230,249,269,288,308,330,350,369,389,410,429,450,468,490,509,528,550,570,588,609,628,650,670,688,709,728,750,769,790,808,830,849,869,890,909,929,950,969,989,1009,1029,1050,1069,1089,1108,1128,1150,1169,1189,1208,1229,1250],"xSR":741.5,"ySR":469.95,"xT1":424.9,"yT1":0,"xT2":1058.1,"yT2":0,"toosoon":0,"cond_shown":"randomdotsizeEA","ratio_trial":900,"smaller_num":"18","larger_num":"20","correct_side":1,"subjID":"samuelsolerlozano36","gender":"0","age":"11","school":"6"},{"start_time":1551883056544,"click_time":1551883057480,"finger_time":1551883057239,"fix_duration":1261.9079731612414,"trial":39,"RT":695,"MT":241,"sideResp":2,"stimulus":"img/900/equaldotsize/R/11_Ratio_900_L_18_R_20.png","xmouse":[771,771,771,771,771,771,771,771,771,771,771,771,771,771,771,771,771,771,771,771,771,771,771,771,771,771,771,771,771,771,771,771,775,787,796,811,818,850,874,896,910,921,951,969,1008,1048,1085],"ymouse":[517,517,517,517,517,517,517,517,517,517,517,517,517,517,517,517,517,517,517,517,517,517,517,517,517,517,517,517,517,517,517,517,513,481,448,403,379,317,277,242,220,204,167,143,115,89,70],"timestamp_mouse":[16,43,56,76,96,116,135,156,177,196,215,236,256,275,297,316,336,356,377,396,415,436,456,476,496,516,536,557,575,596,616,636,656,677,695,715,736,756,776,797,815,836,856,875,896,916,936],"xSR":741.5,"ySR":469.95,"xT1":424.9,"yT1":0,"xT2":1058.1,"yT2":0,"toosoon":0,"cond_shown":"equaldotsize","ratio_trial":900,"smaller_num":"18","larger_num":"20","correct_side":2,"subjID":"samuelsolerlozano36","gender":"0","age":"11","school":"6"},{"start_time":1551883058433,"click_time":1551883059519,"finger_time":1551883059239,"fix_duration":250,"trial":40,"RT":806,"MT":280,"sideResp":1,"stimulus":"img/500/equaldotanddens/L/13_Ratio_500_L_12_R_6.png","xmouse":[809,809,809,809,809,809,809,809,809,809,809,809,809,809,809,809,809,809,809,809,809,809,809,809,809,809,809,809,809,809,809,809,809,809,809,809,809,809,802,792,768,718,696,685,680,673,664,650,609,593,579,567,551,534,522],"ymouse":[564,564,564,564,564,564,564,564,564,564,564,564,564,564,564,564,564,564,564,564,564,564,564,564,564,564,564,564,564,564,564,564,564,564,564,564,564,564,549,500,421,289,241,208,192,175,159,143,98,85,74,64,48,32,27],"timestamp_mouse":[6,36,47,68,88,106,127,147,166,187,206,226,247,266,286,308,328,346,367,386,407,427,447,468,487,508,527,547,566,587,608,627,648,666,687,708,728,748,767,787,806,828,848,867,886,907,927,947,967,986,1007,1027,1047,1067,1086],"xSR":741.5,"ySR":469.95,"xT1":424.9,"yT1":0,"xT2":1058.1,"yT2":0,"toosoon":0,"cond_shown":"equaldotanddens","ratio_trial":500,"smaller_num":"6","larger_num":"12","correct_side":1,"subjID":"samuelsolerlozano36","gender":"0","age":"11","school":"6"},{"start_time":1551883061899,"click_time":1551883063240,"finger_time":1551883062581,"fix_duration":1477.3114125179861,"trial":41,"RT":682,"MT":659,"sideResp":1,"stimulus":"img/500/equaldotsize/L/5_Ratio_500_L_4_R_2.png","xmouse":[770,770,770,770,770,770,770,770,770,770,770,770,770,770,770,770,770,770,770,770,770,770,770,770,770,770,770,770,770,770,770,772,776,777,778,782,782,783,783,784,787,791,791,788,782,778,776,767,746,724,653,637,625,611,595,554,537,530,530,530,530,530,530,530,530,530,525,508],"ymouse":[526,526,526,526,526,526,526,526,526,526,526,526,526,526,526,526,526,526,526,526,526,526,526,526,526,526,526,526,526,526,526,511,492,478,467,447,443,440,438,434,410,376,324,292,276,267,257,240,208,182,134,120,108,93,79,56,50,48,48,48,48,48,48,48,48,48,48,48],"timestamp_mouse":[8,21,40,61,82,100,121,142,160,181,200,221,242,262,282,300,321,341,360,381,400,422,440,461,481,502,521,541,560,580,602,622,641,661,682,702,720,741,761,781,801,821,841,861,882,901,920,942,961,981,1001,1021,1041,1061,1082,1101,1121,1141,1161,1180,1201,1222,1241,1262,1280,1301,1321,1341],"xSR":741.5,"ySR":469.95,"xT1":424.9,"yT1":0,"xT2":1058.1,"yT2":0,"toosoon":0,"cond_shown":"equaldotsize","ratio_trial":500,"smaller_num":"2","larger_num":"4","correct_side":1,"subjID":"samuelsolerlozano36","gender":"0","age":"11","school":"6"},{"start_time":1551883064352,"click_time":1551883065300,"finger_time":1551883065039,"fix_duration":250,"trial":42,"RT":687,"MT":261,"sideResp":1,"stimulus":"img/500/equaldotsize/L/8_Ratio_500_L_8_R_4.png","xmouse":[836,836,836,836,836,836,836,836,836,836,836,836,836,836,835,833,833,828,826,824,823,822,822,822,822,822,822,822,822,817,814,809,779,745,699,644,622,603,597,587,578,563,521,510,503,498,492,479],"ymouse":[550,550,550,550,550,550,550,550,550,550,550,550,550,550,550,550,550,548,547,546,546,545,545,545,545,545,545,545,545,542,539,535,506,472,421,356,327,294,281,265,248,229,181,166,153,135,122,94],"timestamp_mouse":[11,27,48,68,88,107,128,147,167,189,208,228,247,269,287,308,328,348,368,389,408,429,449,468,489,508,527,548,568,587,609,629,648,668,687,707,727,748,767,789,808,828,848,868,887,907,928,948],"xSR":741.5,"ySR":469.95,"xT1":424.9,"yT1":0,"xT2":1058.1,"yT2":0,"toosoon":0,"cond_shown":"equaldotsize","ratio_trial":500,"smaller_num":"4","larger_num":"8","correct_side":1,"subjID":"samuelsolerlozano36","gender":"0","age":"11","school":"6"},{"start_time":1551883066829,"click_time":1551883067942,"finger_time":1551883067481,"fix_duration":606.4012474319452,"trial":43,"RT":652,"MT":461,"sideResp":1,"stimulus":"img/500/equaldotanddens/L/13_Ratio_500_L_12_R_6.png","xmouse":[806,806,806,806,806,806,806,806,806,806,806,806,806,806,806,806,806,806,806,806,806,806,806,806,806,806,806,806,806,806,799,788,774,751,739,723,705,682,643,630,618,602,592,584,562,557,556,556,554,549,544,539,534,529,527,524],"ymouse":[512,512,512,512,512,512,512,512,512,512,512,512,512,512,512,512,512,512,512,512,512,512,512,512,512,512,512,512,512,512,499,480,461,431,411,391,363,332,278,260,241,212,194,175,141,131,128,126,121,113,105,97,89,82,81,79],"timestamp_mouse":[12,38,52,72,92,112,132,153,174,192,213,232,253,274,293,312,332,352,372,392,413,433,452,472,493,513,533,553,572,593,613,632,652,673,692,712,732,753,773,792,813,832,852,872,892,912,932,952,972,992,1014,1033,1052,1073,1092,1112],"xSR":741.5,"ySR":469.95,"xT1":424.9,"yT1":0,"xT2":1058.1,"yT2":0,"toosoon":0,"cond_shown":"equaldotanddens","ratio_trial":500,"smaller_num":"6","larger_num":"12","correct_side":1,"subjID":"samuelsolerlozano36","gender":"0","age":"11","school":"6"},{"start_time":1551883069866,"click_time":1551883070741,"finger_time":1551883070481,"fix_duration":1104.566362710227,"trial":44,"RT":615,"MT":260,"sideResp":2,"stimulus":"img/250/equaldotanddens/R/6_Ratio_250_L_6_R_24.png","xmouse":[800,800,800,800,800,800,800,800,800,800,800,800,800,800,800,800,800,800,800,800,800,800,800,800,800,800,800,800,801,804,806,815,825,841,859,879,896,934,958,979,1006,1037,1058,1082],"ymouse":[496,496,496,496,496,496,496,496,496,496,496,496,496,496,496,496,496,496,496,496,496,496,496,496,496,496,496,496,495,479,460,418,393,361,321,282,250,197,168,146,120,95,81,68],"timestamp_mouse":[16,35,55,75,96,115,135,155,175,195,216,237,256,276,295,315,335,357,375,396,415,435,455,475,495,515,535,555,575,595,615,636,655,675,696,715,735,755,776,795,815,836,855,875],"xSR":741.5,"ySR":469.95,"xT1":424.9,"yT1":0,"xT2":1058.1,"yT2":0,"toosoon":0,"cond_shown":"equaldotanddens","ratio_trial":250,"smaller_num":"6","larger_num":"24","correct_side":2,"subjID":"samuelsolerlozano36","gender":"0","age":"11","school":"6"},{"start_time":1551883072169,"click_time":1551883073101,"finger_time":1551883072841,"fix_duration":766.747775361138,"trial":45,"RT":672,"MT":260,"sideResp":1,"stimulus":"img/500/equaldotanddens/L/8_Ratio_500_L_8_R_4.png","xmouse":[768,768,768,768,768,768,768,768,768,768,768,768,768,768,768,768,768,768,768,768,768,768,768,768,768,768,768,768,768,768,768,765,754,739,713,671,630,621,613,602,589,576,552,539,521,512,498],"ymouse":[536,536,536,536,536,536,536,536,536,536,536,536,536,536,536,536,536,536,536,536,536,536,536,536,536,536,536,536,536,536,537,530,511,485,449,381,286,264,247,228,210,190,155,139,117,106,88],"timestamp_mouse":[13,34,52,73,93,113,133,153,173,194,212,233,252,272,294,313,333,354,373,393,413,432,453,472,494,513,533,554,572,593,612,632,653,672,693,712,733,752,772,792,812,832,852,874,892,912,932],"xSR":741.5,"ySR":469.95,"xT1":424.9,"yT1":0,"xT2":1058.1,"yT2":0,"toosoon":0,"cond_shown":"equaldotanddens","ratio_trial":500,"smaller_num":"4","larger_num":"8","correct_side":1,"subjID":"samuelsolerlozano36","gender":"0","age":"11","school":"6"},{"start_time":1551883073953,"click_time":1551883074821,"finger_time":1551883074721,"fix_duration":250,"trial":46,"RT":768,"MT":100,"sideResp":2,"stimulus":"img/900/equaldotsize/R/3_Ratio_900_L_9_R_10.png","xmouse":[805,805,805,805,805,805,805,805,805,805,805,805,805,805,805,805,805,805,805,805,805,805,805,805,805,805,805,805,805,807,807,809,811,814,815,818,825,833,867,899,934,971,1052,1085],"ymouse":[563,563,563,563,563,563,563,563,563,563,563,563,563,563,563,563,563,563,563,563,563,563,563,563,563,563,563,563,563,562,561,559,549,544,538,527,504,479,403,347,288,234,124,88],"timestamp_mouse":[8,29,48,68,88,108,129,149,169,188,208,228,248,268,288,308,328,349,369,389,409,428,448,468,489,510,528,548,568,588,609,629,649,669,688,709,729,748,768,788,808,828,848,868],"xSR":741.5,"ySR":469.95,"xT1":424.9,"yT1":0,"xT2":1058.1,"yT2":0,"toosoon":0,"cond_shown":"equaldotsize","ratio_trial":900,"smaller_num":"9","larger_num":"10","correct_side":2,"subjID":"samuelsolerlozano36","gender":"0","age":"11","school":"6"},{"start_time":1551883075953,"click_time":1551883077102,"finger_time":1551883076781,"fix_duration":250,"trial":47,"RT":828,"MT":321,"sideResp":2,"stimulus":"img/750/randomdotsizeEA/R/15_Ratio_750_L_9_R_12.png","xmouse":[805,805,805,805,805,805,805,805,805,805,805,805,805,805,805,805,805,805,805,805,805,805,805,805,805,805,805,805,805,805,805,805,805,805,805,805,805,805,805,805,812,828,887,906,917,926,939,949,965,974,981,989,1009,1019,1032,1035,1045,1061],"ymouse":[520,520,520,520,520,520,520,520,520,520,520,520,520,520,520,520,520,520,520,520,520,520,520,520,520,520,520,520,520,520,520,520,520,520,520,520,520,520,520,519,506,461,369,331,305,279,227,194,154,142,133,123,97,87,80,79,76,71],"timestamp_mouse":[17,35,49,70,88,109,129,148,170,188,208,228,248,268,288,308,330,348,369,389,408,429,449,468,488,509,528,548,568,588,609,629,648,668,688,708,728,748,768,789,808,828,849,868,888,909,928,949,968,988,1008,1028,1050,1068,1088,1109,1129,1149],"xSR":741.5,"ySR":469.95,"xT1":424.9,"yT1":0,"xT2":1058.1,"yT2":0,"toosoon":0,"cond_shown":"randomdotsizeEA","ratio_trial":750,"smaller_num":"9","larger_num":"12","correct_side":2,"subjID":"samuelsolerlozano36","gender":"0","age":"11","school":"6"},{"start_time":1551883080305,"click_time":1551883081402,"finger_time":1551883081101,"fix_duration":1102.2681788538785,"trial":48,"RT":796,"MT":301,"sideResp":1,"stimulus":"img/500/randomdotsizeEA/L/13_Ratio_500_L_12_R_6.png","xmouse":[823,823,823,823,823,823,823,823,823,823,823,823,823,823,823,823,823,823,823,823,823,823,823,823,823,823,823,823,823,823,823,823,823,823,823,823,823,818,808,777,699,674,657,640,607,589,572,556,554,549,546,542,537,525,514],"ymouse":[523,523,523,523,523,523,523,523,523,523,523,523,523,523,523,523,523,523,523,523,523,523,523,523,523,523,523,523,523,523,523,523,523,523,523,523,523,519,504,446,341,301,267,236,182,161,142,121,115,99,94,88,84,75,68],"timestamp_mouse":[16,38,57,77,96,117,137,156,176,197,217,237,256,276,297,317,336,357,376,398,417,437,457,476,496,518,537,557,576,596,616,637,656,676,696,716,736,757,777,796,816,836,856,876,896,916,937,956,976,996,1016,1036,1057,1076,1097],"xSR":741.5,"ySR":469.95,"xT1":424.9,"yT1":0,"xT2":1058.1,"yT2":0,"toosoon":0,"cond_shown":"randomdotsizeEA","ratio_trial":500,"smaller_num":"6","larger_num":"12","correct_side":1,"subjID":"samuelsolerlozano36","gender":"0","age":"11","school":"6"},{"start_time":1551883082667,"click_time":1551883083982,"finger_time":1551883083382,"fix_duration":444.6687951693442,"trial":49,"RT":715,"MT":600,"sideResp":2,"stimulus":"img/750/equaldotsize/R/11_Ratio_750_L_12_R_16.png","xmouse":[791,791,791,791,791,791,791,791,791,791,791,791,791,791,791,791,791,791,791,791,791,791,791,791,791,791,791,791,791,791,791,791,791,789,781,774,758,751,745,734,715,683,669,662,660,660,680,721,791,870,1027,1242,1286,1300,1303,1305,1310,1312,1314,1314,1310,1271,1242,1210,1175,1151],"ymouse":[502,502,502,502,502,502,502,502,502,502,502,502,502,502,502,502,502,502,502,502,502,502,502,502,502,502,502,502,502,502,502,502,502,491,471,452,423,409,394,373,344,304,287,274,266,257,239,223,208,204,204,187,176,167,164,160,144,138,131,121,116,106,102,97,93,89],"timestamp_mouse":[14,37,54,74,96,114,136,154,176,195,215,234,254,275,295,316,335,355,376,395,415,434,456,475,494,514,534,555,574,596,614,635,655,675,694,715,736,754,774,795,815,836,854,874,894,914,934,954,975,995,1015,1035,1054,1075,1095,1114,1134,1154,1175,1194,1214,1234,1254,1275,1295,1315],"xSR":741.5,"ySR":469.95,"xT1":424.9,"yT1":0,"xT2":1058.1,"yT2":0,"toosoon":0,"cond_shown":"equaldotsize","ratio_trial":750,"smaller_num":"12","larger_num":"16","correct_side":2,"subjID":"samuelsolerlozano36","gender":"0","age":"11","school":"6"},{"start_time":1551883085597,"click_time":1551883086483,"finger_time":1551883086243,"fix_duration":774.0645026083359,"trial":50,"RT":646,"MT":240,"sideResp":2,"stimulus":"img/750/equaldotanddens/R/5_Ratio_750_L_15_R_20.png","xmouse":[810,810,810,810,810,810,810,810,810,810,810,810,810,810,810,810,810,810,810,810,810,810,810,810,810,810,810,810,810,810,813,825,838,869,888,909,954,976,994,1006,1014,1030,1047,1053,1074],"ymouse":[515,515,515,515,515,515,515,515,515,515,515,515,515,515,515,515,515,515,515,515,515,515,515,515,515,515,515,515,515,515,509,479,444,375,334,297,229,198,178,163,152,134,114,109,93],"timestamp_mouse":[8,38,44,64,84,104,125,145,165,185,204,225,244,264,285,305,325,344,364,384,406,424,446,464,485,504,525,544,565,584,605,624,646,664,685,705,724,744,765,785,804,824,844,864,886],"xSR":741.5,"ySR":469.95,"xT1":424.9,"yT1":0,"xT2":1058.1,"yT2":0,"toosoon":0,"cond_shown":"equaldotanddens","ratio_trial":750,"smaller_num":"15","larger_num":"20","correct_side":2,"subjID":"samuelsolerlozano36","gender":"0","age":"11","school":"6"},{"start_time":1551883088598,"click_time":1551883089563,"finger_time":1551883089102,"fix_duration":1295.1825989535662,"trial":51,"RT":504,"MT":461,"sideResp":2,"stimulus":"img/900/equaldotsize/L/2_Ratio_900_L_20_R_18.png","xmouse":[793,793,793,793,793,793,793,793,793,793,793,793,793,793,793,793,793,793,794,796,805,807,811,816,827,842,845,851,858,865,885,897,917,926,954,967,980,985,990,998,1009,1027,1033,1044,1050,1073,1088,1103,1119],"ymouse":[508,508,508,508,508,508,508,508,508,508,508,508,508,508,508,508,508,508,506,505,498,496,493,489,477,452,442,431,415,397,354,334,304,293,256,236,217,210,206,199,189,174,168,159,154,134,121,111,98],"timestamp_mouse":[10,38,44,65,83,103,123,143,165,184,203,224,244,264,284,303,324,344,364,383,403,423,444,463,484,504,523,543,565,583,603,623,644,663,685,703,724,743,764,784,803,823,844,863,883,903,923,943,964],"xSR":741.5,"ySR":469.95,"xT1":424.9,"yT1":0,"xT2":1058.1,"yT2":0,"toosoon":0,"cond_shown":"equaldotsize","ratio_trial":900,"smaller_num":"18","larger_num":"20","correct_side":1,"subjID":"samuelsolerlozano36","gender":"0","age":"11","school":"6"},{"start_time":1551883091777,"click_time":1551883093041,"finger_time":1551883092463,"fix_duration":1414.0079600698436,"trial":52,"RT":686,"MT":578,"sideResp":1,"stimulus":"img/500/randomdotsizeEA/L/13_Ratio_500_L_12_R_6.png","xmouse":[801,801,801,801,801,801,801,801,801,801,801,801,801,801,801,801,801,801,801,801,801,801,801,801,801,801,801,801,801,801,801,801,804,808,841,865,887,909,918,924,926,927,927,927,927,927,927,916,897,875,849,810,787,765,727,706,668,650,637,621,606,557,531,516],"ymouse":[523,523,523,523,523,523,523,523,523,523,523,523,523,523,523,523,523,523,523,523,523,523,523,523,523,523,523,523,523,523,523,523,517,505,425,341,262,206,195,187,182,181,181,181,181,181,181,179,176,169,159,144,138,133,122,116,105,102,100,97,96,85,77,72],"timestamp_mouse":[10,24,44,64,84,104,125,144,164,185,205,225,245,265,284,305,326,344,366,384,404,424,444,464,485,505,524,545,566,585,604,624,644,664,686,704,725,745,764,785,804,825,846,865,885,904,925,944,964,984,1005,1024,1044,1065,1084,1104,1125,1144,1164,1184,1204,1225,1244,1264],"xSR":741.5,"ySR":469.95,"xT1":424.9,"yT1":0,"xT2":1058.1,"yT2":0,"toosoon":0,"cond_shown":"randomdotsizeEA","ratio_trial":500,"smaller_num":"6","larger_num":"12","correct_side":1,"subjID":"samuelsolerlozano36","gender":"0","age":"11","school":"6"},{"start_time":1551883094173,"click_time":1551883095123,"finger_time":1551883094801,"fix_duration":250,"trial":53,"RT":628,"MT":322,"sideResp":1,"stimulus":"img/900/equaldotanddens/R/14_Ratio_900_L_18_R_20.png","xmouse":[773,773,773,773,773,773,773,773,773,773,773,773,773,773,773,773,773,773,773,773,773,773,773,773,773,773,773,773,773,774,774,771,759,741,709,698,646,628,613,598,583,570,559,555,555,550,539,502],"ymouse":[508,508,508,508,508,508,508,508,508,508,508,508,508,508,508,508,508,508,508,508,508,508,508,508,508,508,508,508,508,508,496,433,382,327,248,225,135,109,89,72,61,54,52,51,51,51,51,52],"timestamp_mouse":[8,28,61,68,88,109,130,148,169,189,210,228,249,270,289,308,328,348,369,388,408,428,448,469,490,508,528,549,568,589,609,628,648,669,688,708,728,749,768,789,810,829,848,868,889,908,929,950],"xSR":741.5,"ySR":469.95,"xT1":424.9,"yT1":0,"xT2":1058.1,"yT2":0,"toosoon":0,"cond_shown":"equaldotanddens","ratio_trial":900,"smaller_num":"18","larger_num":"20","correct_side":2,"subjID":"samuelsolerlozano36","gender":"0","age":"11","school":"6"},{"start_time":1551883096094,"click_time":1551883097161,"finger_time":1551883096802,"fix_duration":250,"trial":54,"RT":708,"MT":359,"sideResp":2,"stimulus":"img/500/equaldotsize/R/3_Ratio_500_L_10_R_20.png","xmouse":[800,800,800,800,800,800,800,800,800,800,800,800,800,800,800,801,802,803,803,804,805,805,806,806,806,806,806,806,806,806,806,806,807,808,811,833,863,895,926,939,960,971,983,994,1005,1031,1044,1054,1061,1063,1067,1068,1073,1079],"ymouse":[519,519,519,519,519,519,519,519,519,519,519,519,519,519,519,514,508,503,502,501,499,498,497,497,497,497,497,497,497,497,497,497,492,489,480,439,400,356,317,298,269,254,237,223,206,175,159,146,136,134,125,120,109,99],"timestamp_mouse":[16,36,48,67,87,107,129,147,167,188,207,228,249,268,287,307,327,347,367,389,408,427,447,467,488,508,528,548,568,589,608,628,647,667,689,708,727,748,767,788,807,827,847,868,887,908,927,948,968,988,1008,1027,1047,1067],"xSR":741.5,"ySR":469.95,"xT1":424.9,"yT1":0,"xT2":1058.1,"yT2":0,"toosoon":0,"cond_shown":"equaldotsize","ratio_trial":500,"smaller_num":"10","larger_num":"20","correct_side":2,"subjID":"samuelsolerlozano36","gender":"0","age":"11","school":"6"},{"start_time":1551883099039,"click_time":1551883100082,"finger_time":1551883099622,"fix_duration":1137.3132726253987,"trial":55,"RT":583,"MT":460,"sideResp":1,"stimulus":"img/250/equaldotsize/L/14_Ratio_250_L_12_R_3.png","xmouse":[813,813,813,813,813,813,813,813,813,813,813,813,813,813,813,813,813,813,813,813,813,813,813,813,816,817,819,822,823,829,829,830,830,819,812,803,792,777,725,683,649,616,601,576,564,552,539,532,529,529,529,525,517],"ymouse":[546,546,546,546,546,546,546,546,546,546,546,546,546,546,546,546,546,546,546,546,546,546,546,545,533,525,514,496,483,454,439,423,405,356,335,315,290,264,218,187,161,136,123,105,96,88,80,75,73,73,72,68,64],"timestamp_mouse":[9,37,43,63,83,103,124,142,162,183,203,223,242,262,282,302,322,342,363,383,402,422,442,462,482,504,522,542,562,583,602,624,642,662,682,703,722,742,763,783,802,822,842,862,882,902,922,943,963,983,1002,1022,1043],"xSR":741.5,"ySR":469.95,"xT1":424.9,"yT1":0,"xT2":1058.1,"yT2":0,"toosoon":0,"cond_shown":"equaldotsize","ratio_trial":250,"smaller_num":"3","larger_num":"12","correct_side":1,"subjID":"samuelsolerlozano36","gender":"0","age":"11","school":"6"},{"start_time":1551883101375,"click_time":1551883102342,"finger_time":1551883102002,"fix_duration":571.5597018423255,"trial":56,"RT":627,"MT":340,"sideResp":1,"stimulus":"img/500/equaldotsize/L/11_Ratio_500_L_12_R_6.png","xmouse":[754,754,754,754,754,754,754,754,754,754,754,754,754,754,754,754,754,754,754,754,754,754,754,754,754,754,754,754,754,754,746,716,672,615,557,477,405,384,369,359,353,353,353,354,356,356,356,356,431],"ymouse":[511,511,511,511,511,511,511,511,511,511,511,511,511,511,511,511,511,511,511,511,511,511,511,511,511,511,511,511,511,511,486,429,373,308,248,155,65,40,27,19,13,12,10,4,1,1,1,1,5],"timestamp_mouse":[9,27,47,66,86,107,126,146,167,186,206,226,246,267,286,306,327,346,367,386,406,426,446,467,487,507,527,547,566,587,606,627,646,666,686,707,727,746,767,786,806,827,846,866,887,906,927,946,967],"xSR":741.5,"ySR":469.95,"xT1":424.9,"yT1":0,"xT2":1058.1,"yT2":0,"toosoon":0,"cond_shown":"equaldotsize","ratio_trial":500,"smaller_num":"6","larger_num":"12","correct_side":1,"subjID":"samuelsolerlozano36","gender":"0","age":"11","school":"6"},{"start_time":1551883103868,"click_time":1551883104741,"finger_time":1551883104342,"fix_duration":585.237399057605,"trial":57,"RT":474,"MT":399,"sideResp":1,"stimulus":"img/750/equaldotanddens/R/5_Ratio_750_L_15_R_20.png","xmouse":[753,753,753,753,753,753,753,753,753,753,753,753,753,753,753,753,753,753,753,753,753,754,754,754,754,753,751,749,744,732,715,675,659,646,633,621,605,596,580,571,561,540,527,511],"ymouse":[486,486,486,486,486,486,486,486,486,486,486,486,486,486,486,486,486,486,486,486,486,482,471,465,460,453,446,438,421,388,356,273,238,208,187,168,138,122,99,87,77,65,59,51],"timestamp_mouse":[14,35,53,74,95,113,133,153,174,195,213,233,254,274,293,313,333,354,373,394,413,433,454,474,493,514,534,553,573,593,613,633,653,674,693,714,734,753,773,793,813,833,853,873],"xSR":741.5,"ySR":469.95,"xT1":424.9,"yT1":0,"xT2":1058.1,"yT2":0,"toosoon":0,"cond_shown":"equaldotanddens","ratio_trial":750,"smaller_num":"15","larger_num":"20","correct_side":2,"subjID":"samuelsolerlozano36","gender":"0","age":"11","school":"6"},{"start_time":1551883107936,"click_time":1551883109021,"finger_time":1551883108601,"fix_duration":831.8500461126863,"trial":58,"RT":665,"MT":420,"sideResp":2,"stimulus":"img/900/equaldotsize/L/10_Ratio_900_L_20_R_18.png","xmouse":[797,797,797,797,797,797,797,797,797,797,797,797,797,797,797,797,797,797,797,797,797,797,797,797,797,797,797,797,805,809,811,811,815,846,871,899,906,921,933,957,966,974,979,991,999,1006,1011,1025,1038,1060,1067,1070,1075,1089,1093],"ymouse":[508,508,508,508,508,508,508,508,508,508,508,508,508,508,508,508,508,508,508,508,508,508,508,508,508,508,508,508,500,498,497,496,493,463,433,401,391,367,346,309,295,287,279,260,250,239,230,209,193,163,153,147,137,105,95],"timestamp_mouse":[8,35,46,65,85,107,126,145,165,186,206,225,246,265,286,306,326,345,365,385,406,425,446,466,486,505,527,545,566,586,606,625,645,665,685,705,725,745,765,786,805,826,845,865,885,906,926,946,966,985,1005,1026,1046,1065,1085],"xSR":741.5,"ySR":469.95,"xT1":424.9,"yT1":0,"xT2":1058.1,"yT2":0,"toosoon":0,"cond_shown":"equaldotsize","ratio_trial":900,"smaller_num":"18","larger_num":"20","correct_side":1,"subjID":"samuelsolerlozano36","gender":"0","age":"11","school":"6"},{"start_time":1551883110825,"click_time":1551883111781,"finger_time":1551883111442,"fix_duration":1081.202472369886,"trial":59,"RT":617,"MT":339,"sideResp":1,"stimulus":"img/900/equaldotanddens/L/2_Ratio_900_L_20_R_18.png","xmouse":[797,797,797,797,797,797,797,797,797,797,797,797,797,797,797,797,797,797,797,797,797,797,797,797,797,797,797,797,797,794,788,775,746,699,680,660,643,629,591,565,543,521,511,502,496,488,484,482],"ymouse":[510,510,510,510,510,510,510,510,510,510,510,510,510,510,510,510,510,510,510,510,510,510,510,510,510,510,510,510,510,493,469,438,388,323,305,290,276,267,245,231,217,199,185,160,146,131,116,99],"timestamp_mouse":[17,44,57,76,97,116,137,157,178,196,217,238,256,277,296,317,337,356,376,396,416,437,458,476,496,517,537,558,576,596,617,638,657,677,696,716,737,756,778,796,817,836,856,877,896,916,937,956],"xSR":741.5,"ySR":469.95,"xT1":424.9,"yT1":0,"xT2":1058.1,"yT2":0,"toosoon":0,"cond_shown":"equaldotanddens","ratio_trial":900,"smaller_num":"18","larger_num":"20","correct_side":1,"subjID":"samuelsolerlozano36","gender":"0","age":"11","school":"6"},{"start_time":1551883114218,"click_time":1551883115062,"finger_time":1551883114801,"fix_duration":294.33609431548666,"trial":60,"RT":583,"MT":261,"sideResp":1,"stimulus":"img/500/equaldotanddens/L/8_Ratio_500_L_8_R_4.png","xmouse":[815,815,815,815,815,815,815,815,815,815,815,815,815,815,815,815,815,815,815,815,815,815,815,815,815,815,813,810,799,765,746,727,693,672,638,622,604,586,564,548,543,532,523],"ymouse":[523,523,523,523,523,523,523,523,523,523,523,523,523,523,523,523,523,523,523,523,523,523,523,523,523,523,514,507,488,429,395,361,313,287,254,238,221,205,186,159,142,113,92],"timestamp_mouse":[10,31,44,63,84,104,123,143,164,183,204,223,243,264,283,303,324,343,364,383,403,425,443,464,484,503,523,545,564,583,603,624,643,663,684,704,723,744,763,783,803,823,844],"xSR":741.5,"ySR":469.95,"xT1":424.9,"yT1":0,"xT2":1058.1,"yT2":0,"toosoon":0,"cond_shown":"equaldotanddens","ratio_trial":500,"smaller_num":"4","larger_num":"8","correct_side":1,"subjID":"samuelsolerlozano36","gender":"0","age":"11","school":"6"},{"start_time":1551883116398,"click_time":1551883117641,"finger_time":1551883117222,"fix_duration":576.8262850993382,"trial":61,"RT":824,"MT":419,"sideResp":2,"stimulus":"img/900/equaldotanddens/R/15_Ratio_900_L_9_R_10.png","xmouse":[764,764,764,764,764,764,764,764,764,764,764,764,764,764,764,764,764,764,764,764,764,764,764,764,764,764,764,764,764,764,764,764,764,764,764,764,764,764,764,768,786,823,836,853,865,903,919,931,946,959,979,984,992,1013,1022,1035,1039,1042,1044,1045,1051,1054,1059],"ymouse":[499,499,499,499,499,499,499,499,499,499,499,499,499,499,499,499,499,499,499,499,499,499,499,499,499,499,499,499,499,499,499,499,499,499,499,499,499,499,499,499,486,424,392,332,296,236,214,197,177,156,126,121,113,101,97,91,88,86,84,84,83,82,80],"timestamp_mouse":[9,24,44,64,84,103,125,143,164,183,203,225,243,265,284,304,324,344,364,383,403,424,444,463,485,504,523,544,563,584,603,623,643,663,683,705,723,744,764,784,804,824,844,863,883,904,923,943,963,983,1003,1023,1044,1064,1083,1103,1123,1144,1163,1183,1203,1223,1243],"xSR":741.5,"ySR":469.95,"xT1":424.9,"yT1":0,"xT2":1058.1,"yT2":0,"toosoon":0,"cond_shown":"equaldotanddens","ratio_trial":900,"smaller_num":"9","larger_num":"10","correct_side":2,"subjID":"samuelsolerlozano36","gender":"0","age":"11","school":"6"},{"start_time":1551883119734,"click_time":1551883120602,"finger_time":1551883120302,"fix_duration":1330.24937517533,"trial":62,"RT":568,"MT":300,"sideResp":2,"stimulus":"img/250/equaldotsize/R/13_Ratio_250_L_2_R_8.png","xmouse":[806,806,806,806,806,806,806,806,806,806,806,806,806,806,806,806,806,806,806,806,804,803,800,795,791,789,789,789,798,807,823,848,876,944,977,984,996,1009,1023,1033,1042,1049,1056,1061],"ymouse":[525,525,525,525,525,525,525,525,525,525,525,525,525,525,525,525,525,525,525,525,523,521,519,504,496,491,490,488,464,442,410,369,333,259,224,215,198,176,146,129,113,100,87,76],"timestamp_mouse":[8,33,47,68,88,109,127,148,167,188,209,227,247,269,289,307,327,348,367,387,408,428,448,467,488,507,527,548,568,587,607,628,648,668,687,708,727,747,767,787,808,828,847,867],"xSR":741.5,"ySR":469.95,"xT1":424.9,"yT1":0,"xT2":1058.1,"yT2":0,"toosoon":0,"cond_shown":"equaldotsize","ratio_trial":250,"smaller_num":"2","larger_num":"8","correct_side":2,"subjID":"samuelsolerlozano36","gender":"0","age":"11","school":"6"},{"start_time":1551883121510,"click_time":1551883122581,"finger_time":1551883122181,"fix_duration":287.74929448936905,"trial":63,"RT":671,"MT":400,"sideResp":2,"stimulus":"img/750/equaldotanddens/R/11_Ratio_750_L_12_R_16.png","xmouse":[777,777,777,777,777,777,777,777,777,777,777,777,777,777,777,777,777,777,777,777,777,777,777,777,777,777,777,777,777,777,777,788,794,812,842,854,866,883,895,924,939,951,965,973,987,997,1014,1037,1052,1064,1077,1081,1086,1091],"ymouse":[528,528,528,528,528,528,528,528,528,528,528,528,528,528,528,528,528,528,528,528,528,528,528,528,528,528,528,528,528,528,528,513,503,468,408,379,357,332,315,286,274,262,251,242,231,219,198,170,152,137,117,111,105,99],"timestamp_mouse":[14,41,52,72,91,111,132,151,172,191,212,231,251,271,291,312,332,352,371,393,411,431,452,471,491,513,532,551,571,592,612,631,652,671,691,711,731,751,771,791,811,832,852,871,891,911,932,951,971,992,1011,1032,1051,1071],"xSR":741.5,"ySR":469.95,"xT1":424.9,"yT1":0,"xT2":1058.1,"yT2":0,"toosoon":0,"cond_shown":"equaldotanddens","ratio_trial":750,"smaller_num":"12","larger_num":"16","correct_side":2,"subjID":"samuelsolerlozano36","gender":"0","age":"11","school":"6"},{"start_time":1551883125520,"click_time":1551883126761,"finger_time":1551883126461,"fix_duration":715.963048788675,"trial":64,"RT":941,"MT":300,"sideResp":2,"stimulus":"img/750/equaldotsize/R/15_Ratio_750_L_9_R_12.png","xmouse":[792,792,792,792,792,792,792,792,792,792,792,792,792,792,792,792,792,792,792,792,792,792,792,792,792,792,792,792,792,792,792,792,792,792,792,792,792,792,792,792,792,792,792,792,792,792,801,816,830,858,880,901,928,950,979,987,997,1010,1026,1042,1074,1083,1091],"ymouse":[508,508,508,508,508,508,508,508,508,508,508,508,508,508,508,508,508,508,508,508,508,508,508,508,508,508,508,508,508,508,508,508,508,508,508,508,508,508,508,508,508,508,508,508,508,508,492,465,442,392,352,308,270,235,197,185,171,159,147,135,113,105,98],"timestamp_mouse":[8,21,42,61,81,102,121,142,161,181,201,221,243,261,281,301,322,341,361,382,401,423,442,462,483,502,521,541,561,581,601,621,641,661,681,702,721,742,761,781,801,821,841,861,883,902,922,941,962,983,1001,1022,1042,1062,1082,1103,1122,1141,1161,1182,1201,1222,1241],"xSR":741.5,"ySR":469.95,"xT1":424.9,"yT1":0,"xT2":1058.1,"yT2":0,"toosoon":0,"cond_shown":"equaldotsize","ratio_trial":750,"smaller_num":"9","larger_num":"12","correct_side":2,"subjID":"samuelsolerlozano36","gender":"0","age":"11","school":"6"},{"start_time":1551883127993,"click_time":1551883129061,"finger_time":1551883128842,"fix_duration":250,"trial":65,"RT":849,"MT":219,"sideResp":1,"stimulus":"img/500/randomdotsizeEA/R/15_Ratio_500_L_1_R_2.png","xmouse":[792,792,792,792,792,792,792,792,792,792,792,792,792,792,792,792,792,792,792,792,792,792,792,792,792,792,792,792,792,792,792,792,792,792,792,792,792,792,792,788,782,756,747,741,734,699,679,659,644,634,606,575,540,486],"ymouse":[512,513,514,514,514,514,514,514,514,514,514,514,514,514,514,514,514,514,514,514,514,514,514,514,514,514,514,514,514,514,514,514,514,514,514,514,514,514,514,515,506,472,460,452,440,379,349,319,295,271,210,165,127,88],"timestamp_mouse":[10,36,49,69,88,108,129,148,168,188,208,228,248,269,288,309,329,348,368,389,408,428,448,468,488,508,527,548,568,588,608,628,648,668,688,708,728,748,768,788,808,828,849,869,888,909,928,948,968,988,1009,1028,1048,1068],"xSR":741.5,"ySR":469.95,"xT1":424.9,"yT1":0,"xT2":1058.1,"yT2":0,"toosoon":0,"cond_shown":"randomdotsizeEA","ratio_trial":500,"smaller_num":"1","larger_num":"2","correct_side":2,"subjID":"samuelsolerlozano36","gender":"0","age":"11","school":"6"},{"start_time":1551883131025,"click_time":1551883132061,"finger_time":1551883131701,"fix_duration":923.4927820665929,"trial":66,"RT":676,"MT":360,"sideResp":1,"stimulus":"img/500/equaldotsize/L/13_Ratio_500_L_12_R_6.png","xmouse":[762,762,762,762,762,762,762,762,762,762,762,762,762,762,762,762,762,762,762,762,762,762,762,762,762,762,762,762,762,762,766,773,778,781,781,775,753,724,681,666,652,634,622,600,592,587,584,582,562,534,526,508],"ymouse":[520,520,520,520,520,520,520,520,520,520,520,520,520,520,520,520,520,520,520,520,520,520,520,520,520,520,520,520,520,520,512,492,476,438,388,316,252,204,145,124,105,83,71,52,45,42,41,41,41,45,46,48],"timestamp_mouse":[16,40,57,77,96,117,137,156,177,196,217,237,256,276,297,316,336,356,376,396,416,436,456,477,496,517,536,557,577,596,617,637,657,676,697,716,736,756,776,796,816,836,856,876,895,916,936,957,976,995,1016,1036],"xSR":741.5,"ySR":469.95,"xT1":424.9,"yT1":0,"xT2":1058.1,"yT2":0,"toosoon":0,"cond_shown":"equaldotsize","ratio_trial":500,"smaller_num":"6","larger_num":"12","correct_side":1,"subjID":"samuelsolerlozano36","gender":"0","age":"11","school":"6"},{"start_time":1551883134234,"click_time":1551883138782,"finger_time":1551883138361,"fix_duration":1450.7254008852356,"trial":67,"RT":4127,"MT":421,"sideResp":2,"stimulus":"img/250/randomdotsizeEA/R/13_Ratio_250_L_2_R_8.png","xmouse":[794,794,794,794,794,794,794,794,794,794,794,794,794,794,794,794,794,794,794,794,794,794,794,794,794,794,794,794,794,794,794,794,794,794,794,794,794,794,794,794,794,794,794,794,794,794,794,794,794,794,794,794,794,794,794,794,794,794,794,794,794,794,794,794,794,794,794,794,794,794,794,794,794,794,794,794,794,794,794,794,794,794,794,794,794,794,794,794,794,794,794,794,794,794,794,794,794,794,794,794,794,794,794,794,794,794,794,794,794,794,794,794,794,794,794,794,794,794,794,794,794,794,794,794,794,794,794,794,794,794,794,794,794,794,794,794,794,794,794,794,794,794,794,794,794,794,794,794,794,794,794,794,794,794,794,794,794,794,794,794,794,794,794,794,794,794,794,794,794,794,794,794,794,794,794,794,794,794,794,794,794,794,794,794,794,794,794,794,794,794,794,794,794,794,794,794,794,794,798,811,826,837,837,837,837,837,849,865,911,971,984,1002,1028,1077,1099,1117,1128,1139,1156,1162,1165,1170,1172,1171,1169,1165,1161,1156],"ymouse":[489,489,489,489,489,489,489,489,489,489,489,489,489,489,489,489,489,489,489,489,489,489,489,489,489,489,489,489,489,489,489,489,489,489,489,489,489,489,489,489,489,489,489,489,489,489,489,489,489,489,489,489,489,489,489,489,489,489,489,489,489,489,489,489,489,489,489,489,489,489,489,489,489,489,489,489,489,489,489,489,489,489,489,489,489,489,489,489,489,489,489,489,489,489,489,489,489,489,489,489,489,489,489,489,489,489,489,489,489,489,489,489,489,489,489,489,489,489,489,489,489,489,489,489,489,489,489,489,489,489,489,489,489,489,489,489,489,489,489,489,489,489,489,489,489,489,489,489,489,489,489,489,489,489,489,489,489,489,489,489,489,489,489,489,489,489,489,489,489,489,489,489,489,489,489,489,489,489,489,489,489,489,489,489,489,489,489,489,489,489,489,489,489,489,489,489,489,489,486,476,472,472,472,472,472,472,465,452,413,353,339,317,282,219,198,182,172,164,145,135,128,115,109,100,97,93,90,87],"timestamp_mouse":[8,40,48,67,88,108,128,148,167,187,208,228,247,267,287,307,327,348,367,387,408,428,448,467,487,508,528,547,568,587,608,628,648,668,688,708,727,747,768,788,808,827,848,867,888,907,928,948,968,988,1007,1027,1047,1068,1087,1107,1127,1148,1167,1187,1207,1227,1247,1266,1288,1307,1328,1347,1368,1387,1408,1427,1448,1468,1488,1507,1528,1547,1568,1587,1607,1628,1648,1667,1687,1708,1728,1748,1767,1787,1808,1827,1848,1868,1889,1907,1928,1948,1968,1987,2007,2027,2047,2067,2087,2107,2128,2148,2168,2188,2207,2228,2248,2268,2287,2308,2327,2346,2368,2387,2407,2428,2447,2467,2487,2507,2527,2547,2568,2588,2608,2628,2646,2667,2688,2708,2727,2748,2768,2788,2808,2827,2848,2868,2888,2908,2927,2948,2968,2987,3008,3028,3048,3067,3087,3108,3127,3147,3168,3188,3208,3228,3248,3268,3287,3308,3328,3347,3367,3388,3408,3428,3447,3468,3488,3508,3528,3548,3567,3587,3608,3627,3647,3668,3688,3708,3728,3748,3768,3787,3807,3828,3848,3866,3888,3908,3927,3948,3968,3987,4008,4028,4048,4068,4087,4107,4127,4147,4168,4188,4207,4227,4247,4267,4286,4307,4328,4348,4368,4387,4406,4427,4447,4467,4487,4507,4527,4548],"xSR":741.5,"ySR":469.95,"xT1":424.9,"yT1":0,"xT2":1058.1,"yT2":0,"toosoon":0,"cond_shown":"randomdotsizeEA","ratio_trial":250,"smaller_num":"2","larger_num":"8","correct_side":2,"subjID":"samuelsolerlozano36","gender":"0","age":"11","school":"6"},{"start_time":1551883140835,"click_time":1551883142041,"finger_time":1551883141661,"fix_duration":752.8624384160232,"trial":68,"RT":826,"MT":380,"sideResp":1,"stimulus":"img/500/randomdotsizeEA/L/10_Ratio_500_L_4_R_2.png","xmouse":[787,787,787,787,787,787,787,788,790,790,790,791,791,792,792,792,792,792,792,792,792,792,792,792,792,792,792,792,792,792,792,792,792,792,792,792,792,792,792,783,772,737,695,673,629,608,589,575,544,528,519,503,487,462,459,458,457,456,450,446,443],"ymouse":[488,489,491,492,494,497,501,505,511,512,512,513,514,516,516,516,516,516,516,516,516,516,516,516,516,516,516,516,516,516,516,516,516,516,516,516,516,516,516,502,486,448,407,378,327,307,292,281,256,244,238,224,210,186,180,171,163,153,121,105,85],"timestamp_mouse":[9,31,46,66,87,106,126,146,166,186,206,227,247,266,287,306,326,347,366,385,406,427,446,466,486,506,526,546,565,587,607,626,646,666,687,707,726,746,766,786,807,826,847,866,886,907,926,946,966,986,1006,1026,1046,1066,1086,1106,1127,1146,1166,1186,1206],"xSR":741.5,"ySR":469.95,"xT1":424.9,"yT1":0,"xT2":1058.1,"yT2":0,"toosoon":0,"cond_shown":"randomdotsizeEA","ratio_trial":500,"smaller_num":"2","larger_num":"4","correct_side":1,"subjID":"samuelsolerlozano36","gender":"0","age":"11","school":"6"},{"start_time":1551883144120,"click_time":1551883145201,"finger_time":1551883144821,"fix_duration":1478.1036160383026,"trial":69,"RT":701,"MT":380,"sideResp":1,"stimulus":"img/250/equaldotsize/L/15_Ratio_250_L_12_R_3.png","xmouse":[792,792,792,792,792,792,792,792,792,792,792,792,792,792,792,792,792,792,792,792,792,792,792,792,792,792,792,792,792,792,792,790,789,784,765,749,735,720,699,665,649,633,617,607,593,587,578,570,553,527,518,509,500,493,483],"ymouse":[528,528,528,527,527,527,527,527,527,527,527,527,527,527,527,527,525,524,524,524,524,524,524,524,524,524,524,524,524,524,524,518,515,507,483,464,444,424,393,347,329,310,291,277,260,250,239,231,213,187,173,154,137,118,82],"timestamp_mouse":[8,21,41,62,81,101,122,141,161,181,202,221,241,262,282,301,321,341,362,380,401,421,442,461,482,501,521,541,562,581,602,621,641,661,682,701,721,741,762,781,801,821,842,862,881,901,921,941,961,981,1001,1021,1041,1061,1081],"xSR":741.5,"ySR":469.95,"xT1":424.9,"yT1":0,"xT2":1058.1,"yT2":0,"toosoon":0,"cond_shown":"equaldotsize","ratio_trial":250,"smaller_num":"3","larger_num":"12","correct_side":1,"subjID":"samuelsolerlozano36","gender":"0","age":"11","school":"6"},{"start_time":1551883148774,"click_time":1551883149961,"finger_time":1551883149521,"fix_duration":1430.9955573513093,"trial":70,"RT":747,"MT":440,"sideResp":1,"stimulus":"img/250/randomdotsizeEA/L/2_Ratio_250_L_16_R_4.png","xmouse":[781,781,781,781,781,781,781,781,781,781,781,781,781,781,781,781,781,781,781,781,781,781,781,781,781,781,781,781,781,781,781,781,781,781,780,778,756,740,718,695,674,642,627,603,596,579,563,553,542,533,527,521,516,513,508,500,497,494,493,492],"ymouse":[522,522,522,522,522,522,522,522,522,522,522,522,522,522,522,522,522,522,522,522,522,522,522,522,522,522,522,522,522,522,522,522,522,522,521,519,498,478,452,425,401,359,336,304,294,269,240,223,203,186,174,160,152,143,133,120,114,105,101,98],"timestamp_mouse":[8,33,48,68,88,107,128,148,167,187,207,227,248,267,287,307,328,347,367,388,407,427,448,467,488,508,527,547,567,588,607,627,647,668,687,707,727,747,767,787,807,828,847,868,887,907,927,946,967,987,1007,1027,1047,1067,1087,1107,1128,1147,1167,1187],"xSR":741.5,"ySR":469.95,"xT1":424.9,"yT1":0,"xT2":1058.1,"yT2":0,"toosoon":0,"cond_shown":"randomdotsizeEA","ratio_trial":250,"smaller_num":"4","larger_num":"16","correct_side":1,"subjID":"samuelsolerlozano36","gender":"0","age":"11","school":"6"},{"start_time":1551883150972,"click_time":1551883152001,"finger_time":1551883151621,"fix_duration":250,"trial":71,"RT":649,"MT":380,"sideResp":2,"stimulus":"img/500/randomdotsizeEA/R/2_Ratio_500_L_3_R_6.png","xmouse":[796,796,796,796,796,796,796,796,796,796,796,796,796,796,796,796,796,796,796,796,796,796,796,796,796,796,796,796,799,799,799,801,809,816,825,838,862,877,889,904,920,947,965,987,1020,1038,1071,1080,1086,1089,1091,1098],"ymouse":[493,493,493,493,493,493,493,493,493,493,493,493,493,493,493,493,493,493,493,493,493,493,493,493,493,493,493,493,489,487,482,471,438,417,396,365,314,293,277,260,243,222,211,197,172,157,130,120,114,111,109,99],"timestamp_mouse":[9,41,49,69,89,110,129,149,169,189,209,230,249,269,289,309,329,349,369,389,409,429,450,469,489,510,529,549,569,590,609,629,649,669,690,710,730,748,769,789,809,829,849,869,889,909,930,948,969,989,1010,1029],"xSR":741.5,"ySR":469.95,"xT1":424.9,"yT1":0,"xT2":1058.1,"yT2":0,"toosoon":0,"cond_shown":"randomdotsizeEA","ratio_trial":500,"smaller_num":"3","larger_num":"6","correct_side":2,"subjID":"samuelsolerlozano36","gender":"0","age":"11","school":"6"},{"start_time":1551883153283,"click_time":1551883154342,"finger_time":1551883153881,"fix_duration":480.66305614389404,"trial":72,"RT":598,"MT":461,"sideResp":2,"stimulus":"img/250/equaldotanddens/R/12_Ratio_250_L_5_R_20.png","xmouse":[796,796,796,796,796,796,796,796,796,796,796,796,796,796,796,796,796,796,796,796,796,796,796,795,795,801,809,822,839,865,900,915,930,944,957,977,983,987,993,1000,1010,1015,1021,1026,1032,1041,1047,1050,1056,1065,1068,1076,1079],"ymouse":[513,513,513,513,513,513,513,513,513,513,513,513,513,513,513,513,513,513,513,513,513,513,513,513,513,513,508,500,486,459,393,360,330,307,288,259,248,238,229,218,203,194,184,174,165,151,141,138,130,119,115,102,97],"timestamp_mouse":[18,38,58,79,99,119,138,159,178,199,218,239,258,278,299,319,339,359,379,399,418,438,458,479,499,518,539,558,578,598,618,637,659,679,698,719,739,758,778,799,819,839,858,879,899,918,937,958,978,998,1019,1038,1059],"xSR":741.5,"ySR":469.95,"xT1":424.9,"yT1":0,"xT2":1058.1,"yT2":0,"toosoon":0,"cond_shown":"equaldotanddens","ratio_trial":250,"smaller_num":"5","larger_num":"20","correct_side":2,"subjID":"samuelsolerlozano36","gender":"0","age":"11","school":"6"},{"start_time":1551883155528,"click_time":1551883156441,"finger_time":1551883156161,"fix_duration":285.3794221730997,"trial":73,"RT":633,"MT":280,"sideResp":1,"stimulus":"img/750/equaldotsize/L/13_Ratio_750_L_8_R_6.png","xmouse":[816,816,816,816,816,816,816,816,816,816,816,816,816,816,816,816,816,816,816,816,816,816,816,816,816,816,816,816,816,816,810,794,768,717,704,692,676,652,620,601,575,549,532,510,496