[{"start_time":1551893182190,"click_time":1551893185143,"finger_time":1551893182203,"fix_duration":383.57391126663276,"trial":0,"RT":13,"MT":2940,"sideResp":1,"stimulus":"img/900/randomdotsizeEA/R/5_Ratio_900_L_9_R_10.png","xmouse":[829,829,829,829,829,829,829,829,829,829,829,829,829,829,829,829,829,829,829,829,829,829,829,829,829,829,829,829,829,828,829,829,831,829,828,828,828,828,828,828,828,828,828,828,828,828,828,828,828,828,828,828,828,828,828,828,828,828,828,828,828,828,828,828,828,828,828,828,828,828,828,828,828,828,828,828,828,828,828,828,828,828,828,828,828,828,828,828,828,828,828,828,828,828,828,828,828,828,828,828,828,828,828,828,828,828,828,828,828,828,828,828,828,828,828,828,828,828,825,823,822,820,819,803,794,779,763,744,710,697,677,660,646,618,604,588,575,562,530,515,502,495,489,476,470,465,462,458],"ymouse":[509,509,509,509,509,509,509,509,509,509,509,509,509,509,509,509,509,509,509,509,509,509,509,509,509,509,509,509,509,510,526,539,569,605,609,609,609,609,609,609,609,609,609,609,609,609,609,609,609,609,609,609,609,609,609,609,609,609,609,609,609,609,609,609,609,609,609,609,609,609,609,609,609,609,609,609,609,609,609,609,609,609,609,609,609,609,609,609,609,609,609,609,609,609,609,609,609,609,609,609,609,609,609,609,609,609,609,609,609,609,609,609,609,609,609,609,609,609,611,613,614,614,614,609,602,591,579,556,488,467,432,407,386,341,320,298,278,259,221,206,194,185,178,157,143,130,114,96],"timestamp_mouse":[13,32,53,72,92,112,132,151,172,192,211,233,251,272,292,312,333,351,372,391,413,432,453,472,493,512,532,552,574,593,613,633,653,672,693,713,734,753,774,794,812,834,854,874,893,914,934,952,974,993,1013,1034,1054,1073,1094,1114,1134,1153,1173,1193,1213,1234,1254,1273,1294,1313,1334,1354,1373,1393,1413,1433,1452,1473,1493,1514,1534,1554,1573,1593,1614,1633,1654,1672,1693,1713,1733,1752,1773,1793,1813,1833,1854,1874,1892,1912,1933,1952,1974,1993,2013,2032,2053,2074,2093,2113,2134,2152,2173,2193,2213,2234,2253,2273,2293,2313,2333,2352,2373,2393,2413,2432,2453,2473,2493,2513,2533,2553,2574,2593,2612,2633,2654,2673,2694,2713,2733,2753,2774,2794,2813,2833,2854,2873,2894,2914,2933,2953],"xSR":741.5,"ySR":501.8,"xT1":424.9,"yT1":0,"xT2":1058.1,"yT2":0,"toosoon":0,"cond_shown":"randomdotsizeEA","ratio_trial":900,"smaller_num":"9","larger_num":"10","correct_side":2,"subjID":"SantiagoAndresVargas35","gender":"0","age":"10","school":"6","test":{"fix_dur":[250,1500],"timestim":300,"targets_dim":[100,100],"targets_relative_coord":[0.3,0.7],"size_stim":[880,420],"start_dim":[100,100],"size_start":[300,300],"size_fix":60,"samplingrate":20,"img_types":["equaldotsize","equaldotanddens","randomdotsizeEA"],"ratios":[250,500,750,900],"rep_conds":9,"nTrials":120,"trials_to_rest":500,"Trials_order":[107,69,92,87,104,7,26,0,82,15,93,47,114,79,54,39,46,23,91,95,83,18,6,50,66,12,36,44,81,2,27,29,13,61,32,62,100,77,19,116,94,68,60,72,101,25,117,4,78,113,41,21,5,111,35,42,10,89,33,74,57,96,38,70,8,28,90,73,45,52,63,37,118,56,43,108,75,105,76,67,22,53,3,16,24,51,103,88,59,65,17,30,49,106,20,34,119,97,14,58,110,9,99,1,80,31,112,115,86,109,102,40,64,71,85,98,84,11,55,48],"cond_shown":["randomdotsizeEA","equaldotsize","randomdotsizeEA","equaldotsize","randomdotsizeEA","equaldotanddens","randomdotsizeEA","equaldotsize","equaldotanddens","equaldotsize","equaldotsize","randomdotsizeEA","equaldotsize","equaldotanddens","equaldotsize","equaldotsize","equaldotanddens","randomdotsizeEA","equaldotanddens","randomdotsizeEA","randomdotsizeEA","equaldotsize","equaldotsize","randomdotsizeEA","equaldotsize","equaldotsize","equaldotsize","randomdotsizeEA","equaldotsize","randomdotsizeEA","equaldotsize","randomdotsizeEA","equaldotanddens","equaldotanddens","randomdotsizeEA","randomdotsizeEA","equaldotanddens","randomdotsizeEA","equaldotanddens","randomdotsizeEA","equaldotanddens","randomdotsizeEA","equaldotsize","equaldotsize","randomdotsizeEA","equaldotanddens","equaldotsize","equaldotanddens","equaldotsize","randomdotsizeEA","randomdotsizeEA","equaldotsize","randomdotsizeEA","equaldotsize","randomdotsizeEA","equaldotsize","equaldotanddens","randomdotsizeEA","equaldotsize","randomdotsizeEA","equaldotsize","equaldotsize","randomdotsizeEA","equaldotanddens","randomdotsizeEA","equaldotanddens","equaldotsize","equaldotanddens","equaldotsize","equaldotanddens","equaldotsize","equaldotanddens","equaldotanddens","randomdotsizeEA","equaldotanddens","equaldotsize","equaldotsize","equaldotsize","equaldotanddens","equaldotanddens","equaldotanddens","randomdotsizeEA","equaldotsize","equaldotanddens","equaldotsize","equaldotsize","equaldotanddens","equaldotanddens","randomdotsizeEA","randomdotsizeEA","randomdotsizeEA","equaldotsize","equaldotanddens","equaldotanddens","randomdotsizeEA","equaldotanddens","randomdotsizeEA","equaldotanddens","randomdotsizeEA","equaldotanddens","randomdotsizeEA","equaldotsize","equaldotsize","equaldotanddens","randomdotsizeEA","equaldotanddens","equaldotanddens","equaldotanddens","randomdotsizeEA","equaldotanddens","equaldotsize","equaldotanddens","equaldotanddens","randomdotsizeEA","equaldotanddens","randomdotsizeEA","equaldotsize","randomdotsizeEA","equaldotanddens","equaldotsize"],"ratio_trial":[900,900,750,500,750,750,250,250,900,500,900,900,750,750,750,500,900,900,750,900,900,750,750,250,750,250,250,750,900,250,500,500,250,250,750,250,500,500,750,750,900,750,250,250,500,250,900,500,750,500,500,900,500,500,900,750,900,500,900,250,900,250,250,900,750,500,750,250,900,500,500,250,900,750,750,250,500,900,500,750,900,500,500,500,250,500,750,500,900,500,500,750,250,900,750,900,900,250,250,900,250,900,500,250,750,750,500,750,250,250,750,500,500,900,250,250,250,900,750,250],"smaller_num":["9","18","6","6","15","6","6","3","18","4","9","18","15","3","6","9","9","18","15","18","18","18","9","3","6","1","1","15","18","3","9","3","3","5","12","6","2","4","9","3","9","9","3","3","1","4","18","9","3","2","1","18","1","2","18","3","9","5","18","2","18","2","2","9","3","10","3","2","18","9","9","3","9","9","3","2","3","9","2","15","9","9","2","2","4","5","15","9","9","3","1","6","3","18","3","18","18","2","2","18","3","18","3","5","3","18","4","3","2","3","6","2","5","18","6","6","5","9","12","4"],"larger_num":["10","20","8","12","20","8","24","12","20","8","10","20","20","4","8","18","10","20","20","20","20","24","12","12","8","4","4","20","20","12","18","6","12","20","16","24","4","8","12","4","10","12","12","12","2","16","20","18","4","4","2","20","2","4","20","4","10","10","20","8","20","8","8","10","4","20","4","8","20","18","18","12","10","12","4","8","6","10","4","20","10","18","4","4","16","10","20","18","10","6","2","8","12","20","4","20","20","8","8","20","12","20","6","20","4","24","8","4","8","12","8","4","10","20","24","24","20","10","16","16"],"correct_side":[2,1,2,1,2,2,1,2,1,1,1,2,1,1,1,1,2,1,2,1,1,1,2,2,1,2,2,2,1,2,1,2,1,2,2,2,1,1,2,1,2,2,1,2,2,2,2,1,1,1,2,1,2,1,1,1,2,2,1,1,2,1,2,1,1,2,1,2,1,1,2,1,2,2,2,1,2,2,1,1,1,2,2,1,1,2,1,2,1,2,2,2,2,2,1,1,1,1,2,1,2,2,2,2,2,1,1,1,1,2,1,1,2,2,1,1,2,2,2,1],"img_shown":["img/900/randomdotsizeEA/R/5_Ratio_900_L_9_R_10.png","img/900/equaldotsize/L/10_Ratio_900_L_20_R_18.png","img/750/randomdotsizeEA/R/2_Ratio_750_L_6_R_8.png","img/500/equaldotsize/L/11_Ratio_500_L_12_R_6.png","img/750/randomdotsizeEA/R/5_Ratio_750_L_15_R_20.png","img/750/equaldotanddens/R/2_Ratio_750_L_6_R_8.png","img/250/randomdotsizeEA/L/5_Ratio_250_L_24_R_6.png","img/250/equaldotsize/R/11_Ratio_250_L_3_R_12.png","img/900/equaldotanddens/L/2_Ratio_900_L_20_R_18.png","img/500/equaldotsize/L/8_Ratio_500_L_8_R_4.png","img/900/equaldotsize/L/1_Ratio_900_L_10_R_9.png","img/900/randomdotsizeEA/R/12_Ratio_900_L_18_R_20.png","img/750/equaldotsize/L/1_Ratio_750_L_20_R_15.png","img/750/equaldotanddens/L/9_Ratio_750_L_4_R_3.png","img/750/equaldotsize/L/13_Ratio_750_L_8_R_6.png","img/500/equaldotsize/L/4_Ratio_500_L_18_R_9.png","img/900/equaldotanddens/R/7_Ratio_900_L_9_R_10.png","img/900/randomdotsizeEA/L/2_Ratio_900_L_20_R_18.png","img/750/equaldotanddens/R/5_Ratio_750_L_15_R_20.png","img/900/randomdotsizeEA/L/4_Ratio_900_L_20_R_18.png","img/900/randomdotsizeEA/L/10_Ratio_900_L_20_R_18.png","img/750/equaldotsize/L/6_Ratio_750_L_24_R_18.png","img/750/equaldotsize/R/15_Ratio_750_L_9_R_12.png","img/250/randomdotsizeEA/R/11_Ratio_250_L_3_R_12.png","img/750/equaldotsize/L/13_Ratio_750_L_8_R_6.png","img/250/equaldotsize/R/8_Ratio_250_L_1_R_4.png","img/250/equaldotsize/R/8_Ratio_250_L_1_R_4.png","img/750/randomdotsizeEA/R/4_Ratio_750_L_15_R_20.png","img/900/equaldotsize/L/2_Ratio_900_L_20_R_18.png","img/250/randomdotsizeEA/R/11_Ratio_250_L_3_R_12.png","img/500/equaldotsize/L/4_Ratio_500_L_18_R_9.png","img/500/randomdotsizeEA/R/2_Ratio_500_L_3_R_6.png","img/250/equaldotanddens/L/15_Ratio_250_L_12_R_3.png","img/250/equaldotanddens/R/12_Ratio_250_L_5_R_20.png","img/750/randomdotsizeEA/R/11_Ratio_750_L_12_R_16.png","img/250/randomdotsizeEA/R/6_Ratio_250_L_6_R_24.png","img/500/equaldotanddens/L/5_Ratio_500_L_4_R_2.png","img/500/randomdotsizeEA/L/8_Ratio_500_L_8_R_4.png","img/750/equaldotanddens/R/15_Ratio_750_L_9_R_12.png","img/750/randomdotsizeEA/L/10_Ratio_750_L_4_R_3.png","img/900/equaldotanddens/R/3_Ratio_900_L_9_R_10.png","img/750/randomdotsizeEA/R/15_Ratio_750_L_9_R_12.png","img/250/equaldotsize/L/15_Ratio_250_L_12_R_3.png","img/250/equaldotsize/R/9_Ratio_250_L_3_R_12.png","img/500/randomdotsizeEA/R/15_Ratio_500_L_1_R_2.png","img/250/equaldotanddens/R/10_Ratio_250_L_4_R_16.png","img/900/equaldotsize/R/12_Ratio_900_L_18_R_20.png","img/500/equaldotanddens/L/4_Ratio_500_L_18_R_9.png","img/750/equaldotsize/L/9_Ratio_750_L_4_R_3.png","img/500/randomdotsizeEA/L/5_Ratio_500_L_4_R_2.png","img/500/randomdotsizeEA/R/15_Ratio_500_L_1_R_2.png","img/900/equaldotsize/L/4_Ratio_900_L_20_R_18.png","img/500/randomdotsizeEA/R/15_Ratio_500_L_1_R_2.png","img/500/equaldotsize/L/10_Ratio_500_L_4_R_2.png","img/900/randomdotsizeEA/L/8_Ratio_900_L_20_R_18.png","img/750/equaldotsize/L/10_Ratio_750_L_4_R_3.png","img/900/equaldotanddens/R/6_Ratio_900_L_9_R_10.png","img/500/randomdotsizeEA/R/14_Ratio_500_L_5_R_10.png","img/900/equaldotsize/L/2_Ratio_900_L_20_R_18.png","img/250/randomdotsizeEA/L/3_Ratio_250_L_8_R_2.png","img/900/equaldotsize/R/13_Ratio_900_L_18_R_20.png","img/250/equaldotsize/L/3_Ratio_250_L_8_R_2.png","img/250/randomdotsizeEA/R/13_Ratio_250_L_2_R_8.png","img/900/equaldotanddens/L/1_Ratio_900_L_10_R_9.png","img/750/randomdotsizeEA/L/8_Ratio_750_L_4_R_3.png","img/500/equaldotanddens/R/3_Ratio_500_L_10_R_20.png","img/750/equaldotsize/L/8_Ratio_750_L_4_R_3.png","img/250/equaldotanddens/R/13_Ratio_250_L_2_R_8.png","img/900/equaldotsize/L/8_Ratio_900_L_20_R_18.png","img/500/equaldotanddens/L/4_Ratio_500_L_18_R_9.png","img/500/equaldotsize/R/1_Ratio_500_L_9_R_18.png","img/250/equaldotanddens/L/15_Ratio_250_L_12_R_3.png","img/900/equaldotanddens/R/7_Ratio_900_L_9_R_10.png","img/750/randomdotsizeEA/R/15_Ratio_750_L_9_R_12.png","img/750/equaldotanddens/R/12_Ratio_750_L_3_R_4.png","img/250/equaldotsize/L/1_Ratio_250_L_8_R_2.png","img/500/equaldotsize/R/2_Ratio_500_L_3_R_6.png","img/900/equaldotsize/R/7_Ratio_900_L_9_R_10.png","img/500/equaldotanddens/L/5_Ratio_500_L_4_R_2.png","img/750/equaldotanddens/L/1_Ratio_750_L_20_R_15.png","img/900/equaldotanddens/L/1_Ratio_900_L_10_R_9.png","img/500/randomdotsizeEA/R/1_Ratio_500_L_9_R_18.png","img/500/equaldotsize/R/9_Ratio_500_L_2_R_4.png","img/500/equaldotanddens/L/10_Ratio_500_L_4_R_2.png","img/250/equaldotsize/L/2_Ratio_250_L_16_R_4.png","img/500/equaldotsize/R/14_Ratio_500_L_5_R_10.png","img/750/equaldotanddens/L/1_Ratio_750_L_20_R_15.png","img/500/equaldotanddens/R/6_Ratio_500_L_9_R_18.png","img/900/randomdotsizeEA/L/1_Ratio_900_L_10_R_9.png","img/500/randomdotsizeEA/R/2_Ratio_500_L_3_R_6.png","img/500/randomdotsizeEA/R/15_Ratio_500_L_1_R_2.png","img/750/equaldotsize/R/2_Ratio_750_L_6_R_8.png","img/250/equaldotanddens/R/4_Ratio_250_L_3_R_12.png","img/900/equaldotanddens/R/13_Ratio_900_L_18_R_20.png","img/750/randomdotsizeEA/L/10_Ratio_750_L_4_R_3.png","img/900/equaldotanddens/L/10_Ratio_900_L_20_R_18.png","img/900/randomdotsizeEA/L/10_Ratio_900_L_20_R_18.png","img/250/equaldotanddens/L/3_Ratio_250_L_8_R_2.png","img/250/randomdotsizeEA/R/13_Ratio_250_L_2_R_8.png","img/900/equaldotanddens/L/4_Ratio_900_L_20_R_18.png","img/250/randomdotsizeEA/R/4_Ratio_250_L_3_R_12.png","img/900/equaldotsize/R/9_Ratio_900_L_18_R_20.png","img/500/equaldotsize/R/2_Ratio_500_L_3_R_6.png","img/250/equaldotanddens/R/12_Ratio_250_L_5_R_20.png","img/750/randomdotsizeEA/R/7_Ratio_750_L_3_R_4.png","img/750/equaldotanddens/L/6_Ratio_750_L_24_R_18.png","img/500/equaldotanddens/L/8_Ratio_500_L_8_R_4.png","img/750/equaldotanddens/L/9_Ratio_750_L_4_R_3.png","img/250/randomdotsizeEA/L/3_Ratio_250_L_8_R_2.png","img/250/equaldotanddens/R/9_Ratio_250_L_3_R_12.png","img/750/equaldotsize/L/13_Ratio_750_L_8_R_6.png","img/500/equaldotanddens/L/10_Ratio_500_L_4_R_2.png","img/500/equaldotanddens/R/14_Ratio_500_L_5_R_10.png","img/900/randomdotsizeEA/R/13_Ratio_900_L_18_R_20.png","img/250/equaldotanddens/L/5_Ratio_250_L_24_R_6.png","img/250/randomdotsizeEA/L/5_Ratio_250_L_24_R_6.png","img/250/equaldotsize/R/12_Ratio_250_L_5_R_20.png","img/900/randomdotsizeEA/R/6_Ratio_900_L_9_R_10.png","img/750/equaldotanddens/R/11_Ratio_750_L_12_R_16.png","img/250/equaldotsize/L/2_Ratio_250_L_16_R_4.png"],"Rat0":[["12_Ratio_0_L_9_R_0.png","13_Ratio_0_L_6_R_0.png","5_Ratio_0_L_2_R_0.png","6_Ratio_0_L_4_R_0.png","8_Ratio_0_L_6_R_0.png"],["1_Ratio_0_L_0_R_17.png","10_Ratio_0_L_0_R_22.png","11_Ratio_0_L_0_R_1.png","14_Ratio_0_L_0_R_24.png","15_Ratio_0_L_0_R_4.png","2_Ratio_0_L_0_R_5.png","3_Ratio_0_L_0_R_17.png","4_Ratio_0_L_0_R_7.png","7_Ratio_0_L_0_R_19.png","9_Ratio_0_L_0_R_15.png"]],"Rat250":[["1_Ratio_250_L_8_R_2.png","14_Ratio_250_L_12_R_3.png","15_Ratio_250_L_12_R_3.png","2_Ratio_250_L_16_R_4.png","3_Ratio_250_L_8_R_2.png","5_Ratio_250_L_24_R_6.png","7_Ratio_250_L_8_R_2.png"],["10_Ratio_250_L_4_R_16.png","11_Ratio_250_L_3_R_12.png","12_Ratio_250_L_5_R_20.png","13_Ratio_250_L_2_R_8.png","4_Ratio_250_L_3_R_12.png","6_Ratio_250_L_6_R_24.png","8_Ratio_250_L_1_R_4.png","9_Ratio_250_L_3_R_12.png"]],"Rat500":[["10_Ratio_500_L_4_R_2.png","11_Ratio_500_L_12_R_6.png","13_Ratio_500_L_12_R_6.png","4_Ratio_500_L_18_R_9.png","5_Ratio_500_L_4_R_2.png","7_Ratio_500_L_10_R_5.png","8_Ratio_500_L_8_R_4.png"],["1_Ratio_500_L_9_R_18.png","12_Ratio_500_L_1_R_2.png","14_Ratio_500_L_5_R_10.png","15_Ratio_500_L_1_R_2.png","2_Ratio_500_L_3_R_6.png","3_Ratio_500_L_10_R_20.png","6_Ratio_500_L_9_R_18.png","9_Ratio_500_L_2_R_4.png"]],"Rat750":[["1_Ratio_750_L_20_R_15.png","10_Ratio_750_L_4_R_3.png","13_Ratio_750_L_8_R_6.png","14_Ratio_750_L_8_R_6.png","6_Ratio_750_L_24_R_18.png","8_Ratio_750_L_4_R_3.png","9_Ratio_750_L_4_R_3.png"],["11_Ratio_750_L_12_R_16.png","12_Ratio_750_L_3_R_4.png","15_Ratio_750_L_9_R_12.png","2_Ratio_750_L_6_R_8.png","3_Ratio_750_L_15_R_20.png","4_Ratio_750_L_15_R_20.png","5_Ratio_750_L_15_R_20.png","7_Ratio_750_L_3_R_4.png"]],"Rat900":[["1_Ratio_900_L_10_R_9.png","10_Ratio_900_L_20_R_18.png","2_Ratio_900_L_20_R_18.png","4_Ratio_900_L_20_R_18.png","8_Ratio_900_L_20_R_18.png"],["11_Ratio_900_L_18_R_20.png","12_Ratio_900_L_18_R_20.png","13_Ratio_900_L_18_R_20.png","14_Ratio_900_L_18_R_20.png","15_Ratio_900_L_9_R_10.png","3_Ratio_900_L_9_R_10.png","5_Ratio_900_L_9_R_10.png","6_Ratio_900_L_9_R_10.png","7_Ratio_900_L_9_R_10.png","9_Ratio_900_L_18_R_20.png"]],"Rat1000":[["10_Ratio_1000_L_16_R_16.png","11_Ratio_1000_L_6_R_6.png","12_Ratio_1000_L_14_R_14.png","13_Ratio_1000_L_20_R_20.png","15_Ratio_1000_L_15_R_15.png","2_Ratio_1000_L_17_R_17.png","4_Ratio_1000_L_9_R_9.png","5_Ratio_1000_L_6_R_6.png","6_Ratio_1000_L_19_R_19.png","8_Ratio_1000_L_14_R_14.png","9_Ratio_1000_L_25_R_25.png"],["1_Ratio_1000_L_1_R_1.png","14_Ratio_1000_L_17_R_17.png","3_Ratio_1000_L_17_R_17.png","7_Ratio_1000_L_6_R_6.png"]]}},{"start_time":1551893220179,"click_time":1551893221483,"finger_time":1551893220864,"fix_duration":694.1469961582148,"trial":1,"RT":685,"MT":619,"sideResp":2,"stimulus":"img/900/equaldotsize/L/10_Ratio_900_L_20_R_18.png","xmouse":[799,799,799,799,799,799,799,799,799,799,799,799,799,799,799,799,799,799,799,799,799,799,799,799,799,799,799,799,799,798,798,798,797,797,832,869,903,923,931,942,946,949,953,957,970,977,985,996,1015,1046,1056,1056,1056,1056,1060,1069,1075,1080,1082,1082,1082,1082,1082,1084,1091,1099],"ymouse":[637,637,637,637,637,637,637,637,637,637,637,637,637,637,637,637,637,637,637,637,637,637,637,637,637,637,637,637,637,637,637,637,636,625,537,478,418,377,357,337,332,328,324,320,307,296,283,263,227,178,166,165,165,165,162,150,142,135,133,133,133,133,132,129,108,89],"timestamp_mouse":[9,24,44,75,84,104,124,144,164,184,204,223,244,265,284,303,323,344,364,383,405,423,444,464,484,504,525,545,564,584,604,624,644,664,685,704,725,744,763,783,805,824,844,865,883,905,924,945,965,984,1004,1025,1044,1063,1084,1104,1123,1145,1164,1184,1205,1224,1244,1265,1284,1303],"xSR":741.5,"ySR":573.95,"xT1":424.9,"yT1":0,"xT2":1058.1,"yT2":0,"toosoon":0,"cond_shown":"equaldotsize","ratio_trial":900,"smaller_num":"18","larger_num":"20","correct_side":1,"subjID":"SantiagoAndresVargas35","gender":"0","age":"10","school":"6"},{"start_time":1551893224942,"click_time":1551893226424,"finger_time":1551893225783,"fix_duration":897.0427020416012,"trial":2,"RT":841,"MT":641,"sideResp":1,"stimulus":"img/750/randomdotsizeEA/R/2_Ratio_750_L_6_R_8.png","xmouse":[774,774,774,774,774,774,774,774,774,774,774,774,774,774,774,774,774,774,774,774,774,774,774,774,774,774,774,774,774,772,770,768,766,766,762,759,756,756,755,752,749,743,736,727,723,719,716,712,705,693,680,551,459,386,327,307,292,272,272,272,268,263,267,281,303,354,422,434,440,441,441,441,441,441,442],"ymouse":[636,636,636,636,636,636,636,636,636,636,636,636,636,636,636,636,636,636,636,636,636,636,636,636,636,636,636,636,636,635,634,633,633,632,631,629,628,627,626,619,604,580,567,547,543,535,528,524,514,502,489,418,360,314,283,271,258,245,245,241,227,194,168,111,55,0,0,0,0,0,0,0,0,0,1],"timestamp_mouse":[10,21,41,67,81,102,120,142,162,181,201,222,241,262,280,300,322,341,362,381,401,421,441,461,481,501,521,541,561,581,600,621,641,662,681,702,720,741,761,781,801,822,841,861,881,901,921,942,961,982,1001,1022,1041,1061,1081,1101,1120,1140,1161,1182,1202,1222,1240,1262,1282,1302,1321,1340,1361,1382,1401,1421,1441,1461,1482],"xSR":741.5,"ySR":573.95,"xT1":424.9,"yT1":0,"xT2":1058.1,"yT2":0,"toosoon":0,"cond_shown":"randomdotsizeEA","ratio_trial":750,"smaller_num":"6","larger_num":"8","correct_side":2,"subjID":"SantiagoAndresVargas35","gender":"0","age":"10","school":"6"},{"start_time":1551893228670,"click_time":1551893229803,"finger_time":1551893229344,"fix_duration":1305.375301714933,"trial":3,"RT":674,"MT":459,"sideResp":1,"stimulus":"img/500/equaldotsize/L/11_Ratio_500_L_12_R_6.png","xmouse":[762,762,762,762,762,762,762,762,762,762,762,762,762,762,762,762,762,762,762,762,762,762,762,762,762,762,762,762,762,762,762,758,753,741,717,706,692,671,652,622,610,601,592,586,570,561,548,536,527,515,511,509,507,504,496,494,494],"ymouse":[612,612,612,612,612,612,612,612,612,612,612,612,612,612,612,612,612,612,612,612,612,612,612,612,612,612,612,612,612,612,612,608,599,581,537,519,500,465,442,406,392,375,358,345,301,267,218,196,175,150,146,145,141,131,108,101,98],"timestamp_mouse":[13,33,52,74,93,113,133,154,173,193,212,234,254,272,294,314,334,354,373,392,414,432,453,473,494,513,533,552,574,593,614,633,654,674,692,714,734,753,774,793,814,833,853,873,894,912,932,953,973,994,1013,1033,1053,1073,1093,1114,1133],"xSR":741.5,"ySR":573.95,"xT1":424.9,"yT1":0,"xT2":1058.1,"yT2":0,"toosoon":0,"cond_shown":"equaldotsize","ratio_trial":500,"smaller_num":"6","larger_num":"12","correct_side":1,"subjID":"SantiagoAndresVargas35","gender":"0","age":"10","school":"6"},{"start_time":1551893233690,"click_time":1551893234804,"finger_time":1551893234403,"fix_duration":1044.3015475582408,"trial":4,"RT":713,"MT":401,"sideResp":2,"stimulus":"img/750/randomdotsizeEA/R/5_Ratio_750_L_15_R_20.png","xmouse":[773,772,772,772,772,772,771,771,771,771,771,771,771,771,771,771,771,771,771,771,771,771,771,771,771,771,771,771,771,771,771,771,771,771,770,778,795,829,927,1007,1046,1147,1212,1247,1253,1254,1254,1254,1254,1254,1254,1254,1254,1230,1175,1118],"ymouse":[648,647,647,647,647,647,646,646,646,646,646,646,646,646,646,646,646,646,646,646,646,646,646,646,646,646,646,646,646,646,646,646,646,646,621,545,490,402,204,92,43,0,0,0,0,0,0,0,0,0,0,0,0,22,60,97],"timestamp_mouse":[13,33,52,72,93,113,133,153,173,193,213,233,254,273,293,313,333,353,374,393,412,433,453,473,492,512,534,553,572,593,613,633,654,673,694,713,733,753,773,793,813,834,854,873,893,914,934,954,973,993,1013,1033,1053,1074,1092,1114],"xSR":741.5,"ySR":573.95,"xT1":424.9,"yT1":0,"xT2":1058.1,"yT2":0,"toosoon":0,"cond_shown":"randomdotsizeEA","ratio_trial":750,"smaller_num":"15","larger_num":"20","correct_side":2,"subjID":"SantiagoAndresVargas35","gender":"0","age":"10","school":"6"},{"start_time":1551893237677,"click_time":1551893238902,"finger_time":1551893238443,"fix_duration":250,"trial":5,"RT":766,"MT":459,"sideResp":2,"stimulus":"img/750/equaldotanddens/R/2_Ratio_750_L_6_R_8.png","xmouse":[792,792,792,792,792,792,792,792,792,792,792,792,792,792,792,792,792,792,792,792,792,792,792,792,792,792,792,792,792,792,792,792,792,792,792,792,792,793,798,794,786,785,788,796,827,848,857,883,902,957,976,982,982,984,984,991,995,1002,1013,1031,1045,1061],"ymouse":[638,638,638,638,638,638,638,638,638,638,638,638,638,638,638,638,638,638,638,638,638,638,638,638,638,638,638,638,638,638,638,638,638,638,638,638,638,604,548,470,438,416,396,373,309,281,271,248,231,181,164,157,156,154,153,146,140,130,117,96,81,67],"timestamp_mouse":[8,39,46,66,86,107,125,146,166,186,207,227,245,266,286,307,327,347,366,386,406,425,447,466,485,507,526,546,566,587,606,625,647,665,686,706,726,747,766,786,807,826,847,865,886,906,925,945,965,986,1005,1025,1045,1065,1085,1105,1125,1145,1165,1186,1205,1225],"xSR":741.5,"ySR":573.95,"xT1":424.9,"yT1":0,"xT2":1058.1,"yT2":0,"toosoon":0,"cond_shown":"equaldotanddens","ratio_trial":750,"smaller_num":"6","larger_num":"8","correct_side":2,"subjID":"SantiagoAndresVargas35","gender":"0","age":"10","school":"6"},{"start_time":1551893240716,"click_time":1551893242623,"finger_time":1551893241523,"fix_duration":291.20293979646084,"trial":6,"RT":807,"MT":1100,"sideResp":1,"stimulus":"img/250/randomdotsizeEA/L/5_Ratio_250_L_24_R_6.png","xmouse":[759,759,759,759,759,759,759,759,759,759,759,759,759,759,759,759,759,759,759,759,759,759,759,759,759,759,759,759,759,759,759,759,759,759,759,759,759,759,759,768,783,796,823,836,850,861,888,907,922,931,936,939,952,961,966,967,969,979,984,992,995,995,995,995,995,995,995,995,995,995,995,995,995,995,995,995,995,987,953,916,885,861,832,821,809,803,803,802,802,802,800,795,710,663,597,516],"ymouse":[634,634,634,634,634,634,634,634,634,634,634,634,634,634,634,634,634,634,634,634,634,634,634,634,634,634,634,634,634,634,634,634,634,634,634,634,634,634,634,594,542,498,386,344,307,276,227,203,190,177,170,165,155,149,144,142,139,129,123,113,110,109,109,109,109,109,109,109,109,109,109,109,109,109,109,109,109,106,102,96,86,73,58,52,46,43,43,43,43,43,43,43,59,62,62,40],"timestamp_mouse":[8,27,59,67,87,108,127,148,168,188,206,227,246,268,287,306,327,347,368,388,408,427,446,468,488,507,527,548,567,587,607,628,647,666,688,707,727,747,767,788,807,828,848,866,888,907,927,947,968,987,1007,1028,1047,1067,1088,1107,1126,1146,1168,1187,1207,1228,1248,1267,1287,1306,1327,1347,1368,1387,1407,1427,1448,1467,1488,1507,1528,1547,1568,1587,1607,1628,1647,1667,1688,1706,1727,1747,1767,1787,1807,1828,1848,1867,1888,1907],"xSR":741.5,"ySR":573.95,"xT1":424.9,"yT1":0,"xT2":1058.1,"yT2":0,"toosoon":0,"cond_shown":"randomdotsizeEA","ratio_trial":250,"smaller_num":"6","larger_num":"24","correct_side":1,"subjID":"SantiagoAndresVargas35","gender":"0","age":"10","school":"6"},{"start_time":1551893246480,"click_time":1551893247563,"finger_time":1551893247164,"fix_duration":1274.0801768603485,"trial":7,"RT":684,"MT":399,"sideResp":2,"stimulus":"img/250/equaldotsize/R/11_Ratio_250_L_3_R_12.png","xmouse":[799,799,799,799,799,799,799,799,799,799,799,799,799,799,799,799,799,799,799,799,799,799,799,799,799,799,799,799,799,799,799,799,799,799,793,787,787,841,905,939,948,955,959,962,976,980,982,984,988,999,1004,1021,1038,1054,1074],"ymouse":[609,609,609,609,609,609,609,609,609,609,609,609,609,609,609,609,609,609,609,609,609,609,609,609,609,609,609,609,609,609,609,609,609,606,531,443,361,170,70,4,0,0,0,0,0,0,0,0,0,5,9,18,26,26,25],"timestamp_mouse":[9,23,46,64,84,103,123,144,164,183,203,223,244,263,284,303,324,345,363,383,403,423,443,463,483,504,523,544,565,583,604,623,644,663,684,704,723,743,763,783,803,824,844,863,883,904,924,943,964,983,1003,1023,1043,1064,1083],"xSR":741.5,"ySR":573.95,"xT1":424.9,"yT1":0,"xT2":1058.1,"yT2":0,"toosoon":0,"cond_shown":"equaldotsize","ratio_trial":250,"smaller_num":"3","larger_num":"12","correct_side":2,"subjID":"SantiagoAndresVargas35","gender":"0","age":"10","school":"6"},{"start_time":1551893249795,"click_time":1551893251583,"finger_time":1551893250663,"fix_duration":1231.6532394860158,"trial":8,"RT":868,"MT":920,"sideResp":2,"stimulus":"img/900/equaldotanddens/L/2_Ratio_900_L_20_R_18.png","xmouse":[764,764,764,764,764,764,764,764,764,764,764,764,764,764,765,771,772,772,772,772,772,772,772,772,772,777,779,783,787,787,787,787,787,787,787,787,789,791,801,805,809,811,822,834,836,843,853,881,1023,1132,1242,1323,1414,1478,1499,1505,1505,1505,1505,1504,1492,1447,1419,1371,1343,1326,1320,1318,1316,1314,1313,1310,1301,1263,1240,1228,1216,1204,1192,1192,1192,1191,1191,1186,1181,1181,1180,1178,1173,1148],"ymouse":[591,591,591,591,591,591,591,591,591,591,591,591,591,591,591,592,592,592,592,592,592,592,592,592,592,595,596,597,599,600,600,600,600,600,600,600,601,602,607,608,608,608,583,554,548,538,518,480,312,200,89,0,0,0,0,0,0,0,0,0,9,49,72,113,134,143,146,146,146,146,146,145,140,120,108,104,100,93,87,87,87,87,87,85,82,82,81,81,78,69],"timestamp_mouse":[10,29,59,69,89,108,128,148,168,189,208,230,249,268,289,308,329,348,368,389,409,428,448,468,488,508,528,548,569,589,608,629,649,668,689,709,729,748,768,789,809,829,848,868,889,908,929,949,968,988,1009,1028,1049,1068,1088,1108,1129,1150,1169,1188,1208,1228,1248,1268,1289,1309,1330,1349,1368,1388,1409,1428,1450,1468,1488,1509,1529,1548,1569,1588,1609,1628,1648,1668,1689,1709,1728,1749,1768,1788],"xSR":741.5,"ySR":573.95,"xT1":424.9,"yT1":0,"xT2":1058.1,"yT2":0,"toosoon":0,"cond_shown":"equaldotanddens","ratio_trial":900,"smaller_num":"18","larger_num":"20","correct_side":1,"subjID":"SantiagoAndresVargas35","gender":"0","age":"10","school":"6"},{"start_time":1551893253735,"click_time":1551893254503,"finger_time":1551893254343,"fix_duration":990.5645788878815,"trial":9,"RT":608,"MT":160,"sideResp":1,"stimulus":"img/500/equaldotsize/L/8_Ratio_500_L_8_R_4.png","xmouse":[770,770,770,770,770,770,770,770,770,770,770,770,770,770,770,770,770,770,769,766,769,787,790,791,791,791,791,787,778,762,736,662,632,601,571,549,516,486,443],"ymouse":[628,628,628,628,628,628,628,628,628,628,628,628,628,628,628,628,628,628,628,625,612,603,602,602,602,602,601,599,592,578,547,450,399,355,304,271,213,157,88],"timestamp_mouse":[9,29,49,69,88,108,128,148,168,189,208,228,248,270,288,308,328,348,368,389,409,428,449,469,489,509,528,548,568,589,608,628,649,668,688,708,728,749,768],"xSR":741.5,"ySR":573.95,"xT1":424.9,"yT1":0,"xT2":1058.1,"yT2":0,"toosoon":0,"cond_shown":"equaldotsize","ratio_trial":500,"smaller_num":"4","larger_num":"8","correct_side":1,"subjID":"SantiagoAndresVargas35","gender":"0","age":"10","school":"6"},{"start_time":1551893256073,"click_time":1551893257284,"finger_time":1551893256703,"fix_duration":328.6325208639079,"trial":10,"RT":630,"MT":581,"sideResp":1,"stimulus":"img/900/equaldotsize/L/1_Ratio_900_L_10_R_9.png","xmouse":[788,783,783,776,776,776,776,776,776,776,776,776,776,776,776,776,776,776,776,776,776,776,776,776,776,776,776,776,776,776,776,768,743,711,642,601,563,526,512,502,498,496,492,488,486,485,485,485,485,485,485,485,485,485,485,485,485,485,485,489,497],"ymouse":[587,585,585,582,582,582,582,582,582,582,582,582,582,582,582,582,582,582,582,582,582,582,582,582,582,582,582,582,582,582,582,570,514,446,284,195,111,12,0,0,0,0,0,0,0,0,0,0,0,0,0,0,0,0,0,0,0,0,0,0,10],"timestamp_mouse":[21,42,51,70,90,110,130,150,171,191,211,230,251,270,290,310,331,351,371,391,411,430,450,470,490,510,531,550,570,591,611,630,651,670,690,710,730,750,771,790,811,831,850,870,890,910,930,951,970,990,1011,1030,1050,1071,1091,1111,1131,1150,1171,1190,1211],"xSR":741.5,"ySR":573.95,"xT1":424.9,"yT1":0,"xT2":1058.1,"yT2":0,"toosoon":0,"cond_shown":"equaldotsize","ratio_trial":900,"smaller_num":"9","larger_num":"10","correct_side":1,"subjID":"SantiagoAndresVargas35","gender":"0","age":"10","school":"6"},{"start_time":1551893258876,"click_time":1551893259823,"finger_time":1551893259463,"fix_duration":690.3392482456411,"trial":11,"RT":587,"MT":360,"sideResp":2,"stimulus":"img/900/randomdotsizeEA/R/12_Ratio_900_L_18_R_20.png","xmouse":[795,795,795,795,795,795,795,795,795,795,795,795,795,795,795,795,795,795,795,795,795,795,795,795,795,795,795,795,793,783,780,780,780,780,819,859,927,998,1009,1009,1009,1009,1009,1009,1009,1010,1027,1059],"ymouse":[627,627,627,627,627,627,627,627,627,627,627,627,627,627,627,627,627,627,627,627,627,627,627,627,627,627,627,627,620,539,459,359,259,172,8,0,0,0,0,0,0,0,0,0,0,0,16,44],"timestamp_mouse":[8,35,47,67,87,107,128,147,167,187,207,227,247,268,288,308,327,347,367,387,408,428,448,467,488,507,527,547,568,587,607,627,648,667,687,707,727,747,767,788,807,827,847,868,888,907,928,947],"xSR":741.5,"ySR":573.95,"xT1":424.9,"yT1":0,"xT2":1058.1,"yT2":0,"toosoon":0,"cond_shown":"randomdotsizeEA","ratio_trial":900,"smaller_num":"18","larger_num":"20","correct_side":2,"subjID":"SantiagoAndresVargas35","gender":"0","age":"10","school":"6"},{"start_time":1551893262114,"click_time":1551893263003,"finger_time":1551893262723,"fix_duration":1429.1152494013145,"trial":12,"RT":609,"MT":280,"sideResp":1,"stimulus":"img/750/equaldotsize/L/1_Ratio_750_L_20_R_15.png","xmouse":[788,788,788,788,788,788,788,788,788,788,788,788,788,788,788,788,788,788,788,788,788,788,788,788,788,788,788,786,778,768,742,713,639,615,606,602,599,597,594,591,586,581,562,544,520],"ymouse":[658,658,658,658,658,658,658,658,658,658,658,658,658,658,658,658,658,658,658,658,658,658,658,658,658,658,658,655,625,590,516,426,257,200,172,158,148,141,137,134,129,123,109,101,97],"timestamp_mouse":[12,29,62,69,89,109,129,150,171,190,209,229,249,269,289,310,329,349,369,391,410,429,449,470,489,510,529,549,569,589,609,629,649,670,690,709,729,749,769,789,810,830,850,870,889],"xSR":741.5,"ySR":573.95,"xT1":424.9,"yT1":0,"xT2":1058.1,"yT2":0,"toosoon":0,"cond_shown":"equaldotsize","ratio_trial":750,"smaller_num":"15","larger_num":"20","correct_side":1,"subjID":"SantiagoAndresVargas35","gender":"0","age":"10","school":"6"},{"start_time":1551893265003,"click_time":1551893267405,"finger_time":1551893265863,"fix_duration":1138.4663464146645,"trial":13,"RT":860,"MT":1542,"sideResp":1,"stimulus":"img/750/equaldotanddens/L/9_Ratio_750_L_4_R_3.png","xmouse":[781,781,781,781,781,781,781,781,781,781,781,781,781,781,781,781,781,781,781,781,781,781,781,781,781,781,781,781,781,781,781,781,781,781,781,781,781,781,781,781,781,782,791,881,896,903,905,905,905,904,899,864,787,645,617,608,607,606,606,604,601,598,588,580,572,572,572,572,570,568,566,559,552,541,538,537,536,535,533,533,533,533,533,533,533,533,533,533,533,533,533,533,533,533,533,533,533,533,533,533,533,533,533,533,533,533,533,533,533,533,533,533,533,533,533,533,533,533,526,521,513],"ymouse":[631,631,631,631,631,631,631,631,631,631,631,631,631,631,631,631,631,631,631,631,631,631,631,631,631,631,631,631,631,631,631,631,631,631,631,631,631,631,631,631,631,627,621,563,548,538,536,535,535,535,533,507,449,322,291,280,279,279,279,278,277,276,258,244,233,233,233,233,233,232,229,204,184,160,155,154,154,153,153,153,153,153,153,153,153,153,153,153,153,153,153,153,153,153,153,153,153,153,153,153,153,153,153,153,153,153,153,153,153,153,153,153,153,153,153,153,153,148,129,115,98],"timestamp_mouse":[9,21,43,60,80,100,121,140,162,180,200,220,240,260,280,300,320,340,360,381,400,420,441,461,480,500,520,541,561,580,600,620,641,660,680,701,720,740,761,780,800,820,840,860,881,900,921,941,960,980,1000,1020,1040,1061,1081,1100,1120,1140,1160,1181,1201,1222,1241,1260,1281,1301,1320,1340,1360,1380,1400,1420,1441,1460,1481,1500,1521,1540,1560,1580,1600,1621,1640,1660,1681,1700,1720,1741,1760,1780,1801,1820,1840,1860,1881,1900,1920,1941,1960,1980,2000,2020,2041,2060,2080,2100,2121,2141,2160,2180,2200,2220,2240,2261,2281,2301,2320,2341,2361,2380,2401],"xSR":741.5,"ySR":573.95,"xT1":424.9,"yT1":0,"xT2":1058.1,"yT2":0,"toosoon":0,"cond_shown":"equaldotanddens","ratio_trial":750,"smaller_num":"3","larger_num":"4","correct_side":1,"subjID":"SantiagoAndresVargas35","gender":"0","age":"10","school":"6"},{"start_time":1551893269573,"click_time":1551893273163,"finger_time":1551893272384,"fix_duration":1248.536269703971,"trial":14,"RT":2811,"MT":779,"sideResp":1,"stimulus":"img/750/equaldotsize/L/13_Ratio_750_L_8_R_6.png","xmouse":[831,831,831,831,831,831,831,831,831,831,831,831,831,831,831,831,831,831,832,832,832,832,833,833,835,835,835,835,835,835,835,835,835,835,835,835,835,835,835,835,836,836,836,836,836,836,836,836,836,836,836,836,836,836,836,836,836,836,836,836,836,836,836,836,836,836,836,836,836,836,836,836,836,836,835,831,825,819,810,799,798,798,798,798,798,798,798,798,798,798,798,798,798,798,798,798,798,798,798,798,798,798,798,798,798,798,798,798,798,798,798,798,798,798,798,798,798,799,800,800,800,800,800,800,800,800,800,800,800,800,800,800,800,800,796,792,787,780,772,758,753,748,743,741,740,740,740,740,740,740,740,740,740,740,740,740,740,740,740,740,740,740,739,732,719,708,673,647,630,608,603,603,603,599,590,581,572,559,546,515],"ymouse":[625,625,625,625,625,625,625,625,625,625,625,625,625,625,625,625,625,625,625,625,625,625,626,626,626,626,627,627,627,627,627,627,627,627,627,627,627,627,627,627,628,628,628,628,628,628,628,628,628,628,628,628,628,628,628,628,628,628,628,628,628,628,628,628,628,628,628,628,628,628,628,628,628,628,628,627,624,621,617,612,612,612,612,612,612,612,612,612,612,612,612,612,612,612,612,612,612,612,612,612,612,612,612,612,612,612,612,612,612,612,612,612,612,612,612,612,612,612,613,613,613,613,613,613,613,613,613,613,613,613,613,613,613,612,610,608,606,603,599,582,573,565,560,558,557,557,557,557,557,557,557,557,557,557,557,557,557,557,557,557,557,557,557,551,535,519,471,428,388,294,232,180,150,130,119,107,93,78,58,17],"timestamp_mouse":[14,47,50,70,90,111,131,151,171,190,210,231,251,270,290,312,331,350,370,391,410,430,451,471,490,510,530,550,570,590,610,631,650,670,691,710,730,751,771,791,810,830,850,870,892,911,930,950,970,990,1011,1030,1050,1071,1090,1111,1130,1150,1170,1190,1210,1230,1250,1270,1290,1311,1330,1350,1370,1390,1410,1430,1450,1471,1490,1511,1531,1551,1571,1590,1610,1631,1650,1670,1691,1711,1730,1752,1771,1792,1811,1830,1852,1870,1890,1911,1930,1950,1970,1990,2010,2031,2050,2070,2091,2110,2130,2150,2170,2190,2210,2231,2250,2270,2290,2311,2331,2351,2371,2390,2410,2430,2450,2471,2490,2511,2531,2550,2570,2591,2612,2630,2651,2671,2690,2711,2731,2750,2771,2790,2811,2830,2851,2870,2890,2911,2930,2951,2970,2990,3012,3031,3051,3070,3090,3112,3131,3150,3170,3190,3212,3230,3250,3270,3290,3310,3330,3350,3370,3391,3410,3431,3450,3471,3490,3511,3530,3550,3571,3590],"xSR":741.5,"ySR":573.95,"xT1":424.9,"yT1":0,"xT2":1058.1,"yT2":0,"toosoon":0,"cond_shown":"equaldotsize","ratio_trial":750,"smaller_num":"6","larger_num":"8","correct_side":1,"subjID":"SantiagoAndresVargas35","gender":"0","age":"10","school":"6"},{"start_time":1551893276894,"click_time":1551893278163,"finger_time":1551893277503,"fix_duration":1209.7101671532969,"trial":15,"RT":609,"MT":660,"sideResp":1,"stimulus":"img/500/equaldotsize/L/4_Ratio_500_L_18_R_9.png","xmouse":[770,770,770,770,770,770,770,770,770,770,770,770,770,770,770,770,770,770,770,770,770,770,770,770,770,770,770,770,763,753,741,723,707,671,655,641,628,607,590,584,580,576,573,565,556,550,543,540,537,534,534,534,534,529,529,529,529,529,529,529,529,529,528,522],"ymouse":[635,635,635,635,635,635,635,635,635,635,635,635,635,635,635,635,635,635,635,635,635,635,635,635,635,635,635,635,630,610,584,552,521,447,415,384,355,303,253,233,212,192,173,139,118,99,79,70,66,65,65,65,64,57,57,57,57,57,57,57,57,57,56,55],"timestamp_mouse":[9,29,49,69,89,110,129,149,169,189,209,230,250,269,289,309,330,349,370,389,409,431,449,470,489,510,529,550,569,589,609,630,650,669,690,709,730,750,769,789,812,830,849,870,889,909,930,949,969,990,1010,1030,1049,1069,1090,1109,1129,1150,1170,1191,1209,1229,1250,1269],"xSR":741.5,"ySR":573.95,"xT1":424.9,"yT1":0,"xT2":1058.1,"yT2":0,"toosoon":0,"cond_shown":"equaldotsize","ratio_trial":500,"smaller_num":"9","larger_num":"18","correct_side":1,"subjID":"SantiagoAndresVargas35","gender":"0","age":"10","school":"6"},{"start_time":1551893280319,"click_time":1551893288603,"finger_time":1551893288304,"fix_duration":1355.0893032179922,"trial":16,"RT":7985,"MT":299,"sideResp":1,"stimulus":"img/900/equaldotanddens/R/7_Ratio_900_L_9_R_10.png","xmouse":[754,754,754,754,754,754,754,754,754,754,754,754,754,754,754,754,754,754,754,754,754,754,754,754,754,754,754,754,754,754,754,754,754,754,754,754,754,754,754,754,754,754,754,754,754,754,754,754,754,754,754,754,754,754,754,754,754,754,754,754,754,754,754,754,754,754,754,754,754,754,754,754,754,754,754,754,754,754,754,754,754,754,754,754,754,754,754,754,754,754,754,754,754,754,754,754,754,754,754,754,754,754,754,754,754,754,754,754,754,754,754,754,754,754,754,754,754,754,754,754,754,754,754,754,754,754,754,754,754,754,754,754,754,754,754,754,754,754,754,754,754,754,754,754,754,754,754,754,754,754,754,754,754,754,754,754,754,754,754,754,754,754,754,754,754,754,754,754,754,754,754,754,754,754,754,754,754,754,754,754,754,754,754,754,754,754,754,754,754,754,754,754,754,754,754,754,754,754,754,754,754,754,754,754,754,754,754,754,754,754,754,754,754,754,754,754,754,754,754,754,754,754,754,754,754,754,754,754,754,754,754,754,754,754,754,754,754,754,754,754,754,754,754,754,754,754,754,754,754,754,754,754,754,754,754,754,754,754,754,754,754,754,754,754,754,754,754,754,754,754,754,754,754,754,754,754,754,754,754,754,754,754,754,754,754,754,754,754,754,754,754,754,754,754,754,754,754,754,754,754,754,754,754,754,754,754,754,754,754,754,754,754,754,754,754,754,754,754,754,754,754,754,754,754,754,754,754,754,754,754,754,754,754,754,754,754,754,754,754,754,754,754,754,754,754,754,754,754,754,754,754,754,754,754,754,754,754,754,754,754,754,754,754,754,754,754,754,754,754,754,754,754,754,754,754,754,754,754,754,754,754,754,754,754,754,754,754,754,754,754,754,754,754,754,754,754,754,754,755,755,736,711,679,669,661,650,644,598,572,552,541,524,502,470,459],"ymouse":[615,615,615,615,615,615,615,615,615,615,615,615,615,615,615,615,615,615,615,615,615,615,615,615,615,615,615,615,615,615,615,615,615,615,615,615,615,615,615,615,615,615,615,615,615,615,615,615,615,615,615,615,615,615,615,615,615,615,615,615,615,615,615,615,615,615,615,615,615,615,615,615,615,615,615,615,615,615,615,615,615,615,615,615,615,615,615,615,615,615,615,615,615,615,615,615,615,615,615,615,615,615,615,615,615,615,615,615,615,615,615,615,615,615,615,615,615,615,615,615,615,615,615,615,615,615,615,615,615,615,615,615,615,615,615,615,615,615,615,615,615,615,615,615,615,615,615,615,615,615,615,615,615,615,615,615,615,615,615,615,615,615,615,615,615,615,615,615,615,615,615,615,615,615,615,615,615,615,615,615,615,615,615,615,615,615,615,615,615,615,615,615,615,615,615,615,615,615,615,615,615,615,615,615,615,615,615,615,615,615,615,615,615,615,615,615,615,615,615,615,615,615,615,615,615,615,615,615,615,615,615,615,615,615,615,615,615,615,615,615,615,615,615,615,615,615,615,615,615,615,615,615,615,615,615,615,615,615,615,615,615,615,615,615,615,615,615,615,615,615,615,615,615,615,615,615,615,615,615,615,615,615,615,615,615,615,615,615,615,615,615,615,615,615,615,615,615,615,615,615,615,615,615,615,615,615,615,615,615,615,615,615,615,615,615,615,615,615,615,615,615,615,615,615,615,615,615,615,615,615,615,615,615,615,615,615,615,615,615,615,615,615,615,615,615,615,615,615,615,615,615,615,615,615,615,615,615,615,615,615,615,615,615,615,615,615,615,615,615,615,615,615,615,615,615,615,615,615,615,615,615,615,615,615,615,615,615,615,615,615,615,615,615,615,615,615,615,615,595,514,405,313,189,141,104,46,9,0,0,0,0,0,0,0,2],"timestamp_mouse":[10,24,44,64,84,104,124,145,164,184,205,224,244,265,284,304,324,345,364,384,404,425,445,465,484,504,524,545,564,586,604,624,644,664,684,705,725,745,765,784,804,825,844,865,884,904,924,944,964,985,1005,1024,1045,1065,1085,1104,1125,1145,1164,1184,1204,1225,1245,1266,1284,1304,1324,1345,1365,1385,1404,1425,1444,1464,1484,1505,1524,1544,1564,1585,1604,1624,1645,1665,1684,1705,1724,1744,1765,1784,1804,1825,1844,1865,1884,1904,1925,1944,1965,1985,2004,2025,2045,2065,2085,2104,2124,2144,2165,2185,2206,2224,2245,2264,2285,2305,2324,2345,2364,2385,2406,2424,2445,2464,2484,2505,2524,2544,2564,2584,2604,2624,2644,2664,2684,2704,2724,2745,2764,2784,2804,2824,2844,2864,2885,2905,2925,2944,2965,2985,3005,3024,3044,3064,3085,3104,3124,3146,3164,3184,3204,3225,3245,3265,3285,3305,3324,3345,3365,3385,3405,3425,3444,3465,3484,3505,3525,3544,3564,3585,3604,3624,3644,3664,3684,3704,3724,3745,3764,3786,3804,3825,3845,3864,3885,3904,3924,3945,3964,3985,4004,4025,4044,4064,4085,4104,4124,4144,4164,4184,4205,4224,4244,4264,4284,4305,4324,4345,4364,4384,4404,4424,4445,4464,4485,4504,4524,4544,4565,4584,4604,4624,4644,4665,4684,4704,4724,4744,4764,4784,4804,4824,4844,4865,4884,4904,4924,4944,4964,4984,5005,5024,5044,5065,5084,5104,5124,5144,5164,5184,5204,5225,5245,5264,5285,5304,5325,5344,5364,5384,5405,5425,5444,5464,5484,5505,5525,5545,5565,5584,5605,5624,5644,5664,5686,5704,5724,5744,5764,5784,5804,5825,5844,5864,5885,5905,5925,5944,5965,5984,6004,6024,6045,6064,6084,6105,6125,6145,6165,6184,6205,6224,6244,6265,6285,6304,6324,6345,6364,6384,6405,6424,6444,6464,6484,6504,6524,6544,6564,6584,6604,6624,6644,6664,6684,6704,6724,6744,6765,6784,6804,6824,6844,6864,6885,6905,6924,6945,6965,6984,7004,7024,7044,7065,7084,7104,7124,7144,7165,7184,7204,7224,7244,7264,7285,7305,7324,7345,7364,7384,7405,7424,7444,7465,7485,7505,7525,7544,7565,7586,7604,7625,7644,7665,7684,7704,7725,7744,7765,7784,7804,7824,7845,7865,7884,7904,7925,7944,7965,7985,8004,8024,8045,8064,8084,8104,8125,8144,8165,8184,8205,8224,8244,8265,8284],"xSR":741.5,"ySR":573.95,"xT1":424.9,"yT1":0,"xT2":1058.1,"yT2":0,"toosoon":0,"cond_shown":"equaldotanddens","ratio_trial":900,"smaller_num":"9","larger_num":"10","correct_side":2,"subjID":"SantiagoAndresVargas35","gender":"0","age":"10","school":"6"},{"start_time":1551893289899,"click_time":1551893291424,"finger_time":1551893290623,"fix_duration":394.3834712830048,"trial":17,"RT":724,"MT":801,"sideResp":2,"stimulus":"img/900/randomdotsizeEA/L/2_Ratio_900_L_20_R_18.png","xmouse":[778,778,778,778,778,778,778,778,778,778,778,778,778,778,778,778,778,778,778,778,778,778,778,778,778,778,778,778,778,778,778,778,778,778,777,788,812,858,857,857,857,857,857,860,860,860,863,865,900,958,974,981,982,982,982,982,982,982,982,982,982,982,988,1008,1016,1019,1019,1019,1019,1027,1045,1062,1075,1084,1086,1090,1090],"ymouse":[649,649,649,649,649,649,649,649,649,649,649,649,649,649,649,648,648,648,648,648,648,648,648,648,648,648,648,648,648,648,648,648,648,648,645,577,532,462,456,456,456,456,456,451,451,451,448,438,391,331,315,302,298,298,298,298,298,298,298,298,298,298,287,250,228,221,221,220,220,208,189,168,148,121,111,102,97],"timestamp_mouse":[9,25,44,64,85,105,124,144,165,185,204,224,244,265,284,305,324,344,364,385,405,425,445,465,484,504,524,544,565,584,605,624,645,664,684,704,724,746,764,786,804,824,844,864,885,904,926,946,964,984,1004,1024,1044,1064,1085,1105,1124,1145,1165,1185,1204,1225,1244,1265,1284,1304,1324,1346,1365,1384,1404,1424,1444,1464,1484,1504,1525],"xSR":741.5,"ySR":573.95,"xT1":424.9,"yT1":0,"xT2":1058.1,"yT2":0,"toosoon":0,"cond_shown":"randomdotsizeEA","ratio_trial":900,"smaller_num":"18","larger_num":"20","correct_side":1,"subjID":"SantiagoAndresVargas35","gender":"0","age":"10","school":"6"},{"start_time":1551893292736,"click_time":1551893293963,"finger_time":1551893293344,"fix_duration":250,"trial":18,"RT":608,"MT":619,"sideResp":1,"stimulus":"img/750/equaldotanddens/R/5_Ratio_750_L_15_R_20.png","xmouse":[745,744,744,744,744,744,744,744,744,744,744,744,746,749,752,753,753,753,753,753,753,752,748,747,746,746,746,746,745,742,738,709,675,614,523,472,353,310,277,261,250,244,245,255,269,271,271,273,275,278,278,281,282,284,284,295,315,328,336,354,372,470],"ymouse":[665,664,664,664,664,664,664,664,664,664,664,664,659,652,643,642,642,642,642,641,641,635,634,633,633,633,633,633,632,628,616,566,523,462,372,315,178,113,71,50,38,30,27,14,0,0,0,0,0,2,2,2,2,3,3,8,14,18,20,20,20,13],"timestamp_mouse":[7,27,48,68,88,107,127,148,167,188,208,228,247,268,287,308,328,347,367,388,408,427,447,469,488,507,527,547,567,587,608,627,647,667,688,708,727,748,767,788,808,827,848,867,887,907,927,947,967,988,1007,1028,1047,1068,1088,1107,1128,1147,1168,1188,1207,1227],"xSR":741.5,"ySR":573.95,"xT1":424.9,"yT1":0,"xT2":1058.1,"yT2":0,"toosoon":0,"cond_shown":"equaldotanddens","ratio_trial":750,"smaller_num":"15","larger_num":"20","correct_side":2,"subjID":"SantiagoAndresVargas35","gender":"0","age":"10","school":"6"},{"start_time":1551893295961,"click_time":1551893297063,"finger_time":1551893296584,"fix_duration":757.8751018834686,"trial":19,"RT":623,"MT":479,"sideResp":1,"stimulus":"img/900/randomdotsizeEA/L/4_Ratio_900_L_20_R_18.png","xmouse":[756,756,756,756,756,756,756,756,756,756,756,756,756,756,756,756,756,756,756,756,756,756,756,756,756,756,756,756,756,756,747,731,687,673,626,577,546,527,508,496,479,471,465,462,462,464,465,470,475,479,486,486,486,486,486,486],"ymouse":[620,620,620,620,620,620,620,620,620,620,620,620,620,620,620,620,620,620,620,620,620,620,620,620,620,620,620,620,620,619,609,572,497,476,405,325,290,271,246,231,213,202,190,182,175,164,157,149,140,132,119,117,114,112,100,79],"timestamp_mouse":[9,36,43,63,83,103,124,143,163,183,202,223,242,262,283,302,322,342,362,382,402,422,443,462,482,503,523,542,562,582,602,623,642,662,682,702,723,742,763,783,802,823,843,862,882,902,922,943,962,982,1002,1023,1043,1063,1082,1102],"xSR":741.5,"ySR":573.95,"xT1":424.9,"yT1":0,"xT2":1058.1,"yT2":0,"toosoon":0,"cond_shown":"randomdotsizeEA","ratio_trial":900,"smaller_num":"18","larger_num":"20","correct_side":1,"subjID":"SantiagoAndresVargas35","gender":"0","age":"10","school":"6"},{"start_time":1551893299391,"click_time":1551893300163,"finger_time":1551893300063,"fix_duration":1327.3400162141377,"trial":20,"RT":672,"MT":100,"sideResp":2,"stimulus":"img/900/randomdotsizeEA/L/10_Ratio_900_L_20_R_18.png","xmouse":[808,808,808,808,808,808,808,808,808,808,808,808,808,808,808,808,808,808,808,808,808,808,808,808,808,808,808,808,808,808,808,808,807,871,937,1000,1049,1095,1140],"ymouse":[649,649,649,649,649,649,649,649,649,649,649,649,649,649,649,649,649,649,649,649,649,649,649,649,649,649,649,649,649,649,649,649,636,487,379,282,211,126,44],"timestamp_mouse":[13,41,52,72,92,113,132,152,173,193,213,232,252,272,293,314,333,352,372,392,413,432,452,472,493,512,533,553,573,593,612,632,652,672,693,712,732,753,772],"xSR":741.5,"ySR":573.95,"xT1":424.9,"yT1":0,"xT2":1058.1,"yT2":0,"toosoon":0,"cond_shown":"randomdotsizeEA","ratio_trial":900,"smaller_num":"18","larger_num":"20","correct_side":1,"subjID":"SantiagoAndresVargas35","gender":"0","age":"10","school":"6"},{"start_time":1551893303949,"click_time":1551893304843,"finger_time":1551893304483,"fix_duration":1266.4585102090728,"trial":21,"RT":534,"MT":360,"sideResp":1,"stimulus":"img/750/equaldotsize/L/6_Ratio_750_L_24_R_18.png","xmouse":[763,763,763,763,763,763,763,763,763,763,763,763,763,763,763,763,763,763,763,763,763,763,763,763,763,748,721,682,658,629,583,553,521,482,440,409,398,389,384,377,379,396,405,424,430],"ymouse":[646,646,646,646,646,646,646,646,646,646,646,646,646,646,646,646,646,646,646,646,646,646,646,646,646,639,617,577,544,503,435,393,360,321,273,236,217,202,185,169,145,92,63,24,6],"timestamp_mouse":[17,38,54,75,94,113,135,154,174,193,215,234,254,274,295,315,335,353,374,394,415,433,454,473,494,513,534,553,574,594,614,634,653,674,695,713,735,753,773,793,813,833,854,873,894],"xSR":741.5,"ySR":573.95,"xT1":424.9,"yT1":0,"xT2":1058.1,"yT2":0,"toosoon":0,"cond_shown":"equaldotsize","ratio_trial":750,"smaller_num":"18","larger_num":"24","correct_side":1,"subjID":"SantiagoAndresVargas35","gender":"0","age":"10","school":"6"},{"start_time":1551893308261,"click_time":1551893309143,"finger_time":1551893308884,"fix_duration":476.7462402657888,"trial":22,"RT":623,"MT":259,"sideResp":2,"stimulus":"img/750/equaldotsize/R/15_Ratio_750_L_9_R_12.png","xmouse":[814,814,814,814,814,814,814,814,814,814,814,814,814,814,814,814,814,814,814,814,814,814,814,814,814,814,814,814,814,814,813,839,870,901,920,950,957,960,961,961,968,978,998,1058,1112],"ymouse":[652,652,652,652,652,652,652,652,652,652,652,652,652,652,652,652,652,652,652,652,652,652,652,652,652,652,652,652,652,652,631,508,392,292,227,161,145,136,133,133,132,134,132,97,62],"timestamp_mouse":[9,35,41,62,82,101,123,143,161,183,202,221,243,262,281,301,322,342,362,382,402,421,443,461,482,502,523,543,561,581,601,623,642,661,682,702,723,742,762,781,802,822,841,862,882],"xSR":741.5,"ySR":573.95,"xT1":424.9,"yT1":0,"xT2":1058.1,"yT2":0,"toosoon":0,"cond_shown":"equaldotsize","ratio_trial":750,"smaller_num":"9","larger_num":"12","correct_side":2,"subjID":"SantiagoAndresVargas35","gender":"0","age":"10","school":"6"},{"start_time":1551893310427,"click_time":1551893311364,"finger_time":1551893311083,"fix_duration":383.1241751819394,"trial":23,"RT":656,"MT":281,"sideResp":2,"stimulus":"img/250/randomdotsizeEA/R/11_Ratio_250_L_3_R_12.png","xmouse":[767,767,767,767,767,767,767,767,767,767,767,767,767,767,767,767,767,767,767,767,767,767,767,767,767,767,767,767,767,767,767,767,767,786,819,859,925,930,933,937,949,1003,1025,1038,1047,1056,1080],"ymouse":[598,598,598,598,598,598,598,598,598,598,598,598,598,598,598,598,598,598,598,598,598,598,598,598,598,598,598,598,598,598,598,597,559,491,428,371,286,268,251,238,210,143,129,121,113,102,72],"timestamp_mouse":[16,36,56,75,95,117,136,157,175,195,216,236,257,275,296,315,336,356,377,395,416,435,456,476,495,516,536,556,575,597,615,636,656,676,695,716,735,755,776,796,815,835,855,875,897,915,936],"xSR":741.5,"ySR":573.95,"xT1":424.9,"yT1":0,"xT2":1058.1,"yT2":0,"toosoon":0,"cond_shown":"randomdotsizeEA","ratio_trial":250,"smaller_num":"3","larger_num":"12","correct_side":2,"subjID":"SantiagoAndresVargas35","gender":"0","age":"10","school":"6"},{"start_time":1551893313094,"click_time":1551893313862,"finger_time":1551893313563,"fix_duration":970.136709754019,"trial":24,"RT":469,"MT":299,"sideResp":1,"stimulus":"img/750/equaldotsize/L/13_Ratio_750_L_8_R_6.png","xmouse":[832,832,832,832,832,832,832,832,832,832,832,832,832,832,832,832,832,832,832,832,832,832,832,821,788,753,749,749,745,742,740,733,723,632,589,553,521,508,495],"ymouse":[596,596,596,596,596,596,596,596,596,596,596,596,596,596,596,596,596,596,596,596,596,596,596,559,484,428,422,422,420,419,418,415,405,273,210,163,124,108,95],"timestamp_mouse":[10,31,50,68,89,108,129,148,168,189,209,228,248,269,289,309,330,348,370,389,408,428,450,469,489,509,530,549,569,588,609,628,649,669,688,710,729,749,768],"xSR":741.5,"ySR":573.95,"xT1":424.9,"yT1":0,"xT2":1058.1,"yT2":0,"toosoon":0,"cond_shown":"equaldotsize","ratio_trial":750,"smaller_num":"6","larger_num":"8","correct_side":1,"subjID":"SantiagoAndresVargas35","gender":"0","age":"10","school":"6"},{"start_time":1551893317243,"click_time":1551893329562,"finger_time":1551893328963,"fix_duration":1498.6126016739013,"trial":25,"RT":11720,"MT":599,"sideResp":1,"stimulus":"img/250/equaldotsize/R/8_Ratio_250_L_1_R_4.png","xmouse":[752,752,752,752,752,752,752,752,752,752,752,752,752,752,752,752,752,752,752,752,752,752,752,752,752,752,752,752,752,752,752,752,752,752,752,752,752,752,752,752,752,752,752,752,752,752,752,752,752,752,752,752,752,752,752,752,752,752,752,752,752,752,752,752,752,752,752,752,752,752,752,752,752,752,752,752,752,752,752,752,752,752,752,752,752,752,752,752,752,752,752,752,752,752,752,752,752,752,752,752,752,752,752,752,752,752,752,752,752,752,752,752,752,752,752,752,752,752,752,752,752,752,752,752,752,752,752,752,752,752,752,752,752,752,752,752,752,752,752,752,752,752,752,752,752,752,752,752,752,752,752,752,752,752,752,752,752,752,752,752,752,752,752,752,752,752,752,752,752,752,752,752,752,752,752,752,752,752,752,752,752,752,752,752,752,752,752,752,752,752,752,752,752,752,752,752,752,752,752,752,752,752,752,752,752,752,752,752,752,752,752,752,752,752,752,752,752,752,752,752,752,752,752,752,752,752,752,752,752,752,752,752,752,752,752,752,752,752,752,752,752,752,752,752,752,752,752,752,752,752,752,752,752,752,752,752,752,752,752,752,752,752,752,752,752,752,752,752,752,752,752,752,752,752,752,752,752,752,752,752,752,752,752,752,752,752,752,752,752,752,752,752,752,752,752,752,752,752,752,752,752,752,752,752,752,752,752,752,752,752,752,752,752,752,752,752,752,752,752,752,752,752,752,752,752,752,752,752,752,752,752,752,752,752,752,752,752,752,752,752,752,752,752,752,752,752,752,752,752,752,752,752,752,752,752,752,752,752,752,752,752,752,752,752,752,752,752,752,752,752,752,752,752,752,752,752,752,752,752,752,752,752,752,752,752,752,752,752,752,752,752,752,752,752,752,752,752,752,752,752,752,752,752,752,752,752,752,752,752,752,752,752,752,752,752,752,752,752,752,752,752,752,752,752,752,752,752,752,752,752,752,752,752,752,752,752,752,752,752,752,752,752,752,752,752,752,752,752,752,752,752,752,752,752,752,752,752,752,752,752,752,752,752,752,752,752,752,752,752,752,752,752,752,752,752,752,752,752,752,752,752,752,752,752,752,752,752,752,752,752,752,752,752,752,752,752,752,752,752,752,752,752,752,752,752,752,752,752,752,752,752,752,752,752,752,752,752,752,752,752,752,752,752,752,752,752,752,752,752,752,752,752,752,752,752,752,752,752,752,752,752,752,752,752,752,752,752,752,752,752,752,752,752,752,752,752,752,752,752,752,752,752,754,755,757,757,757,757,757,757,757,757,757,757,757,757,757,757,757,754,754,754,754,754,753,749,709,699,695,692,684,678,674,671,666,661,659,647,619,595,576,570,570,570,570,567,556,555,554,554,554,550,538,528,514,492,468],"ymouse":[635,635,635,635,635,635,635,635,635,635,635,635,635,635,635,635,635,635,635,635,635,635,635,635,635,635,635,635,635,635,635,635,635,635,635,635,635,635,635,635,635,635,635,635,635,635,635,635,635,635,635,635,635,635,635,635,635,635,635,635,635,635,635,635,635,635,635,635,635,635,635,635,635,635,635,635,635,635,635,635,635,635,635,635,635,635,635,635,635,635,635,635,635,635,635,635,635,635,635,635,635,635,635,635,635,635,635,635,635,635,635,635,635,635,635,635,635,635,635,635,635,635,635,635,635,635,635,635,635,635,635,635,635,635,635,635,635,635,635,635,635,635,635,635,635,635,635,635,635,635,635,635,635,635,635,635,635,635,635,635,635,635,635,635,635,635,635,635,635,635,635,635,635,635,635,635,635,635,635,635,635,635,635,635,635,635,635,635,635,635,635,635,635,635,635,635,635,635,635,635,635,635,635,635,635,635,635,635,635,635,635,635,635,635,635,635,635,635,635,635,635,635,635,635,635,635,635,635,635,635,635,635,635,635,635,635,635,635,635,635,635,635,635,635,635,635,635,635,635,635,635,635,635,635,635,635,635,635,635,635,635,635,635,635,635,635,635,635,635,635,635,635,635,635,635,635,635,635,635,635,635,635,635,635,635,635,635,635,635,635,635,635,635,635,635,635,635,635,635,635,635,635,635,635,635,635,635,635,635,635,635,635,635,635,635,635,635,635,635,635,635,635,635,635,635,635,635,635,635,635,635,635,635,635,635,635,635,635,635,635,635,635,635,635,635,635,635,635,635,635,635,635,635,635,635,635,635,635,635,635,635,635,635,635,635,635,635,635,635,635,635,635,635,635,635,635,635,635,635,635,635,635,635,635,635,635,635,635,635,635,635,635,635,635,635,635,635,635,635,635,635,635,635,635,635,635,635,635,635,635,635,635,635,635,635,635,635,635,635,635,635,635,635,635,635,635,635,635,635,635,635,635,635,635,635,635,635,635,635,635,635,635,635,635,635,635,635,635,635,635,635,635,635,635,635,635,635,635,635,635,635,635,635,635,635,635,635,635,635,635,635,635,635,635,635,635,635,635,635,635,635,635,635,635,635,635,635,635,635,635,635,635,635,635,635,635,635,635,635,635,635,635,635,635,635,635,635,635,635,635,635,635,635,635,635,635,635,635,635,635,635,635,635,635,635,635,635,635,635,635,635,635,635,635,635,635,635,635,635,635,635,635,635,635,635,635,635,635,635,635,635,635,635,635,635,635,635,635,635,635,635,635,635,635,636,636,636,636,636,636,636,636,636,636,636,636,636,636,636,635,635,635,635,635,628,611,490,467,451,431,402,351,333,314,298,290,284,270,239,213,194,185,184,184,184,175,149,147,147,147,147,146,140,136,129,113,94],"timestamp_mouse":[1,21,43,59,79,100,120,139,160,179,200,220,239,260,280,299,320,340,360,380,401,421,439,460,479,499,521,541,559,580,600,620,640,659,680,699,721,739,759,780,800,821,840,859,880,901,920,941,959,979,1000,1021,1041,1060,1080,1100,1120,1141,1160,1180,1201,1220,1241,1259,1280,1300,1319,1341,1361,1380,1399,1420,1440,1459,1481,1499,1521,1540,1560,1580,1601,1619,1640,1661,1681,1699,1720,1739,1759,1780,1800,1819,1841,1859,1880,1901,1920,1940,1959,1980,2001,2020,2040,2060,2079,2100,2121,2141,2159,2179,2201,2219,2239,2260,2279,2300,2320,2339,2360,2381,2400,2420,2439,2461,2481,2500,2519,2541,2560,2581,2599,2620,2639,2660,2680,2699,2721,2741,2759,2780,2799,2820,2839,2860,2879,2901,2920,2940,2960,2980,2999,3021,3040,3059,3080,3101,3119,3141,3160,3179,3200,3219,3239,3261,3279,3300,3321,3340,3360,3380,3399,3421,3441,3459,3480,3499,3520,3540,3560,3580,3600,3620,3639,3660,3680,3701,3719,3741,3759,3781,3800,3820,3840,3860,3880,3899,3921,3939,3960,3981,4001,4020,4040,4061,4079,4099,4121,4141,4159,4180,4199,4220,4240,4261,4279,4299,4320,4339,4360,4380,4399,4420,4439,4459,4481,4501,4519,4541,4560,4581,4600,4621,4641,4659,4681,4700,4720,4740,4760,4780,4799,4820,4840,4860,4881,4901,4920,4939,4960,4980,5000,5019,5041,5059,5080,5100,5119,5140,5160,5179,5200,5220,5239,5261,5279,5300,5321,5339,5360,5379,5400,5421,5439,5461,5479,5500,5520,5540,5561,5581,5600,5619,5639,5659,5679,5701,5721,5741,5760,5779,5799,5821,5839,5861,5881,5900,5919,5941,5960,5979,6001,6019,6039,6059,6079,6100,6120,6140,6161,6179,6200,6220,6240,6261,6280,6300,6320,6341,6359,6380,6399,6420,6440,6459,6481,6499,6521,6541,6559,6581,6600,6619,6641,6661,6679,6700,6720,6739,6761,6779,6799,6821,6839,6861,6880,6900,6920,6939,6959,6981,7000,7019,7039,7059,7080,7101,7120,7139,7159,7179,7201,7220,7239,7260,7279,7301,7320,7339,7361,7380,7399,7419,7440,7460,7481,7499,7519,7541,7559,7580,7599,7621,7640,7660,7680,7699,7720,7739,7759,7779,7800,7819,7840,7859,7881,7899,7921,7940,7960,7980,7999,8020,8039,8060,8079,8100,8119,8140,8160,8181,8199,8220,8239,8259,8281,8299,8320,8340,8361,8379,8400,8419,8441,8461,8480,8500,8521,8541,8559,8581,8599,8620,8641,8661,8681,8700,8720,8741,8761,8781,8800,8819,8839,8861,8881,8901,8920,8940,8959,8980,8999,9020,9041,9060,9079,9101,9119,9140,9161,9181,9199,9221,9240,9261,9279,9300,9320,9340,9361,9381,9400,9420,9441,9461,9479,9499,9520,9541,9559,9580,9601,9621,9640,9661,9680,9700,9720,9740,9759,9781,9799,9821,9839,9859,9881,9900,9921,9940,9959,9979,10000,10019,10039,10060,10079,10101,10120,10139,10161,10180,10201,10219,10240,10261,10279,10299,10320,10339,10361,10380,10399,10421,10440,10459,10479,10501,10519,10541,10560,10579,10601,10620,10640,10660,10679,10699,10720,10739,10760,10779,10800,10821,10840,10860,10880,10899,10920,10941,10959,10981,11000,11019,11041,11060,11079,11100,11119,11139,11160,11179,11201,11221,11241,11260,11279,11301,11320,11340,11361,11380,11400,11420,11441,11460,11480,11499,11520,11541,11561,11580,11600,11620,11641,11659,11680,11700,11720,11739,11760,11780,11800,11820,11841,11860,11879,11899,11919,11939,11960,11979,11999,12021,12040,12060,12080,12100,12120,12140,12160,12180,12199,12220,12240,12259,12280,12299,12319],"xSR":741.5,"ySR":573.95,"xT1":424.9,"yT1":0,"xT2":1058.1,"yT2":0,"toosoon":0,"cond_shown":"equaldotsize","ratio_trial":250,"smaller_num":"1","larger_num":"4","correct_side":2,"subjID":"SantiagoAndresVargas35","gender":"0","age":"10","school":"6"},{"start_time":1551893330667,"click_time":1551893331762,"finger_time":1551893331443,"fix_duration":262.6217835369853,"trial":26,"RT":776,"MT":319,"sideResp":2,"stimulus":"img/250/equaldotsize/R/8_Ratio_250_L_1_R_4.png","xmouse":[796,796,796,796,796,796,796,796,796,796,796,796,796,796,796,796,796,796,796,796,796,796,796,796,796,796,796,796,796,796,796,796,796,796,796,796,797,811,853,881,886,891,901,911,943,960,987,1007,1034,1072,1085,1092,1095,1098,1101],"ymouse":[619,619,619,619,619,619,619,619,619,619,619,619,619,619,619,619,619,619,619,619,619,619,619,619,619,619,619,619,619,619,619,619,619,619,620,620,620,589,491,437,430,421,404,381,316,283,244,217,184,140,128,119,115,110,98],"timestamp_mouse":[18,36,55,75,95,116,137,156,177,196,217,236,256,277,295,315,337,355,376,396,417,436,456,476,496,517,536,555,576,596,617,636,655,676,697,717,736,756,776,796,816,835,855,876,897,917,937,955,976,995,1015,1035,1056,1075,1095],"xSR":741.5,"ySR":573.95,"xT1":424.9,"yT1":0,"xT2":1058.1,"yT2":0,"toosoon":0,"cond_shown":"equaldotsize","ratio_trial":250,"smaller_num":"1","larger_num":"4","correct_side":2,"subjID":"SantiagoAndresVargas35","gender":"0","age":"10","school":"6"},{"start_time":1551893334041,"click_time":1551893335242,"finger_time":1551893334762,"fix_duration":1416.57134343014,"trial":27,"RT":721,"MT":480,"sideResp":2,"stimulus":"img/750/randomdotsizeEA/R/4_Ratio_750_L_15_R_20.png","xmouse":[809,809,809,809,809,809,809,809,809,809,809,809,809,809,809,809,809,809,809,809,809,809,809,809,809,809,809,809,809,809,809,809,809,809,809,809,823,837,850,881,890,908,921,932,940,943,964,970,972,975,985,994,994,994,994,994,994,996,1020,1047,1107],"ymouse":[598,598,598,598,598,598,598,598,598,598,598,598,598,598,598,598,598,598,598,598,598,598,598,598,598,598,598,598,598,598,598,598,598,598,598,579,398,308,249,193,177,150,143,138,133,130,124,124,125,128,134,138,138,138,138,138,138,138,121,102,76],"timestamp_mouse":[8,36,43,62,82,102,121,143,161,182,202,221,242,262,281,301,322,342,361,381,403,421,441,462,483,502,521,542,561,582,602,623,641,661,681,702,721,742,763,782,801,822,841,862,882,902,923,941,961,982,1002,1023,1041,1062,1082,1102,1122,1142,1163,1182,1201],"xSR":741.5,"ySR":573.95,"xT1":424.9,"yT1":0,"xT2":1058.1,"yT2":0,"toosoon":0,"cond_shown":"randomdotsizeEA","ratio_trial":750,"smaller_num":"15","larger_num":"20","correct_side":2,"subjID":"SantiagoAndresVargas35","gender":"0","age":"10","school":"6"},{"start_time":1551893337224,"click_time":1551893338383,"finger_time":1551893337963,"fix_duration":1078.571926577803,"trial":28,"RT":739,"MT":420,"sideResp":2,"stimulus":"img/900/equaldotsize/L/2_Ratio_900_L_20_R_18.png","xmouse":[785,785,785,785,785,785,785,785,785,785,785,785,785,785,785,785,785,785,785,785,785,785,785,785,785,785,785,785,785,785,785,785,785,785,785,785,785,830,900,984,1065,1113,1153,1157,1158,1159,1163,1187,1197,1201,1201,1201,1201,1201,1200,1197,1193,1166,1145],"ymouse":[634,634,634,634,634,634,634,634,634,634,634,634,634,634,634,634,634,634,634,634,634,634,634,634,634,634,634,634,634,634,634,634,634,634,634,634,625,527,427,332,264,220,152,141,138,134,123,98,89,86,85,85,85,85,83,82,81,70,61],"timestamp_mouse":[1,20,48,60,78,99,118,138,159,179,198,220,238,258,279,300,319,338,360,378,400,419,439,460,479,498,520,538,560,579,598,619,638,658,680,700,718,739,759,780,799,819,838,859,878,898,918,939,959,979,998,1019,1038,1059,1080,1099,1119,1139,1158],"xSR":741.5,"ySR":573.95,"xT1":424.9,"yT1":0,"xT2":1058.1,"yT2":0,"toosoon":0,"cond_shown":"equaldotsize","ratio_trial":900,"smaller_num":"18","larger_num":"20","correct_side":1,"subjID":"SantiagoAndresVargas35","gender":"0","age":"10","school":"6"},{"start_time":1551893340383,"click_time":1551893341763,"finger_time":1551893341182,"fix_duration":1158.0291775378696,"trial":29,"RT":799,"MT":581,"sideResp":2,"stimulus":"img/250/randomdotsizeEA/R/11_Ratio_250_L_3_R_12.png","xmouse":[837,837,837,837,837,837,837,837,837,837,837,837,837,837,837,837,837,837,837,837,837,837,837,837,837,837,837,837,837,837,837,837,837,837,837,837,837,837,837,837,850,897,951,1025,1132,1164,1184,1195,1208,1221,1228,1236,1238,1238,1237,1233,1227,1215,1205,1189,1183,1181,1178,1178,1178,1178,1176,1173,1163,1149],"ymouse":[621,621,621,621,621,621,621,621,621,621,621,621,621,621,621,621,621,621,621,621,621,621,621,621,621,621,621,621,621,621,621,621,621,621,621,621,621,621,621,621,588,501,420,316,192,155,135,116,95,53,38,15,4,0,0,0,0,1,8,18,21,22,24,24,24,24,25,27,34,43],"timestamp_mouse":[11,35,39,61,79,99,119,141,161,181,199,219,240,261,280,299,321,341,360,380,399,419,439,461,479,499,520,539,560,579,599,621,639,661,680,700,721,739,759,779,799,820,839,859,879,901,921,940,959,979,999,1020,1040,1060,1080,1101,1120,1140,1161,1179,1199,1219,1240,1260,1279,1300,1319,1340,1361,1380],"xSR":741.5,"ySR":573.95,"xT1":424.9,"yT1":0,"xT2":1058.1,"yT2":0,"toosoon":0,"cond_shown":"randomdotsizeEA","ratio_trial":250,"smaller_num":"3","larger_num":"12","correct_side":2,"subjID":"SantiagoAndresVargas35","gender":"0","age":"10","school":"6"},{"start_time":1551893343876,"click_time":1551893345163,"finger_time":1551893344743,"fix_duration":431.93439303057323,"trial":30,"RT":867,"MT":420,"sideResp":1,"stimulus":"img/500/equaldotsize/L/4_Ratio_500_L_18_R_9.png","xmouse":[753,753,753,753,753,753,753,753,753,753,753,753,753,753,753,753,753,753,753,753,753,753,753,753,753,753,753,753,753,753,753,753,753,753,753,753,753,753,753,753,753,750,747,741,713,693,655,637,621,594,588,581,579,576,571,570,567,563,557,549,544,535,530,528,517],"ymouse":[632,632,632,632,632,632,632,632,632,632,632,632,632,632,632,632,632,632,632,632,632,632,632,632,632,632,632,632,632,632,632,632,632,632,632,632,632,632,632,632,632,631,629,625,557,497,431,404,378,324,301,276,246,220,172,158,151,138,123,109,103,99,97,96,91],"timestamp_mouse":[10,35,46,66,86,107,127,146,166,187,206,226,246,267,288,307,326,346,366,387,408,427,446,466,486,506,527,546,567,586,608,626,646,667,688,708,727,746,768,788,806,827,847,867,888,907,926,946,967,986,1007,1026,1048,1067,1086,1107,1128,1148,1168,1186,1207,1226,1247,1267,1287],"xSR":741.5,"ySR":573.95,"xT1":424.9,"yT1":0,"xT2":1058.1,"yT2":0,"toosoon":0,"cond_shown":"equaldotsize","ratio_trial":500,"smaller_num":"9","larger_num":"18","correct_side":1,"subjID":"SantiagoAndresVargas35","gender":"0","age":"10","school":"6"},{"start_time":1551893347194,"click_time":1551893361243,"finger_time":1551893360362,"fix_duration":250,"trial":31,"RT":13168,"MT":881,"sideResp":2,"stimulus":"img/500/randomdotsizeEA/R/2_Ratio_500_L_3_R_6.png","xmouse":[803,803,803,803,803,803,803,803,803,803,803,803,803,803,803,803,803,803,803,803,803,803,803,803,803,803,803,803,803,803,803,803,803,803,803,803,803,803,803,803,803,803,803,803,803,803,803,803,803,803,803,803,803,803,803,803,803,803,803,803,803,803,803,803,803,803,803,803,803,803,803,803,803,803,803,803,803,803,803,803,803,803,803,803,803,803,803,803,803,803,803,803,803,803,803,803,803,803,803,803,803,803,803,803,803,803,803,803,803,803,803,803,803,803,803,803,803,803,803,803,803,803,803,803,803,803,803,803,803,803,803,803,803,803,803,803,803,803,803,803,803,803,803,803,803,803,803,803,803,803,803,803,803,803,803,803,803,803,803,803,803,803,803,803,803,803,803,803,803,803,803,803,803,803,803,803,803,803,803,803,803,803,803,803,803,803,803,803,803,803,803,803,803,803,803,803,803,803,803,803,803,803,803,803,803,803,803,803,803,803,803,803,803,803,803,803,803,803,803,803,803,803,803,803,803,803,803,803,803,803,803,803,803,803,803,803,803,803,803,803,803,803,803,803,803,803,803,803,803,803,803,803,803,803,803,803,803,803,803,803,803,803,803,803,803,803,803,803,803,803,803,803,803,803,803,803,803,803,803,803,803,803,803,803,803,803,803,803,803,803,803,803,803,803,803,803,803,803,803,803,803,803,803,803,803,803,803,803,803,803,803,803,803,803,803,803,803,803,803,803,803,803,803,803,803,803,803,803,803,803,803,803,803,803,803,803,803,803,803,803,803,803,803,803,803,803,803,803,803,803,803,803,803,803,803,803,803,803,803,803,803,803,803,803,803,803,803,803,803,803,803,803,803,803,803,803,803,803,803,803,803,803,803,803,803,803,803,803,803,803,803,803,803,803,803,803,803,803,803,803,803,803,803,803,803,803,803,803,803,803,803,803,803,803,803,803,803,803,803,803,803,803,803,803,803,803,803,803,803,803,803,803,803,803,803,803,803,803,803,803,803,803,803,803,803,803,803,803,803,803,803,803,803,803,803,803,803,803,803,803,803,803,803,803,803,803,803,803,803,803,803,803,803,803,803,803,803,803,803,803,803,803,803,803,803,803,803,803,803,803,803,803,803,803,803,803,803,803,803,803,803,803,803,803,803,803,803,803,803,803,803,803,803,803,803,803,803,803,803,803,803,803,803,803,803,803,803,803,803,803,803,803,803,803,803,803,803,803,803,803,803,803,803,803,803,803,803,803,803,803,803,803,803,803,803,803,803,803,803,803,803,803,803,803,803,803,803,803,803,803,803,803,803,803,803,803,803,803,803,803,803,803,803,803,803,803,803,803,803,803,803,803,803,803,803,803,803,803,803,803,803,803,803,803,803,803,803,803,803,803,803,803,803,803,803,803,803,803,803,803,803,803,803,803,803,803,803,803,803,803,803,803,803,803,803,803,803,803,803,803,803,803,803,803,803,803,803,803,803,803,803,803,803,803,803,803,803,826,913,917,917,917,917,917,917,917,917,917,917,917,917,917,917,917,918,915,915,914,923,932,947,963,974,1001,1013,1029,1046,1073,1099,1099,1099,1099,1099,1099,1099,1099,1099,1099,1099,1099,1099,1099,1099],"ymouse":[598,598,598,598,598,598,598,598,598,598,598,598,598,598,598,598,598,598,598,598,598,598,598,598,598,598,598,598,598,598,598,598,598,598,598,598,598,598,598,598,598,598,598,598,598,598,598,598,598,598,598,598,598,598,598,598,598,598,598,598,598,598,598,598,598,598,598,598,598,598,598,598,598,598,598,598,598,598,598,598,598,598,598,598,598,598,598,598,598,598,598,598,598,598,598,598,598,598,598,598,598,598,598,598,598,598,598,598,598,598,598,598,598,598,598,598,598,598,598,598,598,598,598,598,598,598,598,598,598,598,598,598,598,598,598,598,598,598,598,598,598,598,598,598,598,598,598,598,598,598,598,598,598,598,598,598,598,598,598,598,598,598,598,598,598,598,598,598,598,598,598,598,598,598,598,598,598,598,598,598,598,598,598,598,598,598,598,598,598,598,598,598,598,598,598,598,598,598,598,598,598,598,598,598,598,598,598,598,598,598,598,598,598,598,598,598,598,598,598,598,598,598,598,598,598,598,598,598,598,598,598,598,598,598,598,598,598,598,598,598,598,598,598,598,598,598,598,598,598,598,598,598,598,598,598,598,598,598,598,598,598,598,598,598,598,598,598,598,598,598,598,598,598,598,598,598,598,598,598,598,598,598,598,598,598,598,598,598,598,598,598,598,598,598,598,598,598,598,598,598,598,598,598,598,598,598,598,598,598,598,598,598,598,598,598,598,598,598,598,598,598,598,598,598,598,598,598,598,598,598,598,598,598,598,598,598,598,598,598,598,598,598,598,598,598,598,598,598,598,598,598,598,598,598,598,598,598,598,598,598,598,598,598,598,598,598,598,598,598,598,598,598,598,598,598,598,598,598,598,598,598,598,598,598,598,598,598,598,598,598,598,598,598,598,598,598,598,598,598,598,598,598,598,598,598,598,598,598,598,598,598,598,598,598,598,598,598,598,598,598,598,598,598,598,598,598,598,598,598,598,598,598,598,598,598,598,598,598,598,598,598,598,598,598,598,598,598,598,598,598,598,598,598,598,598,598,598,598,598,598,598,598,598,598,598,598,598,598,598,598,598,598,598,598,598,598,598,598,598,598,598,598,598,598,598,598,598,598,598,598,598,598,598,598,598,598,598,598,598,598,598,598,598,598,598,598,598,598,598,598,598,598,598,598,598,598,598,598,598,598,598,598,598,598,598,598,598,598,598,598,598,598,598,598,598,598,598,598,598,598,598,598,598,598,598,598,598,598,598,598,598,598,598,598,598,598,598,598,598,598,598,598,598,598,598,598,598,598,598,598,598,598,598,598,598,598,598,598,598,598,598,598,598,598,598,598,598,598,598,598,598,598,598,598,598,598,598,598,598,598,598,598,598,598,598,598,598,598,598,598,598,598,598,598,598,598,598,598,598,598,598,598,598,598,598,598,598,598,598,598,598,598,598,598,598,598,598,598,598,598,598,598,598,598,598,598,598,598,598,598,598,598,598,598,598,598,598,594,551,549,549,549,549,549,549,549,549,549,549,549,549,549,549,549,501,456,412,346,267,232,178,131,104,46,30,10,0,0,0,0,0,0,0,0,0,0,0,0,0,0,0,0,5],"timestamp_mouse":[11,29,48,69,88,108,129,149,169,189,208,228,250,269,288,308,329,348,369,389,409,428,449,468,488,510,528,550,568,588,610,629,648,669,688,708,729,748,769,789,808,829,850,868,889,910,929,949,968,989,1010,1028,1050,1069,1089,1108,1128,1149,1168,1188,1210,1229,1249,1269,1289,1309,1329,1349,1368,1390,1408,1428,1449,1468,1488,1510,1528,1549,1568,1590,1608,1630,1649,1669,1689,1709,1730,1748,1770,1789,1809,1829,1850,1869,1889,1908,1929,1950,1969,1989,2010,2028,2049,2068,2089,2109,2128,2149,2168,2189,2209,2230,2250,2268,2288,2308,2330,2348,2369,2389,2410,2428,2449,2470,2490,2509,2529,2549,2568,2589,2610,2628,2648,2669,2690,2709,2730,2749,2770,2789,2809,2830,2848,2869,2889,2908,2930,2949,2970,2989,3009,3029,3048,3068,3090,3109,3129,3149,3168,3189,3210,3229,3249,3269,3288,3310,3329,3349,3369,3390,3408,3429,3450,3469,3489,3509,3528,3550,3568,3589,3609,3630,3649,3670,3690,3708,3730,3748,3770,3790,3809,3828,3848,3870,3888,3908,3930,3948,3969,3990,4009,4028,4050,4070,4088,4108,4130,4149,4168,4190,4209,4228,4248,4269,4290,4310,4328,4350,4369,4390,4409,4428,4449,4469,4489,4509,4529,4549,4569,4589,4610,4628,4648,4670,4688,4710,4728,4750,4768,4790,4810,4828,4848,4870,4889,4909,4930,4949,4968,4989,5009,5028,5048,5070,5090,5108,5129,5148,5170,5189,5209,5229,5248,5269,5289,5310,5330,5348,5369,5390,5410,5428,5450,5470,5489,5509,5529,5549,5569,5589,5609,5629,5650,5670,5689,5708,5729,5750,5769,5789,5810,5829,5848,5868,5889,5909,5929,5949,5970,5990,6008,6029,6050,6068,6089,6110,6130,6149,6169,6190,6209,6229,6249,6270,6288,6310,6328,6349,6370,6389,6409,6430,6449,6469,6489,6509,6529,6550,6570,6589,6609,6629,6649,6670,6690,6708,6728,6750,6769,6789,6810,6830,6848,6869,6890,6908,6929,6950,6969,6990,7008,7029,7049,7070,7088,7110,7128,7150,7169,7190,7209,7229,7249,7269,7290,7308,7329,7349,7369,7389,7410,7428,7450,7469,7489,7509,7530,7549,7569,7589,7608,7629,7650,7668,7690,7708,7728,7749,7768,7789,7808,7828,7849,7869,7888,7908,7929,7950,7969,7988,8008,8029,8049,8068,8088,8108,8131,8148,8169,8188,8209,8230,8250,8269,8288,8308,8330,8349,8368,8389,8408,8429,8449,8468,8490,8508,8530,8548,8569,8589,8608,8629,8649,8669,8688,8708,8730,8750,8768,8790,8808,8830,8848,8870,8888,8909,8929,8949,8969,8990,9009,9029,9048,9070,9089,9108,9129,9149,9168,9189,9209,9228,9248,9270,9288,9308,9329,9348,9368,9388,9410,9430,9448,9468,9488,9509,9529,9549,9570,9588,9609,9628,9648,9669,9690,9708,9729,9749,9769,9789,9810,9829,9848,9869,9888,9910,9928,9949,9970,9988,10010,10030,10048,10069,10089,10110,10129,10149,10170,10190,10208,10229,10249,10270,10288,10308,10329,10348,10370,10390,10409,10430,10448,10469,10489,10510,10529,10549,10569,10588,10609,10630,10649,10670,10689,10708,10730,10748,10770,10788,10808,10829,10850,10869,10889,10908,10928,10948,10968,10988,11009,11029,11048,11068,11090,11109,11129,11148,11170,11189,11208,11228,11250,11268,11289,11308,11329,11348,11369,11389,11409,11429,11448,11468,11488,11508,11529,11548,11568,11589,11609,11629,11649,11668,11688,11708,11728,11749,11768,11788,11808,11829,11849,11869,11889,11909,11928,11949,11968,11988,12008,12029,12048,12069,12088,12108,12128,12148,12168,12189,12209,12228,12249,12269,12289,12309,12328,12349,12369,12389,12409,12429,12449,12468,12489,12509,12529,12549,12569,12588,12610,12629,12650,12669,12688,12710,12728,12748,12770,12788,12809,12829,12848,12868,12889,12910,12929,12949,12969,12988,13009,13029,13050,13069,13090,13109,13129,13149,13168,13188,13210,13229,13249,13269,13290,13309,13329,13348,13368,13389,13410,13429,13448,13468,13488,13508,13528,13548,13569,13589,13608,13628,13650,13669,13689,13709,13728,13749,13769,13788,13809,13829,13849,13869,13888,13908,13929,13948,13970,13989,14009,14030,14049],"xSR":741.5,"ySR":573.95,"xT1":424.9,"yT1":0,"xT2":1058.1,"yT2":0,"toosoon":0,"cond_shown":"randomdotsizeEA","ratio_trial":500,"smaller_num":"3","larger_num":"6","correct_side":2,"subjID":"SantiagoAndresVargas35","gender":"0","age":"10","school":"6"},{"start_time":1551893363496,"click_time":1551893374304,"finger_time":1551893373723,"fix_duration":1451.275815580181,"trial":32,"RT":10227,"MT":581,"sideResp":1,"stimulus":"img/250/equaldotanddens/L/15_Ratio_250_L_12_R_3.png","xmouse":[769,769,769,769,769,769,769,769,769,769,769,769,769,769,769,769,769,769,769,769,769,769,769,769,769,769,769,769,769,769,769,769,769,769,769,769,769,769,769,769,769,769,769,769,769,769,769,769,769,769,769,769,769,769,769,769,769,769,769,769,769,769,769,769,769,769,769,769,769,769,769,769,769,769,769,769,769,769,769,769,769,769,769,769,769,769,769,769,769,769,769,769,769,769,769,769,769,769,769,769,769,769,769,769,769,769,769,769,769,769,769,769,769,769,769,769,769,769,769,769,769,769,769,769,769,769,769,769,769,769,769,769,769,769,769,769,769,769,769,769,769,769,769,769,769,769,769,769,769,769,769,769,769,769,769,769,769,769,769,769,769,769,769,769,769,769,769,769,769,769,769,769,769,769,769,769,769,769,769,769,769,769,769,769,769,769,769,769,769,769,769,769,769,769,769,769,769,769,769,769,769,769,769,769,769,769,769,769,769,769,769,769,769,769,769,769,769,769,769,769,769,769,769,769,769,769,769,769,769,769,769,769,769,769,769,769,769,769,769,769,769,769,769,769,769,769,769,769,769,769,769,769,769,769,769,769,769,769,769,769,769,769,769,769,769,769,769,769,769,769,769,769,769,769,769,769,769,769,769,769,769,769,769,769,769,769,769,769,769,769,769,769,769,769,769,769,769,769,769,769,769,769,769,769,769,769,769,769,769,769,769,769,769,769,769,769,769,769,769,769,769,769,769,769,769,769,769,769,769,769,769,769,769,769,769,769,769,769,769,769,769,769,769,769,769,769,769,769,769,769,769,769,769,769,769,769,769,769,769,769,769,769,769,769,769,769,769,769,769,769,769,769,769,769,769,769,769,769,769,769,769,769,769,769,769,769,769,769,769,769,769,769,769,769,769,769,769,769,769,769,769,769,769,769,769,769,769,769,769,769,769,769,769,769,769,769,769,769,769,769,769,769,769,769,769,769,769,769,769,769,769,769,769,769,769,769,769,769,769,769,769,769,769,769,769,769,769,769,769,769,769,769,769,769,769,769,769,769,769,769,769,769,769,769,769,769,769,769,769,769,769,769,769,769,769,769,769,769,769,769,769,769,769,769,769,769,769,769,769,769,769,769,769,769,769,769,769,769,769,769,769,769,769,769,769,769,769,769,769,769,749,693,627,579,579,579,579,579,579,579,585,596,603,605,605,605,606,608,629,643,649,652,654,655,658,662,665,668,619,563,499],"ymouse":[672,672,672,672,672,672,672,672,672,672,672,672,672,672,672,672,672,672,672,672,672,672,672,672,672,672,672,672,672,672,672,672,672,672,672,672,672,672,672,672,672,672,672,672,672,672,672,672,672,672,672,672,672,672,672,672,672,672,672,672,672,672,672,672,672,672,672,672,672,672,672,672,672,672,672,672,672,672,672,672,672,672,672,672,672,672,672,672,672,672,672,672,672,672,672,672,672,672,672,672,672,672,672,672,672,672,672,672,672,672,672,672,672,672,672,672,672,672,672,672,672,672,672,672,672,672,672,672,672,672,672,672,672,672,672,672,672,672,672,672,672,672,672,672,672,672,672,672,672,672,672,672,672,672,672,672,672,672,672,672,672,672,672,672,672,672,672,672,672,672,672,672,672,672,672,672,672,672,672,672,672,672,672,672,672,672,672,672,672,672,672,672,672,672,672,672,672,672,672,672,672,672,672,672,672,672,672,672,672,672,672,672,672,672,672,672,672,672,672,672,672,672,672,672,672,672,672,672,672,672,672,672,672,672,672,672,672,672,672,672,672,672,672,672,672,672,672,672,672,672,672,672,672,672,672,672,672,672,672,672,672,672,672,672,672,672,672,672,672,672,672,672,672,672,672,672,672,672,672,672,672,672,672,672,672,672,672,672,672,672,672,672,672,672,672,672,672,672,672,672,672,672,672,672,672,672,672,672,672,672,672,672,672,672,672,672,672,672,672,672,672,672,672,672,672,672,672,672,672,672,672,672,672,672,672,672,672,672,672,672,672,672,672,672,672,672,672,672,672,672,672,672,672,672,672,672,672,672,672,672,672,672,672,672,672,672,672,672,672,672,672,672,672,672,672,672,672,672,672,672,672,672,672,672,672,672,672,672,672,672,672,672,672,672,672,672,672,672,672,672,672,672,672,672,672,672,672,672,672,672,672,672,672,672,672,672,672,672,672,672,672,672,672,672,672,672,672,672,672,672,672,672,672,672,672,672,672,672,672,672,672,672,672,672,672,672,672,672,672,672,672,672,672,672,672,672,672,672,672,672,672,672,672,672,672,672,672,672,672,672,672,672,672,672,672,672,672,672,672,672,672,672,672,672,672,672,672,672,672,672,672,672,672,672,672,672,672,672,672,672,672,672,672,672,672,672,672,672,672,672,643,573,495,453,453,453,453,453,453,453,456,461,465,466,466,466,466,466,446,425,412,403,396,380,364,340,305,249,150,86,31],"timestamp_mouse":[9,33,47,67,87,108,126,147,167,186,208,228,246,267,288,307,327,347,366,386,406,428,446,468,488,508,527,547,569,588,608,628,647,668,688,708,728,747,767,788,807,827,847,868,888,908,927,947,967,987,1009,1028,1047,1069,1088,1108,1127,1148,1167,1187,1209,1229,1247,1269,1287,1307,1327,1347,1368,1387,1408,1427,1448,1468,1488,1508,1527,1547,1567,1588,1609,1628,1649,1667,1687,1708,1728,1747,1767,1789,1809,1827,1847,1869,1888,1909,1928,1947,1968,1989,2007,2028,2047,2067,2089,2107,2127,2147,2169,2188,2207,2227,2247,2268,2289,2307,2327,2347,2367,2387,2407,2428,2447,2468,2489,2509,2529,2547,2568,2587,2608,2627,2647,2667,2687,2709,2728,2747,2767,2787,2808,2828,2848,2868,2888,2908,2929,2949,2967,2988,3007,3027,3047,3067,3088,3107,3127,3147,3168,3187,3207,3228,3247,3267,3288,3308,3328,3347,3368,3388,3407,3427,3447,3467,3489,3507,3527,3548,3567,3588,3607,3627,3648,3667,3687,3709,3727,3749,3767,3788,3808,3829,3848,3868,3889,3907,3928,3948,3967,3989,4007,4027,4048,4067,4088,4108,4127,4147,4167,4189,4209,4228,4249,4267,4287,4308,4327,4347,4369,4387,4408,4427,4448,4467,4487,4508,4527,4548,4567,4587,4608,4629,4647,4669,4687,4707,4727,4748,4767,4788,4807,4828,4847,4869,4887,4909,4927,4949,4967,4988,5008,5027,5048,5068,5087,5109,5127,5148,5168,5189,5207,5228,5248,5268,5289,5307,5327,5347,5368,5387,5408,5428,5449,5467,5487,5507,5528,5548,5568,5587,5608,5627,5648,5668,5687,5707,5727,5749,5768,5788,5808,5828,5848,5868,5888,5907,5928,5948,5968,5989,6007,6027,6048,6067,6088,6108,6128,6148,6167,6187,6208,6228,6249,6268,6287,6307,6329,6347,6367,6388,6409,6427,6447,6468,6487,6509,6527,6547,6568,6589,6607,6627,6648,6667,6688,6708,6728,6748,6768,6788,6808,6828,6849,6867,6888,6908,6927,6947,6967,6989,7007,7028,7047,7069,7088,7107,7128,7148,7167,7187,7208,7227,7248,7267,7288,7307,7328,7349,7367,7387,7409,7427,7448,7467,7487,7507,7527,7547,7567,7588,7608,7627,7647,7667,7688,7707,7728,7748,7768,7787,7807,7829,7848,7868,7889,7908,7927,7947,7967,7988,8007,8028,8047,8067,8088,8108,8127,8148,8168,8188,8207,8227,8249,8267,8287,8307,8329,8347,8368,8387,8408,8427,8448,8468,8487,8507,8528,8548,8569,8588,8607,8627,8647,8667,8687,8707,8728,8748,8768,8788,8809,8827,8847,8867,8887,8909,8927,8948,8967,8988,9009,9027,9047,9068,9089,9108,9127,9148,9167,9188,9209,9227,9249,9268,9288,9307,9327,9347,9368,9387,9407,9428,9448,9469,9488,9508,9528,9548,9567,9587,9608,9627,9647,9668,9687,9709,9727,9747,9768,9787,9807,9828,9847,9869,9888,9909,9927,9947,9968,9989,10008,10027,10049,10067,10089,10107,10127,10148,10167,10188,10209,10227,10247,10268,10288,10307,10327,10347,10368,10388,10408,10427,10447,10467,10487,10507,10528,10548,10568,10588,10609,10628,10648,10667,10687,10708,10727,10749,10768,10787,10808],"xSR":741.5,"ySR":573.95,"xT1":424.9,"yT1":0,"xT2":1058.1,"yT2":0,"toosoon":0,"cond_shown":"equaldotanddens","ratio_trial":250,"smaller_num":"3","larger_num":"12","correct_side":1,"subjID":"SantiagoAndresVargas35","gender":"0","age":"10","school":"6"},{"start_time":1551893376932,"click_time":1551893378063,"finger_time":1551893377464,"fix_duration":308.70828289082385,"trial":33,"RT":532,"MT":599,"sideResp":2,"stimulus":"img/250/equaldotanddens/R/12_Ratio_250_L_5_R_20.png","xmouse":[823,823,823,823,823,823,823,823,823,823,823,823,823,823,823,823,823,823,823,823,823,823,823,823,823,823,856,948,1027,1075,1119,1190,1200,1209,1230,1240,1253,1269,1270,1270,1270,1265,1254,1239,1210,1192,1190,1190,1190,1190,1190,1190,1190,1189,1183,1170,1138],"ymouse":[612,612,612,612,612,612,612,612,612,612,612,612,612,612,612,612,612,612,612,612,612,612,612,612,612,612,571,433,309,224,166,92,75,56,20,4,0,0,0,0,0,0,0,2,15,17,17,17,17,17,18,18,18,18,25,37,59],"timestamp_mouse":[11,35,51,72,92,113,132,153,171,191,213,231,252,271,291,312,332,353,373,391,412,432,451,471,491,512,532,552,571,591,611,631,652,673,691,712,731,752,772,791,811,831,851,871,893,913,933,952,971,991,1011,1031,1052,1072,1093,1113,1131],"xSR":741.5,"ySR":573.95,"xT1":424.9,"yT1":0,"xT2":1058.1,"yT2":0,"toosoon":0,"cond_shown":"equaldotanddens","ratio_trial":250,"smaller_num":"5","larger_num":"20","correct_side":2,"subjID":"SantiagoAndresVargas35","gender":"0","age":"10","school":"6"},{"start_time":1551893379873,"click_time":1551893380904,"finger_time":1551893380323,"fix_duration":966.7027366805283,"trial":34,"RT":450,"MT":581,"sideResp":2,"stimulus":"img/750/randomdotsizeEA/R/11_Ratio_750_L_12_R_16.png","xmouse":[803,803,803,803,803,803,803,803,803,803,803,803,803,803,803,803,803,803,803,803,803,812,834,873,919,926,930,938,944,964,980,995,1006,1013,1027,1030,1042,1075,1089,1090,1090,1090,1090,1090,1090,1090,1090,1090,1090,1090,1090,1090],"ymouse":[612,612,612,612,612,612,612,612,612,612,612,612,612,612,612,612,612,612,612,612,612,593,538,429,311,292,276,226,177,107,78,55,38,24,4,0,0,0,0,0,0,0,0,0,0,0,0,0,0,0,0,22],"timestamp_mouse":[10,39,51,71,90,110,131,150,170,191,212,230,251,271,292,311,332,350,371,390,411,430,450,470,490,512,531,551,571,590,611,630,650,670,690,710,731,750,772,790,811,830,850,872,891,911,932,950,972,991,1011,1031],"xSR":741.5,"ySR":573.95,"xT1":424.9,"yT1":0,"xT2":1058.1,"yT2":0,"toosoon":0,"cond_shown":"randomdotsizeEA","ratio_trial":750,"smaller_num":"12","larger_num":"16","correct_side":2,"subjID":"SantiagoAndresVargas35","gender":"0","age":"10","school":"6"},{"start_time":1551893382566,"click_time":1551893383184,"finger_time":1551893382963,"fix_duration":860.6902975738246,"trial":35,"RT":397,"MT":221,"sideResp":2,"stimulus":"img/250/randomdotsizeEA/R/6_Ratio_250_L_6_R_24.png","xmouse":[837,837,837,837,837,837,837,837,837,837,837,837,837,837,837,837,837,837,837,845,855,878,884,898,940,964,976,985,1001,1047,1064],"ymouse":[600,600,600,600,600,600,600,600,600,600,600,600,600,600,600,600,600,600,590,550,510,433,414,369,296,256,218,170,111,42,22],"timestamp_mouse":[31,39,57,78,98,118,138,159,177,198,217,237,258,278,297,317,338,357,377,397,418,437,458,477,497,518,538,558,577,597,618],"xSR":741.5,"ySR":573.95,"xT1":424.9,"yT1":0,"xT2":1058.1,"yT2":0,"toosoon":0,"cond_shown":"randomdotsizeEA","ratio_trial":250,"smaller_num":"6","larger_num":"24","correct_side":2,"subjID":"SantiagoAndresVargas35","gender":"0","age":"10","school":"6"},{"start_time":1551893384899,"click_time":1551893385684,"finger_time":1551893385324,"fix_duration":334.3269930222958,"trial":36,"RT":425,"MT":360,"sideResp":1,"stimulus":"img/500/equaldotanddens/L/5_Ratio_500_L_4_R_2.png","xmouse":[759,759,759,759,759,759,759,759,759,759,759,759,759,759,759,759,759,759,759,759,754,739,695,622,576,542,514,506,502,501,496,494,494,494,494,494,495,495,497,498],"ymouse":[642,642,642,642,642,642,642,642,642,642,642,642,642,642,642,642,642,642,642,642,634,604,531,394,326,270,218,192,174,163,152,137,136,120,117,112,111,109,102,98],"timestamp_mouse":[9,38,45,64,86,105,124,144,164,185,204,225,245,264,285,305,324,345,365,385,406,425,446,464,486,504,525,546,564,584,605,625,645,664,685,705,725,744,764,785],"xSR":741.5,"ySR":573.95,"xT1":424.9,"yT1":0,"xT2":1058.1,"yT2":0,"toosoon":0,"cond_shown":"equaldotanddens","ratio_trial":500,"smaller_num":"2","larger_num":"4","correct_side":1,"subjID":"SantiagoAndresVargas35","gender":"0","age":"10","school":"6"},{"start_time":1551893387513,"click_time":1551893388463,"finger_time":1551893388224,"fix_duration":848.319810239867,"trial":37,"RT":711,"MT":239,"sideResp":1,"stimulus":"img/500/randomdotsizeEA/L/8_Ratio_500_L_8_R_4.png","xmouse":[823,823,823,823,823,823,823,823,823,823,823,823,823,823,823,823,823,823,823,823,823,823,823,824,824,824,824,824,824,824,824,824,824,810,795,760,756,755,755,755,755,755,728,691,664,627,586,482],"ymouse":[622,622,622,622,622,622,622,622,622,622,622,622,622,622,622,622,622,622,622,622,622,622,622,621,621,621,621,621,621,621,621,621,621,602,582,538,531,531,531,531,531,528,459,383,323,248,174,24],"timestamp_mouse":[11,36,51,70,92,112,131,152,171,190,211,230,250,272,290,312,330,351,371,391,411,431,451,470,491,511,530,550,572,590,610,632,651,670,691,711,730,751,771,790,810,831,850,871,890,910,931,950],"xSR":741.5,"ySR":573.95,"xT1":424.9,"yT1":0,"xT2":1058.1,"yT2":0,"toosoon":0,"cond_shown":"randomdotsizeEA","ratio_trial":500,"smaller_num":"4","larger_num":"8","correct_side":1,"subjID":"SantiagoAndresVargas35","gender":"0","age":"10","school":"6"},{"start_time":1551893394539,"click_time":1551893395344,"finger_time":1551893394963,"fix_duration":954.9063803718433,"trial":38,"RT":424,"MT":381,"sideResp":2,"stimulus":"img/750/equaldotanddens/R/15_Ratio_750_L_9_R_12.png","xmouse":[770,770,770,770,770,770,770,770,770,770,770,770,770,770,770,770,770,771,767,764,763,759,759,759,772,791,855,881,910,932,950,980,989,999,1021,1034,1056,1057,1058,1058,1063],"ymouse":[620,620,620,620,620,620,620,620,620,620,620,620,620,620,620,620,620,618,603,595,590,560,542,518,445,372,224,169,112,75,36,0,0,0,0,0,0,0,0,0,6],"timestamp_mouse":[9,24,45,64,84,105,125,144,164,184,205,225,246,266,285,305,324,346,365,384,405,424,444,464,484,504,524,545,565,584,604,624,644,665,684,705,724,744,765,784,805],"xSR":741.5,"ySR":573.95,"xT1":424.9,"yT1":0,"xT2":1058.1,"yT2":0,"toosoon":0,"cond_shown":"equaldotanddens","ratio_trial":750,"smaller_num":"9","larger_num":"12","correct_side":2,"subjID":"SantiagoAndresVargas35","gender":"0","age":"10","school":"6"},{"start_time":1551893397047,"click_time":1551893402404,"finger_time":1551893397163,"fix_duration":803.8760245425627,"trial":39,"RT":116,"MT":5241,"sideResp":1,"stimulus":"img/750/randomdotsizeEA/L/10_Ratio_750_L_4_R_3.png","xmouse":[797,797,797,799,802,812,816,817,819,821,829,834,840,848,858,873,881,891,894,898,898,898,897,894,886,859,853,852,852,852,851,844,815,739,664,573,569,569,569,569,569,569,569,569,569,569,569,569,569,569,569,569,569,569,569,569,569,569,569,569,569,569,569,569,569,569,569,569,569,569,569,569,569,569,569,569,569,569,569,569,569,569,569,569,569,569,569,569,569,569,569,569,569,569,569,569,569,569,569,569,569,569,569,569,569,569,569,569,569,569,569,569,569,569,569,569,569,569,569,569,569,569,569,569,569,569,569,569,569,569,569,569,569,569,569,569,569,569,569,569,569,569,569,569,569,569,569,569,569,569,569,569,569,569,569,569,569,569,569,568,568,568,568,568,568,568,568,568,567,564,559,557,557,557,557,557,557,557,557,557,557,557,557,557,557,557,557,557,557,557,557,557,557,557,557,557,557,557,557,557,557,557,557,557,557,557,557,557,557,557,557,557,557,557,557,557,557,557,557,557,557,557,557,557,557,557,557,557,557,557,557,557,557,557,557,557,557,557,557,557,557,557,557,557,557,557,560,579,587,608,624,651,656,657,657,657,658,658,658,658,653,644,629,603,576,535,527,520],"ymouse":[612,612,612,593,575,533,519,503,500,491,464,447,427,402,377,337,322,300,293,280,272,258,256,252,241,220,217,216,216,216,216,212,202,181,165,152,151,151,151,151,151,151,151,151,151,151,151,151,151,151,151,151,151,151,151,151,151,151,151,151,151,151,151,151,151,151,151,151,151,151,151,151,151,151,151,151,151,151,151,151,151,151,151,151,151,151,151,151,151,151,151,151,151,151,151,151,151,151,151,151,151,151,151,151,151,151,151,151,151,151,151,151,151,151,151,151,151,151,151,151,151,151,151,151,151,151,151,151,151,151,151,151,151,151,151,151,151,151,151,151,151,151,151,151,151,151,151,151,151,151,151,151,151,151,151,151,151,151,151,151,151,151,151,151,151,151,151,151,152,156,160,161,161,161,161,161,161,161,161,161,161,161,161,161,161,161,161,161,161,161,161,161,161,161,161,161,161,161,161,161,161,161,161,161,161,161,161,161,161,161,161,161,161,161,161,161,161,161,161,161,161,161,161,161,161,161,161,161,161,161,161,161,161,161,161,161,161,161,161,161,161,161,161,161,161,161,159,157,157,157,157,157,157,157,157,157,156,156,156,156,137,125,105,84,71,60,58,56],"timestamp_mouse":[16,37,57,77,98,116,136,157,176,197,216,236,256,277,296,316,337,357,378,398,416,437,456,477,496,517,538,557,576,596,616,637,656,677,696,716,736,756,777,797,817,837,857,876,897,917,937,956,976,997,1016,1036,1057,1078,1098,1117,1137,1156,1177,1197,1217,1236,1256,1277,1296,1317,1336,1356,1378,1397,1417,1436,1456,1476,1496,1517,1536,1556,1577,1597,1616,1637,1657,1676,1696,1718,1737,1757,1776,1796,1818,1838,1856,1876,1896,1917,1937,1957,1977,1996,2016,2036,2057,2076,2098,2117,2136,2157,2176,2196,2216,2236,2256,2276,2297,2318,2338,2357,2376,2397,2418,2437,2456,2476,2497,2517,2537,2556,2576,2598,2618,2637,2656,2676,2697,2718,2736,2757,2776,2798,2817,2837,2856,2877,2896,2917,2936,2957,2976,2997,3017,3036,3057,3077,3096,3116,3138,3156,3176,3196,3216,3237,3256,3277,3298,3316,3337,3357,3378,3398,3417,3436,3456,3476,3497,3516,3537,3558,3576,3596,3617,3638,3657,3676,3697,3716,3737,3757,3777,3796,3817,3836,3857,3876,3896,3918,3937,3957,3976,3996,4017,4037,4056,4077,4096,4116,4137,4158,4178,4197,4217,4238,4258,4276,4297,4318,4337,4357,4376,4397,4416,4437,4456,4477,4497,4516,4538,4558,4577,4596,4617,4638,4656,4676,4696,4717,4738,4757,4776,4796,4816,4836,4856,4877,4896,4916,4936,4956,4978,4997,5016,5036,5058,5077,5098,5117,5137,5156,5177,5197,5216,5237,5257,5277,5297,5316,5337,5357],"xSR":741.5,"ySR":573.95,"xT1":424.9,"yT1":0,"xT2":1058.1,"yT2":0,"toosoon":0,"cond_shown":"randomdotsizeEA","ratio_trial":750,"smaller_num":"3","larger_num":"4","correct_side":1,"subjID":"SantiagoAndresVargas35","gender":"0","age":"10","school":"6"},{"start_time":1551893403752,"click_time":1551893404563,"finger_time":1551893404203,"fix_duration":427.7711008546261,"trial":40,"RT":451,"MT":360,"sideResp":2,"stimulus":"img/900/equaldotanddens/R/3_Ratio_900_L_9_R_10.png","xmouse":[769,769,769,769,769,769,769,769,769,769,769,769,769,769,769,769,769,769,769,769,769,777,780,795,826,850,903,938,968,998,1032,1042,1050,1059,1076,1089,1089,1089,1089,1089,1097],"ymouse":[598,598,598,598,598,598,598,598,598,598,598,598,598,598,598,598,598,598,598,598,598,576,560,525,444,382,229,138,68,3,0,0,0,0,0,0,0,0,0,0,21],"timestamp_mouse":[13,36,52,72,92,111,131,152,171,191,211,232,251,271,292,312,332,351,371,391,411,432,451,472,493,511,531,551,571,592,613,631,652,671,693,712,732,752,772,791,811],"xSR":741.5,"ySR":573.95,"xT1":424.9,"yT1":0,"xT2":1058.1,"yT2":0,"toosoon":0,"cond_shown":"equaldotanddens","ratio_trial":900,"smaller_num":"9","larger_num":"10","correct_side":2,"subjID":"SantiagoAndresVargas35","gender":"0","age":"10","school":"6"},{"start_time":1551893406149,"click_time":1551893407005,"finger_time":1551893406744,"fix_duration":1005.4906762668439,"trial":41,"RT":595,"MT":261,"sideResp":2,"stimulus":"img/750/randomdotsizeEA/R/15_Ratio_750_L_9_R_12.png","xmouse":[796,796,796,796,796,796,796,796,796,796,796,796,796,796,796,796,796,796,796,796,796,796,796,796,796,796,796,796,807,819,890,937,966,981,988,993,994,996,997,1006,1038,1055,1069],"ymouse":[648,648,648,648,648,648,648,648,648,648,648,648,648,648,648,648,648,648,648,648,648,648,648,648,648,648,648,648,606,568,396,301,255,220,199,179,175,172,168,155,115,96,80],"timestamp_mouse":[14,44,55,74,94,115,136,156,174,195,216,235,256,275,294,315,335,354,375,394,415,434,455,474,494,516,535,555,575,595,615,634,655,675,695,715,734,755,774,795,814,834,855],"xSR":741.5,"ySR":573.95,"xT1":424.9,"yT1":0,"xT2":1058.1,"yT2":0,"toosoon":0,"cond_shown":"randomdotsizeEA","ratio_trial":750,"smaller_num":"9","larger_num":"12","correct_side":2,"subjID":"SantiagoAndresVargas35","gender":"0","age":"10","school":"6"},{"start_time":1551893408255,"click_time":1551893409104,"finger_time":1551893408863,"fix_duration":250,"trial":42,"RT":608,"MT":241,"sideResp":1,"stimulus":"img/250/equaldotsize/L/15_Ratio_250_L_12_R_3.png","xmouse":[779,779,779,779,779,779,779,779,779,779,779,779,779,779,779,779,779,779,779,779,779,779,778,778,778,778,778,778,773,761,619,528,452,421,411,407,407,407,409,418,446,455,460],"ymouse":[625,625,625,625,625,625,625,625,625,625,625,625,625,625,625,625,625,625,625,625,625,625,625,625,625,625,625,625,621,605,441,346,278,241,224,204,197,191,179,158,112,101,93],"timestamp_mouse":[9,40,49,68,89,110,129,149,168,188,208,228,250,268,289,310,328,350,368,389,409,428,449,469,488,508,530,549,570,588,608,629,649,668,688,708,729,748,768,788,809,829,849],"xSR":741.5,"ySR":573.95,"xT1":424.9,"yT1":0,"xT2":1058.1,"yT2":0,"toosoon":0,"cond_shown":"equaldotsize","ratio_trial":250,"smaller_num":"3","larger_num":"12","correct_side":1,"subjID":"SantiagoAndresVargas35","gender":"0","age":"10","school":"6"},{"start_time":1551893412067,"click_time":1551893412963,"finger_time":1551893412583,"fix_duration":543.978577214702,"trial":43,"RT":516,"MT":380,"sideResp":2,"stimulus":"img/250/equaldotsize/R/9_Ratio_250_L_3_R_12.png","xmouse":[762,762,762,762,762,762,762,762,762,762,762,762,762,762,762,762,762,762,762,762,762,762,762,762,790,829,881,971,1032,1118,1147,1176,1197,1212,1235,1238,1240,1240,1240,1240,1240,1240,1232,1222,1140],"ymouse":[644,644,644,644,644,644,644,644,644,644,644,644,644,644,644,644,644,644,644,644,644,644,644,641,594,550,481,358,284,170,127,81,37,16,0,0,0,0,0,0,0,0,6,13,54],"timestamp_mouse":[16,37,56,77,97,116,138,157,177,196,218,236,258,276,297,316,337,356,376,396,416,436,456,477,497,516,538,558,577,596,617,637,656,676,697,717,737,756,776,797,817,836,856,878,896],"xSR":741.5,"ySR":573.95,"xT1":424.9,"yT1":0,"xT2":1058.1,"yT2":0,"toosoon":0,"cond_shown":"equaldotsize","ratio_trial":250,"smaller_num":"3","larger_num":"12","correct_side":2,"subjID":"SantiagoAndresVargas35","gender":"0","age":"10","school":"6"},{"start_time":1551893414627,"click_time":1551893415923,"finger_time":1551893415584,"fix_duration":942.7988049775345,"trial":44,"RT":957,"MT":339,"sideResp":2,"stimulus":"img/500/randomdotsizeEA/R/15_Ratio_500_L_1_R_2.png","xmouse":[788,788,788,788,788,788,788,788,788,788,788,788,788,788,788,788,788,788,788,788,788,788,788,788,788,788,788,788,788,788,788,788,788,788,783,778,773,772,768,767,767,767,767,767,767,767,767,772,804,840,883,953,971,987,1009,1023,1049,1069,1079,1087,1088,1088,1089,1094,1099],"ymouse":[615,615,615,615,615,615,615,615,615,615,615,615,615,615,615,615,615,615,615,615,615,615,615,615,615,615,615,615,615,615,615,615,615,615,607,597,585,580,575,575,575,575,575,575,575,575,575,557,489,406,314,150,104,71,45,26,1,0,0,0,0,0,0,0,3],"timestamp_mouse":[17,40,58,77,96,118,136,158,178,196,216,236,257,278,296,316,337,357,377,396,417,437,457,477,496,516,537,556,576,598,618,636,657,677,697,717,736,757,777,798,816,836,856,877,897,916,937,957,977,998,1017,1036,1058,1076,1097,1116,1136,1157,1177,1198,1217,1237,1257,1277,1296],"xSR":741.5,"ySR":573.95,"xT1":424.9,"yT1":0,"xT2":1058.1,"yT2":0,"toosoon":0,"cond_shown":"randomdotsizeEA","ratio_trial":500,"smaller_num":"1","larger_num":"2","correct_side":2,"subjID":"SantiagoAndresVargas35","gender":"0","age":"10","school":"6"},{"start_time":1551893417570,"click_time":1551893418244,"finger_time":1551893418063,"fix_duration":905.5274250409054,"trial":45,"RT":493,"MT":181,"sideResp":2,"stimulus":"img/250/equaldotanddens/R/10_Ratio_250_L_4_R_16.png","xmouse":[763,763,763,763,763,763,763,763,763,763,763,763,763,763,763,763,763,762