[{"start_time":1551892063210,"click_time":1551892064852,"finger_time":1551892064410,"fix_duration":614.9012548505241,"trial":0,"RT":1200,"MT":442,"sideResp":1,"stimulus":[],"xmouse":[749,749,749,749,749,749,749,749,749,749,749,749,749,749,749,749,749,749,749,749,749,749,749,749,749,749,749,749,749,749,749,749,749,749,749,749,749,749,749,749,749,749,749,749,749,749,749,749,749,749,749,749,749,749,749,749,743,740,735,728,718,671,642,619,606,596,592,590,589,581,572,562,556,554,552,552,539,522,503,482],"ymouse":[538,538,538,538,538,538,538,538,538,538,538,538,538,538,538,538,538,538,538,538,538,538,538,538,538,538,538,538,538,538,538,538,538,538,538,538,538,538,538,538,538,538,538,538,538,538,538,538,538,538,538,538,538,538,538,524,479,467,450,430,407,356,325,298,280,265,259,253,251,227,209,180,168,164,160,160,150,136,116,85],"timestamp_mouse":[9,85,100,121,140,161,180,200,220,240,260,281,300,320,340,361,381,401,421,441,460,481,500,519,541,561,579,600,621,640,661,680,699,720,740,760,779,800,820,841,861,881,901,920,940,959,981,999,1020,1041,1059,1080,1101,1121,1141,1161,1181,1200,1220,1239,1259,1281,1300,1320,1340,1360,1379,1400,1420,1440,1461,1481,1499,1520,1540,1560,1581,1599,1620,1641],"xSR":741.5,"ySR":469.95,"xT1":424.9,"yT1":0,"xT2":1058.1,"yT2":0,"toosoon":0,"cond_shown":"Congruent","ratio_trial":300,"L_num":1,"L_den":5,"R_num":11,"R_den":22,"correct_side":2,"subjID":"SantiagoAndresVargasCamargo35","gender":"0","age":"10","school":"6","test":{"fix_dur":[250,1500],"timestim":1000,"targets_dim":[100,100],"targets_relative_coord":[0.3,0.7],"size_stim":[880,420],"start_dim":[100,100],"size_start":[300,300],"size_fix":60,"samplingrate":20,"img_types":["Congruent","Incongruent"],"ratios":[100,200,300],"rep_conds":19,"nTrials":120,"trials_to_rest":500,"Trials_order":[58,47,38,12,72,73,113,90,18,98,52,101,76,93,33,26,42,43,95,45,44,53,39,63,119,4,117,109,3,68,64,115,31,5,106,17,85,75,87,0,23,46,66,20,62,78,29,77,69,6,16,118,2,24,49,1,27,96,30,114,83,103,80,14,22,59,104,28,61,65,13,108,32,116,19,57,60,70,105,81,37,111,88,112,10,15,51,89,8,40,71,48,34,102,79,74,84,92,50,35,82,11,86,54,36,94,55,99,91,41,67,107,97,21,9,25,110,7,56,100],"cond_shown":["Congruent","Incongruent","Congruent","Congruent","Congruent","Incongruent","Incongruent","Congruent","Congruent","Congruent","Congruent","Incongruent","Congruent","Incongruent","Incongruent","Congruent","Congruent","Incongruent","Incongruent","Incongruent","Congruent","Incongruent","Incongruent","Incongruent","Incongruent","Congruent","Incongruent","Incongruent","Incongruent","Congruent","Congruent","Incongruent","Incongruent","Incongruent","Congruent","Incongruent","Incongruent","Incongruent","Incongruent","Congruent","Incongruent","Congruent","Congruent","Congruent","Congruent","Congruent","Incongruent","Incongruent","Incongruent","Congruent","Congruent","Congruent","Congruent","Congruent","Incongruent","Incongruent","Incongruent","Congruent","Congruent","Congruent","Incongruent","Incongruent","Congruent","Congruent","Congruent","Incongruent","Congruent","Congruent","Incongruent","Incongruent","Incongruent","Congruent","Congruent","Congruent","Incongruent","Incongruent","Congruent","Congruent","Incongruent","Incongruent","Incongruent","Incongruent","Congruent","Congruent","Congruent","Incongruent","Incongruent","Incongruent","Congruent","Congruent","Incongruent","Congruent","Congruent","Congruent","Incongruent","Congruent","Congruent","Congruent","Congruent","Incongruent","Congruent","Incongruent","Congruent","Congruent","Congruent","Congruent","Incongruent","Incongruent","Incongruent","Incongruent","Incongruent","Incongruent","Incongruent","Incongruent","Incongruent","Incongruent","Congruent","Incongruent","Congruent","Congruent"],"ratio_trial":[300,300,200,100,100,100,300,100,100,200,300,300,300,200,200,200,100,100,300,200,200,300,200,200,300,300,200,100,200,200,300,100,100,300,300,300,100,200,200,100,300,300,100,200,200,100,300,300,200,100,300,300,200,100,100,100,200,100,100,100,300,100,200,200,300,300,200,300,100,300,100,100,200,200,100,200,100,300,200,200,100,200,300,300,300,200,200,300,200,300,300,100,300,100,100,200,100,200,200,300,300,300,200,100,100,300,100,200,100,300,100,300,100,200,200,100,200,100,200,300],"left_num":[1,1,6,4,1,6,3,6,8,6,2,13,3,3,14,3,1,13,1,9,3,7,7,4,8,18,4,10,7,6,1,6,13,7,5,2,13,14,3,6,1,24,10,3,9,6,4,4,7,2,20,2,11,1,6,4,1,2,1,6,1,2,16,5,11,2,7,20,13,4,10,11,8,16,6,7,3,20,1,14,6,7,20,24,11,7,1,4,3,4,1,4,1,7,4,12,7,8,3,4,1,4,7,3,7,20,3,9,13,8,6,13,2,1,3,17,4,4,3,3],"right_num":[11,2,11,15,18,11,4,15,2,3,10,12,4,1,12,14,18,6,3,8,14,8,8,1,14,9,1,8,4,11,8,7,12,8,7,6,12,6,11,5,2,8,3,14,4,15,2,6,14,11,9,12,3,3,7,8,2,6,18,15,3,6,12,14,4,6,18,5,12,2,8,6,3,9,13,12,4,9,2,6,7,6,8,8,4,6,2,2,11,1,2,6,7,15,8,6,15,7,9,2,19,2,18,4,15,9,8,8,12,9,3,12,6,2,1,10,3,8,14,11],"left_den":[5,2,20,10,2,10,6,12,16,15,20,26,6,10,30,10,2,26,2,15,10,10,10,30,10,20,30,25,15,20,30,10,26,10,25,4,26,30,4,20,2,30,25,6,20,12,20,5,10,5,25,10,22,2,10,8,3,5,2,12,2,4,20,10,22,4,15,25,26,20,25,22,15,30,10,10,20,25,3,30,10,15,25,30,22,15,3,20,10,10,2,8,20,14,8,20,14,15,12,20,3,20,15,20,14,25,5,15,26,10,12,26,4,3,10,30,8,8,10,12],"right_den":[22,10,22,30,30,22,20,25,5,15,25,15,5,2,18,28,30,10,15,10,28,20,16,3,28,15,3,16,6,22,24,14,20,20,14,30,20,9,20,25,10,16,10,20,16,25,4,12,28,22,18,24,10,5,14,20,15,12,30,25,15,15,20,20,20,30,27,10,20,4,16,15,9,27,26,24,16,18,15,9,14,9,16,16,20,9,15,4,22,10,10,10,20,25,20,15,25,21,20,4,30,4,27,16,25,18,16,10,20,18,5,15,15,15,2,15,10,20,28,20],"correct_side":[2,1,2,2,2,1,1,2,1,1,2,2,2,2,2,2,2,2,1,2,2,1,1,2,1,1,2,2,2,2,2,1,2,1,2,1,2,2,1,1,1,1,1,2,1,2,2,1,1,2,1,2,1,2,1,1,1,2,2,2,1,1,1,2,1,1,2,1,2,2,2,1,1,1,1,1,2,1,1,2,1,2,1,1,1,2,1,2,2,1,1,2,2,2,1,1,2,1,2,2,2,2,2,2,2,1,1,2,2,1,2,2,1,1,2,2,1,1,2,2],"img_shown":["img2/300/Congruent/R/C_Dist_300_LN_1_LD_5_RN_11_RD_22_1.png","img2/300/Incongruent/L/I_Dist_300_LN_1_LD_2_RN_2_RD_10_0.png","img2/200/Congruent/R/C_Dist_200_LN_6_LD_20_RN_11_RD_22_1.png","img2/100/Congruent/R/C_Dist_100_LN_4_LD_10_RN_15_RD_30_1.png","img2/100/Congruent/R/C_Dist_100_LN_1_LD_2_RN_18_RD_30_1.png","img2/100/Incongruent/L/I_Dist_100_LN_6_LD_10_RN_11_RD_22_0.png","img2/300/Incongruent/L/I_Dist_300_LN_3_LD_6_RN_4_RD_20_0.png","img2/100/Congruent/R/C_Dist_100_LN_6_LD_12_RN_15_RD_25_1.png","img2/100/Congruent/L/C_Dist_100_LN_8_LD_16_RN_2_RD_5_0.png","img2/200/Congruent/L/C_Dist_200_LN_6_LD_15_RN_3_RD_15_0.png","img2/300/Congruent/R/C_Dist_300_LN_2_LD_20_RN_10_RD_25_1.png","img2/300/Incongruent/R/I_Dist_300_LN_13_LD_26_RN_12_RD_15_1.png","img2/300/Congruent/R/C_Dist_300_LN_3_LD_6_RN_4_RD_5_1.png","img2/200/Incongruent/R/I_Dist_200_LN_3_LD_10_RN_1_RD_2_1.png","img2/200/Incongruent/R/I_Dist_200_LN_14_LD_30_RN_12_RD_18_1.png","img2/200/Congruent/R/C_Dist_200_LN_3_LD_10_RN_14_RD_28_1.png","img2/100/Congruent/R/C_Dist_100_LN_1_LD_2_RN_18_RD_30_1.png","img2/100/Incongruent/R/I_Dist_100_LN_13_LD_26_RN_6_RD_10_1.png","img2/300/Incongruent/L/I_Dist_300_LN_1_LD_2_RN_3_RD_15_0.png","img2/200/Incongruent/R/I_Dist_200_LN_9_LD_15_RN_8_RD_10_1.png","img2/200/Congruent/R/C_Dist_200_LN_3_LD_10_RN_14_RD_28_1.png","img2/300/Incongruent/L/I_Dist_300_LN_7_LD_10_RN_8_RD_20_0.png","img2/200/Incongruent/L/I_Dist_200_LN_7_LD_10_RN_8_RD_16_0.png","img2/200/Incongruent/R/I_Dist_200_LN_4_LD_30_RN_1_RD_3_1.png","img2/300/Incongruent/L/I_Dist_300_LN_8_LD_10_RN_14_RD_28_0.png","img2/300/Congruent/L/C_Dist_300_LN_18_LD_20_RN_9_RD_15_0.png","img2/200/Incongruent/R/I_Dist_200_LN_4_LD_30_RN_1_RD_3_1.png","img2/100/Incongruent/R/I_Dist_100_LN_10_LD_25_RN_8_RD_16_1.png","img2/200/Incongruent/R/I_Dist_200_LN_7_LD_15_RN_4_RD_6_1.png","img2/200/Congruent/R/C_Dist_200_LN_6_LD_20_RN_11_RD_22_1.png","img2/300/Congruent/R/C_Dist_300_LN_1_LD_30_RN_8_RD_24_1.png","img2/100/Incongruent/L/I_Dist_100_LN_6_LD_10_RN_7_RD_14_0.png","img2/100/Incongruent/R/I_Dist_100_LN_13_LD_26_RN_12_RD_20_1.png","img2/300/Incongruent/L/I_Dist_300_LN_7_LD_10_RN_8_RD_20_0.png","img2/300/Congruent/R/C_Dist_300_LN_5_LD_25_RN_7_RD_14_1.png","img2/300/Incongruent/L/I_Dist_300_LN_2_LD_4_RN_6_RD_30_0.png","img2/100/Incongruent/R/I_Dist_100_LN_13_LD_26_RN_12_RD_20_1.png","img2/200/Incongruent/R/I_Dist_200_LN_14_LD_30_RN_6_RD_9_1.png","img2/200/Incongruent/L/I_Dist_200_LN_3_LD_4_RN_11_RD_20_0.png","img2/100/Congruent/L/C_Dist_100_LN_6_LD_20_RN_5_RD_25_0.png","img2/300/Incongruent/L/I_Dist_300_LN_1_LD_2_RN_2_RD_10_0.png","img2/300/Congruent/L/C_Dist_300_LN_24_LD_30_RN_8_RD_16_0.png","img2/100/Congruent/L/C_Dist_100_LN_10_LD_25_RN_3_RD_10_0.png","img2/200/Congruent/R/C_Dist_200_LN_3_LD_6_RN_14_RD_20_1.png","img2/200/Congruent/L/C_Dist_200_LN_9_LD_20_RN_4_RD_16_0.png","img2/100/Congruent/R/C_Dist_100_LN_6_LD_12_RN_15_RD_25_1.png","img2/300/Incongruent/R/I_Dist_300_LN_4_LD_20_RN_2_RD_4_1.png","img2/300/Incongruent/L/I_Dist_300_LN_4_LD_5_RN_6_RD_12_0.png","img2/200/Incongruent/L/I_Dist_200_LN_7_LD_10_RN_14_RD_28_0.png","img2/100/Congruent/R/C_Dist_100_LN_2_LD_5_RN_11_RD_22_1.png","img2/300/Congruent/L/C_Dist_300_LN_20_LD_25_RN_9_RD_18_0.png","img2/300/Congruent/R/C_Dist_300_LN_2_LD_10_RN_12_RD_24_1.png","img2/200/Congruent/L/C_Dist_200_LN_11_LD_22_RN_3_RD_10_0.png","img2/100/Congruent/R/C_Dist_100_LN_1_LD_2_RN_3_RD_5_1.png","img2/100/Incongruent/L/I_Dist_100_LN_6_LD_10_RN_7_RD_14_0.png","img2/100/Incongruent/L/I_Dist_100_LN_4_LD_8_RN_8_RD_20_0.png","img2/200/Incongruent/L/I_Dist_200_LN_1_LD_3_RN_2_RD_15_0.png","img2/100/Congruent/R/C_Dist_100_LN_2_LD_5_RN_6_RD_12_1.png","img2/100/Congruent/R/C_Dist_100_LN_1_LD_2_RN_18_RD_30_1.png","img2/100/Congruent/R/C_Dist_100_LN_6_LD_12_RN_15_RD_25_1.png","img2/300/Incongruent/L/I_Dist_300_LN_1_LD_2_RN_3_RD_15_0.png","img2/100/Incongruent/L/I_Dist_100_LN_2_LD_4_RN_6_RD_15_0.png","img2/200/Congruent/L/C_Dist_200_LN_16_LD_20_RN_12_RD_20_0.png","img2/200/Congruent/R/C_Dist_200_LN_5_LD_10_RN_14_RD_20_1.png","img2/300/Congruent/L/C_Dist_300_LN_11_LD_22_RN_4_RD_20_0.png","img2/300/Incongruent/L/I_Dist_300_LN_2_LD_4_RN_6_RD_30_0.png","img2/200/Congruent/R/C_Dist_200_LN_7_LD_15_RN_18_RD_27_1.png","img2/300/Congruent/L/C_Dist_300_LN_20_LD_25_RN_5_RD_10_0.png","img2/100/Incongruent/R/I_Dist_100_LN_13_LD_26_RN_12_RD_20_1.png","img2/300/Incongruent/R/I_Dist_300_LN_4_LD_20_RN_2_RD_4_1.png","img2/100/Incongruent/R/I_Dist_100_LN_10_LD_25_RN_8_RD_16_1.png","img2/100/Congruent/L/C_Dist_100_LN_11_LD_22_RN_6_RD_15_0.png","img2/200/Congruent/L/C_Dist_200_LN_8_LD_15_RN_3_RD_9_0.png","img2/200/Congruent/L/C_Dist_200_LN_16_LD_30_RN_9_RD_27_0.png","img2/100/Incongruent/L/I_Dist_100_LN_6_LD_10_RN_13_RD_26_0.png","img2/200/Incongruent/L/I_Dist_200_LN_7_LD_10_RN_12_RD_24_0.png","img2/100/Congruent/R/C_Dist_100_LN_3_LD_20_RN_4_RD_16_1.png","img2/300/Congruent/L/C_Dist_300_LN_20_LD_25_RN_9_RD_18_0.png","img2/200/Incongruent/L/I_Dist_200_LN_1_LD_3_RN_2_RD_15_0.png","img2/200/Incongruent/R/I_Dist_200_LN_14_LD_30_RN_6_RD_9_1.png","img2/100/Incongruent/L/I_Dist_100_LN_6_LD_10_RN_7_RD_14_0.png","img2/200/Incongruent/R/I_Dist_200_LN_7_LD_15_RN_6_RD_9_1.png","img2/300/Congruent/L/C_Dist_300_LN_20_LD_25_RN_8_RD_16_0.png","img2/300/Congruent/L/C_Dist_300_LN_24_LD_30_RN_8_RD_16_0.png","img2/300/Congruent/L/C_Dist_300_LN_11_LD_22_RN_4_RD_20_0.png","img2/200/Incongruent/R/I_Dist_200_LN_7_LD_15_RN_6_RD_9_1.png","img2/200/Incongruent/L/I_Dist_200_LN_1_LD_3_RN_2_RD_15_0.png","img2/300/Incongruent/R/I_Dist_300_LN_4_LD_20_RN_2_RD_4_1.png","img2/200/Congruent/R/C_Dist_200_LN_3_LD_10_RN_11_RD_22_1.png","img2/300/Congruent/L/C_Dist_300_LN_4_LD_10_RN_1_RD_10_0.png","img2/300/Incongruent/L/I_Dist_300_LN_1_LD_2_RN_2_RD_10_0.png","img2/100/Congruent/R/C_Dist_100_LN_4_LD_8_RN_6_RD_10_1.png","img2/300/Congruent/R/C_Dist_300_LN_1_LD_20_RN_7_RD_20_1.png","img2/100/Congruent/R/C_Dist_100_LN_7_LD_14_RN_15_RD_25_1.png","img2/100/Incongruent/L/I_Dist_100_LN_4_LD_8_RN_8_RD_20_0.png","img2/200/Congruent/L/C_Dist_200_LN_12_LD_20_RN_6_RD_15_0.png","img2/100/Congruent/R/C_Dist_100_LN_7_LD_14_RN_15_RD_25_1.png","img2/200/Congruent/L/C_Dist_200_LN_8_LD_15_RN_7_RD_21_0.png","img2/200/Congruent/R/C_Dist_200_LN_3_LD_12_RN_9_RD_20_1.png","img2/300/Incongruent/R/I_Dist_300_LN_4_LD_20_RN_2_RD_4_1.png","img2/300/Congruent/R/C_Dist_300_LN_1_LD_3_RN_19_RD_30_1.png","img2/300/Incongruent/R/I_Dist_300_LN_4_LD_20_RN_2_RD_4_1.png","img2/200/Congruent/R/C_Dist_200_LN_7_LD_15_RN_18_RD_27_1.png","img2/100/Congruent/R/C_Dist_100_LN_3_LD_20_RN_4_RD_16_1.png","img2/100/Congruent/R/C_Dist_100_LN_7_LD_14_RN_15_RD_25_1.png","img2/300/Congruent/L/C_Dist_300_LN_20_LD_25_RN_9_RD_18_0.png","img2/100/Incongruent/L/I_Dist_100_LN_3_LD_5_RN_8_RD_16_0.png","img2/200/Incongruent/R/I_Dist_200_LN_9_LD_15_RN_8_RD_10_1.png","img2/100/Incongruent/R/I_Dist_100_LN_13_LD_26_RN_12_RD_20_1.png","img2/300/Incongruent/L/I_Dist_300_LN_8_LD_10_RN_9_RD_18_0.png","img2/100/Incongruent/R/I_Dist_100_LN_6_LD_12_RN_3_RD_5_1.png","img2/300/Incongruent/R/I_Dist_300_LN_13_LD_26_RN_12_RD_15_1.png","img2/100/Incongruent/L/I_Dist_100_LN_2_LD_4_RN_6_RD_15_0.png","img2/200/Incongruent/L/I_Dist_200_LN_1_LD_3_RN_2_RD_15_0.png","img2/200/Incongruent/R/I_Dist_200_LN_3_LD_10_RN_1_RD_2_1.png","img2/100/Incongruent/R/I_Dist_100_LN_17_LD_30_RN_10_RD_15_1.png","img2/200/Congruent/L/C_Dist_200_LN_4_LD_8_RN_3_RD_10_0.png","img2/100/Incongruent/L/I_Dist_100_LN_4_LD_8_RN_8_RD_20_0.png","img2/200/Congruent/R/C_Dist_200_LN_3_LD_10_RN_14_RD_28_1.png","img2/300/Congruent/R/C_Dist_300_LN_3_LD_12_RN_11_RD_20_1.png"],"dist100_C":[["C_Dist_100_LN_10_LD_25_RN_3_RD_10_0.png","C_Dist_100_LN_11_LD_22_RN_4_RD_10_0.png","C_Dist_100_LN_11_LD_22_RN_6_RD_15_0.png","C_Dist_100_LN_15_LD_25_RN_13_RD_26_0.png","C_Dist_100_LN_3_LD_6_RN_2_RD_5_0.png","C_Dist_100_LN_6_LD_20_RN_5_RD_25_0.png","C_Dist_100_LN_8_LD_16_RN_2_RD_5_0.png","C_Dist_100_LN_9_LD_15_RN_8_RD_16_0.png"],["C_Dist_100_LN_1_LD_2_RN_18_RD_30_1.png","C_Dist_100_LN_1_LD_2_RN_3_RD_5_1.png","C_Dist_100_LN_12_LD_30_RN_13_RD_26_1.png","C_Dist_100_LN_2_LD_5_RN_11_RD_22_1.png","C_Dist_100_LN_2_LD_5_RN_6_RD_12_1.png","C_Dist_100_LN_3_LD_20_RN_4_RD_16_1.png","C_Dist_100_LN_4_LD_10_RN_15_RD_30_1.png","C_Dist_100_LN_4_LD_8_RN_6_RD_10_1.png","C_Dist_100_LN_6_LD_12_RN_15_RD_25_1.png","C_Dist_100_LN_7_LD_14_RN_15_RD_25_1.png","C_Dist_100_LN_7_LD_14_RN_9_RD_15_1.png"]],"dist100_I":[["I_Dist_100_LN_1_LD_2_RN_8_RD_20_0.png","I_Dist_100_LN_2_LD_4_RN_6_RD_15_0.png","I_Dist_100_LN_2_LD_4_RN_8_RD_20_0.png","I_Dist_100_LN_3_LD_5_RN_11_RD_22_0.png","I_Dist_100_LN_3_LD_5_RN_8_RD_16_0.png","I_Dist_100_LN_3_LD_6_RN_4_RD_10_0.png","I_Dist_100_LN_3_LD_9_RN_7_RD_30_0.png","I_Dist_100_LN_4_LD_8_RN_8_RD_20_0.png","I_Dist_100_LN_6_LD_10_RN_11_RD_22_0.png","I_Dist_100_LN_6_LD_10_RN_13_RD_26_0.png","I_Dist_100_LN_6_LD_10_RN_7_RD_14_0.png","I_Dist_100_LN_9_LD_10_RN_20_RD_25_0.png","I_Dist_100_LN_9_LD_15_RN_13_RD_26_0.png","I_Dist_100_LN_9_LD_15_RN_14_RD_28_0.png"],["I_Dist_100_LN_10_LD_25_RN_8_RD_16_1.png","I_Dist_100_LN_10_LD_25_RN_9_RD_18_1.png","I_Dist_100_LN_11_LD_22_RN_9_RD_15_1.png","I_Dist_100_LN_12_LD_24_RN_9_RD_15_1.png","I_Dist_100_LN_12_LD_30_RN_2_RD_4_1.png","I_Dist_100_LN_13_LD_26_RN_12_RD_20_1.png","I_Dist_100_LN_13_LD_26_RN_6_RD_10_1.png","I_Dist_100_LN_17_LD_30_RN_10_RD_15_1.png","I_Dist_100_LN_6_LD_12_RN_3_RD_5_1.png","I_Dist_100_LN_8_LD_16_RN_6_RD_10_1.png","I_Dist_100_LN_8_LD_20_RN_1_RD_2_1.png","I_Dist_100_LN_9_LD_18_RN_6_RD_10_1.png"]],"dist100_S":[["E_Dist_100_LN_2_LD_12_RN_2_RD_30_0.png","E_Dist_100_LN_6_LD_10_RN_6_RD_12_0.png"],["E_Dist_100_LN_6_LD_12_RN_6_RD_10_1.png"]],"dist200_C":[["C_Dist_200_LN_11_LD_22_RN_3_RD_10_0.png","C_Dist_200_LN_12_LD_15_RN_6_RD_10_0.png","C_Dist_200_LN_12_LD_20_RN_6_RD_15_0.png","C_Dist_200_LN_14_LD_28_RN_6_RD_20_0.png","C_Dist_200_LN_15_LD_25_RN_4_RD_10_0.png","C_Dist_200_LN_16_LD_20_RN_12_RD_20_0.png","C_Dist_200_LN_16_LD_30_RN_9_RD_27_0.png","C_Dist_200_LN_20_LD_25_RN_9_RD_15_0.png","C_Dist_200_LN_21_LD_30_RN_2_RD_4_0.png","C_Dist_200_LN_4_LD_10_RN_3_RD_15_0.png","C_Dist_200_LN_4_LD_8_RN_3_RD_10_0.png","C_Dist_200_LN_6_LD_15_RN_3_RD_15_0.png","C_Dist_200_LN_7_LD_21_RN_2_RD_15_0.png","C_Dist_200_LN_8_LD_15_RN_2_RD_6_0.png","C_Dist_200_LN_8_LD_15_RN_3_RD_9_0.png","C_Dist_200_LN_8_LD_15_RN_7_RD_21_0.png","C_Dist_200_LN_9_LD_20_RN_4_RD_16_0.png"],["C_Dist_200_LN_1_LD_2_RN_21_RD_30_1.png","C_Dist_200_LN_13_LD_26_RN_14_RD_20_1.png","C_Dist_200_LN_3_LD_10_RN_11_RD_22_1.png","C_Dist_200_LN_3_LD_10_RN_14_RD_28_1.png","C_Dist_200_LN_3_LD_10_RN_7_RD_14_1.png","C_Dist_200_LN_3_LD_12_RN_9_RD_20_1.png","C_Dist_200_LN_3_LD_6_RN_14_RD_20_1.png","C_Dist_200_LN_5_LD_10_RN_14_RD_20_1.png","C_Dist_200_LN_6_LD_12_RN_7_RD_10_1.png","C_Dist_200_LN_6_LD_20_RN_11_RD_22_1.png","C_Dist_200_LN_7_LD_15_RN_18_RD_27_1.png","C_Dist_200_LN_9_LD_30_RN_13_RD_26_1.png"]],"dist200_I":[["I_Dist_200_LN_1_LD_2_RN_3_RD_10_0.png","I_Dist_200_LN_1_LD_3_RN_2_RD_15_0.png","I_Dist_200_LN_3_LD_4_RN_11_RD_20_0.png","I_Dist_200_LN_4_LD_5_RN_6_RD_10_0.png","I_Dist_200_LN_4_LD_6_RN_14_RD_30_0.png","I_Dist_200_LN_7_LD_10_RN_12_RD_24_0.png","I_Dist_200_LN_7_LD_10_RN_14_RD_28_0.png","I_Dist_200_LN_7_LD_10_RN_8_RD_16_0.png"],["I_Dist_200_LN_11_LD_20_RN_3_RD_4_1.png","I_Dist_200_LN_14_LD_30_RN_12_RD_18_1.png","I_Dist_200_LN_14_LD_30_RN_6_RD_9_1.png","I_Dist_200_LN_3_LD_10_RN_1_RD_2_1.png","I_Dist_200_LN_4_LD_30_RN_1_RD_3_1.png","I_Dist_200_LN_6_LD_20_RN_3_RD_6_1.png","I_Dist_200_LN_7_LD_15_RN_4_RD_6_1.png","I_Dist_200_LN_7_LD_15_RN_6_RD_9_1.png","I_Dist_200_LN_9_LD_15_RN_8_RD_10_1.png"]],"dist200_S":[["E_Dist_200_LN_3_LD_6_RN_3_RD_10_0.png"],["E_Dist_200_LN_3_LD_10_RN_3_RD_6_1.png"]],"dist300_C":[["C_Dist_300_LN_11_LD_22_RN_1_RD_5_0.png","C_Dist_300_LN_11_LD_22_RN_2_RD_10_0.png","C_Dist_300_LN_11_LD_22_RN_4_RD_20_0.png","C_Dist_300_LN_12_LD_24_RN_2_RD_10_0.png","C_Dist_300_LN_18_LD_20_RN_9_RD_15_0.png","C_Dist_300_LN_20_LD_25_RN_13_RD_26_0.png","C_Dist_300_LN_20_LD_25_RN_14_RD_28_0.png","C_Dist_300_LN_20_LD_25_RN_5_RD_10_0.png","C_Dist_300_LN_20_LD_25_RN_8_RD_16_0.png","C_Dist_300_LN_20_LD_25_RN_9_RD_18_0.png","C_Dist_300_LN_24_LD_30_RN_2_RD_4_0.png","C_Dist_300_LN_24_LD_30_RN_8_RD_16_0.png","C_Dist_300_LN_3_LD_6_RN_2_RD_10_0.png","C_Dist_300_LN_4_LD_10_RN_1_RD_10_0.png","C_Dist_300_LN_4_LD_5_RN_2_RD_4_0.png","C_Dist_300_LN_8_LD_16_RN_1_RD_5_0.png","C_Dist_300_LN_9_LD_10_RN_3_RD_5_0.png"],["C_Dist_300_LN_1_LD_20_RN_7_RD_20_1.png","C_Dist_300_LN_1_LD_3_RN_19_RD_30_1.png","C_Dist_300_LN_1_LD_30_RN_8_RD_24_1.png","C_Dist_300_LN_1_LD_5_RN_11_RD_22_1.png","C_Dist_300_LN_1_LD_5_RN_3_RD_6_1.png","C_Dist_300_LN_1_LD_5_RN_6_RD_12_1.png","C_Dist_300_LN_2_LD_10_RN_12_RD_24_1.png","C_Dist_300_LN_2_LD_20_RN_10_RD_25_1.png","C_Dist_300_LN_3_LD_12_RN_11_RD_20_1.png","C_Dist_300_LN_3_LD_6_RN_4_RD_5_1.png","C_Dist_300_LN_4_LD_20_RN_13_RD_26_1.png","C_Dist_300_LN_5_LD_25_RN_6_RD_12_1.png","C_Dist_300_LN_5_LD_25_RN_7_RD_14_1.png","C_Dist_300_LN_7_LD_14_RN_20_RD_25_1.png","C_Dist_300_LN_8_LD_15_RN_10_RD_12_1.png"]],"dist300_I":[["I_Dist_300_LN_1_LD_2_RN_2_RD_10_0.png","I_Dist_300_LN_1_LD_2_RN_3_RD_15_0.png","I_Dist_300_LN_2_LD_4_RN_6_RD_30_0.png","I_Dist_300_LN_3_LD_6_RN_4_RD_20_0.png","I_Dist_300_LN_4_LD_5_RN_6_RD_12_0.png","I_Dist_300_LN_4_LD_5_RN_8_RD_16_0.png","I_Dist_300_LN_7_LD_10_RN_8_RD_20_0.png","I_Dist_300_LN_8_LD_10_RN_14_RD_28_0.png","I_Dist_300_LN_8_LD_10_RN_9_RD_18_0.png"],["I_Dist_300_LN_13_LD_26_RN_12_RD_15_1.png","I_Dist_300_LN_4_LD_20_RN_2_RD_4_1.png"]],"dist300_S":[["E_Dist_300_LN_9_LD_12_RN_9_RD_20_0.png"],["E_Dist_300_LN_18_LD_30_RN_18_RD_20_1.png","E_Dist_300_LN_3_LD_10_RN_3_RD_5_1.png","E_Dist_300_LN_9_LD_20_RN_9_RD_12_1.png"]],"dist500_C":[["C_Dist_500_LN_10_LD_13_RN_7_RD_26_0.png","C_Dist_500_LN_10_LD_15_RN_4_RD_24_0.png","C_Dist_500_LN_12_LD_16_RN_3_RD_12_0.png","C_Dist_500_LN_12_LD_18_RN_4_RD_24_0.png","C_Dist_500_LN_15_LD_18_RN_5_RD_15_0.png","C_Dist_500_LN_15_LD_20_RN_1_RD_4_0.png","C_Dist_500_LN_18_LD_27_RN_1_RD_6_0.png","C_Dist_500_LN_20_LD_24_RN_1_RD_3_0.png","C_Dist_500_LN_20_LD_24_RN_3_RD_9_0.png","C_Dist_500_LN_20_LD_24_RN_7_RD_21_0.png","C_Dist_500_LN_20_LD_28_RN_3_RD_14_0.png","C_Dist_500_LN_21_LD_28_RN_6_RD_24_0.png","C_Dist_500_LN_22_LD_28_RN_2_RD_7_0.png","C_Dist_500_LN_25_LD_30_RN_9_RD_27_0.png","C_Dist_500_LN_4_LD_6_RN_1_RD_6_0.png","C_Dist_500_LN_5_LD_6_RN_2_RD_6_0.png","C_Dist_500_LN_6_LD_9_RN_1_RD_6_0.png","C_Dist_500_LN_7_LD_10_RN_1_RD_5_0.png","C_Dist_500_LN_8_LD_12_RN_1_RD_6_0.png","C_Dist_500_LN_8_LD_12_RN_4_RD_24_0.png"],["C_Dist_500_LN_1_LD_4_RN_12_RD_16_1.png","C_Dist_500_LN_1_LD_4_RN_9_RD_12_1.png","C_Dist_500_LN_1_LD_9_RN_11_RD_18_1.png","C_Dist_500_LN_10_LD_24_RN_22_RD_24_1.png","C_Dist_500_LN_2_LD_12_RN_10_RD_15_1.png","C_Dist_500_LN_2_LD_12_RN_12_RD_18_1.png","C_Dist_500_LN_2_LD_12_RN_4_RD_6_1.png","C_Dist_500_LN_2_LD_24_RN_7_RD_12_1.png","C_Dist_500_LN_2_LD_5_RN_18_RD_20_1.png","C_Dist_500_LN_2_LD_5_RN_9_RD_10_1.png","C_Dist_500_LN_2_LD_8_RN_12_RD_16_1.png","C_Dist_500_LN_2_LD_8_RN_21_RD_28_1.png","C_Dist_500_LN_3_LD_10_RN_4_RD_5_1.png","C_Dist_500_LN_3_LD_12_RN_15_RD_20_1.png","C_Dist_500_LN_3_LD_30_RN_6_RD_10_1.png","C_Dist_500_LN_3_LD_8_RN_14_RD_16_1.png","C_Dist_500_LN_4_LD_16_RN_15_RD_20_1.png","C_Dist_500_LN_4_LD_24_RN_12_RD_18_1.png","C_Dist_500_LN_5_LD_14_RN_6_RD_7_1.png","C_Dist_500_LN_7_LD_21_RN_20_RD_24_1.png","C_Dist_500_LN_7_LD_28_RN_12_RD_16_1.png","C_Dist_500_LN_7_LD_28_RN_9_RD_12_1.png","C_Dist_500_LN_9_LD_27_RN_20_RD_24_1.png"]],"dist500_I":[["I_Dist_500_LN_2_LD_3_RN_4_RD_24_0.png","I_Dist_500_LN_5_LD_6_RN_6_RD_18_0.png","I_Dist_500_LN_7_LD_8_RN_9_RD_24_0.png"],["I_Dist_500_LN_7_LD_21_RN_5_RD_6_1.png"]],"dist500_S":[["E_Dist_500_LN_6_LD_8_RN_6_RD_24_0.png"],["E_Dist_500_LN_2_LD_12_RN_2_RD_3_1.png","E_Dist_500_LN_6_LD_24_RN_6_RD_8_1.png"]]}},{"start_time":1551892067573,"click_time":1551892069192,"finger_time":1551892069009,"fix_duration":1320.8190202266444,"trial":1,"RT":1436,"MT":183,"sideResp":1,"stimulus":[],"xmouse":[795,795,795,795,795,795,795,795,795,795,795,795,795,795,795,795,795,795,795,795,795,795,795,795,795,795,795,795,795,795,795,795,795,795,795,795,795,795,795,795,795,795,795,795,795,795,795,795,795,795,795,795,795,795,794,792,792,792,792,791,788,786,786,786,786,785,783,780,779,777,770,763,761,751,739,652,606,579,546,518,467],"ymouse":[492,492,492,492,492,492,492,492,492,492,492,492,492,492,492,492,492,492,492,492,492,492,492,492,492,492,492,492,492,492,492,492,492,492,492,492,492,492,492,492,492,492,492,492,492,492,492,492,492,492,492,492,492,492,491,489,489,489,489,489,487,487,487,487,487,486,486,479,476,475,472,469,468,454,437,335,283,235,177,122,29],"timestamp_mouse":[17,42,58,78,96,118,137,157,177,198,217,238,257,278,297,318,338,357,377,398,418,437,456,477,497,517,537,557,578,597,617,637,657,677,698,717,738,757,778,798,818,838,857,878,897,917,938,956,978,998,1017,1036,1058,1078,1096,1118,1138,1157,1178,1197,1217,1237,1257,1278,1298,1317,1338,1358,1378,1397,1417,1436,1457,1477,1497,1517,1536,1556,1577,1596,1618],"xSR":741.5,"ySR":469.95,"xT1":424.9,"yT1":0,"xT2":1058.1,"yT2":0,"toosoon":0,"cond_shown":"Incongruent","ratio_trial":300,"L_num":1,"L_den":2,"R_num":2,"R_den":10,"correct_side":1,"subjID":"SantiagoAndresVargasCamargo35","gender":"0","school":"6","age":"10"},{"start_time":1551892071749,"click_time":1551892073330,"finger_time":1551892073070,"fix_duration":856.6382124518317,"trial":2,"RT":1321,"MT":260,"sideResp":2,"stimulus":[],"xmouse":[815,815,815,815,815,815,815,815,815,815,815,815,815,815,815,815,815,815,815,815,815,815,815,815,815,815,815,815,815,815,815,815,815,815,815,815,815,815,815,815,815,815,815,815,815,815,815,815,815,815,815,815,815,815,815,815,815,815,815,815,815,815,815,815,815,818,835,907,967,1017,1034,1040,1043,1044,1044,1044,1046,1049,1056,1062],"ymouse":[514,514,514,514,514,514,514,514,514,514,514,514,514,514,514,514,514,514,514,514,514,514,514,514,514,514,514,514,514,514,514,514,514,514,514,514,514,514,514,514,514,514,514,514,514,514,514,514,514,514,514,514,514,514,514,514,514,514,514,514,514,514,514,514,514,501,395,240,146,78,48,32,20,20,20,20,20,20,22,23],"timestamp_mouse":[12,21,58,62,81,101,121,141,161,181,201,221,241,261,281,302,321,341,361,382,401,420,442,462,481,501,520,542,561,581,601,621,641,661,681,702,722,740,761,782,802,821,841,861,881,902,922,941,961,981,1000,1021,1041,1062,1081,1102,1121,1141,1161,1181,1202,1222,1241,1262,1281,1301,1321,1342,1361,1381,1402,1420,1442,1460,1480,1501,1521,1540,1560,1581],"xSR":741.5,"ySR":469.95,"xT1":424.9,"yT1":0,"xT2":1058.1,"yT2":0,"toosoon":0,"cond_shown":"Congruent","ratio_trial":200,"L_num":6,"L_den":20,"R_num":11,"R_den":22,"correct_side":2,"subjID":"SantiagoAndresVargasCamargo35","gender":"0","school":"6","age":"10"},{"start_time":1551892075059,"click_time":1551892076030,"finger_time":1551892075850,"fix_duration":526.5797077630472,"trial":3,"RT":791,"MT":180,"sideResp":1,"stimulus":[],"xmouse":[824,824,824,824,824,824,824,824,824,824,824,824,824,824,824,824,824,824,824,824,824,824,824,824,824,824,824,824,824,824,824,824,824,824,824,824,821,818,800,757,714,612,563,532,514,498,477,474,473],"ymouse":[496,496,496,496,496,496,496,496,496,496,496,496,496,496,496,496,496,496,496,496,496,496,496,496,496,496,496,496,496,496,496,496,496,496,496,496,494,492,479,434,386,277,227,189,168,145,107,101,97],"timestamp_mouse":[11,34,50,72,92,110,131,152,171,191,212,231,252,271,292,311,332,351,372,392,412,432,452,472,491,512,532,552,570,591,610,632,651,670,692,712,731,751,771,791,811,831,851,871,891,912,931,951,971],"xSR":741.5,"ySR":469.95,"xT1":424.9,"yT1":0,"xT2":1058.1,"yT2":0,"toosoon":0,"cond_shown":"Congruent","ratio_trial":100,"L_num":4,"L_den":10,"R_num":15,"R_den":30,"correct_side":2,"subjID":"SantiagoAndresVargasCamargo35","gender":"0","school":"6","age":"10"},{"start_time":1551892077422,"click_time":1551892078251,"finger_time":1551892078009,"fix_duration":269.8747333276076,"trial":4,"RT":587,"MT":242,"sideResp":2,"stimulus":[],"xmouse":[769,769,769,769,769,769,769,769,769,769,769,769,769,769,769,769,769,769,769,769,769,769,769,769,769,769,769,769,770,764,761,757,756,767,775,786,802,838,877,972,1039,1101],"ymouse":[494,494,494,494,494,494,494,494,494,494,494,494,494,494,494,494,494,494,494,494,494,494,494,494,494,494,494,494,490,465,459,449,439,397,373,348,321,272,222,134,97,65],"timestamp_mouse":[8,28,48,69,89,107,128,148,167,188,209,229,248,269,289,308,328,348,368,387,409,429,447,469,489,509,529,548,568,587,607,628,649,668,688,708,728,748,769,789,807,829],"xSR":741.5,"ySR":469.95,"xT1":424.9,"yT1":0,"xT2":1058.1,"yT2":0,"toosoon":0,"cond_shown":"Congruent","ratio_trial":100,"L_num":1,"L_den":2,"R_num":18,"R_den":30,"correct_side":2,"subjID":"SantiagoAndresVargasCamargo35","gender":"0","school":"6","age":"10"},{"start_time":1551892080149,"click_time":1551892081609,"finger_time":1551892081510,"fix_duration":575.0126991999769,"trial":5,"RT":1361,"MT":99,"sideResp":2,"stimulus":[],"xmouse":[769,769,769,769,769,769,769,769,769,769,769,769,769,769,769,769,769,769,769,769,769,769,769,769,769,769,769,769,769,769,769,769,769,769,769,769,769,769,769,769,769,769,769,769,769,769,769,769,769,769,769,769,769,769,769,769,769,769,769,769,769,769,769,769,769,769,771,777,868,923,977,1017,1056,1066],"ymouse":[493,493,493,493,493,493,493,493,493,493,493,493,493,493,493,493,493,493,493,493,493,493,493,493,493,493,493,493,493,493,493,493,493,493,493,493,493,493,493,493,493,493,493,493,493,493,493,493,493,493,493,493,493,493,493,493,493,493,493,493,493,493,493,493,493,493,493,477,287,203,132,92,61,52],"timestamp_mouse":[8,22,41,62,81,101,122,141,162,182,202,221,242,261,281,301,322,341,362,381,401,422,441,462,481,502,521,541,562,581,600,622,642,662,682,701,721,741,762,781,802,822,841,861,881,901,922,941,962,981,1001,1021,1041,1062,1080,1101,1121,1140,1162,1180,1201,1221,1241,1261,1281,1301,1322,1340,1361,1381,1401,1420,1442,1460],"xSR":741.5,"ySR":469.95,"xT1":424.9,"yT1":0,"xT2":1058.1,"yT2":0,"toosoon":0,"cond_shown":"Incongruent","ratio_trial":100,"L_num":6,"L_den":10,"R_num":11,"R_den":22,"correct_side":1,"subjID":"SantiagoAndresVargasCamargo35","gender":"0","school":"6","age":"10"},{"start_time":1551892083725,"click_time":1551892091769,"finger_time":1551892086690,"fix_duration":714.9535795870836,"trial":6,"RT":2965,"MT":5079,"sideResp":1,"stimulus":[],"xmouse":[760,760,760,760,760,760,760,760,760,760,760,760,760,760,760,760,760,760,760,760,760,760,760,760,760,760,760,760,760,760,760,760,760,760,760,760,760,761,762,762,762,762,762,762,762,762,762,762,762,762,762,762,762,762,762,762,762,762,762,762,762,762,762,762,762,762,762,762,762,762,762,762,762,762,762,762,762,762,762,762,762,762,762,762,762,762,762,762,762,762,762,762,762,762,762,762,762,762,762,762,762,762,762,762,762,762,762,762,762,762,762,762,762,762,762,762,762,762,762,762,762,762,762,762,762,762,762,762,770,776,780,782,782,782,782,782,782,782,782,782,782,782,782,782,782,782,795,813,909,941,955,958,958,958,958,958,957,944,922,881,864,849,842,841,841,840,839,839,839,839,839,839,839,839,839,839,839,839,839,839,839,819,797,672,653,650,650,650,650,650,650,650,650,650,650,650,654,669,699,707,710,713,713,713,715,715,715,715,715,715,715,716,718,727,758,765,765,765,765,765,765,765,765,765,765,765,765,765,765,765,765,765,765,765,765,765,765,765,765,765,765,765,765,765,765,765,765,765,765,765,765,765,765,765,765,765,765,765,765,765,765,765,765,765,765,765,765,765,765,765,765,765,765,765,765,765,765,765,765,765,765,765,765,765,765,765,765,765,765,765,765,765,765,765,765,765,765,765,765,765,765,765,765,765,765,765,765,765,765,765,765,765,765,765,765,765,765,765,765,765,765,765,765,765,765,765,765,765,765,765,765,765,765,765,765,765,765,765,765,765,765,765,765,765,765,765,765,765,765,765,765,765,765,765,765,765,765,765,765,765,765,765,765,765,770,771,757,719,691,666,659,653,639,629,601,589,589,589,589,589,589,589,589,589,589,589,589,589,589,589,589,589,589,589,589,589,589,589,589,558,545,532,520],"ymouse":[498,498,498,498,498,498,498,498,498,498,498,498,498,498,498,498,498,498,498,498,498,498,498,498,498,498,498,498,498,498,498,498,498,498,498,498,498,498,498,498,498,498,498,498,498,498,498,498,498,498,498,498,498,498,498,498,498,498,498,498,498,498,498,498,498,498,498,498,498,498,498,498,498,498,498,498,498,498,498,498,498,498,498,498,498,498,498,498,498,498,498,498,498,498,498,498,498,498,498,498,498,498,498,498,498,498,498,498,498,498,498,498,498,498,498,498,498,498,498,498,498,498,498,498,498,498,498,498,503,506,510,512,513,513,513,513,513,513,513,513,513,513,513,513,513,513,510,494,412,381,363,358,358,357,357,357,359,381,413,470,492,509,515,516,516,516,516,516,516,516,516,516,516,516,516,516,516,516,516,516,516,516,516,532,538,540,540,540,540,540,540,540,540,540,540,540,540,539,532,532,531,531,531,531,530,530,530,530,530,530,530,530,529,526,519,517,517,517,517,517,517,517,517,517,517,517,517,517,517,517,517,517,517,517,517,517,517,517,517,517,517,517,517,517,517,517,517,517,517,517,517,517,517,517,517,517,517,517,517,517,517,517,517,517,517,517,517,517,517,517,517,517,517,517,517,517,517,517,517,517,517,517,517,517,517,517,517,517,517,517,517,517,517,517,517,517,517,517,517,517,517,517,517,517,517,517,517,517,517,517,517,517,517,517,517,517,517,517,517,517,517,517,517,517,517,517,517,517,517,517,517,517,517,517,517,517,517,517,517,517,517,517,517,517,517,517,517,517,517,517,517,517,517,517,517,517,517,517,517,517,517,517,517,517,505,488,471,425,389,338,313,286,242,194,77,6,6,6,6,6,6,6,6,6,6,6,6,6,6,6,6,6,6,6,6,6,6,6,6,19,34,46,54],"timestamp_mouse":[9,38,45,65,84,104,125,144,165,186,205,225,246,264,286,306,324,345,364,386,406,425,446,466,486,505,526,544,564,585,606,625,645,666,686,706,725,745,765,786,805,824,846,866,885,906,926,945,964,984,1005,1026,1045,1065,1086,1104,1125,1144,1166,1185,1205,1225,1244,1265,1284,1305,1324,1346,1364,1385,1405,1426,1444,1465,1485,1505,1525,1546,1564,1585,1604,1626,1646,1665,1684,1706,1724,1744,1766,1784,1805,1825,1846,1864,1886,1904,1925,1946,1964,1986,2005,2024,2045,2064,2086,2106,2124,2144,2165,2184,2206,2224,2246,2265,2284,2306,2324,2344,2366,2384,2405,2425,2444,2465,2486,2504,2525,2546,2565,2584,2605,2624,2648,2664,2686,2705,2726,2744,2764,2785,2805,2824,2844,2865,2886,2905,2925,2945,2965,2984,3005,3026,3045,3064,3084,3104,3125,3144,3165,3184,3204,3225,3246,3264,3286,3306,3324,3345,3364,3385,3405,3426,3446,3465,3485,3505,3526,3545,3564,3584,3606,3624,3645,3665,3685,3705,3725,3745,3765,3786,3806,3825,3845,3866,3884,3905,3925,3946,3965,3984,4005,4024,4046,4066,4085,4104,4125,4146,4165,4186,4205,4226,4244,4265,4284,4305,4325,4346,4364,4385,4405,4424,4445,4466,4484,4505,4524,4545,4566,4585,4605,4624,4646,4666,4684,4704,4725,4745,4765,4784,4805,4825,4844,4866,4884,4906,4925,4945,4964,4984,5006,5025,5045,5066,5085,5105,5124,5144,5166,5185,5205,5226,5244,5266,5285,5305,5325,5344,5365,5385,5404,5425,5445,5464,5484,5506,5525,5544,5564,5586,5606,5625,5645,5665,5686,5704,5725,5746,5766,5785,5806,5825,5844,5865,5886,5906,5924,5946,5965,5985,6006,6025,6046,6064,6086,6106,6125,6145,6166,6184,6206,6224,6246,6265,6286,6304,6325,6346,6365,6384,6405,6426,6445,6466,6485,6505,6526,6544,6565,6586,6605,6624,6645,6664,6685,6706,6725,6745,6764,6785,6805,6825,6844,6864,6886,6906,6924,6946,6965,6985,7006,7025,7046,7065,7085,7106,7125,7144,7166,7186,7206,7225,7245,7265,7284,7305,7325,7345,7365,7385,7405,7425,7446,7465,7484,7505,7524,7544,7565,7584,7604,7624,7645,7664,7685,7705,7725,7745,7764,7785,7804,7825,7846,7865,7885,7906,7925,7945,7965,7985,8005,8024,8044],"xSR":741.5,"ySR":469.95,"xT1":424.9,"yT1":0,"xT2":1058.1,"yT2":0,"toosoon":0,"cond_shown":"Incongruent","ratio_trial":300,"L_num":3,"L_den":6,"R_num":4,"R_den":20,"correct_side":1,"subjID":"SantiagoAndresVargasCamargo35","gender":"0","school":"6","age":"10"},{"start_time":1551892093363,"click_time":1551892094609,"finger_time":1551892094289,"fix_duration":471.3696746585417,"trial":7,"RT":926,"MT":320,"sideResp":2,"stimulus":[],"xmouse":[797,797,797,797,797,797,797,797,797,797,797,797,797,797,797,797,797,797,797,797,797,797,797,797,797,797,797,797,797,797,797,797,797,797,797,797,797,797,797,797,797,797,797,797,797,804,839,909,940,973,1004,1027,1070,1077,1081,1082,1082,1082,1082,1082,1082,1082,1090],"ymouse":[492,492,492,492,492,492,492,492,492,492,492,492,492,492,492,492,492,492,492,492,492,492,492,492,492,492,492,492,493,493,493,493,493,493,493,493,493,493,493,493,493,493,493,493,491,471,405,324,289,251,216,183,120,112,108,107,107,107,107,107,106,103,93],"timestamp_mouse":[8,33,48,68,87,108,127,146,166,187,206,227,248,266,286,307,328,348,367,387,408,428,448,467,487,506,528,548,566,587,608,628,646,666,688,708,728,747,767,786,807,826,847,866,886,906,926,947,966,987,1006,1026,1046,1067,1087,1107,1127,1147,1167,1187,1207,1226,1246],"xSR":741.5,"ySR":469.95,"xT1":424.9,"yT1":0,"xT2":1058.1,"yT2":0,"toosoon":0,"cond_shown":"Congruent","ratio_trial":100,"L_num":6,"L_den":12,"R_num":15,"R_den":25,"correct_side":2,"subjID":"SantiagoAndresVargasCamargo35","gender":"0","school":"6","age":"10"},{"start_time":1551892097204,"click_time":1551892099250,"finger_time":1551892098170,"fix_duration":250,"trial":8,"RT":966,"MT":1080,"sideResp":1,"stimulus":[],"xmouse":[786,786,786,786,786,786,786,786,786,786,786,786,786,786,786,786,786,786,786,786,786,786,786,786,786,786,786,786,786,786,786,786,786,786,786,786,786,786,786,786,786,786,786,786,786,786,792,808,833,857,863,865,865,865,865,865,865,865,865,865,865,865,863,859,849,829,822,818,816,816,816,816,816,816,809,798,779,756,737,637,597,558,550,540,540,540,540,540,540,540,540,540,540,540,540,540,394,394,400,418,421,424,425],"ymouse":[530,530,530,530,530,530,530,530,530,530,530,530,530,530,530,530,530,530,530,530,530,530,530,530,530,530,530,530,530,530,530,530,530,530,530,530,530,530,530,530,530,530,530,530,530,530,512,478,437,408,403,402,402,402,402,402,402,402,402,402,402,402,404,412,428,460,472,479,481,481,481,481,481,481,480,468,434,380,322,151,94,38,27,8,8,8,8,8,8,8,8,8,8,8,8,8,1,4,17,48,52,54,55],"timestamp_mouse":[11,42,46,65,86,107,125,145,166,186,205,225,245,266,286,306,326,346,366,386,407,425,446,465,485,507,527,545,566,587,606,627,646,667,686,706,726,747,766,786,807,827,847,866,886,907,925,945,966,986,1006,1025,1046,1066,1085,1106,1126,1145,1166,1187,1206,1226,1246,1265,1286,1306,1325,1346,1367,1387,1407,1426,1446,1466,1486,1506,1526,1545,1566,1587,1605,1625,1647,1666,1686,1707,1727,1747,1767,1786,1806,1827,1847,1865,1885,1906,1925,1945,1966,1986,2005,2025,2046],"xSR":741.5,"ySR":469.95,"xT1":424.9,"yT1":0,"xT2":1058.1,"yT2":0,"toosoon":0,"cond_shown":"Congruent","ratio_trial":100,"L_num":8,"L_den":16,"R_num":2,"R_den":5,"correct_side":1,"subjID":"SantiagoAndresVargasCamargo35","gender":"0","school":"6","age":"10"},{"start_time":1551892100842,"click_time":1551892102470,"finger_time":1551892102089,"fix_duration":250,"trial":9,"RT":1247,"MT":381,"sideResp":1,"stimulus":[],"xmouse":[830,830,830,830,830,830,830,830,830,830,830,830,830,830,830,830,830,830,830,830,830,830,830,830,830,830,830,830,830,830,830,830,830,830,830,830,830,830,830,830,830,830,830,830,830,830,830,830,830,830,830,830,830,830,830,830,830,830,830,827,825,803,780,733,707,689,677,661,651,639,624,616,595,580,571,566,561,552,549,544,537,523],"ymouse":[533,533,533,533,533,533,533,533,533,533,533,533,533,533,533,533,533,533,533,533,533,533,533,533,533,533,533,533,533,533,533,533,533,533,533,533,533,533,533,533,533,533,533,533,533,533,533,533,533,533,533,533,533,533,533,533,533,533,533,533,532,482,440,344,294,251,221,190,174,157,136,122,78,57,43,37,32,28,26,25,23,23],"timestamp_mouse":[8,29,48,69,87,107,142,149,167,189,207,228,248,267,288,308,327,348,368,388,409,427,447,469,487,507,527,548,567,587,609,628,648,667,689,707,728,749,768,788,808,828,847,869,888,907,929,948,967,987,1009,1027,1047,1067,1089,1107,1128,1148,1167,1189,1208,1229,1247,1268,1289,1307,1328,1348,1368,1389,1407,1428,1448,1467,1487,1508,1528,1548,1568,1589,1608,1628],"xSR":741.5,"ySR":469.95,"xT1":424.9,"yT1":0,"xT2":1058.1,"yT2":0,"toosoon":0,"cond_shown":"Congruent","ratio_trial":200,"L_num":6,"L_den":15,"R_num":3,"R_den":15,"correct_side":1,"subjID":"SantiagoAndresVargasCamargo35","gender":"0","school":"6","age":"10"},{"start_time":1551892105279,"click_time":1551892106670,"finger_time":1551892106390,"fix_duration":1467.488574728538,"trial":10,"RT":1111,"MT":280,"sideResp":2,"stimulus":[],"xmouse":[821,821,821,821,821,821,821,821,821,821,821,821,821,821,821,821,821,821,821,821,821,821,821,821,821,821,821,821,821,821,821,821,821,821,821,821,821,821,821,821,821,821,821,821,821,821,821,821,821,821,821,821,821,821,825,835,872,908,955,973,1003,1004,1004,1003,1003,1003,1057,1107,1138,1141],"ymouse":[486,486,486,486,486,486,486,486,486,486,486,486,486,486,486,486,486,486,486,486,486,486,486,486,486,486,486,486,486,486,486,486,486,486,486,486,486,486,486,486,486,486,486,486,486,486,486,486,486,486,486,486,486,486,477,447,371,330,277,253,210,203,200,200,200,198,152,122,100,97],"timestamp_mouse":[10,46,57,72,91,111,131,151,171,192,210,231,252,271,290,310,332,352,371,390,412,431,452,470,491,512,532,552,571,591,611,631,650,670,691,711,731,752,770,790,812,830,851,870,891,912,931,951,971,991,1010,1031,1050,1071,1091,1111,1131,1150,1171,1191,1211,1231,1252,1271,1291,1311,1331,1350,1370,1391],"xSR":741.5,"ySR":469.95,"xT1":424.9,"yT1":0,"xT2":1058.1,"yT2":0,"toosoon":0,"cond_shown":"Congruent","ratio_trial":300,"L_num":2,"L_den":20,"R_num":10,"R_den":25,"correct_side":2,"subjID":"SantiagoAndresVargasCamargo35","gender":"0","school":"6","age":"10"},{"start_time":1551892110179,"click_time":1551892111269,"finger_time":1551892110929,"fix_duration":868.4973045223182,"trial":11,"RT":750,"MT":340,"sideResp":2,"stimulus":[],"xmouse":[779,779,779,779,779,779,779,779,779,779,779,779,779,779,779,779,779,779,779,779,779,779,779,779,779,779,779,779,779,779,779,779,779,779,779,779,783,802,829,866,922,934,943,955,963,1009,1018,1031,1037,1042,1045,1050,1053,1058,1064],"ymouse":[522,522,522,522,522,522,522,522,522,522,522,522,522,522,522,522,522,522,522,522,522,522,522,522,522,522,522,522,522,522,522,522,522,522,522,522,511,451,359,280,202,189,175,151,130,69,61,50,44,38,34,27,25,23,22],"timestamp_mouse":[11,42,51,71,90,111,130,152,171,191,211,232,252,270,292,311,331,352,370,391,412,431,450,470,491,511,532,551,570,591,611,632,650,670,690,712,731,750,772,790,811,831,850,871,890,912,930,951,971,991,1010,1030,1050,1071,1090],"xSR":741.5,"ySR":469.95,"xT1":424.9,"yT1":0,"xT2":1058.1,"yT2":0,"toosoon":0,"cond_shown":"Incongruent","ratio_trial":300,"L_num":13,"L_den":26,"R_num":12,"R_den":15,"correct_side":2,"subjID":"SantiagoAndresVargasCamargo35","gender":"0","school":"6","age":"10"},{"start_time":1551892114182,"click_time":1551892115451,"finger_time":1551892115130,"fix_duration":250,"trial":12,"RT":948,"MT":321,"sideResp":2,"stimulus":[],"xmouse":[751,751,751,751,751,751,751,751,751,751,751,751,751,751,751,751,751,751,751,751,751,751,751,751,751,751,751,751,751,751,751,751,751,751,751,751,751,751,751,751,751,751,751,751,751,754,781,808,844,874,914,926,942,961,974,989,1005,1008,1017,1031,1063,1078,1091,1106],"ymouse":[535,535,535,535,535,535,535,535,535,535,535,535,535,535,535,535,535,535,535,535,535,535,535,535,535,535,535,535,535,535,535,535,535,535,535,535,535,535,535,535,535,535,535,535,535,531,489,466,432,395,324,297,270,237,221,205,189,185,174,159,128,118,109,95],"timestamp_mouse":[10,41,47,67,89,108,127,148,168,188,208,229,249,268,289,309,328,348,369,388,408,428,448,468,489,509,528,548,569,588,607,628,649,668,688,709,729,748,767,788,809,829,848,868,888,908,928,948,967,989,1009,1028,1048,1068,1087,1108,1129,1148,1167,1187,1208,1227,1247,1268],"xSR":741.5,"ySR":469.95,"xT1":424.9,"yT1":0,"xT2":1058.1,"yT2":0,"toosoon":0,"cond_shown":"Congruent","ratio_trial":300,"L_num":3,"L_den":6,"R_num":4,"R_den":5,"correct_side":2,"subjID":"SantiagoAndresVargasCamargo35","gender":"0","school":"6","age":"10"},{"start_time":1551892138984,"click_time":1551892140390,"finger_time":1551892139950,"fix_duration":1092.1460198880593,"trial":13,"RT":966,"MT":440,"sideResp":1,"stimulus":[],"xmouse":[820,820,820,820,820,820,820,820,820,820,820,820,820,820,820,820,820,820,820,820,820,820,820,820,820,820,820,820,820,820,820,820,820,820,820,820,820,820,820,820,820,820,820,820,820,815,786,753,701,674,666,665,664,664,664,660,658,657,654,645,622,606,592,570,567,549,542,540,519,515,498],"ymouse":[550,550,550,550,550,550,550,550,550,550,550,550,550,550,550,550,550,550,550,550,550,550,550,550,550,550,550,550,550,550,550,550,550,550,550,550,550,550,550,550,550,550,550,550,550,540,520,497,460,424,383,374,362,343,325,317,314,313,307,294,252,226,205,180,175,153,145,143,110,105,72],"timestamp_mouse":[9,25,46,65,86,105,125,146,166,185,205,226,246,266,286,306,326,347,367,386,406,427,446,466,486,507,527,545,566,586,605,626,647,665,685,707,726,745,765,786,807,825,847,866,886,906,926,945,966,986,1007,1025,1046,1066,1086,1106,1125,1146,1166,1186,1207,1225,1245,1265,1286,1306,1325,1346,1365,1386,1406],"xSR":741.5,"ySR":469.95,"xT1":424.9,"yT1":0,"xT2":1058.1,"yT2":0,"toosoon":0,"cond_shown":"Incongruent","ratio_trial":200,"L_num":3,"L_den":10,"R_num":1,"R_den":2,"correct_side":2,"subjID":"SantiagoAndresVargasCamargo35","gender":"0","school":"6","age":"10"},{"start_time":1551892143304,"click_time":1551892144370,"finger_time":1551892143971,"fix_duration":973.4070980390036,"trial":14,"RT":667,"MT":399,"sideResp":1,"stimulus":[],"xmouse":[795,795,795,795,795,795,795,795,795,795,795,795,795,795,795,795,795,795,795,795,795,795,795,795,795,795,795,795,795,795,795,796,803,833,861,861,861,861,861,861,861,859,849,831,770,747,726,697,676,649,590,561,540,524],"ymouse":[507,507,507,507,507,507,507,507,507,507,507,507,507,507,507,507,507,507,507,507,507,507,507,507,507,507,507,507,507,507,507,507,498,467,435,435,435,435,435,435,435,430,416,393,332,312,295,267,241,207,128,89,63,44],"timestamp_mouse":[9,38,45,67,85,107,126,146,167,186,205,226,245,267,286,307,326,346,366,387,406,428,446,467,488,507,527,548,567,586,607,626,647,667,686,706,727,746,766,786,807,827,847,867,887,906,927,946,966,987,1006,1027,1048,1066],"xSR":741.5,"ySR":469.95,"xT1":424.9,"yT1":0,"xT2":1058.1,"yT2":0,"toosoon":0,"cond_shown":"Incongruent","ratio_trial":200,"L_num":14,"L_den":30,"R_num":12,"R_den":18,"correct_side":2,"subjID":"SantiagoAndresVargasCamargo35","gender":"0","school":"6","age":"10"},{"start_time":1551892146597,"click_time":1551892147291,"finger_time":1551892147191,"fix_duration":403.5691642031073,"trial":15,"RT":594,"MT":100,"sideResp":2,"stimulus":[],"xmouse":[789,789,789,789,789,789,789,789,789,789,789,789,789,789,789,789,789,789,789,789,789,789,789,789,789,789,789,791,801,830,903,948,987,1037,1092],"ymouse":[502,502,502,502,502,502,502,502,502,502,502,502,502,502,502,502,502,502,502,502,502,502,502,502,502,502,502,499,486,435,319,254,199,130,42],"timestamp_mouse":[16,42,54,74,93,113,133,153,174,195,213,233,254,273,294,313,333,354,373,393,413,433,453,474,493,515,533,555,575,594,613,633,654,674,694],"xSR":741.5,"ySR":469.95,"xT1":424.9,"yT1":0,"xT2":1058.1,"yT2":0,"toosoon":0,"cond_shown":"Congruent","ratio_trial":200,"L_num":3,"L_den":10,"R_num":14,"R_den":28,"correct_side":2,"subjID":"SantiagoAndresVargasCamargo35","gender":"0","school":"6","age":"10"},{"start_time":1551892151121,"click_time":1551892152471,"finger_time":1551892151851,"fix_duration":1246.2508777652188,"trial":16,"RT":730,"MT":620,"sideResp":2,"stimulus":[],"xmouse":[803,803,803,803,803,803,803,803,803,803,803,803,803,803,803,803,803,803,803,803,803,803,803,803,803,803,803,803,803,803,803,803,803,803,803,807,853,929,1112,1182,1217,1231,1241,1251,1251,1251,1251,1251,1251,1251,1251,1251,1251,1251,1251,1251,1251,1251,1251,1251,1251,1251,1251,1251,1251,1251,1179,1073],"ymouse":[532,532,532,532,532,532,532,532,532,532,532,532,532,532,532,532,532,532,532,532,532,532,532,532,532,532,532,532,532,532,532,532,532,532,532,529,466,385,199,126,76,50,28,0,0,0,0,0,0,0,0,0,0,0,0,0,0,0,0,0,0,0,0,0,0,0,16,46],"timestamp_mouse":[10,37,49,70,89,109,129,149,171,189,210,230,250,271,290,310,331,351,370,390,411,430,450,470,489,510,531,550,569,590,609,631,649,670,689,710,730,750,770,789,810,830,849,869,889,909,929,951,970,990,1010,1031,1049,1069,1089,1110,1129,1149,1169,1190,1211,1229,1250,1269,1290,1310,1329,1350],"xSR":741.5,"ySR":469.95,"xT1":424.9,"yT1":0,"xT2":1058.1,"yT2":0,"toosoon":0,"cond_shown":"Congruent","ratio_trial":100,"L_num":1,"L_den":2,"R_num":18,"R_den":30,"correct_side":2,"subjID":"SantiagoAndresVargasCamargo35","gender":"0","school":"6","age":"10"},{"start_time":1551892154506,"click_time":1551892155471,"finger_time":1551892155172,"fix_duration":533.2764511741202,"trial":17,"RT":666,"MT":299,"sideResp":2,"stimulus":[],"xmouse":[809,809,809,809,809,809,809,809,809,809,809,809,809,809,809,809,809,809,809,809,809,809,809,809,809,809,809,809,809,809,809,809,821,831,888,913,926,933,933,933,933,934,943,959,982,1024,1042,1067,1077],"ymouse":[502,502,502,502,502,502,502,502,502,502,502,502,502,502,502,502,502,502,502,502,502,502,502,502,502,502,502,502,502,502,502,502,481,464,368,332,316,306,306,306,306,305,293,275,246,190,160,118,97],"timestamp_mouse":[11,24,48,64,85,104,125,145,164,184,204,226,244,265,286,305,325,346,365,384,405,424,445,465,484,505,524,544,564,584,606,624,646,666,684,704,725,745,765,785,805,824,845,866,885,905,925,944,965],"xSR":741.5,"ySR":469.95,"xT1":424.9,"yT1":0,"xT2":1058.1,"yT2":0,"toosoon":0,"cond_shown":"Incongruent","ratio_trial":100,"L_num":13,"L_den":26,"R_num":6,"R_den":10,"correct_side":2,"subjID":"SantiagoAndresVargasCamargo35","gender":"0","school":"6","age":"10"},{"start_time":1551892156682,"click_time":1551892157830,"finger_time":1551892157371,"fix_duration":250,"trial":18,"RT":689,"MT":459,"sideResp":1,"stimulus":[],"xmouse":[768,768,768,768,768,768,768,768,768,768,768,768,768,768,768,768,768,768,768,768,768,768,768,768,768,768,768,768,768,768,769,769,768,765,764,758,754,751,751,749,744,741,740,740,740,740,740,740,740,740,740,740,737,731,697,611,545,514],"ymouse":[516,516,516,516,516,516,516,516,516,516,516,516,516,516,516,516,516,516,516,516,516,516,516,516,516,516,516,516,516,516,516,499,490,475,460,430,412,393,378,368,355,352,351,351,351,351,351,351,351,351,351,351,349,340,291,172,82,46],"timestamp_mouse":[10,42,49,68,89,109,128,149,168,189,208,229,250,268,288,308,329,349,369,388,409,428,449,470,488,508,528,548,569,589,609,629,648,669,689,709,728,748,768,789,809,828,848,869,889,909,929,948,969,989,1009,1029,1050,1069,1090,1109,1128,1148],"xSR":741.5,"ySR":469.95,"xT1":424.9,"yT1":0,"xT2":1058.1,"yT2":0,"toosoon":0,"cond_shown":"Incongruent","ratio_trial":300,"L_num":1,"L_den":2,"R_num":3,"R_den":15,"correct_side":1,"subjID":"SantiagoAndresVargasCamargo35","gender":"0","school":"6","age":"10"},{"start_time":1551892160019,"click_time":1551892161211,"finger_time":1551892160691,"fix_duration":1387.7964612454573,"trial":19,"RT":672,"MT":520,"sideResp":2,"stimulus":[],"xmouse":[766,766,766,766,766,766,766,766,766,766,766,766,766,766,766,766,766,766,766,766,766,766,766,766,766,766,766,766,766,766,766,766,766,771,786,797,827,844,894,913,936,963,975,989,1020,1031,1034,1034,1034,1034,1034,1034,1034,1034,1034,1037,1039,1041,1056,1086],"ymouse":[479,479,479,479,479,479,479,479,479,479,479,479,479,479,479,479,479,479,479,479,479,479,479,479,479,479,479,479,479,479,479,478,476,466,446,431,388,362,261,210,163,118,102,85,51,41,38,38,38,38,38,38,38,38,37,37,38,38,39,42],"timestamp_mouse":[11,35,51,72,91,111,131,151,172,191,213,231,251,271,291,312,332,352,372,392,411,433,452,471,492,512,531,552,571,591,611,631,652,672,692,711,732,753,773,791,811,833,852,871,893,912,931,952,972,991,1012,1032,1053,1072,1092,1112,1132,1151,1171,1192],"xSR":741.5,"ySR":469.95,"xT1":424.9,"yT1":0,"xT2":1058.1,"yT2":0,"toosoon":0,"cond_shown":"Incongruent","ratio_trial":200,"L_num":9,"L_den":15,"R_num":8,"R_den":10,"correct_side":2,"subjID":"SantiagoAndresVargasCamargo35","gender":"0","school":"6","age":"10"},{"start_time":1551892163024,"click_time":1551892164030,"finger_time":1551892163672,"fix_duration":850.3486597561764,"trial":20,"RT":648,"MT":358,"sideResp":2,"stimulus":[],"xmouse":[753,753,753,753,753,753,753,753,753,753,753,753,753,753,753,753,753,753,753,753,753,753,753,753,753,753,753,753,753,753,753,777,821,870,1022,1083,1112,1157,1216,1269,1269,1269,1269,1269,1269,1269,1269,1269,1269,1269,1101],"ymouse":[515,515,515,515,515,515,515,515,515,515,515,515,515,515,515,515,515,515,515,515,515,515,515,515,515,515,515,515,515,515,515,484,429,383,262,214,185,131,57,2,2,2,2,2,2,2,2,2,2,2,4],"timestamp_mouse":[11,35,48,66,87,106,126,147,166,188,206,226,248,267,287,307,328,346,367,387,406,426,447,467,487,508,526,547,567,586,607,627,648,667,688,707,727,746,767,787,806,827,848,867,887,907,927,948,967,987,1006],"xSR":741.5,"ySR":469.95,"xT1":424.9,"yT1":0,"xT2":1058.1,"yT2":0,"toosoon":0,"cond_shown":"Congruent","ratio_trial":200,"L_num":3,"L_den":10,"R_num":14,"R_den":28,"correct_side":2,"subjID":"SantiagoAndresVargasCamargo35","gender":"0","school":"6","age":"10"},{"start_time":1551892166712,"click_time":1551892168330,"finger_time":1551892168051,"fix_duration":1398.9301756196635,"trial":21,"RT":1339,"MT":279,"sideResp":2,"stimulus":[],"xmouse":[774,774,774,774,774,774,774,774,774,774,774,774,774,774,774,774,774,774,774,774,774,774,774,774,774,774,774,774,774,774,774,774,774,774,774,774,774,774,774,774,774,774,774,774,774,774,774,774,774,774,774,774,774,774,774,774,774,774,774,774,774,774,774,774,774,786,799,844,882,940,952,965,982,994,1007,1014,1023,1034,1039,1069,1094,1126],"ymouse":[543,543,543,543,543,543,543,543,543,543,543,543,543,543,543,543,543,543,543,543,543,543,543,543,543,543,543,543,543,543,543,543,543,543,543,543,543,543,543,543,543,543,543,543,543,543,543,543,543,543,543,543,543,543,543,543,543,543,543,543,543,543,543,543,543,526,509,445,402,322,306,287,268,253,242,231,223,200,187,138,107,60],"timestamp_mouse":[1,32,38,58,80,99,119,138,160,178,198,219,239,258,280,298,319,340,359,379,399,420,438,459,479,499,520,540,560,578,600,619,639,658,678,699,718,739,759,778,799,818,838,858,879,900,919,938,959,978,998,1019,1038,1060,1079,1098,1119,1140,1158,1179,1198,1220,1238,1259,1279,1299,1319,1339,1358,1378,1398,1419,1439,1460,1478,1498,1518,1539,1558,1579,1598,1618],"xSR":741.5,"ySR":469.95,"xT1":424.9,"yT1":0,"xT2":1058.1,"yT2":0,"toosoon":0,"cond_shown":"Incongruent","ratio_trial":300,"L_num":7,"L_den":10,"R_num":8,"R_den":20,"correct_side":1,"subjID":"SantiagoAndresVargasCamargo35","gender":"0","school":"6","age":"10"},{"start_time":1551892170786,"click_time":1551892172610,"finger_time":1551892172111,"fix_duration":1234.6059102542679,"trial":22,"RT":1325,"MT":499,"sideResp":1,"stimulus":[],"xmouse":[786,786,786,786,786,786,786,786,786,786,786,786,786,786,786,786,786,786,786,786,786,786,786,786,786,786,786,787,787,787,787,787,787,787,787,787,787,788,788,788,788,788,788,788,788,788,788,788,788,788,788,788,788,788,788,788,788,788,788,788,788,788,788,788,788,791,800,815,840,877,931,955,974,993,1003,1016,1018,1019,1020,1020,1020,1020,1020,1020,1020,1013,999,971,900,810,606,506],"ymouse":[514,514,514,514,514,514,514,514,514,514,514,514,514,514,514,514,514,514,514,514,514,514,514,514,514,514,514,513,513,513,513,513,513,513,513,504,501,498,496,496,496,496,496,496,496,496,496,496,496,496,496,496,496,495,494,494,494,494,494,494,494,494,494,494,494,485,462,431,396,350,292,267,247,226,212,196,193,192,191,191,191,191,191,191,191,191,191,190,179,162,117,90],"timestamp_mouse":[9,38,45,64,84,104,124,146,164,185,205,224,245,264,284,305,324,345,364,384,405,425,444,465,486,504,526,545,564,585,605,625,644,666,686,705,725,745,764,784,806,824,845,864,884,904,924,944,964,984,1004,1026,1045,1065,1084,1104,1124,1144,1164,1186,1204,1224,1245,1264,1284,1305,1325,1345,1364,1384,1404,1424,1445,1465,1484,1505,1525,1544,1565,1585,1606,1626,1644,1664,1686,1705,1724,1745,1764,1785,1805,1824],"xSR":741.5,"ySR":469.95,"xT1":424.9,"yT1":0,"xT2":1058.1,"yT2":0,"toosoon":0,"cond_shown":"Incongruent","ratio_trial":200,"L_num":7,"L_den":10,"R_num":8,"R_den":16,"correct_side":1,"subjID":"SantiagoAndresVargasCamargo35","gender":"0","school":"6","age":"10"},{"start_time":1551892174142,"click_time":1551892177030,"finger_time":1551892175511,"fix_duration":250,"trial":23,"RT":1369,"MT":1519,"sideResp":1,"stimulus":[],"xmouse":[807,807,807,807,807,807,807,807,807,807,807,807,807,807,807,807,807,807,807,807,807,807,807,807,807,807,807,807,807,807,807,807,807,807,807,807,807,807,807,807,807,807,807,807,807,807,807,807,807,807,807,807,807,807,807,807,807,807,807,807,807,807,807,807,807,807,808,815,872,897,936,952,1046,1051,1051,1051,1051,1051,1051,1051,1051,1051,1051,1051,1051,1052,1052,1052,1052,1052,1052,1052,1052,1052,1052,1052,1052,1052,1052,1052,1052,1052,1052,1052,1052,1052,1052,1052,1052,1052,1052,1052,1052,1052,1052,1052,1052,1052,1052,1052,1052,1052,1052,1052,1052,1052,1052,1052,1037,940,828,680,351,246,210,201,201,201,201,201,201,207,245,343,471],"ymouse":[485,485,485,485,485,485,485,485,485,485,485,485,485,485,485,485,485,485,485,485,485,485,485,485,485,485,485,485,485,485,485,485,485,485,485,485,485,485,485,485,485,485,485,485,485,485,485,485,485,485,485,485,485,485,485,485,485,485,485,485,485,485,485,485,485,485,484,471,404,368,314,296,170,163,163,163,163,163,163,163,163,163,163,163,163,162,162,162,162,162,162,162,162,162,162,162,162,162,162,162,162,162,162,162,162,162,162,162,162,162,162,162,162,162,162,162,162,162,162,162,162,162,162,162,162,162,162,162,162,149,131,110,47,33,29,28,28,28,28,28,28,28,28,29,24],"timestamp_mouse":[11,34,50,68,88,110,128,149,169,188,209,230,248,268,288,310,329,349,368,389,408,428,449,468,490,508,528,549,568,588,608,628,649,669,688,710,728,748,768,788,808,829,849,869,890,908,928,949,968,989,1008,1029,1048,1069,1088,1108,1130,1148,1168,1190,1210,1228,1248,1269,1288,1308,1330,1349,1369,1389,1408,1429,1450,1468,1488,1509,1529,1549,1568,1589,1609,1628,1649,1668,1688,1708,1729,1750,1769,1788,1808,1828,1849,1868,1888,1908,1928,1949,1969,1988,2008,2028,2049,2068,2089,2109,2129,2149,2169,2189,2209,2228,2249,2268,2289,2309,2328,2349,2369,2389,2409,2428,2449,2468,2488,2509,2528,2549,2568,2589,2610,2628,2648,2668,2689,2709,2728,2749,2769,2788,2809,2830,2849,2869,2888],"xSR":741.5,"ySR":469.95,"xT1":424.9,"yT1":0,"xT2":1058.1,"yT2":0,"toosoon":0,"cond_shown":"Incongruent","ratio_trial":200,"L_num":4,"L_den":30,"R_num":1,"R_den":3,"correct_side":2,"subjID":"SantiagoAndresVargasCamargo35","gender":"0","school":"6","age":"10"},{"start_time":1551892181709,"click_time":1551892183210,"finger_time":1551892182691,"fix_duration":1416.870656222944,"trial":24,"RT":982,"MT":519,"sideResp":1,"stimulus":[],"xmouse":[774,774,774,774,774,774,774,774,774,774,774,774,773,771,768,768,768,768,768,768,768,768,768,768,768,768,768,768,768,768,768,768,768,768,768,768,768,768,768,768,768,768,768,768,768,768,769,782,792,796,796,796,796,796,796,796,796,796,796,796,796,796,796,796,796,796,796,796,796,790,737,672,611,555,501,494],"ymouse":[534,533,533,533,533,533,533,533,533,533,533,533,530,526,515,515,515,515,515,515,515,515,515,515,515,515,515,515,515,515,515,515,515,515,515,515,515,515,515,515,515,515,515,515,515,514,511,489,474,459,458,458,458,458,458,458,458,458,458,458,458,458,458,458,458,458,458,458,458,433,359,286,221,166,107,89],"timestamp_mouse":[11,34,42,63,82,101,122,142,163,182,202,221,242,262,282,302,321,342,363,382,401,423,442,461,481,501,521,542,561,581,603,621,641,661,682,701,722,742,761,781,801,822,841,862,881,902,921,943,963,982,1002,1021,1041,1061,1083,1102,1121,1142,1162,1182,1203,1223,1242,1262,1282,1302,1322,1343,1361,1381,1401,1422,1442,1462,1481,1501],"xSR":741.5,"ySR":469.95,"xT1":424.9,"yT1":0,"xT2":1058.1,"yT2":0,"toosoon":0,"cond_shown":"Incongruent","ratio_trial":300,"L_num":8,"L_den":10,"R_num":14,"R_den":28,"correct_side":1,"subjID":"SantiagoAndresVargasCamargo35","gender":"0","school":"6","age":"10"},{"start_time":1551892185382,"click_time":1551892186710,"finger_time":1551892186291,"fix_duration":869.0003640734293,"trial":25,"RT":909,"MT":419,"sideResp":1,"stimulus":[],"xmouse":[820,820,820,820,820,820,820,820,820,820,820,820,820,820,820,820,820,820,820,820,820,820,820,820,820,820,820,820,820,820,820,820,820,820,820,820,820,820,820,820,820,820,820,820,819,806,780,738,688,648,631,619,614,612,606,601,589,586,584,584,578,569,563,556,551,531,521],"ymouse":[476,476,476,476,476,476,476,476,476,476,476,476,476,476,476,476,476,476,476,476,476,476,476,476,476,476,476,476,476,476,476,476,476,476,476,476,476,476,476,476,476,476,476,476,476,461,418,353,292,244,222,204,189,180,165,147,116,104,99,96,89,83,80,77,75,67,62],"timestamp_mouse":[8,28,48,73,88,108,128,149,168,188,208,228,248,269,288,309,328,349,370,388,409,428,448,468,489,509,528,550,569,589,610,628,648,668,689,708,730,748,768,788,809,829,849,870,888,909,928,949,968,990,1010,1029,1048,1070,1088,1109,1128,1149,1168,1189,1210,1228,1249,1269,1289,1309,1328],"xSR":741.5,"ySR":469.95,"xT1":424.9,"yT1":0,"xT2":1058.1,"yT2":0,"toosoon":0,"cond_shown":"Congruent","ratio_trial":300,"L_num":18,"L_den":20,"R_num":9,"R_den":15,"correct_side":1,"subjID":"SantiagoAndresVargasCamargo35","gender":"0","school":"6","age":"10"},{"start_time":1551892189846,"click_time":1551892191250,"finger_time":1551892190770,"fix_duration":1271.8129879104413,"trial":26,"RT":924,"MT":480,"sideResp":2,"stimulus":[],"xmouse":[813,813,813,813,813,813,813,813,813,813,813,813,813,813,813,813,813,813,813,813,813,813,813,813,813,813,813,813,813,813,813,813,813,813,813,813,813,813,813,813,813,813,813,814,820,836,855,895,906,917,954,989,1054,1141,1160,1176,1184,1189,1190,1191,1191,1191,1191,1191,1191,1188,1186,1167,1163,1161,1158],"ymouse":[525,525,525,525,525,525,525,525,525,525,525,525,525,525,525,525,525,525,525,525,525,525,525,525,525,525,525,525,525,525,525,525,525,525,525,525,525,525,525,525,525,525,525,523,515,495,458,360,328,299,251,218,179,130,117,102,92,82,79,78,76,74,73,73,71,70,69,63,62,62,62],"timestamp_mouse":[10,34,44,65,85,105,125,144,165,185,205,224,244,264,285,304,325,345,366,384,405,426,444,465,484,505,526,544,565,584,611,625,644,664,685,704,725,744,765,786,805,825,846,865,885,905,924,945,964,986,1006,1026,1045,1064,1084,1104,1124,1144,1164,1185,1205,1226,1246,1264,1284,1304,1325,1345,1364,1384,1404],"xSR":741.5,"ySR":469.95,"xT1":424.9,"yT1":0,"xT2":1058.1,"yT2":0,"toosoon":0,"cond_shown":"Incongruent","ratio_trial":200,"L_num":4,"L_den":30,"R_num":1,"R_den":3,"correct_side":2,"subjID":"SantiagoAndresVargasCamargo35","gender":"0","school":"6","age":"10"},{"start_time":1551892192642,"click_time":1551892194690,"finger_time":1551892193971,"fix_duration":611.0215445698211,"trial":27,"RT":1329,"MT":719,"sideResp":2,"stimulus":[],"xmouse":[794,794,794,794,794,794,794,794,794,794,794,794,794,794,794,794,794,794,794,794,794,794,794,794,794,794,794,794,794,794,794,794,794,794,794,794,794,794,794,794,794,794,794,794,794,794,794,794,794,794,794,794,794,794,794,794,794,794,794,794,794,794,794,794,794,811,859,1035,1135,1199,1241,1253,1259,1267,1276,1288,1300,1312,1319,1319,1313,1306,1281,1268,1256,1247,1238,1227,1214,1208,1177,1153,1112,1110,1110,1110,1110,1110,1110,1110,1110,1110,1111],"ymouse":[504,504,504,504,504,504,504,504,504,504,504,504,504,504,504,504,504,504,504,504,504,504,504,504,504,504,504,504,504,504,504,504,504,504,504,504,504,504,504,504,504,504,504,504,504,504,504,504,504,504,504,504,504,504,504,504,504,504,504,504,504,504,504,504,503,479,438,303,233,182,147,135,131,123,116,105,89,73,49,36,27,19,4,2,1,5,11,27,50,59,87,102,116,116,116,116,116,116,116,116,116,116,99],"timestamp_mouse":[8,32,48,69,88,109,130,149,169,188,209,228,249,268,289,308,328,349,368,389,410,429,449,468,488,509,528,548,569,588,608,628,648,669,688,709,729,748,769,788,808,828,848,869,888,908,929,949,969,989,1008,1028,1048,1069,1089,1108,1129,1149,1168,1188,1208,1228,1248,1268,1289,1309,1329,1349,1369,1389,1409,1430,1449,1470,1489,1510,1530,1549,1570,1590,1608,1628,1648,1668,1689,1709,1729,1750,1768,1789,1809,1830,1849,1868,1889,1909,1928,1949,1970,1989,2008,2028,2048],"xSR":741.5,"ySR":469.95,"xT1":424.9,"yT1":0,"xT2":1058.1,"yT2":0,"toosoon":0,"cond_shown":"Incongruent","ratio_trial":100,"L_num":10,"L_den":25,"R_num":8,"R_den":16,"correct_side":2,"subjID":"SantiagoAndresVargasCamargo35","gender":"0","school":"6","age":"10"},{"start_time":1551892196993,"click_time":1551892198451,"finger_time":1551892198111,"fix_duration":1239.2417878474967,"trial":28,"RT":1118,"MT":340,"sideResp":2,"stimulus":[],"xmouse":[794,794,794,794,794,794,794,794,794,794,794,794,794,794,794,794,794,794,794,794,794,794,794,794,794,794,794,794,794,793,793,793,793,793,793,793,793,793,793,793,793,793,793,793,793,793,793,793,793,793,793,793,793,793,799,816,833,843,850,854,860,877,916,939,979,995,1009,1020,1026,1042,1061,1067,1087],"ymouse":[486,486,486,486,486,486,486,486,486,486,486,486,486,486,486,486,486,486,486,486,486,486,486,486,486,486,486,486,486,486,486,486,486,486,486,486,486,486,486,486,486,486,486,486,486,486,486,486,486,486,486,486,486,486,480,465,442,429,416,393,373,345,289,270,242,228,212,196,183,152,127,120,99],"timestamp_mouse":[34,39,58,79,98,117,138,158,177,197,217,238,258,278,299,317,339,358,379,397,419,437,458,478,498,518,537,558,578,598,618,638,659,677,697,717,738,759,777,798,817,838,857,878,898,917,938,958,977,999,1018,1038,1058,1078,1099,1118,1137,1158,1178,1198,1217,1237,1258,1277,1297,1317,1338,1359,1377,1398,1417,1439,1458],"xSR":741.5,"ySR":469.95,"xT1":424.9,"yT1":0,"xT2":1058.1,"yT2":0,"toosoon":0,"cond_shown":"Incongruent","ratio_trial":200,"L_num":7,"L_den":15,"R_num":4,"R_den":6,"correct_side":2,"subjID":"SantiagoAndresVargasCamargo35","gender":"0","school":"6","age":"10"},{"start_time":1551892199641,"click_time":1551892201031,"finger_time":1551892200630,"fix_duration":250,"trial":29,"RT":989,"MT":401,"sideResp":2,"stimulus":[],"xmouse":[813,813,813,813,813,813,813,813,813,813,813,813,813,813,813,813,813,813,813,813,813,813,813,813,813,813,813,813,813,813,813,813,813,813,813,813,813,813,813,813,813,813,813,813,813,813,813,804,772,751,747,747,747,747,747,747,747,748,796,855,891,909,963,976,985,994,1000,1012,1027,1071],"ymouse":[515,515,515,515,515,515,515,515,515,515,515,515,515,515,515,515,515,515,515,515,515,515,515,515,515,515,515,515,515,515,515,515,515,515,515,515,515,515,515,515,515,515,515,515,515,515,515,507,472,434,415,414,414,414,414,414,414,412,380,343,314,293,233,216,202,190,182,162,143,97],"timestamp_mouse":[11,32,50,69,90,110,129,151,169,191,209,230,249,269,289,309,331,351,369,389,409,430,451,469,490,509,530,550,569,589,610,630,651,669,690,709,730,750,769,789,810,829,849,870,889,910,930,950,971,989,1009,1030,1050,1069,1090,1109,1130,1150,1169,1189,1210,1230,1249,1269,1290,1309,1329,1349,1370,1390],"xSR":741.5,"ySR":469.95,"xT1":424.9,"yT1":0,"xT2":1058.1,"yT2":0,"toosoon":0,"cond_shown":"Congruent","ratio_trial":200,"L_num":6,"L_den":20,"R_num":11,"R_den":22,"correct_side":2,"subjID":"SantiagoAndresVargasCamargo35","gender":"0","school":"6","age":"10"},{"start_time":1551892204781,"click_time":1551892209890,"finger_time":1551892208991,"fix_duration":1450.7167062628398,"trial":30,"RT":4210,"MT":899,"sideResp":1,"stimulus":[],"xmouse":[768,768,768,768,768,768,768,768,768,768,768,768,768,768,768,768,768,768,768,768,768,768,768,768,768,768,768,768,768,768,768,768,768,768,768,768,768,768,768,768,768,768,768,768,768,768,768,768,768,768,768,768,768,768,768,768,768,768,768,768,768,768,768,768,768,768,768,768,768,768,768,768,768,768,768,768,768,768,768,768,768,768,768,768,768,768,768,768,768,768,768,768,768,768,768,768,768,768,768,768,768,768,768,768,768,768,768,768,768,768,768,768,768,768,768,768,768,768,768,768,768,768,768,768,768,768,768,768,768,768,768,768,768,768,768,768,768,768,768,768,768,768,768,768,768,768,768,768,768,768,768,768,768,768,768,768,768,768,768,768,768,768,768,768,768,768,768,768,768,768,768,768,768,768,768,768,768,768,768,768,768,768,768,768,768,768,768,768,768,768,768,768,768,768,768,768,768,768,768,768,768,768,768,768,768,768,768,766,762,755,753,753,753,753,753,753,753,753,753,753,753,753,753,752,752,752,752,753,764,772,775,775,775,772,770,770,768,760,737,702,649,542,542,542,542,542,542,542,542,542,542,542,542,542,302,427],"ymouse":[507,507,507,507,507,507,507,507,507,507,507,507,507,507,507,507,507,507,507,507,507,507,507,507,507,507,507,507,507,507,507,507,507,507,507,507,507,507,507,507,507,507,507,507,507,507,507,507,507,507,507,507,507,507,507,507,507,507,507,507,507,507,507,507,507,507,507,507,507,507,507,507,507,507,507,507,507,507,507,507,507,507,507,507,507,507,507,507,507,507,507,507,507,507,507,507,507,507,507,507,507,507,507,507,507,507,507,507,507,507,507,507,507,507,507,507,507,507,507,507,507,507,507,507,507,507,507,507,507,507,507,507,507,507,507,507,507,507,507,507,507,507,507,507,507,507,507,507,507,507,507,507,507,507,507,507,507,507,507,507,507,507,507,507,507,507,507,507,507,507,507,507,507,507,507,507,507,507,507,507,507,507,507,507,507,507,507,507,507,507,507,507,507,507,507,507,507,507,507,507,507,507,507,507,507,507,507,498,488,472,469,469,469,469,469,469,469,469,469,469,469,469,469,469,469,469,469,462,441,418,397,367,357,344,334,312,296,269,222,166,102,6,6,6,6,6,6,6,6,6,6,6,6,6,6,97],"timestamp_mouse":[9,44,49,69,89,108,129,150,169,189,209,229,248,269,289,309,328,348,369,389,409,429,449,469,489,508,528,549,569,589,609,629,649,669,688,710,729,748,769,788,808,828,849,868,890,910,929,948,968,989,1009,1030,1048,1069,1090,1108,1129,1149,1170,1188,1208,1228,1248,1269,1289,1308,1328,1349,1369,1389,1409,1428,1449,1468,1490,1510,1528,1549,1570,1588,1609,1629,1649,1670,1689,1708,1730,1749,1770,1792,1809,1828,1849,1869,1888,1909,1928,1950,1968,1989,2008,2030,2049,2068,2090,2108,2128,2149,2169,2190,2208,2228,2250,2270,2288,2308,2330,2349,2369,2389,2410,2429,2450,2469,2490,2510,2529,2550,2568,2589,2609,2628,2649,2668,2688,2709,2729,2750,2769,2789,2808,2829,2848,2869,2889,2909,2929,2948,2968,2990,3008,3029,3049,3068,3088,3109,3128,3150,3169,3189,3210,3228,3249,3268,3290,3310,3328,3349,3369,3389,3408,3428,3450,3469,3490,3508,3530,3550,3570,3589,3609,3630,3649,3669,3688,3709,3729,3749,3769,3789,3809,3830,3849,3868,3890,3908,3930,3949,3969,3990,4010,4029,4050,4069,4088,4110,4129,4148,4169,4189,4210,4229,4249,4269,4289,4309,4329,4349,4368,4388,4409,4429,4449,4469,4490,4509,4528,4549,4569,4589,4609,4628,4650,4669,4690,4709,4728,4750,4768,4790,4809,4828,4849,4870,4889,4910,4930,4949,4968,4990,5010,5028,5049,5069,5088,5109],"xSR":741.5,"ySR":469.95,"xT1":424.9,"yT1":0,"xT2":1058.1,"yT2":0,"toosoon":0,"cond_shown":"Congruent","ratio_trial":300,"L_num":1,"L_den":30,"R_num":8,"R_den":24,"correct_side":2,"subjID":"SantiagoAndresVargasCamargo35","gender":"0","school":"6","age":"10"},{"start_time":1551892211695,"click_time":1551892213051,"finger_time":1551892212870,"fix_duration":704.2157082507822,"trial":31,"RT":1175,"MT":181,"sideResp":2,"stimulus":[],"xmouse":[778,778,778,778,778,778,778,778,778,778,778,778,778,778,778,778,778,778,778,778,778,778,778,778,777,777,777,777,777,777,777,777,777,777,777,777,777,777,777,777,777,777,777,777,777,777,777,777,777,777,777,777,777,777,777,781,788,793,805,835,853,875,911,949,1019,1064,1097,1124],"ymouse":[503,503,503,503,503,503,503,503,503,503,503,503,503,503,503,503,503,503,503,503,503,503,503,503,503,503,503,503,503,503,503,503,503,503,503,503,503,503,503,503,503,503,503,503,503,503,503,503,503,503,503,503,503,503,503,493,480,474,463,437,419,390,343,293,201,156,109,66],"timestamp_mouse":[15,35,55,76,95,115,135,154,175,194,215,235,254,276,295,315,334,356,374,396,415,435,455,475,496,514,534,555,574,596,614,636,654,675,695,714,734,755,775,796,814,835,854,875,896,915,936,955,974,995,1015,1036,1054,1075,1095,1114,1135,1156,1175,1195,1215,1235,1255,1275,1295,1314,1334,1356],"xSR":741.5,"ySR":469.95,"xT1":424.9,"yT1":0,"xT2":1058.1,"yT2":0,"toosoon":0,"cond_shown":"Incongruent","ratio_trial":100,"L_num":6,"L_den":10,"R_num":7,"R_den":14,"correct_side":1,"subjID":"SantiagoAndresVargasCamargo35","gender":"0","school":"6","age":"10"},{"start_time":1551892216700,"click_time":1551892218170,"finger_time":1551892217990,"fix_duration":1288.9774646400795,"trial":32,"RT":1290,"MT":180,"sideResp":2,"stimulus":[],"xmouse":[803,803,803,803,803,803,803,803,803,803,803,803,803,803,803,803,803,803,803,803,803,803,803,803,803,803,803,803,803,803,803,803,803,803,803,803,803,803,803,803,803,803,803,803,803,803,803,803,803,803,803,803,803,803,803,803,803,803,803,803,803,803,803,803,860,902,936,989,1011,1037,1044,1052,1061,1070],"ymouse":[502,502,502,502,502,502,502,502,502,502,502,502,502,502,502,502,502,502,502,502,502,502,502,502,502,502,502,502,502,502,502,502,502,502,502,502,502,502,502,502,502,502,502,502,502,502,502,502,502,502,502,502,502,502,502,502,502,502,502,502,502,502,502,496,403,338,282,208,173,137,128,118,108,97],"timestamp_mouse":[14,41,50,69,89,110,130,150,169,191,211,229,249,271,291,310,329,350,371,389,411,429,451,470,489,510,531,550,569,590,611,630,650,670,690,710,731,751,769,790,811,829,851,869,890,909,931,949,971,990,1010,1030,1050,1071,1090,1110,1130,1150,1171,1191,1211,1230,1251,1270,1290,1310,1330,1350,1369,1390,1410,1430,1450,1470],"xSR":741.5,"ySR":469.95,"xT1":424.9,"yT1":0,"xT2":1058.1,"yT2":0,"toosoon":0,"cond_shown":"Incongruent","ratio_trial":100,"L_num":13,"L_den":26,"R_num":12,"R_den":20,"correct_side":2,"subjID":"SantiagoAndresVargasCamargo35","gender":"0","school":"6","age":"10"},{"start_time":1551892220564,"click_time":1551892221990,"finger_time":1551892221530,"fix_duration":250,"trial":33,"RT":966,"MT":460,"sideResp":1,"stimulus":[],"xmouse":[814,814,814,814,814,814,814,814,814,814,814,814,814,814,814,814,814,814,814,814,814,814,814,814,814,814,814,814,814,814,814,814,814,814,814,814,814,814,814,814,814,814,814,814,814,812,783,770,764,760,759,759,748,728,683,634,531,507,491,486,481,477,474,468,457,452,452,452,452,452,452,457],"ymouse":[505,505,505,505,505,505,505,505,505,505,505,505,505,505,505,505,505,505,505,505,505,505,505,505,505,505,505,505,505,505,505,505,505,505,505,505,505,505,505,505,505,505,505,505,505,506,490,478,465,442,422,394,367,335,283,241,175,156,148,145,141,135,131,122,108,101,101,101,101,101,101,88],"timestamp_mouse":[10,42,46,66,87,105,126,145,167,186,207,225,247,265,287,305,326,346,365,387,406,426,446,465,487,505,527,546,566,587,607,626,647,666,687,707,727,745,767,786,805,827,846,866,886,906,926,947,966,986,1006,1026,1046,1065,1085,1106,1126,1145,1166,1186,1207,1226,1245,1265,1285,1306,1325,1347,1367,1387,1407,1426],"xSR":741.5,"ySR":469.95,"xT1":424.9,"yT1":0,"xT2":1058.1,"yT2":0,"toosoon":0,"cond_shown":"Incongruent","ratio_trial":300,"L_num":7,"L_den":10,"R_num":8,"R_den":20,"correct_side":1,"subjID":"SantiagoAndresVargasCamargo35","gender":"0","school":"6","age":"10"},{"start_time":1551892224622,"click_time":1551892226310,"finger_time":1551892226051,"fix_duration":250,"trial":34,"RT":1429,"MT":259,"sideResp":2,"stimulus":[],"xmouse":[762,762,762,762,762,762,762,762,762,762,762,762,762,762,762,762,762,762,762,762,762,762,762,762,762,762,762,762,762,762,762,762,762,762,762,762,762,762,762,762,762,762,762,762,762,762,762,762,762,762,762,762,762,762,762,762,762,762,762,762,762,762,762,762,762,762,762,762,762,775,780,803,822,842,872,881,893,904,914,977,1009,1026,1046,1078,1092],"ymouse":[564,564,564,564,564,564,564,564,564,564,564,564,564,564,564,564,564,564,564,564,564,564,564,564,564,564,564,564,564,564,564,564,564,564,564,564,564,564,564,564,564,564,564,564,564,564,564,564,564,564,564,564,564,564,564,564,564,564,564,564,564,564,564,564,564,564,564,564,563,518,510,456,424,396,347,328,307,290,272,199,156,141,124,102,93],"timestamp_mouse":[10,40,47,68,89,109,128,149,167,188,207,229,247,269,289,309,328,347,367,389,408,427,449,467,487,509,527,547,567,588,608,627,649,667,689,707,728,748,768,788,807,829,847,869,889,908,929,949,969,987,1007,1027,1048,1068,1087,1108,1129,1149,1167,1189,1209,1227,1248,1267,1288,1308,1327,1349,1369,1389,1409,1429,1449,1468,1488,1508,1529,1548,1568,1587,1608,1629,1648,1668,1688],"xSR":741.5,"ySR":469.95,"xT1":424.9,"yT1":0,"xT2":1058.1,"yT2":0,"toosoon":0,"cond_shown":"Congruent","ratio_trial":300,"L_num":5,"L_den":25,"R_num":7,"R_den":14,"correct_side":2,"subjID":"SantiagoAndresVargasCamargo35","gender":"0","school":"6","age":"10"},{"start_time":1551892228703,"click_time":1551892229890,"finger_time":1551892229550,"fix_duration":1333.5072800490136,"trial":35,"RT":847,"MT":340,"sideResp":1,"stimulus":[],"xmouse":[785,785,785,785,785,785,785,785,785,785,785,785,785,785,785,785,785,785,785,785,785,785,785,785,785,785,785,785,785,785,785,785,785,785,785,785,785,785,785,785,782,764,731,698,651,641,635,631,631,631,631,628,622,614,600,597,595,586,571,506],"ymouse":[537,537,537,537,537,537,537,537,537,537,537,537,537,537,537,537,537,537,537,537,537,537,537,537,537,537,537,537,537,537,537,537,537,537,537,537,537,537,537,537,534,506,454,391,273,254,246,237,234,226,212,190,170,149,118,112,107,98,87,62],"timestamp_mouse":[9,35,47,68,86,107,126,147,167,187,207,227,247,267,288,307,326,348,367,386,407,427,447,466,487,508,526,547,568,587,608,627,647,667,687,708,727,747,766,788,807,828,847,868,887,906,926,947,967,987,1007,1027,1047,1066,1087,1106,1127,1146,1167,1187],"xSR":741.5,"ySR":469.95,"xT1":424.9,"yT1":0,"xT2":1058.1,"yT2":0,"toosoon":0,"cond_shown":"Incongruent","ratio_trial":300,"L_num":2,"L_den":4,"R_num":6,"R_den":30,"correct_side":1,"subjID":"SantiagoAndresVargasCamargo35","gender":"0","school":"6","age":"10"},{"start_time":1551892230882,"click_time":1551892232470,"finger_time":1551892232090,"fix_duration":250,"trial":36,"RT":1208,"MT":380,"sideResp":2,"stimulus":[],"xmouse":[772,772,772,772,772,772,772,772,772,772,772,772,772,772,772,772,772,772,772,772,772,772,772,772,772,772,772,772,772,772,772,772,772,772,772,772,772,772,772,772,772,772,772,772,772,772,772,772,772,772,772,772,772,772,772,772,772,772,777,809,854,948,1004,1053,1112,1236,1236,1236,1236,1236,1236,1236,1236,1236,1236,1236,1236,1236,1169,1116],"ymouse":[536,536,536,536,536,536,536,536,536,536,536,536,536,536,536,536,536,536,536,536,536,536,536,536,536,536,536,536,536,536,536,536,536,536,536,536,536,536,536,536,536,536,536,536,536,536,536,536,536,536,536,536,536,536,536,536,536,536,529,490,437,313,243,180,119,7,7,7,7,7,7,7,7,7,7,7,7,7,47,88],"timestamp_mouse":[8,27,47,68,89,107,128,149,168,188,208,228,247,268,288,307,328,348,369,387,408,428,447,468,488,509,528,549,568,588,608,627,647,669,688,708,728,748,768,787,809,827,848,867,889,909,929,948,968,987,1009,1029,1047,1069,1087,1108,1127,1147,1168,1188,1208,1228,1247,1267,1288,1308,1327,1348,1368,1388,1408,1428,1448,1468,1488,1509,1529,1548,1567,1588],"xSR":741.5,"ySR":469.95,"xT1":424.9,"yT1":0,"xT2":1058.1,"yT2":0,"toosoon":0,"cond_shown":"Incongruent","ratio_trial":100,"L_num":13,"L_den":26,"R_num":12,"R_den":20,"correct_side":2,"subjID":"SantiagoAndresVargasCamargo35","gender":"0","school":"6","age":"10"},{"start_time":1551892237672,"click_time":1551892239110,"finger_time":1551892239011,"fix_duration":1240.837817896985,"trial":37,"RT":1339,"MT":99,"sideResp":2,"stimulus":[],"xmouse":[796,796,796,796,796,796,796,796,796,796,796,796,796,796,796,796,796,796,796,796,796,796,796,796,796,796,796,796,796,796,796,796,796,796,796,796,796,796,796,796,796,796,796,796,796,796,796,796,796,796,796,796,796,796,796,796,796,796,796,796,796,796,796,796,798,807,865,890,930,952,976,1069],"ymouse":[512,512,512,512,512,512,512,512,512,512,512,512,512,512,512,512,512,512,512,512,512,512,512,512,512,512,512,512,512,512,512,512,512,512,512,512,512,512,512,512,512,512,512,512,512,512,512,512,512,512,512,512,512,512,512,512,512,512,512,512,512,512,512,512,500,481,385,344,280,236,191,65],"timestamp_mouse":[18,37,58,79,98,118,138,159,177,199,219,239,257,279,298,318,339,358,378,399,417,438,457,479,499,517,537,559,578,597,618,638,657,678,698,717,739,757,778,798,817,838,857,879,898,919,939,958,978,999,1018,1038,1058,1078,1098,1118,1138,1159,1179,1197,1218,1238,1258,1279,1298,1317,1339,1359,1378,1399,1418,1438],"xSR":741.5,"ySR":469.95,"xT1":424.9,"yT1":0,"xT2":1058.1,"yT2":0,"toosoon":0,"cond_shown":"Incongruent","ratio_trial":200,"L_num":14,"L_den":30,"R_num":6,"R_den":9,"correct_side":2,"subjID":"SantiagoAndresVargasCamargo35","gender":"0","school":"6","age":"10"},{"start_time":1551892241348,"click_time":1551892243050,"finger_time":1551892242730,"fix_duration":1256.9203064097987,"trial":38,"RT":1382,"MT":320,"sideResp":1,"stimulus":[],"xmouse":[775,775,775,775,775,775,775,775,775,775,775,775,775,775,775,775,775,775,775,775,775,775,775,775,775,775,775,775,775,775,775,775,775,775,775,775,775,775,775,775,775,775,775,775,775,775,775,775,775,775,775,775,775,775,775,775,775,775,775,775,775,775,775,775,775,775,775,774,767,758,743,717,670,661,655,643,635,623,613,609,606,603,592,576,539,469],"ymouse":[508,508,508,508,508,508,508,508,508,508,508,508,508,508,508,508,508,508,508,508,508,508,508,508,508,508,508,508,508,508,508,508,508,508,508,508,508,508,508,507,507,507,507,507,507,507,507,507,507,507,507,507,507,507,507,507,507,507,507,507,507,507,507,507,507,507,506,500,478,455,425,389,328,318,312,298,284,268,246,237,226,216,190,165,123,57],"timestamp_mouse":[9,21,42,61,83,103,122,143,161,183,203,221,242,263,281,302,323,341,363,381,402,423,441,463,481,502,523,543,562,582,601,621,642,661,683,703,722,743,762,783,802,822,842,862,882,902,922,941,962,982,1002,1022,1042,1062,1082,1101,1121,1142,1162,1181,1203,1222,1242,1262,1282,1302,1322,1343,1363,1382,1402,1422,1442,1462,1482,1503,1522,1542,1563,1582,1602,1623,1643,1661,1682,1701],"xSR":741.5,"ySR":469.95,"xT1":424.9,"yT1":0,"xT2":1058.1,"yT2":0,"toosoon":0,"cond_shown":"Incongruent","ratio_trial":200,"L_num":3,"L_den":4,"R_num":11,"R_den":20,"correct_side":1,"subjID":"SantiagoAndresVargasCamargo35","gender":"0","school":"6","age":"10"},{"start_time":1551892245255,"click_time":1551892246870,"finger_time":1551892246611,"fix_duration":1303.5585623582322,"trial":39,"RT":1356,"MT":259,"sideResp":2,"stimulus":[],"xmouse":[764,764,764,764,764,764,764,764,764,764,764,764,764,764,764,764,764,764,764,764,764,764,764,764,764,764,764,764,764,764,764,764,764,764,764,764,764,764,764,764,764,764,764,764,764,764,764,764,764,764,764,764,764,764,764,764,764,764,764,764,764,764,764,764,764,764,764,795,818,843,861,918,944,984,1022,1063,1101,1116,1122,1127,1129],"ymouse":[490,490,490,490,490,490,490,490,490,490,490,490,490,490,490,490,490,490,490,490,490,490,490,490,490,490,490,490,490,490,490,490,490,490,490,490,490,490,490,490,490,490,490,490,490,490,490,490,490,490,490,490,490,490,490,490,490,490,490,490,490,490,490,490,490,490,489,452,429,402,383,336,314,280,243,207,156,134,118,102,94],"timestamp_mouse":[15,35,55,75,94,116,135,156,175,195,216,236,254,274,295,316,336,355,376,395,414,434,455,476,495,516,535,556,576,596,616,634,656,676,695,716,734,755,776,794,816,836,856,876,895,915,935,955,976,994,1014,1036,1055,1075,1094,1115,1134,1154,1175,1195,1216,1235,1255,1274,1295,1314,1334,1356,1376,1394,1415,1435,1454,1475,1495,1514,1534,1555,1576,1595,1615],"xSR":741.5,"ySR":469.95,"xT1":424.9,"yT1":0,"xT2":1058.1,"yT2":0,"toosoon":0,"cond_shown":"Congruent","ratio_trial":100,"L_num":6,"L_den":20,"R_num":5,"R_den":25,"correct_side":1,"subjID":"SantiagoAndresVargasCamargo35","gender":"0","school":"6","age":"10"},{"start_time":1551892248275,"click_time":1551892249571,"finger_time":1551892249171,"fix_duration":284.2655576348124,"trial":40,"RT":896,"MT":400,"sideResp":1,"stimulus":[],"xmouse":[782,782,782,782,782,782,782,782,782,782,782,782,782,782,782,782,782,782,782,782,782,782,782,782,782,782,782,782,782,782,782,782,782,782,782,782,782,782,782,782,782,782,779,770,756,718,695,690,678,672,667,654,645,636,628,614,609,605,599,593,575,559,543,527,509],"ymouse":[536,536,536,536,536,536,536,536,536,536,536,536,536,536,536,536,536,536,536,536,536,536,536,536,536,536,536,536,536,536,536,536,536,536,537,537,537,537,537,537,537,537,531,501,462,371,331,322,302,291,281,252,236,218,201,172,163,157,143,131,101,80,58,39,21],"timestamp_mouse":[14,35,54,75,95,115,134,156,174,196,215,236,254,276,295,314,336,354,376,395,415,435,454,474,495,516,535,555,575,595,616,635,655,676,696,714,735,754,774,795,814,835,855,874,896,915,934,955,976,995,1015,1034,1055,1076,1096,1115,1135,1155,1175,1195,1215,1236,1254,1276,1296],"xSR":741.5,"ySR":469.95,"xT1":424.9,"yT1":0,"xT2":1058.1,"yT2":0,"toosoon":0,"cond_shown":"Incongruent","ratio_trial":300,"L_num":1,"L_den":2,"R_num":2,"R_den":10,"correct_side":1,"subjID":"SantiagoAndresVargasCamargo35","gender":"0","school":"6","age":"10"},{"start_time":1551892250802,"click_time":1551892252609,"finger_time":1551892252050,"fix_duration":250,"trial":41,"RT":1248,"MT":559,"sideResp":1,"stimulus":[],"xmouse":[772,772,772,772,772,772,772,772,772,772,772,772,772,772,772,772,772,772,772,772,772,772,772,772,772,772,772,772,772,772,772,772,772,772,772,772,772,772,772,772,772,772,772,772,772,772,772,772,772,772,772,772,772,772,772,772,772,769,768,766,766,762,754,745,701,659,615,578,552,539,539,539,540,542,542,539,535,531,530,530,529,529,529,529,529,529,529,529,529,529,524],"ymouse":[489,489,489,489,489,489,489,489,489,489,489,489,489,489,489,489,489,489,489,489,489,489,489,489,489,489,489,489,489,489,489,489,489,489,489,489,489,489,489,489,489,489,489,489,489,489,489,489,489,489,489,489,489,489,489,489,489,489,489,488,488,484,463,446,377,317,256,213,184,167,164,160,143,129,112,70,57,51,49,48,47,47,47,47,47,47,47,47,47,47,44],"timestamp_mouse":[8,38,49,67,87,108,127,149,167,187,208,227,248,267,288,308,329,347,368,387,407,428,448,468,488,509,528,547,568,588,608,628,647,668,688,708,727,748,768,788,807,828,848,869,888,907,929,948,967,989,1008,1028,1047,1069,1089,1107,1127,1148,1169,1189,1208,1227,1248,1267,1287,1308,1328,1349,1368,1389,1407,1428,1449,1469,1488,1507,1528,1548,1568,1588,1607,1628,1648,1667,1689,1707,1728,1748,1769,1788,1807],"xSR":741.5,"ySR":469.95,"xT1":424.9,"yT1":0,"xT2":1058.1,"yT2":0,"toosoon":0,"cond_shown":"Congruent","ratio_trial":300,"L_num":24,"L_den":30,"R_num":8,"R_den":16,"correct_side":1,"subjID":"SantiagoAndresVargasCamargo35","gender":"0","school":"6","age":"10"},{"start_time":1551892253761,"click_time":1551892255310,"finger_time":1551892254250,"fix_duration":250,"trial":42,"RT":489,"MT":1060,"sideResp":1,"stimulus":[],"xmouse":[776,776,776,776,776,776,776,776,776,776,776,776,776,776,776,776,776,776,776,776,776,776,776,776,766,747,703,693,691,691,691,690,690,690,690,690,690,690,690,690,690,690,690,696,701,704,711,713,713,713,713,713,713,713,713,713,713,713,713,713,713,713,707,675,662,658,658,658,652,637,618,590,547,534,531,529,527,522],"ymouse":[478,478,478,478,478,478,478,478,478,478,478,478,478,478,478,478,478,478,478,478,478,478,478,478,466,442,389,378,376,376,376,376,376,376,376,376,376,376,376,376,376,376,378,389,396,399,409,411,412,412,412,412,412,412,412,412,412,412,412,412,412,412,390,314,277,261,245,222,194,156,115,78,37,29,27,26,24,22],"timestamp_mouse":[9,36,50,69,90,108,130,149,169,188,209,229,250,269,289,309,328,349,369,389,410,430,449,469,489,510,529,548,569,590,609,630,650,668,690,709,730,749,769,789,810,828,848,869,888,909,929,948,968,990,1009,1030,1049,1069,1088,1108,1130,1149,1170,1190,1208,1229,1248,1268,1288,1309,1329,1349,1369,1388,1408,1428,1448,1468,1489,1509,1529,1549],"xSR":741.5,"ySR":469.95,"xT1":424.9,"yT1":0,"xT2":1058.1,"yT2":0,"toosoon":0,"cond_shown":"Congruent","ratio_trial":100,"L_num":10,"L_den":25,"R_num":3,"R_den":10,"correct_side":1,"subjID":"SantiagoAndresVargasCamargo35","gender":"0","school":"6","age":"10"},{"start_time":1551892256863,"click_time":1551892257630,"finger_time":1551892257350,"fix_duration":250,"trial":43,"RT":487,"MT":280,"sideResp":2,"stimulus":[],"xmouse":[809,809,809,809,809,809,809,809,809,809,809,809,809,809,809,809,809,809,809,809,809,809,809,810,812,814,815,818,821,835,853,893,924,957,994,1025,1040,1088,1129],"ymouse":[488,488,488,488,488,488,488,488,488,488,488,488,488,488,488,488,488,488,488,488,488,488,488,474,469,462,459,453,448,427,408,357,320,275,223,177,154,112,74],"timestamp_mouse":[8,28,50,67,87,106,128,147,167,187,207,228,248,267,287,307,327,346,367,387,408,427,448,466,487,506,526,547,567,587,608,628,646,667,687,706,727,746,767],"xSR":741.5,"ySR":469.95,"xT1":424.9,"yT1":0,"xT2":1058.1,"yT2":0,"toosoon":0,"cond_shown":"Congruent","ratio_trial":200,"L_num":3,"L_den":6,"R_num":14,"R_den":20,"correct_side":2,"subjID":"SantiagoAndresVargasCamargo35","gender":"0","school":"6","age":"10"},{"start_time":1551892259715,"click_time":1551892260770,"finger_time":1551892260410,"fix_duration":1143.6177110280237,"trial":44,"RT":695,"MT":360,"sideResp":1,"stimulus":[],"xmouse":[775,778,778,778,778,778,778,778,778,778,778,778,778,778,778,778,778,778,778,778,778,778,778,778,778,778,778,778,778,778,778,779,779,757,741,731,717,711,696,687,680,669,662,654,641,628,601,584,560,548,535,525,517],"ymouse":[510,509,509,509,509,509,509,509,509,509,509,509,509,509,509,509,509,509,509,509,509,509,509,509,509,509,509,509,509,509,509,508,506,490,483,477,467,457,407,371,343,312,288,271,235,208,163,140,114,104,96,91,88],"timestamp_mouse":[15,35,55,75,94,116,134,156,176,195,215,234,255,276,296,315,335,354,376,394,414,435,455,476,495,515,535,556,575,595,615,636,656,675,695,715,736,756,775,794,815,836,854,875,896,916,936,955,975,995,1015,1036,1055],"xSR":741.5,"ySR":469.95,"xT1":424.9,"yT1":0,"xT2":1058.1,"yT2":0,"toosoon":0,"cond_shown":"Congruent","ratio_trial":200,"L_num":9,"L_den":20,"R_num":4,"R_den":16,"correct_side":1,"subjID":"SantiagoAndresVargasCamargo35","gender":"0","school":"6","age":"10"},{"start_time":1551892262836,"click_time":1551892263930,"finger_time":1551892263491,"fix_duration":883.2593453541263,"trial":45,"RT":655,"MT":439,"sideResp":2,"stimulus":[],"xmouse":[776,776,776,776,776,776,776,776,776,776,776,776,776,776,776,776,776,776,776,776,776,776,776,776,776,776,777,777,777,786,788,791,812,822,833,841,851,865,867,871,879,886,897,915,928,940,948,963,973,997,1018,1032,1051,1055,1059],"ymouse":[502,502,502,502,502,502,502,502,502,502,502,502,502,502,502,502,502,502,502,502,502,502,502,502,502,502,502,502,501,490,484,478,442,416,398,389,375,346,336,324,299,282,264,230,214,198,183,158,145,126,116,112,106,103,99],"timestamp_mouse":[20,36,54,73,93,114,134,154,173,193,213,235,254,274,294,313,335,354,374,395,414,435,454,473,494,513,533,554,575,594,614,634,655,675,693,714,734,754,773,794,814,834,854,874,894,915,933,954,974,993,1014,1035,1054,1074,1094],"xSR":741.5,"ySR":469.95,"xT1":424.9,"yT1":0,"xT2":1058.1,"yT2":0,"toosoon":0,"cond_shown":"Congruent","ratio_trial":100,"L_num":6,"L_den":12,"R_num":15,"R_den":25,"correct_side":2,"subjID":"SantiagoAndresVargasCamargo35","gender":"0","school":"6","age":"10"},{"start_time":1551892265130,"click_time":1551892266930,"finger_time":1551892266670,"fix_duration":277.5225305040259,"trial":46,"RT":1540,"MT":260,"sideResp":2,"stimulus":[],"xmouse":[813,813,813,813,813,813,813,813,813,813,813,813,813,813,813,813,813,813,813,813,813,813,813,813,813,813,813,813,813,813,813,813,813,813,813,813,813,813,813,813,813,813,813,813,813,813,813,813,813,813,813,813,813,813,813,813,813,813,813,813,813,813,813,813,813,813,813,813,813,813,812,812,812,812,812,818,828,863,931,945,957,968,974,988,998,1007,1023,1033,1038,1053,1066],"ymouse":[509,509,509,509,509,509,509,509,509,509,509,509,509,509,509,509,509,509,509,509,509,509,509,509,509,509,509,509,509,509,509,509,509,509,509,509,509,509,509,509,509,509,509,509,509,509,509,509,509,509,509,509,509,509,509,509,509,509,509,509,509,509,509,509,509,509,509,509,509,509,509,507,506,506,505,497,484,447,344,317,293,271,259,228,208,190,160,139,124,98,85],"timestamp_mouse":[1,19,43,61,80,100,119,140,160,179,200,221,239,261,280,300,319,341,360,380,399,420,440,460,480,500,520,541,560,581,600,620,641,661,681,700,719,741,760,780,800,820,841,860,879,899,920,940,960,980,1001,1020,1040,1061,1080,1100,1120,1140,1160,1180,1201,1220,1241,1261,1280,1301,1321,1339,1360,1379,1400,1421,1439,1461,1480,1501,1519,1540,1560,1579,1600,1620,1641,1660,1679,1699,1720,1741,1760,1781,1800],"xSR":741.5,"ySR":469.95,"xT1":424.9,"yT1":0,"xT2":1058.1,"yT2":0,"toosoon":0,"cond_shown":"Incongruent","ratio_trial":300,"L_num":4,"L_den":20,"R_num":2,"R_den":4,"correct_side":2,"subjID":"SantiagoAndresVargasCamargo35","gender":"0","school":"6","age":"10"},{"start_time":1551892268946,"click_time":1551892270170,"finger_time":1551892269851,"fix_duration":1335.8308110112864,"trial":47,"RT":905,"MT":319,"sideResp":1,"stimulus":[],"xmouse":[795,795,795,795,795,795,795,795,795,795,795,795,795,795,795,795,795,795,795,795,795,795,795,795,795,795,795,795,795,795,795,795,795,795,795,795,795,795,795,795,795,794,792,765,748,687,610,510,488,474,461,452,447,445,442,436,428,419,419,421,446,461],"ymouse":[561,561,561,561,561,561,561,561,561,561,561,561,561,561,561,561,561,561,561,561,561,561,561,561,561,561,561,561,561,561,561,561,561,561,561,561,561,561,561,561,561,561,559,515,493,428,366,280,262,246,231,219,212,207,200,188,175,152,148,144,119,94],"timestamp_mouse":[8,23,44,64,85,105,124,144,165,184,204,224,244,263,285,304,325,344,363,385,404,424,444,464,484,503,524,543,564,584,605,624,644,664,684,705,724,743,765,783,803,824,844,864,884,905,924,944,964,984,1003,1025,1044,1065,1084,1103,1123,1144,1164,1184,1204,1224],"xSR":741.5,"ySR":469.95,"xT1":424.9,"yT1":0,"xT2":1058.1,"yT2":0,"toosoon":0,"cond_shown":"Incongruent","ratio_trial":300,"L_num":4,"L_den":5,"R_num":6,"R_den":12,"correct_side":1,"subjID":"SantiagoAndresVargasCamargo35","gender":"0","school":"6","age":"10"},{"start_time":1551892271384,"click_time":1551892272231,"finger_time":1551892271711,"fix_duration":572.6966278909995,"trial":48,"RT":327,"MT":520,"sideResp":1,"stimulus":[],"xmouse":[837,837,837,837,837,837,837,837,837,837,837,837,837,837,837,837,837,837,837,837,837,837,837,836,830,806,794,783,774,764,741,722,707,682,669,644,629,614,594,563,520,499,483],"ymouse":[569,569,569,569,569,569,569,569,569,569,569,569,569,569,569,569,570,570,570,570,570,570,570,570,564,525,506,490,480,471,443,421,402,368,346,307,286,265,233,192,136,108,87],"timestamp_mouse":[8,39,47,65,85,106,126,147,167,186,206,227,247,265,286,305,327,346,366,385,405,426,445,466,486,506,526,546,566,586,606,626,646,667,687,706,725,746,766,785,806,825,847],"xSR":741.5,"ySR":469.95,"xT1":424.9,"yT1":0,"xT2":1058.1,"yT2":0,"toosoon":0,"cond_shown":"Incongruent","ratio_trial":200,"L_num":7,"L_den":10,"R_num":14,"R_den":28,"correct_side":1,"subjID":"SantiagoAndresVargasCamargo35","gender":"0","school":"6","age":"10"},{"start_time":1551892273421,"click_time":1551892274490,"finger_time":1551892274030,"fix_duration":250,"trial":49,"RT":609,"MT":460,"sideResp":2,"stimulus":[],"xmouse":[815,815,815,815,815,815,815,815,815,815,815,815,815,815,815,815,815,815,815,815,815,815,815,815,815,815,815,815,818,822,837,852,858,877,894,916,933,949,980,993,1006,1019,1029,1043,1044,1044,1044,1045,1045,1045,1045,1046,1051,1059],"ymouse":[505,505,505,505,505,505,505,505,505,505,505,505,505,505,505,505,505,505,505,505,505,505,505,505,505,505,505,505,493,476,423,369,335,291,267,238,213,190,146,123,102,74,55,34,33,33,33,32,32,32,32,33,34,37],"timestamp_mouse":[11,34,50,69,89,110,128,149,170,189,210,228,249,268,289,308,330,348,368,390,408,428,449,469,488,509,529,550,569,588,609,629,649,669,689,709,729,750,769,788,809,829,849,870,889,909,928,949,968,989,1009,1030,1050,1069],"xSR":741.5,"ySR":469.95,"xT1":424.9,"yT1":0,"xT2":1058.1,"yT2":0,"toosoon":0,"cond_shown":"Congruent","ratio_trial":100,"L_num":2,"L_den":5,"R_num":11,"R_den":22,"correct_side":2,"subjID":"SantiagoAndresVargasCamargo35","gender":"0","school":"6","age":"10"},{"start_time":1551892278619,"click_time":1551892279650,"finger_time":1551892279350,"fix_duration":286.82254316900924,"trial":50,"RT":731,"MT":300,"sideResp":1,"stimulus":[],"xmouse":[790,790,790,790,790,790,790,790,790,790,790,790,790,790,790,790,790,790,790,790,790,790,790,790,790,790,790,790,790,790,790,790,790,785,772,749,726,698,634,584,568,548,547,545,545,543,542,541,538,536,533,524],"ymouse":[559,559,559,559,559,559,559,559,559,559,559,559,559,559,559,559,559,559,559,559,559,559,559,559,559,559,559,559,559,559,559,559,559,558,540,499,450,390,252,164,142,105,97,88,83,79,74,69,60,56,52,43],"timestamp_mouse":[12,37,51,71,90,111,132,150,170,191,211,230,251,271,290,311,331,351,371,390,410,431,451,471,491,511,531,552,571,590,612,632,650,671,691,712,731,751,771,791,811,830,852,871,891,911,932,951,972,991,1011,1031],"xSR":741.5,"ySR":469.95,"xT1":424.9,"yT1":0,"xT2":1058.1,"yT2":0,"toosoon":0,"cond_shown":"Congruent","ratio_trial":300,"L_num":20,"L_den":25,"R_num":9,"R_den":18,"correct_side":1,"subjID":"SantiagoAndresVargasCamargo35","gender":"0","school":"6","age":"10"},{"start_time":1551892281530,"click_time":1551892282870,"finger_time":1551892282730,"fix_duration":919.4167942645694,"trial":51,"RT":1200,"MT":140,"sideResp":2,"stimulus":[],"xmouse":[814,814,814,814,814,814,814,814,814,814,814,814,814,814,814,814,814,814,814,814,814,814,814,814,814,814,814,814,814,814,814,814,814,814,814,814,814,814,814,814,814,814,814,814,814,814,814,814,814,814,814,814,814,814,814,814,814,814,814,821,836,850,868,913,942,976,1051,1106],"ymouse":[508,508,508,508,508,508,508,508,508,508,508,508,508,508,508,508,508,508,508,508,508,508,508,508,508,508,508,508,508,508,508,508,508,508,508,508,508,508,508,508,508,508,508,508,508,508,508,508,508,508,508,508,508,508,508,508,508,508,508,492,461,429,386,290,251,211,137,88],"timestamp_mouse":[1,19,41,60,81,101,121,141,161,179,201,221,239,260,280,299,321,341,360,379,400,421,439,459,481,499,521,540,560,581,600,619,641,660,681,700,720,741,759,781,799,821,841,860,879,901,921,941,960,979,1000,1020,1040,1060,1080,1099,1120,1140,1160,1181,1200,1221,1240,1261,1281,1299,1320,1340],"xSR":741.5,"ySR":469.95,"xT1":424.9,"yT1":0,"xT2":1058.1,"yT2":0,"toosoon":0,"cond_shown":"Congruent","ratio_trial":300,"L_num":2,"L_den":10,"R_num":12,"R_den":24,"correct_side":2,"subjID":"SantiagoAndresVargasCamargo35","gender":"0","school":"6","age":"10"},{"start_time":1551892284454,"click_time":1551892286090,"finger_time":1551892285830,"fix_duration":722.8266908369736,"trial":52,"RT":1376,"MT":260,"sideResp":1,"stimulus":[],"xmouse":[804,804,804,804,804,804,804,804,804,804,804,804,804,804,804,804,804,804,804,804,804,804,804,804,804,804,804,804,804,804,804,804,804,804,804,804,804,804,804,804,804,804,804,804,804,804,804,804,804,804,804,804,804,804,804,804,804,804,804,804,804,804,804,804,804,804,804,802,795,784,764,722,700,687,672,653,618,589,563,537,525,516],"ymouse":[498,498,498,498,498,498,498,498,498,498,498,498,498,498,498,498,498,498,498,498,498,498,498,498,498,498,498,498,498,498,498,498,498,498,498,498,498,498,498,498,498,498,498,498,498,498,498,498,498,498,498,498,498,498,498,498,498,498,498,498,498,498,498,498,498,498,498,488,448,402,356,284,256,240,220,198,154,119,89,64,52,45],"timestamp_mouse":[18,39,56,76,96,116,135,157,175,197,217,235,257,277,296,316,337,356,377,395,417,437,455,477,495,515,537,555,575,597,615,637,656,676,697,715,736,756,776,796,817,836,857,875,896,917,936,957,976,996,1016,1036,1057,1077,1095,1116,1136,1157,1175,1196,1216,1236,1257,1276,1296,1315,1337,1356,1376,1396,1416,1436,1456,1476,1495,1517,1536,1556,1575,1597,1617,1636],"xSR":741.5,"ySR":469.95,"xT1":424.9,"yT1":0,"xT2":1058.1,"yT2":0,"toosoon":0,"cond_shown":"Congruent","ratio_trial":200,"L_num":11,"L_den":22,"R_num":3,"R_den":10,"correct_side":1,"subjID":"SantiagoAndresVargasCamargo35","gender":"0","school":"6","age":"10"},{"start_time":1551892288252,"click_time":1551892289390,"finger_time":1551892288971,"fix_duration":1221.083024387661,"trial":53,"RT":719,"MT":419,"sideResp":1,"stimulus":[],"xmouse":[803,803,803,803,803,803,803,803,803,803,803,803,803,803,803,803,803,803,803,803,803,803,803,803,803,803,803,803,803,803,803,803,803,797,792,770,736,720,703,681,657,585,548,548,548,548,548,548,548,548,548,548,548,548,548,548,461],"ymouse":[522,522,522,522,522,522,522,522,522,522,522,522,522,522,522,522,522,522,522,522,522,522,522,522,522,522,522,522,522,522,522,522,522,504,488,439,353,313,275,226,177,70,18,18,18,18,18,18,18,18,18,18,18,18,18,18,61],"timestamp_mouse":[18,38,58,77,99,118,137,158,178,197,219,238,257,277,299,319,339,358,378,398,417,439,459,479,499,518,539,559,578,597,619,639,658,678,699,719,738,759,777,799,819,838,857,879,899,918,938,959,978,999,1018,1038,1058,1078,1098,1118,1138],"xSR":741.5,"ySR":469.95,"xT1":424.9,"yT1":0,"xT2":1058.1,"yT2":0,"toosoon":0,"cond_shown":"Congruent","ratio_trial":100,"L_num":1,"L_den":2,"R_num":3,"R_den":5,"correct_side":2,"subjID":"SantiagoAndresVargasCamargo35","gender":"0","school":"6","age":"10"},{"start_time":1551892291011,"click_time":1551892292971,"finger_time":1551892292351,"fix_duration":580.396374831096,"trial":54,"RT":1340,"MT":620,"sideResp":1,"stimulus":[],"xmouse":[804,804,804,804,804,804,804,804,804,804,804,804,804,804,804,804,804,804,804,804,804,804,804,804,804,804,804,804,804,804,804,804,804,804,804,804,804,804,804,804,804,804,804,804,804,804,804,804,804,804,804,804,804,804,804,804,804,804,804,804,804,804,804,804,804,795,783,768,758,753,751,743,735,722,672,621,569,510,464,389,352,338,330,330,330,330,330,330,330,330,330,330,330,330,330,330,412,427],"ymouse":[507,507,507,507,507,507,507,507,507,507,507,507,507,507,507,507,507,507,507,507,507,507,507,507,507,507,507,507,507,507,507,507,507,507,507,507,507,507,507,507,507,507,507,507,507,507,507,507,507,507,507,507,507,507,507,507,507,507,507,507,507,507,507,507,507,482,459,432,418,408,403,391,381,366,319,273,227,179,135,71,34,17,3,3,3,3,3,3,3,3,3,3,3,3,3,3,5,13],"timestamp_mouse":[33,39,60,78,100,120,138,158,179,199,220,238,260,278,299,319,339,359,379,399,418,440,460,479,498,519,540,560,580,600,618,640,658,679,698,719,739,760,780,800,819,838,859,879,899,920,939,959,979,999,1019,1040,1060,1079,1098,1119,1139,1160,1178,1198,1219,1239,1260,1279,1298,1320,1340,1359,1379,1398,1419,1440,1459,1479,1500,1518,1539,1559,1579,1600,1619,1640,1660,1680,1699,1720,1739,1760,1780,1798,1818,1838,1859,1880,1900,1920,1940,1960],"xSR":741.5,"ySR":469.95,"xT1":424.9,"yT1":0,"xT2":1058.1,"yT2":0,"toosoon":0,"cond_shown":"Incongruent","ratio_trial":100,"L_num":6,"L_den":10,"R_num":7,"R_den":14,"correct_side":1,"subjID":"SantiagoAndresVargasCamargo35","gender":"0","school":"6","age":"10"},{"start_time":1551892293962,"click_time":1551892