[{"start_time":1551887460772,"click_time":1551887465659,"finger_time":1551887460781,"fix_duration":929.6068589233828,"trial":0,"RT":9,"MT":4878,"sideResp":2,"stimulus":"img/900/randomdotsizeEA/L/4_Ratio_900_L_20_R_18.png","xmouse":[768,768,768,768,768,768,768,768,768,768,768,768,768,768,768,768,768,768,768,768,768,768,768,768,768,768,768,768,768,768,768,768,768,768,768,768,768,768,768,768,768,768,768,768,768,768,768,768,768,769,772,774,779,781,782,782,782,782,782,782,782,782,782,782,782,782,782,782,782,782,782,782,782,782,782,782,782,782,782,782,782,782,782,782,782,782,782,782,782,782,782,782,782,782,782,782,782,781,781,781,781,781,781,781,781,781,781,781,781,781,781,781,781,781,781,781,781,781,781,781,781,781,781,781,781,781,781,781,781,781,781,781,781,781,781,781,781,781,781,781,781,781,781,781,781,781,781,781,781,781,781,781,781,781,781,781,781,781,781,781,781,781,781,781,781,781,781,781,781,781,781,781,781,781,781,781,781,783,795,904,941,1068,1162,1278,1476,1561,1561,1561,1561,1561,1561,1561,1582,1573,1530,1462,1366,1309,1282,1280,1280,1280,1280,1280,1280,1280,1280,1280,1561,1561,1561,1561,1561,1561,1491,1431,1371,1316,1281,1263,1263,1263,1263,1262,1262,1262,1263,1271,1281,1256,1223,1178,1118,1058,1025,1010,992,981,981,1012,1020,1024,1027,1031,1074],"ymouse":[546,546,546,546,546,546,546,546,546,546,546,546,546,546,546,546,546,546,546,546,546,546,546,546,546,546,546,546,546,546,546,546,546,546,546,546,546,546,546,546,546,546,546,546,546,546,546,546,546,547,553,558,566,573,575,575,575,576,577,577,577,577,577,577,577,577,577,577,577,577,577,577,577,577,577,577,577,577,577,579,580,580,580,580,580,580,580,580,580,580,580,580,580,580,580,582,583,584,585,585,585,585,585,585,585,585,585,585,585,585,585,585,585,585,585,585,585,585,585,585,585,585,585,585,585,585,585,585,585,585,585,585,585,585,585,585,585,585,585,585,585,585,585,585,585,585,585,585,585,585,585,585,585,585,585,585,585,585,585,585,585,585,585,585,585,585,585,585,585,585,585,585,585,585,585,585,584,579,548,157,41,0,0,0,0,0,0,0,0,0,0,0,4,22,75,139,235,364,617,834,834,834,834,834,834,834,834,834,853,853,853,853,853,853,323,303,295,293,293,294,294,294,294,294,294,294,288,261,196,44,0,0,0,0,0,3,10,17,17,14,13,13,14,16,23],"timestamp_mouse":[9,27,48,68,88,108,127,148,167,187,208,227,248,267,288,307,328,348,368,387,408,427,447,468,487,507,528,547,568,587,607,627,648,668,687,708,727,748,767,787,807,827,848,868,888,908,928,948,968,987,1008,1028,1047,1068,1087,1107,1127,1148,1167,1188,1208,1227,1247,1266,1287,1308,1327,1347,1367,1388,1408,1427,1448,1467,1487,1508,1527,1548,1567,1588,1608,1627,1647,1668,1688,1708,1728,1747,1768,1787,1807,1827,1847,1868,1887,1908,1927,1947,1968,1988,2007,2027,2047,2068,2087,2107,2128,2147,2167,2187,2208,2228,2248,2267,2287,2308,2327,2347,2367,2387,2407,2428,2448,2467,2487,2507,2527,2547,2568,2587,2608,2627,2647,2668,2688,2707,2728,2747,2767,2787,2808,2827,2848,2868,2887,2909,2927,2947,2968,2987,3008,3027,3048,3068,3087,3107,3127,3147,3168,3187,3207,3227,3248,3267,3287,3308,3328,3347,3368,3387,3407,3427,3448,3467,3487,3507,3528,3547,3567,3588,3607,3627,3647,3668,3686,3707,3727,3748,3767,3787,3808,3827,3848,3867,3888,3907,3928,3948,3968,3987,4008,4028,4047,4067,4087,4108,4127,4147,4167,4187,4207,4227,4248,4267,4287,4307,4327,4348,4367,4387,4407,4428,4447,4468,4487,4507,4528,4547,4567,4587,4608,4627,4647,4667,4687,4708,4727,4748,4768,4787,4807,4827,4847,4868,4887],"xSR":741.5,"ySR":501.8,"xT1":424.9,"yT1":0,"xT2":1058.1,"yT2":0,"toosoon":0,"cond_shown":"randomdotsizeEA","ratio_trial":900,"smaller_num":"18","larger_num":"20","correct_side":1,"subjID":"santiagofernandojaramillomatamoros19","gender":"0","age":"11","school":"6","test":{"fix_dur":[250,1500],"timestim":300,"targets_dim":[100,100],"targets_relative_coord":[0.3,0.7],"size_stim":[880,420],"start_dim":[100,100],"size_start":[300,300],"size_fix":60,"samplingrate":20,"img_types":["equaldotsize","equaldotanddens","randomdotsizeEA"],"ratios":[250,500,750,900],"rep_conds":9,"nTrials":120,"trials_to_rest":500,"Trials_order":[59,97,46,18,9,108,17,51,22,104,21,52,36,47,53,11,6,84,86,76,88,112,57,12,106,119,30,41,20,13,10,92,35,5,116,29,74,19,8,81,48,114,103,65,0,95,3,67,49,101,60,105,66,87,54,7,43,1,56,32,44,72,90,16,24,117,111,70,83,28,68,26,55,110,94,39,31,73,99,113,107,25,14,80,64,109,15,23,37,71,118,50,38,2,61,85,100,33,115,34,79,75,77,93,27,69,78,98,42,96,58,91,89,62,82,102,45,40,4,63],"cond_shown":["randomdotsizeEA","equaldotanddens","equaldotanddens","equaldotsize","equaldotsize","equaldotsize","randomdotsizeEA","equaldotsize","equaldotanddens","randomdotsizeEA","equaldotsize","equaldotanddens","equaldotsize","randomdotsizeEA","randomdotsizeEA","randomdotsizeEA","equaldotsize","equaldotsize","randomdotsizeEA","equaldotanddens","equaldotanddens","equaldotanddens","equaldotsize","equaldotsize","equaldotanddens","randomdotsizeEA","equaldotsize","randomdotsizeEA","randomdotsizeEA","equaldotanddens","equaldotanddens","randomdotsizeEA","randomdotsizeEA","randomdotsizeEA","randomdotsizeEA","randomdotsizeEA","randomdotsizeEA","equaldotanddens","randomdotsizeEA","equaldotsize","equaldotsize","equaldotsize","equaldotanddens","randomdotsizeEA","equaldotsize","randomdotsizeEA","equaldotsize","equaldotanddens","equaldotanddens","randomdotsizeEA","equaldotsize","equaldotsize","equaldotsize","equaldotsize","equaldotsize","equaldotanddens","equaldotanddens","equaldotanddens","randomdotsizeEA","randomdotsizeEA","randomdotsizeEA","equaldotsize","equaldotsize","equaldotanddens","equaldotsize","equaldotsize","equaldotsize","equaldotanddens","randomdotsizeEA","equaldotanddens","randomdotsizeEA","randomdotsizeEA","equaldotanddens","randomdotsizeEA","equaldotanddens","equaldotsize","equaldotanddens","equaldotanddens","equaldotsize","randomdotsizeEA","randomdotsizeEA","equaldotanddens","randomdotsizeEA","randomdotsizeEA","equaldotanddens","equaldotanddens","equaldotsize","randomdotsizeEA","equaldotanddens","randomdotsizeEA","equaldotanddens","randomdotsizeEA","randomdotsizeEA","randomdotsizeEA","equaldotanddens","equaldotanddens","equaldotanddens","equaldotsize","equaldotanddens","equaldotanddens","equaldotanddens","equaldotsize","randomdotsizeEA","equaldotsize","equaldotsize","equaldotsize","equaldotsize","randomdotsizeEA","equaldotsize","equaldotsize","equaldotanddens","equaldotanddens","randomdotsizeEA","randomdotsizeEA","equaldotanddens","equaldotsize","equaldotsize","equaldotanddens","equaldotanddens","equaldotsize"],"ratio_trial":[900,250,900,750,900,250,500,500,900,750,900,500,250,900,500,900,750,250,250,500,500,500,900,250,900,900,750,500,750,250,900,750,900,500,750,500,250,750,750,900,250,750,750,500,250,900,500,750,250,500,250,900,750,500,750,750,750,250,750,750,750,250,750,500,250,900,500,900,900,500,750,250,750,250,900,500,750,250,500,500,900,250,250,750,500,250,500,900,250,900,900,250,250,250,250,250,500,900,750,900,750,500,500,900,500,900,750,250,750,250,900,750,500,250,900,750,900,500,500,500],"smaller_num":["18","4","18","6","18","3","5","5","9","6","9","2","2","18","6","18","18","4","6","1","9","4","18","5","18","18","18","2","3","2","18","15","18","1","18","5","3","6","6","18","4","3","9","9","5","18","6","6","3","1","2","18","15","2","3","3","3","2","3","3","18","2","3","3","4","18","9","18","18","5","3","3","9","5","18","6","6","2","9","1","18","1","6","6","2","4","1","9","2","18","18","5","2","3","2","3","6","18","3","9","15","5","10","18","2","9","6","3","15","3","18","3","6","1","9","3","18","10","10","1"],"larger_num":["20","16","20","8","20","12","10","10","10","8","10","4","8","20","12","20","24","16","24","2","18","8","20","20","20","20","24","4","4","8","20","20","20","2","24","10","12","8","8","20","16","4","12","18","20","20","12","8","12","2","8","20","20","4","4","4","4","8","4","4","24","8","4","6","16","20","18","20","20","10","4","12","12","20","20","12","8","8","18","2","20","4","24","8","4","16","2","10","8","20","20","20","8","12","8","12","12","20","4","10","20","10","20","20","4","10","8","12","20","12","20","4","12","4","10","4","20","20","20","2"],"correct_side":[1,2,2,2,1,1,1,2,1,2,1,1,1,1,1,1,1,1,1,2,2,1,1,2,2,1,1,1,1,1,2,1,2,2,1,1,2,2,1,1,2,1,2,2,2,1,1,1,2,2,1,2,1,1,1,2,2,1,1,2,1,1,2,2,2,2,2,1,2,2,1,2,2,2,1,1,1,1,2,2,2,2,1,2,1,2,2,2,1,1,1,2,1,2,1,2,1,2,2,2,2,1,2,1,1,2,1,2,2,2,2,2,1,2,1,1,1,2,2,2],"img_shown":["img/900/randomdotsizeEA/L/4_Ratio_900_L_20_R_18.png","img/250/equaldotanddens/R/10_Ratio_250_L_4_R_16.png","img/900/equaldotanddens/R/9_Ratio_900_L_18_R_20.png","img/750/equaldotsize/R/2_Ratio_750_L_6_R_8.png","img/900/equaldotsize/L/4_Ratio_900_L_20_R_18.png","img/250/equaldotsize/L/15_Ratio_250_L_12_R_3.png","img/500/randomdotsizeEA/L/7_Ratio_500_L_10_R_5.png","img/500/equaldotsize/R/14_Ratio_500_L_5_R_10.png","img/900/equaldotanddens/L/1_Ratio_900_L_10_R_9.png","img/750/randomdotsizeEA/R/2_Ratio_750_L_6_R_8.png","img/900/equaldotsize/L/1_Ratio_900_L_10_R_9.png","img/500/equaldotanddens/L/5_Ratio_500_L_4_R_2.png","img/250/equaldotsize/L/1_Ratio_250_L_8_R_2.png","img/900/randomdotsizeEA/L/4_Ratio_900_L_20_R_18.png","img/500/randomdotsizeEA/L/11_Ratio_500_L_12_R_6.png","img/900/randomdotsizeEA/L/2_Ratio_900_L_20_R_18.png","img/750/equaldotsize/L/6_Ratio_750_L_24_R_18.png","img/250/equaldotsize/L/2_Ratio_250_L_16_R_4.png","img/250/randomdotsizeEA/L/5_Ratio_250_L_24_R_6.png","img/500/equaldotanddens/R/15_Ratio_500_L_1_R_2.png","img/500/equaldotanddens/R/6_Ratio_500_L_9_R_18.png","img/500/equaldotanddens/L/8_Ratio_500_L_8_R_4.png","img/900/equaldotsize/L/8_Ratio_900_L_20_R_18.png","img/250/equaldotsize/R/12_Ratio_250_L_5_R_20.png","img/900/equaldotanddens/R/14_Ratio_900_L_18_R_20.png","img/900/randomdotsizeEA/L/8_Ratio_900_L_20_R_18.png","img/750/equaldotsize/L/6_Ratio_750_L_24_R_18.png","img/500/randomdotsizeEA/L/10_Ratio_500_L_4_R_2.png","img/750/randomdotsizeEA/L/10_Ratio_750_L_4_R_3.png","img/250/equaldotanddens/L/7_Ratio_250_L_8_R_2.png","img/900/equaldotanddens/R/9_Ratio_900_L_18_R_20.png","img/750/randomdotsizeEA/L/1_Ratio_750_L_20_R_15.png","img/900/randomdotsizeEA/R/11_Ratio_900_L_18_R_20.png","img/500/randomdotsizeEA/R/12_Ratio_500_L_1_R_2.png","img/750/randomdotsizeEA/L/6_Ratio_750_L_24_R_18.png","img/500/randomdotsizeEA/L/7_Ratio_500_L_10_R_5.png","img/250/randomdotsizeEA/R/11_Ratio_250_L_3_R_12.png","img/750/equaldotanddens/R/2_Ratio_750_L_6_R_8.png","img/750/randomdotsizeEA/L/13_Ratio_750_L_8_R_6.png","img/900/equaldotsize/L/4_Ratio_900_L_20_R_18.png","img/250/equaldotsize/R/10_Ratio_250_L_4_R_16.png","img/750/equaldotsize/L/9_Ratio_750_L_4_R_3.png","img/750/equaldotanddens/R/15_Ratio_750_L_9_R_12.png","img/500/randomdotsizeEA/R/6_Ratio_500_L_9_R_18.png","img/250/equaldotsize/R/12_Ratio_250_L_5_R_20.png","img/900/randomdotsizeEA/L/8_Ratio_900_L_20_R_18.png","img/500/equaldotsize/L/13_Ratio_500_L_12_R_6.png","img/750/equaldotanddens/L/13_Ratio_750_L_8_R_6.png","img/250/equaldotanddens/R/11_Ratio_250_L_3_R_12.png","img/500/randomdotsizeEA/R/12_Ratio_500_L_1_R_2.png","img/250/equaldotsize/L/3_Ratio_250_L_8_R_2.png","img/900/equaldotsize/R/13_Ratio_900_L_18_R_20.png","img/750/equaldotsize/L/1_Ratio_750_L_20_R_15.png","img/500/equaldotsize/L/5_Ratio_500_L_4_R_2.png","img/750/equaldotsize/L/9_Ratio_750_L_4_R_3.png","img/750/equaldotanddens/R/12_Ratio_750_L_3_R_4.png","img/750/equaldotanddens/R/12_Ratio_750_L_3_R_4.png","img/250/equaldotanddens/L/1_Ratio_250_L_8_R_2.png","img/750/randomdotsizeEA/L/9_Ratio_750_L_4_R_3.png","img/750/randomdotsizeEA/R/7_Ratio_750_L_3_R_4.png","img/750/randomdotsizeEA/L/6_Ratio_750_L_24_R_18.png","img/250/equaldotsize/L/7_Ratio_250_L_8_R_2.png","img/750/equaldotsize/R/7_Ratio_750_L_3_R_4.png","img/500/equaldotanddens/R/2_Ratio_500_L_3_R_6.png","img/250/equaldotsize/R/10_Ratio_250_L_4_R_16.png","img/900/equaldotsize/R/9_Ratio_900_L_18_R_20.png","img/500/equaldotsize/R/1_Ratio_500_L_9_R_18.png","img/900/equaldotanddens/L/4_Ratio_900_L_20_R_18.png","img/900/randomdotsizeEA/R/13_Ratio_900_L_18_R_20.png","img/500/equaldotanddens/R/14_Ratio_500_L_5_R_10.png","img/750/randomdotsizeEA/L/9_Ratio_750_L_4_R_3.png","img/250/randomdotsizeEA/R/9_Ratio_250_L_3_R_12.png","img/750/equaldotanddens/R/15_Ratio_750_L_9_R_12.png","img/250/randomdotsizeEA/R/12_Ratio_250_L_5_R_20.png","img/900/equaldotanddens/L/8_Ratio_900_L_20_R_18.png","img/500/equaldotsize/L/13_Ratio_500_L_12_R_6.png","img/750/equaldotanddens/L/14_Ratio_750_L_8_R_6.png","img/250/equaldotanddens/L/1_Ratio_250_L_8_R_2.png","img/500/equaldotsize/R/6_Ratio_500_L_9_R_18.png","img/500/randomdotsizeEA/R/12_Ratio_500_L_1_R_2.png","img/900/randomdotsizeEA/R/12_Ratio_900_L_18_R_20.png","img/250/equaldotanddens/R/8_Ratio_250_L_1_R_4.png","img/250/randomdotsizeEA/L/5_Ratio_250_L_24_R_6.png","img/750/randomdotsizeEA/R/2_Ratio_750_L_6_R_8.png","img/500/equaldotanddens/L/10_Ratio_500_L_4_R_2.png","img/250/equaldotanddens/R/10_Ratio_250_L_4_R_16.png","img/500/equaldotsize/R/15_Ratio_500_L_1_R_2.png","img/900/randomdotsizeEA/R/6_Ratio_900_L_9_R_10.png","img/250/equaldotanddens/L/3_Ratio_250_L_8_R_2.png","img/900/randomdotsizeEA/L/8_Ratio_900_L_20_R_18.png","img/900/equaldotanddens/L/2_Ratio_900_L_20_R_18.png","img/250/randomdotsizeEA/R/12_Ratio_250_L_5_R_20.png","img/250/randomdotsizeEA/L/3_Ratio_250_L_8_R_2.png","img/250/randomdotsizeEA/R/4_Ratio_250_L_3_R_12.png","img/250/equaldotanddens/L/3_Ratio_250_L_8_R_2.png","img/250/equaldotanddens/R/4_Ratio_250_L_3_R_12.png","img/500/equaldotanddens/L/13_Ratio_500_L_12_R_6.png","img/900/equaldotsize/R/14_Ratio_900_L_18_R_20.png","img/750/equaldotanddens/R/12_Ratio_750_L_3_R_4.png","img/900/equaldotanddens/R/6_Ratio_900_L_9_R_10.png","img/750/equaldotanddens/R/3_Ratio_750_L_15_R_20.png","img/500/equaldotsize/L/7_Ratio_500_L_10_R_5.png","img/500/randomdotsizeEA/R/3_Ratio_500_L_10_R_20.png","img/900/equaldotsize/L/10_Ratio_900_L_20_R_18.png","img/500/equaldotsize/L/10_Ratio_500_L_4_R_2.png","img/900/equaldotsize/R/6_Ratio_900_L_9_R_10.png","img/750/equaldotsize/L/13_Ratio_750_L_8_R_6.png","img/250/randomdotsizeEA/R/9_Ratio_250_L_3_R_12.png","img/750/equaldotsize/R/4_Ratio_750_L_15_R_20.png","img/250/equaldotsize/R/11_Ratio_250_L_3_R_12.png","img/900/equaldotanddens/R/14_Ratio_900_L_18_R_20.png","img/750/equaldotanddens/R/7_Ratio_750_L_3_R_4.png","img/500/randomdotsizeEA/L/11_Ratio_500_L_12_R_6.png","img/250/randomdotsizeEA/R/8_Ratio_250_L_1_R_4.png","img/900/equaldotanddens/L/1_Ratio_900_L_10_R_9.png","img/750/equaldotsize/L/8_Ratio_750_L_4_R_3.png","img/900/equaldotsize/L/4_Ratio_900_L_20_R_18.png","img/500/equaldotanddens/R/3_Ratio_500_L_10_R_20.png","img/500/equaldotanddens/R/3_Ratio_500_L_10_R_20.png","img/500/equaldotsize/R/12_Ratio_500_L_1_R_2.png"],"Rat0":[["12_Ratio_0_L_9_R_0.png","13_Ratio_0_L_6_R_0.png","5_Ratio_0_L_2_R_0.png","6_Ratio_0_L_4_R_0.png","8_Ratio_0_L_6_R_0.png"],["1_Ratio_0_L_0_R_17.png","10_Ratio_0_L_0_R_22.png","11_Ratio_0_L_0_R_1.png","14_Ratio_0_L_0_R_24.png","15_Ratio_0_L_0_R_4.png","2_Ratio_0_L_0_R_5.png","3_Ratio_0_L_0_R_17.png","4_Ratio_0_L_0_R_7.png","7_Ratio_0_L_0_R_19.png","9_Ratio_0_L_0_R_15.png"]],"Rat250":[["1_Ratio_250_L_8_R_2.png","14_Ratio_250_L_12_R_3.png","15_Ratio_250_L_12_R_3.png","2_Ratio_250_L_16_R_4.png","3_Ratio_250_L_8_R_2.png","5_Ratio_250_L_24_R_6.png","7_Ratio_250_L_8_R_2.png"],["10_Ratio_250_L_4_R_16.png","11_Ratio_250_L_3_R_12.png","12_Ratio_250_L_5_R_20.png","13_Ratio_250_L_2_R_8.png","4_Ratio_250_L_3_R_12.png","6_Ratio_250_L_6_R_24.png","8_Ratio_250_L_1_R_4.png","9_Ratio_250_L_3_R_12.png"]],"Rat500":[["10_Ratio_500_L_4_R_2.png","11_Ratio_500_L_12_R_6.png","13_Ratio_500_L_12_R_6.png","4_Ratio_500_L_18_R_9.png","5_Ratio_500_L_4_R_2.png","7_Ratio_500_L_10_R_5.png","8_Ratio_500_L_8_R_4.png"],["1_Ratio_500_L_9_R_18.png","12_Ratio_500_L_1_R_2.png","14_Ratio_500_L_5_R_10.png","15_Ratio_500_L_1_R_2.png","2_Ratio_500_L_3_R_6.png","3_Ratio_500_L_10_R_20.png","6_Ratio_500_L_9_R_18.png","9_Ratio_500_L_2_R_4.png"]],"Rat750":[["1_Ratio_750_L_20_R_15.png","10_Ratio_750_L_4_R_3.png","13_Ratio_750_L_8_R_6.png","14_Ratio_750_L_8_R_6.png","6_Ratio_750_L_24_R_18.png","8_Ratio_750_L_4_R_3.png","9_Ratio_750_L_4_R_3.png"],["11_Ratio_750_L_12_R_16.png","12_Ratio_750_L_3_R_4.png","15_Ratio_750_L_9_R_12.png","2_Ratio_750_L_6_R_8.png","3_Ratio_750_L_15_R_20.png","4_Ratio_750_L_15_R_20.png","5_Ratio_750_L_15_R_20.png","7_Ratio_750_L_3_R_4.png"]],"Rat900":[["1_Ratio_900_L_10_R_9.png","10_Ratio_900_L_20_R_18.png","2_Ratio_900_L_20_R_18.png","4_Ratio_900_L_20_R_18.png","8_Ratio_900_L_20_R_18.png"],["11_Ratio_900_L_18_R_20.png","12_Ratio_900_L_18_R_20.png","13_Ratio_900_L_18_R_20.png","14_Ratio_900_L_18_R_20.png","15_Ratio_900_L_9_R_10.png","3_Ratio_900_L_9_R_10.png","5_Ratio_900_L_9_R_10.png","6_Ratio_900_L_9_R_10.png","7_Ratio_900_L_9_R_10.png","9_Ratio_900_L_18_R_20.png"]],"Rat1000":[["10_Ratio_1000_L_16_R_16.png","11_Ratio_1000_L_6_R_6.png","12_Ratio_1000_L_14_R_14.png","13_Ratio_1000_L_20_R_20.png","15_Ratio_1000_L_15_R_15.png","2_Ratio_1000_L_17_R_17.png","4_Ratio_1000_L_9_R_9.png","5_Ratio_1000_L_6_R_6.png","6_Ratio_1000_L_19_R_19.png","8_Ratio_1000_L_14_R_14.png","9_Ratio_1000_L_25_R_25.png"],["1_Ratio_1000_L_1_R_1.png","14_Ratio_1000_L_17_R_17.png","3_Ratio_1000_L_17_R_17.png","7_Ratio_1000_L_6_R_6.png"]]}},{"start_time":1551887467032,"click_time":1551887472139,"finger_time":1551887470460,"fix_duration":250,"trial":1,"RT":3428,"MT":1679,"sideResp":2,"stimulus":"img/250/equaldotanddens/R/10_Ratio_250_L_4_R_16.png","xmouse":[807,807,807,807,807,807,807,807,807,807,807,807,807,807,807,807,807,807,807,807,807,807,807,807,807,807,807,807,807,807,807,807,807,807,807,807,807,807,807,807,807,807,807,807,807,807,807,807,807,807,807,807,807,807,807,807,807,807,807,807,807,807,807,807,807,807,807,807,807,807,807,807,807,807,807,807,807,807,807,807,807,807,807,807,807,807,807,807,807,807,807,807,807,807,807,807,807,807,807,807,807,807,807,807,807,807,807,807,807,807,807,807,807,807,807,807,807,807,807,807,807,807,807,807,807,807,807,807,807,807,807,807,807,807,807,807,807,807,807,807,807,807,807,807,807,807,807,807,807,807,811,821,822,822,822,822,822,822,822,822,822,822,822,824,828,831,831,831,831,834,843,908,925,935,946,956,963,963,963,963,959,936,918,894,880,873,872,872,872,872,868,858,846,836,826,818,810,809,809,809,809,809,809,809,809,809,809,809,809,809,809,809,809,809,809,809,809,809,809,809,809,809,809,809,809,809,809,852,887,976,1080,1276,1365,1383,1387,1383,1373,1363,1353,1344,1318,1296,1288,1261,1246,1237,1235,1235,1235,1234,1234,1210,1191,1169,1151],"ymouse":[643,643,643,643,643,643,643,643,643,643,643,643,643,643,643,643,643,643,643,643,643,643,643,643,643,643,643,643,643,643,643,643,643,643,643,643,643,643,643,643,643,643,643,643,643,643,643,643,643,643,643,643,643,643,643,643,643,643,643,643,643,643,643,643,643,643,643,643,643,643,643,643,643,643,643,643,643,643,643,643,643,643,643,643,643,643,643,643,643,643,643,643,643,643,643,643,643,643,643,643,643,643,643,643,643,643,643,643,643,643,643,643,643,643,643,643,643,643,643,643,643,643,643,643,643,643,643,643,643,643,643,643,643,643,643,643,643,643,643,643,643,643,643,643,643,643,643,643,643,643,643,641,641,641,641,641,641,641,641,641,641,641,641,639,631,626,624,624,624,621,613,567,555,548,541,537,535,535,535,535,536,549,556,566,572,578,578,578,578,578,583,590,595,600,604,605,607,607,607,607,607,607,607,607,607,607,607,607,607,607,607,607,607,607,607,607,607,607,607,607,607,607,607,607,607,607,607,583,561,508,448,329,235,199,176,136,114,90,68,48,20,8,6,0,0,0,0,0,0,0,0,2,6,12,18],"timestamp_mouse":[9,47,67,87,107,127,147,167,187,207,227,247,267,287,308,328,347,367,388,407,427,447,468,488,507,528,546,567,587,607,627,648,668,687,708,727,748,769,788,807,828,847,867,887,908,928,948,968,987,1007,1027,1047,1068,1087,1107,1128,1147,1167,1187,1208,1227,1248,1267,1288,1307,1327,1348,1367,1387,1407,1428,1448,1468,1487,1508,1528,1547,1568,1587,1607,1628,1647,1668,1688,1707,1727,1748,1769,1788,1807,1828,1848,1868,1888,1908,1928,1948,1967,1987,2007,2027,2048,2067,2088,2108,2128,2147,2168,2187,2208,2227,2248,2268,2288,2308,2327,2347,2368,2387,2408,2426,2448,2468,2487,2507,2527,2548,2568,2588,2607,2627,2647,2667,2688,2708,2728,2748,2767,2788,2807,2828,2848,2868,2887,2907,2927,2947,2968,2987,3008,3027,3047,3067,3088,3107,3128,3148,3167,3187,3208,3228,3248,3268,3288,3308,3327,3347,3367,3388,3409,3428,3447,3468,3487,3507,3527,3548,3567,3587,3608,3627,3647,3668,3688,3708,3727,3747,3768,3787,3808,3827,3847,3867,3887,3908,3927,3947,3967,3987,4007,4027,4048,4068,4087,4107,4127,4147,4168,4187,4208,4228,4247,4267,4288,4307,4328,4347,4367,4388,4407,4427,4447,4467,4488,4507,4527,4548,4567,4587,4607,4628,4648,4667,4687,4707,4728,4747,4768,4787,4808,4828,4846,4868,4888,4907,4927,4947,4968,4988,5007,5028,5047,5068,5087,5107],"xSR":741.5,"ySR":573.95,"xT1":424.9,"yT1":0,"xT2":1058.1,"yT2":0,"toosoon":0,"cond_shown":"equaldotanddens","ratio_trial":250,"smaller_num":"4","larger_num":"16","correct_side":2,"subjID":"santiagofernandojaramillomatamoros19","gender":"0","age":"11","school":"6"},{"start_time":1551887474294,"click_time":1551887475019,"finger_time":1551887474839,"fix_duration":654.1757570915255,"trial":2,"RT":545,"MT":180,"sideResp":2,"stimulus":"img/900/equaldotanddens/R/9_Ratio_900_L_18_R_20.png","xmouse":[803,803,803,803,803,803,803,803,803,803,803,803,803,803,803,803,803,803,803,803,803,803,803,803,803,803,817,839,920,1010,1030,1039,1043,1047,1051,1056,1061],"ymouse":[598,598,598,598,598,598,598,598,598,598,598,598,598,598,598,598,598,598,598,598,598,598,598,598,598,598,576,538,404,205,156,134,120,112,105,101,97],"timestamp_mouse":[10,25,45,66,86,106,126,145,165,185,205,226,245,265,285,305,326,345,365,385,406,426,445,466,485,506,526,545,565,585,606,625,645,666,685,706,725],"xSR":741.5,"ySR":573.95,"xT1":424.9,"yT1":0,"xT2":1058.1,"yT2":0,"toosoon":0,"cond_shown":"equaldotanddens","ratio_trial":900,"smaller_num":"18","larger_num":"20","correct_side":2,"subjID":"santiagofernandojaramillomatamoros19","gender":"0","age":"11","school":"6"},{"start_time":1551887476691,"click_time":1551887477220,"finger_time":1551887477059,"fix_duration":990.150651283499,"trial":3,"RT":368,"MT":161,"sideResp":2,"stimulus":"img/750/equaldotsize/R/2_Ratio_750_L_6_R_8.png","xmouse":[803,803,803,803,803,803,803,803,803,803,803,803,803,803,803,803,811,829,855,952,1013,1063,1096,1116,1130,1130,1130],"ymouse":[634,634,634,634,634,634,634,634,634,634,634,634,634,634,634,634,623,605,581,472,402,317,256,200,126,106,97],"timestamp_mouse":[9,39,49,68,89,108,129,148,168,188,209,228,248,268,289,308,328,348,368,388,408,428,449,468,488,508,529],"xSR":741.5,"ySR":573.95,"xT1":424.9,"yT1":0,"xT2":1058.1,"yT2":0,"toosoon":0,"cond_shown":"equaldotsize","ratio_trial":750,"smaller_num":"6","larger_num":"8","correct_side":2,"subjID":"santiagofernandojaramillomatamoros19","gender":"0","age":"11","school":"6"},{"start_time":1551887480004,"click_time":1551887480520,"finger_time":1551887480479,"fix_duration":444.48337333183474,"trial":4,"RT":475,"MT":41,"sideResp":2,"stimulus":"img/900/equaldotsize/L/4_Ratio_900_L_20_R_18.png","xmouse":[780,780,780,780,780,780,780,780,780,780,780,780,780,780,780,780,780,780,780,780,780,782,834,904,1050,1076],"ymouse":[648,648,648,648,648,648,648,648,648,648,648,648,648,648,648,648,648,648,648,648,648,642,582,481,130,68],"timestamp_mouse":[16,35,55,75,96,116,135,155,175,195,216,235,255,275,296,316,335,355,375,396,416,435,456,475,495,516],"xSR":741.5,"ySR":573.95,"xT1":424.9,"yT1":0,"xT2":1058.1,"yT2":0,"toosoon":0,"cond_shown":"equaldotsize","ratio_trial":900,"smaller_num":"18","larger_num":"20","correct_side":1,"subjID":"santiagofernandojaramillomatamoros19","gender":"0","age":"11","school":"6"},{"start_time":1551887482770,"click_time":1551887483699,"finger_time":1551887483399,"fix_duration":1369.7187499320912,"trial":5,"RT":629,"MT":300,"sideResp":1,"stimulus":"img/250/equaldotsize/L/15_Ratio_250_L_12_R_3.png","xmouse":[822,822,822,822,822,822,822,822,822,822,822,822,822,822,822,822,822,822,822,822,822,822,822,822,822,822,822,822,822,822,822,820,798,739,671,620,567,564,564,564,564,564,564,563,560,551,522],"ymouse":[634,634,634,634,634,634,634,634,634,634,634,634,634,634,634,634,634,634,634,634,634,634,634,634,634,634,634,634,634,634,634,529,348,195,117,65,11,7,7,7,7,7,7,7,8,17,39],"timestamp_mouse":[12,44,50,70,89,109,129,149,169,189,209,229,250,269,289,308,329,350,369,389,409,430,449,469,490,509,530,549,569,589,610,629,650,669,690,709,730,750,769,789,810,829,850,870,889,909,929],"xSR":741.5,"ySR":573.95,"xT1":424.9,"yT1":0,"xT2":1058.1,"yT2":0,"toosoon":0,"cond_shown":"equaldotsize","ratio_trial":250,"smaller_num":"3","larger_num":"12","correct_side":1,"subjID":"santiagofernandojaramillomatamoros19","gender":"0","age":"11","school":"6"},{"start_time":1551887484992,"click_time":1551887486300,"finger_time":1551887485719,"fix_duration":491.3436670995528,"trial":6,"RT":727,"MT":581,"sideResp":1,"stimulus":"img/500/randomdotsizeEA/L/7_Ratio_500_L_10_R_5.png","xmouse":[754,754,754,754,754,754,754,754,754,754,754,754,754,754,754,754,754,754,754,754,754,754,754,754,754,754,754,754,754,754,754,754,754,754,754,754,754,754,726,705,679,669,663,658,653,643,627,615,571,551,529,528,528,528,528,528,528,528,528,528,528,528,528,528,528,520],"ymouse":[633,633,633,633,633,633,633,633,633,633,633,633,633,633,633,633,633,633,633,633,633,633,633,633,633,633,633,633,633,633,633,633,633,633,633,618,550,458,314,244,161,127,110,102,95,85,78,74,61,55,50,50,50,50,50,50,50,50,50,50,50,50,50,50,50,51],"timestamp_mouse":[9,36,48,68,87,108,127,148,168,188,207,228,247,268,288,307,327,348,368,388,408,428,447,467,488,507,527,547,567,588,608,627,647,668,687,708,727,748,768,788,807,828,847,867,887,907,927,947,968,987,1007,1027,1047,1068,1087,1106,1126,1147,1168,1186,1207,1226,1246,1266,1287,1307],"xSR":741.5,"ySR":573.95,"xT1":424.9,"yT1":0,"xT2":1058.1,"yT2":0,"toosoon":0,"cond_shown":"randomdotsizeEA","ratio_trial":500,"smaller_num":"5","larger_num":"10","correct_side":1,"subjID":"santiagofernandojaramillomatamoros19","gender":"0","age":"11","school":"6"},{"start_time":1551887488275,"click_time":1551887489018,"finger_time":1551887488898,"fix_duration":1175.3167118117067,"trial":7,"RT":623,"MT":120,"sideResp":2,"stimulus":"img/500/equaldotsize/R/14_Ratio_500_L_5_R_10.png","xmouse":[807,807,807,807,807,807,807,807,807,807,807,807,807,807,807,807,807,807,807,807,807,807,807,807,807,807,807,807,807,808,814,834,917,955,990,1029,1094,1107],"ymouse":[616,616,616,616,616,616,616,616,616,616,616,616,616,616,616,616,616,616,616,616,616,616,616,616,616,616,616,616,616,616,603,557,437,394,351,287,146,87],"timestamp_mouse":[11,38,44,64,83,105,125,145,165,184,203,225,245,265,284,304,325,345,364,383,404,425,444,465,484,504,523,543,564,584,603,623,644,665,685,705,725,743],"xSR":741.5,"ySR":573.95,"xT1":424.9,"yT1":0,"xT2":1058.1,"yT2":0,"toosoon":0,"cond_shown":"equaldotsize","ratio_trial":500,"smaller_num":"5","larger_num":"10","correct_side":2,"subjID":"santiagofernandojaramillomatamoros19","gender":"0","age":"11","school":"6"},{"start_time":1551887490084,"click_time":1551887491039,"finger_time":1551887490799,"fix_duration":263.6841616851623,"trial":8,"RT":715,"MT":240,"sideResp":2,"stimulus":"img/900/equaldotanddens/L/1_Ratio_900_L_10_R_9.png","xmouse":[763,763,763,763,763,763,763,763,763,763,763,763,763,763,763,763,763,763,763,763,763,769,772,773,773,773,773,773,773,773,773,773,773,777,798,865,990,1030,1068,1089,1105,1109,1110,1111,1113,1115,1118,1118],"ymouse":[628,628,628,628,628,628,628,628,628,628,628,628,628,628,628,628,628,628,628,628,628,624,623,622,622,622,622,622,622,622,622,622,622,618,591,498,321,262,214,177,142,130,128,127,123,119,104,96],"timestamp_mouse":[15,35,54,74,95,115,134,155,175,195,214,235,255,275,295,316,335,355,376,395,415,434,456,475,495,515,534,555,576,594,616,634,655,674,695,715,734,756,776,796,815,834,855,876,895,915,935,955],"xSR":741.5,"ySR":573.95,"xT1":424.9,"yT1":0,"xT2":1058.1,"yT2":0,"toosoon":0,"cond_shown":"equaldotanddens","ratio_trial":900,"smaller_num":"9","larger_num":"10","correct_side":1,"subjID":"santiagofernandojaramillomatamoros19","gender":"0","age":"11","school":"6"},{"start_time":1551887492349,"click_time":1551887493660,"finger_time":1551887493400,"fix_duration":588.4454562198117,"trial":9,"RT":1051,"MT":260,"sideResp":1,"stimulus":"img/750/randomdotsizeEA/R/2_Ratio_750_L_6_R_8.png","xmouse":[792,792,792,792,792,792,792,792,792,792,792,792,792,792,792,792,792,792,792,792,792,792,792,792,792,792,792,792,792,792,792,792,792,792,792,792,792,792,792,792,792,792,792,792,792,792,792,792,792,792,791,785,764,698,650,590,579,570,570,570,570,570,567,550,538,520],"ymouse":[637,637,637,637,637,637,637,637,637,637,637,637,637,637,637,637,637,637,637,637,637,637,637,637,637,637,637,637,637,637,637,637,637,637,637,637,637,637,637,637,637,637,637,637,637,637,637,637,637,637,612,588,522,313,195,98,86,72,71,71,71,70,70,68,66,61],"timestamp_mouse":[11,39,51,71,90,110,131,150,170,191,210,229,250,271,289,311,330,351,371,390,410,430,450,470,490,510,531,549,571,591,609,630,649,670,690,710,729,750,771,789,811,830,851,869,890,910,930,949,970,990,1011,1029,1051,1069,1089,1110,1130,1150,1171,1191,1210,1229,1249,1269,1291,1311],"xSR":741.5,"ySR":573.95,"xT1":424.9,"yT1":0,"xT2":1058.1,"yT2":0,"toosoon":0,"cond_shown":"randomdotsizeEA","ratio_trial":750,"smaller_num":"6","larger_num":"8","correct_side":2,"subjID":"santiagofernandojaramillomatamoros19","gender":"0","age":"11","school":"6"},{"start_time":1551887495864,"click_time":1551887497619,"finger_time":1551887497180,"fix_duration":1303.2175165334925,"trial":10,"RT":1316,"MT":439,"sideResp":2,"stimulus":"img/900/equaldotsize/L/1_Ratio_900_L_10_R_9.png","xmouse":[810,810,810,810,810,810,810,810,810,810,810,810,810,810,810,810,810,810,810,810,810,810,810,810,810,810,810,810,810,810,810,810,810,810,810,810,810,810,810,810,810,810,810,810,810,810,810,810,810,810,810,810,810,810,810,810,810,811,812,812,812,812,813,819,829,842,863,937,964,994,1009,1020,1032,1054,1062,1072,1081,1090,1101,1103,1104,1104,1104,1104,1104,1106,1108,1113],"ymouse":[595,595,595,595,595,595,595,595,595,595,595,595,595,595,595,595,595,595,595,595,595,595,595,595,595,595,595,595,595,595,595,595,595,595,595,595,595,595,595,595,595,595,595,595,595,595,595,595,595,595,595,595,595,595,595,595,596,596,596,596,596,596,596,591,574,553,510,294,194,94,50,29,11,0,0,0,0,0,0,0,0,0,0,0,0,0,0,1],"timestamp_mouse":[15,45,55,75,95,115,135,155,174,196,214,235,256,276,295,315,335,354,375,394,416,434,454,475,494,516,534,554,575,595,616,635,655,675,696,716,734,755,775,795,815,835,855,875,895,916,934,956,976,995,1016,1036,1054,1075,1096,1116,1135,1155,1174,1195,1214,1235,1254,1275,1295,1316,1335,1356,1375,1395,1415,1436,1454,1475,1494,1515,1536,1555,1574,1595,1615,1635,1656,1675,1695,1715,1734,1754],"xSR":741.5,"ySR":573.95,"xT1":424.9,"yT1":0,"xT2":1058.1,"yT2":0,"toosoon":0,"cond_shown":"equaldotsize","ratio_trial":900,"smaller_num":"9","larger_num":"10","correct_side":1,"subjID":"santiagofernandojaramillomatamoros19","gender":"0","age":"11","school":"6"},{"start_time":1551887499555,"click_time":1551887500639,"finger_time":1551887500258,"fix_duration":1135.415461672969,"trial":11,"RT":703,"MT":381,"sideResp":1,"stimulus":"img/500/equaldotanddens/L/5_Ratio_500_L_4_R_2.png","xmouse":[777,777,777,777,777,777,777,777,777,777,777,777,777,777,777,777,777,777,777,777,777,777,777,777,777,777,777,777,777,777,777,777,777,777,777,771,742,701,651,587,572,565,565,565,565,565,565,565,565,565,565,563,546,525,499],"ymouse":[624,624,624,624,624,624,624,624,624,624,624,624,624,624,624,624,624,624,624,624,624,624,624,624,624,624,624,624,624,624,624,624,624,624,612,513,415,319,221,130,110,102,101,101,101,101,101,101,101,101,101,99,90,82,69],"timestamp_mouse":[9,24,44,64,84,104,124,145,163,185,205,224,243,265,284,303,325,343,364,383,404,425,443,463,484,505,525,543,564,583,604,624,644,664,684,703,723,743,764,784,803,823,844,864,885,904,924,944,963,985,1003,1025,1044,1065,1084],"xSR":741.5,"ySR":573.95,"xT1":424.9,"yT1":0,"xT2":1058.1,"yT2":0,"toosoon":0,"cond_shown":"equaldotanddens","ratio_trial":500,"smaller_num":"2","larger_num":"4","correct_side":1,"subjID":"santiagofernandojaramillomatamoros19","gender":"0","age":"11","school":"6"},{"start_time":1551887503669,"click_time":1551887504439,"finger_time":1551887503919,"fix_duration":809.1518813769694,"trial":12,"RT":250,"MT":520,"sideResp":1,"stimulus":"img/250/equaldotsize/L/1_Ratio_250_L_8_R_2.png","xmouse":[799,799,799,799,799,799,799,799,799,799,799,799,820,868,893,911,935,952,960,971,981,991,1005,1022,1026,1032,1032,1032,1031,1012,957,860,754,653,550,535,528,526,518],"ymouse":[608,606,605,605,605,605,605,605,605,605,605,605,571,495,459,426,364,302,273,240,218,196,174,135,120,101,95,94,93,101,124,154,171,175,145,131,107,94,83],"timestamp_mouse":[10,30,50,70,90,111,131,151,170,191,211,229,250,270,289,310,330,350,370,390,410,429,451,470,490,509,531,550,570,589,610,630,651,670,691,710,729,751,769],"xSR":741.5,"ySR":573.95,"xT1":424.9,"yT1":0,"xT2":1058.1,"yT2":0,"toosoon":0,"cond_shown":"equaldotsize","ratio_trial":250,"smaller_num":"2","larger_num":"8","correct_side":1,"subjID":"santiagofernandojaramillomatamoros19","gender":"0","age":"11","school":"6"},{"start_time":1551887505651,"click_time":1551887506459,"finger_time":1551887506119,"fix_duration":250,"trial":13,"RT":468,"MT":340,"sideResp":1,"stimulus":"img/900/randomdotsizeEA/L/4_Ratio_900_L_20_R_18.png","xmouse":[785,785,785,785,785,785,785,785,785,785,785,785,785,785,785,785,785,785,785,785,785,785,784,776,761,696,620,569,538,530,530,530,530,530,530,530,530,530,530,530,522],"ymouse":[621,621,621,621,621,621,621,621,621,621,621,621,621,621,621,621,621,621,621,621,621,612,592,563,511,358,214,124,68,41,38,38,38,38,38,38,38,38,38,38,38],"timestamp_mouse":[9,35,49,68,88,108,128,147,169,188,207,229,247,268,287,307,329,347,367,389,409,427,449,468,489,509,527,547,569,589,608,628,647,667,689,708,727,748,768,789,808],"xSR":741.5,"ySR":573.95,"xT1":424.9,"yT1":0,"xT2":1058.1,"yT2":0,"toosoon":0,"cond_shown":"randomdotsizeEA","ratio_trial":900,"smaller_num":"18","larger_num":"20","correct_side":1,"subjID":"santiagofernandojaramillomatamoros19","gender":"0","age":"11","school":"6"},{"start_time":1551887508585,"click_time":1551887510340,"finger_time":1551887509159,"fix_duration":1324.3945955008835,"trial":14,"RT":574,"MT":1181,"sideResp":1,"stimulus":"img/500/randomdotsizeEA/L/11_Ratio_500_L_12_R_6.png","xmouse":[789,789,789,789,789,789,789,789,789,789,789,789,789,789,789,789,789,789,789,789,787,783,780,780,780,780,780,784,858,890,902,910,922,944,955,965,973,990,1001,1004,1007,1013,1019,1031,1035,1042,1047,1054,1056,1056,1056,1056,1056,1056,1056,1056,1056,1056,1056,1056,1056,1056,1056,1056,1056,1056,1056,1056,1056,1056,1054,1052,1051,1051,1050,1049,1047,1044,1032,1027,1024,1019,1009,934,838,727,624,518],"ymouse":[642,642,642,642,642,642,642,642,642,642,642,642,642,642,642,642,642,642,642,642,642,638,635,635,635,635,632,624,486,405,357,320,276,206,184,169,160,145,133,128,125,119,115,108,105,101,99,97,96,96,96,96,96,96,96,96,96,96,96,96,96,96,96,96,96,96,96,96,96,96,96,96,96,96,96,96,96,96,96,96,96,95,93,83,79,79,79,79],"timestamp_mouse":[13,38,54,75,94,114,134,153,174,195,213,234,254,274,295,314,335,354,374,393,414,434,455,474,494,515,533,555,574,594,614,634,655,675,694,714,733,754,774,794,815,834,855,874,894,914,933,955,974,995,1015,1034,1055,1074,1095,1115,1134,1155,1174,1194,1214,1234,1255,1274,1294,1314,1334,1354,1374,1393,1414,1435,1454,1475,1494,1514,1533,1554,1574,1595,1613,1634,1655,1675,1694,1715,1733,1754],"xSR":741.5,"ySR":573.95,"xT1":424.9,"yT1":0,"xT2":1058.1,"yT2":0,"toosoon":0,"cond_shown":"randomdotsizeEA","ratio_trial":500,"smaller_num":"6","larger_num":"12","correct_side":1,"subjID":"santiagofernandojaramillomatamoros19","gender":"0","age":"11","school":"6"},{"start_time":1551887513311,"click_time":1551887514059,"finger_time":1551887513640,"fix_duration":250,"trial":15,"RT":329,"MT":419,"sideResp":2,"stimulus":"img/900/randomdotsizeEA/L/2_Ratio_900_L_20_R_18.png","xmouse":[771,771,771,771,771,771,771,771,771,771,771,771,771,771,771,771,790,815,817,819,819,823,839,846,854,870,890,915,920,928,935,944,960,971,985,1006,1032,1081],"ymouse":[628,628,628,628,628,628,628,628,628,628,628,628,628,628,628,620,569,504,491,471,458,435,345,301,264,229,190,144,134,124,114,102,93,90,86,82,79,73],"timestamp_mouse":[8,37,48,68,89,109,129,149,168,188,208,227,249,267,288,309,329,347,367,388,408,429,449,467,488,508,528,547,568,588,608,627,647,667,687,708,728,747],"xSR":741.5,"ySR":573.95,"xT1":424.9,"yT1":0,"xT2":1058.1,"yT2":0,"toosoon":0,"cond_shown":"randomdotsizeEA","ratio_trial":900,"smaller_num":"18","larger_num":"20","correct_side":1,"subjID":"santiagofernandojaramillomatamoros19","gender":"0","age":"11","school":"6"},{"start_time":1551887515646,"click_time":1551887516318,"finger_time":1551887515979,"fix_duration":384.34031363132914,"trial":16,"RT":333,"MT":339,"sideResp":1,"stimulus":"img/750/equaldotsize/L/6_Ratio_750_L_24_R_18.png","xmouse":[801,801,801,801,801,801,801,801,801,801,801,801,801,797,792,778,724,692,657,622,554,523,512,508,506,503,502,500,499,499,500,500,500,499],"ymouse":[617,617,617,617,617,617,617,617,617,617,617,617,617,610,601,577,502,456,406,354,258,216,199,188,180,166,160,153,147,141,122,111,104,98],"timestamp_mouse":[17,41,53,73,94,114,133,153,173,192,212,232,252,272,293,313,333,352,373,392,414,433,452,473,494,513,533,553,573,593,613,632,652,672],"xSR":741.5,"ySR":573.95,"xT1":424.9,"yT1":0,"xT2":1058.1,"yT2":0,"toosoon":0,"cond_shown":"equaldotsize","ratio_trial":750,"smaller_num":"18","larger_num":"24","correct_side":1,"subjID":"santiagofernandojaramillomatamoros19","gender":"0","age":"11","school":"6"},{"start_time":1551887517130,"click_time":1551887518179,"finger_time":1551887517560,"fix_duration":250,"trial":17,"RT":430,"MT":619,"sideResp":1,"stimulus":"img/250/equaldotsize/L/2_Ratio_250_L_16_R_4.png","xmouse":[768,768,768,768,768,768,768,768,768,768,768,768,768,768,768,768,768,769,773,783,800,873,921,974,1027,1052,1060,1038,1013,986,962,923,899,862,815,757,695,615,565,531,502,486,466,462,461,459,459,459,465,472,480,494,500],"ymouse":[650,650,650,650,650,650,650,650,650,650,650,650,650,650,650,650,650,648,638,626,604,535,495,454,410,374,337,222,184,161,148,144,144,153,170,188,203,218,219,219,207,198,179,174,172,169,168,155,143,133,122,100,87],"timestamp_mouse":[10,39,49,69,88,110,128,149,168,190,210,228,249,270,289,309,329,349,369,388,408,430,449,469,489,509,528,549,570,590,610,629,649,668,689,709,728,749,768,788,808,828,849,870,890,909,928,949,968,988,1009,1030,1049],"xSR":741.5,"ySR":573.95,"xT1":424.9,"yT1":0,"xT2":1058.1,"yT2":0,"toosoon":0,"cond_shown":"equaldotsize","ratio_trial":250,"smaller_num":"4","larger_num":"16","correct_side":1,"subjID":"santiagofernandojaramillomatamoros19","gender":"0","age":"11","school":"6"},{"start_time":1551887519925,"click_time":1551887521319,"finger_time":1551887520578,"fix_duration":805.9420927002238,"trial":18,"RT":653,"MT":741,"sideResp":1,"stimulus":"img/250/randomdotsizeEA/L/5_Ratio_250_L_24_R_6.png","xmouse":[795,795,795,795,795,795,795,795,795,795,795,795,795,795,795,795,795,795,795,796,796,796,796,796,796,796,796,796,796,796,803,821,877,923,949,965,971,972,972,972,973,975,976,976,976,976,976,962,935,891,828,766,684,661,648,632,613,572,455,408,386,381,381,381,383,387,393,411,419,425],"ymouse":[648,648,648,648,648,648,648,648,648,648,648,648,648,648,648,648,648,648,648,649,649,649,649,649,649,649,649,649,649,643,619,583,494,386,321,269,237,185,163,146,135,129,116,111,108,107,107,106,107,115,123,129,131,129,124,116,113,109,109,109,109,109,109,108,100,94,87,73,68,63],"timestamp_mouse":[18,37,54,73,93,115,134,155,175,195,214,235,255,274,295,315,334,354,375,393,413,434,455,473,493,514,534,553,575,593,614,634,653,673,693,713,734,754,774,793,815,835,854,873,893,914,934,954,974,994,1014,1033,1053,1073,1094,1113,1134,1153,1175,1194,1214,1234,1255,1273,1294,1314,1334,1353,1373,1394],"xSR":741.5,"ySR":573.95,"xT1":424.9,"yT1":0,"xT2":1058.1,"yT2":0,"toosoon":0,"cond_shown":"randomdotsizeEA","ratio_trial":250,"smaller_num":"6","larger_num":"24","correct_side":1,"subjID":"santiagofernandojaramillomatamoros19","gender":"0","age":"11","school":"6"},{"start_time":1551887522862,"click_time":1551887524319,"finger_time":1551887523539,"fix_duration":900.4958894143886,"trial":19,"RT":677,"MT":780,"sideResp":2,"stimulus":"img/500/equaldotanddens/R/15_Ratio_500_L_1_R_2.png","xmouse":[807,807,807,807,807,807,807,807,807,807,807,807,807,807,807,807,807,807,807,807,807,807,807,807,807,807,807,807,807,807,807,809,829,863,910,961,986,1003,1018,1031,1048,1056,1060,1062,1065,1065,1065,1064,1063,1061,1059,1057,1057,1057,1057,1057,1057,1057,1057,1057,1057,1057,1057,1057,1057,1057,1057,1057,1057,1057,1057,1057,1059],"ymouse":[609,609,609,609,609,609,609,609,609,609,609,609,609,609,609,609,609,609,609,609,609,609,609,609,609,609,609,609,609,609,609,609,592,552,498,436,393,364,337,309,264,240,218,198,183,165,154,145,134,121,108,78,66,61,61,61,61,61,61,61,61,61,61,61,61,61,61,61,61,61,61,60,58],"timestamp_mouse":[17,37,58,76,98,117,137,157,176,196,216,238,257,276,297,317,338,357,377,397,416,437,458,477,498,518,538,556,578,596,618,638,657,677,696,718,736,757,778,796,817,837,857,876,896,918,936,957,977,998,1018,1038,1056,1077,1097,1117,1137,1157,1178,1197,1217,1237,1257,1278,1297,1317,1336,1358,1377,1398,1417,1438,1457],"xSR":741.5,"ySR":573.95,"xT1":424.9,"yT1":0,"xT2":1058.1,"yT2":0,"toosoon":0,"cond_shown":"equaldotanddens","ratio_trial":500,"smaller_num":"1","larger_num":"2","correct_side":2,"subjID":"santiagofernandojaramillomatamoros19","gender":"0","age":"11","school":"6"},{"start_time":1551887525569,"click_time":1551887526399,"finger_time":1551887526199,"fix_duration":370.11337107129503,"trial":20,"RT":630,"MT":200,"sideResp":2,"stimulus":"img/500/equaldotanddens/R/6_Ratio_500_L_9_R_18.png","xmouse":[818,818,818,818,818,818,818,818,818,818,818,818,818,818,818,818,818,818,818,818,818,818,818,818,818,818,818,818,818,819,833,945,993,1031,1058,1072,1074,1074,1074,1074,1074,1071],"ymouse":[635,635,635,635,635,635,635,635,635,635,635,635,635,635,635,635,635,635,635,635,635,635,635,635,635,635,635,635,635,634,618,502,422,355,298,249,194,172,154,135,118,77],"timestamp_mouse":[12,35,50,70,90,110,129,150,169,190,210,231,249,269,291,311,330,351,369,391,411,429,450,471,489,510,530,550,570,589,611,630,649,670,690,710,731,750,770,789,810,830],"xSR":741.5,"ySR":573.95,"xT1":424.9,"yT1":0,"xT2":1058.1,"yT2":0,"toosoon":0,"cond_shown":"equaldotanddens","ratio_trial":500,"smaller_num":"9","larger_num":"18","correct_side":2,"subjID":"santiagofernandojaramillomatamoros19","gender":"0","age":"11","school":"6"},{"start_time":1551887528263,"click_time":1551887529019,"finger_time":1551887528798,"fix_duration":762.8716448827937,"trial":21,"RT":535,"MT":221,"sideResp":1,"stimulus":"img/500/equaldotanddens/L/8_Ratio_500_L_8_R_4.png","xmouse":[778,778,778,778,778,778,778,778,778,778,778,778,778,778,778,778,778,778,778,778,778,778,778,778,778,777,761,743,711,675,636,588,580,574,563,554,525,513],"ymouse":[634,634,634,634,634,634,634,634,634,634,634,634,634,634,634,634,634,634,634,634,634,634,634,634,634,627,549,487,421,365,315,249,231,216,191,167,92,60],"timestamp_mouse":[17,36,56,76,97,117,136,157,177,195,217,235,257,277,295,316,337,356,376,396,416,435,457,477,496,515,535,556,575,596,615,636,657,677,695,715,736,756],"xSR":741.5,"ySR":573.95,"xT1":424.9,"yT1":0,"xT2":1058.1,"yT2":0,"toosoon":0,"cond_shown":"equaldotanddens","ratio_trial":500,"smaller_num":"4","larger_num":"8","correct_side":1,"subjID":"santiagofernandojaramillomatamoros19","gender":"0","age":"11","school":"6"},{"start_time":1551887531966,"click_time":1551887532759,"finger_time":1551887532440,"fix_duration":646.3781123970184,"trial":22,"RT":474,"MT":319,"sideResp":1,"stimulus":"img/900/equaldotsize/L/8_Ratio_900_L_20_R_18.png","xmouse":[783,783,783,783,783,783,783,783,783,783,783,783,783,783,783,783,783,783,783,783,783,781,770,744,719,682,623,606,601,595,589,575,567,560,553,543,531,483,472,467],"ymouse":[619,619,619,619,619,619,619,619,619,619,619,619,619,619,619,619,619,619,619,619,619,616,592,533,471,419,318,271,250,232,216,186,173,161,154,143,130,106,100,96],"timestamp_mouse":[12,32,53,74,93,113,132,154,172,194,212,234,253,272,293,314,333,354,373,393,414,434,453,474,492,513,534,553,572,593,613,634,653,673,694,712,733,753,773,793],"xSR":741.5,"ySR":573.95,"xT1":424.9,"yT1":0,"xT2":1058.1,"yT2":0,"toosoon":0,"cond_shown":"equaldotsize","ratio_trial":900,"smaller_num":"18","larger_num":"20","correct_side":1,"subjID":"santiagofernandojaramillomatamoros19","gender":"0","age":"11","school":"6"},{"start_time":1551887534102,"click_time":1551887535119,"finger_time":1551887534578,"fix_duration":481.73720521177165,"trial":23,"RT":476,"MT":541,"sideResp":2,"stimulus":"img/250/equaldotsize/R/12_Ratio_250_L_5_R_20.png","xmouse":[810,810,810,810,810,810,810,810,810,810,810,810,810,810,810,810,810,810,810,810,810,810,813,836,861,894,906,919,934,966,1037,1066,1086,1096,1100,1104,1106,1108,1109,1115,1125,1126,1126,1126,1126,1126,1126,1126,1123,1121,1097],"ymouse":[606,606,606,606,606,606,606,606,606,606,606,606,606,606,606,606,606,606,606,606,606,607,600,564,521,448,422,399,377,349,316,303,291,283,276,267,262,255,249,228,204,201,199,199,199,199,196,190,161,149,92],"timestamp_mouse":[16,37,58,78,97,118,137,157,177,197,218,238,258,277,297,317,337,358,376,398,417,437,457,476,498,518,537,558,577,597,617,637,656,677,697,717,737,756,776,796,816,837,857,878,896,917,936,957,977,997,1017],"xSR":741.5,"ySR":573.95,"xT1":424.9,"yT1":0,"xT2":1058.1,"yT2":0,"toosoon":0,"cond_shown":"equaldotsize","ratio_trial":250,"smaller_num":"5","larger_num":"20","correct_side":2,"subjID":"santiagofernandojaramillomatamoros19","gender":"0","age":"11","school":"6"},{"start_time":1551887536677,"click_time":1551887537599,"finger_time":1551887537300,"fix_duration":575.1924577415851,"trial":24,"RT":623,"MT":299,"sideResp":2,"stimulus":"img/900/equaldotanddens/R/14_Ratio_900_L_18_R_20.png","xmouse":[808,808,808,808,808,808,808,808,808,808,808,808,808,808,808,808,808,808,808,808,808,808,808,808,808,808,808,808,808,808,808,857,889,930,933,930,924,923,925,930,942,952,990,1008,1030,1050,1073],"ymouse":[599,599,599,599,599,599,599,599,599,599,599,599,599,599,599,599,599,599,599,599,599,599,599,599,599,599,599,599,599,599,600,537,432,268,220,180,154,133,124,118,108,102,87,81,76,70,65],"timestamp_mouse":[8,21,42,63,82,103,122,142,162,182,202,222,242,262,283,302,322,341,361,382,403,421,441,462,481,501,521,541,563,581,603,623,641,661,681,702,722,742,762,782,801,822,842,862,882,902,922],"xSR":741.5,"ySR":573.95,"xT1":424.9,"yT1":0,"xT2":1058.1,"yT2":0,"toosoon":0,"cond_shown":"equaldotanddens","ratio_trial":900,"smaller_num":"18","larger_num":"20","correct_side":2,"subjID":"santiagofernandojaramillomatamoros19","gender":"0","age":"11","school":"6"},{"start_time":1551887543612,"click_time":1551887544538,"finger_time":1551887544239,"fix_duration":651.9134083770534,"trial":25,"RT":627,"MT":299,"sideResp":2,"stimulus":"img/900/randomdotsizeEA/L/8_Ratio_900_L_20_R_18.png","xmouse":[804,804,804,804,804,804,804,804,804,804,804,804,804,804,804,804,804,804,804,804,804,804,804,804,804,804,804,804,804,807,837,950,996,1036,1058,1069,1076,1078,1078,1078,1078,1078,1080,1081,1081,1081,1081],"ymouse":[639,639,639,639,639,639,639,639,639,639,639,639,639,639,639,639,639,639,639,639,639,639,639,639,639,639,639,639,638,635,596,437,388,354,331,306,259,238,219,199,186,157,147,135,118,101,69],"timestamp_mouse":[10,41,48,67,87,108,127,147,167,188,206,227,248,268,286,308,328,347,367,387,408,427,447,468,487,507,528,548,566,586,606,627,647,668,687,706,727,747,767,787,807,827,847,868,886,906,926],"xSR":741.5,"ySR":573.95,"xT1":424.9,"yT1":0,"xT2":1058.1,"yT2":0,"toosoon":0,"cond_shown":"randomdotsizeEA","ratio_trial":900,"smaller_num":"18","larger_num":"20","correct_side":1,"subjID":"santiagofernandojaramillomatamoros19","gender":"0","age":"11","school":"6"},{"start_time":1551887545642,"click_time":1551887546658,"finger_time":1551887546079,"fix_duration":261.2886363417488,"trial":26,"RT":437,"MT":579,"sideResp":1,"stimulus":"img/750/equaldotsize/L/6_Ratio_750_L_24_R_18.png","xmouse":[791,791,791,791,791,791,791,791,791,791,791,791,791,791,791,791,791,791,791,790,810,854,908,953,1015,1033,1038,1038,1038,1043,1045,1046,1046,1047,1047,1047,1047,1047,1047,1010,973,918,861,820,765,737,712,671,631,533,494],"ymouse":[652,652,652,652,652,652,652,652,652,652,652,652,652,652,652,652,652,652,652,648,600,518,422,332,187,144,111,86,67,52,49,48,47,46,46,46,46,46,45,45,45,45,45,45,45,45,44,43,43,43,49],"timestamp_mouse":[30,37,56,77,97,117,138,157,177,197,217,237,257,277,296,316,336,356,377,397,417,437,456,476,497,517,536,556,577,597,617,636,657,676,697,717,737,758,777,796,816,836,857,876,896,916,938,958,977,998,1016],"xSR":741.5,"ySR":573.95,"xT1":424.9,"yT1":0,"xT2":1058.1,"yT2":0,"toosoon":0,"cond_shown":"equaldotsize","ratio_trial":750,"smaller_num":"18","larger_num":"24","correct_side":1,"subjID":"santiagofernandojaramillomatamoros19","gender":"0","age":"11","school":"6"},{"start_time":1551887552340,"click_time":1551887553299,"finger_time":1551887553059,"fix_duration":719.0479781067306,"trial":27,"RT":719,"MT":240,"sideResp":1,"stimulus":"img/500/randomdotsizeEA/L/10_Ratio_500_L_4_R_2.png","xmouse":[781,781,781,781,781,781,781,781,781,781,781,781,781,781,781,782,784,785,787,787,787,787,787,787,787,787,787,787,787,787,787,787,787,787,788,788,780,766,743,690,561,521,512,509,503,496,467,445,429],"ymouse":[643,643,643,643,643,643,643,643,643,643,643,643,643,643,643,639,636,634,632,632,632,632,632,632,632,632,632,632,632,632,632,632,632,632,619,599,529,480,414,326,188,167,160,157,152,145,121,108,98],"timestamp_mouse":[1,35,39,59,80,99,119,139,159,179,198,219,239,258,278,300,318,339,359,378,398,418,440,458,480,498,518,538,558,579,599,618,639,659,679,698,719,738,759,779,799,818,838,860,880,899,919,938,958],"xSR":741.5,"ySR":573.95,"xT1":424.9,"yT1":0,"xT2":1058.1,"yT2":0,"toosoon":0,"cond_shown":"randomdotsizeEA","ratio_trial":500,"smaller_num":"2","larger_num":"4","correct_side":1,"subjID":"santiagofernandojaramillomatamoros19","gender":"0","age":"11","school":"6"},{"start_time":1551887555142,"click_time":1551887556180,"finger_time":1551887555758,"fix_duration":1220.5177692634118,"trial":28,"RT":616,"MT":422,"sideResp":2,"stimulus":"img/750/randomdotsizeEA/L/10_Ratio_750_L_4_R_3.png","xmouse":[826,826,826,826,826,826,826,826,826,826,826,826,826,826,826,826,826,826,826,824,824,824,824,824,825,825,825,825,827,833,862,890,917,946,966,996,1005,1015,1018,1022,1032,1042,1052,1062,1072,1083,1089,1094,1098,1103,1109,1111],"ymouse":[653,653,653,653,653,653,653,653,653,653,653,653,653,653,653,653,653,652,647,644,643,643,643,642,641,641,641,641,638,623,525,458,391,331,285,216,200,189,186,184,174,162,149,139,131,127,126,123,120,114,103,99],"timestamp_mouse":[18,37,56,77,97,117,138,156,176,197,216,237,256,278,297,316,336,357,376,396,418,437,458,476,496,516,536,557,577,597,616,636,656,676,697,717,736,758,776,797,816,837,856,878,898,917,936,958,977,996,1017,1038],"xSR":741.5,"ySR":573.95,"xT1":424.9,"yT1":0,"xT2":1058.1,"yT2":0,"toosoon":0,"cond_shown":"randomdotsizeEA","ratio_trial":750,"smaller_num":"3","larger_num":"4","correct_side":1,"subjID":"santiagofernandojaramillomatamoros19","gender":"0","age":"11","school":"6"},{"start_time":1551887558258,"click_time":1551887559259,"finger_time":1551887558658,"fix_duration":1139.306081840368,"trial":29,"RT":400,"MT":601,"sideResp":1,"stimulus":"img/250/equaldotanddens/L/7_Ratio_250_L_8_R_2.png","xmouse":[824,824,824,824,824,824,824,824,824,824,824,824,824,824,824,824,824,824,817,809,786,760,730,686,661,586,546,519,511,507,506,506,504,501,498,495,494,492,486,474,446,442,441,441,442,447,448,449,450,450,451],"ymouse":[634,634,634,634,634,634,634,634,634,634,634,634,634,634,634,634,634,616,598,583,550,511,465,406,381,317,277,243,231,221,208,201,195,187,182,175,161,152,139,123,108,106,106,106,103,100,100,100,100,100,99],"timestamp_mouse":[8,36,41,61,81,100,120,140,160,180,201,220,242,260,280,302,321,341,360,381,400,420,440,461,480,500,521,540,562,580,601,620,640,661,681,700,721,740,761,780,801,821,840,861,880,901,920,940,960,980,1001],"xSR":741.5,"ySR":573.95,"xT1":424.9,"yT1":0,"xT2":1058.1,"yT2":0,"toosoon":0,"cond_shown":"equaldotanddens","ratio_trial":250,"smaller_num":"2","larger_num":"8","correct_side":1,"subjID":"santiagofernandojaramillomatamoros19","gender":"0","age":"11","school":"6"},{"start_time":1551887565357,"click_time":1551887566340,"finger_time":1551887566078,"fix_duration":1095.7529151016133,"trial":30,"RT":721,"MT":262,"sideResp":2,"stimulus":"img/900/equaldotanddens/R/9_Ratio_900_L_18_R_20.png","xmouse":[815,815,815,815,815,815,815,815,815,815,815,815,815,815,815,815,815,815,815,815,815,815,815,815,815,815,815,815,815,815,815,815,815,815,814,823,846,862,878,897,913,945,960,966,970,978,1015,1042,1073,1099],"ymouse":[621,621,621,621,621,621,621,621,621,621,621,621,621,621,621,621,621,621,621,621,621,621,621,621,621,621,621,621,621,621,621,621,621,621,615,593,546,507,465,417,372,296,272,258,244,229,181,153,124,96],"timestamp_mouse":[10,34,42,62,82,101,122,142,162,182,202,223,241,261,282,301,322,341,362,382,403,422,442,462,482,502,521,542,561,583,601,623,641,661,682,701,721,741,761,782,802,822,842,861,882,903,921,941,961,982],"xSR":741.5,"ySR":573.95,"xT1":424.9,"yT1":0,"xT2":1058.1,"yT2":0,"toosoon":0,"cond_shown":"equaldotanddens","ratio_trial":900,"smaller_num":"18","larger_num":"20","correct_side":2,"subjID":"santiagofernandojaramillomatamoros19","gender":"0","age":"11","school":"6"},{"start_time":1551887568667,"click_time":1551887570279,"finger_time":1551887569979,"fix_duration":1287.376144864324,"trial":31,"RT":1312,"MT":300,"sideResp":2,"stimulus":"img/750/randomdotsizeEA/L/1_Ratio_750_L_20_R_15.png","xmouse":[771,771,771,771,771,771,771,771,771,771,771,771,771,771,771,771,771,771,771,771,771,771,771,771,771,771,771,771,771,771,771,771,771,771,771,771,771,771,771,771,771,771,771,771,771,771,771,771,771,771,771,771,771,771,771,771,771,771,771,771,771,771,771,773,784,874,901,962,1041,1078,1106,1109,1112,1113,1113,1114,1114,1114,1114,1114,1114],"ymouse":[596,596,596,596,596,596,596,596,596,596,596,596,596,596,596,596,596,596,596,596,596,596,596,596,596,596,596,596,596,596,596,596,596,596,596,596,596,596,596,596,596,596,596,596,596,596,596,596,596,596,596,596,596,596,596,596,596,596,596,596,596,596,596,595,576,397,354,267,181,152,127,122,116,114,111,101,101,101,101,100,99],"timestamp_mouse":[11,45,52,71,97,112,131,151,172,193,212,231,251,271,291,311,331,352,371,391,412,433,451,471,491,512,533,551,571,591,611,632,651,671,691,712,731,751,773,792,812,832,852,871,891,911,932,952,973,991,1012,1031,1052,1072,1092,1111,1131,1152,1171,1193,1211,1232,1251,1271,1292,1312,1332,1352,1372,1392,1411,1432,1452,1472,1492,1512,1532,1551,1572,1593,1612],"xSR":741.5,"ySR":573.95,"xT1":424.9,"yT1":0,"xT2":1058.1,"yT2":0,"toosoon":0,"cond_shown":"randomdotsizeEA","ratio_trial":750,"smaller_num":"15","larger_num":"20","correct_side":1,"subjID":"santiagofernandojaramillomatamoros19","gender":"0","age":"11","school":"6"},{"start_time":1551887573130,"click_time":1551887573680,"finger_time":1551887573520,"fix_duration":250,"trial":32,"RT":390,"MT":160,"sideResp":1,"stimulus":"img/900/randomdotsizeEA/R/11_Ratio_900_L_18_R_20.png","xmouse":[801,801,801,801,801,801,801,801,801,801,801,801,801,801,801,801,801,801,796,789,774,750,665,601,577,562,545,513],"ymouse":[609,609,609,609,609,609,609,609,609,609,609,609,609,609,609,609,609,609,595,571,518,437,262,179,146,125,101,58],"timestamp_mouse":[9,35,49,68,89,110,129,150,168,188,209,228,250,270,288,308,329,348,368,390,408,428,449,468,488,509,528,550],"xSR":741.5,"ySR":573.95,"xT1":424.9,"yT1":0,"xT2":1058.1,"yT2":0,"toosoon":0,"cond_shown":"randomdotsizeEA","ratio_trial":900,"smaller_num":"18","larger_num":"20","correct_side":2,"subjID":"santiagofernandojaramillomatamoros19","gender":"0","age":"11","school":"6"},{"start_time":1551887575347,"click_time":1551887576258,"finger_time":1551887575958,"fix_duration":726.2021060003001,"trial":33,"RT":611,"MT":300,"sideResp":2,"stimulus":"img/500/randomdotsizeEA/R/12_Ratio_500_L_1_R_2.png","xmouse":[774,774,774,774,774,774,774,774,774,774,774,774,774,774,774,774,774,774,774,774,774,774,774,774,774,774,774,774,774,780,828,880,1024,1103,1158,1177,1181,1181,1180,1180,1180,1179,1177,1170,1164,1155],"ymouse":[625,625,625,625,625,625,625,625,625,625,625,625,625,625,625,625,625,625,625,625,625,625,625,625,625,625,625,625,625,622,560,474,288,199,144,121,111,105,93,92,91,88,85,77,73,68],"timestamp_mouse":[11,37,53,73,91,112,131,151,172,191,211,232,252,272,293,311,331,352,372,392,412,433,453,471,491,511,531,552,572,592,611,631,653,671,692,712,732,751,772,792,812,831,852,872,892,911],"xSR":741.5,"ySR":573.95,"xT1":424.9,"yT1":0,"xT2":1058.1,"yT2":0,"toosoon":0,"cond_shown":"randomdotsizeEA","ratio_trial":500,"smaller_num":"1","larger_num":"2","correct_side":2,"subjID":"santiagofernandojaramillomatamoros19","gender":"0","age":"11","school":"6"},{"start_time":1551887577906,"click_time":1551887579199,"finger_time":1551887578480,"fix_duration":687.7037574504567,"trial":34,"RT":574,"MT":719,"sideResp":1,"stimulus":"img/750/randomdotsizeEA/L/6_Ratio_750_L_24_R_18.png","xmouse":[828,828,828,828,828,828,828,828,828,828,828,828,828,828,828,828,828,828,828,828,828,828,828,828,828,828,828,832,846,893,949,968,971,968,958,925,896,862,822,719,484,364,279,238,229,221,221,222,226,244,275,289,301,312,323,341,346,350,354,354,354,355,369,409,474],"ymouse":[617,617,617,617,617,617,617,617,617,617,617,617,617,617,617,617,617,617,617,617,617,617,617,617,617,617,617,617,606,523,379,335,315,302,289,270,259,248,236,199,110,67,33,13,8,0,0,0,0,0,0,0,0,0,0,4,5,6,7,7,7,7,7,13,21],"timestamp_mouse":[13,42,53,73,92,113,132,154,173,192,213,232,253,272,293,314,332,352,373,394,413,432,453,472,493,513,532,552,574,593,612,632,653,674,694,712,733,753,773,792,812,833,853,873,893,914,932,953,972,993,1012,1032,1053,1072,1094,1113,1134,1154,1173,1193,1213,1233,1253,1274,1293],"xSR":741.5,"ySR":573.95,"xT1":424.9,"yT1":0,"xT2":1058.1,"yT2":0,"toosoon":0,"cond_shown":"randomdotsizeEA","ratio_trial":750,"smaller_num":"18","larger_num":"24","correct_side":1,"subjID":"santiagofernandojaramillomatamoros19","gender":"0","age":"11","school":"6"},{"start_time":1551887580543,"click_time":1551887581439,"finger_time":1551887581059,"fix_duration":303.76110794710064,"trial":35,"RT":516,"MT":380,"sideResp":1,"stimulus":"img/500/randomdotsizeEA/L/7_Ratio_500_L_10_R_5.png","xmouse":[793,793,793,793,793,793,793,793,793,793,793,793,793,793,793,793,793,793,793,793,793,793,793,793,799,808,813,817,821,821,822,815,805,778,757,698,649,607,536,518,503,499,498,492,488],"ymouse":[588,588,588,588,588,588,588,588,588,588,588,588,588,588,588,588,588,588,588,588,588,588,588,588,581,556,541,526,482,446,406,381,357,313,289,245,213,189,144,132,120,114,112,103,97],"timestamp_mouse":[19,41,56,75,95,115,135,156,175,196,216,236,257,275,296,316,335,356,376,396,415,435,455,475,496,516,535,556,575,595,616,636,657,676,697,715,736,756,776,796,815,836,856,876,896],"xSR":741.5,"ySR":573.95,"xT1":424.9,"yT1":0,"xT2":1058.1,"yT2":0,"toosoon":0,"cond_shown":"randomdotsizeEA","ratio_trial":500,"smaller_num":"5","larger_num":"10","correct_side":1,"subjID":"santiagofernandojaramillomatamoros19","gender":"0","age":"11","school":"6"},{"start_time":1551887584771,"click_time":1551887585599,"finger_time":1551887585198,"fix_duration":250,"trial":36,"RT":427,"MT":401,"sideResp":2,"stimulus":"img/250/randomdotsizeEA/R/11_Ratio_250_L_3_R_12.png","xmouse":[767,767,767,767,767,767,767,767,767,767,767,767,767,767,767,767,767,767,767,766,762,757,736,682,628,583,556,548,548,548,548,548,548,652,752,877,988,1057,1097,1099,1100,1100],"ymouse":[637,637,637,637,637,637,637,637,637,637,637,637,637,637,637,637,637,637,637,631,605,566,483,345,264,201,162,138,134,133,133,133,132,140,151,157,157,155,135,124,109,94],"timestamp_mouse":[9,27,47,68,88,108,127,147,167,189,207,227,247,269,288,307,327,347,367,389,407,427,449,468,488,508,528,548,567,587,609,627,648,668,687,707,728,748,768,789,808,828],"xSR":741.5,"ySR":573.95,"xT1":424.9,"yT1":0,"xT2":1058.1,"yT2":0,"toosoon":0,"cond_shown":"randomdotsizeEA","ratio_trial":250,"smaller_num":"3","larger_num":"12","correct_side":2,"subjID":"santiagofernandojaramillomatamoros19","gender":"0","age":"11","school":"6"},{"start_time":1551887587863,"click_time":1551887588639,"finger_time":1551887588338,"fix_duration":1382.2241465039915,"trial":37,"RT":475,"MT":301,"sideResp":2,"stimulus":"img/750/equaldotanddens/R/2_Ratio_750_L_6_R_8.png","xmouse":[783,783,783,783,783,783,783,783,783,783,783,783,783,783,783,783,783,783,783,783,788,794,812,879,895,906,917,927,943,949,956,963,968,975,978,994,1009,1031,1073],"ymouse":[641,641,641,641,641,641,641,641,641,641,641,641,641,641,641,641,641,641,641,641,638,632,612,507,472,443,405,365,286,260,237,214,189,166,155,132,117,102,85],"timestamp_mouse":[17,44,57,76,95,117,136,156,175,195,216,235,256,276,296,315,336,356,375,395,417,435,457,475,496,516,536,556,577,595,615,636,655,675,696,716,736,756,776],"xSR":741.5,"ySR":573.95,"xT1":424.9,"yT1":0,"xT2":1058.1,"yT2":0,"toosoon":0,"cond_shown":"equaldotanddens","ratio_trial":750,"smaller_num":"6","larger_num":"8","correct_side":2,"subjID":"santiagofernandojaramillomatamoros19","gender":"0","age":"11","school":"6"},{"start_time":1551887590141,"click_time":1551887590920,"finger_time":1551887590758,"fix_duration":661.8142531259399,"trial":38,"RT":617,"MT":162,"sideResp":1,"stimulus":"img/750/randomdotsizeEA/L/13_Ratio_750_L_8_R_6.png","xmouse":[780,780,780,780,780,780,780,780,780,780,780,780,780,780,780,780,780,780,780,780,780,780,780,780,780,780,780,780,780,771,728,660,596,551,520,488,481,476,472],"ymouse":[657,657,657,657,657,657,657,657,657,657,657,657,657,657,657,657,657,657,657,657,657,657,657,657,657,657,657,657,640,596,492,382,307,260,219,150,130,112,96],"timestamp_mouse":[30,38,57,78,97,118,139,158,177,199,218,237,257,277,297,317,338,358,377,399,418,437,457,478,497,518,538,557,579,597,617,638,657,678,697,718,737,758,779],"xSR":741.5,"ySR":573.95,"xT1":424.9,"yT1":0,"xT2":1058.1,"yT2":0,"toosoon":0,"cond_shown":"randomdotsizeEA","ratio_trial":750,"smaller_num":"6","larger_num":"8","correct_side":1,"subjID":"santiagofernandojaramillomatamoros19","gender":"0","age":"11","school":"6"},{"start_time":1551887592074,"click_time":1551887593419,"finger_time":1551887592698,"fix_duration":493.1832807449912,"trial":39,"RT":624,"MT":721,"sideResp":1,"stimulus":"img/900/equaldotsize/L/4_Ratio_900_L_20_R_18.png","xmouse":[819,819,819,819,819,819,819,819,819,819,819,819,819,819,819,819,819,819,819,819,819,819,819,819,819,819,819,819,819,819,821,826,826,814,814,840,862,892,906,917,919,920,921,931,934,935,935,935,935,927,914,891,845,780,655,634,617,610,594,583,573,565,557,547,538,535,530,524],"ymouse":[651,651,651,651,651,651,651,651,651,651,651,651,651,651,651,651,651,651,651,651,651,651,651,651,651,651,651,651,651,651,631,572,512,402,336,221,158,111,93,77,75,73,70,63,59,58,57,57,57,57,57,57,58,65,83,86,88,89,91,93,94,96,96,96,96,95,93,92],"timestamp_mouse":[6,31,44,65,84,105,125,144,165,184,205,225,244,264,284,304,325,346,364,385,404,425,446,464,484,504,525,546,564,584,606,624,644,664,686,705,725,745,764,785,805,825,845,864,884,905,924,945,964,984,1005,1024,1046,1064,1084,1104,1124,1146,1164,1184,1204,1225,1244,1265,1284,1305,1325,1345],"xSR":741.5,"ySR":573.95,"xT1":424.9,"yT1":0,"xT2":1058.1,"yT2":0,"toosoon":0,"cond_shown":"equaldotsize","ratio_trial":900,"smaller_num":"18","larger_num":"20","correct_side":1,"subjID":"santiagofernandojaramillomatamoros19","gender":"0","age":"11","school":"6"},{"start_time":1551887595515,"click_time":1551887596298,"finger_time":1551887595998,"fix_duration":1373.9393604760796,"trial":40,"RT":483,"MT":300,"sideResp":2,"stimulus":"img/250/equaldotsize/R/10_Ratio_250_L_4_R_16.png","xmouse":[781,781,781,781,781,781,781,781,781,781,781,781,781,781,781,781,781,781,781,781,781,781,788,808,830,854,886,953,971,979,981,981,982,985,992,1004,1014,1037,1050,1064],"ymouse":[633,633,633,633,633,633,633,633,633,633,633,633,633,633,633,633,633,633,633,633,633,633,632,599,543,476,413,294,254,223,197,162,137,123,109,96,84,67,60,55],"timestamp_mouse":[8,23,44,63,84,103,125,145,164,184,203,224,243,263,284,303,325,344,363,384,404,424,445,463,483,504,525,543,563,585,604,624,644,663,683,704,724,744,763,783],"xSR":741.5,"ySR":573.95,"xT1":424.9,"yT1":0,"xT2":1058.1,"yT2":0,"toosoon":0,"cond_shown":"equaldotsize","ratio_trial":250,"smaller_num":"4","larger_num":"16","correct_side":2,"subjID":"santiagofernandojaramillomatamoros19","gender":"0","age":"11","school":"6"},{"start_time":1551887598543,"click_time":1551887599258,"finger_time":1551887599119,"fix_duration":1184.280834361395,"trial":41,"RT":576,"MT":139,"sideResp":1,"stimulus":"img/750/equaldotsize/L/9_Ratio_750_L_4_R_3.png","xmouse":[833,833,833,833,833,833,833,833,833,833,833,833,833,833,833,833,833,833,833,833,833,833,833,833,833,833,833,833,823,793,654,590,539,499,476,467],"ymouse":[597,597,597,597,597,597,597,597,597,597,597,597,597,597,597,597,597,597,597,597,597,597,597,597,597,597,597,597,567,462,256,201,156,122,103,94],"timestamp_mouse":[15,42,57,76,95,117,136,157,177,195,215,237,255,276,296,315,335,357,375,396,415,436,455,476,496,517,536,556,576,596,615,636,655,676,695,715],"xSR":741.5,"ySR":573.95,"xT1":424.9,"yT1":0,"xT2":1058.1,"yT2":0,"toosoon":0,"cond_shown":"equaldotsize","ratio_trial":750,"smaller_num":"3","larger_num":"4","correct_side":1,"subjID":"santiagofernandojaramillomatamoros19","gender":"0","age":"11","school":"6"},{"start_time":1551887600619,"click_time":1551887601760,"finger_time":1551887601179,"fix_duration":499.9817236425158,"trial":42,"RT":560,"MT":581,"sideResp":2,"stimulus":"img/750/equaldotanddens/R/15_Ratio_750_L_9_R_12.png","xmouse":[808,808,808,808,808,808,808,808,808,808,808,808,808,808,808,808,808,808,808,808,808,808,808,808,808,808,819,848,880,913,942,1011,1038,1061,1068,1070,1071,1071,1072,1073,1073,1073,1073,1073,1073,1073,1073,1073,1073,1073,1073,1073,1073,1073,1073,1073,1077],"ymouse":[624,624,624,624,624,624,624,624,624,624,624,624,624,624,624,624,624,624,624,624,624,624,624,624,624,624,606,513,394,286,186,39,11,0,0,0,0,0,0,0,0,0,0,0,0,0,0,0,0,0,0,0,0,0,0,0,10],"timestamp_mouse":[21,40,60,79,100,119,140,159,179,200,221,241,259,279,299,319,339,359,380,400,419,440,459,480,500,520,540,560,580,599,619,640,659,680,699,719,741,760,779,800,819,839,859,880,900,920,939,960,980,1000,1020,1040,1060,1080,1099,1119,1141],"xSR":741.5,"ySR":573.95,"xT1":424.9,"yT1":0,"xT2":1058.1,"yT2":0,"toosoon":0,"cond_shown":"equaldotanddens","ratio_trial":750,"smaller_num":"9","larger_num":"12","correct_side":2,"subjID":"santiagofernandojaramillomatamoros19","gender":"0","age":"11","school":"6"},{"start_time":1551887603633,"click_time":1551887604679,"finger_time":1551887604198,"fix_duration":953.280730627012,"trial":43,"RT":565,"MT":481,"sideResp":2,"stimulus":"img/500/randomdotsizeEA/R/6_Ratio_500_L_9_R_18.png","xmouse":[819,818,818,817,815,815,815,815,815,815,815,815,815,815,815,815,815,815,815,815,815,815,815,815,815,815,815,818,846,879,930,967,1005,1018,1024,1027,1031,1039,1040,1043,1046,1047,1049,1050,1050,1050,1050,1050,1053,1053,1053,1054,1061],"ymouse":[601,601,601,602,603,603,603,603,603,603,603,603,603,603,603,603,603,603,603,603,603,603,603,603,603,603,603,601,548,470,362,291,209,171,137,111,92,67,59,52,38,34,28,27,27,27,27,27,26,26,26,26,26],"timestamp_mouse":[6,26,45,66,85,105,126,146,166,187,206,227,247,266,286,306,327,346,366,386,407,426,446,465,485,505,525,545,565,585,605,625,646,665,685,705,727,745,765,785,806,825,845,865,886,906,926,946,966,986,1005,1026,1046],"xSR":741.5,"ySR":573.95,"xT1":424.9,"yT1":0,"xT2":1058.1,"yT2":0,"toosoon":0,"cond_shown":"randomdotsizeEA","ratio_trial":500,"smaller_num":"9","larger_num":"18","correct_side":2,"subjID":"santiagofernandojaramillomatamoros19","gender":"0","age":"11","school":"6"},{"start_time":1551887606275,"click_time":1551887607177,"finger_time":1551887606817,"fix_duration":757.8280205149101,"trial":44,"RT":542,"MT":360,"sideResp":2,"stimulus":"img/250/equaldotsize/R/12_Ratio_250_L_5_R_20.png","xmouse":[798,798,798,798,798,798,798,798,798,798,798,798,798,798,798,798,798,798,798,798,798,798,798,798,798,798,822,841,929,982,1013,1037,1043,1044,1046,1051,1054,1058,1058,1058,1058,1058,1058,1058,1058,1059],"ymouse":[632,632,632,632,632,632,632,632,632,632,632,632,632,632,632,632,632,632,632,632,632,632,632,632,632,632,575,530,355,242,172,109,93,81,73,61,56,50,50,50,50,50,49,49,49,48],"timestamp_mouse":[11,29,42,62,82,102,122,142,163,182,203,223,243,263,283,302,322,342,363,382,403,422,442,463,482,503,522,542,562,583,602,623,642,663,682,702,722,743,762,782,802,822,842,862,883,902],"xSR":741.5,"ySR":573.95,"xT1":424.9,"yT1":0,"xT2":1058.1,"yT2":0,"toosoon":0,"cond_shown":"equaldotsize","ratio_trial":250,"smaller_num":"5","larger_num":"20","correct_side":2,"subjID":"santiagofernandojaramillomatamoros19","gender":"0","age":"11","school":"6"},{"start_time":1551887608278,"click_time":1551887609198,"finger_time":1551887608837,"fix_duration":318.3581980614826,"trial":45,"RT":559,"MT":361,"sideResp":2,"stimulus":"img/900/randomdotsizeEA/L/8_Ratio_900_L_20_R_18.png","xmouse":[801,801,801,801,801,801,801,801,801,801,801,801,801,801,801,801,801,801,801,801,801,801,801,801,801,801,807,814,834,879,889,892,893,894,900,904,909,914,925,942,993,1017,1034,1048,1054,1064],"ymouse":[625,625,625,625,625,625,625,625,625,625,625,625,625,625,625,625,625,625,625,625,625,625,625,625,625,625,599,553,474,325,298,288,280,267,229,202,182,167,147,127,89,78,71,63,62,54],"timestamp_mouse":[32,39,59,79,99,119,139,161,179,199,219,240,259,279,299,319,339,359,379,399,420,439,459,479,499,519,540,559,579,599,619,640,659,679,699,719,739,759,780,799,819,840,860,880,900,920],"xSR":741.5,"ySR":573.95,"xT1":424.9,"yT1":0,"xT2":1058.1,"yT2":0,"toosoon":0,"cond_shown":"randomdotsizeEA","ratio_trial":900,"smaller_num":"18","larger_num":"20","correct_side":1,"subjID":"santiagofernandojaramillomatamoros19","gender":"0","age":"11","school":"6"},{"start_time":1551887610992,"click_time":1551887611617,"finger_time":1551887611538,"fix_duration":1073.324203614859,"trial":46,"RT":546,"MT":79,"sideResp":1,"stimulus":"img/500/equaldotsize/L/13_Ratio_500_L_12_R_6.png","xmouse":[778,778,778,778,778,778,778,778,778,778,778,778,778,778,778,778,778,778,778,778,778,778,778,778,778,778,767,744,696,603,515,504],"ymouse":[658,658,658,658,658,658,658,658,658,658,658,658,658,658,658,658,658,658,658,658,658,658,658,658,658,650,597,529,434,248,115,92],"timestamp_mouse":[8,26,45,65,85,106,126,146,165,186,207,225,246,265,285,305,325,347,366,385,406,426,446,465,486,505,526,546,566,586,606,625],"xSR":741.5,"ySR":573.95,"xT1":424.9,"yT1":0,"xT2":1058.1,"yT2":0,"toosoon":0,"cond_shown":"equaldotsize","ratio_trial":500,"smaller_num":"6","larger_num":"12","correct_side":1,"subjID":"santiagofernandojaramillomatamoros19","gender":"0","age":"11","school":"6"},{"start_time":1551887613645,"click_time":1551887614297,"finger_time":1551887614178,"fix_duration":965.9582639289923,"trial":47,"RT":533,"MT":119,"sideResp":1,"stimulus":"img/750/equaldotanddens/L/13_Ratio_750_L_8_R_6.png","xmouse":[810,810,810,810,810,810,810,810,810,810,810,810,810,810,810,810,810,810,810,810,810,810,810,810,810,809,780,744,694,651,599,548,504],"ymouse":[617,617,617,617,617,617,617,617,617,617,617,617,617,617,617,617,617,617,617,617,617,617,617,617,617,611,519,450,382,302,206,130,75],"timestamp_mouse":[12,39,52,73,92,112,132,152,173,192,212,233,252,272,292,312,332,352,372,392,413,432,452,472,492,512,533,552,573,592,612,632,652],"xSR":741.5,"ySR":573.95,"xT1":424.9,"yT1":0,"xT2":1058.1,"yT2":0,"toosoon":0,"cond_shown":"equaldotanddens","ratio_trial":750,"smaller_num":"6","larger_num":"8","correct_side":1,"subjID":"santiagofernandojaramillomatamoros19","gender":"0","age":"11","school":"6"},{"start_time":1551887616194,"click_time":1551887616917,"finger_time":1551887616678,"fix_duration":1235.8443893893716,"trial":48,"RT":484,"MT":239,"sideResp":2,"stimulus":"img/250/equaldotanddens/R/11_Ratio_250_L_3_R_12.png","xmouse":[804,804,804,804,804,804,804,804,804,804,804,804,804,804,804,804,804,804,804,804,804,804,804,811,831,878,901,924,943,965,992,1001,1007,1015,1024,1055,1071],"ymouse":[636,636,636,636,636,636,636,636,636,636,636,636,636,636,636,637,637,637,637,637,637,637,634,619,566,456,402,331,270,208,156,139,127,116,104,79,68],"timestamp_mouse":[9,32,44,63,83,103,124,144,163,183,203,224,243,263,284,303,324,343,363,383,403,423,444,464,484,503,524,543,563,583,603,623,643,664,684,703,723],"xSR":741.5,"ySR":573.95,"xT1":424.9,"yT1":0,"xT2":1058.1,"yT2":0,"toosoon":0,"cond_shown":"equaldotanddens","ratio_trial":250,"smaller_num":"3","larger_num":"12","correct_side":2,"subjID":"santiagofernandojaramillomatamoros19","gender":"0","age":"11","school":"6"},{"start_time":1551887618130,"click_time":1551887619377,"finger_time":1551887618718,"fix_duration":250,"trial":49,"RT":588,"MT":659,"sideResp":2,"stimulus":"img/500/randomdotsizeEA/R/12_Ratio_500_L_1_R_2.png","xmouse":[815,815,815,815,815,815,815,815,815,815,815,815,815,815,815,815,815,815,815,815,815,815,815,815,815,815,815,815,799,766,690,643,607,581,577,569,560,553,531,521,512,507,505,502,502,502,502,502,502,502,513,530,548,591,622,655,703,747,838,925,982,1036,1074],"ymouse":[638,638,638,638,638,638,638,638,638,638,638,638,638,638,638,638,638,638,638,638,638,638,638,638,638,638,638,637,612,565,492,458,422,346,319,294,278,267,243,233,220,208,198,182,179,179,179,179,179,179,181,186,190,198,198,198,194,181,143,106,81,56,41],"timestamp_mouse":[6,33,47,68,88,107,128,148,167,188,207,228,247,268,287,307,328,347,367,388,407,428,448,467,487,507,528,547,567,588,607,627,647,667,687,707,727,747,767,786,807,827,847,868,887,907,928,948,967,987,1007,1027,1048,1067,1087,1107,1127,1147,1168,1187,1208,1227,1247],"xSR":741.5,"ySR":573.95,"xT1":424.9,"yT1":0,"xT2":1058.1,"yT2":0,"toosoon":0,"cond_shown":"randomdotsizeEA","ratio_trial":500,"smaller_num":"1","larger_num":"2","correct_side":2,"subjID":"santiagofernandojaramillomatamoros19","gender":"0","age":"11","school":"6"},{"start_time":1551887622177,"click_time":1551887625578,"finger_time":1551887625217,"fix_duration":1458.5868945482807,"trial":50,"RT":3040,"MT":361,"sideResp":2,"stimulus":"img/250/equaldotsize/L/3_Ratio_250_L_8_R_2.png","xmouse":[766,766,766,766,766,766,766,766,766,766,766,766,766,766,766,766,766,766,766,766,766,766,766,766,766,766,766,766,766,766,766,766,766,766,766,766,766,766,766,766,766,766,766,766,766,766,766,766,766,766,766,766,766,766,766,766,766,766,766,766,766,766,766,766,766,766,766,766,767,770,775,778,779,779,779,779,779,779,779,779,779,779,779,779,779,779,779,779,779,779,779,779,779,779,779,779,779,779,779,779,779,779,779,779,779,779,779,779,779,779,779,779,779,779,779,779,779,779,779,779,779,779,779,779,779,779,779,779,779,779,779,779,779,779,779,779,779,779,779,779,779,779,783,796,798,799,799,799,799,801,805,815,862,892,916,941,972,1015,1021,1023,1025,1025,1025,1025,1025,1025,1025,1032,1040,1050,1061],"ymouse":[616,616,616,616,616,616,616,616,616,616,616,616,616,616,616,616,616,616,616,616,616,616,616,616,616,616,616,616,616,616,616,616,616,616,616,616,616,616,616,616,616,616,616,616,616,616,616,616,616,616,616,616,616,616,616,616,616,616,616,616,616,616,616,616,616,616,616,616,616,616,615,614,614,614,614,614,614,614,614,614,614,614,614,614,614,614,614,614,614,614,614,614,614,614,614,614,614,614,614,614,614,614,614,614,614,614,614,614,614,614,614,614,614,614,614,614,614,614,614,614,614,614,614,614,614,614,614,614,614,614,614,614,614,614,614,614,614,614,614,614,614,614,611,607,607,607,607,607,607,605,600,588,537,488,409,255,192,133,123,115,111,110,110,110,110,110,110,107,98,89,79],"timestamp_mouse":[1,20,41,60,81,101,120,141,160,180,201,220,240,261,281,300,320,341,360,380,400,421,440,460,480,500,521,540,561,581,600,620,640,661,681,701,720,741,760,780,801,820,840,860,880,900,920,941,961,980,1001,1020,1040,1061,1081,1101,1120,1141,1161,1182,1200,1221,1240,1260,1280,1300,1322,1341,1360,1381,1400,1420,1441,1461,1480,1501,1521,1540,1561,1581,1600,1621,1640,1661,1681,1700,1721,1741,1760,1780,1800,1821,1840,1860,1882,1901,1921,1940,1960,1981,2000,2020,2040,2061,2080,2100,2120,2140,2161,2180,2200,2221,2241,2262,2280,2300,2321,2340,2360,2380,2400,2420,2440,2460,2481,2500,2521,2540,2560,2581,2600,2621,2640,2661,2681,2700,2720,2741,2761,2780,2800,2821,2840,2862,2880,2900,2920,2941,2960,2981,3000,3021,3040,3061,3080,3100,3121,3140,3161,3181,3200,3221,3240,3260,3281,3302,3321,3340,3360,3380,3401],"xSR":741.5,"ySR":573.95,"xT1":424.9,"yT1":0,"xT2":1058.1,"yT2":0,"toosoon":0,"cond_shown":"equaldotsize","ratio_trial":250,"smaller_num":"2","larger_num":"8","correct_side":1,"subjID":"santiagofernandojaramillomatamoros19","gender":"0","age":"11","school":"6"},{"start_time":1551887629774,"click_time":1551887631298,"finger_time":1551887630417,"fix_duration":714.4690432519819,"trial":51,"RT":643,"MT":881,"sideResp":2,"stimulus":"img/900/equaldotsize/R/13_Ratio_900_L_18_R_20.png","xmouse":[822,822,822,822,822,822,822,822,822,822,822,822,822,822,822,822,822,822,822,822,822,822,822,822,822,822,822,822,820,819,819,819,823,894,942,976,998,1012,1015,1019,1023,1023,1015,988,964,944,935,932,931,931,931,931,931,944,951,956,959,962,965,970,978,990,1009,1019,1021,1022,1024,1029,1040,1042,1044,1045,1046,1052,1056,1058,1059],"ymouse":[629,629,629,629,629,629,629,629,629,629,629,629,629,629,629,629,629,629,629,629,629,629,629,629,629,629,629,624,611,603,593,580,558,426,384,350,315,276,257,238,226,210,153,58,11,0,0,0,0,0,0,0,0,0,0,0,0,0,0,0,0,0,0,0,0,0,0,0,0,0,0,0,0,1,4,4,4],"timestamp_mouse":[8,23,43,63,83,103,123,143,164,184,203,224,245,263,284,304,323,343,363,384,404,423,443,463,484,504,523,543,563,583,604,623,643,664,683,704,724,743,764,783,804,823,843,863,884,903,924,943,963,983,1003,1024,1043,1063,1083,1103,1123,1143,1163,1184,1203,1223,1243,1263,1283,1304,1323,1344,1363,1384,1403,1424,1443,1463,1483,1504,1523],"xSR":741.5,"ySR":573.95,"xT1":424.9,"yT1":0,"xT2":1058.1,"yT2":0,"toosoon":0,"cond_shown":"equaldotsize","ratio_trial":900,"smaller_num":"18","larger_num":"20","correct_side":2,"subjID":"santiagofernandojaramillomatamoros19","gender":"0","age":"11","school":"6"},{"start_time":1551887632389,"click_time":1551887633017,"finger_time":1551887632938,"fix_duration":250,"trial":52,"RT":549,"MT":79,"sideResp":1,"stimulus":"img/750/equaldotsize/L/1_Ratio_750_L_20_R_15.png","xmouse":[809,809,809,809,809,809,809,809,809,809,809,809,809,809,809,809,809,809,809,809,809,809,809,809,809,809,805,763,711,605,518,427],"ymouse":[618,618,618,618,618,618,618,618,618,618,618,618,618,618,618,618,618,618,618,618,618,618,618,618,618,618,615,548,470,326,209,96],"timestamp_mouse":[12,28,62,68,88,108,129,148,168,189,208,228,248,269,288,308,329,348,369,388,408,428,448,468,488,509,529,549,569,588,609,628],"xSR":741.5,"ySR":573.95,"xT1":424.9,"yT1":0,"xT2":1058.1,"yT2":0,"toosoon":0,"cond_shown":"equaldotsize","ratio_trial":750,"smaller_num":"15","larger_num":"20","correct_side":1,"subjID":"santiagofernandojaramillomatamoros19","gender":"0","age":"11","school":"6"},{"start_time":1551887634069,"click_time":1551887634919,"finger_time":1551887634637,"fix_duration":330.95014815891864,"trial":53,"RT":568,"MT":282,"sideResp":1,"stimulus":"img/500/equaldotsize/L/5_Ratio_500_L_4_R_2.png","xmouse":[823,823,823,823,823,823,823,823,823,823,823,823,823,823,823,823,823,823,823,823,823,823,823,823,823,823,823,815,784,756,712,652,587,494,466,455,449,448,448,448,448,448,448],"ymouse":[652,652,652,652,652,652,652,652,652,652,652,652,652,652,652,652,652,652,652,652,652,652,652,652,652,652,652,613,548,498,428,349,266,161,123,110,104,104,104,104,104,102,97],"timestamp_mouse":[8,34,48,68,88,108,128,149,169,188,209,228,248,268,289,308,328,348,368,388,408,428,449,468,488,509,528,549,568,588,609,629,648,668,688,708,728,749,768,789,808,829,849],"xSR":741.5,"ySR":573.95,"xT1":424.9,"yT1":0,"xT2":1058.1,"yT2":0,"toosoon":0,"cond_shown":"equaldotsize","ratio_trial":500,"smaller_num":"2","larger_num":"4","correct_side":1,"subjID":"santiagofernandojaramillomatamoros19","gender":"0","age":"11","school":"6"},{"start_time":1551887635788,"click_time":1551887636738,"finger_time":1551887636397,"fix_duration":250,"trial":54,"RT":609,"MT":341,"sideResp":1,"stimulus":"img/750/equaldotsize/L/9_Ratio_750_L_4_R_3.png","xmouse":[759,759,759,759,759,763,768,784,791,794,795,795,795,795,795,795,795,795,795,795,797,799,799,799,799,799,799,799,799,790,764,715,638,497,470,457,449,447,446,446,446,446,446,446,446,448,458,485],"ymouse":[625,625,625,625,625,630,635,641,644,646,646,646,646,646,646,646,646,646,646,646,646,645,645,645,645,645,645,645,638,612,553,465,354,210,184,167,151,146,142,142,142,142,142,142,142,136,127,91],"timestamp_mouse":[11,31,50,70,90,109,129,150,169,189,209,229,250,270,290,310,330,349,371,390,409,430,450,470,489,509,530,549,570,589,609,631,649,669,689,709,729,749,769,789,809,829,850,869,890,910,929,950],"xSR":741.5,"ySR":573.95,"xT1":424.9,"yT1":0,"xT2":1058.1,"yT2":0,"toosoon":0,"cond_shown":"equaldotsize","ratio_trial":750,"smaller_num":"3","larger_num":"4","correct_side":1,"subjID":"santiagofernandojaramillomatamoros19","gender":"0","age":"11","school":"6"},{"start_time":1551887638152,"click_time":1551887638918,"finger_time":1551887638717,"fix_duration":592.9885482186019,"trial":55,"RT":565,"MT":201,"sideResp":2,"stimulus":"img/750/equaldotanddens/R/12_Ratio_750_L_3_R_4.png","xmouse":[803,803,803,803,803,803,803,803,803,803,803,803,803,803,803,803,803,803,803,803,803,803,803,803,803,803,807,823,859,875,966,993,1009,1020,1029,1049,1062,1072,1080],"ymouse":[632,632,632,632,632,632,632,632,632,632,632,632,632,632,632,632,632,632,632,632,632,632,632,632,632,632,622,579,487,451,272,226,199,177,161,136,119,107,97],"timestamp_mouse":[5,36,45,65,85,105,125,146,166,185,206,225,246,265,286,305,325,345,366,386,406,425,446,466,485,505,526,545,565,585,606,626,645,666,685,706,725,745,765],"xSR":741.5,"ySR":573.95,"xT1":424.9,"yT1":0,"xT2":1058.1,"yT2":0,"toosoon":0,"cond_shown":"equaldotanddens","ratio_trial":750,"smaller_num":"3","larger_num":"4","correct_side":2,"subjID":"santiagofernandojaramillomatamoros19","gender":"0","age":"11","school":"6"},{"start_time":1551887639848,"click_time":1551887640677,"finger_time":1551887640338,"fix_duration":250,"trial":56,"RT":490,"MT":339,"sideResp":2,"stimulus":"img/750/equaldotanddens/R/12_Ratio_750_L_3_R_4.png","xmouse":[767,767,767,767,767,767,767,767,767,767,767,767,767,767,767,767,767,767,767,767,767,767,769,779,791,847,871,902,930,952,979,994,1003,1008,1009,1016,1028,1043,1061,1080,1103,1107],"ymouse":[610,610,610,610,610,610,610,610,610,610,610,610,610,610,610,610,610,610,610,610,610,610,606,585,562,490,461,417,364,286,196,186,181,178,176,166,159,150,139,126,100,82],"timestamp_mouse":[14,29,50,69,89,109,129,149,169,189,210,230,250,270,290,309,329,349,369,389,410,429,450,470,490,509,530,549,570,590,609,630,650,669,690,709,730,749,770,789,809,829],"xSR":741.5,"ySR":573.95,"xT1":424.9,"yT1":0,"xT2":1058.1,"yT2":0,"toosoon":0,"cond_shown":"equaldotanddens","ratio_trial":750,"smaller_num":"3","larger_num":"4","correct_side":2,"subjID":"santiagofernandojaramillomatamoros19","gender":"0","age":"11","school":"6"},{"start_time":1551887642927,"click_time":1551887643798,"finger_time":1551887643517,"fix_duration":1068.690732789846,"trial":57,"RT":590,"MT":281,"sideResp":1,"stimulus":"img/250/equaldotanddens/L/1_Ratio_250_L_8_R_2.png","xmouse":[815,815,815,815,815,815,815,815,815,815,815,815,815,815,815,815,815,815,815,815,815,815,815,815,815,815,815,815,814,778,708,535,460,400,354,328,317,317,317,317,317,317,371,438],"ymouse":[611,611,611,611,611,611,611,611,611,611,611,611,611,611,611,611,611,611,611,611,611,611,611,611,611,611,611,611,610,537,429,240,146,64,0,0,0,0,0,0,0,0,0,6],"timestamp_mouse":[10,36,50,70,90,111,130,150,171,190,210,230,250,270,290,310,332,351,370,391,410,430,450,470,491,512,531,551,570,590,610,630,650,670,691,710,730,750,771,790,810,830,850,870],"xSR":741.5,"ySR":573.95,"xT1":424.9,"yT1":0,"xT2":1058.1,"yT2":0,"toosoon":0,"cond_shown":"equaldotanddens","ratio_trial":250,"smaller_num":"2","larger_num":"8","correct_side":1,"subjID":"santiagofernandojaramillomatamoros19","gender":"0","age":"11","school":"6"},{"start_time":1551887645703,"click_time":1551887646837,"finger_time":1551887646297,"fix_duration":1025.0022489477394,"trial":58,"RT":594,"MT":540,"sideResp":1,"stimulus":"img/750/randomdotsizeEA/L/9_Ratio_750_L_4_R_3.png","xmouse":[790,790,790,790,790,790,790,790,790,790,790,790,790,790,790,790,790,790,790,790,790,790,790,790,790,790,790,790,792,821,854,885,930,942,950,955,957,954,950,943,930,903,772,681,579,479,406,364,357,356,356,356,365,380,400,416,437],"ymouse":[601,601,601,601,601,601,601,601,601,601,601,601,601,601,601,601,601,601,601,601,601,601,601,601,601,601,601,601,596,549,498,442,340,312,284,258,237,223,220,218,216,216,214,208,197,185,176,168,163,160,159,157,147,135,119,105,90],"timestamp_mouse":[20,38,55,74,94,114,134,154,174,195,214,235,255,274,294,315,334,354,375,394,415,434,455,474,494,514,535,554,574,594,614,635,655,674,694,714,734,755,774,795,814,835,855,874,895,915,934,954,975,995,1015,1035,1055,1074,1094,1115,1134],"xSR":741.5,"ySR":573.95,"xT1":424.9,"yT1":0,"xT2":1058.1,"yT2":0,"toosoon":0,"cond_shown":"randomdotsizeEA","ratio_trial":750,"smaller_num":"3","larger_num":"4","correct_side":1,"subjID":"santiagofernandojaramillomatamoros19","gender":"0","age":"11","school":"6"},{"start_time":1551887648845,"click_time":1551887649837,"finger_time":1551887649438,"fix_duration":1045.386791389589,"trial":59,"RT":593,"MT":399,"sideResp":2,"stimulus":"img/750/randomdotsizeEA/R/7_Ratio_750_L_3_R_4.png","xmouse":[817,817,817,817,817,817,817,817,817,817,817,817,817,817,817,817,817,817,817,817,817,817,817,817,817,817,817,820,822,831,841,858,865,876,888,909,941,955,959,965,969,974,974,976,978,982,988,1000,1043,1078],"ymouse":[634,634,634,634,634,634,634,634,634,634,634,634,634,634,634,634,634,634,634,634,634,634,634,634,634,634,634,633,616,565,527,485,471,452,431,401,356,324,316,296,286,264,253,242,227,209,166,127,53,14],"timestamp_mouse":[13,34,52,73,93,112,132,152,172,192,212,233,252,272,293,313,332,352,373,392,413,433,453,472,492,512,532,553,572,593,613,632,652,672,693,713,733,752,772,792,812,832,853,872,892,912,933,952,972,992],"xSR":741.5,"ySR":573.95,"xT1":424.9,"yT1":0,"xT2":1058.1,"yT2":0,"toosoon":0,"cond_shown":"randomdotsizeEA","ratio_trial":750,"smaller_num":"3","larger_num":"4","correct_side":2,"subjID":"santiagofernandojaramillomatamoros19","gender":"0","age":"11","school":"6"},{"start_time":1551887652025,"click_time":1551887653017,"finger_time":1551887652617,"fix_duration":1247.1418588215931,"trial":60,"RT":592,"MT":400,"sideResp":1,"stimulus":"img/750/randomdotsizeEA/L/6_Ratio_750_L_24_R_18.png","xmouse":[783,783,783,783,783,783,783,783,783,783,783,783,783,783,783,783,783,783,783,783,783,783,783,783,783,783,783,783,781,771,749,717,653,636,626,619,611,585,557,543,537,536,536,536,536,528,522,512,490,465],"ymouse":[618,618,618,618,618,618,618,618,618,618,618,618,618,618,618,618,618,618,618,618,618,618,618,618,618,618,618,618,610,566,490,422,342,321,306,297,280,238,205,188,181,177,173,151,140,127,120,112,104,96],"timestamp_mouse":[20,38,52,73,92,112,133,152,173,193,212,232,252,273,292,313,332,352,372,393,413,432,452,472,492,512,532,553,572,592,613,633,653,672,692,712,732,753,772,792,812,832,852,873,893,912,934,953,972,992],"xSR":741.5,"ySR":573.95,"xT1":424.9,"yT1":0,"xT2":1058.1,"yT2":0,"toosoon":0,"cond_shown":"randomdotsizeEA","ratio_trial":750,"smaller_num":"18","larger_num":"24","correct_side":1,"subjID":"santiagofernandojaramillomatamoros19","gender":"0","age":"11","school":"6"},{"start_time":1551887655330,"click_time":1551887656158,"finger_time":1551887655778,"fix_duration":1431.6500855321322,"trial":61,"RT":448,"MT":380,"sideResp":1,"stimulus":"img/250/equaldotsize/L/7_Ratio_250_L_8_R_2.png","xmouse":[802,802,802,802,802,802,802,802,802,802,802,802,802,802,802,802,802,802,802,802,802,802,765,733,690,642,598,567,543,538,536,535,535,534,534,534,534,532,523,515,504,495],"ymouse":[596,596,596,596,596,596,596,596,596,596,596,596,596,596,596,596,596,596,596,596,596,596,501,418,355,296,248,210,178,168,159,155,154,152,151,151,149,144,130,119,104,87],"timestamp_mouse":[8,37,47,68,87,107,127,147,167,188,207,227,248,268,287,307,328,348,367,388,407,427,448,467,488,508,527,547,567,587,608,627,648,668,687,707,728,747,768,787,808,828],"xSR":741.5,"ySR":573.95,"xT1":424.9,"yT1":0,"xT2":1058.1,"yT2":0,"toosoon":0,"cond_shown":"equaldotsize","ratio_trial":250,"smaller_num":"2","larger_num":"8","correct_side":1,"subjID":"santiagofernandojaramillomatamoros19","gender":"0","age":"11","school":"6"},{"start_time":1551887657630,"click_time":1551887658778,"finger_time":1551887658296,"fix_duration":732.2749545245817,"trial":62,"RT":666,"MT":482,"sideResp":1,"stimulus":"img/750/equaldotsize/R/7_Ratio_750_L_3_R_4.png","xmouse":[778,778,778,778,778,778,778,778,778,778,778,778,778,778,778,778,778,778,778,778,778,778,778,778,778,778,778,778,778,778,778,779,784,823,834,837,838,838,838,838,837,831,810,739,702,664,624,607,593,592,591,591,591,591,588,579,532,487],"ymouse":[631,631,631,631,631,631,631,631,631,631,631,631,631,631,631,631,631,631,631,631,631,631,631,631,631,631,631,631,631,631,631,632,627,567,547,538,536,536,536,536,532,524,491,370,282,200,140,122,112,111,111,111,111,111,109,104,89,79],"timestamp_mouse":[10,34,48,68,88,108,127,147,168,188,207,227,247,268,287,308,328,347,367,387,407,428,447,467,487,507,527,547,568,587,607,628,647,666,688,707,727,748,768,788,807,827,847,867,887,907,928,947,967,988,1007,1027,1047,1068,1088,1108,1127,1148],"xSR":741.5,"ySR":573.95,"xT1":424.9,"yT1":0,"xT2":1058.1,"yT2":0,"toosoon":0,"cond_shown":"equaldotsize","ratio_trial":750,"smaller_num":"3","larger_num":"4","correct_side":2,"subjID":"santiagofernandojaramillomatamoros19","gender":"0","age":"11","school":"6"},{"start_time":1551887661446,"click_time":1551887662217,"finger_time":1551887661998,"fix_duration":1227.853300840707,"trial":63,"RT":552,"MT":219,"sideResp":2,"stimulus":"img/500/equaldotanddens/R/2_Ratio_500_L_3_R_6.png","xmouse":[792,792,792,792,792,792,792,792,792,792,792,792,792,792,792,792,792,792,792,792,792,792,792,792,792,792,815,866,952,981,1010,1031,1053,1060,1065,1070,1073,1080,1086],"ymouse":[640,640,640,640,640,640,640,640,640,640,640,640,640,640,640,640,640,640,640,640,640,640,640,640,640,641,622,544,365,292,232,195,167,157,148,137,131,103,81],"timestamp_mouse":[11,36,52,71,91,112,132,151,172,192,211,231,252,272,291,312,332,352,372,391,411,431,452,471,491,511,532,552,571,591,612,631,651,671,691,712,732,751,771],"xSR":741.5,"ySR":573.95,"xT1":424.9,"yT1":0,"xT2":1058.1,"yT2":0,"toosoon":0,"cond_shown":"equaldotanddens","ratio_trial":500,"smaller_num":"3","larger_num":"6","correct_side":2,"subjID":"santiagofernandojaramillomatamoros19","gender":"0","age":"11","school":"6"},{"start_time":1551887663603,"click_time":1551887664618,"finger_time":1551887664077,"fix_duration":484.47328795706,"trial":64,"RT":474,"MT":541,"sideResp":2,"stimulus":"img/250/equaldotsize/R/10_Ratio_250_L_4_R_16.png","xmouse":[791,791,791,791,791,791,791,791,791,791,791,791,791,791,791,791,791,791,791,791,791,795,814,895,1086,1130,1168,1204,1237,1277,1330,1337,1340,1343,1345,1345,1344,1338,1327,1313,1287,1275,1264,1253,1235,1223,1221,1216,1203,1183,1153],"ymouse":[613,613,613,613,613,613,613,613,613,613,613,613,613,613,613,613,613,613,613,613,613,613,603,551,430,389,352,308,263,219,160,148,141,134,127,121,119,118,117,114,103,98,92,86,75,66,65,63,57,48,34],"timestamp_mouse":[20,38,54,75,94,115,134,154,175,194,214,234,254,275,294,314,335,354,374,396,415,434,454,474,495,514,534,554,574,595,614,635,655,675,694,715,735,755,774,794,814,835,855,875,894,915,934,954,974,994,1015],"xSR":741.5,"ySR":573.95,"xT1":424.9,"yT1":0,"xT2":1058.1,"yT2":0,"toosoon":0,"cond_shown":"equaldotsize","ratio_trial":250,"smaller_num":"4","larger_num":"16","correct_side":2,"subjID":"santiagofernandojaramillomatamoros19","gender":"0","age":"11","school":"6"},{"start_time":1551887666853,"click_time":1551887667596,"finger_time":1551887667317,"fix_duration":1016.1890710995667,"trial":65,"RT":464,"MT":279,"sideResp":2,"stimulus":"img/900/equaldotsize/R/9_Ratio_900_L_18_R_20.png","xmouse":[818,818,818,818,818,818,818,818,818,818,818,818,818,818,818,818,818,818,818,822,828,832,836,842,855,880,908,934,1002,1045,1081,1104,1112,1113,1113,1113,1114,1116],"ymouse":[623,623,623,623,623,623,623,623,623,623,623,623,623,623,623,623,623,623,623,617,610,604,600,597,586,562,519,476,364,286,210,149,122,120,120,119,109,89],"timestamp_mouse":[9,23,43,64,84,104,124,144,163,183,205,224,245,263,284,304,323,343,363,384,403,423,444,464,484,504,523,543,563,584,605,624,644,663,684,704,725,743],"xSR":741.5,"ySR":573.95,"xT1":424.9,"yT1":0,"xT2":1058.1,"yT2":0,"toosoon":0,"cond_shown":"equaldotsize","ratio_trial":900,"smaller_num":"18","larger_num":"20","correct_side":2,"subjID":"santiagofernandojaramillomatamoros19","gender":"0","age":"11","school":"6"},{"start_time":1551887669376,"click_time":1551887670117,"finger_time":1551887669816,"fix_duration":938.1219818106616,"trial":66,"RT":440,"MT":301,"sideResp":2,"stimulus":"img/500/equaldotsize/R/1_Ratio_500_L_9_R_18.png","xmouse":[760,760,760,760,760,760,760,760,760,760,760,760,760,760,760,760,760,760,760,760,760,779,886,965,1033,1046,1057,1083,1097,1106,1109,1113,1118,1118,1119,1119,1121,1127],"ymouse":[626,626,626,626,626,626,626,626,626,626,626,626,626,626,626,626,626,626,626,626,626,618,547,491,432,414,391,318,264,222,187,164,136,130,127,120,113,83],"timestamp_mouse":[10,21,40,61,81,102,120,141,161,180,201,220,241,261,280,301,321,341,360,380,401,421,440,461,481,502,521,540,560,580,601,621,640,660,680,701,721,741],"xSR":741.5,"ySR":573.95,"xT1":424.9,"yT1":0,"xT2":1058.1,"yT2":0,"toosoon":0,"cond_shown":"equaldotsize","ratio_trial":500,"smaller_num":"9","larger_num":"18","correct_side":2,"subjID":"santiagofernandojaramillomatamoros19","gender":"0","age":"11","school":"6"},{"start_time":1551887672262,"click_time":1551887673077,"finger_time":1551887672758,"fix_duration":1264.2976381052522,"trial":67,"RT":496,"MT":319,"sideResp":2,"stimulus":"img/900/equaldotanddens/L/4_Ratio_900_L_20_R_18.png","xmouse":[791,791,791,791,791,791,791,791,791,791,791,791,791,791,791,791,791,791,791,791,792,793,799,806,820,842,876,923,1002,1037,1055,1072,1095,1102,1108,1111,1116,1119,1120,1120,1120],"ymouse":[604,604,604,604,604,604,604,604,604,604,604,604,604,604,604,604,604,604,604,604,602,601,593,580,557,518,459,389,276,227,205,182,152,141,133,123,112,102,101,101,99],"timestamp_mouse":[14,38,55,76,95,115,136,155,175,196,215,235,255,275,294,314,336,354,374,395,416,435,455,475,496,515,534,555,575,595,615,635,655,674,695,716,735,755,774,794,815],"xSR":741.5,"ySR":573.95,"xT1":424.9,"yT1":0,"xT2":1058.1,"yT2":0,"toosoon":0,"cond_shown":"equaldotanddens","ratio_trial":900,"smaller_num":"18","larger_num":"20","correct_side":1,"subjID":"santiagofernandojaramillomatamoros19","gender":"0","age":"11","school":"6"},{"start_time":1551887674899,"click_time":1551887675717,"finger_time":1551887675438,"fix_duration":1081.333603233062,"trial":68,"RT":539,"MT":279,"sideResp":2,"stimulus":"img/900/randomdotsizeEA/R/13_Ratio_900_L_18_R_20.png","xmouse":[777,777,777,777,777,777,777,777,777,777,777,777,777,777,777,777,777,777,777,777,777,777,777,777,779,798,827,873,912,940,959,991,999,1003,1007,1023,1030,1037,1046,1054,1060],"ymouse":[637,637,637,637,637,637,637,637,637,637,637,637,637,637,637,637,637,637,637,637,637,637,637,637,634,594,543,463,387,319,257,165,135,110,90,44,33,25,15,8,5],"timestamp_mouse":[19,39,57,77,98,118,139,158,179,198,218,239,258,277,297,319,337,358,379,397,418,439,457,478,497,518,539,558,577,598,619,638,658,677,698,719,737,757,778,799,818],"xSR":741.5,"ySR":573.95,"xT1":424.9,"yT1":0,"xT2":1058.1,"yT2":0,"toosoon":0,"cond_shown":"randomdotsizeEA","ratio_trial":900,"smaller_num":"18","larger_num":"20","correct_side":2,"subjID":"santiagofernandojaramillomatamoros19","gender":"0","age":"11","school":"6"},{"start_time":1551887679512,"click_time":1551887680238,"finger_time":1551887680038,"fix_duration":1372.7024136114546,"trial":69,"RT":526,"MT":200,"sideResp":2,"stimulus":"img/500/equaldotanddens/R/14_Ratio_500_L_5_R_10.png","xmouse":[805,805,805,805,805,805,805,805,805,805,805,805,805,805,805,805,805,805,805,805,805,805,805,805,810,820,882,935,987,1033,1067,1094,1129,1136,1142,1147,1154],"ymouse":[633,633,633,633,633,633,633,633,633,633,633,633,633,633,633,633,633,633,633,633,633,633,633,633,627,616,535,458,380,310,253,206,146,134,119,108,85],"timestamp_mouse":[8,38,46,65,86,105,126,144,164,186,205,226,244,265,285,305,326,345,365,386,405,426,445,465,486,504,526,545,565,585,606,625,645,665,685,705,726],"xSR":741.5,"ySR":573.95,"xT1":424.9,"yT1":0,"xT2":1058.1,"yT2":0,"toosoon":0,"cond_shown":"equaldotanddens","ratio_trial":500,"smaller_num":"5","larger_num":"10","correct_side":2,"subjID":"santiagofernandojaramillomatamoros19","gender":"0","age":"11","school":"6"},{"start_time":1551887682246,"click_time":1551887683197,"finger_time":1551887682836,"fix_duration":1168.6730148086197,"trial":70,"RT":590,"MT":361,"sideResp":1,"stimulus":"img/750/randomdotsizeEA/L/9_Ratio_750_L_4_R_3.png","xmouse":[787,787,787,787,787,787,787,787,787,787,787,787,787,787,787,787,787,787,787,787,787,787,787,787,787,787,787,785,778,755,701,684,673,662,641,614,606,602,600,600,600,597,592,585,580,568,549,522],"ymouse":[626,626,626,626,626,626,626,626,626,626,626,626,626,626,626,626,626,626,626,626,626,626,626,626,626,626,626,624,608,552,428,390,363,338,286,193,151,125,106,95,71,53,35,23,19,19,19,23],"timestamp_mouse":[11,42,51,72,90,110,131,152,171,191,212,231,250,272,290,312,331,351,371,391,411,431,451,470,491,510,531,552,571,590,611,631,652,671,691,711,731,751,771,791,811,831,852,871,892,910,931,951],"xSR":741.5,"ySR":573.95,"xT1":424.9,"yT1":0,"xT2":1058.1,"yT2":0,"toosoon":0,"cond_shown":"randomdotsizeEA","ratio_trial":750,"smaller_num":"3","larger_num":"4","correct_side":1,"subjID":"santiagofernandojaramillomatamoros19","gender":"0","age":"11","school":"6"},{"start_time":1551887684329,"click_time":1551887685638,"finger_time":1551887685116,"fix_duration":250,"trial":71,"RT":787,"MT":522,"sideResp":2,"stimulus":"img/250/randomdotsizeEA/R/9_Ratio_250_L_3_R_12.png","xmouse":[779,779,779,779,779,779,779,779,779,779,779,779,779,779,779,779,779,779,779,779,779,779,779,779,779,779,779,779,779,779,779,779,779,779,779,779,781,792,825,844,861,892,921,978,1039,1090,1137,1146,1157,1163,1169,1182,1187,1192,1198,1201,1201,1199,1199,1196,1192,1183,1176,1168,1162,1156],"ymouse":[609,609,609,609,609,609,609,609,609,609,609,609,609,609,609,609,609,609,609,609,609,609,609,609,609,609,609,609,609,609,609,609,609,609,609,609,608,601,577,559,541,498,459,397,324,260,183,166,147,135,125,95,77,61,43,24,6,4,4,4,4,5,8,13,18,23],"timestamp_mouse":[9,40,48,67,88,108,127,147,168,189,209,228,249,268,289,307,328,348,367,388,409,427,449,467,487,508,529,548,568,589,608,629,649,667,688,708,728,748,768,787,808,828,848,867,888,909,927,948,968,988,1008,1028,1048,1068,1089,1109,1127,1148,1168,1188,1208,1228,1248,1268,1289,1309],"xSR":741.5,"ySR":573.95,"xT1":424.9,"yT1":0,"xT2":1058.1,"yT2":0,"toosoon":0,"cond_shown":"randomdotsizeEA","ratio_trial":250,"smaller_num":"3","larger_num":"12","correct_side":2,"subjID":"santiagofernandojaramillomatamoros19","gender":"0","age":"11","school":"6"},{"start_time":1551887686848,"click_time":1551887687716,"finger_time":1551887687497,"fix_duration":250,"trial":72,"RT":649,"MT":219,"sideResp":2,"stimulus":"img/750/equaldotanddens/R/15_Ratio_750_L_9_R_12.png","xmouse":[819,819,819,818,817,817,817,817,817,817,817,8