[{"start_time":1551886948340,"click_time":1551886955740,"finger_time":1551886948349,"fix_duration":1357.493915279815,"trial":0,"RT":9,"MT":7391,"sideResp":2,"stimulus":[],"xmouse":[776,776,776,776,776,776,776,776,776,776,776,776,776,776,776,776,776,776,776,776,776,776,776,776,776,776,776,776,776,776,776,776,784,795,802,807,813,819,819,819,819,819,819,819,819,819,819,819,819,819,819,819,819,819,819,819,819,819,819,819,819,819,819,819,819,819,819,819,819,819,819,819,819,819,819,819,819,819,819,819,819,819,819,819,819,819,819,819,819,819,819,819,819,819,819,819,819,819,819,819,819,819,819,819,819,819,819,819,819,819,819,819,819,819,819,819,819,819,819,819,819,819,819,819,819,819,819,819,819,819,819,819,819,819,819,819,819,819,819,819,819,819,819,819,819,819,819,819,819,819,819,819,819,819,819,819,819,819,819,819,819,819,819,819,819,819,819,819,819,819,819,819,819,819,819,819,819,819,819,819,819,819,819,819,819,819,819,819,819,819,819,819,819,819,819,819,819,819,819,819,819,819,819,819,819,819,819,819,819,819,819,819,819,819,819,819,819,819,819,819,819,819,819,819,819,819,819,819,819,819,819,819,819,819,819,819,819,819,819,819,819,819,819,819,819,819,819,819,819,819,819,819,819,819,819,819,819,819,819,819,819,818,817,814,813,813,813,813,813,813,813,813,813,813,813,813,813,813,813,813,813,813,813,813,813,813,813,813,813,813,813,813,813,813,813,813,813,813,813,813,830,848,865,897,899,901,903,903,905,909,909,910,911,912,912,911,904,899,897,897,897,897,897,897,897,897,897,897,897,897,897,897,897,897,897,896,894,894,894,894,896,899,901,906,910,910,910,910,910,910,910,910,910,910,910,910,910,910,910,910,910,910,910,910,910,936,959,984,1040,1052,1063],"ymouse":[551,551,551,551,551,551,551,551,551,551,551,551,551,551,551,551,551,551,551,551,551,551,551,551,551,551,551,551,551,551,551,551,560,577,590,605,616,628,628,628,628,628,628,628,628,628,628,628,628,628,628,628,628,628,628,628,628,628,628,628,628,628,628,628,628,628,628,628,628,628,628,628,628,628,628,628,628,628,628,628,628,628,628,628,628,628,628,628,628,628,628,628,628,628,628,628,628,628,628,628,628,628,628,628,628,628,628,628,628,628,628,628,628,628,628,628,628,628,628,628,628,628,628,628,628,628,628,628,628,628,628,628,628,628,628,628,628,628,628,628,628,628,628,628,628,628,628,628,628,628,628,628,628,628,628,628,628,628,628,628,628,628,628,628,628,628,628,628,628,628,628,628,628,628,628,628,628,628,628,628,628,628,628,628,628,628,628,628,628,628,628,628,628,628,628,628,628,628,628,628,628,628,628,628,628,628,628,628,628,628,628,628,628,628,628,628,628,628,628,628,628,628,628,628,628,628,628,628,628,628,628,628,628,628,628,628,628,628,628,628,628,628,628,628,628,628,628,628,628,628,628,628,628,628,628,628,628,628,628,628,628,627,626,621,620,620,620,620,620,620,620,620,620,620,620,620,620,620,620,620,620,620,620,620,620,620,620,620,620,620,620,620,620,620,620,620,620,620,620,609,543,473,411,285,263,253,244,243,237,227,225,222,216,209,169,140,117,99,92,91,91,91,91,91,91,91,91,91,91,91,91,91,91,91,91,88,82,82,82,80,74,70,68,63,60,60,60,60,60,60,60,60,60,60,60,60,60,60,60,60,60,60,60,60,59,48,42,35,27,25,22],"timestamp_mouse":[9,18,38,59,78,98,118,139,159,178,198,218,238,258,278,299,319,339,358,379,398,418,438,459,479,498,518,538,558,578,599,618,638,658,678,698,719,738,758,779,799,818,838,858,878,898,918,939,958,979,999,1019,1039,1058,1078,1098,1118,1139,1158,1178,1198,1219,1239,1258,1278,1299,1318,1339,1358,1378,1399,1418,1439,1459,1479,1499,1518,1538,1558,1580,1598,1618,1640,1658,1678,1698,1718,1739,1758,1779,1799,1819,1839,1859,1879,1899,1918,1938,1958,1979,1998,2018,2038,2059,2079,2099,2119,2138,2159,2179,2199,2220,2238,2258,2279,2299,2319,2338,2358,2378,2399,2418,2438,2458,2478,2498,2519,2538,2558,2578,2598,2619,2638,2658,2678,2699,2718,2738,2758,2778,2798,2818,2839,2858,2878,2898,2919,2939,2959,2978,2998,3018,3038,3058,3079,3098,3119,3138,3158,3179,3198,3218,3239,3258,3278,3298,3319,3338,3359,3378,3398,3418,3438,3459,3478,3498,3518,3540,3558,3578,3598,3619,3638,3658,3678,3698,3718,3738,3758,3778,3798,3818,3838,3858,3878,3900,3919,3938,3958,3978,3998,4019,4038,4058,4078,4099,4119,4138,4159,4179,4199,4218,4238,4258,4278,4298,4318,4338,4358,4378,4398,4419,4438,4458,4479,4498,4518,4538,4558,4578,4598,4618,4639,4658,4678,4698,4718,4740,4758,4779,4798,4818,4838,4859,4879,4899,4918,4938,4958,4979,4998,5018,5038,5058,5078,5099,5120,5138,5159,5178,5198,5219,5238,5258,5279,5299,5319,5339,5359,5378,5399,5418,5439,5460,5478,5498,5518,5539,5558,5578,5598,5618,5638,5658,5678,5698,5719,5738,5758,5779,5798,5818,5838,5859,5879,5898,5919,5939,5958,5978,5998,6018,6038,6058,6078,6098,6118,6138,6158,6180,6199,6219,6238,6258,6278,6298,6319,6338,6358,6378,6398,6418,6438,6459,6478,6499,6518,6539,6558,6579,6598,6618,6639,6659,6678,6699,6718,6738,6758,6779,6798,6819,6839,6859,6878,6898,6919,6939,6959,6979,6999,7019,7038,7058,7078,7098,7119,7139,7158,7178,7199,7218,7238,7259,7278,7298,7318,7338,7359,7379,7399],"xSR":741.5,"ySR":500.5,"xT1":424.9,"yT1":0,"xT2":1058.1,"yT2":0,"toosoon":0,"cond_shown":"Incongruent","ratio_trial":100,"L_num":8,"L_den":20,"R_num":1,"R_den":2,"correct_side":2,"subjID":"SantiagoFernandoJaramilloMatamoros19","gender":"0","age":"11","school":"sexto","test":{"fix_dur":[250,1500],"timestim":1000,"targets_dim":[100,100],"targets_relative_coord":[0.3,0.7],"size_stim":[880,420],"start_dim":[100,100],"size_start":[300,300],"size_fix":60,"samplingrate":20,"img_types":["Congruent","Incongruent"],"ratios":[100,200,300],"rep_conds":19,"nTrials":120,"trials_to_rest":500,"Trials_order":[85,19,20,52,57,62,44,76,49,101,27,106,112,64,35,6,48,77,32,15,87,36,69,55,24,111,9,117,28,74,34,11,89,92,50,72,107,78,97,98,93,104,7,0,90,113,110,29,108,118,119,16,51,25,88,14,38,45,73,70,8,102,116,43,83,84,96,17,23,100,3,39,81,60,115,1,41,61,22,94,4,31,53,13,46,26,103,99,86,71,5,40,79,75,82,47,37,114,67,91,42,95,2,68,21,63,58,18,105,10,80,109,54,66,59,30,56,33,12,65],"cond_shown":["Incongruent","Incongruent","Congruent","Congruent","Incongruent","Congruent","Congruent","Congruent","Incongruent","Incongruent","Incongruent","Congruent","Congruent","Congruent","Incongruent","Congruent","Congruent","Incongruent","Congruent","Incongruent","Incongruent","Congruent","Incongruent","Incongruent","Congruent","Incongruent","Incongruent","Incongruent","Congruent","Congruent","Congruent","Incongruent","Incongruent","Congruent","Congruent","Congruent","Incongruent","Congruent","Incongruent","Congruent","Incongruent","Congruent","Incongruent","Congruent","Congruent","Incongruent","Congruent","Incongruent","Congruent","Congruent","Incongruent","Congruent","Incongruent","Incongruent","Congruent","Congruent","Congruent","Incongruent","Incongruent","Congruent","Congruent","Congruent","Congruent","Incongruent","Incongruent","Congruent","Congruent","Incongruent","Incongruent","Congruent","Incongruent","Incongruent","Incongruent","Congruent","Incongruent","Incongruent","Incongruent","Incongruent","Congruent","Congruent","Congruent","Incongruent","Incongruent","Incongruent","Congruent","Congruent","Incongruent","Incongruent","Congruent","Incongruent","Incongruent","Congruent","Incongruent","Incongruent","Congruent","Incongruent","Incongruent","Congruent","Incongruent","Incongruent","Congruent","Incongruent","Congruent","Congruent","Incongruent","Incongruent","Congruent","Congruent","Incongruent","Congruent","Congruent","Incongruent","Congruent","Congruent","Incongruent","Congruent","Congruent","Incongruent","Congruent","Incongruent"],"ratio_trial":[100,100,200,300,200,200,200,300,100,300,200,300,300,300,300,100,100,300,200,200,200,100,200,100,100,200,200,200,300,200,300,300,300,200,200,100,300,100,100,200,200,200,100,100,100,300,200,300,100,300,300,300,200,100,300,200,200,200,100,300,200,100,200,100,300,100,100,300,300,300,200,200,200,100,100,100,300,100,300,300,300,100,300,100,300,200,100,200,200,300,300,300,100,200,300,300,100,100,100,100,100,300,200,200,200,200,300,100,200,300,200,100,100,100,300,100,200,200,100,300],"left_num":[8,17,3,20,4,8,21,7,2,4,6,20,8,1,8,3,6,13,21,11,4,6,7,6,2,4,4,4,1,6,3,13,8,6,12,6,1,7,6,4,14,16,17,4,6,4,7,13,7,20,13,3,14,3,1,20,12,14,9,8,21,6,8,17,13,9,3,4,8,1,1,14,7,9,9,3,13,6,11,20,3,9,4,17,1,3,3,3,9,4,4,20,10,7,1,13,8,3,12,2,1,13,3,6,7,14,20,3,7,2,5,6,1,1,4,6,3,3,1,13],"right_num":[1,10,11,8,14,7,2,20,8,8,3,13,1,11,9,4,15,12,2,3,1,5,6,13,6,14,6,1,19,7,2,12,9,7,6,5,2,15,3,3,6,9,10,6,5,2,18,12,9,5,12,11,12,11,19,9,6,6,6,1,2,5,7,10,12,8,2,2,14,6,3,6,8,8,14,4,12,3,1,14,4,14,6,10,3,11,4,11,13,6,8,9,8,12,3,12,6,4,2,6,18,12,14,7,12,12,9,2,6,12,14,3,18,3,8,5,14,11,3,12],"left_den":[20,30,10,25,6,15,30,14,4,5,20,25,16,5,10,20,12,26,30,20,30,20,15,10,5,6,5,30,3,12,6,26,10,12,15,20,2,14,12,10,30,30,30,8,20,20,15,26,14,25,26,12,30,5,3,25,15,30,18,16,30,20,15,30,26,15,6,20,10,5,2,30,10,15,15,6,26,12,22,25,6,15,5,30,5,10,6,4,30,5,5,25,25,10,5,26,16,20,30,4,2,26,10,12,10,30,25,6,15,10,10,12,2,2,5,20,10,4,2,26],"right_den":[2,15,22,16,30,21,4,25,20,16,6,26,5,22,18,16,25,15,4,4,3,25,9,26,12,30,10,3,30,10,10,15,18,10,10,25,10,25,5,15,9,27,15,10,25,4,27,15,15,10,15,20,18,22,30,15,10,9,10,5,4,25,21,15,15,16,5,4,28,12,10,9,16,16,28,10,15,5,5,28,5,28,12,15,6,22,10,20,26,12,16,18,16,24,6,15,10,16,4,15,30,15,28,10,24,18,18,5,9,24,20,5,30,5,16,25,28,20,5,15],"correct_side":[2,2,2,1,1,1,1,2,1,1,2,1,1,2,1,2,2,2,1,2,2,1,2,1,2,1,1,2,2,2,1,2,1,2,1,1,1,2,2,1,2,1,2,2,1,2,2,2,2,1,2,2,2,1,2,1,1,2,2,1,1,1,1,2,2,1,1,2,1,2,1,2,1,1,1,1,2,2,1,1,2,1,1,2,2,2,1,1,2,1,1,1,2,1,2,2,2,2,2,1,2,2,2,2,1,2,1,1,2,2,2,2,2,2,1,1,2,1,2,2],"img_shown":["img2/100/Incongruent/R/I_Dist_100_LN_8_LD_20_RN_1_RD_2_1.png","img2/100/Incongruent/R/I_Dist_100_LN_17_LD_30_RN_10_RD_15_1.png","img2/200/Congruent/R/C_Dist_200_LN_3_LD_10_RN_11_RD_22_1.png","img2/300/Congruent/L/C_Dist_300_LN_20_LD_25_RN_8_RD_16_0.png","img2/200/Incongruent/L/I_Dist_200_LN_4_LD_6_RN_14_RD_30_0.png","img2/200/Congruent/L/C_Dist_200_LN_8_LD_15_RN_7_RD_21_0.png","img2/200/Congruent/L/C_Dist_200_LN_21_LD_30_RN_2_RD_4_0.png","img2/300/Congruent/R/C_Dist_300_LN_7_LD_14_RN_20_RD_25_1.png","img2/100/Incongruent/L/I_Dist_100_LN_2_LD_4_RN_8_RD_20_0.png","img2/300/Incongruent/L/I_Dist_300_LN_4_LD_5_RN_8_RD_16_0.png","img2/200/Incongruent/R/I_Dist_200_LN_6_LD_20_RN_3_RD_6_1.png","img2/300/Congruent/L/C_Dist_300_LN_20_LD_25_RN_13_RD_26_0.png","img2/300/Congruent/L/C_Dist_300_LN_8_LD_16_RN_1_RD_5_0.png","img2/300/Congruent/R/C_Dist_300_LN_1_LD_5_RN_11_RD_22_1.png","img2/300/Incongruent/L/I_Dist_300_LN_8_LD_10_RN_9_RD_18_0.png","img2/100/Congruent/R/C_Dist_100_LN_3_LD_20_RN_4_RD_16_1.png","img2/100/Congruent/R/C_Dist_100_LN_6_LD_12_RN_15_RD_25_1.png","img2/300/Incongruent/R/I_Dist_300_LN_13_LD_26_RN_12_RD_15_1.png","img2/200/Congruent/L/C_Dist_200_LN_21_LD_30_RN_2_RD_4_0.png","img2/200/Incongruent/R/I_Dist_200_LN_11_LD_20_RN_3_RD_4_1.png","img2/200/Incongruent/R/I_Dist_200_LN_4_LD_30_RN_1_RD_3_1.png","img2/100/Congruent/L/C_Dist_100_LN_6_LD_20_RN_5_RD_25_0.png","img2/200/Incongruent/R/I_Dist_200_LN_7_LD_15_RN_6_RD_9_1.png","img2/100/Incongruent/L/I_Dist_100_LN_6_LD_10_RN_13_RD_26_0.png","img2/100/Congruent/R/C_Dist_100_LN_2_LD_5_RN_6_RD_12_1.png","img2/200/Incongruent/L/I_Dist_200_LN_4_LD_6_RN_14_RD_30_0.png","img2/200/Incongruent/L/I_Dist_200_LN_4_LD_5_RN_6_RD_10_0.png","img2/200/Incongruent/R/I_Dist_200_LN_4_LD_30_RN_1_RD_3_1.png","img2/300/Congruent/R/C_Dist_300_LN_1_LD_3_RN_19_RD_30_1.png","img2/200/Congruent/R/C_Dist_200_LN_6_LD_12_RN_7_RD_10_1.png","img2/300/Congruent/L/C_Dist_300_LN_3_LD_6_RN_2_RD_10_0.png","img2/300/Incongruent/R/I_Dist_300_LN_13_LD_26_RN_12_RD_15_1.png","img2/300/Incongruent/L/I_Dist_300_LN_8_LD_10_RN_9_RD_18_0.png","img2/200/Congruent/R/C_Dist_200_LN_6_LD_12_RN_7_RD_10_1.png","img2/200/Congruent/L/C_Dist_200_LN_12_LD_15_RN_6_RD_10_0.png","img2/100/Congruent/L/C_Dist_100_LN_6_LD_20_RN_5_RD_25_0.png","img2/300/Incongruent/L/I_Dist_300_LN_1_LD_2_RN_2_RD_10_0.png","img2/100/Congruent/R/C_Dist_100_LN_7_LD_14_RN_15_RD_25_1.png","img2/100/Incongruent/R/I_Dist_100_LN_6_LD_12_RN_3_RD_5_1.png","img2/200/Congruent/L/C_Dist_200_LN_4_LD_10_RN_3_RD_15_0.png","img2/200/Incongruent/R/I_Dist_200_LN_14_LD_30_RN_6_RD_9_1.png","img2/200/Congruent/L/C_Dist_200_LN_16_LD_30_RN_9_RD_27_0.png","img2/100/Incongruent/R/I_Dist_100_LN_17_LD_30_RN_10_RD_15_1.png","img2/100/Congruent/R/C_Dist_100_LN_4_LD_8_RN_6_RD_10_1.png","img2/100/Congruent/L/C_Dist_100_LN_6_LD_20_RN_5_RD_25_0.png","img2/300/Incongruent/R/I_Dist_300_LN_4_LD_20_RN_2_RD_4_1.png","img2/200/Congruent/R/C_Dist_200_LN_7_LD_15_RN_18_RD_27_1.png","img2/300/Incongruent/R/I_Dist_300_LN_13_LD_26_RN_12_RD_15_1.png","img2/100/Congruent/R/C_Dist_100_LN_7_LD_14_RN_9_RD_15_1.png","img2/300/Congruent/L/C_Dist_300_LN_20_LD_25_RN_5_RD_10_0.png","img2/300/Incongruent/R/I_Dist_300_LN_13_LD_26_RN_12_RD_15_1.png","img2/300/Congruent/R/C_Dist_300_LN_3_LD_12_RN_11_RD_20_1.png","img2/200/Incongruent/R/I_Dist_200_LN_14_LD_30_RN_12_RD_18_1.png","img2/100/Incongruent/L/I_Dist_100_LN_3_LD_5_RN_11_RD_22_0.png","img2/300/Congruent/R/C_Dist_300_LN_1_LD_3_RN_19_RD_30_1.png","img2/200/Congruent/L/C_Dist_200_LN_20_LD_25_RN_9_RD_15_0.png","img2/200/Congruent/L/C_Dist_200_LN_12_LD_15_RN_6_RD_10_0.png","img2/200/Incongruent/R/I_Dist_200_LN_14_LD_30_RN_6_RD_9_1.png","img2/100/Incongruent/R/I_Dist_100_LN_9_LD_18_RN_6_RD_10_1.png","img2/300/Congruent/L/C_Dist_300_LN_8_LD_16_RN_1_RD_5_0.png","img2/200/Congruent/L/C_Dist_200_LN_21_LD_30_RN_2_RD_4_0.png","img2/100/Congruent/L/C_Dist_100_LN_6_LD_20_RN_5_RD_25_0.png","img2/200/Congruent/L/C_Dist_200_LN_8_LD_15_RN_7_RD_21_0.png","img2/100/Incongruent/R/I_Dist_100_LN_17_LD_30_RN_10_RD_15_1.png","img2/300/Incongruent/R/I_Dist_300_LN_13_LD_26_RN_12_RD_15_1.png","img2/100/Congruent/L/C_Dist_100_LN_9_LD_15_RN_8_RD_16_0.png","img2/100/Congruent/L/C_Dist_100_LN_3_LD_6_RN_2_RD_5_0.png","img2/300/Incongruent/R/I_Dist_300_LN_4_LD_20_RN_2_RD_4_1.png","img2/300/Incongruent/L/I_Dist_300_LN_8_LD_10_RN_14_RD_28_0.png","img2/300/Congruent/R/C_Dist_300_LN_1_LD_5_RN_6_RD_12_1.png","img2/200/Incongruent/L/I_Dist_200_LN_1_LD_2_RN_3_RD_10_0.png","img2/200/Incongruent/R/I_Dist_200_LN_14_LD_30_RN_6_RD_9_1.png","img2/200/Incongruent/L/I_Dist_200_LN_7_LD_10_RN_8_RD_16_0.png","img2/100/Congruent/L/C_Dist_100_LN_9_LD_15_RN_8_RD_16_0.png","img2/100/Incongruent/L/I_Dist_100_LN_9_LD_15_RN_14_RD_28_0.png","img2/100/Incongruent/L/I_Dist_100_LN_3_LD_6_RN_4_RD_10_0.png","img2/300/Incongruent/R/I_Dist_300_LN_13_LD_26_RN_12_RD_15_1.png","img2/100/Incongruent/R/I_Dist_100_LN_6_LD_12_RN_3_RD_5_1.png","img2/300/Congruent/L/C_Dist_300_LN_11_LD_22_RN_1_RD_5_0.png","img2/300/Congruent/L/C_Dist_300_LN_20_LD_25_RN_14_RD_28_0.png","img2/300/Congruent/R/C_Dist_300_LN_3_LD_6_RN_4_RD_5_1.png","img2/100/Incongruent/L/I_Dist_100_LN_9_LD_15_RN_14_RD_28_0.png","img2/300/Incongruent/L/I_Dist_300_LN_4_LD_5_RN_6_RD_12_0.png","img2/100/Incongruent/R/I_Dist_100_LN_17_LD_30_RN_10_RD_15_1.png","img2/300/Congruent/R/C_Dist_300_LN_1_LD_5_RN_3_RD_6_1.png","img2/200/Congruent/R/C_Dist_200_LN_3_LD_10_RN_11_RD_22_1.png","img2/100/Incongruent/L/I_Dist_100_LN_3_LD_6_RN_4_RD_10_0.png","img2/200/Incongruent/L/I_Dist_200_LN_3_LD_4_RN_11_RD_20_0.png","img2/200/Congruent/R/C_Dist_200_LN_9_LD_30_RN_13_RD_26_1.png","img2/300/Incongruent/L/I_Dist_300_LN_4_LD_5_RN_6_RD_12_0.png","img2/300/Incongruent/L/I_Dist_300_LN_4_LD_5_RN_8_RD_16_0.png","img2/300/Congruent/L/C_Dist_300_LN_20_LD_25_RN_9_RD_18_0.png","img2/100/Incongruent/R/I_Dist_100_LN_10_LD_25_RN_8_RD_16_1.png","img2/200/Incongruent/L/I_Dist_200_LN_7_LD_10_RN_12_RD_24_0.png","img2/300/Congruent/R/C_Dist_300_LN_1_LD_5_RN_3_RD_6_1.png","img2/300/Incongruent/R/I_Dist_300_LN_13_LD_26_RN_12_RD_15_1.png","img2/100/Incongruent/R/I_Dist_100_LN_8_LD_16_RN_6_RD_10_1.png","img2/100/Congruent/R/C_Dist_100_LN_3_LD_20_RN_4_RD_16_1.png","img2/100/Incongruent/R/I_Dist_100_LN_12_LD_30_RN_2_RD_4_1.png","img2/100/Incongruent/L/I_Dist_100_LN_2_LD_4_RN_6_RD_15_0.png","img2/100/Congruent/R/C_Dist_100_LN_1_LD_2_RN_18_RD_30_1.png","img2/300/Incongruent/R/I_Dist_300_LN_13_LD_26_RN_12_RD_15_1.png","img2/200/Congruent/R/C_Dist_200_LN_3_LD_10_RN_14_RD_28_1.png","img2/200/Congruent/R/C_Dist_200_LN_6_LD_12_RN_7_RD_10_1.png","img2/200/Incongruent/L/I_Dist_200_LN_7_LD_10_RN_12_RD_24_0.png","img2/200/Incongruent/R/I_Dist_200_LN_14_LD_30_RN_12_RD_18_1.png","img2/300/Congruent/L/C_Dist_300_LN_20_LD_25_RN_9_RD_18_0.png","img2/100/Congruent/L/C_Dist_100_LN_3_LD_6_RN_2_RD_5_0.png","img2/200/Incongruent/R/I_Dist_200_LN_7_LD_15_RN_6_RD_9_1.png","img2/300/Congruent/R/C_Dist_300_LN_2_LD_10_RN_12_RD_24_1.png","img2/200/Congruent/R/C_Dist_200_LN_5_LD_10_RN_14_RD_20_1.png","img2/100/Incongruent/R/I_Dist_100_LN_6_LD_12_RN_3_RD_5_1.png","img2/100/Congruent/R/C_Dist_100_LN_1_LD_2_RN_18_RD_30_1.png","img2/100/Congruent/R/C_Dist_100_LN_1_LD_2_RN_3_RD_5_1.png","img2/300/Incongruent/L/I_Dist_300_LN_4_LD_5_RN_8_RD_16_0.png","img2/100/Congruent/L/C_Dist_100_LN_6_LD_20_RN_5_RD_25_0.png","img2/200/Congruent/R/C_Dist_200_LN_3_LD_10_RN_14_RD_28_1.png","img2/200/Incongruent/L/I_Dist_200_LN_3_LD_4_RN_11_RD_20_0.png","img2/100/Congruent/R/C_Dist_100_LN_1_LD_2_RN_3_RD_5_1.png","img2/300/Incongruent/R/I_Dist_300_LN_13_LD_26_RN_12_RD_15_1.png"],"dist100_C":[["C_Dist_100_LN_10_LD_25_RN_3_RD_10_0.png","C_Dist_100_LN_11_LD_22_RN_4_RD_10_0.png","C_Dist_100_LN_11_LD_22_RN_6_RD_15_0.png","C_Dist_100_LN_15_LD_25_RN_13_RD_26_0.png","C_Dist_100_LN_3_LD_6_RN_2_RD_5_0.png","C_Dist_100_LN_6_LD_20_RN_5_RD_25_0.png","C_Dist_100_LN_8_LD_16_RN_2_RD_5_0.png","C_Dist_100_LN_9_LD_15_RN_8_RD_16_0.png"],["C_Dist_100_LN_1_LD_2_RN_18_RD_30_1.png","C_Dist_100_LN_1_LD_2_RN_3_RD_5_1.png","C_Dist_100_LN_12_LD_30_RN_13_RD_26_1.png","C_Dist_100_LN_2_LD_5_RN_11_RD_22_1.png","C_Dist_100_LN_2_LD_5_RN_6_RD_12_1.png","C_Dist_100_LN_3_LD_20_RN_4_RD_16_1.png","C_Dist_100_LN_4_LD_10_RN_15_RD_30_1.png","C_Dist_100_LN_4_LD_8_RN_6_RD_10_1.png","C_Dist_100_LN_6_LD_12_RN_15_RD_25_1.png","C_Dist_100_LN_7_LD_14_RN_15_RD_25_1.png","C_Dist_100_LN_7_LD_14_RN_9_RD_15_1.png"]],"dist100_I":[["I_Dist_100_LN_1_LD_2_RN_8_RD_20_0.png","I_Dist_100_LN_2_LD_4_RN_6_RD_15_0.png","I_Dist_100_LN_2_LD_4_RN_8_RD_20_0.png","I_Dist_100_LN_3_LD_5_RN_11_RD_22_0.png","I_Dist_100_LN_3_LD_5_RN_8_RD_16_0.png","I_Dist_100_LN_3_LD_6_RN_4_RD_10_0.png","I_Dist_100_LN_3_LD_9_RN_7_RD_30_0.png","I_Dist_100_LN_4_LD_8_RN_8_RD_20_0.png","I_Dist_100_LN_6_LD_10_RN_11_RD_22_0.png","I_Dist_100_LN_6_LD_10_RN_13_RD_26_0.png","I_Dist_100_LN_6_LD_10_RN_7_RD_14_0.png","I_Dist_100_LN_9_LD_10_RN_20_RD_25_0.png","I_Dist_100_LN_9_LD_15_RN_13_RD_26_0.png","I_Dist_100_LN_9_LD_15_RN_14_RD_28_0.png"],["I_Dist_100_LN_10_LD_25_RN_8_RD_16_1.png","I_Dist_100_LN_10_LD_25_RN_9_RD_18_1.png","I_Dist_100_LN_11_LD_22_RN_9_RD_15_1.png","I_Dist_100_LN_12_LD_24_RN_9_RD_15_1.png","I_Dist_100_LN_12_LD_30_RN_2_RD_4_1.png","I_Dist_100_LN_13_LD_26_RN_12_RD_20_1.png","I_Dist_100_LN_13_LD_26_RN_6_RD_10_1.png","I_Dist_100_LN_17_LD_30_RN_10_RD_15_1.png","I_Dist_100_LN_6_LD_12_RN_3_RD_5_1.png","I_Dist_100_LN_8_LD_16_RN_6_RD_10_1.png","I_Dist_100_LN_8_LD_20_RN_1_RD_2_1.png","I_Dist_100_LN_9_LD_18_RN_6_RD_10_1.png"]],"dist100_S":[["E_Dist_100_LN_2_LD_12_RN_2_RD_30_0.png","E_Dist_100_LN_6_LD_10_RN_6_RD_12_0.png"],["E_Dist_100_LN_6_LD_12_RN_6_RD_10_1.png"]],"dist200_C":[["C_Dist_200_LN_11_LD_22_RN_3_RD_10_0.png","C_Dist_200_LN_12_LD_15_RN_6_RD_10_0.png","C_Dist_200_LN_12_LD_20_RN_6_RD_15_0.png","C_Dist_200_LN_14_LD_28_RN_6_RD_20_0.png","C_Dist_200_LN_15_LD_25_RN_4_RD_10_0.png","C_Dist_200_LN_16_LD_20_RN_12_RD_20_0.png","C_Dist_200_LN_16_LD_30_RN_9_RD_27_0.png","C_Dist_200_LN_20_LD_25_RN_9_RD_15_0.png","C_Dist_200_LN_21_LD_30_RN_2_RD_4_0.png","C_Dist_200_LN_4_LD_10_RN_3_RD_15_0.png","C_Dist_200_LN_4_LD_8_RN_3_RD_10_0.png","C_Dist_200_LN_6_LD_15_RN_3_RD_15_0.png","C_Dist_200_LN_7_LD_21_RN_2_RD_15_0.png","C_Dist_200_LN_8_LD_15_RN_2_RD_6_0.png","C_Dist_200_LN_8_LD_15_RN_3_RD_9_0.png","C_Dist_200_LN_8_LD_15_RN_7_RD_21_0.png","C_Dist_200_LN_9_LD_20_RN_4_RD_16_0.png"],["C_Dist_200_LN_1_LD_2_RN_21_RD_30_1.png","C_Dist_200_LN_13_LD_26_RN_14_RD_20_1.png","C_Dist_200_LN_3_LD_10_RN_11_RD_22_1.png","C_Dist_200_LN_3_LD_10_RN_14_RD_28_1.png","C_Dist_200_LN_3_LD_10_RN_7_RD_14_1.png","C_Dist_200_LN_3_LD_12_RN_9_RD_20_1.png","C_Dist_200_LN_3_LD_6_RN_14_RD_20_1.png","C_Dist_200_LN_5_LD_10_RN_14_RD_20_1.png","C_Dist_200_LN_6_LD_12_RN_7_RD_10_1.png","C_Dist_200_LN_6_LD_20_RN_11_RD_22_1.png","C_Dist_200_LN_7_LD_15_RN_18_RD_27_1.png","C_Dist_200_LN_9_LD_30_RN_13_RD_26_1.png"]],"dist200_I":[["I_Dist_200_LN_1_LD_2_RN_3_RD_10_0.png","I_Dist_200_LN_1_LD_3_RN_2_RD_15_0.png","I_Dist_200_LN_3_LD_4_RN_11_RD_20_0.png","I_Dist_200_LN_4_LD_5_RN_6_RD_10_0.png","I_Dist_200_LN_4_LD_6_RN_14_RD_30_0.png","I_Dist_200_LN_7_LD_10_RN_12_RD_24_0.png","I_Dist_200_LN_7_LD_10_RN_14_RD_28_0.png","I_Dist_200_LN_7_LD_10_RN_8_RD_16_0.png"],["I_Dist_200_LN_11_LD_20_RN_3_RD_4_1.png","I_Dist_200_LN_14_LD_30_RN_12_RD_18_1.png","I_Dist_200_LN_14_LD_30_RN_6_RD_9_1.png","I_Dist_200_LN_3_LD_10_RN_1_RD_2_1.png","I_Dist_200_LN_4_LD_30_RN_1_RD_3_1.png","I_Dist_200_LN_6_LD_20_RN_3_RD_6_1.png","I_Dist_200_LN_7_LD_15_RN_4_RD_6_1.png","I_Dist_200_LN_7_LD_15_RN_6_RD_9_1.png","I_Dist_200_LN_9_LD_15_RN_8_RD_10_1.png"]],"dist200_S":[["E_Dist_200_LN_3_LD_6_RN_3_RD_10_0.png"],["E_Dist_200_LN_3_LD_10_RN_3_RD_6_1.png"]],"dist300_C":[["C_Dist_300_LN_11_LD_22_RN_1_RD_5_0.png","C_Dist_300_LN_11_LD_22_RN_2_RD_10_0.png","C_Dist_300_LN_11_LD_22_RN_4_RD_20_0.png","C_Dist_300_LN_12_LD_24_RN_2_RD_10_0.png","C_Dist_300_LN_18_LD_20_RN_9_RD_15_0.png","C_Dist_300_LN_20_LD_25_RN_13_RD_26_0.png","C_Dist_300_LN_20_LD_25_RN_14_RD_28_0.png","C_Dist_300_LN_20_LD_25_RN_5_RD_10_0.png","C_Dist_300_LN_20_LD_25_RN_8_RD_16_0.png","C_Dist_300_LN_20_LD_25_RN_9_RD_18_0.png","C_Dist_300_LN_24_LD_30_RN_2_RD_4_0.png","C_Dist_300_LN_24_LD_30_RN_8_RD_16_0.png","C_Dist_300_LN_3_LD_6_RN_2_RD_10_0.png","C_Dist_300_LN_4_LD_10_RN_1_RD_10_0.png","C_Dist_300_LN_4_LD_5_RN_2_RD_4_0.png","C_Dist_300_LN_8_LD_16_RN_1_RD_5_0.png","C_Dist_300_LN_9_LD_10_RN_3_RD_5_0.png"],["C_Dist_300_LN_1_LD_20_RN_7_RD_20_1.png","C_Dist_300_LN_1_LD_3_RN_19_RD_30_1.png","C_Dist_300_LN_1_LD_30_RN_8_RD_24_1.png","C_Dist_300_LN_1_LD_5_RN_11_RD_22_1.png","C_Dist_300_LN_1_LD_5_RN_3_RD_6_1.png","C_Dist_300_LN_1_LD_5_RN_6_RD_12_1.png","C_Dist_300_LN_2_LD_10_RN_12_RD_24_1.png","C_Dist_300_LN_2_LD_20_RN_10_RD_25_1.png","C_Dist_300_LN_3_LD_12_RN_11_RD_20_1.png","C_Dist_300_LN_3_LD_6_RN_4_RD_5_1.png","C_Dist_300_LN_4_LD_20_RN_13_RD_26_1.png","C_Dist_300_LN_5_LD_25_RN_6_RD_12_1.png","C_Dist_300_LN_5_LD_25_RN_7_RD_14_1.png","C_Dist_300_LN_7_LD_14_RN_20_RD_25_1.png","C_Dist_300_LN_8_LD_15_RN_10_RD_12_1.png"]],"dist300_I":[["I_Dist_300_LN_1_LD_2_RN_2_RD_10_0.png","I_Dist_300_LN_1_LD_2_RN_3_RD_15_0.png","I_Dist_300_LN_2_LD_4_RN_6_RD_30_0.png","I_Dist_300_LN_3_LD_6_RN_4_RD_20_0.png","I_Dist_300_LN_4_LD_5_RN_6_RD_12_0.png","I_Dist_300_LN_4_LD_5_RN_8_RD_16_0.png","I_Dist_300_LN_7_LD_10_RN_8_RD_20_0.png","I_Dist_300_LN_8_LD_10_RN_14_RD_28_0.png","I_Dist_300_LN_8_LD_10_RN_9_RD_18_0.png"],["I_Dist_300_LN_13_LD_26_RN_12_RD_15_1.png","I_Dist_300_LN_4_LD_20_RN_2_RD_4_1.png"]],"dist300_S":[["E_Dist_300_LN_9_LD_12_RN_9_RD_20_0.png"],["E_Dist_300_LN_18_LD_30_RN_18_RD_20_1.png","E_Dist_300_LN_3_LD_10_RN_3_RD_5_1.png","E_Dist_300_LN_9_LD_20_RN_9_RD_12_1.png"]],"dist500_C":[["C_Dist_500_LN_10_LD_13_RN_7_RD_26_0.png","C_Dist_500_LN_10_LD_15_RN_4_RD_24_0.png","C_Dist_500_LN_12_LD_16_RN_3_RD_12_0.png","C_Dist_500_LN_12_LD_18_RN_4_RD_24_0.png","C_Dist_500_LN_15_LD_18_RN_5_RD_15_0.png","C_Dist_500_LN_15_LD_20_RN_1_RD_4_0.png","C_Dist_500_LN_18_LD_27_RN_1_RD_6_0.png","C_Dist_500_LN_20_LD_24_RN_1_RD_3_0.png","C_Dist_500_LN_20_LD_24_RN_3_RD_9_0.png","C_Dist_500_LN_20_LD_24_RN_7_RD_21_0.png","C_Dist_500_LN_20_LD_28_RN_3_RD_14_0.png","C_Dist_500_LN_21_LD_28_RN_6_RD_24_0.png","C_Dist_500_LN_22_LD_28_RN_2_RD_7_0.png","C_Dist_500_LN_25_LD_30_RN_9_RD_27_0.png","C_Dist_500_LN_4_LD_6_RN_1_RD_6_0.png","C_Dist_500_LN_5_LD_6_RN_2_RD_6_0.png","C_Dist_500_LN_6_LD_9_RN_1_RD_6_0.png","C_Dist_500_LN_7_LD_10_RN_1_RD_5_0.png","C_Dist_500_LN_8_LD_12_RN_1_RD_6_0.png","C_Dist_500_LN_8_LD_12_RN_4_RD_24_0.png"],["C_Dist_500_LN_1_LD_4_RN_12_RD_16_1.png","C_Dist_500_LN_1_LD_4_RN_9_RD_12_1.png","C_Dist_500_LN_1_LD_9_RN_11_RD_18_1.png","C_Dist_500_LN_10_LD_24_RN_22_RD_24_1.png","C_Dist_500_LN_2_LD_12_RN_10_RD_15_1.png","C_Dist_500_LN_2_LD_12_RN_12_RD_18_1.png","C_Dist_500_LN_2_LD_12_RN_4_RD_6_1.png","C_Dist_500_LN_2_LD_24_RN_7_RD_12_1.png","C_Dist_500_LN_2_LD_5_RN_18_RD_20_1.png","C_Dist_500_LN_2_LD_5_RN_9_RD_10_1.png","C_Dist_500_LN_2_LD_8_RN_12_RD_16_1.png","C_Dist_500_LN_2_LD_8_RN_21_RD_28_1.png","C_Dist_500_LN_3_LD_10_RN_4_RD_5_1.png","C_Dist_500_LN_3_LD_12_RN_15_RD_20_1.png","C_Dist_500_LN_3_LD_30_RN_6_RD_10_1.png","C_Dist_500_LN_3_LD_8_RN_14_RD_16_1.png","C_Dist_500_LN_4_LD_16_RN_15_RD_20_1.png","C_Dist_500_LN_4_LD_24_RN_12_RD_18_1.png","C_Dist_500_LN_5_LD_14_RN_6_RD_7_1.png","C_Dist_500_LN_7_LD_21_RN_20_RD_24_1.png","C_Dist_500_LN_7_LD_28_RN_12_RD_16_1.png","C_Dist_500_LN_7_LD_28_RN_9_RD_12_1.png","C_Dist_500_LN_9_LD_27_RN_20_RD_24_1.png"]],"dist500_I":[["I_Dist_500_LN_2_LD_3_RN_4_RD_24_0.png","I_Dist_500_LN_5_LD_6_RN_6_RD_18_0.png","I_Dist_500_LN_7_LD_8_RN_9_RD_24_0.png"],["I_Dist_500_LN_7_LD_21_RN_5_RD_6_1.png"]],"dist500_S":[["E_Dist_500_LN_6_LD_8_RN_6_RD_24_0.png"],["E_Dist_500_LN_2_LD_12_RN_2_RD_3_1.png","E_Dist_500_LN_6_LD_24_RN_6_RD_8_1.png"]]}},{"start_time":1551886957278,"click_time":1551886958979,"finger_time":1551886958618,"fix_duration":357.9005569273068,"trial":1,"RT":1340,"MT":361,"sideResp":1,"stimulus":[],"xmouse":[785,785,785,785,785,785,785,785,785,785,785,785,785,785,785,785,785,785,785,785,785,785,785,785,785,785,785,785,785,785,785,785,785,785,785,785,785,785,785,785,785,785,785,785,785,785,785,785,785,785,785,785,785,785,785,785,785,785,785,785,785,785,785,785,785,785,785,762,730,670,636,614,602,601,599,599,599,598,598,598,598,597,583,564,542,522],"ymouse":[642,642,642,642,642,642,642,642,642,642,642,642,642,642,642,642,642,642,642,642,642,642,642,642,642,642,642,642,642,642,642,642,642,642,642,642,642,642,642,642,642,642,642,642,642,642,642,642,642,642,642,642,642,642,642,642,642,642,642,642,642,642,642,642,642,642,633,503,397,235,152,108,73,66,64,62,60,60,60,60,60,60,60,60,60,60],"timestamp_mouse":[9,21,58,60,80,100,121,139,160,180,201,220,241,260,280,300,320,341,360,381,400,420,441,461,480,500,521,540,561,580,601,620,640,660,680,700,721,740,760,780,801,820,840,861,881,900,920,941,961,981,1000,1021,1040,1061,1080,1101,1121,1141,1161,1181,1201,1221,1241,1260,1280,1301,1321,1340,1360,1380,1401,1420,1440,1460,1480,1500,1521,1541,1561,1581,1600,1621,1640,1660,1680,1701],"xSR":741.5,"ySR":573.95,"xT1":424.9,"yT1":0,"xT2":1058.1,"yT2":0,"toosoon":0,"cond_shown":"Incongruent","ratio_trial":100,"L_num":17,"L_den":30,"R_num":10,"R_den":15,"correct_side":2,"subjID":"SantiagoFernandoJaramilloMatamoros19","gender":"0","school":"sexto","age":"11"},{"start_time":1551886960591,"click_time":1551886961638,"finger_time":1551886961319,"fix_duration":250,"trial":2,"RT":728,"MT":319,"sideResp":2,"stimulus":[],"xmouse":[794,794,794,794,794,794,794,794,794,794,794,794,794,794,794,794,794,794,794,794,794,794,794,794,794,794,794,794,794,794,794,794,794,802,817,840,961,1035,1078,1099,1113,1133,1143,1150,1154,1155,1155,1155,1155,1155,1155,1138,1122],"ymouse":[622,622,622,622,622,622,622,622,622,622,622,622,622,622,622,622,622,622,622,622,622,622,622,622,622,622,622,622,622,622,622,622,622,619,604,580,428,325,269,243,225,188,171,159,151,149,148,148,148,146,146,106,84],"timestamp_mouse":[9,40,47,68,87,108,128,149,168,187,208,228,247,267,287,308,328,348,367,387,407,427,447,467,487,507,527,547,567,587,608,627,648,667,687,707,728,747,767,787,808,827,847,867,887,907,927,947,967,988,1007,1027,1047],"xSR":741.5,"ySR":573.95,"xT1":424.9,"yT1":0,"xT2":1058.1,"yT2":0,"toosoon":0,"cond_shown":"Congruent","ratio_trial":200,"L_num":3,"L_den":10,"R_num":11,"R_den":22,"correct_side":2,"subjID":"SantiagoFernandoJaramilloMatamoros19","gender":"0","school":"sexto","age":"11"},{"start_time":1551886963821,"click_time":1551886965539,"finger_time":1551886965138,"fix_duration":1402.380991849238,"trial":3,"RT":1317,"MT":401,"sideResp":1,"stimulus":[],"xmouse":[818,818,818,818,818,818,818,818,818,818,818,818,818,818,818,818,818,818,818,818,818,818,818,818,818,818,818,818,818,818,818,818,818,818,818,818,818,818,818,818,818,818,818,818,818,818,818,818,818,818,818,818,818,818,818,818,818,818,818,818,818,818,818,818,818,818,801,785,781,772,765,758,748,729,711,683,669,653,630,611,565,555,548,537,527,519],"ymouse":[646,646,646,646,646,646,646,646,646,646,646,646,646,646,646,646,646,646,646,646,646,646,646,646,646,646,646,646,646,646,646,646,646,646,646,646,646,646,646,646,646,646,646,646,646,646,646,646,646,646,646,646,646,646,646,646,646,646,646,646,646,646,646,646,646,568,433,348,316,269,252,239,227,211,198,178,168,157,145,137,111,103,96,85,74,63],"timestamp_mouse":[17,46,58,77,98,118,137,157,177,198,218,239,258,278,298,317,337,357,378,397,418,438,457,478,497,517,538,557,577,598,618,638,658,677,697,717,737,757,777,798,817,838,858,878,898,918,937,957,978,998,1017,1037,1057,1077,1097,1117,1137,1158,1177,1197,1218,1238,1257,1278,1297,1317,1338,1357,1377,1398,1417,1437,1458,1477,1497,1517,1537,1558,1577,1597,1618,1637,1658,1677,1698,1718],"xSR":741.5,"ySR":573.95,"xT1":424.9,"yT1":0,"xT2":1058.1,"yT2":0,"toosoon":0,"cond_shown":"Congruent","ratio_trial":300,"L_num":20,"L_den":25,"R_num":8,"R_den":16,"correct_side":1,"subjID":"SantiagoFernandoJaramilloMatamoros19","gender":"0","school":"sexto","age":"11"},{"start_time":1551886968497,"click_time":1551886969599,"finger_time":1551886969140,"fix_duration":596.909562005858,"trial":4,"RT":643,"MT":459,"sideResp":2,"stimulus":[],"xmouse":[795,795,795,795,795,795,795,795,795,795,795,795,795,795,795,795,795,795,795,795,795,795,795,795,795,795,795,795,795,795,795,799,906,989,1002,1004,1004,1004,1004,1004,1004,1004,1018,1022,1027,1029,1031,1035,1038,1038,1038,1039,1047,1055,1058,1060],"ymouse":[630,630,630,630,630,630,630,630,630,630,630,630,630,630,630,630,630,630,630,630,630,630,630,630,630,630,630,630,630,630,629,619,462,345,326,322,322,322,322,322,321,321,269,250,231,227,223,205,182,159,139,126,96,80,72,69],"timestamp_mouse":[8,21,41,62,81,101,121,141,161,182,201,222,241,262,281,301,321,342,361,382,401,422,441,461,481,502,521,542,561,581,601,621,643,661,681,702,722,741,761,782,801,822,841,861,881,901,921,941,961,981,1001,1022,1041,1061,1081,1101],"xSR":741.5,"ySR":573.95,"xT1":424.9,"yT1":0,"xT2":1058.1,"yT2":0,"toosoon":0,"cond_shown":"Incongruent","ratio_trial":200,"L_num":4,"L_den":6,"R_num":14,"R_den":30,"correct_side":1,"subjID":"SantiagoFernandoJaramilloMatamoros19","gender":"0","school":"sexto","age":"11"},{"start_time":1551886972039,"click_time":1551886979979,"finger_time":1551886979658,"fix_duration":500.9219446196459,"trial":5,"RT":7619,"MT":321,"sideResp":1,"stimulus":[],"xmouse":[807,807,807,807,807,807,807,807,807,807,807,807,807,807,807,807,807,807,807,807,807,807,807,807,807,807,807,807,807,807,807,807,807,807,807,807,807,807,807,807,807,807,807,807,807,807,807,807,807,807,807,807,807,807,807,807,807,807,807,807,807,807,807,807,807,807,807,807,807,807,807,807,807,807,807,807,807,807,807,807,806,806,806,806,806,806,806,806,806,806,806,806,806,806,806,806,806,806,806,806,806,806,806,806,806,806,806,805,805,805,805,805,805,805,805,805,805,805,805,805,805,805,805,805,805,805,805,805,805,805,805,805,805,805,805,805,805,805,805,805,805,805,805,805,805,805,805,805,805,805,805,805,805,805,805,805,805,805,805,805,805,805,805,805,805,805,805,805,805,805,805,805,805,805,805,805,805,805,805,805,805,805,805,805,805,805,805,805,805,805,805,805,805,805,805,805,805,805,805,805,805,805,805,805,805,805,805,805,805,805,805,805,805,805,805,805,805,805,805,805,805,805,805,805,805,805,805,805,805,805,805,805,805,805,805,805,805,805,805,805,805,805,805,805,805,805,805,805,805,805,805,805,805,805,805,805,805,805,805,805,805,805,805,805,805,805,805,805,805,805,805,805,805,805,805,805,805,805,805,805,805,805,805,805,805,805,805,805,805,805,805,805,805,805,805,805,805,805,805,805,805,805,805,805,805,805,805,805,805,805,805,805,805,805,805,805,805,805,805,805,805,805,805,805,805,805,805,805,805,805,805,805,805,805,805,805,805,805,805,805,805,805,805,805,805,805,805,805,805,805,805,805,805,805,805,805,805,805,805,805,805,805,805,805,805,805,805,805,805,805,805,805,805,805,805,805,805,805,802,796,742,720,648,601,572,542,529,518,514,512,512,512,512,513,513,513,509],"ymouse":[618,618,618,618,618,618,618,618,618,618,618,618,618,618,618,618,618,618,618,618,618,618,618,618,618,618,618,618,618,618,618,618,618,618,618,618,618,618,618,618,618,618,618,618,618,618,618,618,618,618,618,618,618,618,618,618,618,618,618,618,618,618,618,618,618,618,618,618,618,618,618,618,618,618,618,618,618,618,618,620,621,621,621,621,621,621,621,621,621,621,621,621,621,621,621,621,621,621,621,621,621,621,621,621,621,621,621,621,621,621,621,621,621,621,621,621,621,621,621,621,621,621,621,621,621,621,621,621,621,621,621,621,621,621,621,621,621,621,621,621,621,621,621,621,621,621,621,621,621,621,621,621,621,621,621,621,621,621,621,621,621,621,621,621,621,621,621,621,621,621,621,621,621,621,621,621,621,621,621,621,621,621,621,621,621,621,621,621,621,621,621,621,621,621,621,621,621,621,621,621,621,621,621,621,621,621,621,621,621,621,621,621,621,621,621,621,621,621,621,621,621,621,621,621,621,621,621,621,621,621,621,621,621,621,621,621,621,621,621,621,621,621,621,621,621,621,621,621,621,621,621,621,621,621,621,621,621,621,621,621,621,621,621,621,621,621,621,621,621,621,621,621,621,621,621,621,621,621,621,621,621,621,621,621,621,621,621,621,621,621,621,621,621,621,621,621,621,621,621,621,621,621,621,621,621,621,621,621,621,621,621,621,621,621,621,621,621,621,621,621,621,621,621,621,621,621,621,621,621,621,621,621,621,621,621,621,621,621,621,621,621,621,621,621,621,621,621,621,621,621,621,621,621,621,621,621,621,621,621,621,621,621,621,621,621,621,621,621,621,621,621,621,621,621,621,621,621,621,621,613,494,462,377,330,301,263,240,227,219,215,212,210,198,181,160,119,96],"timestamp_mouse":[20,43,59,79,99,120,139,160,179,199,220,240,259,280,299,319,339,359,379,399,419,439,459,480,500,520,540,559,579,599,620,639,659,680,699,719,739,759,780,800,819,839,859,879,900,919,939,959,980,999,1019,1039,1060,1080,1099,1119,1140,1160,1179,1200,1220,1240,1259,1279,1299,1320,1339,1359,1379,1399,1419,1439,1459,1479,1500,1519,1539,1559,1580,1599,1620,1639,1659,1679,1699,1719,1739,1759,1780,1800,1819,1839,1860,1879,1899,1920,1939,1959,1979,1999,2020,2039,2060,2080,2099,2120,2139,2159,2180,2199,2219,2239,2259,2279,2299,2320,2340,2359,2379,2400,2419,2439,2460,2480,2500,2519,2539,2559,2580,2599,2619,2639,2659,2680,2699,2719,2740,2759,2779,2800,2819,2840,2859,2879,2899,2920,2940,2960,2980,3000,3020,3040,3059,3080,3099,3120,3139,3159,3179,3199,3219,3240,3259,3280,3300,3319,3340,3360,3380,3400,3419,3439,3460,3480,3500,3520,3540,3559,3580,3600,3619,3639,3660,3679,3700,3719,3739,3759,3779,3799,3819,3840,3860,3879,3900,3920,3940,3959,3979,4000,4020,4040,4060,4079,4099,4121,4140,4159,4179,4199,4219,4239,4260,4279,4300,4319,4341,4360,4379,4401,4420,4439,4460,4479,4500,4520,4539,4559,4579,4600,4619,4639,4659,4679,4700,4719,4740,4760,4780,4799,4820,4840,4860,4879,4900,4920,4939,4959,4980,5000,5020,5039,5059,5079,5099,5119,5139,5159,5179,5200,5219,5239,5259,5279,5299,5319,5339,5359,5380,5399,5419,5439,5460,5479,5500,5519,5539,5560,5580,5600,5619,5639,5659,5679,5699,5719,5740,5759,5779,5800,5820,5839,5859,5879,5900,5919,5939,5959,5979,5999,6020,6039,6059,6079,6099,6119,6139,6159,6179,6199,6219,6239,6259,6279,6299,6319,6339,6359,6379,6399,6419,6439,6459,6479,6500,6519,6539,6559,6580,6600,6619,6639,6659,6680,6699,6719,6740,6760,6779,6799,6821,6840,6859,6879,6900,6920,6939,6959,6980,6999,7020,7039,7059,7079,7100,7119,7140,7159,7180,7200,7219,7239,7259,7279,7299,7319,7341,7359,7380,7399,7419,7440,7460,7479,7500,7520,7539,7560,7579,7599,7619,7639,7659,7681,7699,7719,7739,7759,7779,7800,7819,7839,7859,7879,7899,7919,7939],"xSR":741.5,"ySR":573.95,"xT1":424.9,"yT1":0,"xT2":1058.1,"yT2":0,"toosoon":0,"cond_shown":"Congruent","ratio_trial":200,"L_num":8,"L_den":15,"R_num":7,"R_den":21,"correct_side":1,"subjID":"SantiagoFernandoJaramilloMatamoros19","gender":"0","school":"sexto","age":"11"},{"start_time":1551886982069,"click_time":1551886982960,"finger_time":1551886982638,"fix_duration":1048.1864527711998,"trial":6,"RT":569,"MT":322,"sideResp":1,"stimulus":[],"xmouse":[773,773,773,773,773,773,773,773,773,773,773,773,773,773,773,773,773,773,773,773,773,773,773,773,773,773,773,773,760,709,542,507,493,486,481,456,451,450,450,450,447,447,447,447,448],"ymouse":[608,608,608,608,608,608,608,608,608,608,608,608,608,608,608,608,608,608,608,608,608,608,608,608,608,608,608,607,564,485,360,317,287,265,232,162,146,143,140,137,129,122,116,110,96],"timestamp_mouse":[9,38,49,69,89,110,129,149,170,190,210,229,249,269,289,309,330,349,371,389,410,430,450,469,489,509,530,550,569,589,609,629,650,669,690,709,729,749,770,789,809,830,849,869,890],"xSR":741.5,"ySR":573.95,"xT1":424.9,"yT1":0,"xT2":1058.1,"yT2":0,"toosoon":0,"cond_shown":"Congruent","ratio_trial":200,"L_num":21,"L_den":30,"R_num":2,"R_den":4,"correct_side":1,"subjID":"SantiagoFernandoJaramilloMatamoros19","gender":"0","school":"sexto","age":"11"},{"start_time":1551886985510,"click_time":1551886986999,"finger_time":1551886986558,"fix_duration":250,"trial":7,"RT":1048,"MT":441,"sideResp":2,"stimulus":[],"xmouse":[800,800,800,800,800,800,800,800,800,800,800,800,800,800,800,800,800,800,800,800,800,800,800,800,800,800,800,800,800,800,800,800,800,800,800,800,800,800,800,800,800,800,800,800,800,800,800,800,800,800,800,800,835,933,953,967,970,971,972,974,977,980,982,988,989,994,1003,1014,1029,1034,1039,1043,1048,1056,1059],"ymouse":[638,638,638,638,638,638,638,638,638,638,638,638,638,638,638,638,638,638,638,638,638,638,638,638,638,638,638,638,638,638,638,638,638,638,638,638,638,638,638,638,638,638,638,638,638,638,638,638,638,638,638,636,551,339,283,244,225,213,198,192,185,172,160,149,148,145,139,131,113,104,95,87,78,69,67],"timestamp_mouse":[11,28,57,68,89,109,128,149,168,188,208,229,248,269,288,309,329,349,368,388,409,428,448,468,489,509,529,548,568,588,608,629,649,669,689,708,729,748,768,788,808,828,849,868,888,908,928,948,968,988,1009,1029,1048,1068,1089,1109,1128,1148,1168,1188,1208,1229,1249,1269,1288,1308,1328,1348,1368,1389,1408,1428,1449,1468,1489],"xSR":741.5,"ySR":573.95,"xT1":424.9,"yT1":0,"xT2":1058.1,"yT2":0,"toosoon":0,"cond_shown":"Congruent","ratio_trial":300,"L_num":7,"L_den":14,"R_num":20,"R_den":25,"correct_side":2,"subjID":"SantiagoFernandoJaramilloMatamoros19","gender":"0","school":"sexto","age":"11"},{"start_time":1551886990763,"click_time":1551886992298,"finger_time":1551886991919,"fix_duration":1363.2103064482758,"trial":8,"RT":1156,"MT":379,"sideResp":2,"stimulus":[],"xmouse":[798,798,798,798,798,798,798,798,798,798,798,798,798,798,798,798,798,798,798,798,798,798,798,798,798,798,798,798,798,798,798,798,798,798,798,798,798,798,798,798,798,798,798,798,798,798,798,798,798,798,798,798,798,798,798,798,821,843,890,931,944,968,974,976,978,979,983,986,993,998,1006,1010,1014,1022,1029,1048,1059],"ymouse":[632,632,632,632,632,632,632,632,632,632,632,632,632,632,632,632,632,632,632,632,632,632,632,632,632,632,632,632,632,632,632,632,632,632,632,632,632,632,632,632,632,632,632,632,632,632,632,632,632,632,632,632,632,632,632,632,588,533,425,297,243,189,176,165,156,147,131,123,106,96,84,80,78,75,73,69,67],"timestamp_mouse":[15,35,55,75,95,116,136,155,176,196,216,235,255,276,295,316,335,355,375,396,416,435,455,476,495,516,535,557,575,595,616,636,655,675,695,716,737,755,775,795,816,835,856,875,896,916,935,955,975,996,1015,1035,1056,1076,1096,1115,1135,1156,1176,1196,1215,1235,1256,1275,1296,1315,1336,1356,1375,1395,1416,1435,1455,1475,1496,1516,1535],"xSR":741.5,"ySR":573.95,"xT1":424.9,"yT1":0,"xT2":1058.1,"yT2":0,"toosoon":0,"cond_shown":"Incongruent","ratio_trial":100,"L_num":2,"L_den":4,"R_num":8,"R_den":20,"correct_side":1,"subjID":"SantiagoFernandoJaramilloMatamoros19","gender":"0","school":"sexto","age":"11"},{"start_time":1551886995975,"click_time":1551886997859,"finger_time":1551886997698,"fix_duration":735.3962607114358,"trial":9,"RT":1723,"MT":161,"sideResp":2,"stimulus":[],"xmouse":[788,788,788,788,788,788,788,788,788,788,788,788,788,788,788,788,788,788,788,788,788,788,788,788,788,788,788,788,788,788,788,788,788,788,788,788,788,788,788,788,788,788,788,788,788,788,788,788,788,788,788,788,788,788,788,788,788,788,788,788,788,788,788,788,788,788,788,788,788,788,788,788,788,788,788,788,788,788,788,788,788,788,788,788,797,807,879,971,1029,1068,1099,1124,1127,1130,1132],"ymouse":[620,620,620,620,620,620,620,620,620,620,620,620,620,620,620,620,620,620,620,620,620,620,620,620,620,620,620,620,620,620,620,620,620,620,620,620,620,620,620,620,620,620,620,620,620,620,620,620,620,620,620,620,620,620,620,620,620,620,620,620,620,620,620,620,620,620,620,620,620,620,620,620,620,620,620,620,620,620,620,620,620,620,620,620,610,600,524,413,334,270,214,142,122,103,88],"timestamp_mouse":[8,40,43,63,83,103,124,143,163,183,204,223,244,264,283,304,324,343,363,384,404,424,445,463,485,503,523,543,564,583,603,623,643,663,684,704,724,743,763,783,803,823,843,864,884,904,923,943,963,983,1003,1024,1044,1063,1084,1104,1123,1144,1164,1184,1203,1224,1243,1264,1284,1303,1323,1343,1363,1383,1403,1424,1443,1463,1483,1503,1523,1543,1563,1583,1603,1623,1643,1664,1684,1704,1723,1745,1763,1783,1803,1823,1844,1864,1883],"xSR":741.5,"ySR":573.95,"xT1":424.9,"yT1":0,"xT2":1058.1,"yT2":0,"toosoon":0,"cond_shown":"Incongruent","ratio_trial":300,"L_num":4,"L_den":5,"R_num":8,"R_den":16,"correct_side":1,"subjID":"SantiagoFernandoJaramilloMatamoros19","gender":"0","school":"sexto","age":"11"},{"start_time":1551886999310,"click_time":1551887000819,"finger_time":1551887000519,"fix_duration":250,"trial":10,"RT":1209,"MT":300,"sideResp":1,"stimulus":[],"xmouse":[788,788,788,788,788,788,788,788,788,788,788,788,788,788,788,788,788,788,788,788,788,788,788,788,788,788,788,788,788,788,788,788,788,788,788,788,788,788,788,788,788,788,788,788,788,788,788,788,788,788,788,788,788,788,786,778,774,763,751,743,727,706,662,600,517,513,512,512,512,512,512,512,512,512,512,510],"ymouse":[633,633,633,633,633,633,633,633,633,633,633,633,633,633,633,633,633,633,633,633,633,633,633,633,633,633,633,633,633,633,633,633,633,633,633,633,633,633,633,633,633,633,633,633,633,633,633,633,633,633,633,633,633,633,633,628,624,614,603,595,548,460,295,127,0,0,0,0,0,0,0,0,0,0,0,3],"timestamp_mouse":[8,35,49,68,88,108,128,148,168,189,209,228,249,268,288,309,329,349,368,388,408,429,448,469,488,509,528,549,568,588,608,629,648,669,688,708,729,748,769,789,808,829,848,868,888,909,929,949,968,988,1008,1028,1049,1068,1088,1109,1128,1148,1168,1188,1208,1228,1248,1268,1288,1308,1328,1349,1368,1389,1408,1429,1449,1468,1488,1508],"xSR":741.5,"ySR":573.95,"xT1":424.9,"yT1":0,"xT2":1058.1,"yT2":0,"toosoon":0,"cond_shown":"Incongruent","ratio_trial":200,"L_num":6,"L_den":20,"R_num":3,"R_den":6,"correct_side":2,"subjID":"SantiagoFernandoJaramilloMatamoros19","gender":"0","school":"sexto","age":"11"},{"start_time":1551887002770,"click_time":1551887003938,"finger_time":1551887003579,"fix_duration":250,"trial":11,"RT":809,"MT":359,"sideResp":1,"stimulus":[],"xmouse":[769,769,769,769,769,769,769,769,769,769,769,769,769,769,769,769,769,769,769,769,769,769,769,769,769,769,769,769,769,769,769,769,769,769,769,769,769,769,769,759,739,722,696,683,657,621,583,569,569,569,569,569,569,570,570,567,556,526,509],"ymouse":[655,655,655,655,655,655,655,655,655,655,655,655,655,655,655,655,655,655,655,655,655,655,655,655,655,655,655,655,655,655,655,655,655,655,655,655,655,655,652,635,617,604,527,445,358,272,215,199,199,199,199,199,190,187,179,160,135,98,81],"timestamp_mouse":[9,29,65,68,88,108,128,149,168,188,208,228,248,268,289,309,330,348,368,389,408,428,448,469,488,508,528,548,568,588,608,628,648,668,688,708,728,748,768,789,809,829,848,868,888,908,929,948,968,988,1008,1028,1048,1068,1088,1108,1129,1148,1168],"xSR":741.5,"ySR":573.95,"xT1":424.9,"yT1":0,"xT2":1058.1,"yT2":0,"toosoon":0,"cond_shown":"Congruent","ratio_trial":300,"L_num":20,"L_den":25,"R_num":13,"R_den":26,"correct_side":1,"subjID":"SantiagoFernandoJaramilloMatamoros19","gender":"0","school":"sexto","age":"11"},{"start_time":1551887005239,"click_time":1551887006817,"finger_time":1551887006197,"fix_duration":279.78591091178737,"trial":12,"RT":958,"MT":620,"sideResp":1,"stimulus":[],"xmouse":[813,813,813,813,813,813,813,813,813,813,813,813,813,813,813,813,813,813,813,813,813,813,813,813,813,813,813,813,813,813,813,813,813,813,813,813,813,813,813,813,813,813,813,813,813,813,809,799,751,697,685,679,675,671,669,669,669,669,669,692,723,762,784,790,788,784,770,745,703,573,543,532,529,528,523,519,516,515,514,512],"ymouse":[618,618,618,618,618,618,618,618,618,618,618,618,618,618,618,618,618,618,618,618,618,618,618,618,618,618,618,618,618,618,618,618,618,618,618,618,618,618,618,618,618,618,618,618,618,618,611,587,497,413,383,362,337,315,289,288,288,288,288,287,284,271,258,251,244,241,237,230,215,161,146,136,134,131,125,119,114,109,104,86],"timestamp_mouse":[1,18,38,58,78,98,118,140,158,179,200,218,238,258,278,300,318,339,360,379,398,419,438,458,478,498,518,539,558,579,599,618,639,659,679,700,719,738,758,780,798,819,839,858,880,899,918,939,958,978,998,1019,1038,1059,1079,1098,1119,1139,1159,1178,1199,1220,1238,1258,1278,1298,1318,1339,1359,1379,1398,1419,1438,1458,1478,1498,1518,1538,1559,1578],"xSR":741.5,"ySR":573.95,"xT1":424.9,"yT1":0,"xT2":1058.1,"yT2":0,"toosoon":0,"cond_shown":"Congruent","ratio_trial":300,"L_num":8,"L_den":16,"R_num":1,"R_den":5,"correct_side":1,"subjID":"SantiagoFernandoJaramilloMatamoros19","gender":"0","school":"sexto","age":"11"},{"start_time":1551887009732,"click_time":1551887010537,"finger_time":1551887010337,"fix_duration":553.8332449646208,"trial":13,"RT":605,"MT":200,"sideResp":2,"stimulus":[],"xmouse":[792,792,792,792,792,792,792,792,792,792,792,792,792,792,792,792,792,792,792,792,792,792,792,792,792,792,792,792,792,792,863,1017,1087,1138,1162,1159,1149,1141,1135,1131,1125],"ymouse":[626,626,626,626,626,626,626,626,626,626,626,626,626,626,626,626,626,626,626,626,626,626,626,626,626,626,626,626,626,620,532,358,273,211,156,145,130,118,106,101,91],"timestamp_mouse":[9,41,46,65,85,106,126,145,165,185,205,226,245,265,286,306,326,346,366,386,406,426,445,466,486,505,526,545,565,586,605,626,647,666,687,705,726,746,765,786,805],"xSR":741.5,"ySR":573.95,"xT1":424.9,"yT1":0,"xT2":1058.1,"yT2":0,"toosoon":0,"cond_shown":"Congruent","ratio_trial":300,"L_num":1,"L_den":5,"R_num":11,"R_den":22,"correct_side":2,"subjID":"SantiagoFernandoJaramilloMatamoros19","gender":"0","school":"sexto","age":"11"},{"start_time":1551887012401,"click_time":1551887014318,"finger_time":1551887013857,"fix_duration":601.4250605093611,"trial":14,"RT":1456,"MT":461,"sideResp":2,"stimulus":[],"xmouse":[756,756,756,756,756,756,756,756,756,756,756,756,756,756,756,756,756,756,756,756,756,756,756,756,756,756,756,756,756,756,756,756,756,756,756,756,756,756,756,756,756,756,756,756,756,756,756,756,756,756,756,756,756,756,756,756,756,756,756,756,756,756,756,756,756,756,756,756,756,756,756,762,805,852,884,894,898,905,927,955,1006,1065,1171,1189,1190,1190,1189,1189,1189,1189,1189,1189,1188,1182,1171,1155],"ymouse":[635,635,635,635,635,635,635,635,635,635,635,635,635,635,635,635,635,635,635,635,635,635,635,635,635,635,635,635,635,635,635,635,635,635,635,635,635,635,635,635,635,635,635,635,635,635,635,635,635,635,635,635,635,635,635,635,635,635,635,635,635,635,635,635,635,635,635,635,635,635,635,623,560,479,419,402,395,382,348,304,241,169,9,0,0,0,0,0,0,0,0,0,0,0,5,13],"timestamp_mouse":[17,40,56,77,96,116,137,157,177,197,216,236,256,278,296,316,337,356,377,396,417,437,457,477,496,517,536,556,576,596,617,637,656,677,696,716,737,758,778,797,817,836,856,876,896,916,936,957,977,996,1016,1037,1058,1078,1097,1118,1137,1156,1176,1196,1218,1238,1256,1276,1297,1316,1336,1356,1376,1397,1416,1437,1456,1476,1496,1516,1537,1556,1578,1597,1616,1636,1657,1678,1698,1717,1737,1756,1777,1796,1817,1836,1856,1877,1896,1917],"xSR":741.5,"ySR":573.95,"xT1":424.9,"yT1":0,"xT2":1058.1,"yT2":0,"toosoon":0,"cond_shown":"Incongruent","ratio_trial":300,"L_num":8,"L_den":10,"R_num":9,"R_den":18,"correct_side":1,"subjID":"SantiagoFernandoJaramilloMatamoros19","gender":"0","school":"sexto","age":"11"},{"start_time":1551887016078,"click_time":1551887017679,"finger_time":1551887017579,"fix_duration":500.5996990760151,"trial":15,"RT":1501,"MT":100,"sideResp":1,"stimulus":[],"xmouse":[829,828,828,828,828,828,828,828,828,828,828,828,828,828,828,828,828,828,828,828,828,828,828,828,828,828,828,828,828,828,828,828,828,828,828,828,828,828,828,828,828,828,828,828,828,828,828,828,828,828,828,828,828,828,828,828,828,828,828,828,828,828,828,828,828,828,828,828,828,828,828,828,828,815,784,738,683,576,539,517],"ymouse":[599,600,600,600,600,600,600,600,600,600,600,600,600,600,600,600,600,600,600,600,600,600,600,600,600,600,600,600,600,600,600,600,600,600,600,600,600,600,600,600,600,600,600,600,600,600,600,600,600,600,600,600,600,600,600,600,600,600,600,600,600,600,600,600,600,600,600,600,600,600,600,600,600,577,474,320,191,52,24,7],"timestamp_mouse":[20,43,60,80,99,119,139,160,179,201,219,240,259,280,299,319,339,360,379,401,420,440,460,480,500,519,541,560,579,599,620,641,659,679,701,720,740,759,780,799,820,840,860,881,900,919,939,959,981,999,1020,1039,1059,1079,1100,1119,1140,1159,1180,1199,1220,1240,1259,1279,1299,1319,1341,1359,1381,1400,1420,1441,1460,1480,1501,1520,1540,1560,1579,1601],"xSR":741.5,"ySR":573.95,"xT1":424.9,"yT1":0,"xT2":1058.1,"yT2":0,"toosoon":0,"cond_shown":"Congruent","ratio_trial":100,"L_num":3,"L_den":20,"R_num":4,"R_den":16,"correct_side":2,"subjID":"SantiagoFernandoJaramilloMatamoros19","gender":"0","school":"sexto","age":"11"},{"start_time":1551887019902,"click_time":1551887020638,"finger_time":1551887020557,"fix_duration":1003.6351553924885,"trial":16,"RT":655,"MT":81,"sideResp":2,"stimulus":[],"xmouse":[794,794,794,794,794,794,794,794,794,794,794,794,794,794,794,794,794,794,794,794,794,794,794,794,794,794,794,794,794,794,794,805,827,856,901,971,1094],"ymouse":[611,611,611,611,611,611,611,611,611,611,611,611,611,611,611,611,611,611,611,611,611,611,611,611,611,611,611,611,611,611,611,595,573,541,464,338,85],"timestamp_mouse":[18,43,56,75,95,116,137,155,175,196,215,236,257,275,297,315,335,356,377,395,415,436,457,475,495,516,535,556,577,596,615,636,655,675,695,715,735],"xSR":741.5,"ySR":573.95,"xT1":424.9,"yT1":0,"xT2":1058.1,"yT2":0,"toosoon":0,"cond_shown":"Congruent","ratio_trial":100,"L_num":6,"L_den":12,"R_num":15,"R_den":25,"correct_side":2,"subjID":"SantiagoFernandoJaramilloMatamoros19","gender":"0","school":"sexto","age":"11"},{"start_time":1551887023506,"click_time":1551887025438,"finger_time":1551887025178,"fix_duration":1385.083085088129,"trial":17,"RT":1672,"MT":260,"sideResp":1,"stimulus":[],"xmouse":[824,824,824,824,824,824,824,824,824,824,824,824,824,824,824,824,824,824,824,824,824,824,824,824,824,824,824,824,824,824,824,824,824,824,824,824,824,824,824,824,824,824,824,824,824,824,824,824,824,824,824,824,824,824,824,824,824,824,824,824,824,824,824,824,824,824,824,824,824,824,824,824,824,824,824,824,824,824,824,824,824,819,808,751,715,658,552,495,487,486,486,486,486,486,486,495,505],"ymouse":[626,626,626,626,626,626,626,626,626,626,626,626,626,626,626,626,626,626,626,626,626,626,626,626,626,626,626,626,626,626,626,626,626,626,626,626,626,626,626,626,626,626,626,625,625,625,625,625,625,625,625,625,625,625,625,625,625,625,625,625,625,625,625,625,625,625,625,625,625,625,625,625,625,625,625,625,625,625,625,625,625,618,590,395,336,284,200,155,148,147,147,147,147,144,131,103,84],"timestamp_mouse":[11,41,52,72,91,111,131,151,172,191,211,232,251,273,291,311,331,353,371,393,412,431,452,472,491,511,533,551,573,593,611,632,652,671,692,712,731,752,771,791,811,831,853,871,911,911,931,952,973,992,1012,1031,1051,1071,1091,1112,1132,1151,1171,1193,1211,1231,1251,1271,1291,1312,1332,1351,1371,1392,1412,1431,1453,1471,1493,1513,1531,1552,1572,1591,1612,1631,1651,1672,1693,1711,1732,1752,1771,1791,1811,1831,1851,1872,1893,1912,1932],"xSR":741.5,"ySR":573.95,"xT1":424.9,"yT1":0,"xT2":1058.1,"yT2":0,"toosoon":0,"cond_shown":"Incongruent","ratio_trial":300,"L_num":13,"L_den":26,"R_num":12,"R_den":15,"correct_side":2,"subjID":"SantiagoFernandoJaramilloMatamoros19","gender":"0","school":"sexto","age":"11"},{"start_time":1551887027650,"click_time":1551887028818,"finger_time":1551887028278,"fix_duration":970.7039864055093,"trial":18,"RT":628,"MT":540,"sideResp":1,"stimulus":[],"xmouse":[790,790,790,790,790,790,790,790,790,790,790,790,790,790,790,790,790,790,790,790,790,790,790,790,790,790,790,790,790,790,787,767,732,688,649,630,611,606,604,600,592,582,577,575,572,567,542,529,529,529,529,529,529,529,529,529,529,527,520],"ymouse":[634,634,634,634,634,634,634,634,634,634,634,634,634,634,634,634,634,634,634,634,634,634,634,634,634,634,634,634,634,634,626,503,352,222,143,108,79,69,66,59,51,44,42,41,41,41,42,44,44,44,44,44,44,44,44,44,44,45,49],"timestamp_mouse":[13,39,47,67,88,108,127,147,169,189,208,227,247,268,288,308,328,347,369,387,408,428,447,468,487,508,528,548,568,588,609,628,649,667,687,708,728,748,767,787,808,827,847,868,888,908,929,948,967,987,1008,1028,1049,1067,1088,1107,1127,1147,1167],"xSR":741.5,"ySR":573.95,"xT1":424.9,"yT1":0,"xT2":1058.1,"yT2":0,"toosoon":0,"cond_shown":"Congruent","ratio_trial":200,"L_num":21,"L_den":30,"R_num":2,"R_den":4,"correct_side":1,"subjID":"SantiagoFernandoJaramilloMatamoros19","gender":"0","school":"sexto","age":"11"},{"start_time":1551887030468,"click_time":1551887032038,"finger_time":1551887031738,"fix_duration":589.6445233892974,"trial":19,"RT":1270,"MT":300,"sideResp":1,"stimulus":[],"xmouse":[804,804,804,804,804,804,804,804,804,804,804,804,804,804,804,804,804,804,804,804,804,804,804,804,804,804,804,804,804,804,804,804,804,804,804,804,804,804,804,804,804,804,804,804,804,804,804,804,804,804,804,804,804,804,804,804,804,804,804,804,804,796,765,716,656,476,400,372,370,372,376,376,376,377,382,405,415,423,425],"ymouse":[627,627,627,627,627,627,627,627,627,627,627,627,627,627,627,627,627,627,627,627,627,627,627,627,627,627,627,627,627,627,627,627,627,627,627,627,627,627,627,627,627,627,627,627,627,627,627,627,627,627,627,627,627,627,627,627,627,627,627,627,627,625,599,554,486,236,117,63,49,43,36,36,35,35,33,23,18,16,15],"timestamp_mouse":[9,41,50,71,89,111,129,151,169,189,209,230,250,271,290,310,330,350,369,390,410,429,451,469,489,510,531,549,569,589,611,630,649,669,690,709,729,750,770,789,809,831,849,871,891,909,929,950,969,991,1009,1030,1049,1069,1089,1110,1129,1149,1169,1189,1209,1231,1249,1270,1290,1310,1329,1350,1370,1391,1409,1430,1450,1471,1490,1509,1530,1550,1570],"xSR":741.5,"ySR":573.95,"xT1":424.9,"yT1":0,"xT2":1058.1,"yT2":0,"toosoon":0,"cond_shown":"Incongruent","ratio_trial":200,"L_num":11,"L_den":20,"R_num":3,"R_den":4,"correct_side":2,"subjID":"SantiagoFernandoJaramilloMatamoros19","gender":"0","school":"sexto","age":"11"},{"start_time":1551887035363,"click_time":1551887036858,"finger_time":1551887036657,"fix_duration":963.6017197024555,"trial":20,"RT":1294,"MT":201,"sideResp":1,"stimulus":[],"xmouse":[785,785,785,785,785,785,785,785,785,785,785,785,785,785,785,785,785,785,785,785,785,785,785,785,785,785,785,785,785,785,785,785,785,785,785,785,785,785,785,785,785,785,785,785,785,785,785,785,785,785,785,785,785,785,785,785,785,785,785,785,785,785,785,785,781,768,702,675,656,645,634,604,564,530,514],"ymouse":[595,595,595,595,595,595,595,595,595,595,595,595,595,595,595,595,595,595,595,595,595,595,595,595,595,595,595,595,595,595,595,595,595,595,595,595,595,595,595,595,595,595,595,595,595,595,595,595,595,595,595,595,595,595,595,595,595,595,595,595,595,595,595,595,545,512,371,323,292,270,250,187,123,73,54],"timestamp_mouse":[15,35,54,74,95,114,136,154,176,195,214,234,256,275,296,314,335,355,375,395,414,434,454,474,495,515,535,554,574,594,614,635,654,675,695,714,734,754,774,794,815,834,855,875,896,915,934,954,974,994,1014,1036,1056,1074,1094,1114,1135,1154,1175,1194,1215,1234,1255,1275,1294,1315,1334,1355,1375,1394,1415,1434,1454,1474,1495],"xSR":741.5,"ySR":573.95,"xT1":424.9,"yT1":0,"xT2":1058.1,"yT2":0,"toosoon":0,"cond_shown":"Incongruent","ratio_trial":200,"L_num":4,"L_den":30,"R_num":1,"R_den":3,"correct_side":2,"subjID":"SantiagoFernandoJaramilloMatamoros19","gender":"0","school":"sexto","age":"11"},{"start_time":1551887041359,"click_time":1551887042979,"finger_time":1551887042898,"fix_duration":1460.1028965985702,"trial":21,"RT":1539,"MT":81,"sideResp":1,"stimulus":[],"xmouse":[752,752,752,752,752,752,752,752,752,752,752,752,752,752,752,752,752,752,752,752,752,752,752,752,752,752,752,752,752,752,752,752,752,752,752,752,752,752,752,752,752,752,752,752,752,752,752,752,752,752,752,752,752,752,752,752,752,752,752,752,752,752,752,752,752,752,752,752,752,752,752,752,752,752,752,752,731,687,630,562,495],"ymouse":[618,618,618,618,618,618,618,618,618,618,618,618,618,618,618,618,618,618,618,618,618,618,618,618,618,618,618,618,618,618,618,618,618,618,618,618,618,618,618,618,618,618,618,618,618,618,618,618,618,618,618,618,618,618,618,618,618,618,618,618,618,618,618,618,618,618,618,618,618,618,618,618,618,618,618,618,534,413,302,184,64],"timestamp_mouse":[19,38,58,78,98,119,138,158,179,199,218,238,260,278,298,318,340,359,379,398,418,440,459,478,498,519,538,558,579,600,618,638,659,680,698,719,739,758,778,799,819,839,858,878,898,918,938,959,978,998,1019,1039,1059,1078,1098,1120,1139,1159,1178,1198,1218,1239,1258,1279,1298,1319,1338,1359,1378,1399,1419,1440,1459,1479,1498,1519,1539,1558,1578,1599,1620],"xSR":741.5,"ySR":573.95,"xT1":424.9,"yT1":0,"xT2":1058.1,"yT2":0,"toosoon":0,"cond_shown":"Congruent","ratio_trial":100,"L_num":6,"L_den":20,"R_num":5,"R_den":25,"correct_side":1,"subjID":"SantiagoFernandoJaramilloMatamoros19","gender":"0","school":"sexto","age":"11"},{"start_time":1551887044518,"click_time":1551887050558,"finger_time":1551887047979,"fix_duration":739.8646718403694,"trial":22,"RT":3461,"MT":2579,"sideResp":1,"stimulus":[],"xmouse":[760,760,760,760,760,760,760,760,760,760,760,760,760,760,760,760,760,760,760,760,760,760,760,760,760,760,760,760,760,760,760,760,760,760,760,760,760,760,760,760,760,760,760,760,760,760,760,760,760,760,760,760,760,760,760,760,760,760,760,760,760,760,760,760,760,760,760,760,760,760,760,760,760,760,760,760,760,760,760,760,760,760,760,760,760,760,760,760,760,760,760,760,760,760,760,760,760,760,760,760,760,760,760,760,760,760,760,760,760,760,760,760,760,760,760,760,760,760,760,760,760,760,760,760,760,760,760,760,760,760,760,760,760,760,760,760,760,760,760,760,760,760,760,760,760,760,760,760,760,760,760,760,760,760,760,760,760,760,760,760,760,760,760,760,760,760,760,760,760,760,760,752,740,706,693,633,619,613,608,601,600,600,600,600,629,655,683,709,726,739,742,742,742,742,742,742,742,742,742,742,742,742,742,742,742,742,742,742,742,742,742,742,742,742,742,742,742,742,742,742,742,742,742,742,742,743,743,756,763,777,778,778,778,778,778,778,778,778,778,778,778,778,778,778,778,778,778,778,778,778,778,778,778,778,778,778,778,778,778,778,778,778,778,778,778,778,778,778,778,778,778,778,778,778,778,778,778,778,778,778,778,778,778,778,778,778,778,777,761,683,637,590,553,528,521,514,514,514,514,514,514,509],"ymouse":[613,613,613,613,613,613,613,613,613,613,613,613,613,613,613,613,613,613,613,613,613,613,613,613,613,613,613,613,613,613,613,613,613,613,613,613,613,613,613,613,613,613,613,613,613,613,613,613,613,613,613,613,613,613,613,613,613,613,613,613,613,613,613,613,613,613,613,613,613,613,613,613,613,613,613,613,613,613,613,613,613,613,613,613,613,613,613,613,613,613,613,613,613,613,613,613,613,613,613,613,613,613,613,613,613,613,613,613,613,613,613,613,613,613,613,613,613,613,613,613,613,613,613,613,613,613,613,613,613,613,613,613,613,613,613,613,613,613,613,613,613,613,613,613,613,613,613,613,613,613,613,613,613,613,613,613,613,613,613,613,613,613,613,613,613,613,613,613,613,613,613,612,612,612,613,623,627,630,632,637,638,638,638,638,638,634,631,627,624,622,622,622,622,622,622,622,622,622,622,622,622,622,622,622,622,622,622,622,622,622,622,622,622,622,622,622,622,622,622,622,622,622,622,622,622,622,622,617,615,614,614,614,614,614,614,614,614,614,614,614,614,614,614,614,614,614,614,614,614,614,614,614,614,614,614,614,614,614,614,614,614,614,614,614,614,614,614,614,614,614,614,614,614,614,614,614,614,614,614,614,614,614,614,614,614,614,608,591,519,324,216,113,40,0,0,0,0,0,0,0,0,5],"timestamp_mouse":[19,41,60,81,99,121,139,160,180,199,219,239,259,279,300,320,339,359,380,400,419,440,459,479,500,520,541,561,580,600,620,640,660,680,699,720,739,759,780,799,820,840,860,879,900,920,940,961,979,999,1020,1040,1060,1081,1100,1119,1141,1159,1180,1200,1219,1239,1260,1279,1299,1320,1341,1360,1380,1400,1419,1439,1460,1481,1499,1520,1539,1559,1579,1599,1619,1639,1659,1680,1700,1719,1739,1759,1780,1799,1820,1840,1859,1881,1899,1920,1939,1959,1979,2001,2019,2039,2060,2079,2100,2119,2139,2159,2179,2199,2220,2239,2259,2280,2299,2320,2340,2359,2379,2401,2419,2439,2459,2480,2500,2520,2539,2559,2579,2600,2620,2640,2660,2679,2699,2721,2739,2760,2779,2799,2819,2839,2859,2879,2899,2920,2939,2960,2980,2999,3020,3040,3060,3081,3099,3120,3140,3159,3180,3200,3220,3241,3259,3279,3301,3320,3340,3359,3379,3400,3419,3439,3461,3479,3499,3519,3539,3559,3581,3600,3620,3639,3660,3680,3700,3719,3739,3760,3779,3799,3820,3840,3860,3879,3901,3919,3939,3960,3979,3999,4019,4039,4059,4080,4099,4119,4140,4159,4180,4199,4219,4239,4259,4280,4301,4319,4340,4361,4380,4399,4420,4439,4459,4479,4499,4521,4540,4560,4579,4599,4620,4641,4659,4679,4700,4721,4739,4760,4781,4799,4820,4839,4860,4880,4899,4921,4939,4961,4980,5000,5019,5039,5059,5080,5100,5121,5140,5159,5181,5200,5219,5240,5259,5281,5301,5319,5341,5359,5381,5400,5419,5440,5459,5481,5499,5520,5540,5560,5579,5600,5620,5640,5660,5679,5699,5720,5741,5760,5779,5799,5819,5839,5859,5881,5900,5920,5941,5959,5980,6000,6019,6040],"xSR":741.5,"ySR":573.95,"xT1":424.9,"yT1":0,"xT2":1058.1,"yT2":0,"toosoon":0,"cond_shown":"Incongruent","ratio_trial":200,"L_num":7,"L_den":15,"R_num":6,"R_den":9,"correct_side":2,"subjID":"SantiagoFernandoJaramilloMatamoros19","gender":"0","school":"sexto","age":"11"},{"start_time":1551887053101,"click_time":1551887054178,"finger_time":1551887053858,"fix_duration":1283.0290255747252,"trial":23,"RT":757,"MT":320,"sideResp":2,"stimulus":[],"xmouse":[799,799,799,799,799,799,799,799,799,799,799,799,799,799,799,799,799,799,799,799,799,799,799,799,799,799,799,799,799,799,799,799,799,799,799,799,801,839,905,1003,1111,1201,1203,1203,1203,1201,1200,1200,1199,1197,1195,1183,1174,1158],"ymouse":[621,621,621,621,621,621,621,621,621,621,621,621,621,621,621,621,621,621,621,621,621,621,621,621,621,621,621,621,621,621,621,621,621,621,621,621,614,569,505,410,305,143,128,122,118,115,113,110,107,104,102,98,94,85],"timestamp_mouse":[17,36,66,77,97,117,138,157,176,197,217,238,256,277,297,317,336,357,378,398,417,437,456,476,496,516,536,557,576,597,616,636,658,676,698,716,736,757,777,797,817,836,856,876,896,917,936,956,977,998,1017,1036,1057,1076],"xSR":741.5,"ySR":573.95,"xT1":424.9,"yT1":0,"xT2":1058.1,"yT2":0,"toosoon":0,"cond_shown":"Incongruent","ratio_trial":100,"L_num":6,"L_den":10,"R_num":13,"R_den":26,"correct_side":1,"subjID":"SantiagoFernandoJaramilloMatamoros19","gender":"0","school":"sexto","age":"11"},{"start_time":1551887059584,"click_time":1551887060497,"finger_time":1551887060218,"fix_duration":964.533627120615,"trial":24,"RT":634,"MT":279,"sideResp":2,"stimulus":[],"xmouse":[794,794,794,794,794,794,794,794,794,794,794,794,794,794,794,794,794,794,794,794,794,794,794,794,794,794,794,794,794,798,811,866,1047,1146,1218,1269,1278,1276,1266,1258,1248,1239,1209,1191,1170,1139],"ymouse":[607,607,607,607,607,607,607,607,607,607,607,607,607,607,607,607,607,607,607,607,607,607,607,607,607,607,607,607,607,607,598,545,357,272,201,127,107,94,84,80,75,71,65,64,63,63],"timestamp_mouse":[13,34,54,75,93,113,135,153,175,194,214,235,253,274,294,313,334,355,374,394,413,434,454,474,493,513,534,553,573,593,613,634,653,673,694,713,735,754,773,794,813,834,854,873,893,913],"xSR":741.5,"ySR":573.95,"xT1":424.9,"yT1":0,"xT2":1058.1,"yT2":0,"toosoon":0,"cond_shown":"Congruent","ratio_trial":100,"L_num":2,"L_den":5,"R_num":6,"R_den":12,"correct_side":2,"subjID":"SantiagoFernandoJaramilloMatamoros19","gender":"0","school":"sexto","age":"11"},{"start_time":1551887062093,"click_time":1551887064199,"finger_time":1551887063298,"fix_duration":812.6363676288365,"trial":25,"RT":1205,"MT":901,"sideResp":2,"stimulus":[],"xmouse":[826,826,826,826,826,826,826,826,826,826,826,826,826,826,826,826,826,826,826,826,826,826,826,826,826,826,826,826,826,826,826,826,826,826,826,826,826,826,826,826,826,826,826,826,826,826,826,826,826,826,826,826,826,826,826,826,826,826,826,839,850,863,928,965,992,1007,1017,1022,1029,1030,1030,1034,1051,1067,1080,1094,1107,1113,1117,1117,1118,1118,1118,1118,1118,1118,1118,1118,1118,1118,1118,1118,1118,1118,1118,1118,1118,1118,1118,1118,1118,1118,1118,1118,1119,1119],"ymouse":[653,653,653,653,653,653,653,653,653,653,653,653,653,653,653,653,653,653,653,653,653,653,653,653,653,653,653,653,653,653,653,653,653,653,653,653,653,653,653,653,653,653,653,653,653,653,653,653,653,653,653,653,653,653,653,653,653,653,652,631,611,585,414,279,164,100,70,50,29,27,27,22,5,0,0,0,0,0,0,0,0,0,0,0,0,0,0,0,0,0,0,0,0,0,0,0,0,0,0,0,0,0,0,0,0,4],"timestamp_mouse":[10,34,44,64,84,105,124,145,165,184,204,224,244,265,284,305,324,344,365,386,404,424,444,464,486,504,525,544,564,585,605,624,645,664,685,704,724,746,764,785,804,825,845,865,885,906,924,944,964,984,1005,1025,1044,1064,1085,1104,1124,1145,1164,1185,1205,1224,1245,1264,1285,1305,1325,1345,1365,1384,1404,1424,1446,1465,1484,1505,1524,1545,1566,1584,1604,1624,1644,1666,1686,1705,1726,1745,1764,1785,1805,1824,1844,1864,1886,1905,1925,1944,1965,1984,2005,2026,2045,2065,2084,2106],"xSR":741.5,"ySR":573.95,"xT1":424.9,"yT1":0,"xT2":1058.1,"yT2":0,"toosoon":0,"cond_shown":"Incongruent","ratio_trial":200,"L_num":4,"L_den":6,"R_num":14,"R_den":30,"correct_side":1,"subjID":"SantiagoFernandoJaramilloMatamoros19","gender":"0","school":"sexto","age":"11"},{"start_time":1551887065852,"click_time":1551887067078,"finger_time":1551887066738,"fix_duration":573.5076627246682,"trial":26,"RT":886,"MT":340,"sideResp":1,"stimulus":[],"xmouse":[797,797,797,797,797,797,797,797,797,797,797,797,797,797,797,797,797,797,797,797,797,797,797,797,797,797,797,797,797,797,797,797,797,797,797,797,797,797,797,797,797,797,797,797,797,793,739,684,626,584,553,552,552,552,552,552,549,547,546,540,530,498],"ymouse":[616,616,616,616,616,616,616,616,616,616,616,616,616,616,616,616,616,616,616,616,616,616,616,616,616,616,616,616,616,616,616,616,616,616,616,616,616,616,616,616,616,616,616,616,563,516,344,241,149,91,52,51,51,51,51,50,47,45,44,44,44,53],"timestamp_mouse":[6,31,46,67,86,105,126,147,166,185,206,225,245,265,286,306,327,347,367,385,405,426,446,466,485,505,526,546,565,586,606,627,646,666,685,706,726,746,767,786,806,826,845,867,886,905,925,946,966,986,1007,1025,1046,1066,1087,1106,1126,1145,1166,1186,1205,1226],"xSR":741.5,"ySR":573.95,"xT1":424.9,"yT1":0,"xT2":1058.1,"yT2":0,"toosoon":0,"cond_shown":"Incongruent","ratio_trial":200,"L_num":4,"L_den":5,"R_num":6,"R_den":10,"correct_side":1,"subjID":"SantiagoFernandoJaramilloMatamoros19","gender":"0","school":"sexto","age":"11"},{"start_time":1551887069274,"click_time":1551887070337,"finger_time":1551887070278,"fix_duration":1015.8300293068509,"trial":27,"RT":1004,"MT":59,"sideResp":2,"stimulus":[],"xmouse":[758,758,758,758,760,761,762,762,762,762,762,762,762,762,762,762,762,762,762,762,762,762,762,762,762,762,762,762,762,762,762,762,762,762,762,762,762,762,762,762,762,762,762,762,762,762,762,762,762,778,863,938,1010,1075],"ymouse":[626,626,626,626,626,626,626,626,626,626,626,626,626,626,626,626,626,626,626,626,626,626,626,626,626,626,626,626,626,626,626,626,626,626,626,626,626,626,626,626,626,626,626,626,626,626,626,626,626,605,480,355,203,68],"timestamp_mouse":[14,36,45,64,85,104,123,144,165,183,205,224,243,264,285,303,324,345,363,384,404,425,444,464,485,505,523,544,565,584,604,624,643,663,684,704,725,744,765,783,805,824,843,864,884,904,924,944,964,984,1004,1025,1043,1063],"xSR":741.5,"ySR":573.95,"xT1":424.9,"yT1":0,"xT2":1058.1,"yT2":0,"toosoon":0,"cond_shown":"Incongruent","ratio_trial":200,"L_num":4,"L_den":30,"R_num":1,"R_den":3,"correct_side":2,"subjID":"SantiagoFernandoJaramilloMatamoros19","gender":"0","school":"sexto","age":"11"},{"start_time":1551887073149,"click_time":1551887074018,"finger_time":1551887073897,"fix_duration":970.4165000900533,"trial":28,"RT":748,"MT":121,"sideResp":1,"stimulus":[],"xmouse":[810,810,810,810,810,810,810,810,810,810,810,810,810,810,810,810,810,810,810,810,810,810,810,810,810,810,810,810,810,810,810,810,810,810,810,810,801,775,732,669,602,511,509,509],"ymouse":[621,621,621,621,621,621,621,621,621,621,621,621,621,621,621,621,621,621,621,621,621,621,621,621,621,621,621,621,621,621,621,621,621,621,621,621,597,530,453,353,258,116,100,96],"timestamp_mouse":[8,28,59,68,88,110,130,149,168,190,210,229,249,269,289,309,330,350,368,389,408,428,448,468,488,510,528,549,569,589,608,628,648,668,689,710,729,748,768,789,809,828,848,869],"xSR":741.5,"ySR":573.95,"xT1":424.9,"yT1":0,"xT2":1058.1,"yT2":0,"toosoon":0,"cond_shown":"Congruent","ratio_trial":300,"L_num":1,"L_den":3,"R_num":19,"R_den":30,"correct_side":2,"subjID":"SantiagoFernandoJaramilloMatamoros19","gender":"0","school":"sexto","age":"11"},{"start_time":1551887081502,"click_time":1551887083058,"finger_time":1551887082797,"fix_duration":1082.346225221785,"trial":29,"RT":1295,"MT":261,"sideResp":2,"stimulus":[],"xmouse":[791,791,791,791,791,791,791,791,791,791,791,791,791,791,791,791,791,791,791,791,791,791,791,791,791,791,791,791,791,791,791,791,791,791,791,791,791,791,791,791,791,791,791,791,791,791,791,791,791,791,791,791,791,791,791,791,791,791,791,791,791,791,790,792,832,868,912,947,970,992,993,993,993,993,1016,1036,1054,1066],"ymouse":[624,624,624,624,624,624,624,624,624,624,624,624,624,624,624,624,624,624,624,624,624,624,624,624,624,624,624,624,624,624,624,624,624,624,624,624,624,624,624,624,624,624,624,624,624,624,624,624,624,624,624,624,624,624,624,624,624,624,624,624,624,624,623,617,569,520,450,389,335,237,232,225,221,218,176,137,97,77],"timestamp_mouse":[16,35,60,75,97,116,137,155,177,195,217,235,256,275,295,316,337,355,375,396,416,437,457,477,495,516,535,555,575,597,616,637,655,676,695,716,736,756,776,795,815,835,857,876,897,917,936,956,976,996,1017,1036,1057,1076,1095,1117,1135,1156,1176,1195,1217,1237,1257,1277,1295,1316,1337,1356,1375,1395,1416,1436,1456,1477,1495,1516,1536,1556],"xSR":741.5,"ySR":573.95,"xT1":424.9,"yT1":0,"xT2":1058.1,"yT2":0,"toosoon":0,"cond_shown":"Congruent","ratio_trial":200,"L_num":6,"L_den":12,"R_num":7,"R_den":10,"correct_side":2,"subjID":"SantiagoFernandoJaramilloMatamoros19","gender":"0","school":"sexto","age":"11"},{"start_time":1551887085600,"click_time":1551887087319,"finger_time":1551887086678,"fix_duration":1301.5095081128763,"trial":30,"RT":1078,"MT":641,"sideResp":1,"stimulus":[],"xmouse":[809,809,809,809,809,809,809,809,809,809,809,809,809,809,809,809,809,809,809,809,809,809,809,809,809,809,809,809,809,809,809,809,809,809,809,809,809,809,809,809,809,809,809,809,809,809,809,809,809,809,809,809,798,776,710,674,640,608,586,556,536,525,522,522,522,522,523,528,542,557,557,555,553,551,547,547,547,547,547,547,547,547,546,542,534,502],"ymouse":[624,624,624,624,624,624,624,624,624,624,624,624,624,624,624,624,624,624,624,624,624,624,624,624,624,624,624,624,624,624,624,624,624,624,624,624,624,624,624,624,624,624,624,624,624,624,624,624,624,624,624,624,596,566,490,449,396,349,316,244,198,170,160,159,159,159,153,145,121,68,48,36,33,31,29,29,29,29,29,29,29,29,29,29,29,34],"timestamp_mouse":[24,38,61,78,97,119,139,158,178,197,217,238,258,277,298,318,338,358,377,397,418,437,459,479,498,518,539,557,578,598,618,639,657,678,698,718,739,759,778,797,819,838,859,877,897,917,937,958,977,998,1017,1038,1058,1078,1098,1117,1138,1159,1179,1198,1217,1239,1258,1278,1297,1319,1338,1359,1379,1398,1417,1439,1458,1479,1498,1517,1537,1559,1578,1598,1617,1639,1658,1678,1698,1719],"xSR":741.5,"ySR":573.95,"xT1":424.9,"yT1":0,"xT2":1058.1,"yT2":0,"toosoon":0,"cond_shown":"Congruent","ratio_trial":300,"L_num":3,"L_den":6,"R_num":2,"R_den":10,"correct_side":1,"subjID":"SantiagoFernandoJaramilloMatamoros19","gender":"0","school":"sexto","age":"11"},{"start_time":1551887088577,"click_time":1551887089858,"finger_time":1551887089799,"fix_duration":438.7416552837683,"trial":31,"RT":1222,"MT":59,"sideResp":2,"stimulus":[],"xmouse":[781,781,781,781,781,781,781,781,781,781,781,781,781,781,781,781,781,781,781,781,781,781,781,781,781,781,781,781,781,781,781,781,781,781,781,781,781,781,781,781,781,781,781,781,781,781,781,781,781,781,781,781,781,781,781,781,781,781,781,783,796,907,977,1040,1111],"ymouse":[653,653,653,653,653,653,653,653,653,653,653,653,653,653,653,653,653,653,653,653,653,653,653,653,653,653,653,653,653,653,653,653,653,653,653,653,653,653,653,653,653,653,653,653,653,653,653,653,653,653,653,653,653,653,653,653,653,653,653,637,617,387,228,113,24],"timestamp_mouse":[9,38,40,61,82,100,121,141,160,180,202,220,242,261,281,301,321,342,362,381,401,422,441,460,481,502,521,541,562,581,601,622,642,660,682,702,722,741,761,782,802,822,841,860,881,901,920,941,961,982,1001,1021,1040,1061,1081,1100,1122,1141,1162,1182,1202,1222,1240,1262,1281],"xSR":741.5,"ySR":573.95,"xT1":424.9,"yT1":0,"xT2":1058.1,"yT2":0,"toosoon":0,"cond_shown":"Incongruent","ratio_trial":300,"L_num":13,"L_den":26,"R_num":12,"R_den":15,"correct_side":2,"subjID":"SantiagoFernandoJaramilloMatamoros19","gender":"0","school":"sexto","age":"11"},{"start_time":1551887092628,"click_time":1551887094158,"finger_time":1551887093977,"fix_duration":1468.3417853001988,"trial":32,"RT":1349,"MT":181,"sideResp":1,"stimulus":[],"xmouse":[813,813,813,813,813,813,813,813,813,813,813,813,813,813,813,813,813,813,813,813,813,813,813,813,813,813,813,813,813,813,813,813,813,813,813,813,813,813,813,813,813,813,813,813,813,813,813,813,813,813,813,813,813,813,813,813,813,813,813,813,813,813,813,813,813,811,808,785,749,710,649,638,631,624,570,536,509],"ymouse":[606,606,606,606,606,606,606,606,606,606,606,606,606,606,606,606,606,606,606,606,606,606,606,606,606,606,606,606,606,606,606,606,606,606,606,606,606,606,606,606,606,606,606,606,606,606,606,606,606,606,606,606,606,606,606,606,606,606,606,606,606,606,606,606,606,604,596,542,476,409,310,288,271,244,118,69,37],"timestamp_mouse":[20,37,49,70,89,109,130,150,171,191,209,230,251,271,290,310,330,349,369,389,409,429,451,469,490,510,529,550,569,591,610,629,651,671,691,710,730,749,771,789,809,831,850,869,891,911,930,950,970,989,1009,1031,1049,1070,1090,1111,1129,1151,1171,1189,1210,1230,1249,1271,1290,1309,1330,1349,1370,1390,1411,1431,1451,1471,1490,1509,1530],"xSR":741.5,"ySR":573.95,"xT1":424.9,"yT1":0,"xT2":1058.1,"yT2":0,"toosoon":0,"cond_shown":"Incongruent","ratio_trial":300,"L_num":8,"L_den":10,"R_num":9,"R_den":18,"correct_side":1,"subjID":"SantiagoFernandoJaramilloMatamoros19","gender":"0","school":"sexto","age":"11"},{"start_time":1551887095836,"click_time":1551887097459,"finger_time":1551887097119,"fix_duration":397.95952167555316,"trial":33,"RT":1283,"MT":340,"sideResp":2,"stimulus":[],"xmouse":[776,776,776,776,776,776,776,776,776,776,776,776,776,776,776,776,776,776,776,776,776,776,776,776,776,776,776,776,776,776,776,776,776,776,776,776,776,776,776,776,776,776,776,776,776,776,776,776,776,776,776,776,776,776,776,776,776,776,776,776,776,776,776,776,801,875,939,992,1025,1056,1100,1106,1110,1110,1111,1111,1111,1111,1106,1102,1098,1097],"ymouse":[589,589,589,589,589,589,589,589,589,589,589,589,589,589,589,589,589,589,589,589,589,589,589,589,589,589,589,589,589,589,589,589,589,589,589,589,589,589,589,589,589,589,589,589,589,589,589,589,589,589,589,589,589,589,589,589,589,589,589,589,589,589,589,586,566,513,460,409,369,320,242,216,204,200,197,193,181,165,143,128,106,90],"timestamp_mouse":[9,33,41,63,82,102,123,142,162,183,201,223,241,262,282,301,321,341,361,381,401,422,443,461,482,502,523,541,562,582,602,621,641,662,681,702,722,743,762,782,801,823,841,862,881,902,923,942,961,981,1001,1021,1042,1063,1081,1101,1122,1141,1163,1181,1201,1222,1242,1261,1283,1302,1323,1342,1362,1382,1402,1423,1442,1463,1483,1503,1522,1542,1563,1583,1602,1623],"xSR":741.5,"ySR":573.95,"xT1":424.9,"yT1":0,"xT2":1058.1,"yT2":0,"toosoon":0,"cond_shown":"Congruent","ratio_trial":200,"L_num":6,"L_den":12,"R_num":7,"R_den":10,"correct_side":2,"subjID":"SantiagoFernandoJaramilloMatamoros19","gender":"0","school":"sexto","age":"11"},{"start_time":1551887099554,"click_time":1551887101498,"finger_time":1551887100997,"fix_duration":796.504183633309,"trial":34,"RT":1443,"MT":501,"sideResp":1,"stimulus":[],"xmouse":[832,832,832,832,832,832,832,832,832,832,832,832,832,832,832,832,832,832,832,832,832,832,832,832,832,832,832,832,832,832,832,832,832,832,832,832,832,832,832,832,832,832,832,832,832,832,832,832,832,832,832,832,832,832,832,832,832,832,832,832,832,832,832,832,832,832,832,832,832,831,829,819,807,789,749,735,720,706,697,662,654,646,643,642,642,623,593,570,551,521,517,514,514,514,514,514,514,514],"ymouse":[587,587,587,587,587,587,587,587,587,587,587,587,587,587,587,587,587,587,587,587,587,587,587,587,587,587,587,587,587,587,587,587,587,587,587,587,587,587,587,587,587,587,587,587,587,587,587,587,587,587,587,587,587,587,587,587,587,587,587,587,587,587,587,587,587,587,587,587,587,587,584,578,570,556,500,458,404,343,315,200,169,156,150,150,149,146,143,139,136,125,123,121,121,121,117,110,103,92],"timestamp_mouse":[12,36,44,63,84,103,123,145,163,184,204,225,244,263,283,304,325,343,364,385,403,423,445,464,484,504,525,545,564,585,604,625,643,665,683,704,724,744,764,785,804,823,845,865,883,905,923,944,963,984,1003,1024,1043,1063,1084,1105,1125,1143,1164,1184,1205,1223,1244,1265,1284,1305,1324,1344,1364,1384,1404,1425,1443,1463,1484,1504,1524,1545,1563,1584,1604,1623,1643,1664,1684,1705,1724,1744,1764,1783,1803,1824,1845,1864,1883,1903,1924,1944],"xSR":741.5,"ySR":573.95,"xT1":424.9,"yT1":0,"xT2":1058.1,"yT2":0,"toosoon":0,"cond_shown":"Congruent","ratio_trial":200,"L_num":12,"L_den":15,"R_num":6,"R_den":10,"correct_side":1,"subjID":"SantiagoFernandoJaramilloMatamoros19","gender":"0","school":"sexto","age":"11"},{"start_time":1551887103688,"click_time":1551887105239,"finger_time":1551887104998,"fix_duration":1028.6356365799072,"trial":35,"RT":1310,"MT":241,"sideResp":1,"stimulus":[],"xmouse":[789,789,789,789,789,789,789,789,789,789,789,789,789,789,789,789,789,789,789,789,789,789,789,789,789,789,789,789,789,789,789,789,789,789,789,789,789,789,789,789,789,789,789,789,789,789,789,789,789,789,789,789,789,789,789,789,789,789,790,790,790,790,791,790,785,777,765,758,739,715,687,652,622,571,553,540,531,505],"ymouse":[600,600,600,600,600,600,600,600,600,600,600,600,600,600,600,600,600,600,600,600,600,600,600,600,600,600,600,600,600,600,600,600,600,600,600,600,600,600,600,600,600,600,600,600,600,600,600,600,600,600,600,600,600,600,600,600,600,600,600,600,600,600,597,591,580,568,553,544,515,473,427,378,332,244,206,174,147,59],"timestamp_mouse":[11,34,49,70,90,111,130,150,169,191,211,230,251,269,290,309,330,349,370,389,409,429,450,469,491,511,530,550,569,591,610,631,650,669,689,709,729,749,770,789,810,830,849,869,891,910,929,951,969,989,1009,1031,1050,1070,1090,1109,1129,1150,1170,1190,1210,1230,1251,1271,1289,1310,1331,1349,1369,1390,1410,1431,1451,1469,1489,1511,1530,1551],"xSR":741.5,"ySR":573.95,"xT1":424.9,"yT1":0,"xT2":1058.1,"yT2":0,"toosoon":0,"cond_shown":"Congruent","ratio_trial":100,"L_num":6,"L_den":20,"R_num":5,"R_den":25,"correct_side":1,"subjID":"SantiagoFernandoJaramilloMatamoros19","gender":"0","school":"sexto","age":"11"},{"start_time":1551887108264,"click_time":1551887109877,"finger_time":1551887109638,"fix_duration":744.3567367367244,"trial":36,"RT":1374,"MT":239,"sideResp":2,"stimulus":[],"xmouse":[803,803,803,804,804,804,804,804,804,804,804,804,804,804,804,804,804,804,804,804,804,804,804,804,804,804,804,804,804,804,804,804,804,804,804,804,804,804,804,804,804,804,804,804,804,804,804,804,804,804,804,804,804,804,804,804,804,804,804,804,804,804,804,804,804,808,813,829,866,958,989,995,996,999,1003,1004,1006,1016,1021,1052,1072],"ymouse":[653,653,652,651,651,651,651,651,651,651,651,651,651,651,651,651,651,651,651,651,651,651,651,651,651,651,651,651,651,651,651,651,651,651,651,651,651,651,651,651,651,651,651,651,651,651,651,651,651,651,651,651,651,651,651,651,651,651,651,651,651,651,651,651,651,646,638,614,562,398,295,207,170,154,138,135,130,116,110,74,58],"timestamp_mouse":[17,40,53,74,93,113,133,154,174,194,215,233,254,273,293,314,334,354,374,393,413,434,455,474,493,513,534,554,573,593,614,634,654,675,694,715,733,755,774,794,813,835,854,873,894,913,933,953,974,993,1013,1034,1054,1074,1094,1113,1134,1154,1173,1193,1214,1234,1253,1273,1294,1314,1334,1355,1373,1394,1415,1434,1454,1474,1493,1513,1534,1555,1574,1594,1613],"xSR":741.5,"ySR":573.95,"xT1":424.9,"yT1":0,"xT2":1058.1,"yT2":0,"toosoon":0,"cond_shown":"Incongruent","ratio_trial":300,"L_num":1,"L_den":2,"R_num":2,"R_den":10,"correct_side":1,"subjID":"SantiagoFernandoJaramilloMatamoros19","gender":"0","school":"sexto","age":"11"},{"start_time":1551887111796,"click_time":1551887112898,"finger_time":1551887112638,"fix_duration":896.9765848152167,"trial":37,"RT":842,"MT":260,"sideResp":1,"stimulus":[],"xmouse":[790,790,790,790,790,790,790,790,790,790,790,790,790,790,790,790,790,790,790,790,790,790,790,790,790,790,790,790,790,790,790,790,790,790,790,790,790,790,790,790,790,789,781,766,683,627,572,533,509,508,508,508,508,508,509,513],"ymouse":[592,592,592,592,592,592,592,592,592,592,592,592,592,592,592,592,592,592,592,592,592,592,592,592,592,592,592,592,592,592,592,592,592,592,592,592,592,592,592,590,583,577,524,431,214,133,59,13,0,0,0,0,0,0,0,16],"timestamp_mouse":[8,22,44,62,83,103,121,141,162,183,202,221,241,262,283,301,323,343,362,383,403,422,443,463,481,501,522,543,561,582,601,623,642,661,683,703,721,743,763,781,803,821,842,863,882,901,923,942,962,982,1002,1023,1042,1062,1083,1102],"xSR":741.5,"ySR":573.95,"xT1":424.9,"yT1":0,"xT2":1058.1,"yT2":0,"toosoon":0,"cond_shown":"Congruent","ratio_trial":100,"L_num":7,"L_den":14,"R_num":15,"R_den":25,"correct_side":2,"subjID":"SantiagoFernandoJaramilloMatamoros19","gender":"0","school":"sexto","age":"11"},{"start_time":1551887117177,"click_time":1551887118378,"finger_time":1551887117998,"fix_duration":1238.207517281532,"trial":38,"RT":821,"MT":380,"sideResp":2,"stimulus":[],"xmouse":[774,774,774,774,776,778,778,778,778,778,778,778,778,778,778,778,778,778,778,778,778,778,778,778,778,778,778,778,778,778,778,778,778,778,778,778,778,778,778,780,837,894,952,996,1023,1044,1046,1046,1046,1048,1054,1057,1058,1059,1061,1065,1068,1071,1077,1082,1088],"ymouse":[621,621,621,620,619,619,619,619,619,619,619,619,619,619,619,619,619,619,619,619,619,619,619,619,619,619,619,619,619,619,619,619,619,619,619,619,619,619,619,618,577,523,456,388,334,270,251,235,225,210,196,191,188,184,178,162,152,142,130,116,89],"timestamp_mouse":[8,22,40,61,81,102,120,141,160,181,201,221,241,261,281,301,320,341,362,381,401,422,440,461,481,501,520,540,561,580,600,621,641,661,681,701,721,741,762,780,800,821,841,861,881,900,920,940,962,980,1001,1021,1041,1061,1081,1101,1121,1140,1161,1180,1201],"xSR":741.5,"ySR":573.95,"xT1":424.9,"yT1":0,"xT2":1058.1,"yT2":0,"toosoon":0,"cond_shown":"Incongruent","ratio_trial":100,"L_num":6,"L_den":12,"R_num":3,"R_den":5,"correct_side":2,"subjID":"SantiagoFernandoJaramilloMatamoros19","gender":"0","school":"sexto","age":"11"},{"start_time":1551887119630,"click_time":1551887120938,"finger_time":1551887120578,"fix_duration":250,"trial":39,"RT":948,"MT":360,"sideResp":2,"stimulus":[],"xmouse":[795,795,795,795,795,795,795,795,795,795,795,795,795,795,795,795,795,795,795,795,795,795,797,797,797,797,797,797,797,797,797,797,797,797,797,797,797,797,797,797,797,797,797,797,797,797,798,879,941,988,1022,1046,1055,1057,1057,1056,1056,1057,1059,1059,1059,1059,1059,1068,1082,1093],"ymouse":[630,630,630,630,630,630,630,630,630,630,630,630,630,630,630,630,630,630,630,630,630,629,627,627,627,627,627,627,627,627,627,627,627,627,627,627,627,627,627,627,627,627,627,627,627,627,625,529,449,383,332,287,257,217,202,193,182,162,151,145,144,143,140,125,110,99],"timestamp_mouse":[12,44,48,68,88,108,128,147,167,189,207,228,247,268,289,308,329,348,368,388,408,428,448,467,487,509,528,549,567,588,608,629,647,669,687,707,729,747,767,788,807,828,847,869,888,908,928,948,967,987,1008,1028,1048,1069,1089,1108,1127,1148,1167,1188,1208,1228,1249,1268,1288,1308],"xSR":741.5,"ySR":573.95,"xT1":424.9,"yT1":0,"xT2":1058.1,"yT2":0,"toosoon":0,"cond_shown":"Congruent","ratio_trial":200,"L_num":4,"L_den":10,"R_num":3,"R_den":15,"correct_side":1,"subjID":"SantiagoFernandoJaramilloMatamoros19","gender":"0","school":"sexto","age":"11"},{"start_time":1551887122855,"click_time":1551887123218,"finger_time":1551887123058,"fix_duration":656.430016933683,"trial":40,"RT":203,"MT":160,"sideResp":2,"stimulus":[],"xmouse":[803,803,803,803,803,803,802,802,802,807,817,822,822,838,861,889,977,1021,1062],"ymouse":[609,609,609,609,609,609,607,601,597,583,556,520,425,358,313,277,179,128,86],"timestamp_mouse":[8,22,43,63,83,104,124,143,162,183,203,223,242,262,282,303,324,342,362],"xSR":741.5,"ySR":573.95,"xT1":424.9,"yT1":0,"xT2":1058.1,"yT2":0,"toosoon":0,"cond_shown":"Incongruent","ratio_trial":200,"L_num":14,"L_den":30,"R_num":6,"R_den":9,"correct_side":2,"subjID":"SantiagoFernandoJaramilloMatamoros19","gender":"0","school":"sexto","age":"11"},{"start_time":1551887124759,"click_time":1551887125358,"finger_time":1551887125198,"fix_duration":559.5383428168875,"trial":41,"RT":439,"MT":160,"sideResp":2,"stimulus":[],"xmouse":[808,808,808,808,808,808,808,808,808,808,808,808,808,808,808,808,812,812,812,814,824,873,909,940,966,991,1040,1050,1057,1059],"ymouse":[601,601,601,601,601,601,601,601,601,601,601,601,601,601,601,600,594,594,594,593,578,501,435,360,298,241,127,100,82,72],"timestamp_mouse":[20,49,59,80,99,118,140,159,179,199,220,239,260,278,300,318,339,360,378,398,420,439,459,479,499,520,539,558,578,599],"xSR":741.5,"ySR":573.95,"xT1":424.9,"yT1":0,"xT2":1058.1,"yT2":0,"toosoon":0,"cond_shown":"Congruent","ratio_trial":200,"L_num":16,"L_den":30,"R_num":9,"R_den":27,"correct_side":1,"subjID":"SantiagoFernandoJaramilloMatamoros19","gender":"0","school":"sexto","age":"11"},{"start_time":1551887126508,"click_time":1551887127178,"finger_time":1551887126836,"fix_duration":250,"trial":42,"RT":328,"MT":342,"sideResp":2,"stimulus":[],"xmouse":[797,797,797,797,797,797,797,797,797,797,797,797,797,797,797,806,827,871,917,1030,1063,1084,1097,1108,1120,1123,1125,1127,1127,1127,1127,1127,1125,1120],"ymouse":[603,603,603,603,603,603,603,603,603,603,603,603,603,603,603,592,562,506,455,305,247,212,190,169,143,136,129,124,122,122,120,112,102,91],"timestamp_mouse":[10,36,49,69,90,109,130,149,169,190,209,230,249,269,290,308,328,350,370,389,410,429,450,469,489,508,529,549,570,589,610,629,649,670],"xSR":741.5,"ySR":573.95,"xT1":424.9,"yT1":0,"xT2":1058.1,"yT2":0,"toosoon":0,"cond_shown":"Incongruent","ratio_trial":100,"L_num":17,"L_den":30,"R_num":10,"R_den":15,"correct_side":2,"subjID":"SantiagoFernandoJaramilloMatamoros19","gender":"0","school":"sexto","age":"11"},{"start_time":1551887128753,"click_time":1551887129397,"finger_time":1551887129037,"fix_duration":575.4198797093093,"trial":43,"RT":284,"MT":360,"sideResp":1,"stimulus":[],"xmouse":[821,821,821,821,821,821,821,821,821,821,821,821,821,812,791,756,717,632,602,585,578,577,577,577,577,577,577,577,577,572,557,541,502],"ymouse":[605,605,605,605,605,605,605,605,605,605,605,605,605,580,509,419,327,152,99,72,58,55,54,54,54,54,54,54,54,54,51,45,33],"timestamp_mouse":[7,24,60,65,84,104,125,144,165,184,204,224,245,264,284,304,324,344,363,384,404,424,444,464,484,504,524,545,564,584,605,624,644],"xSR":741.5,"ySR":573.95,"xT1":424.9,"yT1":0,"xT2":1058.1,"yT2":0,"toosoon":0,"cond_shown":"Congruent","ratio_trial":100,"L_num":4,"L_den":8,"R_num":6,"R_den":10,"correct_side":2,"subjID":"SantiagoFernandoJaramilloMatamoros19","gender":"0","school":"sexto","age":"11"},{"start_time":1551887133330,"click_time":1551887133978,"finger_time":1551887133498,"fix_duration":250,"trial":44,"RT":168,"MT":480,"sideResp":1,"stimulus":[],"xmouse":[828,828,828,828,828,828,827,824,795,770,748,728,715,707,700,693,691,687,683,672,669,667,666,662,642,630,611,600,590,561,543,532,519],"ymouse":[596,596,596,596,596,596,596,593,554,516,474,426,389,338,298,244,225,206,179,147,139,136,135,133,128,122,113,107,102,90,81,76,68],"timestamp_mouse":[11,34,47,67,87,107,127,147,168,187,208,227,248,268,287,307,327,347,367,387,407,427,447,467,488,507,526,548,567,587,608,628,648],"xSR":741.5,"ySR":573.95,"xT1":424.9,"yT1":0,"xT2":1058.1,"yT2":0,"toosoon":0,"cond_shown":"Congruent","ratio_trial":100,"L_num":6,"L_den":20,"R_num":5,"R_den":25,"correct_side":1,"subjID":"SantiagoFernandoJaramilloMatamoros19","gender":"0","school":"sexto","age":"11"},{"start_time":1551887135190,"click_time":1551887135817,"finger_time":1551887135518,"fix_duration":250,"trial":45,"RT":328,"MT":299,"sideResp":1,"stimulus":[],"xmouse":[766,766,766,766,766,766,766,766,766,766,766,766,766,766,767,764,739,711,673,630,599,547,528,518,512,508,501,496,493,490,488,485],"ymouse":[613,613,613,613,613,613,613,613,613,613,613,613,613,613,605,599,541,491,429,369,325,237,206,187,177,165,141,129,120,115,108,98],"timestamp_mouse":[6,39,48,67,87,107,127,146,168,188,207,228,247,267,287,308,328,348,367,387,408,427,447,467,488,508,528,547,568,587,608,627],"xSR":741.5,"ySR":573.95,"xT1":424.9,"yT1":0,"xT2":1058.1,"yT2":0,"toosoon":0,"cond_shown":"Incongruent","ratio_trial":300,"L_num":4,"L_den":20,"R_num":2,"R_den":4,"correct_side":2,"subjID":"SantiagoFernandoJaramilloMatamoros19","gender":"0","school":"sexto","age":"11"},{"start_time":1551887137995,"click_time":1551887138497,"finger_time":1551887138077,"fix_duration":1176.9329076656911,"trial":46,"RT":82,"MT":420,"sideResp":1,"stimulus":[],"xmouse":[783,783,783,783,777,766,729,702,677,653,617,589,582,581,578,575,571,569,568,565,562,559,557,547,538,523],"ymouse":[580,580,580,577,561,542,482,425,368,299,210,147,131,126,115,106,94,89,84,79,74,69,68,66,64,59],"timestamp_mouse":[8,37,42,63,82,103,122,142,163,182,202,221,242,263,283,302,322,342,362,382,401,423,442,463,482,502],"xSR":741.5,"ySR":573.95,"xT1":424.9,"yT1":0,"xT2":1058.1,"yT2":0,"toosoon":0,"cond_shown":"Congruent","ratio_trial":200,"L_num":7,"L_den":15,"R_num":18,"R_den":27,"correct_side":2,"subjID":"SantiagoFernandoJaramilloMatamoros19","gender":"0","school":"sexto","age":"11"},{"start_time":1551887144336,"click_time":1551887145217,"finger_time":1551887144578,"fix_duration":838.4978546377407,"trial":47,"RT":242,"MT":639,"sideResp":2,"stimulus":[],"xmouse":[809,809,809,809,809,809,809,809,809,809,809,814,825,845,871,934,974,1015,1035,1042,1044,1044,1046,1046,1046,1046,1046,1049,1051,1053,1053,1053,1053,1053,1053,1053,1053,1053,1053,1053,1053,1053,1053,1057,1066],"ymouse":[599,599,599,599,599,599,599,599,599,599,599,597,572,540,485,368,272,180,139,124,121,119,106,93,91,90,88,79,73,69,69,69,69,69,69,69,69,69,69,69,69,69,68,64,60],"timestamp_mouse":[9,32,41,61,81,102,122,141,161,181,202,221,242,261,281,301,321,341,362,382,401,421,441,462,481,501,521,541,562,582,601,621,641,661,681,701,721,742,762,782,801,821,841,861,881],"xSR":741.5,"ySR":573.95,"xT1":424.9,"yT1":0,"xT2":1058.1,"yT2":0,"toosoon":0,"cond_shown":"Incongruent","ratio_trial":300,"L_num":13,"L_den":26,"R_num":12,"R_den":15,"correct_side":2,"subjID":"SantiagoFernandoJaramilloMatamoros19","gender":"0","school":"sexto","age":"11"},{"start_time":1551887146596,"click_time":1551887147317,"finger_time":1551887146918,"fix_duration":476.8536134567366,"trial":48,"RT":322,"MT":399,"sideResp":2,"stimulus":[],"xmouse":[796,796,796,796,796,796,796,796,796,796,796,796,803,820,833,841,847,881,908,934,960,991,1015,1019,1020,1020,1016,1012,1012,1012,1012,1012,1014,1019,1027,1043,1061],"ymouse":[620,620,620,620,620,620,620,620,620,620,620,620,613,599,588,580,574,517,457,395,331,261,202,185,169,151,133,116,115,109,102,97,87,81,74,64,56],"timestamp_mouse":[10,21,43,61,81,101,121,141,161,181,202,222,241,262,281,301,322,341,361,381,401,422,440,462,481,502,522,541,561,581,601,621,642,661,681,702,721],"xSR":741.5,"ySR":573.95,"xT1":424.9,"yT1":0,"xT2":1058.1,"yT2":0,"toosoon":0,"cond_shown":"Congruent","ratio_trial":100,"L_num":7,"L_den":14,"R_num":9,"R_den":15,"correct_side":2,"subjID":"SantiagoFernandoJaramilloMatamoros19","gender":"0","school":"sexto","age":"11"},{"start_time":1551887148793,"click_time":1551887152038,"finger_time":1551887151437,"fix_duration":355.3322350098915,"trial":49,"RT":2644,"MT":601,"sideResp":2,"stimulus":[],"xmouse":[832,832,832,832,832,832,832,832,832,832,832,832,832,832,832,832,832,832,832,832,832,832,832,832,832,832,832,832,832,832,832,832,832,832,832,832,832,832,832,832,832,832,832,832,832,832,832,832,832,832,832,832,832,832,832,832,832,832,832,832,832,832,832,832,832,832,832,832,832,832,832,832,832,832,832,832,832,832,832,832,832,832,832,832,832,832,832,832,832,832,832,832,832,832,832,832,832,832,832,832,832,832,832,832,832,832,832,832,832,832,832,832,832,832,832,832,832,832,832,832,832,832,832,832,832,832,832,832,832,832,832,833,861,877,890,903,909,914,917,918,921,926,938,945,956,975,1026,1093,1112,1130,1142,1151,1159,1161,1163,1163,1163,1163,1163,1163,1163,1163,1149],"ymouse":[642,642,642,642,642,642,642,642,642,642,642,642,642,642,642,642,642,642,642,642,642,642,642,642,642,642,642,642,642,642,642,642,642,642,642,642,642,642,642,642,642,642,642,642,642,642,642,642,642,642,642,642,642,642,642,642,642,642,642,642,642,642,642,642,642,642,642,642,642,642,642,642,642,642,642,642,642,642,642,642,642,642,642,642,642,642,642,642,642,642,642,642,642,642,642,642,642,642,642,642,642,642,642,642,642,642,642,642,642,642,642,642,642,642,642,642,642,642,642,642,642,642,642,642,642,642,642,642,642,642,642,637,612,588,560,525,491,456,378,349,331,313,282,269,256,237,201,152,135,121,111,103,96,93,90,89,89,89,89,89,89,88,77],"timestamp_mouse":[8,25,44,65,85,105,124,145,164,185,205,224,245,265,285,304,324,344,365,384,405,424,445,464,484,504,524,545,564,584,605,623,645,665,685,704,725,745,764,784,804,825,844,865,884,904,924,945,964,984,1003,1024,1043,1065,1084,1104,1124,1145,1164,1183,1205,1224,1245,1265,1284,1305,1325,1344,1365,1384,1405,1425,1444,1465,1484,1504,1524,1545,1564,1585,1604,1625,1645,1665,1684,1703,1725,1744,1765,1785,1804,1825,1845,1865,1884,1905,1924,1944,1965,1985,2004,2024,2045,2065,2085,2104,2124,2144,2164,2184,2204,2224,2243,2263,2283,2303,2323,2345,2365,2385,2405,2425,2445,2465,2485,2504,2525,2545,2565,2584,2604,2625,2644,2664,2685,2704,2724,2745,2765,2784,2805,2825,2844,2864,2884,2905,2924,2944,2965,2984,3005,3025,3044,3064,3084,3103,3125,3145,3164,3184,3204,3224,3245],"xSR":741.5,"ySR":573.95,"xT1":424.9,"yT1":0,"xT2":1058.1,"yT2":0,"toosoon":0,"cond_shown":"Congruent","ratio_trial":300,"L_num":20,"L_den":25,"R_num":5,"R_den":10,"correct_side":1,"subjID":"SantiagoFernandoJaramilloMatamoros19","gender":"0","school":"sexto","age":"11"},{"start_time":1551887154522,"click_time":1551887155258,"finger_time":1551887154817,"fix_duration":1362.6536465864297,"trial":50,"RT":295,"MT":441,"sideResp":1,"stimulus":[],"xmouse":[816,816,816,816,816,816,816,816,816,816,815,796,776,754,727,707,671,659,648,636,627,619,617,617,616,614,609,604,597,588,578,557,545,532,520,511,498],"ymouse":[637,637,637,637,637,637,637,637,637,637,637,623,609,590,562,538,464,425,389,357,340,320,317,314,311,299,279,265,248,230,213,175,156,138,122,108,89],"timestamp_mouse":[15,35,55,76,96,115,136,156,175,196,215,235,255,275,295,315,336,355,375,395,415,435,455,475,495,516,535,555,575,595,615,635,655,675,695,715,736],"xSR":741.5,"ySR":573.95,"xT1":424.9,"yT1":0,"xT2":1058.1,"yT2":0,"toosoon":0,"cond_shown":"Incongruent","ratio_trial":300,"L_num":13,"L_den":26,"R_num":12,"R_den":15,"correct_side":2,"subjID":"SantiagoFernandoJaramilloMatamoros19","gender":"0","school":"sexto","age":"11"},{"start_time":1551887161983,"click_time":1551887162518,"finger_time":1551887162337,"fix_duration":1425.0433718234347,"trial":51,"RT":354,"MT":181,"sideResp":2,"stimulus":[],"xmouse":[810,808,807,807,807,807,807,807,807,807,807,807,807,807,807,812,817,837,878,942,973,1000,1022,1039,1050,1064,1066],"ymouse":[609,609,609,609,609,609,609,609,609,609,609,609,609,609,609,596,582,547,469,333,272,227,188,158,140,106,95],"timestamp_mouse":[18,33,57,74,95,114,134,154,174,194,214,234,254,274,294,314,335,354,375,394,414,434,455,474,494,514,535],"xSR":741.5,"ySR":573.95,"xT1":424.9,"yT1":0,"xT2":1058.1,"yT2":0,"toosoon":0,"cond_shown":"Congruent","ratio_trial":300,"L_num":3,"L_den":12,"R_num":11,"R_den":20,"correct_side":2,"subjID":"SantiagoFernandoJaramilloMatamoros19","gender":"0","school":"sexto","age":"11"},{"start_time":1551887164351,"click_time":1551887164978,"finger_time":1551887164477,"fix_duration":873.7486405130254,"trial":52,"RT":126,"MT":501,"sideResp":2,"stimulus":[],"xmouse":[804,805,807,807,812,815,819,822,822,822,822,822,822,823,825,840,870,944,965,970,974,974,974,974,977,982,989,1021,1037,1052,1057,1067],"ymouse":[599,598,598,598,586,579,569,563,563,563,563,563,563,558,551,524,468,303,233,191,161,148,145,142,137,131,121,93,81,72,68,62],"timestamp_mouse":[10,27,59,66,86,106,126,146,166,186,207,227,247,266,286,307,326,347,367,386,406,427,446,466,486,506,527,546,566,586,607,627],"xSR":741.5,"ySR":573.95,"xT1":424.9,"yT1":0,"xT2":1058.1,"yT2":0,"toosoon":0,"cond_shown":"Incongruent","ratio_trial":200,"L_num":14,"L_den":30,"R_num":12,"R_den":18,"correct_side":2,"subjID":"SantiagoFernandoJaramilloMatamoros19","gender":"0","school":"sexto","age":"11"},{"start_time":1551887166539,"click_time":1551887167137,"finger_time":1551887166798,"fix_duration":300.0800608056776,"trial":53,"RT":259,"MT":339,"sideResp":1,"stimulus":[],"xmouse":[810,810,810,810,810,810,810,810,810,810,810,804,763,711,654,583,530,448,412,399,390,381,377,377,377,377,377,398,420,441],"ymouse":[619,619,619,619,619,619,619,619,619,619,619,613,561,495,423,342,269,142,92,73,58,45,38,38,38,37,37,30,26,23],"timestamp_mouse":[19,39,59,79,97,119,139,158,178,198,219,239,259,278,298,319,338,359,378,399,419,438,458,478,499,518,538,558,578,598],"xSR":741.5,"ySR":573.95,"xT1":424.9,"yT1":0,"xT2":1058.1,"yT2":0,"toosoon":0,"cond_shown":"Incongruent","ratio_trial":100,"L_num":3,"L_den":5,"R_num":11,"R_den":22,"correct_side":1,"subjID":"SantiagoFernandoJaramilloMatamoros19","gender":"0","school":"sexto","age":"11"},{"start_time":1551887168667,"click_time":1551887169797,"finger_time":1551887169018,"fix_duration":849.2151285351364,"trial":54,"RT":351,"MT":779,"sideResp":2,"stimulus":[],"xmouse":[782,782,782,782,782,782,782,782,782,782,782,784,786,788,788,790,798,803,809,823,843,881,909,926,938,946,960,965,965,965,966,970,976,982,989,997,1021,1030,1033,1035,1035,1029,1027,1025,1025,1025,1025,1025,1025,1025,1025,1025,1026,1031,1039,1051,1077],"ymouse":[633,633,633,633,633,633,633,633,633,633,633,625,618,613,611,609,584,570,548,520,476,418,379,353,336,322,299,291,287,285,283,271,262,251,239,226,186,164,141,119,92,34,17,2,0,0,0,0,0,0,0,0,0,11,28,47,77],"timestamp_mouse":[10,31,50,69,90,111,130,150,170,190,211,230,250,270,289,310,331,351,371,390,410,430,449,470,490,511,530,550,571,590,611,631,651,670,690,711,730,751,770,791,810,830,850,870,890,910,930,950,970,990,1010,1030,1050,1070,1091,1110,1130],"xSR":741.5,"ySR":573.95,"xT1":424.9,"yT1":0,"xT2":1058.1,"yT2":0,"toosoon":0,"cond_shown":"Congruent","ratio_trial":300,"L_num":1,"L_den":3,"R_num":19,"R_den":30,"correct_side":2,"subjID":"SantiagoFernandoJaramilloMatamoros19","gender":"