[{"start_time":1551880551880,"click_time":1551880571617,"finger_time":1551880551896,"fix_duration":439.4076847927294,"trial":0,"RT":16,"MT":19721,"sideResp":2,"stimulus":[],"xmouse":[807,807,807,807,807,807,807,807,807,807,807,807,807,807,807,807,807,807,807,807,807,807,807,807,807,807,806,806,806,805,805,805,805,803,801,800,800,800,800,800,800,800,800,800,800,800,800,800,800,800,800,800,800,800,800,800,800,800,800,800,800,800,800,800,800,800,800,800,800,800,800,800,800,800,800,800,800,800,800,800,800,800,800,800,800,800,800,800,800,800,800,800,800,800,800,800,800,800,800,800,800,800,800,800,800,800,800,800,800,800,800,800,800,800,800,800,800,800,800,800,800,800,800,800,800,800,800,800,800,800,800,800,800,800,800,800,800,800,800,800,800,800,800,800,800,800,800,800,800,800,800,800,800,800,800,800,800,800,800,800,800,796,795,792,792,792,792,792,792,792,792,792,792,792,792,792,792,792,792,792,792,792,792,792,792,792,792,792,792,792,792,792,792,792,792,792,792,792,792,792,792,792,792,792,792,792,792,792,792,792,792,792,792,792,792,792,792,792,792,792,792,792,792,792,792,792,792,792,792,792,792,792,792,792,792,792,792,792,792,792,792,792,792,792,792,792,792,792,792,792,792,792,792,792,792,792,792,792,792,792,792,792,792,792,792,792,792,792,792,792,792,792,792,792,792,792,792,792,792,792,792,792,792,792,792,792,792,792,792,792,792,792,792,792,792,792,792,792,792,792,792,792,792,792,792,792,792,792,792,792,792,792,792,792,792,792,792,792,792,792,792,792,792,792,792,792,792,792,792,792,792,792,792,792,792,792,792,792,792,792,792,792,792,792,792,792,792,792,792,792,792,792,792,792,792,792,792,792,792,792,792,792,792,792,792,792,792,792,792,792,792,792,792,792,792,792,792,792,792,792,792,792,792,792,792,792,792,792,792,792,792,792,792,792,792,792,792,792,792,792,792,792,792,792,792,792,792,792,792,792,792,792,792,792,792,792,792,792,792,792,792,792,792,792,792,792,792,792,792,792,792,792,792,792,792,792,792,792,792,792,792,792,792,792,792,792,792,792,792,792,792,792,792,792,792,792,792,792,792,792,792,792,792,792,792,792,792,792,792,792,792,792,792,792,792,792,792,792,792,792,792,792,792,792,792,792,792,792,792,792,792,792,792,792,792,792,792,792,792,792,792,792,792,792,792,792,792,792,792,792,792,792,792,792,792,792,792,792,792,792,792,792,792,792,792,792,792,792,792,792,792,792,792,792,792,792,792,792,792,792,792,792,792,792,792,792,792,792,792,792,792,792,792,792,792,792,792,792,792,792,792,792,792,792,792,792,792,792,792,792,792,792,792,792,792,792,792,792,792,792,792,792,792,792,792,792,792,792,792,792,792,792,792,792,792,792,792,792,792,792,792,792,792,792,792,792,792,792,792,792,792,792,792,792,792,792,792,792,792,792,792,792,792,792,792,792,792,792,792,792,792,792,792,792,792,792,792,792,792,792,792,792,792,792,792,792,792,792,792,792,792,792,792,792,792,792,792,792,792,792,792,792,792,792,792,792,792,792,792,792,792,792,792,792,792,792,792,792,792,792,792,792,792,792,792,792,792,792,792,792,792,792,792,792,792,792,792,792,792,792,792,792,792,792,792,792,792,792,792,792,792,792,792,792,792,792,792,792,792,792,792,792,792,792,792,792,792,792,792,792,792,792,792,792,792,792,792,792,792,792,792,792,792,792,792,792,792,792,792,792,792,792,792,792,792,792,792,792,792,792,792,792,792,792,792,792,792,792,792,792,792,792,792,792,792,792,792,792,792,792,792,792,792,792,792,792,792,792,792,792,792,792,792,792,792,792,792,792,792,792,792,792,792,792,792,792,792,792,792,792,792,792,792,792,792,792,792,792,792,792,792,792,792,792,792,792,792,792,792,792,792,792,792,792,792,792,792,792,792,792,792,792,792,792,792,792,792,792,792,792,792,792,792,792,792,792,792,792,792,792,792,792,792,792,792,792,792,792,792,792,792,792,792,792,792,792,792,792,792,792,792,792,792,792,792,792,792,792,792,792,792,792,792,792,792,792,792,792,792,792,792,792,792,792,792,792,792,792,792,792,792,792,792,792,792,792,792,792,792,792,792,792,792,792,792,792,792,792,792,792,792,792,792,792,792,792,792,792,792,792,792,792,792,792,792,792,792,792,792,792,792,792,792,792,792,792,792,792,792,792,792,792,792,792,792,792,812,840,916,982,1109,1120,1120,1120,1124,1178,1208,1225,1229,1229,1226,1221,1215,1204,1196,1174,1151],"ymouse":[505,505,505,505,505,505,505,505,505,505,505,505,505,505,505,505,505,505,505,505,505,505,505,505,505,505,512,532,545,559,574,586,593,603,608,613,614,614,614,614,614,614,614,614,614,614,614,614,614,614,614,614,614,614,614,614,614,614,614,614,614,614,614,614,614,614,614,614,614,614,614,614,614,614,614,614,614,614,614,614,614,614,614,614,614,614,614,614,614,614,614,614,614,614,614,614,614,614,614,614,614,614,614,614,614,614,614,614,614,614,614,614,614,614,614,614,614,614,614,614,614,614,614,614,614,614,614,614,614,614,614,614,614,614,614,614,614,614,614,614,614,614,614,614,614,614,614,614,614,614,614,614,614,614,614,614,614,614,614,614,614,617,617,618,618,618,618,618,618,618,618,618,618,618,618,618,618,618,618,618,618,618,618,618,618,618,618,618,618,618,618,618,618,618,618,618,618,618,618,618,618,618,618,618,618,618,618,618,618,618,618,618,618,618,618,618,618,618,618,618,618,618,618,618,618,618,618,618,618,618,618,618,618,618,618,618,618,618,618,618,618,618,618,618,618,618,618,618,618,618,618,618,618,618,618,618,618,618,618,618,618,618,618,618,618,618,618,618,618,618,618,618,618,618,618,618,618,618,618,618,618,618,618,618,618,618,618,618,618,618,618,618,618,618,618,618,618,618,618,618,618,618,618,618,618,618,618,618,618,618,618,618,618,618,618,618,618,618,618,618,618,618,618,618,618,618,618,618,618,618,618,618,618,618,618,618,618,618,618,618,618,618,618,618,618,618,618,618,618,618,618,618,618,618,618,618,618,618,618,618,618,618,618,618,618,618,618,618,618,618,618,618,618,618,618,618,618,618,618,618,618,618,618,618,618,618,618,618,618,618,618,618,618,618,618,618,618,618,618,618,618,618,618,618,618,618,618,618,618,618,618,618,618,618,618,618,618,618,618,618,618,618,618,618,618,618,618,618,618,618,618,618,618,618,618,618,618,618,618,618,618,618,618,618,618,618,618,618,618,618,618,618,618,618,618,618,618,618,618,618,618,618,618,618,618,618,618,618,618,618,618,618,618,618,618,618,618,618,618,618,618,618,618,618,618,618,618,618,618,618,618,618,618,618,618,618,618,618,618,618,618,618,618,618,618,618,618,618,618,618,618,618,618,618,618,618,618,618,618,618,618,618,618,618,618,618,618,618,618,618,618,618,618,618,618,618,618,618,618,618,618,618,618,618,618,618,618,618,618,618,618,618,618,618,618,618,618,618,618,618,618,618,618,618,618,618,618,618,618,618,618,618,618,618,618,618,618,618,618,618,618,618,618,618,618,618,618,618,618,618,618,618,618,618,618,618,618,618,618,618,618,618,618,618,618,618,618,618,618,618,618,618,618,618,618,618,618,618,618,618,618,618,618,618,618,618,618,618,618,618,618,618,618,618,618,618,618,618,618,618,618,618,618,618,618,618,618,618,618,618,618,618,618,618,618,618,618,618,618,618,618,618,618,618,618,618,618,618,618,618,618,618,618,618,618,618,618,618,618,618,618,618,618,618,618,618,618,618,618,618,618,618,618,618,618,618,618,618,618,618,618,618,618,618,618,618,618,618,618,618,618,618,618,618,618,618,618,618,618,618,618,618,618,618,618,618,618,618,618,618,618,618,618,618,618,618,618,618,618,618,618,618,618,618,618,618,618,618,618,618,618,618,618,618,618,618,618,618,618,618,618,618,618,618,618,618,618,618,618,618,618,618,618,618,618,618,618,618,618,618,618,618,618,618,618,618,618,618,618,618,618,618,618,618,618,618,618,618,618,618,618,618,618,618,618,618,618,618,618,618,618,618,618,618,618,618,618,618,618,618,618,618,618,618,618,618,618,618,618,618,618,618,618,618,618,618,618,618,618,618,618,618,618,618,618,618,618,618,618,618,618,618,618,618,618,618,618,618,618,618,618,618,618,618,618,618,618,618,618,618,618,618,618,618,618,618,618,618,618,618,618,618,618,618,618,618,618,618,618,618,618,618,618,618,618,618,618,618,618,618,618,618,618,618,618,618,618,618,618,618,618,618,618,618,618,618,618,618,618,618,618,618,618,618,618,618,618,618,618,618,618,618,618,618,618,618,618,618,618,618,618,618,618,618,618,618,618,618,618,618,618,618,618,618,618,618,618,618,618,618,618,618,618,618,618,618,553,489,353,238,139,134,134,134,131,33,0,0,0,0,0,0,0,0,0,11,28],"timestamp_mouse":[16,37,56,77,96,116,137,156,176,196,216,236,256,277,296,316,336,357,376,396,416,435,456,477,496,516,536,556,576,596,616,637,657,676,696,715,735,757,777,796,816,835,855,877,897,917,937,956,976,996,1017,1036,1057,1076,1096,1115,1137,1156,1175,1195,1217,1237,1255,1275,1296,1316,1337,1357,1376,1397,1416,1437,1455,1477,1497,1515,1537,1556,1576,1596,1616,1637,1656,1677,1695,1717,1736,1757,1775,1797,1816,1837,1856,1876,1897,1917,1936,1956,1977,1997,2016,2036,2056,2075,2096,2116,2136,2155,2177,2196,2216,2236,2256,2276,2296,2316,2336,2356,2377,2396,2416,2436,2456,2476,2496,2515,2537,2556,2577,2597,2615,2637,2655,2676,2697,2716,2737,2756,2775,2797,2817,2837,2855,2875,2897,2916,2936,2956,2977,2997,3017,3036,3056,3076,3096,3116,3137,3155,3176,3197,3215,3236,3256,3276,3296,3316,3337,3355,3376,3397,3416,3436,3456,3475,3497,3515,3536,3557,3576,3596,3616,3635,3656,3675,3696,3715,3737,3756,3776,3796,3816,3836,3856,3876,3896,3917,3936,3956,3976,3997,4017,4036,4056,4076,4096,4116,4136,4155,4175,4196,4216,4237,4255,4276,4296,4315,4335,4356,4377,4395,4417,4436,4456,4476,4497,4516,4537,4556,4577,4597,4615,4636,4655,4677,4696,4716,4737,4757,4775,4796,4816,4836,4855,4876,4896,4917,4937,4956,4977,4995,5016,5036,5057,5075,5096,5116,5136,5156,5175,5196,5216,5236,5256,5275,5296,5316,5337,5356,5376,5396,5416,5436,5456,5477,5496,5517,5537,5556,5576,5595,5617,5635,5657,5675,5696,5717,5736,5756,5777,5796,5816,5837,5857,5877,5895,5917,5935,5957,5976,5996,6015,6036,6057,6077,6096,6115,6136,6157,6177,6195,6217,6237,6256,6276,6296,6315,6336,6357,6376,6395,6417,6435,6456,6476,6496,6515,6536,6557,6576,6596,6617,6636,6657,6677,6695,6716,6736,6756,6777,6797,6815,6836,6856,6877,6895,6916,6936,6955,6977,6996,7016,7037,7056,7075,7096,7117,7136,7156,7176,7195,7217,7235,7256,7277,7296,7315,7336,7356,7376,7397,7416,7436,7456,7477,7496,7516,7535,7557,7576,7596,7616,7635,7656,7676,7697,7716,7735,7756,7776,7797,7815,7836,7855,7877,7896,7917,7937,7955,7976,7996,8017,8036,8057,8075,8097,8117,8137,8156,8176,8197,8215,8236,8256,8276,8295,8317,8336,8357,8376,8395,8416,8435,8457,8475,8496,8516,8537,8557,8576,8596,8616,8636,8656,8677,8697,8716,8737,8756,8776,8797,8815,8835,8857,8875,8895,8916,8935,8957,8976,8996,9017,9037,9056,9077,9095,9117,9136,9156,9177,9196,9217,9235,9256,9277,9296,9316,9336,9357,9375,9396,9416,9436,9457,9476,9496,9517,9537,9556,9576,9596,9616,9637,9657,9676,9696,9715,9737,9755,9777,9796,9816,9836,9857,9875,9896,9917,9936,9957,9976,9996,10017,10035,10057,10076,10096,10117,10137,10155,10177,10197,10215,10237,10256,10276,10296,10316,10337,10357,10375,10396,10417,10436,10457,10477,10496,10517,10537,10555,10577,10595,10617,10637,10657,10676,10697,10717,10737,10757,10776,10797,10817,10835,10857,10877,10896,10917,10936,10956,10977,10996,11017,11037,11055,11077,11096,11116,11137,11156,11177,11197,11217,11237,11255,11275,11297,11316,11337,11356,11376,11395,11417,11435,11455,11476,11496,11517,11536,11557,11577,11595,11615,11636,11655,11676,11696,11717,11737,11755,11776,11796,11816,11836,11856,11877,11895,11916,11936,11955,11976,11996,12016,12037,12056,12075,12097,12115,12136,12157,12175,12196,12216,12236,12256,12277,12296,12315,12337,12356,12377,12395,12417,12437,12457,12477,12496,12516,12536,12557,12577,12596,12616,12635,12657,12677,12697,12716,12737,12756,12776,12795,12816,12835,12856,12877,12896,12916,12936,12957,12976,12996,13016,13037,13057,13075,13096,13116,13136,13156,13177,13196,13216,13237,13256,13275,13296,13316,13336,13356,13377,13397,13416,13436,13457,13475,13497,13516,13536,13557,13576,13597,13617,13637,13656,13675,13697,13716,13735,13757,13775,13797,13816,13836,13857,13875,13896,13916,13935,13955,13976,13997,14015,14037,14057,14075,14096,14115,14136,14155,14176,14196,14217,14237,14256,14275,14296,14316,14337,14355,14377,14395,14417,14435,14456,14476,14496,14516,14537,14557,14576,14597,14617,14635,14656,14676,14696,14716,14737,14756,14777,14797,14815,14836,14856,14875,14896,14916,14935,14956,14975,14997,15016,15037,15056,15076,15096,15117,15135,15156,15176,15197,15217,15236,15257,15276,15296,15315,15337,15356,15376,15395,15416,15436,15457,15477,15496,15515,15536,15555,15577,15596,15616,15636,15655,15677,15695,15716,15736,15756,15776,15797,15816,15837,15856,15876,15897,15916,15937,15957,15977,15996,16015,16037,16057,16075,16096,16115,16137,16155,16177,16195,16216,16236,16256,16275,16297,16316,16337,16356,16376,16396,16416,16436,16455,16476,16495,16515,16535,16557,16577,16597,16616,16635,16657,16676,16697,16716,16736,16756,16776,16797,16817,16836,16857,16875,16896,16915,16937,16956,16977,16996,17016,17035,17057,17076,17096,17115,17135,17157,17176,17195,17216,17235,17257,17277,17297,17316,17336,17356,17376,17396,17416,17437,17456,17475,17496,17516,17536,17556,17576,17596,17615,17636,17656,17676,17696,17716,17736,17756,17777,17797,17815,17837,17856,17877,17895,17916,17937,17956,17976,17997,18016,18035,18055,18076,18096,18116,18135,18156,18175,18197,18216,18235,18256,18276,18296,18316,18336,18357,18377,18397,18416,18435,18456,18476,18495,18517,18537,18555,18577,18597,18617,18637,18656,18676,18695,18715,18737,18755,18777,18796,18815,18836,18856,18877,18895,18916,18936,18955,18977,18996,19015,19036,19055,19077,19096,19116,19136,19157,19175,19197,19217,19235,19256,19277,19297,19317,19337,19357,19377,19395,19416,19437,19456,19476,19496,19516,19537,19557,19576,19597,19617,19636,19656,19676,19697,19716,19736],"xSR":733.5,"ySR":461.5,"xT1":420.09999999999997,"yT1":0,"xT2":1046.8999999999999,"yT2":0,"toosoon":0,"cond_shown":"Congruent","ratio_trial":100,"L_num":15,"L_den":25,"R_num":13,"R_den":26,"correct_side":1,"subjID":"santiagolopezvega31","gender":"0","age":"10","school":"6","test":{"fix_dur":[250,1500],"timestim":1000,"targets_dim":[100,100],"targets_relative_coord":[0.3,0.7],"size_stim":[880,420],"start_dim":[100,100],"size_start":[300,300],"size_fix":60,"samplingrate":20,"img_types":["Congruent","Incongruent"],"ratios":[100,200,300],"rep_conds":19,"nTrials":120,"trials_to_rest":500,"Trials_order":[66,53,81,58,102,3,11,4,40,30,15,83,33,103,24,49,16,116,76,108,7,19,46,65,29,5,56,101,72,110,97,14,63,89,39,17,82,20,94,68,13,114,111,64,32,87,115,71,69,55,105,93,23,43,61,90,91,28,51,21,0,113,107,67,25,26,96,59,34,27,104,112,9,22,62,117,38,35,60,44,98,78,37,50,86,85,57,1,80,45,8,100,48,88,99,70,2,10,92,79,119,6,95,118,42,18,31,41,109,47,54,84,36,74,77,75,73,12,52,106],"cond_shown":["Congruent","Incongruent","Incongruent","Congruent","Congruent","Incongruent","Incongruent","Congruent","Congruent","Congruent","Incongruent","Incongruent","Incongruent","Incongruent","Congruent","Incongruent","Congruent","Congruent","Congruent","Congruent","Incongruent","Incongruent","Congruent","Incongruent","Incongruent","Incongruent","Congruent","Incongruent","Congruent","Congruent","Incongruent","Congruent","Incongruent","Incongruent","Incongruent","Incongruent","Congruent","Congruent","Congruent","Congruent","Incongruent","Congruent","Incongruent","Congruent","Congruent","Incongruent","Incongruent","Incongruent","Incongruent","Incongruent","Incongruent","Incongruent","Incongruent","Incongruent","Incongruent","Congruent","Incongruent","Congruent","Incongruent","Incongruent","Congruent","Incongruent","Incongruent","Incongruent","Incongruent","Congruent","Congruent","Incongruent","Congruent","Incongruent","Congruent","Congruent","Incongruent","Congruent","Congruent","Incongruent","Congruent","Incongruent","Congruent","Congruent","Congruent","Congruent","Incongruent","Congruent","Congruent","Incongruent","Incongruent","Incongruent","Congruent","Incongruent","Congruent","Congruent","Congruent","Congruent","Incongruent","Congruent","Congruent","Congruent","Congruent","Incongruent","Incongruent","Congruent","Incongruent","Congruent","Congruent","Congruent","Incongruent","Incongruent","Incongruent","Incongruent","Congruent","Congruent","Congruent","Congruent","Incongruent","Incongruent","Incongruent","Congruent","Congruent","Congruent"],"ratio_trial":[100,300,200,300,100,200,300,300,300,100,200,300,200,100,100,100,300,200,300,100,100,100,300,300,300,300,200,300,100,200,100,200,200,300,200,300,300,200,300,200,100,100,200,300,200,200,100,300,200,100,200,200,300,100,100,100,100,300,200,200,100,300,300,100,100,200,100,300,300,200,200,300,200,300,200,200,200,300,100,200,200,100,100,200,200,100,200,100,200,200,200,300,100,300,200,300,200,300,200,100,300,100,300,300,100,100,100,300,100,300,100,100,100,200,300,200,100,100,300,300],"left_num":[15,8,3,3,4,7,4,1,4,11,3,1,4,8,9,3,5,3,4,11,9,2,1,13,4,3,8,4,8,12,2,7,7,4,14,13,20,4,1,3,12,3,7,8,21,4,12,13,4,2,14,7,4,2,13,4,3,3,14,4,6,13,8,6,6,11,6,2,20,1,6,1,3,1,14,1,20,13,15,7,3,3,6,3,1,6,4,10,1,7,8,3,2,20,4,2,4,18,5,13,4,11,1,18,1,15,2,4,12,4,9,3,1,13,8,7,17,15,5,20],"right_num":[13,14,11,2,15,14,8,6,13,6,11,3,1,6,8,4,6,14,13,4,13,8,8,12,2,4,3,8,2,6,8,2,4,2,12,12,13,3,11,14,9,2,6,10,2,6,9,12,6,8,12,12,8,6,12,6,8,2,12,1,5,12,9,13,7,3,5,6,5,2,3,3,1,11,6,2,9,12,13,2,14,4,7,14,21,3,1,8,21,14,7,2,6,9,1,10,3,9,14,6,2,6,3,9,18,13,8,8,2,2,8,2,18,14,9,14,10,13,7,9],"left_den":[25,10,4,6,10,10,5,5,20,22,4,2,30,16,15,6,25,6,20,22,15,4,30,26,20,6,15,5,16,15,4,21,15,20,30,26,25,10,5,10,24,6,15,15,30,5,24,26,5,4,30,10,5,4,26,8,5,6,30,30,20,26,10,10,10,22,20,4,25,3,15,5,10,5,28,3,25,26,25,21,6,20,10,6,2,12,30,25,2,10,15,6,5,25,30,20,8,20,10,26,20,22,2,20,2,25,4,5,30,20,15,6,2,26,10,10,30,25,25,25],"right_den":[26,28,20,10,30,28,16,12,26,15,20,15,3,10,16,10,12,20,26,10,26,20,24,15,4,20,9,16,5,10,20,15,6,4,18,15,26,15,22,28,15,5,9,12,4,10,15,15,10,20,18,24,16,15,20,10,16,10,18,3,25,15,18,26,14,10,25,30,10,15,15,6,2,22,20,15,15,15,26,15,20,16,14,20,30,5,3,16,30,28,21,10,12,18,3,25,10,15,20,10,4,15,15,15,30,26,20,16,4,4,16,5,30,20,18,28,15,26,14,18],"correct_side":[1,1,1,1,2,1,1,2,2,1,1,1,2,2,1,1,2,2,2,1,1,1,2,2,2,1,1,1,1,1,1,1,2,2,2,2,1,1,2,2,2,1,2,2,1,1,2,2,1,1,2,1,1,1,2,2,1,1,2,2,1,2,1,1,1,1,1,1,1,1,1,2,2,2,1,1,1,2,1,1,2,2,1,2,2,2,2,2,2,1,1,1,2,1,2,2,1,1,2,2,2,1,1,1,2,1,1,1,2,2,1,1,2,2,1,1,2,1,2,1],"img_shown":["img2/100/Congruent/L/C_Dist_100_LN_15_LD_25_RN_13_RD_26_0.png","img2/300/Incongruent/L/I_Dist_300_LN_8_LD_10_RN_14_RD_28_0.png","img2/200/Incongruent/L/I_Dist_200_LN_3_LD_4_RN_11_RD_20_0.png","img2/300/Congruent/L/C_Dist_300_LN_3_LD_6_RN_2_RD_10_0.png","img2/100/Congruent/R/C_Dist_100_LN_4_LD_10_RN_15_RD_30_1.png","img2/200/Incongruent/L/I_Dist_200_LN_7_LD_10_RN_14_RD_28_0.png","img2/300/Incongruent/L/I_Dist_300_LN_4_LD_5_RN_8_RD_16_0.png","img2/300/Congruent/R/C_Dist_300_LN_1_LD_5_RN_6_RD_12_1.png","img2/300/Congruent/R/C_Dist_300_LN_4_LD_20_RN_13_RD_26_1.png","img2/100/Congruent/L/C_Dist_100_LN_11_LD_22_RN_6_RD_15_0.png","img2/200/Incongruent/L/I_Dist_200_LN_3_LD_4_RN_11_RD_20_0.png","img2/300/Incongruent/L/I_Dist_300_LN_1_LD_2_RN_3_RD_15_0.png","img2/200/Incongruent/R/I_Dist_200_LN_4_LD_30_RN_1_RD_3_1.png","img2/100/Incongruent/R/I_Dist_100_LN_8_LD_16_RN_6_RD_10_1.png","img2/100/Congruent/L/C_Dist_100_LN_9_LD_15_RN_8_RD_16_0.png","img2/100/Incongruent/L/I_Dist_100_LN_3_LD_6_RN_4_RD_10_0.png","img2/300/Congruent/R/C_Dist_300_LN_5_LD_25_RN_6_RD_12_1.png","img2/200/Congruent/R/C_Dist_200_LN_3_LD_6_RN_14_RD_20_1.png","img2/300/Congruent/R/C_Dist_300_LN_4_LD_20_RN_13_RD_26_1.png","img2/100/Congruent/L/C_Dist_100_LN_11_LD_22_RN_4_RD_10_0.png","img2/100/Incongruent/L/I_Dist_100_LN_9_LD_15_RN_13_RD_26_0.png","img2/100/Incongruent/L/I_Dist_100_LN_2_LD_4_RN_8_RD_20_0.png","img2/300/Congruent/R/C_Dist_300_LN_1_LD_30_RN_8_RD_24_1.png","img2/300/Incongruent/R/I_Dist_300_LN_13_LD_26_RN_12_RD_15_1.png","img2/300/Incongruent/R/I_Dist_300_LN_4_LD_20_RN_2_RD_4_1.png","img2/300/Incongruent/L/I_Dist_300_LN_3_LD_6_RN_4_RD_20_0.png","img2/200/Congruent/L/C_Dist_200_LN_8_LD_15_RN_3_RD_9_0.png","img2/300/Incongruent/L/I_Dist_300_LN_4_LD_5_RN_8_RD_16_0.png","img2/100/Congruent/L/C_Dist_100_LN_8_LD_16_RN_2_RD_5_0.png","img2/200/Congruent/L/C_Dist_200_LN_12_LD_15_RN_6_RD_10_0.png","img2/100/Incongruent/L/I_Dist_100_LN_2_LD_4_RN_8_RD_20_0.png","img2/200/Congruent/L/C_Dist_200_LN_7_LD_21_RN_2_RD_15_0.png","img2/200/Incongruent/R/I_Dist_200_LN_7_LD_15_RN_4_RD_6_1.png","img2/300/Incongruent/R/I_Dist_300_LN_4_LD_20_RN_2_RD_4_1.png","img2/200/Incongruent/R/I_Dist_200_LN_14_LD_30_RN_12_RD_18_1.png","img2/300/Incongruent/R/I_Dist_300_LN_13_LD_26_RN_12_RD_15_1.png","img2/300/Congruent/L/C_Dist_300_LN_20_LD_25_RN_13_RD_26_0.png","img2/200/Congruent/L/C_Dist_200_LN_4_LD_10_RN_3_RD_15_0.png","img2/300/Congruent/R/C_Dist_300_LN_1_LD_5_RN_11_RD_22_1.png","img2/200/Congruent/R/C_Dist_200_LN_3_LD_10_RN_14_RD_28_1.png","img2/100/Incongruent/R/I_Dist_100_LN_12_LD_24_RN_9_RD_15_1.png","img2/100/Congruent/L/C_Dist_100_LN_3_LD_6_RN_2_RD_5_0.png","img2/200/Incongruent/R/I_Dist_200_LN_7_LD_15_RN_6_RD_9_1.png","img2/300/Congruent/R/C_Dist_300_LN_8_LD_15_RN_10_RD_12_1.png","img2/200/Congruent/L/C_Dist_200_LN_21_LD_30_RN_2_RD_4_0.png","img2/200/Incongruent/L/I_Dist_200_LN_4_LD_5_RN_6_RD_10_0.png","img2/100/Incongruent/R/I_Dist_100_LN_12_LD_24_RN_9_RD_15_1.png","img2/300/Incongruent/R/I_Dist_300_LN_13_LD_26_RN_12_RD_15_1.png","img2/200/Incongruent/L/I_Dist_200_LN_4_LD_5_RN_6_RD_10_0.png","img2/100/Incongruent/L/I_Dist_100_LN_2_LD_4_RN_8_RD_20_0.png","img2/200/Incongruent/R/I_Dist_200_LN_14_LD_30_RN_12_RD_18_1.png","img2/200/Incongruent/L/I_Dist_200_LN_7_LD_10_RN_12_RD_24_0.png","img2/300/Incongruent/L/I_Dist_300_LN_4_LD_5_RN_8_RD_16_0.png","img2/100/Incongruent/L/I_Dist_100_LN_2_LD_4_RN_6_RD_15_0.png","img2/100/Incongruent/R/I_Dist_100_LN_13_LD_26_RN_12_RD_20_1.png","img2/100/Congruent/R/C_Dist_100_LN_4_LD_8_RN_6_RD_10_1.png","img2/100/Incongruent/L/I_Dist_100_LN_3_LD_5_RN_8_RD_16_0.png","img2/300/Congruent/L/C_Dist_300_LN_3_LD_6_RN_2_RD_10_0.png","img2/200/Incongruent/R/I_Dist_200_LN_14_LD_30_RN_12_RD_18_1.png","img2/200/Incongruent/R/I_Dist_200_LN_4_LD_30_RN_1_RD_3_1.png","img2/100/Congruent/L/C_Dist_100_LN_6_LD_20_RN_5_RD_25_0.png","img2/300/Incongruent/R/I_Dist_300_LN_13_LD_26_RN_12_RD_15_1.png","img2/300/Incongruent/L/I_Dist_300_LN_8_LD_10_RN_9_RD_18_0.png","img2/100/Incongruent/L/I_Dist_100_LN_6_LD_10_RN_13_RD_26_0.png","img2/100/Incongruent/L/I_Dist_100_LN_6_LD_10_RN_7_RD_14_0.png","img2/200/Congruent/L/C_Dist_200_LN_11_LD_22_RN_3_RD_10_0.png","img2/100/Congruent/L/C_Dist_100_LN_6_LD_20_RN_5_RD_25_0.png","img2/300/Incongruent/L/I_Dist_300_LN_2_LD_4_RN_6_RD_30_0.png","img2/300/Congruent/L/C_Dist_300_LN_20_LD_25_RN_5_RD_10_0.png","img2/200/Incongruent/L/I_Dist_200_LN_1_LD_3_RN_2_RD_15_0.png","img2/200/Congruent/L/C_Dist_200_LN_6_LD_15_RN_3_RD_15_0.png","img2/300/Congruent/R/C_Dist_300_LN_1_LD_5_RN_3_RD_6_1.png","img2/200/Incongruent/R/I_Dist_200_LN_3_LD_10_RN_1_RD_2_1.png","img2/300/Congruent/R/C_Dist_300_LN_1_LD_5_RN_11_RD_22_1.png","img2/200/Congruent/L/C_Dist_200_LN_14_LD_28_RN_6_RD_20_0.png","img2/200/Incongruent/L/I_Dist_200_LN_1_LD_3_RN_2_RD_15_0.png","img2/200/Congruent/L/C_Dist_200_LN_20_LD_25_RN_9_RD_15_0.png","img2/300/Incongruent/R/I_Dist_300_LN_13_LD_26_RN_12_RD_15_1.png","img2/100/Congruent/L/C_Dist_100_LN_15_LD_25_RN_13_RD_26_0.png","img2/200/Congruent/L/C_Dist_200_LN_7_LD_21_RN_2_RD_15_0.png","img2/200/Congruent/R/C_Dist_200_LN_3_LD_6_RN_14_RD_20_1.png","img2/100/Congruent/R/C_Dist_100_LN_3_LD_20_RN_4_RD_16_1.png","img2/100/Incongruent/L/I_Dist_100_LN_6_LD_10_RN_7_RD_14_0.png","img2/200/Congruent/R/C_Dist_200_LN_3_LD_6_RN_14_RD_20_1.png","img2/200/Congruent/R/C_Dist_200_LN_1_LD_2_RN_21_RD_30_1.png","img2/100/Incongruent/R/I_Dist_100_LN_6_LD_12_RN_3_RD_5_1.png","img2/200/Incongruent/R/I_Dist_200_LN_4_LD_30_RN_1_RD_3_1.png","img2/100/Incongruent/R/I_Dist_100_LN_10_LD_25_RN_8_RD_16_1.png","img2/200/Congruent/R/C_Dist_200_LN_1_LD_2_RN_21_RD_30_1.png","img2/200/Incongruent/L/I_Dist_200_LN_7_LD_10_RN_14_RD_28_0.png","img2/200/Congruent/L/C_Dist_200_LN_8_LD_15_RN_7_RD_21_0.png","img2/300/Congruent/L/C_Dist_300_LN_3_LD_6_RN_2_RD_10_0.png","img2/100/Congruent/R/C_Dist_100_LN_2_LD_5_RN_6_RD_12_1.png","img2/300/Congruent/L/C_Dist_300_LN_20_LD_25_RN_9_RD_18_0.png","img2/200/Incongruent/R/I_Dist_200_LN_4_LD_30_RN_1_RD_3_1.png","img2/300/Congruent/R/C_Dist_300_LN_2_LD_20_RN_10_RD_25_1.png","img2/200/Congruent/L/C_Dist_200_LN_4_LD_8_RN_3_RD_10_0.png","img2/300/Congruent/L/C_Dist_300_LN_18_LD_20_RN_9_RD_15_0.png","img2/200/Congruent/R/C_Dist_200_LN_5_LD_10_RN_14_RD_20_1.png","img2/100/Incongruent/R/I_Dist_100_LN_13_LD_26_RN_6_RD_10_1.png","img2/300/Incongruent/R/I_Dist_300_LN_4_LD_20_RN_2_RD_4_1.png","img2/100/Congruent/L/C_Dist_100_LN_11_LD_22_RN_6_RD_15_0.png","img2/300/Incongruent/L/I_Dist_300_LN_1_LD_2_RN_3_RD_15_0.png","img2/300/Congruent/L/C_Dist_300_LN_18_LD_20_RN_9_RD_15_0.png","img2/100/Congruent/R/C_Dist_100_LN_1_LD_2_RN_18_RD_30_1.png","img2/100/Congruent/L/C_Dist_100_LN_15_LD_25_RN_13_RD_26_0.png","img2/100/Incongruent/L/I_Dist_100_LN_2_LD_4_RN_8_RD_20_0.png","img2/300/Incongruent/L/I_Dist_300_LN_4_LD_5_RN_8_RD_16_0.png","img2/100/Incongruent/R/I_Dist_100_LN_12_LD_30_RN_2_RD_4_1.png","img2/300/Incongruent/R/I_Dist_300_LN_4_LD_20_RN_2_RD_4_1.png","img2/100/Congruent/L/C_Dist_100_LN_9_LD_15_RN_8_RD_16_0.png","img2/100/Congruent/L/C_Dist_100_LN_3_LD_6_RN_2_RD_5_0.png","img2/100/Congruent/R/C_Dist_100_LN_1_LD_2_RN_18_RD_30_1.png","img2/200/Congruent/R/C_Dist_200_LN_13_LD_26_RN_14_RD_20_1.png","img2/300/Incongruent/L/I_Dist_300_LN_8_LD_10_RN_9_RD_18_0.png","img2/200/Incongruent/L/I_Dist_200_LN_7_LD_10_RN_14_RD_28_0.png","img2/100/Incongruent/R/I_Dist_100_LN_17_LD_30_RN_10_RD_15_1.png","img2/100/Congruent/L/C_Dist_100_LN_15_LD_25_RN_13_RD_26_0.png","img2/300/Congruent/R/C_Dist_300_LN_5_LD_25_RN_7_RD_14_1.png","img2/300/Congruent/L/C_Dist_300_LN_20_LD_25_RN_9_RD_18_0.png"],"dist100_C":[["C_Dist_100_LN_10_LD_25_RN_3_RD_10_0.png","C_Dist_100_LN_11_LD_22_RN_4_RD_10_0.png","C_Dist_100_LN_11_LD_22_RN_6_RD_15_0.png","C_Dist_100_LN_15_LD_25_RN_13_RD_26_0.png","C_Dist_100_LN_3_LD_6_RN_2_RD_5_0.png","C_Dist_100_LN_6_LD_20_RN_5_RD_25_0.png","C_Dist_100_LN_8_LD_16_RN_2_RD_5_0.png","C_Dist_100_LN_9_LD_15_RN_8_RD_16_0.png"],["C_Dist_100_LN_1_LD_2_RN_18_RD_30_1.png","C_Dist_100_LN_1_LD_2_RN_3_RD_5_1.png","C_Dist_100_LN_12_LD_30_RN_13_RD_26_1.png","C_Dist_100_LN_2_LD_5_RN_11_RD_22_1.png","C_Dist_100_LN_2_LD_5_RN_6_RD_12_1.png","C_Dist_100_LN_3_LD_20_RN_4_RD_16_1.png","C_Dist_100_LN_4_LD_10_RN_15_RD_30_1.png","C_Dist_100_LN_4_LD_8_RN_6_RD_10_1.png","C_Dist_100_LN_6_LD_12_RN_15_RD_25_1.png","C_Dist_100_LN_7_LD_14_RN_15_RD_25_1.png","C_Dist_100_LN_7_LD_14_RN_9_RD_15_1.png"]],"dist100_I":[["I_Dist_100_LN_1_LD_2_RN_8_RD_20_0.png","I_Dist_100_LN_2_LD_4_RN_6_RD_15_0.png","I_Dist_100_LN_2_LD_4_RN_8_RD_20_0.png","I_Dist_100_LN_3_LD_5_RN_11_RD_22_0.png","I_Dist_100_LN_3_LD_5_RN_8_RD_16_0.png","I_Dist_100_LN_3_LD_6_RN_4_RD_10_0.png","I_Dist_100_LN_3_LD_9_RN_7_RD_30_0.png","I_Dist_100_LN_4_LD_8_RN_8_RD_20_0.png","I_Dist_100_LN_6_LD_10_RN_11_RD_22_0.png","I_Dist_100_LN_6_LD_10_RN_13_RD_26_0.png","I_Dist_100_LN_6_LD_10_RN_7_RD_14_0.png","I_Dist_100_LN_9_LD_10_RN_20_RD_25_0.png","I_Dist_100_LN_9_LD_15_RN_13_RD_26_0.png","I_Dist_100_LN_9_LD_15_RN_14_RD_28_0.png"],["I_Dist_100_LN_10_LD_25_RN_8_RD_16_1.png","I_Dist_100_LN_10_LD_25_RN_9_RD_18_1.png","I_Dist_100_LN_11_LD_22_RN_9_RD_15_1.png","I_Dist_100_LN_12_LD_24_RN_9_RD_15_1.png","I_Dist_100_LN_12_LD_30_RN_2_RD_4_1.png","I_Dist_100_LN_13_LD_26_RN_12_RD_20_1.png","I_Dist_100_LN_13_LD_26_RN_6_RD_10_1.png","I_Dist_100_LN_17_LD_30_RN_10_RD_15_1.png","I_Dist_100_LN_6_LD_12_RN_3_RD_5_1.png","I_Dist_100_LN_8_LD_16_RN_6_RD_10_1.png","I_Dist_100_LN_8_LD_20_RN_1_RD_2_1.png","I_Dist_100_LN_9_LD_18_RN_6_RD_10_1.png"]],"dist100_S":[["E_Dist_100_LN_2_LD_12_RN_2_RD_30_0.png","E_Dist_100_LN_6_LD_10_RN_6_RD_12_0.png"],["E_Dist_100_LN_6_LD_12_RN_6_RD_10_1.png"]],"dist200_C":[["C_Dist_200_LN_11_LD_22_RN_3_RD_10_0.png","C_Dist_200_LN_12_LD_15_RN_6_RD_10_0.png","C_Dist_200_LN_12_LD_20_RN_6_RD_15_0.png","C_Dist_200_LN_14_LD_28_RN_6_RD_20_0.png","C_Dist_200_LN_15_LD_25_RN_4_RD_10_0.png","C_Dist_200_LN_16_LD_20_RN_12_RD_20_0.png","C_Dist_200_LN_16_LD_30_RN_9_RD_27_0.png","C_Dist_200_LN_20_LD_25_RN_9_RD_15_0.png","C_Dist_200_LN_21_LD_30_RN_2_RD_4_0.png","C_Dist_200_LN_4_LD_10_RN_3_RD_15_0.png","C_Dist_200_LN_4_LD_8_RN_3_RD_10_0.png","C_Dist_200_LN_6_LD_15_RN_3_RD_15_0.png","C_Dist_200_LN_7_LD_21_RN_2_RD_15_0.png","C_Dist_200_LN_8_LD_15_RN_2_RD_6_0.png","C_Dist_200_LN_8_LD_15_RN_3_RD_9_0.png","C_Dist_200_LN_8_LD_15_RN_7_RD_21_0.png","C_Dist_200_LN_9_LD_20_RN_4_RD_16_0.png"],["C_Dist_200_LN_1_LD_2_RN_21_RD_30_1.png","C_Dist_200_LN_13_LD_26_RN_14_RD_20_1.png","C_Dist_200_LN_3_LD_10_RN_11_RD_22_1.png","C_Dist_200_LN_3_LD_10_RN_14_RD_28_1.png","C_Dist_200_LN_3_LD_10_RN_7_RD_14_1.png","C_Dist_200_LN_3_LD_12_RN_9_RD_20_1.png","C_Dist_200_LN_3_LD_6_RN_14_RD_20_1.png","C_Dist_200_LN_5_LD_10_RN_14_RD_20_1.png","C_Dist_200_LN_6_LD_12_RN_7_RD_10_1.png","C_Dist_200_LN_6_LD_20_RN_11_RD_22_1.png","C_Dist_200_LN_7_LD_15_RN_18_RD_27_1.png","C_Dist_200_LN_9_LD_30_RN_13_RD_26_1.png"]],"dist200_I":[["I_Dist_200_LN_1_LD_2_RN_3_RD_10_0.png","I_Dist_200_LN_1_LD_3_RN_2_RD_15_0.png","I_Dist_200_LN_3_LD_4_RN_11_RD_20_0.png","I_Dist_200_LN_4_LD_5_RN_6_RD_10_0.png","I_Dist_200_LN_4_LD_6_RN_14_RD_30_0.png","I_Dist_200_LN_7_LD_10_RN_12_RD_24_0.png","I_Dist_200_LN_7_LD_10_RN_14_RD_28_0.png","I_Dist_200_LN_7_LD_10_RN_8_RD_16_0.png"],["I_Dist_200_LN_11_LD_20_RN_3_RD_4_1.png","I_Dist_200_LN_14_LD_30_RN_12_RD_18_1.png","I_Dist_200_LN_14_LD_30_RN_6_RD_9_1.png","I_Dist_200_LN_3_LD_10_RN_1_RD_2_1.png","I_Dist_200_LN_4_LD_30_RN_1_RD_3_1.png","I_Dist_200_LN_6_LD_20_RN_3_RD_6_1.png","I_Dist_200_LN_7_LD_15_RN_4_RD_6_1.png","I_Dist_200_LN_7_LD_15_RN_6_RD_9_1.png","I_Dist_200_LN_9_LD_15_RN_8_RD_10_1.png"]],"dist200_S":[["E_Dist_200_LN_3_LD_6_RN_3_RD_10_0.png"],["E_Dist_200_LN_3_LD_10_RN_3_RD_6_1.png"]],"dist300_C":[["C_Dist_300_LN_11_LD_22_RN_1_RD_5_0.png","C_Dist_300_LN_11_LD_22_RN_2_RD_10_0.png","C_Dist_300_LN_11_LD_22_RN_4_RD_20_0.png","C_Dist_300_LN_12_LD_24_RN_2_RD_10_0.png","C_Dist_300_LN_18_LD_20_RN_9_RD_15_0.png","C_Dist_300_LN_20_LD_25_RN_13_RD_26_0.png","C_Dist_300_LN_20_LD_25_RN_14_RD_28_0.png","C_Dist_300_LN_20_LD_25_RN_5_RD_10_0.png","C_Dist_300_LN_20_LD_25_RN_8_RD_16_0.png","C_Dist_300_LN_20_LD_25_RN_9_RD_18_0.png","C_Dist_300_LN_24_LD_30_RN_2_RD_4_0.png","C_Dist_300_LN_24_LD_30_RN_8_RD_16_0.png","C_Dist_300_LN_3_LD_6_RN_2_RD_10_0.png","C_Dist_300_LN_4_LD_10_RN_1_RD_10_0.png","C_Dist_300_LN_4_LD_5_RN_2_RD_4_0.png","C_Dist_300_LN_8_LD_16_RN_1_RD_5_0.png","C_Dist_300_LN_9_LD_10_RN_3_RD_5_0.png"],["C_Dist_300_LN_1_LD_20_RN_7_RD_20_1.png","C_Dist_300_LN_1_LD_3_RN_19_RD_30_1.png","C_Dist_300_LN_1_LD_30_RN_8_RD_24_1.png","C_Dist_300_LN_1_LD_5_RN_11_RD_22_1.png","C_Dist_300_LN_1_LD_5_RN_3_RD_6_1.png","C_Dist_300_LN_1_LD_5_RN_6_RD_12_1.png","C_Dist_300_LN_2_LD_10_RN_12_RD_24_1.png","C_Dist_300_LN_2_LD_20_RN_10_RD_25_1.png","C_Dist_300_LN_3_LD_12_RN_11_RD_20_1.png","C_Dist_300_LN_3_LD_6_RN_4_RD_5_1.png","C_Dist_300_LN_4_LD_20_RN_13_RD_26_1.png","C_Dist_300_LN_5_LD_25_RN_6_RD_12_1.png","C_Dist_300_LN_5_LD_25_RN_7_RD_14_1.png","C_Dist_300_LN_7_LD_14_RN_20_RD_25_1.png","C_Dist_300_LN_8_LD_15_RN_10_RD_12_1.png"]],"dist300_I":[["I_Dist_300_LN_1_LD_2_RN_2_RD_10_0.png","I_Dist_300_LN_1_LD_2_RN_3_RD_15_0.png","I_Dist_300_LN_2_LD_4_RN_6_RD_30_0.png","I_Dist_300_LN_3_LD_6_RN_4_RD_20_0.png","I_Dist_300_LN_4_LD_5_RN_6_RD_12_0.png","I_Dist_300_LN_4_LD_5_RN_8_RD_16_0.png","I_Dist_300_LN_7_LD_10_RN_8_RD_20_0.png","I_Dist_300_LN_8_LD_10_RN_14_RD_28_0.png","I_Dist_300_LN_8_LD_10_RN_9_RD_18_0.png"],["I_Dist_300_LN_13_LD_26_RN_12_RD_15_1.png","I_Dist_300_LN_4_LD_20_RN_2_RD_4_1.png"]],"dist300_S":[["E_Dist_300_LN_9_LD_12_RN_9_RD_20_0.png"],["E_Dist_300_LN_18_LD_30_RN_18_RD_20_1.png","E_Dist_300_LN_3_LD_10_RN_3_RD_5_1.png","E_Dist_300_LN_9_LD_20_RN_9_RD_12_1.png"]],"dist500_C":[["C_Dist_500_LN_10_LD_13_RN_7_RD_26_0.png","C_Dist_500_LN_10_LD_15_RN_4_RD_24_0.png","C_Dist_500_LN_12_LD_16_RN_3_RD_12_0.png","C_Dist_500_LN_12_LD_18_RN_4_RD_24_0.png","C_Dist_500_LN_15_LD_18_RN_5_RD_15_0.png","C_Dist_500_LN_15_LD_20_RN_1_RD_4_0.png","C_Dist_500_LN_18_LD_27_RN_1_RD_6_0.png","C_Dist_500_LN_20_LD_24_RN_1_RD_3_0.png","C_Dist_500_LN_20_LD_24_RN_3_RD_9_0.png","C_Dist_500_LN_20_LD_24_RN_7_RD_21_0.png","C_Dist_500_LN_20_LD_28_RN_3_RD_14_0.png","C_Dist_500_LN_21_LD_28_RN_6_RD_24_0.png","C_Dist_500_LN_22_LD_28_RN_2_RD_7_0.png","C_Dist_500_LN_25_LD_30_RN_9_RD_27_0.png","C_Dist_500_LN_4_LD_6_RN_1_RD_6_0.png","C_Dist_500_LN_5_LD_6_RN_2_RD_6_0.png","C_Dist_500_LN_6_LD_9_RN_1_RD_6_0.png","C_Dist_500_LN_7_LD_10_RN_1_RD_5_0.png","C_Dist_500_LN_8_LD_12_RN_1_RD_6_0.png","C_Dist_500_LN_8_LD_12_RN_4_RD_24_0.png"],["C_Dist_500_LN_1_LD_4_RN_12_RD_16_1.png","C_Dist_500_LN_1_LD_4_RN_9_RD_12_1.png","C_Dist_500_LN_1_LD_9_RN_11_RD_18_1.png","C_Dist_500_LN_10_LD_24_RN_22_RD_24_1.png","C_Dist_500_LN_2_LD_12_RN_10_RD_15_1.png","C_Dist_500_LN_2_LD_12_RN_12_RD_18_1.png","C_Dist_500_LN_2_LD_12_RN_4_RD_6_1.png","C_Dist_500_LN_2_LD_24_RN_7_RD_12_1.png","C_Dist_500_LN_2_LD_5_RN_18_RD_20_1.png","C_Dist_500_LN_2_LD_5_RN_9_RD_10_1.png","C_Dist_500_LN_2_LD_8_RN_12_RD_16_1.png","C_Dist_500_LN_2_LD_8_RN_21_RD_28_1.png","C_Dist_500_LN_3_LD_10_RN_4_RD_5_1.png","C_Dist_500_LN_3_LD_12_RN_15_RD_20_1.png","C_Dist_500_LN_3_LD_30_RN_6_RD_10_1.png","C_Dist_500_LN_3_LD_8_RN_14_RD_16_1.png","C_Dist_500_LN_4_LD_16_RN_15_RD_20_1.png","C_Dist_500_LN_4_LD_24_RN_12_RD_18_1.png","C_Dist_500_LN_5_LD_14_RN_6_RD_7_1.png","C_Dist_500_LN_7_LD_21_RN_20_RD_24_1.png","C_Dist_500_LN_7_LD_28_RN_12_RD_16_1.png","C_Dist_500_LN_7_LD_28_RN_9_RD_12_1.png","C_Dist_500_LN_9_LD_27_RN_20_RD_24_1.png"]],"dist500_I":[["I_Dist_500_LN_2_LD_3_RN_4_RD_24_0.png","I_Dist_500_LN_5_LD_6_RN_6_RD_18_0.png","I_Dist_500_LN_7_LD_8_RN_9_RD_24_0.png"],["I_Dist_500_LN_7_LD_21_RN_5_RD_6_1.png"]],"dist500_S":[["E_Dist_500_LN_6_LD_8_RN_6_RD_24_0.png"],["E_Dist_500_LN_2_LD_12_RN_2_RD_3_1.png","E_Dist_500_LN_6_LD_24_RN_6_RD_8_1.png"]]}},{"start_time":1551880572748,"click_time":1551880576676,"finger_time":1551880576417,"fix_duration":250,"trial":1,"RT":3669,"MT":259,"sideResp":1,"stimulus":[],"xmouse":[787,787,787,787,787,787,786,786,786,786,786,786,786,786,786,786,786,786,786,786,786,786,786,786,786,786,786,786,786,786,786,786,786,786,786,786,786,786,786,786,786,786,786,786,786,786,786,786,786,786,786,786,786,786,786,786,786,786,786,786,786,786,786,786,786,786,786,786,786,786,786,786,786,786,786,786,786,786,786,786,786,786,786,786,786,786,786,786,786,786,786,786,786,786,786,786,786,786,786,786,786,786,786,786,786,786,786,786,786,786,786,786,786,786,786,786,786,786,786,786,786,786,786,786,786,786,786,786,786,786,786,786,786,786,786,786,786,786,786,786,786,786,786,786,786,786,786,786,786,786,786,786,786,786,786,786,786,786,786,786,786,786,786,786,786,786,786,786,786,786,786,786,786,786,786,786,786,786,786,786,785,779,751,737,719,700,680,660,653,645,632,584,564,539,507,475],"ymouse":[619,620,620,620,620,620,621,621,621,621,621,621,621,621,621,621,621,621,621,621,621,621,621,621,621,621,621,621,621,621,621,621,621,621,621,621,621,621,621,621,621,621,621,621,621,621,621,621,621,621,621,621,621,621,621,621,621,621,621,621,621,621,621,621,621,621,621,621,621,621,621,621,621,621,621,621,621,621,621,621,621,621,621,621,621,621,621,621,621,621,621,621,621,621,621,621,621,621,621,621,621,621,621,621,621,621,621,621,621,621,621,621,621,621,621,621,621,621,621,621,621,621,621,621,621,621,621,621,621,621,621,621,621,621,621,621,621,621,621,621,621,621,621,621,621,621,621,621,621,621,621,621,621,621,621,621,621,621,621,621,621,621,621,621,621,621,621,621,621,621,621,621,621,621,621,621,621,621,621,621,616,610,567,542,505,462,416,357,328,300,274,187,159,132,106,85],"timestamp_mouse":[9,29,71,88,109,128,148,168,189,209,228,249,269,289,308,327,348,369,387,409,429,448,469,489,509,528,549,567,588,607,629,647,668,688,709,728,749,768,788,807,829,848,867,888,908,929,947,968,988,1009,1028,1048,1069,1088,1107,1129,1148,1169,1187,1208,1227,1248,1269,1289,1308,1329,1349,1369,1388,1409,1427,1448,1468,1489,1508,1529,1548,1569,1587,1609,1628,1648,1669,1687,1708,1729,1747,1769,1789,1808,1828,1849,1868,1889,1907,1929,1948,1968,1987,2009,2029,2049,2069,2087,2108,2128,2148,2169,2188,2209,2228,2248,2268,2287,2309,2329,2348,2369,2388,2409,2428,2449,2467,2488,2508,2528,2548,2568,2587,2609,2628,2649,2668,2689,2708,2727,2749,2767,2789,2807,2827,2849,2868,2889,2908,2928,2948,2969,2987,3008,3028,3048,3069,3089,3108,3127,3149,3167,3189,3208,3228,3249,3268,3289,3308,3329,3347,3368,3389,3409,3429,3448,3468,3487,3509,3528,3548,3567,3589,3607,3628,3648,3668,3688,3708,3728,3749,3768,3788,3808,3827,3849,3868,3888,3909,3928],"xSR":741.5,"ySR":573.95,"xT1":424.9,"yT1":0,"xT2":1058.1,"yT2":0,"toosoon":0,"cond_shown":"Incongruent","ratio_trial":300,"L_num":8,"L_den":10,"R_num":14,"R_den":28,"correct_side":1,"subjID":"santiagolopezvega31","gender":"0","school":"6","age":"10"},{"start_time":1551880579019,"click_time":1551880581315,"finger_time":1551880580916,"fix_duration":1322.1625185497753,"trial":2,"RT":1897,"MT":399,"sideResp":1,"stimulus":[],"xmouse":[791,791,791,791,791,791,791,791,791,791,791,791,791,791,791,791,791,791,791,791,791,791,791,791,791,791,791,791,791,791,791,791,791,791,791,791,791,791,791,791,791,791,791,791,791,791,791,791,791,791,791,791,791,791,791,791,791,791,791,791,791,791,791,791,791,791,791,791,791,791,791,791,791,791,791,791,791,791,791,791,791,791,791,791,791,791,791,791,791,791,791,789,785,777,743,722,702,674,653,614,602,595,590,585,571,559,550,543,542,542,542,540,534,527,516],"ymouse":[622,622,622,622,622,622,622,622,622,622,622,622,622,622,622,622,622,622,622,622,622,622,622,622,622,622,622,622,622,622,622,622,622,622,622,622,622,622,622,622,622,622,622,622,622,622,622,622,622,622,622,622,622,622,622,622,622,622,622,622,622,622,622,622,622,622,622,622,622,622,622,622,622,622,622,622,622,622,622,622,622,622,622,622,622,622,622,622,622,622,622,622,618,599,518,467,422,355,314,225,198,178,162,142,106,86,72,64,63,63,63,61,60,58,58],"timestamp_mouse":[18,42,58,77,98,116,137,157,176,197,217,236,258,276,297,318,338,358,377,397,417,438,457,478,498,518,537,558,577,596,617,638,657,677,696,718,738,757,776,798,817,838,857,877,898,917,936,956,977,997,1018,1037,1058,1077,1098,1117,1137,1156,1178,1198,1216,1237,1257,1278,1297,1317,1338,1357,1377,1397,1417,1436,1457,1478,1497,1517,1538,1558,1576,1597,1616,1637,1657,1677,1698,1717,1736,1756,1777,1798,1816,1837,1857,1877,1897,1917,1938,1958,1977,1997,2017,2038,2058,2078,2096,2118,2137,2158,2177,2197,2217,2237,2257,2278,2296],"xSR":741.5,"ySR":573.95,"xT1":424.9,"yT1":0,"xT2":1058.1,"yT2":0,"toosoon":0,"cond_shown":"Incongruent","ratio_trial":200,"L_num":3,"L_den":4,"R_num":11,"R_den":20,"correct_side":1,"subjID":"santiagolopezvega31","gender":"0","school":"6","age":"10"},{"start_time":1551880583860,"click_time":1551880585397,"finger_time":1551880585056,"fix_duration":322.4304509003657,"trial":3,"RT":1196,"MT":341,"sideResp":2,"stimulus":[],"xmouse":[800,800,800,800,800,800,800,800,800,800,800,800,800,800,800,800,800,800,800,798,797,797,797,797,797,797,797,797,797,797,797,797,797,797,797,797,797,797,797,797,797,797,797,797,797,797,797,797,797,797,797,797,797,797,797,797,797,798,810,832,857,893,930,1001,1018,1029,1035,1037,1038,1038,1038,1038,1038,1043,1047,1057,1070],"ymouse":[602,602,602,602,602,602,602,602,602,602,602,602,602,602,602,602,602,602,602,602,602,603,604,604,604,604,604,604,604,604,604,606,607,607,607,607,607,607,607,607,607,607,607,607,607,607,607,607,607,607,607,607,607,607,607,607,607,607,586,557,521,462,401,272,234,200,178,164,154,152,151,148,142,130,124,109,92],"timestamp_mouse":[17,44,56,76,96,116,136,156,176,196,217,237,257,275,296,316,336,357,377,395,416,437,455,476,497,516,536,557,576,596,616,637,657,676,696,717,736,757,777,795,816,836,857,875,897,915,936,957,976,997,1017,1037,1056,1076,1095,1117,1137,1157,1176,1196,1217,1236,1257,1276,1295,1316,1336,1356,1376,1397,1416,1436,1456,1477,1497,1517,1536],"xSR":741.5,"ySR":573.95,"xT1":424.9,"yT1":0,"xT2":1058.1,"yT2":0,"toosoon":0,"cond_shown":"Congruent","ratio_trial":300,"L_num":3,"L_den":6,"R_num":2,"R_den":10,"correct_side":1,"subjID":"santiagolopezvega31","gender":"0","school":"6","age":"10"},{"start_time":1551880587040,"click_time":1551880588836,"finger_time":1551880588456,"fix_duration":922.1689802704251,"trial":4,"RT":1416,"MT":380,"sideResp":2,"stimulus":[],"xmouse":[791,791,791,791,791,791,791,791,791,791,791,791,791,791,791,791,791,791,791,791,791,791,791,791,791,791,791,791,791,791,791,791,791,791,791,791,791,791,791,791,791,791,791,791,791,791,791,791,791,791,791,791,791,791,791,791,791,791,791,791,791,791,791,791,791,791,791,791,791,790,809,852,887,913,931,934,938,945,952,970,976,978,983,989,1007,1021,1034,1042,1048,1059],"ymouse":[597,597,597,597,597,597,597,597,597,597,597,597,597,597,597,597,597,597,597,597,597,597,597,597,597,597,597,597,597,597,597,597,597,597,597,597,597,597,597,597,597,597,597,597,597,597,597,597,597,597,597,597,597,597,597,597,597,597,597,597,597,597,597,597,597,597,597,597,597,596,560,464,395,350,310,298,287,270,251,215,206,200,192,183,155,135,118,106,97,77],"timestamp_mouse":[16,36,59,76,96,117,136,157,175,196,216,237,256,276,297,317,336,357,376,396,416,436,456,477,496,515,536,555,577,596,615,637,656,677,696,717,736,756,776,797,816,836,855,877,897,916,937,956,977,995,1016,1037,1056,1076,1096,1117,1136,1156,1177,1196,1216,1237,1256,1276,1295,1316,1336,1356,1376,1396,1416,1436,1457,1476,1496,1516,1536,1556,1577,1596,1616,1636,1657,1676,1695,1716,1736,1757,1777,1796],"xSR":741.5,"ySR":573.95,"xT1":424.9,"yT1":0,"xT2":1058.1,"yT2":0,"toosoon":0,"cond_shown":"Congruent","ratio_trial":100,"L_num":4,"L_den":10,"R_num":15,"R_den":30,"correct_side":2,"subjID":"santiagolopezvega31","gender":"0","school":"6","age":"10"},{"start_time":1551880590804,"click_time":1551880594056,"finger_time":1551880593717,"fix_duration":986.191214642722,"trial":5,"RT":2913,"MT":339,"sideResp":2,"stimulus":[],"xmouse":[802,802,802,802,802,802,802,802,802,802,802,802,802,802,802,802,802,802,802,802,802,802,802,802,802,802,802,802,802,802,802,802,802,802,802,802,802,802,802,802,802,802,802,802,802,802,802,802,802,802,802,802,802,802,802,802,802,802,802,802,802,802,802,802,802,802,802,802,802,802,802,802,802,802,802,802,802,802,802,802,802,802,802,802,802,802,802,802,802,802,802,802,802,802,802,802,802,802,802,802,802,802,802,802,802,802,802,802,802,802,802,802,802,802,802,802,802,802,802,802,802,802,802,802,802,802,802,802,802,802,802,802,802,802,802,802,802,802,802,802,803,822,829,835,838,843,857,940,992,1041,1080,1136,1148,1156,1165,1173,1185,1187,1188,1188,1186,1177,1154],"ymouse":[621,621,621,621,621,621,621,621,621,621,621,621,621,621,621,621,621,621,621,621,621,621,621,621,621,621,621,621,621,621,621,621,621,620,620,620,620,620,620,620,620,620,620,620,620,620,620,620,620,620,620,620,620,620,620,620,620,620,620,620,620,620,620,620,620,620,620,620,620,620,620,620,620,620,620,619,619,619,619,619,619,619,619,619,619,619,619,619,619,619,619,619,619,619,619,619,619,619,619,619,619,619,619,619,619,619,619,619,619,619,619,619,619,619,619,619,619,619,619,619,619,619,619,619,619,619,619,619,619,619,619,619,619,619,619,619,619,619,619,619,616,604,600,597,595,592,574,487,441,395,350,263,233,213,193,165,112,99,90,83,70,55,35],"timestamp_mouse":[12,40,51,72,93,113,131,153,172,191,212,233,252,272,293,313,333,352,372,392,411,432,453,471,493,513,532,553,572,592,612,633,653,672,692,712,732,752,771,792,811,832,851,872,892,912,932,951,972,993,1012,1031,1052,1072,1092,1111,1132,1153,1173,1193,1211,1232,1251,1272,1293,1311,1333,1352,1372,1392,1411,1432,1453,1472,1492,1511,1533,1552,1572,1592,1612,1632,1653,1672,1691,1711,1732,1751,1772,1793,1812,1832,1851,1872,1892,1912,1932,1953,1971,1992,2012,2031,2052,2073,2092,2112,2132,2152,2172,2192,2211,2232,2252,2273,2293,2312,2332,2352,2373,2392,2413,2432,2451,2473,2492,2512,2532,2553,2573,2592,2612,2632,2651,2673,2693,2712,2732,2752,2772,2792,2813,2833,2853,2872,2892,2913,2931,2952,2972,2993,3012,3032,3052,3072,3092,3113,3132,3152,3172,3193,3212,3232,3252],"xSR":741.5,"ySR":573.95,"xT1":424.9,"yT1":0,"xT2":1058.1,"yT2":0,"toosoon":0,"cond_shown":"Incongruent","ratio_trial":200,"L_num":7,"L_den":10,"R_num":14,"R_den":28,"correct_side":1,"subjID":"santiagolopezvega31","gender":"0","school":"6","age":"10"},{"start_time":1551880595603,"click_time":1551880597556,"finger_time":1551880597137,"fix_duration":524.1705935992059,"trial":6,"RT":1534,"MT":419,"sideResp":1,"stimulus":[],"xmouse":[779,779,779,779,779,779,779,779,779,779,779,779,779,781,782,783,785,792,793,793,793,794,801,803,804,805,807,808,808,808,808,808,808,808,808,808,808,808,808,808,808,808,808,808,808,808,808,808,808,808,808,808,808,808,808,808,808,808,808,808,808,808,808,808,808,808,808,808,808,808,808,808,808,808,809,801,742,710,691,680,677,671,645,631,617,606,597,588,581,571,558,550,542,542,542,538,529,505],"ymouse":[629,629,629,629,629,629,629,629,629,629,629,629,629,627,626,625,624,621,621,621,621,621,617,617,616,616,615,614,614,614,614,614,614,614,614,614,614,614,614,614,614,614,614,614,614,614,614,614,614,614,614,614,614,614,614,614,614,614,614,614,614,614,614,614,614,614,614,614,614,614,614,614,614,614,602,584,456,403,371,355,348,336,305,287,270,258,249,237,223,205,173,150,117,110,106,98,86,57],"timestamp_mouse":[13,37,53,73,92,112,133,152,172,193,213,233,253,274,294,313,333,353,373,393,413,433,452,473,493,513,533,553,573,594,614,633,653,673,693,714,734,754,773,794,813,834,853,872,893,913,934,953,973,994,1014,1032,1054,1074,1092,1113,1133,1154,1174,1192,1213,1233,1254,1274,1293,1314,1333,1354,1374,1392,1413,1433,1453,1472,1494,1513,1534,1552,1573,1594,1613,1633,1653,1673,1694,1714,1734,1754,1773,1793,1813,1834,1853,1873,1893,1913,1933,1953],"xSR":741.5,"ySR":573.95,"xT1":424.9,"yT1":0,"xT2":1058.1,"yT2":0,"toosoon":0,"cond_shown":"Incongruent","ratio_trial":300,"L_num":4,"L_den":5,"R_num":8,"R_den":16,"correct_side":1,"subjID":"santiagolopezvega31","gender":"0","school":"6","age":"10"},{"start_time":1551880599264,"click_time":1551880602317,"finger_time":1551880602017,"fix_duration":906.4322269065154,"trial":7,"RT":2753,"MT":300,"sideResp":2,"stimulus":[],"xmouse":[798,798,798,798,798,798,798,798,798,798,798,798,798,798,798,798,798,798,798,798,798,798,798,798,798,798,798,798,798,798,798,798,798,798,798,798,798,798,798,798,798,798,798,798,798,798,798,798,798,798,798,798,798,798,798,798,798,798,798,798,798,798,798,798,798,798,798,798,798,798,798,798,798,798,798,798,798,798,798,798,798,798,798,798,798,798,798,798,798,798,798,798,798,798,798,798,798,798,798,798,798,798,798,798,798,798,798,798,798,798,798,798,798,798,798,798,798,798,798,798,798,798,798,798,798,798,798,798,798,798,798,798,798,798,798,798,804,830,874,917,941,943,950,969,1006,1111,1127,1134,1135,1135,1136,1138,1143],"ymouse":[648,648,648,648,648,648,648,648,648,648,648,648,648,648,648,648,648,648,648,648,648,648,648,648,648,648,648,648,648,648,648,648,648,648,648,648,648,648,648,648,648,648,648,648,648,648,648,648,648,648,648,648,648,648,648,648,648,648,648,648,648,648,648,648,648,648,648,648,648,648,648,648,648,648,648,648,648,648,648,648,648,648,648,648,648,648,648,648,648,648,648,648,648,648,648,648,648,648,648,648,648,648,648,648,648,648,648,648,648,648,648,648,648,648,648,648,648,648,648,648,648,648,648,648,648,648,648,648,648,648,648,648,648,648,648,648,627,563,481,409,346,328,300,259,209,131,117,110,110,109,106,102,94],"timestamp_mouse":[12,32,53,72,93,112,132,153,172,192,211,233,252,272,292,313,333,351,373,391,412,433,451,473,493,513,532,552,572,592,613,632,653,671,692,712,733,753,772,792,811,832,853,873,892,913,933,951,972,991,1012,1032,1052,1072,1092,1112,1133,1153,1172,1193,1213,1232,1251,1272,1292,1313,1332,1352,1373,1393,1413,1432,1452,1473,1492,1511,1533,1552,1572,1591,1613,1631,1652,1673,1691,1712,1732,1753,1772,1793,1813,1833,1853,1873,1892,1912,1931,1953,1972,1993,2013,2033,2051,2072,2092,2112,2133,2152,2172,2192,2212,2233,2252,2273,2292,2313,2333,2353,2371,2393,2411,2432,2453,2471,2493,2513,2531,2553,2572,2592,2612,2631,2653,2673,2692,2711,2732,2753,2772,2792,2812,2833,2852,2871,2892,2912,2932,2952,2973,2993,3012,3033,3053],"xSR":741.5,"ySR":573.95,"xT1":424.9,"yT1":0,"xT2":1058.1,"yT2":0,"toosoon":0,"cond_shown":"Congruent","ratio_trial":300,"L_num":1,"L_den":5,"R_num":6,"R_den":12,"correct_side":2,"subjID":"santiagolopezvega31","gender":"0","school":"6","age":"10"},{"start_time":1551880604392,"click_time":1551880606276,"finger_time":1551880605996,"fix_duration":1095.5505025889197,"trial":8,"RT":1604,"MT":280,"sideResp":1,"stimulus":[],"xmouse":[778,778,778,778,778,778,778,778,778,778,778,778,778,778,778,778,778,778,778,778,778,778,778,778,778,778,778,778,778,778,778,778,778,778,778,778,778,778,778,778,778,778,778,778,778,778,778,778,778,778,778,778,778,778,778,778,778,778,778,778,778,778,778,778,778,778,778,778,778,778,778,778,778,778,778,778,778,778,778,761,744,730,720,711,695,686,669,663,644,619,607,592,570,548,511],"ymouse":[629,629,629,629,629,629,629,629,629,629,629,629,629,629,629,629,629,629,629,629,629,629,629,629,629,629,629,629,629,629,629,629,629,629,629,629,629,629,629,629,629,629,629,629,629,629,629,629,629,629,629,629,629,629,629,629,629,629,629,629,629,629,629,629,629,629,629,629,629,629,629,629,629,629,629,629,629,629,628,597,573,554,540,531,504,483,453,442,412,360,328,281,223,171,99],"timestamp_mouse":[9,24,45,64,84,104,125,144,165,183,204,225,244,264,285,305,324,344,365,384,404,425,445,463,485,505,524,544,563,585,603,625,644,664,685,705,724,744,763,785,805,825,843,864,884,905,924,944,965,984,1004,1024,1044,1065,1084,1105,1125,1144,1165,1184,1205,1225,1245,1264,1285,1305,1324,1345,1364,1383,1404,1425,1443,1464,1484,1504,1525,1545,1564,1584,1604,1624,1644,1664,1684,1704,1723,1743,1764,1784,1804,1823,1845,1864,1884],"xSR":741.5,"ySR":573.95,"xT1":424.9,"yT1":0,"xT2":1058.1,"yT2":0,"toosoon":0,"cond_shown":"Congruent","ratio_trial":300,"L_num":4,"L_den":20,"R_num":13,"R_den":26,"correct_side":2,"subjID":"santiagolopezvega31","gender":"0","school":"6","age":"10"},{"start_time":1551880607763,"click_time":1551880610416,"finger_time":1551880610096,"fix_duration":564.8190827452167,"trial":9,"RT":2333,"MT":320,"sideResp":2,"stimulus":[],"xmouse":[806,806,806,806,806,806,806,806,806,806,806,806,806,806,806,806,806,806,806,806,806,806,806,806,806,806,806,806,808,808,809,809,809,809,809,809,809,809,809,809,809,809,809,809,809,809,809,809,809,809,809,809,809,809,809,809,809,809,809,809,809,809,809,809,809,809,809,809,809,809,809,809,809,809,809,809,809,809,809,809,809,809,809,809,809,809,809,809,809,809,809,809,809,809,809,809,809,809,809,809,809,809,809,809,809,809,809,809,809,809,809,809,809,809,809,817,850,872,886,902,936,952,959,966,972,995,1004,1006,1007,1009,1033,1052,1078],"ymouse":[617,617,617,617,617,617,617,617,617,617,617,617,617,617,617,617,617,617,617,617,617,617,617,617,617,617,617,617,617,617,617,617,617,617,617,617,617,617,617,617,617,617,617,617,617,617,617,617,617,617,617,617,617,617,617,617,617,617,617,617,617,617,617,617,617,617,617,617,617,617,617,617,617,617,617,617,617,617,617,617,617,617,617,617,617,617,617,617,617,617,617,617,617,617,617,617,617,617,617,617,617,617,617,617,617,617,617,617,617,617,617,617,617,617,617,607,551,509,470,420,323,283,261,242,224,166,143,138,135,133,112,95,72],"timestamp_mouse":[12,49,52,73,92,114,133,153,173,193,214,233,253,272,292,313,332,352,372,394,413,432,452,472,493,512,533,553,572,592,612,632,653,672,693,713,732,754,773,792,813,833,853,873,894,913,933,952,973,992,1012,1032,1052,1073,1092,1112,1132,1152,1173,1192,1212,1232,1252,1272,1292,1312,1334,1354,1372,1392,1412,1432,1452,1472,1493,1512,1532,1552,1573,1593,1614,1633,1654,1673,1692,1712,1732,1752,1772,1792,1812,1832,1852,1873,1894,1913,1932,1952,1972,1993,2014,2033,2052,2072,2093,2113,2132,2152,2172,2192,2212,2233,2252,2272,2293,2312,2333,2352,2372,2392,2412,2433,2454,2473,2493,2512,2532,2552,2572,2592,2612,2632,2652],"xSR":741.5,"ySR":573.95,"xT1":424.9,"yT1":0,"xT2":1058.1,"yT2":0,"toosoon":0,"cond_shown":"Congruent","ratio_trial":100,"L_num":11,"L_den":22,"R_num":6,"R_den":15,"correct_side":1,"subjID":"santiagolopezvega31","gender":"0","school":"6","age":"10"},{"start_time":1551880611387,"click_time":1551880617355,"finger_time":1551880616816,"fix_duration":250,"trial":10,"RT":5429,"MT":539,"sideResp":2,"stimulus":[],"xmouse":[761,761,761,761,761,761,761,761,761,761,761,761,761,761,761,761,761,761,761,761,761,761,761,761,761,761,761,761,761,761,761,761,761,761,761,761,761,761,761,761,761,761,761,761,761,761,761,761,761,761,761,761,761,761,761,761,761,761,761,761,761,761,761,761,761,761,761,761,761,761,761,761,761,761,761,761,761,761,761,761,761,761,761,761,761,761,761,761,761,761,761,761,761,761,761,761,761,761,761,761,761,761,761,761,761,761,761,761,761,761,761,761,761,761,761,761,761,761,761,761,761,761,761,761,761,761,761,761,761,761,761,761,761,761,761,761,761,761,761,761,761,761,761,761,761,761,761,761,761,761,761,761,761,761,761,761,761,761,761,761,761,761,761,761,761,761,761,761,761,761,761,761,761,761,761,761,761,761,761,761,761,761,761,761,761,761,761,761,761,761,761,761,761,761,761,761,761,761,761,761,761,761,761,761,761,761,761,761,761,761,761,761,761,761,761,761,761,761,761,761,761,761,761,761,761,761,761,761,761,761,761,761,761,761,761,761,761,761,761,761,761,761,761,761,761,761,761,761,761,761,761,766,771,773,775,775,775,775,775,775,775,775,775,775,775,775,775,775,783,789,827,875,972,1008,1094,1164,1186,1206,1227,1244,1273,1283,1285,1278,1264,1245,1203,1191,1184,1180,1180,1180,1180,1180,1180,1167,1157,1146,1133],"ymouse":[648,648,648,649,649,649,649,649,649,649,649,649,649,649,649,649,649,649,649,649,649,649,649,649,649,649,649,649,649,649,649,649,649,649,649,649,649,649,649,649,649,649,649,649,649,649,649,649,649,649,649,649,649,649,649,649,649,649,649,649,649,649,649,649,649,649,649,649,649,649,649,649,649,649,649,649,649,649,649,649,649,649,649,649,649,649,649,649,649,649,649,649,649,649,649,649,649,649,649,649,649,649,649,649,649,649,649,649,649,649,649,649,649,649,649,649,649,649,649,649,649,649,649,649,649,649,649,649,649,649,649,649,649,649,649,649,649,649,649,649,649,649,649,649,649,649,649,649,649,649,649,649,649,649,649,649,649,649,649,649,649,649,649,649,649,649,649,649,649,649,649,649,649,649,649,649,649,649,649,649,649,649,649,649,649,649,649,649,649,649,649,649,649,649,649,649,649,649,649,649,649,649,649,649,649,649,649,649,649,649,649,649,649,649,649,649,649,649,649,649,649,649,649,649,649,649,649,649,649,649,649,649,649,649,649,649,649,649,649,649,649,649,649,649,649,649,649,649,649,649,649,649,648,647,647,646,646,646,646,646,646,646,646,646,646,646,646,646,643,640,614,576,495,467,398,348,331,313,298,287,261,242,223,196,177,163,142,137,133,132,132,132,132,132,131,118,111,101,90],"timestamp_mouse":[8,35,48,70,88,110,128,150,169,189,208,228,249,268,288,310,328,348,369,388,408,429,449,469,488,508,529,548,568,589,609,629,648,668,688,708,729,750,769,788,808,830,849,869,888,908,929,949,969,989,1008,1029,1048,1068,1089,1109,1129,1149,1169,1188,1208,1229,1248,1270,1289,1308,1328,1348,1368,1390,1408,1428,1450,1469,1488,1508,1528,1548,1568,1589,1608,1629,1648,1669,1689,1708,1729,1749,1768,1789,1809,1828,1849,1868,1889,1908,1929,1948,1969,1988,2009,2029,2049,2068,2089,2109,2129,2150,2169,2188,2210,2229,2248,2268,2289,2308,2328,2350,2368,2390,2408,2428,2448,2468,2489,2508,2528,2548,2568,2590,2608,2629,2648,2669,2688,2708,2728,2749,2768,2789,2809,2828,2848,2868,2888,2909,2928,2948,2968,2990,3008,3028,3048,3068,3088,3108,3128,3148,3168,3188,3209,3229,3248,3268,3288,3308,3329,3348,3368,3388,3409,3429,3448,3470,3489,3509,3529,3548,3568,3589,3608,3629,3648,3668,3689,3709,3728,3748,3769,3788,3809,3829,3849,3868,3888,3910,3928,3949,3969,3989,4009,4028,4048,4069,4089,4109,4129,4148,4168,4189,4210,4228,4249,4268,4288,4309,4328,4348,4370,4388,4409,4428,4448,4468,4489,4508,4528,4548,4568,4589,4608,4628,4648,4669,4689,4708,4728,4750,4769,4788,4808,4830,4848,4869,4888,4909,4930,4948,4968,4990,5009,5028,5048,5068,5088,5109,5129,5148,5168,5188,5208,5228,5250,5270,5288,5308,5328,5349,5368,5389,5408,5429,5448,5468,5489,5508,5528,5548,5568,5589,5609,5629,5649,5668,5689,5708,5729,5749,5769,5788,5809,5829,5849,5868,5888,5908,5928,5948,5968],"xSR":741.5,"ySR":573.95,"xT1":424.9,"yT1":0,"xT2":1058.1,"yT2":0,"toosoon":0,"cond_shown":"Incongruent","ratio_trial":200,"L_num":3,"L_den":4,"R_num":11,"R_den":20,"correct_side":1,"subjID":"santiagolopezvega31","gender":"0","school":"6","age":"10"},{"start_time":1551880619017,"click_time":1551880621116,"finger_time":1551880620675,"fix_duration":881.7577709292036,"trial":11,"RT":1658,"MT":441,"sideResp":2,"stimulus":[],"xmouse":[804,804,804,804,804,804,804,804,804,804,804,804,804,804,804,804,804,804,804,804,804,804,804,804,804,804,804,804,804,804,804,804,804,804,804,804,804,804,804,804,804,804,804,804,804,804,804,804,804,804,804,804,804,804,804,804,804,804,804,804,804,804,804,804,804,804,804,804,804,804,804,804,804,804,804,804,804,804,804,804,806,812,832,857,893,900,904,911,940,952,970,989,1008,1021,1028,1030,1030,1030,1032,1034,1035,1038,1042,1049,1066],"ymouse":[637,637,637,637,637,637,637,637,637,637,637,637,637,637,637,637,637,637,637,637,637,637,637,637,637,637,637,637,637,637,637,637,637,637,637,637,637,637,637,637,637,637,637,637,637,637,637,637,637,637,637,637,637,637,637,637,637,637,637,637,637,637,637,637,637,637,637,637,637,637,637,637,637,637,637,637,637,637,637,636,625,601,550,479,354,325,298,252,121,98,79,61,45,34,25,23,22,22,20,17,15,14,12,12,12],"timestamp_mouse":[18,38,58,78,98,118,138,159,178,198,218,238,258,278,298,318,339,358,378,399,418,438,459,478,498,518,538,559,578,599,619,639,658,678,699,719,738,758,779,798,819,838,858,879,899,919,939,958,978,999,1018,1038,1059,1078,1099,1118,1138,1159,1180,1199,1218,1238,1258,1278,1298,1318,1339,1358,1378,1399,1419,1439,1458,1478,1499,1518,1539,1558,1578,1598,1618,1639,1658,1678,1699,1719,1739,1759,1779,1799,1819,1838,1858,1878,1899,1919,1939,1958,1979,1998,2018,2039,2058,2079,2099],"xSR":741.5,"ySR":573.95,"xT1":424.9,"yT1":0,"xT2":1058.1,"yT2":0,"toosoon":0,"cond_shown":"Incongruent","ratio_trial":300,"L_num":1,"L_den":2,"R_num":3,"R_den":15,"correct_side":1,"subjID":"santiagolopezvega31","gender":"0","school":"6","age":"10"},{"start_time":1551880622877,"click_time":1551880624356,"finger_time":1551880624115,"fix_duration":901.8566873399315,"trial":12,"RT":1238,"MT":241,"sideResp":1,"stimulus":[],"xmouse":[767,767,767,767,767,767,767,767,767,767,767,767,767,767,767,767,767,767,767,767,767,767,767,767,767,767,767,767,767,767,767,767,767,767,767,767,767,768,768,768,768,768,769,770,770,770,772,773,773,773,773,774,774,774,774,774,774,774,774,773,770,761,758,755,751,746,719,682,639,603,582,557,543,524],"ymouse":[618,618,618,618,618,618,618,618,618,618,618,618,618,618,618,618,618,618,618,618,618,618,618,618,618,618,618,618,618,618,618,618,618,617,616,616,614,612,611,611,611,611,609,608,608,608,606,606,606,606,606,605,605,605,605,605,605,605,605,597,590,568,561,554,547,528,376,280,202,155,127,87,67,44],"timestamp_mouse":[19,48,58,78,99,118,138,158,180,199,219,239,258,279,300,318,338,358,379,399,419,438,458,478,498,518,538,559,579,600,619,640,658,678,698,718,738,758,778,800,819,838,859,879,898,918,938,959,978,999,1019,1038,1058,1079,1098,1118,1139,1160,1178,1198,1219,1238,1258,1278,1299,1318,1338,1359,1378,1398,1418,1438,1458,1479],"xSR":741.5,"ySR":573.95,"xT1":424.9,"yT1":0,"xT2":1058.1,"yT2":0,"toosoon":0,"cond_shown":"Incongruent","ratio_trial":200,"L_num":4,"L_den":30,"R_num":1,"R_den":3,"correct_side":2,"subjID":"santiagolopezvega31","gender":"0","school":"6","age":"10"},{"start_time":1551880626253,"click_time":1551880627356,"finger_time":1551880627036,"fix_duration":1114.3265415908147,"trial":13,"RT":783,"MT":320,"sideResp":1,"stimulus":[],"xmouse":[808,808,808,808,808,808,808,808,808,808,808,808,808,808,808,808,808,808,808,808,808,808,808,808,808,808,808,808,808,808,808,808,808,808,808,808,808,808,804,799,784,762,733,709,655,638,624,610,593,559,548,541,534,513,495,486],"ymouse":[623,623,623,623,623,623,623,623,623,623,623,623,623,623,623,623,623,623,623,623,623,623,623,623,623,623,623,623,623,623,623,623,623,623,623,623,623,623,601,563,514,465,419,384,310,287,267,250,232,207,198,191,180,145,102,67],"timestamp_mouse":[8,34,43,62,82,102,124,142,162,182,202,222,243,262,283,302,322,344,362,382,402,423,442,462,482,503,522,542,563,583,602,622,642,662,683,703,722,742,762,783,802,822,843,863,883,903,923,942,962,982,1003,1022,1042,1062,1082,1103],"xSR":741.5,"ySR":573.95,"xT1":424.9,"yT1":0,"xT2":1058.1,"yT2":0,"toosoon":0,"cond_shown":"Incongruent","ratio_trial":100,"L_num":8,"L_den":16,"R_num":6,"R_den":10,"correct_side":2,"subjID":"santiagolopezvega31","gender":"0","school":"6","age":"10"},{"start_time":1551880630268,"click_time":1551880632116,"finger_time":1551880630416,"fix_duration":610.8421723674103,"trial":14,"RT":148,"MT":1700,"sideResp":2,"stimulus":[],"xmouse":[780,780,780,774,768,763,762,762,762,762,762,762,762,762,763,781,805,834,866,872,873,874,878,880,880,880,880,879,857,849,844,841,841,841,841,837,834,829,826,826,826,826,826,826,826,826,826,826,826,826,826,826,826,826,826,826,826,826,824,821,816,814,811,812,826,843,859,872,893,903,908,918,930,964,981,989,989,989,989,993,1000,1005,1008,1013,1017,1021,1023,1027,1038,1040,1043,1055,1083],"ymouse":[616,616,616,632,647,661,671,677,682,682,682,683,683,683,683,673,660,643,629,625,623,622,619,616,615,615,615,612,603,599,596,595,595,594,594,595,596,598,599,599,599,599,599,599,599,599,599,599,599,599,599,599,599,599,599,599,599,599,599,599,598,597,595,576,534,471,404,343,262,241,226,195,170,128,109,102,102,102,101,98,93,90,88,85,83,81,80,78,76,76,76,76,76],"timestamp_mouse":[9,33,48,67,87,108,127,148,167,188,208,227,248,267,287,307,328,348,367,389,407,428,447,467,488,507,527,548,567,587,607,628,649,667,687,708,728,748,768,788,807,828,849,867,889,908,927,948,968,988,1008,1029,1048,1067,1088,1108,1128,1147,1167,1188,1208,1228,1248,1267,1288,1307,1328,1348,1367,1387,1407,1428,1449,1467,1487,1508,1527,1547,1567,1587,1607,1628,1648,1667,1688,1707,1727,1748,1767,1787,1807,1827,1848],"xSR":741.5,"ySR":573.95,"xT1":424.9,"yT1":0,"xT2":1058.1,"yT2":0,"toosoon":0,"cond_shown":"Congruent","ratio_trial":100,"L_num":9,"L_den":15,"R_num":8,"R_den":16,"correct_side":1,"subjID":"santiagolopezvega31","gender":"0","school":"6","age":"10"},{"start_time":1551880633107,"click_time":1551880633675,"finger_time":1551880633376,"fix_duration":250,"trial":15,"RT":269,"MT":299,"sideResp":1,"stimulus":[],"xmouse":[785,785,785,785,785,785,785,785,785,785,785,785,785,771,752,732,707,704,703,700,696,681,670,659,651,642,590,556,523],"ymouse":[624,624,624,624,624,624,624,624,624,624,624,623,604,550,484,441,399,393,390,386,376,349,331,311,292,264,174,131,93],"timestamp_mouse":[9,28,60,68,89,109,129,149,169,189,210,228,249,269,288,308,328,348,368,390,409,429,448,468,489,508,528,548,568],"xSR":741.5,"ySR":573.95,"xT1":424.9,"yT1":0,"xT2":1058.1,"yT2":0,"toosoon":0,"cond_shown":"Incongruent","ratio_trial":100,"L_num":3,"L_den":6,"R_num":4,"R_den":10,"correct_side":1,"subjID":"santiagolopezvega31","gender":"0","school":"6","age":"10"},{"start_time":1551880635336,"click_time":1551880636235,"finger_time":1551880635715,"fix_duration":838.7433495214667,"trial":16,"RT":379,"MT":520,"sideResp":2,"stimulus":[],"xmouse":[762,762,762,762,762,762,762,762,762,762,762,762,762,762,762,762,762,763,773,789,827,842,857,869,877,890,913,916,917,920,925,933,946,959,973,999,1016,1021,1024,1027,1034,1037,1039,1044,1052,1080],"ymouse":[605,605,605,605,605,605,605,605,605,605,605,605,605,605,605,605,605,605,591,565,494,459,431,404,375,331,206,194,190,186,180,172,160,146,130,103,89,84,79,76,71,68,67,67,67,67],"timestamp_mouse":[1,19,40,61,80,99,119,139,160,180,199,219,240,259,280,299,319,339,360,379,399,419,439,460,480,499,520,540,559,580,599,620,640,659,679,699,719,739,760,780,799,819,839,861,880,899],"xSR":741.5,"ySR":573.95,"xT1":424.9,"yT1":0,"xT2":1058.1,"yT2":0,"toosoon":0,"cond_shown":"Congruent","ratio_trial":300,"L_num":5,"L_den":25,"R_num":6,"R_den":12,"correct_side":2,"subjID":"santiagolopezvega31","gender":"0","school":"6","age":"10"},{"start_time":1551880637268,"click_time":1551880639136,"finger_time":1551880638736,"fix_duration":250,"trial":17,"RT":1468,"MT":400,"sideResp":1,"stimulus":[],"xmouse":[785,785,785,785,785,785,785,785,785,785,785,785,785,785,785,785,785,785,785,785,785,785,785,785,785,785,785,785,785,785,785,785,785,785,785,785,785,785,785,785,785,785,785,785,785,785,785,785,785,785,785,785,785,785,785,785,785,785,785,785,785,785,785,785,785,785,785,785,785,785,785,785,784,779,751,736,726,712,703,665,643,617,594,552,540,535,530,523,514,489,485,484,483,482],"ymouse":[591,591,591,591,591,591,591,591,591,591,591,591,591,591,591,591,591,591,591,591,591,591,591,591,591,591,591,591,591,591,591,591,591,591,591,591,591,591,591,591,591,591,591,591,591,591,591,591,591,591,591,591,591,591,591,591,591,591,591,591,591,591,591,591,591,591,591,591,591,591,591,591,584,573,529,509,492,471,453,372,331,288,257,208,192,183,173,159,144,115,109,106,103,98],"timestamp_mouse":[7,27,47,67,87,108,127,148,168,188,207,227,247,268,287,308,328,348,368,388,408,428,447,468,487,507,527,548,567,588,608,628,648,669,687,707,729,747,767,788,807,827,847,868,887,908,928,947,967,989,1008,1027,1049,1068,1087,1107,1127,1147,1167,1187,1207,1228,1248,1268,1288,1309,1328,1348,1368,1387,1408,1429,1447,1468,1487,1507,1527,1547,1568,1588,1608,1627,1647,1668,1687,1707,1728,1747,1768,1787,1807,1828,1848,1868],"xSR":741.5,"ySR":573.95,"xT1":424.9,"yT1":0,"xT2":1058.1,"yT2":0,"toosoon":0,"cond_shown":"Congruent","ratio_trial":200,"L_num":3,"L_den":6,"R_num":14,"R_den":20,"correct_side":2,"subjID":"santiagolopezvega31","gender":"0","school":"6","age":"10"},{"start_time":1551880640209,"click_time":1551880640975,"finger_time":1551880640816,"fix_duration":250,"trial":18,"RT":607,"MT":159,"sideResp":2,"stimulus":[],"xmouse":[778,778,778,778,778,778,778,782,782,782,782,782,782,782,782,782,782,782,782,782,782,782,782,782,782,782,782,782,786,792,815,857,978,1005,1025,1042,1054,1078,1084],"ymouse":[611,611,611,611,611,611,612,607,607,607,607,607,607,607,607,607,607,607,607,607,607,607,607,607,607,607,607,607,600,589,549,479,312,267,221,183,154,111,94],"timestamp_mouse":[10,31,47,66,86,106,127,147,166,188,206,227,247,268,286,307,326,346,366,386,406,426,446,468,487,507,526,546,567,588,607,627,646,666,688,706,727,746,766],"xSR":741.5,"ySR":573.95,"xT1":424.9,"yT1":0,"xT2":1058.1,"yT2":0,"toosoon":0,"cond_shown":"Congruent","ratio_trial":300,"L_num":4,"L_den":20,"R_num":13,"R_den":26,"correct_side":2,"subjID":"santiagolopezvega31","gender":"0","school":"6","age":"10"},{"start_time":1551880643549,"click_time":1551880647175,"finger_time":1551880646095,"fix_duration":250,"trial":19,"RT":2546,"MT":1080,"sideResp":1,"stimulus":[],"xmouse":[785,785,785,785,785,785,785,785,785,785,785,785,785,785,785,785,785,785,785,785,785,785,785,785,785,785,785,785,785,785,785,785,785,785,785,785,785,785,785,785,785,785,785,785,785,785,785,785,785,785,785,785,785,785,785,785,785,785,785,785,785,785,785,785,785,785,785,785,785,785,785,785,785,785,785,785,785,785,785,785,785,785,785,785,785,785,785,785,785,785,785,785,785,785,785,785,785,785,785,785,785,785,785,785,785,785,785,785,785,785,785,785,785,785,785,785,785,785,785,785,785,785,785,785,785,777,746,709,665,630,622,596,571,530,497,478,478,478,478,479,487,496,497,498,499,501,512,520,528,536,549,565,580,586,593,602,607,611,619,631,651,664,664,664,664,664,665,653,637,619,582,572,561,553,545,540,536,534,531,530,525,505],"ymouse":[637,637,637,637,637,637,637,637,637,637,637,637,637,637,637,637,637,637,637,637,637,637,637,637,637,637,637,637,637,637,637,637,637,637,637,637,637,637,637,637,637,637,637,637,637,637,637,637,637,637,637,637,637,637,637,637,637,637,637,637,637,637,637,637,637,637,637,637,637,637,637,637,637,637,637,637,637,637,637,637,637,637,637,637,637,637,637,637,637,637,637,637,637,637,637,637,637,637,637,637,637,637,637,637,637,637,637,637,637,637,637,637,637,637,637,637,637,637,637,637,637,637,637,637,637,633,620,605,585,562,554,508,460,391,330,297,295,295,295,295,297,301,302,303,306,311,335,349,364,375,394,411,428,434,443,450,453,456,461,468,481,491,491,491,491,491,484,439,379,319,223,199,177,153,126,86,73,65,62,57,49,30],"timestamp_mouse":[12,41,46,67,86,107,126,147,167,186,207,227,246,266,286,307,328,346,366,387,406,426,446,466,486,507,526,546,567,587,606,627,646,666,686,706,726,747,766,787,807,828,846,866,886,906,926,946,966,986,1008,1026,1047,1066,1086,1106,1126,1146,1166,1186,1208,1227,1247,1266,1286,1306,1326,1347,1366,1386,1406,1427,1446,1466,1486,1508,1526,1546,1567,1586,1606,1626,1646,1666,1687,1707,1728,1747,1766,1786,1807,1826,1847,1868,1887,1907,1926,1946,1968,1987,2007,2027,2047,2068,2087,2107,2127,2146,2167,2188,2206,2227,2246,2267,2286,2307,2327,2347,2368,2386,2407,2427,2448,2466,2486,2507,2527,2546,2567,2587,2606,2626,2647,2666,2686,2707,2726,2747,2766,2786,2806,2827,2847,2867,2886,2906,2927,2947,2966,2986,3006,3027,3047,3067,3086,3107,3126,3146,3167,3186,3206,3227,3246,3267,3287,3307,3326,3346,3366,3388,3408,3426,3446,3466,3486,3507,3526,3547,3567,3586,3606,3626],"xSR":741.5,"ySR":573.95,"xT1":424.9,"yT1":0,"xT2":1058.1,"yT2":0,"toosoon":0,"cond_shown":"Congruent","ratio_trial":100,"L_num":11,"L_den":22,"R_num":4,"R_den":10,"correct_side":1,"subjID":"santiagolopezvega31","gender":"0","school":"6","age":"10"},{"start_time":1551880648510,"click_time":1551880651656,"finger_time":1551880649875,"fix_duration":392.5596918151425,"trial":20,"RT":1365,"MT":1781,"sideResp":1,"stimulus":[],"xmouse":[771,771,771,775,775,775,775,775,775,775,775,775,775,775,775,775,775,775,775,775,775,775,775,775,775,775,775,775,775,775,775,775,775,775,775,775,775,775,775,775,775,775,775,775,776,776,776,776,776,776,776,776,776,776,776,776,776,776,776,776,776,776,776,776,776,779,785,808,905,931,937,937,937,937,928,909,887,867,843,841,840,838,836,832,829,826,822,819,815,812,811,810,809,808,807,803,798,794,790,789,789,789,789,789,789,789,789,789,789,789,789,789,789,789,789,789,789,789,789,789,789,789,789,789,789,789,789,789,789,789,789,789,789,789,789,789,789,789,789,789,789,789,779,719,681,641,611,591,568,554,533,522,511,499,486,485,483,477],"ymouse":[615,615,615,615,615,615,615,615,615,615,615,615,615,615,615,615,615,615,615,615,615,615,615,615,615,615,615,615,615,615,615,615,615,615,615,615,615,615,615,615,615,615,615,615,615,615,615,615,615,615,615,615,615,615,615,615,615,615,615,615,615,615,615,615,615,612,604,580,469,440,432,432,432,432,437,445,454,461,470,472,472,474,476,480,483,489,494,502,516,524,534,546,553,564,566,578,594,608,622,623,623,623,623,623,623,623,623,623,623,623,623,623,623,623,623,623,623,623,623,623,623,623,623,623,623,623,623,623,623,623,623,623,623,623,623,623,623,623,623,623,623,624,590,443,374,309,270,246,212,197,174,160,143,126,109,107,102,91],"timestamp_mouse":[9,25,47,65,85,106,126,146,166,186,205,225,245,265,285,305,325,346,365,385,406,426,445,466,486,507,525,545,566,585,606,626,647,666,685,706,727,745,766,785,806,825,846,865,885,906,926,946,965,986,1005,1026,1046,1066,1085,1105,1125,1146,1165,1185,1205,1225,1246,1265,1286,1305,1325,1346,1365,1386,1406,1426,1446,1465,1485,1505,1526,1546,1566,1586,1605,1625,1646,1665,1686,1705,1727,1745,1765,1786,1805,1827,1846,1865,1886,1906,1926,1947,1965,1985,2005,2027,2045,2065,2085,2105,2126,2146,2165,2185,2206,2225,2245,2266,2285,2305,2326,2346,2365,2385,2407,2426,2445,2466,2485,2506,2526,2545,2566,2586,2605,2626,2645,2665,2686,2705,2726,2745,2766,2786,2806,2826,2845,2865,2885,2905,2925,2945,2965,2986,3005,3026,3045,3065,3086,3105,3125,3146],"xSR":741.5,"ySR":573.95,"xT1":424.9,"yT1":0,"xT2":1058.1,"yT2":0,"toosoon":0,"cond_shown":"Incongruent","ratio_trial":100,"L_num":9,"L_den":15,"R_num":13,"R_den":26,"correct_side":1,"subjID":"santiagolopezvega31","gender":"0","school":"6","age":"10"},{"start_time":1551880653119,"click_time":1551880654256,"finger_time":1551880654016,"fix_duration":642.5503587957073,"trial":21,"RT":897,"MT":240,"sideResp":2,"stimulus":[],"xmouse":[796,796,796,796,796,796,796,796,796,796,796,796,796,796,796,796,796,796,796,796,796,796,796,796,796,796,796,796,796,796,798,798,798,798,798,798,798,798,798,798,798,798,801,812,826,841,864,890,986,1019,1044,1053,1057,1057,1057,1057,1064],"ymouse":[603,603,603,603,603,603,603,603,603,603,603,603,603,603,603,603,603,603,603,603,603,603,603,603,603,603,603,603,603,603,603,603,603,603,603,603,603,603,603,603,603,603,602,574,550,519,475,425,255,201,163,142,104,83,61,31,4],"timestamp_mouse":[18,39,57,76,96,116,137,156,177,196,216,237,256,276,296,317,336,357,377,397,416,436,457,477,496,517,537,556,576,597,616,636,657,676,696,716,736,756,776,797,816,837,857,876,897,916,936,957,978,997,1016,1037,1057,1077,1097,1116,1137],"xSR":741.5,"ySR":573.95,"xT1":424.9,"yT1":0,"xT2":1058.1,"yT2":0,"toosoon":0,"cond_shown":"Incongruent","ratio_trial":100,"L_num":2,"L_den":4,"R_num":8,"R_den":20,"correct_side":1,"subjID":"santiagolopezvega31","gender":"0","school":"6","age":"10"},{"start_time":1551880656185,"click_time":1551880658535,"finger_time":1551880657616,"fix_duration":1207.6772832945264,"trial":22,"RT":1431,"MT":919,"sideResp":2,"stimulus":[],"xmouse":[805,805,805,805,807,808,808,808,808,808,808,808,808,808,808,808,808,808,808,808,808,808,808,808,808,808,808,808,808,808,808,808,809,809,809,809,809,809,809,809,809,809,809,809,809,809,809,809,809,809,809,809,809,809,809,809,809,809,809,809,809,809,809,809,809,813,814,818,822,825,840,867,917,943,957,962,962,962,962,962,934,897,882,839,807,762,750,747,746,745,745,745,746,748,748,748,748,748,749,751,775,798,839,957,1051,1216,1250,1267,1270,1275,1284,1285,1286,1286,1286,1276,1219,1122],"ymouse":[655,655,655,658,662,663,663,663,663,663,663,663,663,663,663,663,663,663,663,663,663,663,663,663,663,663,663,663,663,663,663,664,664,664,664,664,664,664,664,664,664,664,664,664,664,664,664,664,664,664,664,664,664,664,664,664,664,664,664,664,664,664,664,664,664,659,650,641,632,624,576,507,387,323,289,271,271,271,271,271,277,291,297,313,325,338,342,344,345,346,351,354,359,362,362,362,362,362,362,364,372,372,363,306,248,121,77,39,12,0,0,0,0,0,0,1,23,50],"timestamp_mouse":[10,40,50,71,90,112,131,150,171,192,211,231,250,270,291,310,331,352,370,391,410,431,450,471,490,512,531,551,571,590,611,631,651,671,690,710,731,751,770,790,811,831,850,871,890,911,930,950,970,991,1011,1032,1050,1070,1091,1111,1131,1151,1172,1191,1210,1230,1251,1270,1291,1310,1331,1350,1371,1391,1410,1431,1450,1470,1490,1510,1530,1550,1570,1591,1610,1630,1650,1671,1692,1710,1731,1751,1770,1790,1811,1830,1850,1871,1892,1911,1931,1950,1970,1991,2011,2031,2050,2072,2090,2110,2131,2150,2170,2190,2211,2230,2250,2270,2291,2310,2331,2350],"xSR":741.5,"ySR":573.95,"xT1":424.9,"yT1":0,"xT2":1058.1,"yT2":0,"toosoon":0,"cond_shown":"Congruent","ratio_trial":300,"L_num":1,"L_den":30,"R_num":8,"R_den":24,"correct_side":2,"subjID":"santiagolopezvega31","gender":"0","school":"6","age":"10"},{"start_time":1551880661207,"click_time":1551880662896,"finger_time":1551880662635,"fix_duration":250,"trial":23,"RT":1428,"MT":261,"sideResp":2,"stimulus":[],"xmouse":[754,754,754,754,754,754,754,754,754,754,754,754,754,760,762,768,771,772,772,772,772,773,776,780,783,785,785,785,785,785,785,785,785,785,785,785,785,785,785,785,785,785,785,785,785,785,785,785,785,785,785,785,785,785,785,785,785,785,785,785,785,785,785,785,785,785,785,785,785,785,796,813,838,868,893,946,979,1016,1053,1091,1124,1128,1131,1135,1144],"ymouse":[619,619,619,619,619,619,619,619,619,619,619,619,619,617,616,614,613,613,613,613,613,613,611,610,609,609,609,609,609,609,609,609,609,609,609,609,609,609,609,609,609,609,609,609,609,609,609,609,609,609,609,609,609,609,609,609,609,609,609,609,609,609,609,609,609,609,609,609,609,609,589,561,523,484,456,401,365,318,268,227,190,174,150,122,88],"timestamp_mouse":[9,45,49,69,88,108,129,149,169,189,208,228,248,268,288,308,329,349,368,389,409,429,450,468,488,508,528,548,569,589,609,628,648,670,688,709,729,749,769,788,808,828,848,870,889,909,929,948,968,988,1008,1028,1049,1068,1089,1109,1128,1148,1168,1188,1208,1228,1249,1270,1288,1308,1328,1348,1369,1388,1409,1428,1450,1468,1488,1508,1528,1548,1568,1589,1608,1628,1649,1670,1689],"xSR":741.5,"ySR":573.95,"xT1":424.9,"yT1":0,"xT2":1058.1,"yT2":0,"toosoon":0,"cond_shown":"Incongruent","ratio_trial":300,"L_num":13,"L_den":26,"R_num":12,"R_den":15,"correct_side":2,"subjID":"santiagolopezvega31","gender":"0","school":"6","age":"10"},{"start_time":1551880665216,"click_time":1551880667076,"finger_time":1551880666796,"fix_duration":1479.7841013630825,"trial":24,"RT":1580,"MT":280,"sideResp":1,"stimulus":[],"xmouse":[810,810,810,810,810,810,810,810,810,810,810,810,810,810,810,810,810,810,810,810,810,810,810,810,810,810,810,810,810,810,810,810,810,810,810,810,810,810,810,810,810,810,810,810,810,810,810,810,810,810,810,810,810,810,810,810,810,810,810,810,810,810,810,810,810,810,810,810,810,810,810,810,810,810,810,807,803,784,752,669,634,605,589,577,565,559,553,546,537,525,516,505,491],"ymouse":[643,643,643,643,643,643,643,643,643,643,643,643,643,643,643,643,643,643,643,643,643,643,643,643,643,643,643,643,643,643,643,643,643,643,643,643,643,643,643,643,643,643,643,643,643,643,643,643,643,643,643,643,643,643,643,643,643,643,643,643,643,643,643,643,643,643,643,643,643,643,643,643,643,643,643,628,616,574,530,426,388,354,329,308,281,268,252,236,215,181,157,126,99],"timestamp_mouse":[22,40,60,80,100,120,140,160,179,201,220,239,279,279,300,319,339,359,379,399,420,439,460,480,500,519,539,560,579,599,619,639,660,679,700,719,739,760,781,799,819,839,860,880,900,919,939,959,980,1000,1019,1040,1059,1080,1099,1119,1140,1160,1180,1199,1219,1239,1260,1279,1299,1320,1339,1359,1380,1399,1420,1440,1459,1479,1499,1519,1539,1559,1580,1599,1620,1639,1659,1680,1699,1719,1740,1760,1781,1799,1819,1839,1860],"xSR":741.5,"ySR":573.95,"xT1":424.9,"yT1":0,"xT2":1058.1,"yT2":0,"toosoon":0,"cond_shown":"Incongruent","ratio_trial":300,"L_num":4,"L_den":20,"R_num":2,"R_den":4,"correct_side":2,"subjID":"santiagolopezvega31","gender":"0","school":"6","age":"10"},{"start_time":1551880668821,"click_time":1551880671255,"finger_time":1551880670915,"fix_duration":1003.8752583998577,"trial":25,"RT":2094,"MT":340,"sideResp":1,"stimulus":[],"xmouse":[778,778,778,778,778,778,778,778,778,778,778,778,778,778,778,778,778,778,778,778,778,778,778,778,778,778,778,778,778,779,780,782,783,783,784,784,784,784,784,784,784,784,784,784,784,784,784,784,784,784,784,784,784,784,784,784,784,784,784,784,784,784,784,784,784,784,784,784,784,784,784,784,784,784,784,784,784,784,784,784,784,784,784,784,784,784,784,784,784,784,784,784,784,784,784,784,784,784,784,784,784,785,784,784,784,784,779,774,770,758,745,729,706,676,562,516,487,469,461,458,466,490],"ymouse":[639,639,639,639,639,639,639,639,639,639,639,639,639,639,639,639,639,639,639,639,639,639,639,639,639,639,639,639,639,637,635,635,634,634,634,634,634,634,634,634,634,634,634,634,634,634,634,634,634,634,634,634,634,634,634,634,634,634,634,634,634,634,634,634,634,634,634,634,634,634,634,634,634,634,634,634,634,634,634,634,634,634,634,634,634,634,634,634,634,634,634,634,634,634,634,634,634,634,634,634,634,628,606,579,525,500,474,464,459,442,429,412,390,361,276,248,232,221,214,192,155,93],"timestamp_mouse":[15,47,54,75,95,115,135,155,174,195,215,234,254,275,296,315,334,355,375,394,414,434,454,475,494,514,534,554,575,595,615,635,654,674,694,714,734,755,774,794,814,834,854,875,895,914,934,954,975,994,1014,1034,1054,1074,1094,1116,1135,1154,1174,1195,1215,1234,1255,1275,1294,1315,1334,1355,1374,1395,1414,1435,1455,1474,1494,1514,1534,1554,1575,1595,1615,1634,1654,1675,1696,1715,1734,1754,1775,1795,1814,1834,1854,1876,1894,1914,1936,1955,1974,1994,2014,2034,2055,2074,2094,2114,2134,2154,2175,2194,2214,2234,2254,2275,2295,2314,2334,2356,2374,2394,2414,2434],"xSR":741.5,"ySR":573.95,"xT1":424.9,"yT1":0,"xT2":1058.1,"yT2":0,"toosoon":0,"cond_shown":"Incongruent","ratio_trial":300,"L_num":3,"L_den":6,"R_num":4,"R_den":20,"correct_side":1,"subjID":"santiagolopezvega31","gender":"0","school":"6","age":"10"},{"start_time":1551880672407,"click_time":1551880674775,"finger_time":1551880674515,"fix_duration":250,"trial":26,"RT":2108,"MT":260,"sideResp":1,"stimulus":[],"xmouse":[768,769,770,771,771,771,771,772,772,772,772,772,772,772,772,772,772,772,772,772,772,772,774,775,775,775,775,775,775,775,775,775,775,775,775,775,775,775,775,775,775,775,775,775,775,775,775,775,775,775,775,775,775,775,775,775,775,775,775,775,775,775,775,775,775,775,775,775,775,775,775,775,775,775,775,775,775,775,775,775,775,775,775,775,775,775,775,775,775,775,775,775,775,775,775,775,775,775,775,775,775,775,776,776,767,735,676,654,639,627,613,583,570,562,551,544,531,525,521],"ymouse":[644,644,644,644,644,644,644,644,644,644,644,644,644,644,644,644,644,644,644,644,644,644,644,644,644,644,644,644,644,644,644,644,644,644,644,644,644,644,644,644,644,644,644,644,644,644,644,644,644,644,644,644,644,644,644,644,644,644,644,644,644,644,644,644,644,644,644,644,644,644,644,644,644,644,644,644,644,644,644,644,644,644,644,644,644,644,644,644,644,644,644,644,644,644,644,644,644,644,644,644,644,644,638,628,596,515,395,343,302,265,226,164,143,127,108,96,74,65,60],"timestamp_mouse":[17,29,56,68,89,109,128,148,168,189,208,228,249,268,288,308,328,348,369,388,408,428,448,468,489,508,529,548,569,588,608,629,648,668,689,708,729,748,769,788,808,829,848,869,889,909,928,948,968,988,1008,1029,1050,1068,1089,1108,1128,1149,1169,1188,1208,1228,1249,1270,1288,1308,1328,1349,1368,1388,1408,1428,1450,1468,1489,1508,1528,1549,1568,1589,1609,1630,1649,1669,1689,1709,1728,1749,1768,1788,1809,1828,1848,1869,1889,1910,1928,1949,1968,1989,2009,2028,2048,2069,2088,2108,2128,2148,2168,2189,2208,2228,2248,2268,2288,2308,2329,2348,2368],"xSR":741.5,"ySR":573.95,"xT1":424.9,"yT1":0,"xT2":1058.1,"yT2":0,"toosoon":0,"cond_shown":"Congruent","ratio_trial":200,"L_num":8,"L_den":15,"R_num":3,"R_den":9,"correct_side":1,"subjID":"santiagolopezvega31","gender":"0","school":"6","age":"10"},{"start_time":1551880676053,"click_time":1551880677735,"finger_time":1551880677396,"fix_duration":317.5999339912299,"trial":27,"RT":1343,"MT":339,"sideResp":1,"stimulus":[],"xmouse":[776,776,776,776,776,776,778,779,779,779,779,779,779,779,779,779,779,779,779,779,779,779,779,779,779,779,779,779,779,779,779,779,779,779,779,779,779,779,779,779,779,779,779,779,779,779,779,779,779,779,779,779,779,779,779,779,779,779,779,779,779,779,779,779,779,773,766,754,733,685,674,660,653,647,643,643,641,637,634,622,602,582,563,545,517],"ymouse":[618,618,618,618,618,618,618,617,617,617,617,617,617,617,617,617,617,617,617,617,617,617,617,617,617,617,617,617,617,617,617,617,617,617,617,617,617,617,617,617,617,617,617,617,617,617,617,617,617,617,617,617,617,617,617,617,617,617,617,617,617,617,617,617,615,607,588,543,470,330,289,239,215,192,158,142,126,112,104,87,69,57,46,38,32],"timestamp_mouse":[10,34,43,62,82,102,122,142,163,184,203,222,242,262,282,303,322,343,364,382,402,422,444,463,482,503,522,542,562,583,602,622,642,662,682,702,722,743,762,783,802,822,842,863,883,902,922,943,963,982,1002,1022,1042,1062,1083,1102,1123,1143,1163,1183,1203,1222,1243,1262,1282,1302,1322,1342,1362,1382,1403,1422,1442,1463,1482,1502,1522,1542,1563,1583,1602,1622,1643,1662,1682],"xSR":741.5,"ySR":573.95,"xT1":424.9,"yT1":0,"xT2":1058.1,"yT2":0,"toosoon":0,"cond_shown":"Incongruent","ratio_trial":300,"L_num":4,"L_den":5,"R_num":8,"R_den":16,"correct_side":1,"subjID":"santiagolopezvega31","gender":"0","school":"6","age":"10"},{"start_time":1551880681279,"click_time":1551880683336,"finger_time":1551880683055,"fix_duration":1341.4873140467998,"trial":28,"RT":1776,"MT":281,"sideResp":1,"stimulus":[],"xmouse":[785,785,785,785,785,785,785,785,785,785,785,785,785,785,785,785,785,785,785,785,785,785,785,785,785,785,785,785,785,785,785,785,785,785,785,785,785,785,785,785,785,785,785,785,785,785,785,785,785,785,785,785,785,785,785,785,785,785,785,785,785,785,785,785,785,785,785,785,785,785,785,785,785,785,785,785,785,785,785,785,785,785,785,785,785,785,785,783,769,748,723,700,675,647,637,627,606,580,544,528,517,509,503],"ymouse":[628,628,628,628,628,628,628,628,628,628,628,628,628,628,628,628,628,628,628,628,628,628,628,628,628,628,628,628,628,628,628,628,628,628,628,628,628,628,628,628,628,628,628,628,628,628,628,628,628,628,628,628,628,628,628,628,628,628,628,628,628,628,628,628,628,628,628,628,628,628,628,628,628,628,628,628,628,628,628,628,628,628,628,628,628,628,628,627,573,522,466,419,377,329,312,296,251,208,153,133,117,106,94],"timestamp_mouse":[17,37,57,76,97,116,136,156,176,196,217,237,256,278,296,318,337,357,378,397,416,436,457,478,496,517,536,557,576,596,616,637,657,676,698,716,736,757,777,797,816,836,856,876,896,916,938,956,976,996,1016,1036,1057,1077,1096,1116,1136,1157,1176,1197,1216,1236,1256,1276,1296,1317,1336,1356,1377,1396,1416,1436,1457,1477,1496,1516,1536,1557,1576,1598,1616,1637,1657,1676,1696,1717,1736,1757,1776,1796,1817,1836,1857,1876,1896,1917,1937,1956,1976,1996,2016,2036,2057],"xSR":741.5,"ySR":573.95,"xT1":424.9,"yT1":0,"xT2":1058.1,"yT2":0,"toosoon":0,"cond_shown":"Congruent","ratio_trial":100,"L_num":8,"L_den":16,"R_num":2,"R_den":5,"correct_side":1,"subjID":"santiagolopezvega31","gender":"0","school":"6","age":"10"},{"start_time":1551880684506,"click_time":1551880685375,"finger_time":1551880685216,"fix_duration":250,"trial":29,"RT":710,"MT":159,"sideResp":1,"stimulus":[],"xmouse":[767,767,767,767,767,767,767,767,767,769,771,772,773,773,773,773,773,773,773,773,773,773,773,773,773,773,773,773,773,773,773,773,773,774,766,750,729,662,625,589,552,517,457,440],"ymouse":[597,597,597,597,597,597,597,597,597,599,601,601,603,603,603,603,603,603,603,603,603,603,603,603,603,603,603,603,603,603,603,603,603,599,584,558,521,418,366,319,266,205,104,81],"timestamp_mouse":[9,36,50,70,90,109,130,149,169,189,210,229,249,270,290,309,329,350,369,389,410,429,449,471,489,509,529,549,569,590,609,629,649,670,689,710,729,749,770,790,809,829,849,869],"xSR":741.5,"ySR":573.95,"xT1":424.9,"yT1":0,"xT2":1058.1,"yT2":0,"toosoon":0,"cond_shown":"Congruent","ratio_trial":200,"L_num":12,"L_den":15,"R_num":6,"R_den":10,"correct_side":1,"subjID":"santiagolopezvega31","gender":"0","school":"6","age":"10"},{"start_time":1551880687580,"click_time":1551880689875,"finger_time":1551880688977,"fix_duration":1163.937657059924,"trial":30,"RT":1397,"MT":898,"sideResp":1,"stimulus":[],"xmouse":[777,777,777,777,777,777,777,777,777,777,777,777,777,777,777,777,777,777,777,777,777,777,777,777,777,777,777,777,777,777,777,777,777,777,777,777,777,777,777,777,777,777,777,777,777,777,777,777,777,777,777,777,777,777,777,777,777,777,777,777,777,777,777,777,777,777,777,780,796,840,872,905,928,945,962,964,965,965,965,965,965,956,937,917,878,867,861,854,837,830,823,817,814,809,801,799,799,799,799,797,784,766,744,728,703,692,677,665,648,647,647,644,631,601,506],"ymouse":[606,606,606,606,606,606,606,606,606,606,606,606,606,606,606,606,606,606,606,606,606,606,606,606,606,606,606,606,606,606,606,606,606,606,606,606,606,606,606,606,606,606,606,606,606,606,606,606,606,606,606,606,606,606,606,606,606,606,606,606,606,606,606,606,606,606,606,605,594,563,535,507,486,472,452,449,448,448,448,448,448,453,460,470,485,490,494,499,524,537,548,558,566,574,588,591,592,592,592,498,400,294,210,158,83,37,0,0,0,0,0,2,13,34,97],"timestamp_mouse":[15,40,56,75,96,116,136,155,175,196,216,236,255,275,295,316,335,356,375,396,416,436,455,475,495,516,536,555,577,595,615,636,655,675,695,715,735,757,775,796,815,836,855,876,895,915,935,956,975,996,1015,1036,1055,1077,1097,1116,1136,1156,1176,1196,1215,1235,1255,1276,1296,1315,1335,1355,1375,1397,1415,1435,1456,1475,1495,1515,1536,1555,1576,1595,1615,1636,1655,1675,1696,1715,1736,1755,1776,1795,1815,1835,1855,1875,1896,1915,1935,1955,1976,1995,2015,2035,2055,2075,2095,2116,2136,2156,2177,2196,2215,2236,2255,2275,2295],"xSR":741.5,"ySR":573.95,"xT1":424.9,"yT1":0,"xT2":1058.1,"yT2":0,"toosoon":0,"cond_shown":"Incongruent","ratio_trial":100,"L_num":2,"L_den":4,"R_num":8,"R_den":20,"correct_side":1,"subjID":"santiagolopezvega31","gender":"0","school":"6","age":"10"},{"start_time":1551880690908,"click_time":1551880692496,"finger_time":1551880691795,"fix_duration":250,"trial":31,"RT":887,"MT":701,"sideResp":2,"stimulus":[],"xmouse":[760,760,760,760,760,760,760,760,760,760,760,760,760,760,760,760,760,760,760,760,760,760,760,760,760,760,760,760,760,760,760,760,760,760,760,760,760,760,760,760,760,762,772,808,856,902,947,985,1034,1042,1049,1054,1068,1094,1103,1108,1110,1110,1110,1110,1112,1111,1109,1104,1103,1102,1102,1102,1102,1102,1102,1102,1102,1102,1102,1102,1102,1102,1102,1102],"ymouse":[625,625,625,625,625,625,625,625,625,625,625,625,625,625,625,625,625,625,625,625,625,625,625,625,625,625,625,625,625,625,625,625,625,625,625,625,625,625,625,625,625,625,623,606,581,557,534,517,491,479,452,438,389,342,324,306,281,254,217,206,192,177,162,145,140,135,126,116,106,106,106,106,106,106,106,104,103,103,101,99],"timestamp_mouse":[8,42,47,67,87,108,127,147,168,188,207,227,247,267,287,308,328,348,367,388,407,427,447,467,487,507,527,548,567,587,607,628,647,667,687,707,727,748,767,788,807,828,847,867,887,907,927,947,967,987,1007,1027,1047,1067,1087,1107,1127,1148,1167,1189,1207,1228,1248,1267,1287,1307,1328,1347,1368,1387,1408,1427,1448,1467,1487,1508,1528,1547,1567,1588],"xSR":741.5,"ySR":573.95,"xT1":424.9,"yT1":0,"xT2":1058.1,"yT2":0,"toosoon":0,"cond_shown":"Congruent","ratio_trial":200,"L_num":7,"L_den":21,"R_num":2,"R_den":15,"correct_side":1,"subjID":"santiagolopezvega31","gender":"0","school":"6","age":"10"},{"start_time":1551880694069,"click_time":1551880695115,"finger_time":1551880694775,"fix_duration":712.2337228668881,"trial":32,"RT":706,"MT":340,"sideResp":1,"stimulus":[],"xmouse":[806,806,806,806,806,806,806,806,806,806,806,806,806,806,806,806,806,806,806,806,806,806,806,806,806,806,806,806,806,806,806,806,806,803,790,736,699,663,637,624,610,602,600,592,589,572,562,553,542,528,496,484,475],"ymouse":[669,669,669,669,669,669,669,669,669,669,669,669,669,669,669,669,669,669,669,669,669,669,669,669,669,669,669,669,669,669,669,669,669,669,661,601,556,515,485,464,416,362,347,313,293,249,225,205,185,165,121,105,90],"timestamp_mouse":[8,38,47,67,86,106,126,146,166,186,206,227,246,266,287,306,327,346,366,387,407,426,448,466,486,506,527,546,567,586,607,627,646,667,687,706,726,747,767,786,807,826,847,867,886,906,926,946,967,987,1007,1026,1046],"xSR":741.5,"ySR":573.95,"xT1":424.9,"yT1":0,"xT2":1058.1,"yT2":0,"toosoon":0,"cond_shown":"Incongruent","ratio_trial":200,"L_num":7,"L_den":15,"R_num":4,"R_den":6,"correct_side":2,"subjID":"santiagolopezvega31","gender":"0","school":"6","age":"10"},{"start_time":1551880696248,"click_time":1551880697575,"finger_time":1551880697415,"fix_duration":250,"trial":33,"RT":1167,"MT":160,"sideResp":2,"stimulus":[],"xmouse":[769,769,769,769,769,769,769,769,769,769,769,769,769,769,769,769,769,769,769,769,769,769,769,769,769,769,769,769,769,769,769,769,769,769,769,769,769,769,769,769,770,771,771,771,771,772,773,774,775,775,775,775,776,776,776,776,776,781,800,833,877,981,1044,1074,1102,1127,1149],"ymouse":[577,577,577,577,577,577,577,577,577,577,577,577,577,577,577,577,577,577,577,577,577,577,577,577,577,577,577,577,577,577,577,577,577,577,577,577,577,577,577,577,577,579,579,580,581,582,585,588,589,589,589,590,591,591,591,591,591,589,573,537,486,351,273,224,162,105,41],"timestamp_mouse":[11,43,47,67,89,109,127,147,167,188,208,228,247,268,287,308,327,348,367,388,408,427,447,467,487,507,527,548,568,589,609,628,648,667,688,708,727,748,768,788,808,828,848,867,887,907,927,948,968,987,1007,1027,1049,1067,1088,1107,1128,1147,1167,1188,1207,1228,1247,1267,1287,1308,1327],"xSR":741.5,"ySR":573.95,"xT1":424.9,"yT1":0,"xT2":1058.1,"yT2":0,"toosoon":0,"cond_shown":"Incongruent","ratio_trial":300,"L_num":4,"L_den":20,"R_num":2,"R_den":4,"correct_side":2,"subjID":"santiagolopezvega31","gender":"0","school":"6","age":"10"},{"start_time":1551880699712,"click_time":1551880701435,"finger_time":1551880701015,"fix_duration":1435.0845563540154,"trial":34,"RT":1303,"MT":420,"sideResp":2,"stimulus":[],"xmouse":[784,784,784,784,784,784,784,784,784,784,784,784,785,785,785,785,785,785,785,785,785,785,785,785,785,785,786,788,791,793,793,793,793,793,793,793,793,793,793,793,793,793,793,793,793,793,793,793,793,793,793,793,793,793,793,793,793,793,793,793,793,793,793,795,805,823,847,884,898,918,937,960,980,997,1011,1013,1017,1028,1038,1051,1053,1054,1054,1054,1056,1058,1060],"ymouse":[613,613,613,613,613,613,613,613,613,613,613,613,613,613,613,613,613,613,613,613,613,613,613,613,613,613,613,605,600,596,595,594,594,594,594,594,594,594,594,594,594,594,594,594,594,594,594,594,594,594,594,594,594,594,594,594,594,594,594,594,594,594,594,594,580,551,506,450,423,378,340,295,254,225,200,195,184,160,138,104,97,95,94,94,91,88,84],"timestamp_mouse":[9,23,43,64,83,104,123,144,165,183,203,223,243,263,284,303,324,344,363,384,403,423,443,464,483,503,523,544,564,585,603,624,643,663,683,703,723,744,763,784,804,823,844,863,884,903,924,943,963,983,1003,1023,1043,1063,1084,1103,1124,1144,1164,1183,1203,1223,1243,1263,1283,1303,1324,1343,1364,1383,1403,1423,1444,1464,1483,1504,1523,1544,1565,1583,1604,1623,1643,1663,1683,1703,1723],"xSR":741.5,"ySR":573.95,"xT1":424.9,"yT1":0,"xT2":1058.1,"yT2":0,"toosoon":0,"cond_shown":"Incongruent","ratio_trial":200,"L_num":14,"L_den":30,"R_num":12,"R_den":18,"correct_side":2,"subjID":"santiagolopezvega31","gender":"0","school":"6","age":"10"},{"start_time":1551880703229,"click_time":1551880706235,"finger_time":1551880705895,"fix_duration":712.8084052464133,"trial":35,"RT":2666,"MT":340,"sideResp":2,"stimulus":[],"xmouse":[763,763,763,763,763,763,763,763,763,763,763,763,763,763,763,763,763,763,763,763,763,763,763,763,763,763,763,763,763,763,763,763,763,763,763,763,763,763,763,763,763,763,763,763,763,763,763,763,763,763,763,763,763,763,763,763,763,763,763,763,763,763,763,763,763,763,763,763,763,763,763,763,763,763,763,763,763,763,763,763,763,763,763,763,763,763,763,763,763,763,763,763,763,763,763,763,763,763,763,763,763,763,763,763,763,763,763,763,763,763,763,763,763,763,763,763,763,763,763,763,763,763,763,763,763,763,763,763,763,763,763,767,800,863,989,1040,1063,1069,1062,1060,1060,1063,1067,1069,1069,1069,1069,1069,1069,1075,1080],"ymouse":[624,624,624,624,624,624,624,624,624,624,624,624,624,624,624,624,624,624,624,624,624,624,624,624,624,624,624,624,624,624,624,624,624,624,624,624,624,624,624,624,624,624,624,624,624,624,624,624,624,624,624,624,624,624,624,624,624,624,624,624,624,624,624,624,624,624,624,624,624,624,624,624,624,624,624,624,624,624,624,624,624,624,624,624,624,624,624,624,624,624,624,624,624,624,624,624,624,624,624,624,624,624,624,624,624,624,624,624,624,624,624,624,624,624,624,624,624,624,624,624,624,624,624,624,624,624,624,624,624,624,624,624,590,531,406,354,321,300,269,263,256,247,237,227,196,171,151,136,125,103,91],"timestamp_mouse":[9,27,46,73,86,107,126,147,166,187,206,226,246,267,288,306,326,346,367,387,406,426,448,467,486,506,526,546,567,588,606,626,647,666,686,706,727,747,766,786,807,826,846,866,886,906,927,948,967,987,1006,1027,1046,1067,1086,1107,1127,1147,1166,1187,1206,1226,1248,1267,1286,1306,1326,1346,1366,1386,1407,1427,1446,1467,1488,1508,1527,1547,1566,1586,1606,1627,1646,1667,1686,1706,1728,1746,1768,1786,1807,1826,1848,1866,1887,1908,1926,1946,1968,1987,2006,2026,2046,2067,2087,2106,2127,2148,2167,2186,2206,2226,2248,2267,2286,2306,2327,2347,2367,2386,2407,2426,2446,2469,2487,2506,2527,2546,2568,2586,2606,2626,2646,2666,2686,2706,2727,2746,2767,2786,2806,2826,2846,2867,2886,2906,2927,2946,2966,2986,3006],"xSR":741.5,"ySR":573.95,"xT1":424.9,"yT1":0,"xT2":1058.1,"yT2":0,"toosoon":0,"cond_shown":"Incongruent","ratio_trial":300,"L_num":13,"L_den":26,"R_num":12,"R_den":15,"correct_side":2,"subjID":"santiagolopezvega31","gender":"0","school":"6","age":"10"},{"start_time":1551880710204,"click_time":1551880712055,"finger_time":1551880711815,"fix_duration":1486.5712528673682,"trial":36,"RT":1611,"MT":240,"sideResp":1,"stimulus":[],"xmouse":[778,778,778,778,778,778,778,778,778,778,778,778,778,778,778,778,778,778,778,778,778,778,778,778,778,778,778,778,778,778,778,778,778,778,778,778,778,778,778,778,778,778,778,778,778,778,778,778,778,778,778,778,778,778,778,778,778,778,778,778,778,778,778,778,778,778,778,778,778,778,778,778,778,778,778,778,778,778,767,743,627,560,517,498,484,455,437,426,424,424,425,428,433],"ymouse":[619,619,619,619,619,619,619,619,619,619,619,619,619,619,619,619,619,619,619,619,619,619,619,619,619,619,619,619,619,619,619,619,619,619,619,619,619,619,619,619,619,619,619,619,619,619,619,619,619,619,619,619,619,619,619,619,619,619,619,619,619,619,619,619,619,619,619,619,619,619,619,619,619,619,619,619,619,619,606,584,513,470,435,403,368,280,242,215,186,164,120,106,95],"timestamp_mouse":[11,32,52,74,92,111,131,152,172,192,212,231,252,271,291,312,331,351,373,391,411,431,451,473,491,511,531,551,571,592,612,631,651,672,691,711,731,752,771,791,812,831,851,871,892,911,931,952,972,993,1011,1032,1052,1072,1091,1111,1131,1151,1172,1191,1212,1232,1251,1271,1291,1312,1331,1351,1371,1391,1412,1431,1452,1471,1491,1511,1531,1551,1571,1591,1611,1631,1651,1672,1691,1711,1732,1751,1772,1791,1811,1831,1851],"xSR":741.5,"ySR":573.95,"xT1":424.9,"yT1":0,"xT2":1058.1,"yT2":0,"toosoon":0,"cond_shown":"Congruent","ratio_trial":300,"L_num":20,"L_den":25,"R_num":13,"R_den":26,"correct_side":1,"subjID":"santiagolopezvega31","gender":"0","school":"6","age":"10"},{"start_time":1551880713068,"click_time":1551880716635,"finger_time":1551880716216,"fix_duration":372.4135057457064,"trial":37,"RT":3148,"MT":419,"sideResp":1,"stimulus":[],"xmouse":[774,774,774,774,774,774,774,774,774,774,774,774,774,774,774,774,774,774,774,774,774,774,774,774,774,774,774,774,774,774,774,774,774,774,774,774,774,774,774,774,774,774,774,774,774,774,774,774,774,774,774,774,774,774,774,774,774,774,774,774,774,774,774,774,774,774,774,774,774,774,774,774,774,774,774,774,774,774,774,774,774,774,774,774,774,774,774,774,774,774,774,774,774,774,774,774,774,774,774,774,774,774,774,774,774,774,774,774,774,774,774,774,774,774,774,774,774,774,774,774,774,774,774,774,774,774,774,774,774,774,774,774,774,774,774,774,774,780,798,806,808,808,808,808,808,808,808,808,808,808,808,808,808,808,808,806,802,783,770,757,741,711,577,519,465,420,400,370,356,353,353,353,355,361,371,383,391,402,440],"ymouse":[617,617,617,617,617,617,617,617,617,617,617,617,617,617,617,617,617,617,617,617,617,617,617,617,617,617,617,617,617,617,617,617,617,617,617,617,617,617,617,617,617,617,617,617,617,617,617,617,617,617,617,617,617,617,617,617,617,617,617,617,617,617,617,617,617,617,617,617,617,617,617,617,617,617,617,617,617,617,617,617,617,617,617,617,617,617,617,617,617,617,617,617,617,617,617,617,617,617,617,617,617,617,617,617,617,617,617,617,617,617,617,617,617,617,617,617,617,617,617,617,617,617,617,617,617,617,617,617,617,617,617,617,617,617,617,617,617,619,627,632,633,633,633,633,633,633,633,633,633,633,633,633,633,633,633,626,611,570,552,532,503,462,276,197,118,46,11,0,0,0,0,0,0,0,11,31,54,72,91],"timestamp_mouse":[8,44,47,68,88,107,128,147,167,187,207,229,248,268,288,307,327,349,367,387,408,427,448,469,488,507,527,547,568,588,609,627,647,668,687,709,727,747,767,787,807,828,847,868,888,907,928,948,967,987,1007,1028,1048,1068,1088,1107,1128,1147,1167,1189,1208,1228,1248,1269,1288,1307,1327,1348,1367,1387,1408,1428,1448,1467,1487,1507,1528,1547,1568,1587,1607,1627,1647,1667,1688,1707,1728,1747,1769,1787,1807,1827,1847,1867,1888,1907,1928,1947,1967,1987,2008,2027,2049,2068,2088,2107,2127,2147,2167,2187,2209,2227,2248,2267,2287,2308,2327,2347,2368,2389,2407,2427,2448,2467,2487,2508,2528,2547,2567,2587,2607,2628,2648,2667,2687,2707,2727,2747,2767,2788,2807,2828,2847,2868,2887,2907,2928,2949,2967,2987,3007,3027,3047,3068,3087,3108,3127,3148,3167,3188,3207,3227,3248,3267,3287,3307,3328,3347,3368,3387,3407,3427,3447,3468,3487,3508,3527,3548,3567],"xSR":741.5,"ySR":573.95,"xT1":424.9,"yT1":0,"xT2":1058.1,"yT2":0,"toosoon":