[{"start_time":1551891701470,"click_time":1551891704305,"finger_time":1551891703367,"fix_duration":441.6537014532063,"trial":0,"RT":1897,"MT":938,"sideResp":2,"stimulus":"img/750/equaldotsize/R/7_Ratio_750_L_3_R_4.png","xmouse":[815,815,815,815,815,815,815,815,815,815,815,815,815,815,815,815,815,815,815,815,815,815,815,815,815,815,815,815,815,815,815,815,815,815,815,815,815,815,815,815,815,815,815,815,815,815,815,815,815,815,815,815,815,815,815,815,815,815,815,815,815,815,815,815,815,815,815,815,815,815,815,815,815,815,815,815,815,815,815,815,815,815,815,815,815,815,815,815,815,815,815,815,815,831,858,886,933,953,964,968,977,985,997,1008,1018,1023,1026,1031,1036,1046,1078,1091,1095,1096,1099,1122,1130,1133,1133,1128,1122,1117,1117,1116,1115,1108,1101,1095,1089,1086,1085,1084,1084,1083,1083,1083,1083,1083,1083,1084,1086,1086],"ymouse":[526,526,526,526,526,526,526,526,526,526,526,526,526,526,526,526,526,526,526,526,526,526,526,526,526,526,526,526,526,526,526,526,526,526,526,526,526,526,526,526,526,526,526,526,526,526,526,526,526,526,526,526,526,526,526,526,526,526,526,526,526,526,526,526,526,526,526,526,526,526,526,526,526,526,526,526,526,526,526,526,526,526,526,526,526,526,526,526,526,526,526,526,526,523,517,513,510,510,510,508,500,490,475,458,434,417,409,398,389,379,361,355,352,351,347,311,289,268,247,229,215,203,203,201,198,189,182,177,171,167,159,156,153,150,147,139,136,131,127,120,105,98],"timestamp_mouse":[15,36,56,75,95,115,136,156,175,196,215,236,256,276,296,316,335,355,376,396,415,436,456,475,496,516,536,556,576,596,617,635,655,676,695,715,736,757,776,795,816,836,856,875,897,915,935,956,976,996,1015,1036,1056,1075,1095,1116,1137,1156,1175,1195,1216,1236,1256,1276,1295,1316,1335,1355,1376,1396,1415,1436,1455,1476,1495,1515,1536,1555,1575,1596,1615,1635,1655,1675,1696,1715,1735,1756,1776,1795,1815,1835,1855,1876,1897,1916,1935,1955,1976,1996,2016,2035,2055,2075,2097,2115,2135,2156,2175,2195,2215,2235,2255,2275,2295,2315,2335,2355,2375,2395,2415,2435,2456,2475,2496,2516,2535,2555,2576,2596,2615,2635,2656,2675,2695,2716,2735,2755,2776,2796,2816,2835],"xSR":741.5,"ySR":469.95,"xT1":424.9,"yT1":0,"xT2":1058.1,"yT2":0,"toosoon":0,"cond_shown":"equaldotsize","ratio_trial":750,"smaller_num":"3","larger_num":"4","correct_side":2,"subjID":"SANTIAGOMORALESPRIETO","gender":"0","age":"11","school":"6","test":{"fix_dur":[250,1500],"timestim":300,"targets_dim":[100,100],"targets_relative_coord":[0.3,0.7],"size_stim":[880,420],"start_dim":[100,100],"size_start":[300,300],"size_fix":60,"samplingrate":20,"img_types":["equaldotsize","equaldotanddens","randomdotsizeEA"],"ratios":[250,500,750,900],"rep_conds":9,"nTrials":120,"trials_to_rest":500,"Trials_order":[66,70,54,13,4,24,2,93,85,1,84,67,60,90,35,91,7,118,104,80,97,37,95,6,33,107,108,44,81,23,21,48,58,22,62,34,96,8,106,57,117,27,73,119,82,59,103,115,46,50,69,15,102,87,55,56,109,17,63,9,78,31,76,105,110,112,114,116,94,41,12,75,11,30,88,98,42,51,89,28,77,20,101,39,26,43,52,16,100,5,25,10,86,79,3,99,14,0,53,92,47,71,45,64,111,32,38,113,18,19,49,61,72,83,36,65,68,40,74,29],"cond_shown":["equaldotsize","equaldotanddens","equaldotsize","equaldotanddens","equaldotanddens","equaldotsize","randomdotsizeEA","equaldotsize","equaldotanddens","equaldotanddens","equaldotsize","equaldotanddens","equaldotsize","equaldotsize","randomdotsizeEA","equaldotanddens","equaldotanddens","equaldotanddens","randomdotsizeEA","randomdotsizeEA","equaldotanddens","equaldotanddens","randomdotsizeEA","equaldotsize","equaldotsize","randomdotsizeEA","equaldotsize","randomdotsizeEA","equaldotsize","randomdotsizeEA","equaldotsize","equaldotsize","equaldotanddens","equaldotanddens","randomdotsizeEA","equaldotanddens","equaldotsize","randomdotsizeEA","equaldotanddens","equaldotsize","equaldotsize","equaldotsize","equaldotanddens","randomdotsizeEA","equaldotanddens","randomdotsizeEA","equaldotanddens","equaldotanddens","equaldotanddens","randomdotsizeEA","equaldotsize","equaldotsize","equaldotsize","equaldotsize","equaldotanddens","randomdotsizeEA","equaldotanddens","randomdotsizeEA","equaldotsize","equaldotsize","equaldotsize","equaldotanddens","equaldotanddens","equaldotsize","randomdotsizeEA","equaldotanddens","equaldotsize","randomdotsizeEA","equaldotanddens","randomdotsizeEA","equaldotsize","equaldotsize","randomdotsizeEA","equaldotsize","equaldotanddens","randomdotsizeEA","equaldotsize","equaldotsize","randomdotsizeEA","equaldotanddens","randomdotsizeEA","randomdotsizeEA","randomdotsizeEA","equaldotsize","randomdotsizeEA","equaldotanddens","equaldotanddens","equaldotanddens","equaldotanddens","randomdotsizeEA","equaldotanddens","equaldotanddens","randomdotsizeEA","equaldotanddens","equaldotsize","equaldotsize","randomdotsizeEA","equaldotsize","randomdotsizeEA","randomdotsizeEA","randomdotsizeEA","randomdotsizeEA","equaldotsize","equaldotanddens","equaldotsize","randomdotsizeEA","randomdotsizeEA","randomdotsizeEA","equaldotsize","equaldotanddens","equaldotanddens","equaldotanddens","equaldotsize","randomdotsizeEA","equaldotsize","randomdotsizeEA","randomdotsizeEA","equaldotanddens","randomdotsizeEA","randomdotsizeEA"],"ratio_trial":[750,900,750,250,500,250,250,900,250,250,250,750,250,750,900,750,750,900,750,750,250,250,900,750,900,900,250,750,900,900,900,250,900,900,250,900,250,750,900,900,900,500,250,900,900,900,750,750,900,250,900,500,750,500,750,750,250,500,500,900,750,750,500,900,250,500,750,750,900,500,250,500,900,750,500,250,750,500,500,500,500,750,500,500,250,750,500,500,500,500,250,900,250,750,500,500,250,250,500,750,900,900,900,500,500,750,250,500,750,750,250,250,250,900,250,500,750,500,250,500],"smaller_num":["3","18","3","2","2","3","3","18","2","1","3","6","6","6","18","6","15","9","18","6","5","2","18","3","18","18","3","6","9","18","18","6","9","18","4","18","3","15","18","9","9","6","4","18","18","9","15","3","18","3","18","1","15","10","6","18","4","1","6","9","6","3","2","18","3","2","6","3","18","4","2","3","18","6","2","4","3","10","9","2","2","6","10","4","2","6","4","3","2","6","3","18","1","3","6","5","4","2","9","3","9","9","18","9","6","3","4","6","6","3","2","2","4","18","2","9","9","1","5","1"],"larger_num":["4","20","4","8","4","12","12","20","8","4","12","8","24","8","20","8","20","10","24","8","20","8","20","4","20","20","12","8","10","20","20","24","10","20","16","20","12","20","20","10","10","12","16","20","20","10","20","4","20","12","20","2","20","20","8","24","16","2","12","10","8","4","4","20","12","4","8","4","20","8","8","6","20","8","4","16","4","20","18","4","4","8","20","8","8","8","8","6","4","12","12","20","4","4","12","10","16","8","18","4","10","10","20","18","12","4","16","12","8","4","8","8","16","20","8","18","12","2","20","2"],"correct_side":[2,1,1,1,1,1,1,1,1,2,2,1,1,2,1,1,2,2,1,1,2,2,2,2,2,2,1,1,2,1,2,1,2,1,2,2,2,2,1,2,1,1,1,2,1,2,2,1,2,2,1,2,2,2,1,1,1,2,1,1,1,2,2,1,1,1,1,1,1,1,1,2,2,2,2,2,1,2,2,1,1,1,2,1,2,2,1,2,1,1,2,2,2,2,1,1,1,1,2,1,2,2,2,2,1,1,1,1,1,1,1,1,1,2,1,2,2,2,2,2],"img_shown":["img/750/equaldotsize/R/7_Ratio_750_L_3_R_4.png","img/900/equaldotanddens/L/10_Ratio_900_L_20_R_18.png","img/750/equaldotsize/L/10_Ratio_750_L_4_R_3.png","img/250/equaldotanddens/L/7_Ratio_250_L_8_R_2.png","img/500/equaldotanddens/L/10_Ratio_500_L_4_R_2.png","img/250/equaldotsize/L/15_Ratio_250_L_12_R_3.png","img/250/randomdotsizeEA/L/14_Ratio_250_L_12_R_3.png","img/900/equaldotsize/L/2_Ratio_900_L_20_R_18.png","img/250/equaldotanddens/L/3_Ratio_250_L_8_R_2.png","img/250/equaldotanddens/R/8_Ratio_250_L_1_R_4.png","img/250/equaldotsize/R/4_Ratio_250_L_3_R_12.png","img/750/equaldotanddens/L/14_Ratio_750_L_8_R_6.png","img/250/equaldotsize/L/5_Ratio_250_L_24_R_6.png","img/750/equaldotsize/R/2_Ratio_750_L_6_R_8.png","img/900/randomdotsizeEA/L/4_Ratio_900_L_20_R_18.png","img/750/equaldotanddens/L/13_Ratio_750_L_8_R_6.png","img/750/equaldotanddens/R/5_Ratio_750_L_15_R_20.png","img/900/equaldotanddens/R/7_Ratio_900_L_9_R_10.png","img/750/randomdotsizeEA/L/6_Ratio_750_L_24_R_18.png","img/750/randomdotsizeEA/L/13_Ratio_750_L_8_R_6.png","img/250/equaldotanddens/R/12_Ratio_250_L_5_R_20.png","img/250/equaldotanddens/R/13_Ratio_250_L_2_R_8.png","img/900/randomdotsizeEA/R/9_Ratio_900_L_18_R_20.png","img/750/equaldotsize/R/12_Ratio_750_L_3_R_4.png","img/900/equaldotsize/R/12_Ratio_900_L_18_R_20.png","img/900/randomdotsizeEA/R/11_Ratio_900_L_18_R_20.png","img/250/equaldotsize/L/15_Ratio_250_L_12_R_3.png","img/750/randomdotsizeEA/L/13_Ratio_750_L_8_R_6.png","img/900/equaldotsize/R/6_Ratio_900_L_9_R_10.png","img/900/randomdotsizeEA/L/2_Ratio_900_L_20_R_18.png","img/900/equaldotsize/R/13_Ratio_900_L_18_R_20.png","img/250/equaldotsize/L/5_Ratio_250_L_24_R_6.png","img/900/equaldotanddens/R/5_Ratio_900_L_9_R_10.png","img/900/equaldotanddens/L/10_Ratio_900_L_20_R_18.png","img/250/randomdotsizeEA/R/10_Ratio_250_L_4_R_16.png","img/900/equaldotanddens/R/9_Ratio_900_L_18_R_20.png","img/250/equaldotsize/R/9_Ratio_250_L_3_R_12.png","img/750/randomdotsizeEA/R/4_Ratio_750_L_15_R_20.png","img/900/equaldotanddens/L/2_Ratio_900_L_20_R_18.png","img/900/equaldotsize/R/15_Ratio_900_L_9_R_10.png","img/900/equaldotsize/L/1_Ratio_900_L_10_R_9.png","img/500/equaldotsize/L/11_Ratio_500_L_12_R_6.png","img/250/equaldotanddens/L/2_Ratio_250_L_16_R_4.png","img/900/randomdotsizeEA/R/11_Ratio_900_L_18_R_20.png","img/900/equaldotanddens/L/8_Ratio_900_L_20_R_18.png","img/900/randomdotsizeEA/R/15_Ratio_900_L_9_R_10.png","img/750/equaldotanddens/R/5_Ratio_750_L_15_R_20.png","img/750/equaldotanddens/L/8_Ratio_750_L_4_R_3.png","img/900/equaldotanddens/R/13_Ratio_900_L_18_R_20.png","img/250/randomdotsizeEA/R/11_Ratio_250_L_3_R_12.png","img/900/equaldotsize/L/10_Ratio_900_L_20_R_18.png","img/500/equaldotsize/R/12_Ratio_500_L_1_R_2.png","img/750/equaldotsize/R/3_Ratio_750_L_15_R_20.png","img/500/equaldotsize/R/3_Ratio_500_L_10_R_20.png","img/750/equaldotanddens/L/13_Ratio_750_L_8_R_6.png","img/750/randomdotsizeEA/L/6_Ratio_750_L_24_R_18.png","img/250/equaldotanddens/L/2_Ratio_250_L_16_R_4.png","img/500/randomdotsizeEA/R/15_Ratio_500_L_1_R_2.png","img/500/equaldotsize/L/11_Ratio_500_L_12_R_6.png","img/900/equaldotsize/L/1_Ratio_900_L_10_R_9.png","img/750/equaldotsize/L/14_Ratio_750_L_8_R_6.png","img/750/equaldotanddens/R/12_Ratio_750_L_3_R_4.png","img/500/equaldotanddens/R/9_Ratio_500_L_2_R_4.png","img/900/equaldotsize/L/4_Ratio_900_L_20_R_18.png","img/250/randomdotsizeEA/L/14_Ratio_250_L_12_R_3.png","img/500/equaldotanddens/L/5_Ratio_500_L_4_R_2.png","img/750/equaldotsize/L/13_Ratio_750_L_8_R_6.png","img/750/randomdotsizeEA/L/10_Ratio_750_L_4_R_3.png","img/900/equaldotanddens/L/4_Ratio_900_L_20_R_18.png","img/500/randomdotsizeEA/L/8_Ratio_500_L_8_R_4.png","img/250/equaldotsize/L/1_Ratio_250_L_8_R_2.png","img/500/equaldotsize/R/2_Ratio_500_L_3_R_6.png","img/900/randomdotsizeEA/R/13_Ratio_900_L_18_R_20.png","img/750/equaldotsize/R/2_Ratio_750_L_6_R_8.png","img/500/equaldotanddens/R/9_Ratio_500_L_2_R_4.png","img/250/randomdotsizeEA/R/10_Ratio_250_L_4_R_16.png","img/750/equaldotsize/L/9_Ratio_750_L_4_R_3.png","img/500/equaldotsize/R/3_Ratio_500_L_10_R_20.png","img/500/randomdotsizeEA/R/1_Ratio_500_L_9_R_18.png","img/500/equaldotanddens/L/10_Ratio_500_L_4_R_2.png","img/500/randomdotsizeEA/L/5_Ratio_500_L_4_R_2.png","img/750/randomdotsizeEA/L/14_Ratio_750_L_8_R_6.png","img/500/randomdotsizeEA/R/3_Ratio_500_L_10_R_20.png","img/500/equaldotsize/L/8_Ratio_500_L_8_R_4.png","img/250/randomdotsizeEA/R/13_Ratio_250_L_2_R_8.png","img/750/equaldotanddens/R/2_Ratio_750_L_6_R_8.png","img/500/equaldotanddens/L/8_Ratio_500_L_8_R_4.png","img/500/equaldotanddens/R/2_Ratio_500_L_3_R_6.png","img/500/equaldotanddens/L/10_Ratio_500_L_4_R_2.png","img/500/randomdotsizeEA/L/13_Ratio_500_L_12_R_6.png","img/250/equaldotanddens/R/4_Ratio_250_L_3_R_12.png","img/900/equaldotanddens/R/14_Ratio_900_L_18_R_20.png","img/250/randomdotsizeEA/R/8_Ratio_250_L_1_R_4.png","img/750/equaldotanddens/R/12_Ratio_750_L_3_R_4.png","img/500/equaldotsize/L/11_Ratio_500_L_12_R_6.png","img/500/equaldotsize/L/7_Ratio_500_L_10_R_5.png","img/250/randomdotsizeEA/L/2_Ratio_250_L_16_R_4.png","img/250/equaldotsize/L/1_Ratio_250_L_8_R_2.png","img/500/randomdotsizeEA/R/1_Ratio_500_L_9_R_18.png","img/750/randomdotsizeEA/L/8_Ratio_750_L_4_R_3.png","img/900/randomdotsizeEA/R/15_Ratio_900_L_9_R_10.png","img/900/randomdotsizeEA/R/6_Ratio_900_L_9_R_10.png","img/900/equaldotsize/R/11_Ratio_900_L_18_R_20.png","img/500/equaldotanddens/R/1_Ratio_500_L_9_R_18.png","img/500/equaldotsize/L/13_Ratio_500_L_12_R_6.png","img/750/randomdotsizeEA/L/10_Ratio_750_L_4_R_3.png","img/250/randomdotsizeEA/L/2_Ratio_250_L_16_R_4.png","img/500/randomdotsizeEA/L/11_Ratio_500_L_12_R_6.png","img/750/equaldotsize/L/13_Ratio_750_L_8_R_6.png","img/750/equaldotanddens/L/8_Ratio_750_L_4_R_3.png","img/250/equaldotanddens/L/1_Ratio_250_L_8_R_2.png","img/250/equaldotanddens/L/1_Ratio_250_L_8_R_2.png","img/250/equaldotsize/L/2_Ratio_250_L_16_R_4.png","img/900/randomdotsizeEA/R/9_Ratio_900_L_18_R_20.png","img/250/equaldotsize/L/3_Ratio_250_L_8_R_2.png","img/500/randomdotsizeEA/R/1_Ratio_500_L_9_R_18.png","img/750/randomdotsizeEA/R/15_Ratio_750_L_9_R_12.png","img/500/equaldotanddens/R/12_Ratio_500_L_1_R_2.png","img/250/randomdotsizeEA/R/12_Ratio_250_L_5_R_20.png","img/500/randomdotsizeEA/R/12_Ratio_500_L_1_R_2.png"],"Rat0":[["12_Ratio_0_L_9_R_0.png","13_Ratio_0_L_6_R_0.png","5_Ratio_0_L_2_R_0.png","6_Ratio_0_L_4_R_0.png","8_Ratio_0_L_6_R_0.png"],["1_Ratio_0_L_0_R_17.png","10_Ratio_0_L_0_R_22.png","11_Ratio_0_L_0_R_1.png","14_Ratio_0_L_0_R_24.png","15_Ratio_0_L_0_R_4.png","2_Ratio_0_L_0_R_5.png","3_Ratio_0_L_0_R_17.png","4_Ratio_0_L_0_R_7.png","7_Ratio_0_L_0_R_19.png","9_Ratio_0_L_0_R_15.png"]],"Rat250":[["1_Ratio_250_L_8_R_2.png","14_Ratio_250_L_12_R_3.png","15_Ratio_250_L_12_R_3.png","2_Ratio_250_L_16_R_4.png","3_Ratio_250_L_8_R_2.png","5_Ratio_250_L_24_R_6.png","7_Ratio_250_L_8_R_2.png"],["10_Ratio_250_L_4_R_16.png","11_Ratio_250_L_3_R_12.png","12_Ratio_250_L_5_R_20.png","13_Ratio_250_L_2_R_8.png","4_Ratio_250_L_3_R_12.png","6_Ratio_250_L_6_R_24.png","8_Ratio_250_L_1_R_4.png","9_Ratio_250_L_3_R_12.png"]],"Rat500":[["10_Ratio_500_L_4_R_2.png","11_Ratio_500_L_12_R_6.png","13_Ratio_500_L_12_R_6.png","4_Ratio_500_L_18_R_9.png","5_Ratio_500_L_4_R_2.png","7_Ratio_500_L_10_R_5.png","8_Ratio_500_L_8_R_4.png"],["1_Ratio_500_L_9_R_18.png","12_Ratio_500_L_1_R_2.png","14_Ratio_500_L_5_R_10.png","15_Ratio_500_L_1_R_2.png","2_Ratio_500_L_3_R_6.png","3_Ratio_500_L_10_R_20.png","6_Ratio_500_L_9_R_18.png","9_Ratio_500_L_2_R_4.png"]],"Rat750":[["1_Ratio_750_L_20_R_15.png","10_Ratio_750_L_4_R_3.png","13_Ratio_750_L_8_R_6.png","14_Ratio_750_L_8_R_6.png","6_Ratio_750_L_24_R_18.png","8_Ratio_750_L_4_R_3.png","9_Ratio_750_L_4_R_3.png"],["11_Ratio_750_L_12_R_16.png","12_Ratio_750_L_3_R_4.png","15_Ratio_750_L_9_R_12.png","2_Ratio_750_L_6_R_8.png","3_Ratio_750_L_15_R_20.png","4_Ratio_750_L_15_R_20.png","5_Ratio_750_L_15_R_20.png","7_Ratio_750_L_3_R_4.png"]],"Rat900":[["1_Ratio_900_L_10_R_9.png","10_Ratio_900_L_20_R_18.png","2_Ratio_900_L_20_R_18.png","4_Ratio_900_L_20_R_18.png","8_Ratio_900_L_20_R_18.png"],["11_Ratio_900_L_18_R_20.png","12_Ratio_900_L_18_R_20.png","13_Ratio_900_L_18_R_20.png","14_Ratio_900_L_18_R_20.png","15_Ratio_900_L_9_R_10.png","3_Ratio_900_L_9_R_10.png","5_Ratio_900_L_9_R_10.png","6_Ratio_900_L_9_R_10.png","7_Ratio_900_L_9_R_10.png","9_Ratio_900_L_18_R_20.png"]],"Rat1000":[["10_Ratio_1000_L_16_R_16.png","11_Ratio_1000_L_6_R_6.png","12_Ratio_1000_L_14_R_14.png","13_Ratio_1000_L_20_R_20.png","15_Ratio_1000_L_15_R_15.png","2_Ratio_1000_L_17_R_17.png","4_Ratio_1000_L_9_R_9.png","5_Ratio_1000_L_6_R_6.png","6_Ratio_1000_L_19_R_19.png","8_Ratio_1000_L_14_R_14.png","9_Ratio_1000_L_25_R_25.png"],["1_Ratio_1000_L_1_R_1.png","14_Ratio_1000_L_17_R_17.png","3_Ratio_1000_L_17_R_17.png","7_Ratio_1000_L_6_R_6.png"]]}},{"start_time":1551891707849,"click_time":1551891709145,"finger_time":1551891708865,"fix_duration":1262.0962199834764,"trial":1,"RT":1016,"MT":280,"sideResp":1,"stimulus":"img/900/equaldotanddens/L/10_Ratio_900_L_20_R_18.png","xmouse":[805,805,805,805,805,805,805,805,805,805,805,805,805,805,805,805,805,805,805,805,805,805,805,805,805,805,805,805,805,805,805,805,805,805,805,805,805,805,805,805,805,805,805,805,805,805,805,805,801,790,757,647,570,504,468,453,452,451,448,445,444,441,438,436,436],"ymouse":[537,537,537,537,537,537,537,537,537,537,537,537,537,537,537,537,537,537,537,537,537,537,537,537,537,537,537,537,537,537,537,537,537,537,537,537,537,537,537,537,537,537,537,537,537,537,537,537,520,494,433,311,252,204,178,165,165,163,158,151,139,115,106,100,99],"timestamp_mouse":[16,37,56,76,97,117,136,156,177,197,216,236,256,277,298,316,337,357,377,397,417,436,456,477,497,517,537,556,576,596,617,636,656,676,696,716,737,756,777,796,816,836,857,877,898,916,936,956,976,997,1016,1037,1056,1077,1096,1117,1136,1157,1177,1197,1216,1237,1257,1276,1296],"xSR":741.5,"ySR":469.95,"xT1":424.9,"yT1":0,"xT2":1058.1,"yT2":0,"toosoon":0,"cond_shown":"equaldotanddens","ratio_trial":900,"smaller_num":"18","larger_num":"20","correct_side":1,"subjID":"SANTIAGOMORALESPRIETO","gender":"0","age":"11","school":"6"},{"start_time":1551891711012,"click_time":1551891712467,"finger_time":1551891712086,"fix_duration":765.1612972217124,"trial":2,"RT":1074,"MT":381,"sideResp":2,"stimulus":"img/750/equaldotsize/L/10_Ratio_750_L_4_R_3.png","xmouse":[777,777,777,777,777,777,777,777,777,777,777,777,777,777,777,777,777,777,777,777,777,777,777,777,777,777,777,777,777,777,777,777,777,777,777,777,777,777,777,777,777,777,777,777,777,777,777,777,777,777,777,777,782,840,877,900,917,934,949,953,954,956,958,987,1006,1011,1011,1011,1011,1011,1022,1050,1082],"ymouse":[499,499,499,499,499,499,499,499,499,499,499,499,499,499,499,499,499,499,499,499,499,499,499,499,499,499,499,499,499,499,499,499,499,499,499,499,499,499,499,499,499,499,499,499,499,499,499,499,499,499,499,498,487,407,355,306,270,220,168,154,149,147,144,128,117,113,113,113,113,111,102,86,73],"timestamp_mouse":[23,40,53,73,93,114,133,153,173,193,213,233,255,273,295,313,333,354,373,394,414,433,454,474,493,513,534,553,573,593,614,633,653,674,693,714,734,753,773,794,815,835,854,873,894,913,935,954,974,995,1014,1033,1055,1074,1093,1114,1134,1153,1175,1193,1213,1234,1254,1274,1293,1314,1334,1355,1374,1394,1414,1434,1454],"xSR":741.5,"ySR":469.95,"xT1":424.9,"yT1":0,"xT2":1058.1,"yT2":0,"toosoon":0,"cond_shown":"equaldotsize","ratio_trial":750,"smaller_num":"3","larger_num":"4","correct_side":1,"subjID":"SANTIAGOMORALESPRIETO","gender":"0","age":"11","school":"6"},{"start_time":1551891714440,"click_time":1551891715886,"finger_time":1551891715406,"fix_duration":1153.9089501219078,"trial":3,"RT":966,"MT":480,"sideResp":1,"stimulus":"img/250/equaldotanddens/L/7_Ratio_250_L_8_R_2.png","xmouse":[802,802,802,802,802,802,802,802,802,802,802,802,802,802,802,802,802,802,802,802,802,802,802,802,802,802,802,802,802,802,802,802,802,802,802,802,802,802,802,802,802,802,802,802,802,802,797,768,650,561,468,416,406,405,405,403,399,390,385,384,384,387,388,388,388,388,389,401,407,411,415,421,436],"ymouse":[504,504,504,504,504,504,504,504,504,504,504,504,504,504,504,504,504,504,504,504,504,504,504,504,504,504,504,504,504,504,504,504,504,504,504,504,504,504,504,504,504,504,504,504,504,504,500,473,361,287,216,168,152,146,146,140,130,104,90,74,57,44,38,38,38,38,38,38,38,38,38,38,38],"timestamp_mouse":[8,37,46,67,87,106,127,147,167,186,206,226,245,266,287,306,325,346,365,386,407,426,447,467,486,506,526,546,566,587,607,625,645,666,685,707,727,746,766,785,806,825,847,865,885,906,926,945,966,986,1007,1026,1046,1067,1086,1105,1125,1145,1165,1186,1206,1225,1246,1266,1286,1306,1326,1346,1365,1386,1406,1426,1446],"xSR":741.5,"ySR":469.95,"xT1":424.9,"yT1":0,"xT2":1058.1,"yT2":0,"toosoon":0,"cond_shown":"equaldotanddens","ratio_trial":250,"smaller_num":"2","larger_num":"8","correct_side":1,"subjID":"SANTIAGOMORALESPRIETO","gender":"0","age":"11","school":"6"},{"start_time":1551891719192,"click_time":1551891719605,"finger_time":1551891719526,"fix_duration":984.6596595302705,"trial":4,"RT":334,"MT":79,"sideResp":2,"stimulus":"img/500/equaldotanddens/L/10_Ratio_500_L_4_R_2.png","xmouse":[782,782,782,782,782,782,782,782,782,782,782,782,782,782,782,809,987,1247,1247,1503,1059],"ymouse":[523,523,523,523,523,523,523,523,523,523,523,523,523,523,523,523,500,448,448,165,36],"timestamp_mouse":[14,42,54,73,94,113,135,154,175,194,215,234,254,275,295,313,334,354,374,395,413],"xSR":741.5,"ySR":469.95,"xT1":424.9,"yT1":0,"xT2":1058.1,"yT2":0,"toosoon":0,"cond_shown":"equaldotanddens","ratio_trial":500,"smaller_num":"2","larger_num":"4","correct_side":1,"subjID":"SANTIAGOMORALESPRIETO","gender":"0","age":"11","school":"6"},{"start_time":1551891722127,"click_time":1551891723926,"finger_time":1551891723227,"fix_duration":1180.0637209268732,"trial":5,"RT":1100,"MT":699,"sideResp":1,"stimulus":"img/250/equaldotsize/L/15_Ratio_250_L_12_R_3.png","xmouse":[806,806,806,806,806,806,806,806,806,806,806,806,806,806,806,806,806,806,806,806,806,806,806,806,806,806,806,806,806,806,806,806,806,806,806,806,806,806,806,806,806,806,806,806,806,806,806,806,806,806,806,806,806,794,757,693,608,421,354,319,298,298,298,298,298,298,298,298,298,298,298,298,384,392,394,394,394,394,396,404,408,416,417,417,417,417,417,417,419,431],"ymouse":[525,525,525,525,525,525,525,525,525,525,525,525,525,525,525,525,525,525,525,525,525,525,525,525,525,525,525,525,525,525,525,525,525,525,525,525,525,525,525,525,525,525,525,525,525,525,525,525,525,525,525,525,525,498,425,347,267,110,54,23,5,5,5,5,5,5,5,5,5,5,5,5,5,14,15,15,15,20,39,69,74,83,84,84,84,84,84,84,84,84],"timestamp_mouse":[19,39,60,79,98,119,140,158,180,198,218,239,260,278,300,320,339,359,379,400,419,439,459,480,498,518,539,560,579,600,620,639,660,680,699,720,740,758,780,799,820,839,859,880,900,918,939,959,979,999,1020,1039,1059,1079,1100,1119,1139,1160,1178,1199,1219,1239,1259,1279,1298,1318,1339,1360,1379,1399,1419,1439,1459,1478,1498,1519,1540,1559,1578,1600,1620,1640,1659,1679,1698,1719,1739,1760,1779,1799],"xSR":741.5,"ySR":469.95,"xT1":424.9,"yT1":0,"xT2":1058.1,"yT2":0,"toosoon":0,"cond_shown":"equaldotsize","ratio_trial":250,"smaller_num":"3","larger_num":"12","correct_side":1,"subjID":"SANTIAGOMORALESPRIETO","gender":"0","age":"11","school":"6"},{"start_time":1551891727076,"click_time":1551891732667,"finger_time":1551891732546,"fix_duration":250,"trial":6,"RT":5470,"MT":121,"sideResp":2,"stimulus":"img/250/randomdotsizeEA/L/14_Ratio_250_L_12_R_3.png","xmouse":[799,799,799,799,799,799,799,799,799,799,799,799,799,799,799,799,799,799,799,799,799,799,799,799,799,799,799,799,799,799,799,799,799,799,799,799,799,799,799,799,799,799,799,799,799,799,799,799,799,799,799,799,799,799,799,799,799,799,799,799,799,799,799,799,799,799,799,799,799,799,799,799,799,799,799,799,799,799,799,799,799,799,799,799,799,799,799,799,799,799,799,799,799,799,799,799,799,799,799,799,799,799,799,799,799,799,799,799,799,799,799,799,799,799,799,799,799,799,799,799,799,799,799,799,799,799,799,799,799,799,799,799,799,799,799,799,799,799,799,799,799,799,799,799,799,799,799,799,799,799,799,799,799,799,799,799,799,799,799,799,799,799,799,799,799,799,799,799,799,799,799,799,799,799,799,799,799,799,799,799,799,799,799,799,799,799,799,799,799,799,799,799,799,799,799,799,799,799,799,799,799,799,799,799,799,799,799,799,799,799,799,799,799,799,799,799,799,799,799,799,799,799,799,799,799,799,799,799,799,799,799,799,799,799,799,799,799,799,799,799,799,799,799,799,799,799,799,799,799,799,799,799,799,799,799,799,799,799,799,799,799,799,799,799,799,797,796,796,796,796,796,799,814,886,1014,1124,1155,1178,1183,1149],"ymouse":[540,540,540,540,540,540,540,540,540,540,540,540,540,540,540,540,540,540,540,540,540,540,540,540,540,540,540,540,540,540,540,540,540,540,540,540,540,540,540,540,540,540,540,540,540,540,540,540,540,540,540,540,540,540,540,540,540,540,540,540,540,540,540,540,540,540,540,540,540,540,540,540,540,540,540,540,540,540,540,540,540,540,540,540,540,540,540,540,540,540,540,540,540,540,540,540,540,540,540,540,540,540,540,540,540,540,540,540,540,540,540,540,540,540,540,540,540,540,540,540,540,540,540,540,540,540,540,540,540,540,540,540,540,540,540,540,540,540,540,540,540,540,540,540,540,540,540,540,540,540,540,540,540,540,540,540,540,540,540,540,540,540,540,540,540,540,540,540,540,540,540,540,540,540,540,540,540,540,540,540,540,540,540,540,540,540,540,540,540,540,540,540,540,540,540,540,540,540,540,540,540,540,540,540,540,540,540,540,540,540,540,540,540,540,540,540,540,540,540,540,540,540,540,540,540,540,540,540,540,540,540,540,540,540,540,540,540,540,540,540,540,540,540,540,540,540,540,540,540,540,540,540,540,540,540,540,540,540,540,540,540,540,540,540,540,530,529,529,529,529,529,523,510,456,344,250,220,176,117,34],"timestamp_mouse":[12,42,51,70,90,110,129,150,170,190,210,229,249,270,291,310,329,351,371,390,410,431,450,471,491,509,530,550,569,590,611,629,650,671,690,710,730,751,769,790,811,831,850,870,891,911,930,951,970,989,1011,1030,1051,1070,1089,1111,1129,1150,1170,1190,1210,1229,1251,1271,1289,1309,1331,1350,1371,1389,1410,1431,1451,1471,1491,1509,1531,1549,1570,1591,1610,1629,1651,1670,1689,1711,1729,1751,1769,1789,1810,1829,1851,1869,1891,1909,1931,1950,1970,1989,2009,2030,2050,2070,2090,2111,2130,2150,2171,2189,2210,2231,2251,2271,2289,2310,2330,2351,2371,2390,2410,2430,2451,2470,2491,2509,2529,2551,2571,2590,2609,2631,2651,2671,2689,2710,2730,2749,2770,2790,2810,2830,2851,2870,2891,2909,2930,2950,2969,2990,3011,3030,3050,3071,3091,3109,3130,3150,3171,3191,3210,3230,3250,3270,3291,3311,3331,3349,3371,3391,3410,3431,3450,3469,3490,3511,3530,3549,3571,3589,3609,3630,3650,3671,3691,3709,3730,3749,3770,3790,3811,3829,3851,3871,3891,3909,3931,3951,3969,3989,4011,4030,4049,4071,4091,4111,4130,4150,4171,4191,4211,4230,4250,4271,4290,4309,4331,4351,4370,4389,4411,4431,4450,4470,4491,4511,4530,4550,4571,4591,4611,4630,4650,4671,4689,4710,4731,4750,4771,4790,4811,4831,4849,4870,4891,4910,4930,4951,4971,4991,5011,5031,5051,5069,5090,5111,5129,5150,5171,5191,5211,5230,5250,5269,5289,5309,5331,5350,5369,5391,5409,5429,5450,5470,5489,5510,5530,5550,5570,5591],"xSR":741.5,"ySR":469.95,"xT1":424.9,"yT1":0,"xT2":1058.1,"yT2":0,"toosoon":0,"cond_shown":"randomdotsizeEA","ratio_trial":250,"smaller_num":"3","larger_num":"12","correct_side":1,"subjID":"SANTIAGOMORALESPRIETO","gender":"0","age":"11","school":"6"},{"start_time":1551891734986,"click_time":1551891736146,"finger_time":1551891735467,"fix_duration":898.7687810136446,"trial":7,"RT":481,"MT":679,"sideResp":2,"stimulus":"img/900/equaldotsize/L/2_Ratio_900_L_20_R_18.png","xmouse":[791,791,791,791,791,791,791,791,791,791,791,791,791,791,791,791,791,791,791,791,791,791,798,816,872,918,920,923,931,950,738,366,0,0,0,126,510,1091,1091,1091,1397,945,417,0,0,79,407,910,1365,1365,1365,795,325,72,47,445,796,1055,1136],"ymouse":[546,546,546,546,546,546,546,546,546,546,546,546,546,546,546,546,546,546,546,546,546,546,546,553,564,574,575,575,575,556,408,283,155,123,138,247,345,412,412,412,241,185,167,167,182,187,154,89,7,7,7,64,176,237,245,169,116,74,59],"timestamp_mouse":[2,35,40,60,81,99,119,141,159,181,199,221,241,260,281,300,319,340,360,379,400,420,439,460,480,500,519,540,560,580,601,619,640,661,679,700,719,740,759,779,802,820,840,859,880,900,920,939,959,979,1000,1019,1039,1059,1080,1100,1119,1140,1160],"xSR":741.5,"ySR":469.95,"xT1":424.9,"yT1":0,"xT2":1058.1,"yT2":0,"toosoon":0,"cond_shown":"equaldotsize","ratio_trial":900,"smaller_num":"18","larger_num":"20","correct_side":1,"subjID":"SANTIAGOMORALESPRIETO","gender":"0","age":"11","school":"6"},{"start_time":1551891738315,"click_time":1551891739726,"finger_time":1551891738605,"fix_duration":1128.7776865942378,"trial":8,"RT":290,"MT":1121,"sideResp":1,"stimulus":"img/250/equaldotanddens/L/3_Ratio_250_L_8_R_2.png","xmouse":[830,830,830,830,829,827,826,824,822,816,812,809,791,745,575,483,425,414,417,525,808,1555,1555,1561,1369,1088,789,484,175,174,187,395,638,834,844,661,294,0,0,13,64,429,790,1148,1483,1483,1483,1483,1483,373,295,327,443,645,1091,1145,1122,993,390,103,0,0,61,215,688,904,1013,1019,964,650,468],"ymouse":[525,525,525,525,525,525,526,526,526,529,529,529,525,507,449,424,414,414,421,464,509,534,534,452,396,344,299,294,295,295,296,296,296,277,238,185,126,68,72,97,111,154,154,111,0,0,0,0,0,2,75,152,201,230,209,185,172,143,113,131,177,213,232,255,266,261,227,201,162,93,98],"timestamp_mouse":[12,37,51,72,92,111,131,152,170,192,211,230,250,270,290,311,331,351,371,390,410,431,451,472,491,510,531,550,571,592,611,630,651,670,691,712,732,752,771,790,811,830,852,870,891,910,931,950,971,991,1011,1032,1051,1070,1090,1110,1130,1150,1171,1191,1212,1230,1251,1271,1292,1311,1330,1351,1370,1391,1410],"xSR":741.5,"ySR":469.95,"xT1":424.9,"yT1":0,"xT2":1058.1,"yT2":0,"toosoon":0,"cond_shown":"equaldotanddens","ratio_trial":250,"smaller_num":"2","larger_num":"8","correct_side":1,"subjID":"SANTIAGOMORALESPRIETO","gender":"0","age":"11","school":"6"},{"start_time":1551891742536,"click_time":1551891743545,"finger_time":1551891743427,"fix_duration":250,"trial":9,"RT":891,"MT":118,"sideResp":2,"stimulus":"img/250/equaldotanddens/R/8_Ratio_250_L_1_R_4.png","xmouse":[823,823,823,823,823,823,823,823,823,823,823,823,823,823,823,823,823,823,823,823,823,823,823,823,823,823,823,823,823,823,823,823,823,823,823,823,823,823,823,823,823,823,823,834,901,987,1079,1220,1245,1239,1148],"ymouse":[531,531,531,531,531,531,531,531,531,531,531,531,531,531,531,531,531,531,531,531,531,531,531,531,531,531,531,531,531,531,531,531,531,531,531,531,531,531,531,531,531,531,531,525,495,442,378,228,164,110,29],"timestamp_mouse":[11,32,51,71,89,111,130,151,171,189,211,229,249,271,290,311,329,349,371,390,411,430,450,470,490,509,531,550,571,590,610,629,651,669,689,710,731,749,770,790,810,831,850,870,890,910,930,950,970,989,1009],"xSR":741.5,"ySR":469.95,"xT1":424.9,"yT1":0,"xT2":1058.1,"yT2":0,"toosoon":0,"cond_shown":"equaldotanddens","ratio_trial":250,"smaller_num":"1","larger_num":"4","correct_side":2,"subjID":"SANTIAGOMORALESPRIETO","gender":"0","age":"11","school":"6"},{"start_time":1551891745221,"click_time":1551891751886,"finger_time":1551891751506,"fix_duration":373.5113709368026,"trial":10,"RT":6285,"MT":380,"sideResp":2,"stimulus":"img/250/equaldotsize/R/4_Ratio_250_L_3_R_12.png","xmouse":[767,767,767,767,767,767,767,767,767,767,767,767,767,767,767,767,767,767,767,767,767,767,767,767,767,767,767,767,767,767,767,767,767,767,767,767,767,767,767,767,767,767,767,767,767,767,767,767,767,766,766,766,766,766,766,766,766,766,766,766,766,766,766,763,760,758,758,758,758,758,758,758,758,758,760,761,761,761,762,764,764,765,765,765,765,765,765,765,765,765,766,768,772,775,776,776,776,776,776,776,776,776,776,777,778,782,782,782,782,782,782,782,782,783,785,786,788,788,789,789,789,789,789,789,789,789,789,789,789,789,789,789,789,789,789,789,789,789,789,789,789,789,789,789,789,789,789,789,789,789,789,789,789,789,789,789,789,789,789,789,789,789,789,789,789,789,789,789,789,789,789,789,789,789,789,789,789,789,789,789,789,789,789,789,789,789,789,789,789,789,789,789,789,789,789,789,789,789,789,789,789,789,789,789,789,789,789,789,789,789,789,789,789,789,789,789,789,789,789,789,789,789,789,789,789,789,789,789,789,789,789,789,789,789,789,789,789,790,791,792,792,792,792,792,792,792,792,792,792,792,792,794,795,796,796,796,796,796,796,796,796,796,796,796,796,796,796,796,796,796,796,796,796,796,796,796,796,796,796,796,796,796,796,796,796,796,796,796,796,796,796,796,796,796,796,796,796,796,796,796,796,796,796,796,796,796,796,796,796,796,796,798,803,837,856,874,900,923,964,976,981,984,985,987,987,989,993,1003,1021,1029,1042,1054,1063,1078],"ymouse":[564,564,564,564,564,564,564,564,564,564,564,564,564,564,564,564,564,564,564,564,564,564,564,564,564,564,564,564,564,564,564,564,564,564,564,564,564,564,564,564,564,564,564,564,564,564,564,564,564,563,561,561,561,561,561,561,561,561,561,561,561,561,561,557,553,547,545,544,544,544,544,544,544,544,544,544,544,544,544,536,533,532,532,532,532,532,532,532,532,532,532,532,537,547,547,547,547,547,547,547,547,547,547,548,549,551,551,551,551,551,551,551,551,551,552,552,553,554,554,554,554,554,554,554,554,554,554,554,554,554,554,554,554,554,554,554,554,554,554,554,554,554,554,554,554,554,554,554,554,554,554,554,554,554,554,554,554,554,554,554,554,554,554,554,554,554,554,554,553,552,552,552,552,552,552,552,552,552,552,552,552,552,552,552,552,552,552,552,552,552,552,552,552,552,552,552,552,552,552,552,552,552,552,552,552,552,552,552,552,552,552,552,552,552,552,552,552,552,552,552,552,552,552,552,552,552,552,552,552,552,552,552,552,552,543,540,538,535,529,527,527,527,527,527,527,527,527,527,527,527,527,526,526,526,526,526,526,526,526,526,526,526,526,526,526,526,526,526,526,526,526,526,526,526,526,526,526,526,526,526,526,526,526,526,526,526,526,526,526,526,526,526,526,526,526,526,526,526,526,526,526,526,526,526,526,526,526,526,526,526,526,527,527,519,505,486,437,393,317,285,266,247,232,209,202,194,185,174,161,154,143,131,118,91],"timestamp_mouse":[8,39,44,66,86,104,124,145,165,184,205,225,245,265,284,305,326,344,365,385,405,426,444,465,484,506,526,546,565,585,604,626,645,665,685,705,726,744,766,786,805,826,844,864,886,904,926,946,964,985,1005,1025,1045,1066,1085,1104,1126,1144,1164,1185,1204,1225,1246,1265,1285,1306,1325,1345,1364,1385,1405,1425,1445,1466,1486,1505,1525,1544,1566,1585,1605,1626,1645,1665,1685,1705,1725,1744,1765,1784,1806,1826,1844,1865,1886,1904,1925,1944,1966,1986,2004,2025,2044,2064,2085,2105,2125,2145,2166,2185,2204,2224,2244,2265,2285,2305,2326,2344,2366,2384,2405,2424,2444,2465,2484,2505,2526,2545,2564,2585,2605,2624,2645,2666,2685,2705,2726,2744,2764,2785,2806,2826,2845,2865,2884,2905,2925,2944,2965,2985,3004,3026,3045,3065,3085,3106,3125,3145,3166,3185,3204,3225,3244,3264,3285,3305,3325,3345,3365,3386,3405,3426,3446,3464,3485,3505,3526,3544,3565,3585,3604,3626,3646,3664,3685,3706,3724,3746,3765,3785,3805,3826,3846,3865,3885,3906,3924,3945,3965,3985,4016,4025,4045,4066,4085,4104,4124,4146,4165,4185,4205,4226,4244,4265,4285,4306,4324,4345,4365,4386,4405,4425,4445,4465,4486,4506,4524,4545,4566,4585,4604,4625,4646,4666,4685,4705,4726,4745,4765,4785,4804,4825,4844,4865,4884,4906,4924,4944,4966,4984,5004,5025,5046,5066,5084,5105,5126,5144,5166,5184,5205,5226,5245,5265,5284,5305,5326,5344,5366,5386,5404,5425,5445,5464,5485,5506,5526,5546,5565,5585,5606,5625,5645,5665,5686,5706,5724,5746,5765,5784,5806,5826,5846,5864,5884,5906,5925,5944,5964,5985,6005,6025,6044,6066,6086,6104,6125,6145,6165,6185,6205,6225,6245,6265,6285,6305,6325,6346,6365,6384,6405,6424,6445,6465,6484,6506,6524,6544,6566,6584,6605,6625,6644,6665],"xSR":741.5,"ySR":469.95,"xT1":424.9,"yT1":0,"xT2":1058.1,"yT2":0,"toosoon":0,"cond_shown":"equaldotsize","ratio_trial":250,"smaller_num":"3","larger_num":"12","correct_side":2,"subjID":"SANTIAGOMORALESPRIETO","gender":"0","age":"11","school":"6"},{"start_time":1551891753354,"click_time":1551891754586,"finger_time":1551891754146,"fix_duration":327.7396649342217,"trial":11,"RT":792,"MT":440,"sideResp":1,"stimulus":"img/750/equaldotanddens/L/14_Ratio_750_L_8_R_6.png","xmouse":[778,778,778,778,778,778,778,778,778,778,778,778,778,778,778,778,778,778,778,778,778,778,778,778,778,778,778,778,778,778,778,778,778,778,778,778,778,772,749,704,681,653,650,650,650,650,648,639,628,612,584,555,542,529,515,498,466,460,458,456,455,454],"ymouse":[531,531,531,531,531,531,531,531,531,531,531,531,531,531,531,531,531,531,531,531,531,531,531,531,531,531,531,531,531,531,531,531,531,531,531,531,531,523,500,465,450,424,417,413,409,406,387,369,348,324,285,238,217,199,183,166,138,127,117,105,101,95],"timestamp_mouse":[11,31,52,72,91,111,132,152,171,193,211,232,251,271,292,313,332,353,371,393,413,431,453,471,493,513,532,552,572,593,611,632,653,672,692,712,733,753,771,792,811,833,851,872,892,912,933,951,972,992,1012,1032,1051,1071,1093,1111,1132,1151,1172,1193,1212,1232],"xSR":741.5,"ySR":469.95,"xT1":424.9,"yT1":0,"xT2":1058.1,"yT2":0,"toosoon":0,"cond_shown":"equaldotanddens","ratio_trial":750,"smaller_num":"6","larger_num":"8","correct_side":1,"subjID":"SANTIAGOMORALESPRIETO","gender":"0","age":"11","school":"6"},{"start_time":1551891757174,"click_time":1551891763067,"finger_time":1551891758206,"fix_duration":285.4172004812222,"trial":12,"RT":1032,"MT":4861,"sideResp":1,"stimulus":"img/250/equaldotsize/L/5_Ratio_250_L_24_R_6.png","xmouse":[800,800,800,800,800,800,800,800,800,800,800,800,800,800,800,800,800,800,800,800,800,800,800,800,800,800,800,800,800,800,800,800,800,800,800,800,800,800,800,800,800,800,800,800,800,800,800,800,804,816,837,810,710,539,329,0,0,1,77,77,800,796,640,366,0,0,0,42,351,598,882,853,740,528,289,118,210,405,766,898,902,606,382,281,284,609,877,1075,1070,876,305,210,217,306,486,849,839,733,425,304,339,464,638,740,752,540,357,190,131,166,166,166,716,719,598,87,0,0,65,263,979,1287,1382,1310,1099,847,592,614,789,998,1279,1228,1050,796,537,337,387,545,922,1163,1255,1084,801,508,300,235,437,437,437,437,897,706,506,361,315,424,424,424,961,994,716,505,350,306,308,501,691,897,1062,1066,827,593,320,57,0,138,358,581,770,771,667,366,275,256,270,397,484,550,584,526,224,71,0,0,24,328,593,957,1002,980,552,315,186,174,230,556,700,738,727,541,182,131,149,256,435,636,787,701,505,153,49,100,227,414,598,754,694,524,293,58,122,302,530,728,835,840,550,260,0,0,113,267,267,267,267,737,545,362,182,150,248,248,248,248,248,863,669,379,0,0,13,280,444,551,566,547,382,334,338,444,882,1026,1039,938,744,406,355,346,360,388,468,538,584,581,499,294,224,212,243,291,456,540,568,548,515],"ymouse":[532,532,532,532,532,532,532,532,532,532,532,532,532,532,532,532,532,532,532,532,532,532,532,532,532,532,532,532,532,532,532,532,532,532,532,532,532,532,532,532,532,532,532,532,532,532,532,532,532,532,499,451,384,321,296,369,476,601,719,719,707,562,369,215,150,261,366,437,479,420,211,144,99,109,179,355,430,475,411,308,209,124,198,304,411,620,672,662,555,433,382,434,472,531,573,551,533,501,498,539,599,638,645,607,548,449,450,494,553,649,649,649,699,590,450,309,340,407,527,630,716,610,478,372,306,292,387,457,584,624,509,414,324,285,282,382,459,555,663,677,576,477,397,361,391,472,686,686,686,686,581,537,536,567,612,719,719,719,711,574,388,347,354,372,400,554,633,672,633,577,389,329,313,378,493,648,671,656,547,462,372,356,407,449,498,615,639,628,557,392,227,226,282,343,406,576,635,622,603,493,356,360,407,438,479,566,557,532,508,464,504,545,591,652,687,682,591,533,493,501,553,583,624,656,662,552,461,378,351,380,469,548,591,597,557,520,380,357,388,429,585,687,687,687,687,704,375,291,338,443,705,705,705,705,705,480,386,371,542,669,720,700,627,549,511,497,546,620,632,659,579,508,444,370,325,362,404,443,509,553,564,507,407,305,215,203,271,350,434,451,351,201,68,19,15],"timestamp_mouse":[11,35,52,72,92,111,132,153,171,192,213,231,253,271,293,312,333,351,372,393,412,432,452,473,492,512,533,553,572,591,611,632,652,671,692,711,731,751,772,792,813,831,851,871,893,911,933,952,972,992,1012,1032,1052,1073,1091,1112,1132,1151,1172,1192,1212,1231,1253,1272,1292,1311,1332,1352,1371,1392,1413,1432,1453,1471,1492,1512,1531,1551,1571,1593,1613,1632,1651,1673,1691,1713,1731,1751,1771,1792,1812,1831,1852,1873,1892,1912,1931,1953,1973,1992,2012,2032,2052,2071,2091,2112,2131,2153,2173,2192,2212,2231,2252,2272,2292,2312,2331,2352,2371,2392,2413,2431,2453,2472,2493,2512,2533,2552,2572,2591,2612,2632,2652,2671,2693,2712,2731,2753,2772,2791,2812,2832,2851,2873,2891,2913,2932,2951,2971,2992,3013,3031,3051,3072,3091,3113,3132,3152,3173,3193,3212,3233,3251,3272,3293,3312,3331,3352,3372,3391,3413,3432,3452,3471,3493,3512,3531,3553,3571,3591,3611,3632,3652,3673,3691,3713,3731,3752,3771,3791,3813,3831,3851,3872,3891,3913,3931,3953,3973,3991,4012,4031,4051,4072,4092,4112,4131,4152,4171,4193,4213,4231,4251,4272,4293,4311,4331,4352,4372,4392,4413,4431,4452,4472,4492,4512,4531,4552,4573,4592,4612,4631,4652,4673,4692,4712,4731,4751,4771,4792,4812,4831,4852,4873,4892,4912,4932,4959,4971,4993,5012,5031,5053,5073,5092,5112,5132,5151,5171,5192,5213,5231,5252,5272,5291,5311,5333,5352,5372,5393,5412,5431,5452,5472,5493,5512,5531,5553,5571,5592,5613,5631,5652,5673,5693,5712,5731,5753,5772,5792,5813,5832,5852,5872,5892],"xSR":741.5,"ySR":469.95,"xT1":424.9,"yT1":0,"xT2":1058.1,"yT2":0,"toosoon":0,"cond_shown":"equaldotsize","ratio_trial":250,"smaller_num":"6","larger_num":"24","correct_side":1,"subjID":"SANTIAGOMORALESPRIETO","gender":"0","age":"11","school":"6"},{"start_time":1551891764365,"click_time":1551891766127,"finger_time":1551891765266,"fix_duration":317.8781884833655,"trial":13,"RT":901,"MT":861,"sideResp":2,"stimulus":"img/750/equaldotsize/R/2_Ratio_750_L_6_R_8.png","xmouse":[794,794,794,794,794,794,794,794,794,794,794,794,794,794,794,794,794,794,794,794,794,794,794,794,794,794,794,794,794,794,794,794,794,794,794,794,794,794,794,794,794,794,794,798,818,881,986,1295,1391,1393,1377,1319,1032,899,839,835,895,895,895,895,1493,1233,1076,986,963,989,1202,1342,1446,1458,1346,985,890,876,922,1017,1149,1268,1232,1060,974,961,1005,1096,1222,1319,1284,1180,1104],"ymouse":[509,509,509,509,509,509,509,509,509,509,509,509,509,509,509,509,509,509,509,509,509,509,509,509,509,509,509,509,509,509,509,509,509,509,509,509,509,509,509,509,509,509,509,512,523,546,574,608,608,605,596,576,515,520,546,582,654,654,654,654,562,227,176,203,275,387,573,590,534,385,285,223,285,356,419,467,474,373,290,185,174,181,235,252,238,178,39,13,19],"timestamp_mouse":[8,21,40,62,81,100,121,140,160,181,201,221,241,262,282,302,322,341,361,381,402,422,441,462,480,501,522,542,560,581,600,621,642,660,682,702,722,741,761,781,801,820,840,861,880,901,922,941,961,980,1001,1022,1041,1061,1080,1102,1123,1142,1162,1181,1201,1221,1241,1261,1280,1302,1321,1341,1360,1381,1400,1421,1440,1462,1481,1501,1521,1540,1561,1580,1601,1620,1640,1662,1681,1701,1721,1740,1761],"xSR":741.5,"ySR":469.95,"xT1":424.9,"yT1":0,"xT2":1058.1,"yT2":0,"toosoon":0,"cond_shown":"equaldotsize","ratio_trial":750,"smaller_num":"6","larger_num":"8","correct_side":2,"subjID":"SANTIAGOMORALESPRIETO","gender":"0","age":"11","school":"6"},{"start_time":1551891768040,"click_time":1551891769847,"finger_time":1551891769285,"fix_duration":852.1599040355704,"trial":14,"RT":1245,"MT":562,"sideResp":2,"stimulus":"img/900/randomdotsizeEA/L/4_Ratio_900_L_20_R_18.png","xmouse":[813,813,813,813,813,813,813,813,813,813,813,813,813,813,813,813,813,813,813,813,813,813,813,813,813,813,813,813,813,813,813,813,813,813,813,813,813,813,813,813,813,813,813,813,813,813,813,813,813,813,813,813,813,813,813,813,813,813,813,813,824,839,899,1068,1123,1126,1119,1083,903,830,793,783,817,880,965,1065,1189,1214,1186,1152,1127,1115,1137,1180,1255,1370,1425,1428,1340,1197,1060],"ymouse":[515,515,515,515,515,515,515,515,515,515,515,515,515,515,515,515,515,515,515,515,515,515,515,515,515,515,515,515,515,515,515,515,515,515,515,515,515,515,515,515,515,515,515,515,515,515,515,515,515,515,515,515,515,515,515,515,515,515,515,515,525,533,560,599,597,592,575,538,453,451,467,487,551,593,621,635,620,562,533,521,522,536,605,650,689,709,686,495,325,173,81],"timestamp_mouse":[9,34,47,66,87,106,127,146,166,186,206,227,246,267,285,306,325,345,367,385,405,426,446,465,486,505,527,546,566,586,607,626,646,667,686,707,727,746,767,786,805,825,847,867,887,907,927,946,966,985,1007,1026,1046,1067,1085,1106,1126,1147,1166,1185,1207,1226,1245,1266,1285,1306,1325,1345,1366,1387,1406,1427,1446,1465,1487,1506,1526,1546,1565,1586,1606,1627,1646,1666,1685,1706,1726,1747,1765,1786,1807],"xSR":741.5,"ySR":469.95,"xT1":424.9,"yT1":0,"xT2":1058.1,"yT2":0,"toosoon":0,"cond_shown":"randomdotsizeEA","ratio_trial":900,"smaller_num":"18","larger_num":"20","correct_side":1,"subjID":"SANTIAGOMORALESPRIETO","gender":"0","age":"11","school":"6"},{"start_time":1551891771422,"click_time":1551891773087,"finger_time":1551891772427,"fix_duration":315.5675364800836,"trial":15,"RT":1005,"MT":660,"sideResp":1,"stimulus":"img/750/equaldotanddens/L/13_Ratio_750_L_8_R_6.png","xmouse":[799,799,799,799,799,799,799,799,799,799,799,799,799,799,799,799,799,799,799,799,799,799,799,799,799,799,799,799,799,799,799,799,799,799,799,799,799,799,799,799,799,799,799,799,799,799,799,799,809,832,844,841,810,658,508,370,285,282,342,416,508,583,596,525,438,350,319,324,348,487,600,689,704,594,450,272,154,157,292,398,491,539,536,480],"ymouse":[523,523,523,523,523,523,523,523,523,523,523,523,523,523,523,523,523,523,523,523,523,523,523,523,523,523,523,523,523,523,523,523,523,523,523,523,523,523,523,523,523,523,523,523,523,523,523,523,523,521,513,491,445,316,251,229,245,266,375,442,492,510,508,433,376,341,335,348,379,514,583,612,611,453,312,193,137,137,211,243,242,204,136,40],"timestamp_mouse":[13,34,43,64,83,104,123,144,164,184,203,225,244,263,284,304,323,344,363,385,403,423,445,464,483,504,524,544,564,585,604,625,644,665,683,704,724,744,764,784,805,824,845,864,884,903,924,943,964,985,1005,1025,1045,1064,1084,1103,1124,1145,1164,1183,1204,1223,1245,1264,1283,1304,1324,1344,1363,1384,1404,1425,1444,1464,1483,1503,1524,1544,1565,1583,1604,1625,1645,1665],"xSR":741.5,"ySR":469.95,"xT1":424.9,"yT1":0,"xT2":1058.1,"yT2":0,"toosoon":0,"cond_shown":"equaldotanddens","ratio_trial":750,"smaller_num":"6","larger_num":"8","correct_side":1,"subjID":"SANTIAGOMORALESPRIETO","gender":"0","age":"11","school":"6"},{"start_time":1551891775347,"click_time":1551891776986,"finger_time":1551891776386,"fix_duration":1260.469517437699,"trial":16,"RT":1039,"MT":600,"sideResp":2,"stimulus":"img/750/equaldotanddens/R/5_Ratio_750_L_15_R_20.png","xmouse":[800,800,800,800,800,800,800,800,800,800,800,800,800,800,800,800,800,800,800,800,800,800,800,800,800,800,800,800,800,800,800,800,800,800,800,800,800,800,800,800,800,800,800,800,800,800,800,800,800,812,832,925,941,943,943,943,948,954,965,978,997,1007,1023,1035,1050,1078,1163,1194,1204,1205,1205,1204,1204,1204,1204,1204,1201,1196,1192,1181,1167,1138],"ymouse":[492,492,492,492,492,492,492,492,492,492,492,492,492,492,492,492,492,492,492,492,492,492,492,492,492,492,492,492,492,492,492,492,492,492,492,492,492,492,492,492,492,492,492,492,492,492,492,492,492,492,492,492,486,483,477,461,419,395,368,346,316,297,251,227,201,164,109,95,89,87,80,71,67,65,64,64,63,63,62,58,55,50],"timestamp_mouse":[19,38,59,78,99,119,139,159,179,199,219,239,259,279,298,319,339,358,379,399,418,439,460,479,499,518,539,559,578,599,618,640,658,679,699,718,739,758,779,798,820,840,860,878,900,920,940,959,979,999,1018,1039,1058,1079,1098,1120,1139,1159,1178,1199,1219,1238,1259,1279,1299,1320,1339,1359,1380,1399,1419,1439,1459,1478,1500,1519,1539,1559,1578,1598,1619,1639],"xSR":741.5,"ySR":469.95,"xT1":424.9,"yT1":0,"xT2":1058.1,"yT2":0,"toosoon":0,"cond_shown":"equaldotanddens","ratio_trial":750,"smaller_num":"15","larger_num":"20","correct_side":2,"subjID":"SANTIAGOMORALESPRIETO","gender":"0","age":"11","school":"6"},{"start_time":1551891780523,"click_time":1551891782147,"finger_time":1551891781565,"fix_duration":1316.495785228832,"trial":17,"RT":1042,"MT":582,"sideResp":1,"stimulus":"img/900/equaldotanddens/R/7_Ratio_900_L_9_R_10.png","xmouse":[782,782,782,782,782,782,782,782,782,782,782,782,782,782,782,782,782,782,782,782,782,782,782,782,782,782,782,782,782,782,782,782,782,782,782,782,782,782,782,782,782,782,782,782,782,782,782,782,782,784,796,833,852,860,853,839,819,797,773,704,655,613,582,576,576,576,575,571,541,424,388,366,366,368,376,386,387,387,387,395,409,428],"ymouse":[551,551,551,551,551,551,551,551,551,551,551,551,551,551,551,551,551,551,551,551,551,551,551,551,551,551,551,551,551,551,551,551,551,551,551,551,551,551,551,551,551,551,551,551,551,551,551,551,551,553,558,550,535,494,468,432,396,356,305,166,104,70,54,52,52,52,52,52,50,32,21,15,15,15,15,14,13,13,13,13,14,21],"timestamp_mouse":[8,32,42,64,83,102,124,142,163,184,203,222,243,264,283,302,323,343,363,383,403,423,443,462,483,502,524,543,562,584,604,623,643,664,683,703,723,743,763,784,804,822,844,864,883,902,922,944,964,983,1003,1024,1042,1063,1082,1102,1123,1143,1164,1183,1203,1222,1244,1262,1283,1302,1322,1344,1362,1383,1402,1424,1443,1464,1482,1504,1523,1544,1562,1582,1603,1624],"xSR":741.5,"ySR":469.95,"xT1":424.9,"yT1":0,"xT2":1058.1,"yT2":0,"toosoon":0,"cond_shown":"equaldotanddens","ratio_trial":900,"smaller_num":"9","larger_num":"10","correct_side":2,"subjID":"SANTIAGOMORALESPRIETO","gender":"0","age":"11","school":"6"},{"start_time":1551891783792,"click_time":1551891785167,"finger_time":1551891784747,"fix_duration":585.7232306964632,"trial":18,"RT":955,"MT":420,"sideResp":2,"stimulus":"img/750/randomdotsizeEA/L/6_Ratio_750_L_24_R_18.png","xmouse":[804,804,804,804,804,804,804,804,804,804,804,804,804,804,804,804,804,804,805,812,812,812,812,812,812,812,812,812,812,812,812,812,812,812,812,812,812,812,812,812,812,812,812,812,812,819,824,844,865,891,928,935,939,943,958,965,970,978,986,998,1008,1019,1030,1037,1047,1054,1063,1074,1091],"ymouse":[498,498,498,498,498,498,498,498,498,498,498,498,498,498,498,498,498,498,499,502,502,502,502,502,502,502,502,502,502,502,502,502,502,502,502,502,502,502,502,502,502,502,502,502,502,498,493,473,459,443,408,387,364,339,291,273,258,243,222,197,185,174,166,161,148,137,123,105,76],"timestamp_mouse":[14,44,54,75,93,113,135,155,173,194,213,234,255,273,293,314,334,355,374,394,415,435,454,474,494,515,533,554,573,594,615,633,654,674,694,714,733,754,775,794,813,834,855,874,894,913,934,955,974,993,1013,1034,1054,1075,1094,1114,1134,1154,1175,1195,1213,1234,1255,1274,1294,1314,1334,1354,1375],"xSR":741.5,"ySR":469.95,"xT1":424.9,"yT1":0,"xT2":1058.1,"yT2":0,"toosoon":0,"cond_shown":"randomdotsizeEA","ratio_trial":750,"smaller_num":"18","larger_num":"24","correct_side":1,"subjID":"SANTIAGOMORALESPRIETO","gender":"0","age":"11","school":"6"},{"start_time":1551891786730,"click_time":1551891788086,"finger_time":1551891787807,"fix_duration":403.19659346170744,"trial":19,"RT":1077,"MT":279,"sideResp":1,"stimulus":"img/750/randomdotsizeEA/L/13_Ratio_750_L_8_R_6.png","xmouse":[801,801,801,801,801,801,801,801,801,801,801,801,801,801,801,801,801,801,801,801,800,800,800,800,800,800,800,800,800,800,800,800,800,800,800,800,800,800,800,800,800,800,800,800,800,800,800,800,800,800,800,797,754,724,710,705,704,704,709,721,739,763,757,738,691,613,546,499],"ymouse":[548,548,548,548,548,548,548,548,548,548,548,548,548,548,548,548,548,548,548,548,548,548,548,548,548,548,548,548,548,548,548,548,548,548,548,548,548,548,548,548,548,548,548,548,548,548,548,548,548,548,548,548,476,435,414,402,396,385,371,351,306,206,148,125,93,60,42,27],"timestamp_mouse":[19,37,56,75,96,116,136,156,175,196,216,235,256,277,297,316,336,355,376,396,416,437,457,476,496,517,536,556,577,596,615,636,657,675,695,716,735,757,775,796,816,835,856,876,897,915,936,957,975,996,1015,1037,1056,1077,1097,1116,1137,1156,1175,1195,1216,1237,1257,1275,1297,1317,1337,1356],"xSR":741.5,"ySR":469.95,"xT1":424.9,"yT1":0,"xT2":1058.1,"yT2":0,"toosoon":0,"cond_shown":"randomdotsizeEA","ratio_trial":750,"smaller_num":"6","larger_num":"8","correct_side":1,"subjID":"SANTIAGOMORALESPRIETO","gender":"0","age":"11","school":"6"},{"start_time":1551891789398,"click_time":1551891790646,"finger_time":1551891790125,"fix_duration":310.7389338726276,"trial":20,"RT":727,"MT":521,"sideResp":2,"stimulus":"img/250/equaldotanddens/R/12_Ratio_250_L_5_R_20.png","xmouse":[794,794,794,794,794,794,794,794,794,794,794,794,794,794,794,794,794,794,794,794,794,794,794,794,794,794,794,794,794,794,794,794,794,794,798,826,854,886,906,933,964,998,1028,1039,1035,1032,1031,1031,1031,1031,1031,1032,1037,1044,1060,1066,1073,1079,1088,1098,1100,1101,1101],"ymouse":[518,518,518,518,518,518,518,518,518,518,518,518,518,518,518,518,518,518,518,518,518,518,518,518,518,518,518,518,518,518,518,518,518,518,519,519,509,498,488,454,406,359,311,275,233,223,216,214,211,202,199,195,189,183,166,158,149,140,125,109,107,102,97],"timestamp_mouse":[8,38,47,68,88,109,127,148,168,188,208,229,249,269,287,308,328,349,367,388,409,428,449,469,488,507,529,549,567,589,608,629,648,667,688,708,727,748,767,788,807,828,848,867,889,907,928,948,968,988,1007,1028,1049,1069,1088,1107,1128,1148,1168,1189,1207,1229,1248],"xSR":741.5,"ySR":469.95,"xT1":424.9,"yT1":0,"xT2":1058.1,"yT2":0,"toosoon":0,"cond_shown":"equaldotanddens","ratio_trial":250,"smaller_num":"5","larger_num":"20","correct_side":2,"subjID":"SANTIAGOMORALESPRIETO","gender":"0","age":"11","school":"6"},{"start_time":1551891792084,"click_time":1551891793387,"finger_time":1551891792286,"fix_duration":456.8570124487643,"trial":21,"RT":202,"MT":1101,"sideResp":2,"stimulus":"img/250/equaldotanddens/R/13_Ratio_250_L_2_R_8.png","xmouse":[773,773,773,773,773,773,773,773,776,786,804,807,808,808,809,813,816,816,817,817,815,812,811,811,811,811,811,811,811,811,811,811,811,811,812,820,823,825,825,825,826,827,828,829,829,829,836,847,864,878,913,939,954,968,985,1007,1017,1033,1048,1060,1066,1068,1068,1069,1070,1070],"ymouse":[486,488,491,491,491,491,491,492,491,476,452,449,447,446,441,427,419,414,411,406,398,396,394,394,394,394,394,394,394,394,394,394,394,394,404,432,446,458,469,478,491,497,500,502,502,502,495,470,431,396,313,270,242,212,175,147,137,129,123,116,109,107,106,104,101,97],"timestamp_mouse":[8,32,41,62,82,102,122,142,163,182,202,221,242,262,283,303,321,341,362,382,402,421,442,461,481,502,522,541,563,582,603,621,642,661,681,703,722,742,762,782,802,823,843,862,881,902,922,941,961,982,1002,1022,1042,1061,1082,1102,1121,1141,1162,1182,1203,1221,1242,1262,1282,1303],"xSR":741.5,"ySR":469.95,"xT1":424.9,"yT1":0,"xT2":1058.1,"yT2":0,"toosoon":0,"cond_shown":"equaldotanddens","ratio_trial":250,"smaller_num":"2","larger_num":"8","correct_side":2,"subjID":"SANTIAGOMORALESPRIETO","gender":"0","age":"11","school":"6"},{"start_time":1551891794926,"click_time":1551891796227,"finger_time":1551891796046,"fix_duration":637.2735235958057,"trial":22,"RT":1120,"MT":181,"sideResp":1,"stimulus":"img/900/randomdotsizeEA/R/9_Ratio_900_L_18_R_20.png","xmouse":[786,786,786,786,786,786,786,786,786,786,786,786,786,786,786,786,786,786,786,786,786,786,786,786,786,786,786,786,786,786,786,786,786,786,786,786,786,786,786,786,786,786,786,786,786,786,786,786,786,786,786,786,786,786,784,752,704,653,594,526,518,517,517,516,511,509],"ymouse":[520,520,520,520,520,520,520,520,520,520,520,520,520,520,520,520,520,520,520,520,520,520,520,520,520,520,520,520,520,520,520,520,520,520,520,520,520,520,520,520,520,520,520,520,520,520,520,520,520,520,520,520,520,520,519,476,420,344,270,157,140,125,119,114,104,96],"timestamp_mouse":[8,21,43,60,80,101,121,140,161,181,199,221,241,261,280,300,320,339,361,380,399,421,439,461,480,499,520,539,561,580,599,619,641,659,681,699,719,739,760,779,801,819,840,860,879,900,919,940,959,980,1000,1019,1040,1059,1081,1100,1120,1141,1160,1181,1200,1219,1240,1259,1281,1301],"xSR":741.5,"ySR":469.95,"xT1":424.9,"yT1":0,"xT2":1058.1,"yT2":0,"toosoon":0,"cond_shown":"randomdotsizeEA","ratio_trial":900,"smaller_num":"18","larger_num":"20","correct_side":2,"subjID":"SANTIAGOMORALESPRIETO","gender":"0","age":"11","school":"6"},{"start_time":1551891797998,"click_time":1551891799087,"finger_time":1551891798966,"fix_duration":930.1151182948222,"trial":23,"RT":968,"MT":121,"sideResp":2,"stimulus":"img/750/equaldotsize/R/12_Ratio_750_L_3_R_4.png","xmouse":[806,805,805,805,805,805,805,805,805,805,805,805,805,805,805,805,805,805,805,805,805,805,805,805,805,805,805,805,805,805,805,805,805,805,805,805,805,797,785,778,778,778,778,778,778,778,783,790,833,877,991,1038,1073,1088,1099],"ymouse":[551,551,551,551,551,551,551,551,551,551,551,551,551,551,551,551,551,551,551,551,551,551,551,551,551,551,551,548,545,542,542,542,542,542,542,542,540,532,521,513,513,513,513,513,513,508,493,483,430,387,260,195,143,118,80],"timestamp_mouse":[8,28,51,67,89,107,127,149,167,189,208,228,248,269,288,307,327,348,368,388,409,428,449,468,489,509,527,549,569,588,608,629,647,669,689,707,729,749,767,788,808,828,848,869,887,908,929,949,968,988,1009,1028,1047,1067,1089],"xSR":741.5,"ySR":469.95,"xT1":424.9,"yT1":0,"xT2":1058.1,"yT2":0,"toosoon":0,"cond_shown":"equaldotsize","ratio_trial":750,"smaller_num":"3","larger_num":"4","correct_side":2,"subjID":"SANTIAGOMORALESPRIETO","gender":"0","age":"11","school":"6"},{"start_time":1551891814813,"click_time":1551891815965,"finger_time":1551891815606,"fix_duration":1086.0580791793705,"trial":24,"RT":793,"MT":359,"sideResp":2,"stimulus":"img/900/equaldotsize/R/12_Ratio_900_L_18_R_20.png","xmouse":[798,798,798,798,798,798,798,798,798,798,798,798,798,798,798,798,798,798,798,798,798,798,798,798,798,798,798,798,798,798,798,798,798,798,798,798,798,800,815,945,1039,1118,1168,1222,1238,1251,1268,1275,1275,1275,1275,1275,1275,1275,1275,1275,1275,1144],"ymouse":[522,522,522,522,522,522,522,522,522,522,522,522,522,522,522,522,522,522,522,522,522,522,522,522,522,522,522,522,522,522,522,522,522,522,522,522,522,520,514,441,376,308,237,133,90,54,13,0,0,0,0,0,0,0,0,0,0,40],"timestamp_mouse":[13,40,53,73,93,112,134,153,173,192,213,232,253,272,294,314,332,353,373,393,413,432,453,473,494,512,533,553,573,592,612,633,653,674,694,713,734,752,773,793,812,832,853,873,893,912,932,953,974,993,1014,1033,1053,1074,1094,1113,1134,1152],"xSR":741.5,"ySR":469.95,"xT1":424.9,"yT1":0,"xT2":1058.1,"yT2":0,"toosoon":0,"cond_shown":"equaldotsize","ratio_trial":900,"smaller_num":"18","larger_num":"20","correct_side":2,"subjID":"SANTIAGOMORALESPRIETO","gender":"0","age":"11","school":"6"},{"start_time":1551891819498,"click_time":1551891820666,"finger_time":1551891820286,"fix_duration":850.0223590814317,"trial":25,"RT":788,"MT":380,"sideResp":1,"stimulus":"img/900/randomdotsizeEA/R/11_Ratio_900_L_18_R_20.png","xmouse":[802,802,802,802,802,802,802,802,802,802,802,802,802,802,802,802,802,802,802,802,802,802,802,802,802,802,802,802,802,802,802,802,802,802,802,802,799,791,770,708,671,633,590,569,532,532,532,532,532,532,532,532,532,532,532,532,532,532,446],"ymouse":[529,529,529,529,529,529,529,529,529,529,529,529,529,529,529,529,529,529,529,529,529,529,529,529,529,529,529,529,529,529,529,529,529,529,529,529,525,516,492,394,330,261,170,122,23,23,23,23,23,23,23,23,23,23,23,23,23,23,5],"timestamp_mouse":[8,36,47,69,89,107,129,149,168,188,208,229,248,267,288,308,328,348,369,389,409,427,448,469,487,509,527,548,567,587,607,629,649,667,687,708,727,748,768,788,807,827,848,867,888,907,927,948,969,989,1008,1028,1048,1068,1089,1108,1128,1148,1168],"xSR":741.5,"ySR":469.95,"xT1":424.9,"yT1":0,"xT2":1058.1,"yT2":0,"toosoon":0,"cond_shown":"randomdotsizeEA","ratio_trial":900,"smaller_num":"18","larger_num":"20","correct_side":2,"subjID":"SANTIAGOMORALESPRIETO","gender":"0","age":"11","school":"6"},{"start_time":1551891829318,"click_time":1551891829866,"finger_time":1551891829767,"fix_duration":250,"trial":26,"RT":449,"MT":99,"sideResp":2,"stimulus":"img/250/equaldotsize/L/15_Ratio_250_L_12_R_3.png","xmouse":[758,758,758,758,758,758,758,758,758,758,758,758,758,758,758,758,758,758,758,758,758,776,842,1175,1328,1373,1305,1070],"ymouse":[518,518,518,518,518,518,518,518,518,518,518,518,518,518,518,518,518,518,518,518,518,518,521,493,395,268,143,26],"timestamp_mouse":[10,34,48,67,91,109,129,148,169,187,208,228,247,269,287,308,328,347,368,389,407,428,449,468,488,508,528,548],"xSR":741.5,"ySR":469.95,"xT1":424.9,"yT1":0,"xT2":1058.1,"yT2":0,"toosoon":0,"cond_shown":"equaldotsize","ratio_trial":250,"smaller_num":"3","larger_num":"12","correct_side":1,"subjID":"SANTIAGOMORALESPRIETO","gender":"0","age":"11","school":"6"},{"start_time":1551891831644,"click_time":1551891833945,"finger_time":1551891832486,"fix_duration":557.0786983778764,"trial":27,"RT":842,"MT":1459,"sideResp":2,"stimulus":"img/750/randomdotsizeEA/L/13_Ratio_750_L_8_R_6.png","xmouse":[798,798,798,800,801,801,802,805,807,809,811,813,813,813,813,813,813,813,813,813,813,813,813,813,813,813,813,813,813,813,813,813,813,813,813,813,813,813,813,815,812,804,679,529,346,147,110,131,218,218,218,758,775,636,636,636,218,381,574,782,933,968,922,850,808,813,863,957,1203,1271,1263,1166,915,889,900,1042,1221,1428,1428,1428,1494,1325,1325,1325,922,946,1073,1239,1248,1244,1223,1198,1181,1187,1229,1274,1310,1333,1296,1296,1296,1296,1296,918,978,995,998,998,982,980,980,980,994,1096,1149,1150],"ymouse":[524,524,525,526,526,526,526,528,529,530,532,533,533,533,533,533,533,533,533,533,533,533,533,533,533,533,533,533,533,533,533,533,533,533,533,533,533,533,533,534,533,525,455,419,399,424,476,564,675,675,675,658,441,72,72,72,4,157,260,326,350,350,339,338,359,419,488,548,532,449,340,212,102,158,196,323,386,406,406,406,108,13,13,13,37,63,145,188,188,187,179,177,196,220,258,268,252,190,38,38,38,38,38,2,50,56,56,56,44,42,42,44,64,102,101,96],"timestamp_mouse":[8,22,42,61,82,103,121,142,161,181,203,222,243,263,282,301,322,342,361,381,403,421,443,463,482,501,523,541,562,581,603,621,642,662,682,703,721,741,761,782,802,823,842,861,881,902,922,943,962,983,1001,1022,1043,1062,1082,1102,1123,1142,1161,1182,1202,1222,1242,1261,1282,1302,1322,1342,1362,1383,1403,1423,1442,1462,1482,1502,1522,1543,1562,1583,1606,1621,1643,1662,1682,1703,1722,1742,1762,1783,1802,1822,1843,1862,1882,1903,1922,1941,1962,1982,2003,2023,2043,2061,2083,2102,2122,2141,2162,2181,2203,2223,2243,2263,2283,2301],"xSR":741.5,"ySR":469.95,"xT1":424.9,"yT1":0,"xT2":1058.1,"yT2":0,"toosoon":0,"cond_shown":"randomdotsizeEA","ratio_trial":750,"smaller_num":"6","larger_num":"8","correct_side":1,"subjID":"SANTIAGOMORALESPRIETO","gender":"0","age":"11","school":"6"},{"start_time":1551891836010,"click_time":1551891837906,"finger_time":1551891836826,"fix_duration":1063.4254159256402,"trial":28,"RT":816,"MT":1080,"sideResp":1,"stimulus":"img/900/equaldotsize/R/6_Ratio_900_L_9_R_10.png","xmouse":[777,777,777,777,777,777,777,777,777,777,777,777,777,777,777,777,777,777,777,777,777,777,777,777,777,777,777,777,777,777,777,777,777,782,802,825,840,840,838,797,695,518,282,43,0,13,161,332,485,606,577,478,324,70,44,68,309,535,832,841,791,651,440,46,0,0,27,126,208,206,179,152,147,147,217,332,505,547,549,505,488,488,492,533,707,769,780,743,535,535,535,535,332,371,481],"ymouse":[551,551,551,551,551,551,551,551,551,551,551,551,551,551,551,551,551,551,551,551,551,551,551,551,551,551,551,551,551,551,551,551,551,551,551,549,543,542,538,508,464,422,403,425,565,632,703,707,672,546,472,389,319,292,331,357,493,581,635,621,571,479,363,179,165,170,191,225,201,167,119,85,80,80,105,129,143,142,134,107,104,104,107,133,188,195,187,137,6,6,6,6,23,40,67],"timestamp_mouse":[16,42,55,77,96,115,136,156,176,196,216,235,256,275,297,316,335,356,377,396,416,437,456,477,497,516,536,555,577,597,616,635,657,677,696,716,736,757,776,795,816,837,855,875,895,916,935,956,975,997,1016,1037,1056,1076,1095,1115,1136,1156,1176,1196,1216,1236,1257,1277,1295,1316,1336,1355,1377,1395,1416,1435,1455,1476,1497,1516,1535,1556,1577,1596,1617,1636,1656,1675,1695,1717,1736,1757,1776,1797,1815,1836,1856,1876,1896],"xSR":741.5,"ySR":469.95,"xT1":424.9,"yT1":0,"xT2":1058.1,"yT2":0,"toosoon":0,"cond_shown":"equaldotsize","ratio_trial":900,"smaller_num":"9","larger_num":"10","correct_side":2,"subjID":"SANTIAGOMORALESPRIETO","gender":"0","age":"11","school":"6"},{"start_time":1551891840101,"click_time":1551891842486,"finger_time":1551891840966,"fix_duration":994.9163074837311,"trial":29,"RT":865,"MT":1520,"sideResp":2,"stimulus":"img/900/randomdotsizeEA/L/2_Ratio_900_L_20_R_18.png","xmouse":[785,785,785,785,785,785,785,785,785,785,785,785,785,785,785,785,785,785,785,785,785,785,785,785,785,785,785,785,785,785,785,785,785,785,785,785,786,789,793,795,795,781,756,700,472,342,249,215,224,295,295,295,295,295,1257,1201,1113,1010,916,846,798,825,946,1082,1287,1311,1280,1172,981,538,396,359,370,481,600,851,934,979,993,986,929,897,868,862,893,948,1007,1047,1065,1005,937,863,830,830,867,915,984,1079,1212,1419,1431,1417,1363,1261,1205,1184,1191,1196,1201,1201,1201,1203,1209,1228,1312,1324,1324,1302,1261,1117],"ymouse":[539,539,539,539,539,539,539,539,539,539,539,539,539,539,539,539,539,539,539,539,539,539,539,539,539,539,539,539,539,539,539,539,539,539,539,539,540,541,542,542,542,526,513,479,406,389,405,457,544,669,669,669,669,669,572,496,438,411,415,462,603,651,678,658,516,414,314,228,174,228,313,379,407,446,464,455,424,383,337,303,261,258,282,325,407,433,440,426,390,259,190,139,127,127,160,185,209,224,229,170,147,130,108,81,78,91,104,111,114,114,114,113,109,101,56,46,42,40,40,50],"timestamp_mouse":[11,32,44,65,85,105,126,145,165,185,204,225,244,265,286,305,325,345,365,385,405,426,446,464,486,506,524,546,566,584,606,626,645,664,684,704,725,746,765,784,805,825,846,865,885,904,926,946,965,985,1005,1025,1046,1065,1086,1104,1124,1146,1165,1186,1206,1226,1246,1266,1285,1306,1325,1345,1365,1386,1405,1425,1445,1465,1484,1504,1524,1544,1565,1586,1605,1625,1646,1665,1686,1704,1725,1746,1765,1785,1805,1824,1845,1865,1885,1904,1924,1945,1966,1986,2005,2025,2046,2066,2084,2104,2125,2145,2166,2185,2206,2225,2245,2266,2285,2305,2325,2346,2365,2385],"xSR":741.5,"ySR":469.95,"xT1":424.9,"yT1":0,"xT2":1058.1,"yT2":0,"toosoon":0,"cond_shown":"randomdotsizeEA","ratio_trial":900,"smaller_num":"18","larger_num":"20","correct_side":1,"subjID":"SANTIAGOMORALESPRIETO","gender":"0","age":"11","school":"6"},{"start_time":1551891844317,"click_time":1551891845506,"finger_time":1551891845207,"fix_duration":250,"trial":30,"RT":890,"MT":299,"sideResp":1,"stimulus":"img/900/equaldotsize/R/13_Ratio_900_L_18_R_20.png","xmouse":[754,757,763,779,784,784,784,782,782,782,782,782,782,782,782,782,782,782,782,782,782,782,782,782,782,782,783,785,789,790,790,790,790,790,790,790,790,790,790,790,790,790,788,758,722,684,647,618,597,593,590,586,567,540,526,517,513,508,500,500],"ymouse":[519,523,527,538,543,544,545,546,546,546,546,546,546,546,546,546,546,546,546,546,546,546,546,546,546,546,547,547,549,549,549,549,549,549,549,549,549,549,549,549,549,549,549,487,401,332,289,264,242,233,223,217,191,165,152,142,133,121,101,98],"timestamp_mouse":[9,30,53,69,89,109,129,149,169,188,210,229,249,270,288,309,329,350,368,389,410,429,449,469,489,510,529,548,568,588,609,630,648,670,689,709,729,750,768,790,810,830,848,870,890,909,929,948,970,988,1009,1029,1049,1070,1088,1109,1129,1150,1169,1189],"xSR":741.5,"ySR":469.95,"xT1":424.9,"yT1":0,"xT2":1058.1,"yT2":0,"toosoon":0,"cond_shown":"equaldotsize","ratio_trial":900,"smaller_num":"18","larger_num":"20","correct_side":2,"subjID":"SANTIAGOMORALESPRIETO","gender":"0","age":"11","school":"6"},{"start_time":1551891846605,"click_time":1551891847746,"finger_time":1551891847526,"fix_duration":337.90175154918313,"trial":31,"RT":921,"MT":220,"sideResp":1,"stimulus":"img/250/equaldotsize/L/5_Ratio_250_L_24_R_6.png","xmouse":[805,805,805,805,805,805,805,805,805,805,805,805,805,805,805,805,805,805,805,805,802,800,799,799,799,799,799,799,799,799,799,801,802,804,805,805,805,805,805,805,805,805,805,805,806,796,765,725,672,596,584,576,570,564,543,524,496,473],"ymouse":[525,525,525,525,525,525,525,525,525,525,525,525,525,525,525,525,525,525,525,526,529,529,530,530,530,530,530,530,530,530,530,531,532,533,533,533,533,533,533,533,533,533,533,533,529,506,453,394,320,224,209,198,187,171,138,121,106,96],"timestamp_mouse":[8,30,41,60,81,101,121,141,160,182,201,221,241,262,280,301,320,340,362,382,401,421,440,460,482,502,520,542,561,581,600,621,641,660,680,701,721,742,761,781,800,821,841,860,881,902,921,940,961,981,1000,1021,1041,1061,1082,1100,1121,1141],"xSR":741.5,"ySR":469.95,"xT1":424.9,"yT1":0,"xT2":1058.1,"yT2":0,"toosoon":0,"cond_shown":"equaldotsize","ratio_trial":250,"smaller_num":"6","larger_num":"24","correct_side":1,"subjID":"SANTIAGOMORALESPRIETO","gender":"0","age":"11","school":"6"},{"start_time":1551891848758,"click_time":1551891849966,"finger_time":1551891849566,"fix_duration":330.2082041177374,"trial":32,"RT":808,"MT":400,"sideResp":2,"stimulus":"img/900/equaldotanddens/R/5_Ratio_900_L_9_R_10.png","xmouse":[768,768,768,770,772,776,779,781,782,783,784,784,784,784,784,784,784,784,784,784,784,784,784,784,784,784,784,784,784,784,784,784,784,784,784,784,784,784,789,799,816,860,880,894,905,911,923,932,943,951,964,974,987,992,999,1007,1020,1024,1037,1051,1067],"ymouse":[526,526,526,528,529,531,533,533,534,535,535,535,535,535,535,535,535,535,535,535,535,535,535,535,535,535,535,535,535,535,535,535,535,535,535,535,535,535,530,502,461,402,386,375,361,350,326,315,301,289,265,246,198,180,166,155,141,129,102,78,50],"timestamp_mouse":[9,39,48,68,88,109,128,147,167,188,207,228,248,268,288,309,328,348,368,388,409,427,448,467,488,508,528,549,569,587,609,629,647,667,689,708,729,748,768,789,808,828,847,868,888,908,928,947,968,987,1008,1029,1048,1069,1087,1108,1129,1147,1168,1189,1208],"xSR":741.5,"ySR":469.95,"xT1":424.9,"yT1":0,"xT2":1058.1,"yT2":0,"toosoon":0,"cond_shown":"equaldotanddens","ratio_trial":900,"smaller_num":"9","larger_num":"10","correct_side":2,"subjID":"SANTIAGOMORALESPRIETO","gender":"0","age":"11","school":"6"},{"start_time":1551891851294,"click_time":1551891852446,"finger_time":1551891852167,"fix_duration":445.67769253583066,"trial":33,"RT":873,"MT":279,"sideResp":1,"stimulus":"img/900/equaldotanddens/L/10_Ratio_900_L_20_R_18.png","xmouse":[817,817,817,817,817,817,816,811,809,804,804,804,804,804,804,804,804,804,804,804,804,804,804,804,804,804,804,804,804,804,804,804,804,804,804,804,804,804,804,802,791,775,765,730,698,689,677,660,639,603,594,590,584,578,551,515,479,441],"ymouse":[551,551,551,551,551,551,551,549,548,546,546,546,546,546,546,546,546,546,546,546,546,546,546,546,546,546,546,546,546,546,546,546,546,546,546,546,546,546,546,544,520,492,478,435,397,379,360,336,310,272,259,246,228,215,166,128,102,85],"timestamp_mouse":[13,40,52,71,93,111,131,152,172,192,212,233,251,272,292,313,332,352,373,391,413,431,453,473,491,512,532,552,571,591,613,633,651,672,692,711,731,753,771,791,813,832,851,873,892,911,932,953,972,993,1011,1031,1051,1072,1092,1111,1132,1152],"xSR":741.5,"ySR":469.95,"xT1":424.9,"yT1":0,"xT2":1058.1,"yT2":0,"toosoon":0,"cond_shown":"equaldotanddens","ratio_trial":900,"smaller_num":"18","larger_num":"20","correct_side":1,"subjID":"SANTIAGOMORALESPRIETO","gender":"0","age":"11","school":"6"},{"start_time":1551891853298,"click_time":1551891855806,"finger_time":1551891854347,"fix_duration":250,"trial":34,"RT":1049,"MT":1459,"sideResp":2,"stimulus":"img/250/randomdotsizeEA/R/10_Ratio_250_L_4_R_16.png","xmouse":[795,795,795,795,795,795,795,795,795,795,795,795,795,795,795,795,795,795,795,795,795,795,795,795,795,795,795,795,795,795,795,795,795,795,795,795,795,795,795,795,795,795,795,795,795,795,795,795,795,789,783,773,752,736,701,676,660,647,642,637,637,637,637,637,637,637,638,640,647,654,654,654,654,654,654,654,654,654,656,665,675,706,718,750,770,773,776,778,784,806,820,838,843,854,863,877,885,895,901,908,909,919,936,957,997,1014,1020,1022,1022,1030,1039,1044,1044,1044,1044,1044,1045,1046,1048,1048,1049,1055,1057,1057,1058,1059],"ymouse":[564,564,564,564,564,564,564,564,564,564,564,564,564,564,564,564,564,564,564,564,564,564,564,564,564,564,564,564,564,564,564,564,564,564,564,564,564,564,564,564,564,564,564,564,564,564,564,559,555,526,506,480,436,403,331,293,270,252,245,239,239,239,239,239,239,239,240,243,245,249,249,249,249,249,249,249,249,249,250,259,264,267,267,259,244,241,238,237,233,223,217,207,204,196,190,177,168,158,150,138,136,127,121,112,96,92,90,89,89,84,82,79,79,79,79,79,79,78,77,77,77,77,77,77,78,79],"timestamp_mouse":[7,38,48,68,87,107,128,148,168,188,208,227,247,269,287,307,328,349,367,389,409,428,449,468,489,508,527,548,569,587,608,629,648,667,688,707,728,747,768,787,809,828,848,869,887,908,928,947,968,988,1007,1029,1049,1067,1089,1107,1129,1148,1167,1188,1207,1227,1248,1268,1289,1308,1327,1349,1368,1388,1409,1427,1447,1468,1489,1508,1528,1548,1568,1589,1607,1628,1649,1669,1688,1708,1729,1748,1769,1788,1807,1828,1849,1867,1888,1908,1929,1948,1968,1989,2009,2028,2049,2068,2088,2109,2128,2149,2167,2189,2208,2229,2248,2268,2289,2308,2327,2347,2368,2389,2408,2428,2448,2468,2487,2508],"xSR":741.5,"ySR":469.95,"xT1":424.9,"yT1":0,"xT2":1058.1,"yT2":0,"toosoon":0,"cond_shown":"randomdotsizeEA","ratio_trial":250,"smaller_num":"4","larger_num":"16","correct_side":2,"subjID":"SANTIAGOMORALESPRIETO","gender":"0","age":"11","school":"6"},{"start_time":1551891858119,"click_time":1551891859687,"finger_time":1551891859126,"fix_duration":271.3284023671283,"trial":35,"RT":1007,"MT":561,"sideResp":1,"stimulus":"img/900/equaldotanddens/R/9_Ratio_900_L_18_R_20.png","xmouse":[808,808,808,808,808,808,808,808,808,808,808,808,808,808,808,808,808,808,808,808,808,808,808,808,808,808,808,808,808,808,808,808,808,808,808,808,808,808,808,808,808,808,808,808,808,808,808,808,808,807,797,794,786,780,769,761,752,743,731,723,713,706,702,693,682,670,656,644,622,617,613,608,597,592,583,578,570,552,519],"ymouse":[504,504,504,504,504,504,504,504,504,504,504,504,504,504,504,504,504,504,504,504,504,504,504,504,504,504,504,504,504,504,504,504,504,504,504,504,504,504,504,504,504,504,504,504,504,504,504,504,504,482,421,398,337,308,266,245,223,205,181,171,161,154,149,135,124,112,100,91,80,77,74,71,65,61,57,54,54,53,51],"timestamp_mouse":[8,31,46,66,87,106,128,147,166,187,206,228,247,266,287,306,327,347,368,388,407,427,447,468,487,506,527,547,567,587,607,627,647,667,686,706,727,748,767,787,807,827,847,867,887,908,927,947,968,987,1007,1027,1047,1068,1087,1108,1128,1146,1167,1186,1206,1226,1247,1268,1286,1307,1327,1347,1367,1386,1407,1427,1447,1468,1488,1507,1527,1546,1568],"xSR":741.5,"ySR":469.95,"xT1":424.9,"yT1":0,"xT2":1058.1,"yT2":0,"toosoon":0,"cond_shown":"equaldotanddens","ratio_trial":900,"smaller_num":"18","larger_num":"20","correct_side":2,"subjID":"SANTIAGOMORALESPRIETO","gender":"0","age":"11","school":"6"},{"start_time":1551891860921,"click_time":1551891861905,"finger_time":1551891861686,"fix_duration":433.4589930785078,"trial":36,"RT":765,"MT":219,"sideResp":2,"stimulus":"img/250/equaldotsize/R/9_Ratio_250_L_3_R_12.png","xmouse":[775,775,775,775,775,775,775,775,775,775,775,775,775,775,775,775,775,775,775,775,775,775,775,775,775,775,775,775,775,775,775,775,775,775,775,775,782,814,916,968,1002,1031,1036,1033,1028,1026,1027,1037,1056,1061],"ymouse":[555,555,555,555,555,555,555,555,555,555,555,555,555,555,555,555,555,555,555,555,555,555,555,555,555,555,555,555,555,555,555,555,555,555,555,554,540,496,377,318,271,212,190,154,138,126,112,94,58,45],"timestamp_mouse":[9,34,44,66,84,105,125,145,166,186,205,225,246,265,286,305,324,346,365,384,406,425,444,465,484,506,526,545,565,584,605,625,646,666,685,704,726,746,765,784,805,825,845,865,884,905,925,945,965,984],"xSR":741.5,"ySR":469.95,"xT1":424.9,"yT1":0,"xT2":1058.1,"yT2":0,"toosoon":0,"cond_shown":"equaldotsize","ratio_trial":250,"smaller_num":"3","larger_num":"12","correct_side":2,"subjID":"SANTIAGOMORALESPRIETO","gender":"0","age":"11","school":"6"},{"start_time":1551891864988,"click_time":1551891866105,"finger_time":1551891865807,"fix_duration":400.0436997313904,"trial":37,"RT":819,"MT":298,"sideResp":2,"stimulus":"img/750/randomdotsizeEA/R/4_Ratio_750_L_15_R_20.png","xmouse":[800,800,800,800,800,800,800,800,800,800,800,800,800,800,800,800,800,800,800,800,800,798,796,794,794,794,794,794,794,794,794,794,794,794,794,794,794,794,809,837,914,939,958,974,990,994,995,995,995,1003,1011,1018,1022,1025,1046,1072],"ymouse":[540,540,540,540,540,540,540,540,540,540,540,540,540,540,540,540,540,540,540,540,540,542,544,545,545,545,545,545,545,545,545,545,545,545,545,545,545,546,533,515,471,443,416,391,360,342,323,292,272,232,212,193,175,152,74,31],"timestamp_mouse":[33,38,57,79,98,117,139,158,177,199,219,239,257,278,297,317,339,358,378,399,417,437,458,477,497,519,537,558,578,598,618,639,658,679,699,718,738,758,778,798,819,838,859,879,898,917,937,958,978,998,1017,1038,1058,1078,1099,1117],"xSR":741.5,"ySR":469.95,"xT1":424.9,"yT1":0,"xT2":1058.1,"yT2":0,"toosoon":0,"cond_shown":"randomdotsizeEA","ratio_trial":750,"smaller_num":"15","larger_num":"20","correct_side":2,"subjID":"SANTIAGOMORALESPRIETO","gender":"0","age":"11","school":"6"},{"start_time":1551891868301,"click_time":1551891869427,"finger_time":1551891869026,"fix_duration":1072.2049135556188,"trial":38,"RT":725,"MT":401,"sideResp":2,"stimulus":"img/900/equaldotanddens/L/2_Ratio_900_L_20_R_18.png","xmouse":[809,809,809,809,809,809,809,809,809,809,809,809,809,809,809,809,809,809,809,809,809,809,809,809,809,809,809,809,809,809,809,809,809,809,809,818,851,873,893,917,956,975,989,996,1001,1001,1001,1003,1006,1011,1012,1017,1020,1033,1044,1048,1059],"ymouse":[555,555,555,555,555,555,555,555,555,555,555,555,555,555,555,555,555,555,555,555,555,555,555,555,555,555,555,555,555,555,555,555,555,555,555,554,528,507,483,449,385,351,311,286,244,227,207,191,181,167,162,155,151,136,109,95,79],"timestamp_mouse":[20,39,45,65,85,105,126,145,166,185,204,226,246,264,286,304,326,345,365,385,405,425,445,466,484,505,525,544,565,586,605,626,644,665,685,706,725,745,764,784,805,826,845,865,885,905,924,944,966,986,1004,1026,1045,1064,1085,1104,1126],"xSR":741.5,"ySR":469.95,"xT1":424.9,"yT1":0,"xT2":1058.1,"yT2":0,"toosoon":0,"cond_shown":"equaldotanddens","ratio_trial":900,"smaller_num":"18","larger_num":"20","correct_side":1,"subjID":"SANTIAGOMORALESPRIETO","gender":"0","age":"11","school":"6"},{"start_time":1551891873017,"click_time":1551891874206,"finger_time":1551891873767,"fix_duration":1189.4105553408822,"trial":39,"RT":750,"MT":439,"sideResp":2,"stimulus":"img/900/equaldotsize/R/15_Ratio_900_L_9_R_10.png","xmouse":[813,813,813,813,813,813,813,813,813,813,813,813,813,813,813,813,813,813,813,813,813,813,813,813,813,813,813,813,813,813,813,813,813,813,813,813,814,863,955,977,996,1007,1012,1017,1018,1021,1022,1022,1022,1023,1026,1026,1026,1026,1027,1031,1034,1044,1056,1086],"ymouse":[562,562,562,562,562,562,562,562,562,562,562,562,562,562,562,562,562,562,562,562,562,562,562,562,562,562,562,562,562,562,562,562,562,562,562,562,562,467,317,282,257,237,222,195,187,174,156,139,125,106,101,98,95,94,94,93,93,93,93,95],"timestamp_mouse":[8,32,50,69,90,110,128,148,170,189,208,230,250,268,289,310,330,349,369,389,409,430,448,469,489,508,530,548,570,588,609,628,650,668,690,710,730,750,769,789,808,829,849,869,888,909,930,949,970,989,1009,1029,1048,1070,1089,1110,1128,1150,1170,1189],"xSR":741.5,"ySR":469.95,"xT1":424.9,"yT1":0,"xT2":1058.1,"yT2":0,"toosoon":0,"cond_shown":"equaldotsize","ratio_trial":900,"smaller_num":"9","larger_num":"10","correct_side":2,"subjID":"SANTIAGOMORALESPRIETO","gender":"0","age":"11","school":"6"},{"start_time":1551891876378,"click_time":1551891877865,"finger_time":1551891877205,"fix_duration":669.2076023982605,"trial":40,"RT":827,"MT":660,"sideResp":1,"stimulus":"img/900/equaldotsize/L/1_Ratio_900_L_10_R_9.png","xmouse":[823,823,823,823,823,823,823,823,823,823,821,811,801,791,785,782,782,782,782,782,782,782,782,782,782,782,782,782,782,782,782,782,782,782,782,782,782,779,774,770,762,743,733,724,716,707,704,697,689,680,662,651,641,632,626,611,603,595,593,590,585,573,564,553,544,541,538,537,536,535,534,533,532,530,524],"ymouse":[495,495,495,495,495,495,495,495,495,495,496,499,502,504,505,505,505,505,505,505,505,505,505,505,505,505,505,505,505,505,505,505,505,505,505,505,505,505,502,494,475,434,420,403,379,322,297,264,245,232,216,205,193,183,175,161,157,151,150,146,141,127,115,106,99,96,93,91,90,88,86,84,84,82,80],"timestamp_mouse":[16,37,48,68,88,109,128,148,168,188,209,229,248,268,288,308,328,348,368,388,408,428,447,467,487,507,527,549,567,588,609,628,648,668,688,708,728,749,768,789,807,827,847,867,888,908,928,949,968,988,1007,1029,1047,1067,1088,1108,1127,1149,1167,1187,1208,1227,1248,1267,1287,1307,1327,1347,1367,1387,1407,1427,1448,1467,1487],"xSR":741.5,"ySR":469.95,"xT1":424.9,"yT1":0,"xT2":1058.1,"yT2":0,"toosoon":0,"cond_shown":"equaldotsize","ratio_trial":900,"smaller_num":"9","larger_num":"10","correct_side":1,"subjID":"SANTIAGOMORALESPRIETO","gender":"0","age":"11","school":"6"},{"start_time":1551891879057,"click_time":1551891880887,"finger_time":1551891880006,"fix_duration":330.5941526589209,"trial":41,"RT":949,"MT":881,"sideResp":1,"stimulus":"img/500/equaldotsize/L/11_Ratio_500_L_12_R_6.png","xmouse":[809,809,809,809,809,809,809,809,809,809,809,809,809,809,809,809,809,809,809,809,809,809,809,809,809,809,809,809,809,809,809,809,809,809,809,809,809,809,809,809,809,809,809,809,809,808,786,757,749,744,736,714,707,705,704,703,699,683,674,673,671,661,653,640,627,613,609,594,581,563,534,457,442,441,440,439,435,435,434,434,439,441,444,446,446,447,447,447,447,447,447,447],"ymouse":[555,555,555,555,555,555,555,555,555,555,555,555,555,555,555,555,555,555,555,555,555,555,555,555,555,555,555,555,555,555,555,555,555,555,555,555,555,555,555,555,555,555,555,555,555,555,530,439,413,393,365,314,294,280,269,263,254,235,230,229,224,214,207,201,196,190,186,177,170,160,149,131,129,129,129,129,128,128,127,125,124,122,119,116,112,110,108,107,105,103,102,98],"timestamp_mouse":[9,38,50,70,89,108,128,150,169,189,208,228,249,268,289,309,330,348,369,388,409,428,449,468,489,509,528,548,570,589,608,629,649,670,688,709,729,750,770,789,809,829,848,869,890,910,928,949,969,989,1009,1029,1049,1068,1089,1109,1130,1149,1168,1189,1209,1230,1249,1270,1290,1309,1330,1349,1368,1389,1409,1429,1448,1469,1490,1509,1529,1548,1569,1590,1610,1630,1649,1669,1689,1708,1730,1749,1769,1789,1809,1829],"xSR":741.5,"ySR":469.95,"xT1":424.9,"yT1":0,"xT2":1058.1,"yT2":0,"toosoon":0,"cond_shown":"equaldotsize","ratio_trial":500,"smaller_num":"6","larger_num":"12","correct_side":1,"subjID":"SANTIAGOMORALESPRIETO","gender":"0","age":"11","school":"6"},{"start_time":1551891881957,"click_time":1551891883487,"finger_time":1551891882966,"fix_duration":250,"trial":42,"RT":1009,"MT":521,"sideResp":1,"stimulus":"img/250/equaldotanddens/L/2_Ratio_250_L_16_R_4.png","xmouse":[807,807,807,807,807,807,807,807,807,807,807,807,807,807,807,807,807,807,807,807,807,807,807,807,807,807,807,807,807,807,807,807,807,807,807,807,807,807,807,807,807,807,807,807,807,807,807,807,809,811,813,813,809,800,788,776,744,715,705,677,659,642,616,607,597,585,546,534,529,529,529,528,528,526,526,525,524],"ymouse":[505,505,505,505,505,505,505,505,505,505,505,505,505,505,505,505,505,505,505,505,505,505,505,505,505,505,505,505,505,505,505,505,505,505,505,505,505,505,505,505,505,505,505,505,505,505,505,505,499,481,465,437,421,404,387,370,328,297,286,262,247,233,204,192,179,158,98,75,58,48,48,48,48,48,48,49,49],"timestamp_mouse":[11,34,50,70,88,109,129,150,169,189,209,229,248,269,289,309,330,349,370,389,408,429,449,469,488,509,528,550,568,588,609,628,650,668,690,708,730,750,769,789,809,829,849,869,888,909,929,949,969,990,1009,1030,1048,1069,1089,1109,1129,1148,1168,1189,1209,1230,1249,1270,1290,1308,1329,1348,1370,1389,1409,1429,1448,1468,1489,1509,1530],"xSR":741.5,"ySR":469.95,"xT1":424.9,"yT1":0,"xT2":1058.1,"yT2":0,"toosoon":0,"cond_shown":"equaldotanddens","ratio_trial":250,"smaller_num":"4","larger_num":"16","correct_side":1,"subjID":"SANTIAGOMORALESPRIETO","gender":"0","age":"11","school":"6"},{"start_time":1551891887169,"click_time":1551891888366,"finger_time":1551891887967,"fix_duration":1181.7895316938047,"trial":43,"RT":798,"MT":399,"sideResp":1,"stimulus":"img/900/randomdotsizeEA/R/11_Ratio_900_L_18_R_20.png","xmouse":[803,803,803,803,803,803,803,803,803,803,803,803,803,803,803,803,803,803,803,803,803,803,803,803,803,803,803,803,803,803,803,803,803,803,803,803,803,803,806,806,802,802,802,802,802,802,803,803,790,759,675,634,610,598,593,587,581,569,541,518],"ymouse":[526,526,526,526,526,526,526,526,526,526,526,526,526,526,526,526,526,526,526,526,526,526,526,526,526,526,526,526,526,526,526,526,526,526,526,526,526,524,501,460,411,402,397,395,395,394,388,373,349,303,204,151,119,102,95,86,80,71,53,42],"timestamp_mouse":[30,36,58,76,98,116,136,158,176,197,217,236,258,276,297,318,337,357,377,398,416,436,458,477,498,516,538,557,576,597,617,637,657,677,696,718,737,756,777,798,818,837,856,877,897,918,937,958,976,997,1018,1036,1057,1077,1097,1117,1137,1156,1177,1197],"xSR":741.5,"ySR":469.95,"xT1":424.9,"yT1":0,"xT2":1058.1,"yT2":0,"toosoon":0,"cond_shown":"randomdotsizeEA","ratio_trial":900,"smaller_num":"18","larger_num":"20","correct_side":2,"subjID":"SANTIAGOMORALESPRIETO","gender":"0","age":"11","school":"6"},{"start_time":1551891891480,"click_time":1551891892847,"finger_time":1551891892367,"fix_duration":412.94168997716594,"trial":44,"RT":887,"MT":480,"sideResp":1,"stimulus":"img/900/equaldotanddens/L/8_Ratio_900_L_20_R_18.png","xmouse":[815,815,815,815,815,815,815,815,815,815,815,815,815,815,815,815,815,815,815,815,815,815,815,815,815,815,815,815,815,815,815,815,815,815,815,815,815,815,815,815,815,815,818,839,856,869,869,869,869,869,869,869,869,869,867,833,801,764,735,710,670,656,646,636,619,585,566,544,523],"ymouse":[494,494,494,494,494,494,494,494,494,494,494,494,494,494,494,494,494,494,494,494,494,494,494,494,494,494,494,494,494,494,494,494,494,494,494,494,494,494,494,494,494,493,492,485,480,479,479,479,479,479,479,478,478,478,474,433,393,343,293,250,175,145,122,102,75,40,24,14,8],"timestamp_mouse":[5,39,45,66,85,107,127,146,167,186,206,226,245,266,287,305,326,346,367,386,407,426,446,465,485,505,527,546,567,587,605,625,647,665,687,706,726,746,766,787,805,825,846,866,887,907,925,946,966,987,1007,1026,1046,1066,1086,1107,1126,1147,1166,1187,1206,1226,1246,1265,1285,1307,1326,1346,1367],"xSR":741.5,"ySR":469.95,"xT1":424.9,"yT1":0,"xT2":1058.1,"yT2":0,"toosoon":0,"cond_shown":"equaldotanddens","ratio_trial":900,"smaller_num":"18","larger_num":"20","correct_side":1,"subjID":"SANTIAGOMORALESPRIETO","gender":"0","age":"11","school":"6"},{"start_time":1551891894231,"click_time":1551891895787,"finger_time":1551891895447,"fix_duration":483.93539155861345,"trial":45,"RT":1216,"MT":340,"sideResp":1,"stimulus":"img/900/randomdotsizeEA/R/15_Ratio_900_L_9_R_10.png","xmouse":[823,823,823,823,823,823,823,823,823,823,827,827,830,831,831,832,832,832,832,832,832,832,832,832,832,832,832,832,832,832,832,832,832,832,832,832,832,832,832,832,832,832,832,832,832,832,832,832,832,832,832,832,832,832,832,833,835,838,839,841,844,844,845,845,845,845,845,845,839,829,813,790,739,705,668,611,572,497],"ymouse":[555,555,555,555,555,555,555,555,555,555,554,553,546,545,543,541,541,541,541,541,541,541,541,541,541,541,541,541,541,541,541,541,541,541,541,541,541,541,541,541,541,541,541,541,541,541,541,541,541,541,541,541,541,541,541,539,538,535,533,529,525,523,521,521,521,521,521,521,507,496,473,438,364,317,264,185,141,95],"timestamp_mouse":[16,36,54,75,95,114,135,155,174,195,215,236,255,274,296,316,335,356,375,396,416,435,455,476,496,514,536,556,575,596,616,634,655,674,696,716,734,755,776,795,814,835,855,875,895,916,935,954,974,995,1015,1035,1054,1074,1096,1116,1135,1155,1175,1195,1216,1234,1255,1274,1295,1316,1335,1356,1376,1395,1416,1434,1455,1474,1495,1515,1535,1556],"xSR":741.5,"ySR":469.95,"xT1":424.9,"yT1":0,"xT2":1058.1,"yT2":0,"toosoon":0,"cond_shown":"randomdotsizeEA","ratio_trial":900,"smaller_num":"9","larger_num":"10","correct_side":2,"subjID":"SANTIAGOMORALESPRIETO","gender":"0","age":"11","school":"6"},{"start_time":1551891900254,"click_time":1551891901447,"finger_time":1551891900887,"fix_duration":785.8678532843979,"trial":46,"RT":633,"MT":560,"sideResp":2,"stimulus":"img/750/equaldotanddens/R/5_Ratio_750_L_15_R_20.png","xmouse":[813,813,813,813,813,813,813,813,813,813,813,813,813,813,813,813,813,813,813,813,813,813,813,813,813,813,813,813,813,813,813,850,870,881,884,888,898,944,961,977,991,1017,1025,1026,1026,1026,1023,1022,1022,1017,1011,999,995,995,995,999,1007,1018,1036,1064],"ymouse":[544,544,544,544,544,544,544,544,544,544,544,544,544,544,544,544,544,544,544,544,544,544,544,544,544,544,544,544,544,544,541,514,498,487,470,456,439,384,362,340,320,280,267,263,261,258,233,205,171,153,138,117,108,103,99,92,84,79,70,62],"timestamp_mouse":[11,35,52,72,92,111,133,152,171,193,213,233,253,271,292,312,331,353,373,392,412,432,453,472,492,512,532,551,573,591,611,633,652,671,692,712,733,753,772,791,813,832,852,872,892,912,933,952,972,992,1012,1033,1051,1072,1092,1112,1132,1151,1172,1193],"xSR":741.5,"ySR":469.95,"xT1":424.9,"yT1":0,"xT2":1058.1,"yT2":0,"toosoon":0,"cond_shown":"equaldotanddens","ratio_trial":750,"smaller_num":"15","larger_num":"20","correct_side":2,"subjID":"SANTIAGOMORALESPRIETO","gender":"0","age":"11","school":"6"},{"start_time":1551891903633,"click_time":1551891904587,"finger_time":1551891903946,"fix_duration":1205.929952637008,"trial":47,"RT":313,"MT":641,"sideResp":1,"stimulus":"img/750/equaldotanddens/L/8_Ratio_750_L_4_R_3.png","xmouse":[794,794,794,794,794,794,794,794,794,794,794,794,794,795,795,787,762,696,660,625,603,589,577,574,570,561,534,493,481,474,472,472,472,472,472,472,472,472,473,474,474,474,473,466,460,456,455,453],"ymouse":[535,535,535,535,535,535,535,535,535,535,535,535,535,529,508,434,378,304,279,256,244,235,227,225,223,219,215,205,198,189,183,177,169,168,168,168,168,168,164,161,158,153,150,138,124,114,106,96],"timestamp_mouse":[13,33,54,73,94,113,132,152,173,192,214,232,254,272,294,313,333,354,372,393,413,433,453,472,492,512,534,554,573,594,613,632,654,673,693,713,732,753,773,794,813,834,854,873,892,914,933,954],"xSR":741.5,"ySR":469.95,"xT1":424.9,"yT1":0,"xT2":1058.1,"yT2":0,"toosoon":0,"cond_shown":"equaldotanddens","ratio_trial":750,"smaller_num":"3","larger_num":"4","correct_side":1,"subjID":"SANTIAGOMORALESPRIETO","gender":"0","age":"11","school":"6"},{"start_time":1551891908292,"click_time":1551891909207,"finger_time":1551891908807,"fix_duration":1405.7239233329976,"trial":48,"RT":515,"MT":400,"sideResp":2,"stimulus":"img/900/equaldotanddens/R/13_Ratio_900_L_18_R_20.png","xmouse":[805,805,805,805,805,805,805,805,805,805,805,805,805,805,805,805,805,805,805,805,805,805,805,817,827,847,861,882,907,953,976,980,988,992,998,1018,1025,1026,1019,1013,1006,1009,1022,1033,1044,1062],"ymouse":[544,544,544,544,544,544,544,544,544,544,544,544,544,544,544,544,544,544,544,544,544,544,540,524,510,485,471,453,432,384,358,353,337,325,311,258,222,194,169,149,117,103,81,69,60,49],"timestamp_mouse":[15,44,55,74,94,114,135,153,174,194,215,234,253,275,293,314,334,353,374,393,413,434,455,473,493,515,534,555,575,594,613,634,654,674,695,715,734,754,773,793,814,835,854,875,894,915],"xSR":741.5,"ySR":469.95,"xT1":424.9,"yT1":0,"xT2":1058.1,"yT2":0,"toosoon":0,"cond_shown":"equaldotanddens","ratio_trial":900,"smaller_num":"18","larger_num":"20","correct_side":2,"subjID":"SANTIAGOMORALESPRIETO","gender":"0","age":"11","school":"6"},{"start_time":1551891910849,"click_time":1551891912265,"finger_time":1551891911187,"fix_duration":741.8924449795177,"trial":49,"RT":338,"MT":1078,"sideResp":2,"stimulus":"img/250/randomdotsizeEA/R/11_Ratio_250_L_3_R_12.png","xmouse":[792,792,792,792,792,792,792,792,792,792,792,792,792,792,792,779,709,663,630,611,598,589,586,583,580,577,571,566,562,558,554,551,542,535,524,519,516,516,516,516,516,516,516,516,516,516,516,516,516,516,516,516,522,530,549,586,661,708,742,761,768,771,773,780,803,827,905,955,1011,1066,1121],"ymouse":[543,543,543,543,543,543,543,543,543,543,543,543,543,542,536,493,435,415,397,384,369,332,318,308,302,294,279,266,249,230,211,192,161,152,141,136,132,132,131,131,131,131,131,131,131,131,131,131,131,131,132,133,140,149,160,180,205,214,219,220,220,220,220,216,206,196,162,144,122,104,87],"timestamp_mouse":[18,37,58,77,98,117,137,156,177,196,217,237,257,277,298,316,338,356,378,397,418,437,457,477,497,516,538,557,577,597,617,638,657,677,697,718,738,756,777,798,817,837,857,877,897,916,937,957,977,996,1017,1037,1058,1076,1097,1117,1137,1156,1177,1197,1217,1236,1257,1278,1297,1316,1338,1357,1377,1398,1416],"xSR":741.5,"ySR":469.95,"xT1":424.9,"yT1":0,"xT2":1058.1,"yT2":0,"toosoon":0,"cond_shown":"randomdotsizeEA","ratio_trial":250,"smaller_num":"3","larger_num":"12","correct_side":2,"subjID":"SANTIAGOMORALESPRIETO","gender":"0","age":"11","school":"6"},{"start_time":1551891914245,"click_time":1551891915366,"finger_time":1551891915007,"fix_duration":957.2282187841412,"trial":50,"RT":762,"MT":359,"sideResp":1,"stimulus":"img/900/equaldotsize/L/10_Ratio_900_L_20_R_18.png","xmouse":[817,817,817,817,817,817,817,817,817,817,817,817,817,817,817,817,817,817,817,817,817,817,817,817,817,817,817,817,817,817,817,817,817,817,817,817,815,799,756,730,698,671,638,633,630,628,625,624,615,610,603,595,561,537,511,493,488],"ymouse":[519,519,519,519,519,519,519,519,519,519,519,519,519,519,519,519,519,519,519,519,519,519,519,519,519,519,519,519,519,519,519,519,519,519,519,519,519,484,360,307,268,238,209,201,197,192,189,188,183,180,174,168,149,136,121,108,98],"timestamp_mouse":[8,21,41,61,81,100,120,141,160,182,201,222,242,262,282,302,320,342,360,380,402,420,442,460,482,501,522,541,561,580,602,622,641,661,681,701,721,740,762,781,802,822,842,860,880,901,921,942,961,980,1002,1022,1043,1060,1080,1101,1121],"xSR":741.5,"ySR":469.95,"xT1":424.9,"yT1":0,"xT2":1058.1,"yT2":0,"toosoon":0,"cond_shown":"equaldotsize","ratio_trial":900,"smaller_num":"18","larger_num":"20","correct_side":1,"subjID":"SANTIAGOMORALESPRIETO","gender":"0","age":"11","school":"6"},{"start_time":1551891916237,"click_time":1551891917047,"finger_time":1551891916927,"fix_duration":250,"trial":51,"RT":690,"MT":120,"sideResp":2,"stimulus":"img/500/equaldotsize/R/12_Ratio_500_L_1_R_2.png","xmouse":[799,799,799,800,806,815,818,820,820,820,820,820,820,820,820,820,820,820,820,820,820,820,820,820,820,820,820,820,820,820,820,820,821,827,843,869,925,1010,1058,1105,1141],"ymouse":[545,545,545,546,544,540,539,538,538,538,538,538,538,538,538,538,538,538,538,538,538,538,538,538,538,538,538,538,538,538,538,538,536,513,475,418,329,209,153,103,71],"timestamp_mouse":[8,31,48,68,89,109,129,150,170,188,209,229,248,270,289,309,329,348,370,389,410,430,450,470,488,509,529,550,570,588,610,628,648,669,690,708,728,750,769,789,810],"xSR":741.5,"ySR":469.95,"xT1":424.9,"yT1":0,"xT2":1058.1,"yT2":0,"toosoon":0,"cond_shown":"equaldotsize","ratio_trial":500,"smaller_num":"1","larger_num":"2","correct_side":2,"subjID":"SANTIAGOMORALESPRIETO","gender":"0","age":"11","school":"6"},{"start_time":1551891918399,"click_time":1551891919387,"finger_time":1551891919206,"fix_duration":250,"trial":52,"RT":807,"MT":181,"sideResp":1,"stimulus":"img/750/equaldotsize/R/3_Ratio_750_L_15_R_20.png","xmouse":[790,790,790,790,790,790,790,790,790,790,790,790,790,790,790,790,790,790,790,790,790,790,790,790,790,790,790,790,790,790,790,790,790,790,790,790,790,789,784,759,666,616,569,533,511,480,474,471,467,457],"ymouse":[506,506,506,506,506,506,506,506,506,506,506,506,506,506,506,506,506,506,506,506,506,506,506,506,506,506,506,506,506,506,506,506,506,506,506,506,506,506,504,472,344,273,219,184,163,134,127,117,109,95],"timestamp_mouse":[8,37,47,66,87,108,126,147,167,187,207,227,248,267,287,307,327,348,367,387,408,426,447,467,488,507,527,548,568,587,607,626,647,666,686,708,726,746,767,787,807,828,847,867,888,907,928,947,967,988],"xSR":741.5,"ySR":469.95,"xT1":424.9,"yT1":0,"xT2":1058.1,"yT2":0,"toosoon":0,"cond_shown":"equaldotsize","ratio_trial":750,"smaller_num":"15","larger_num":"20","correct_side":2,"subjID":"SANTIAGOMORALESPRIETO","gender":"0","age":"11","school":"6"},{"start_time":1551891921703,"click_time":1551891922686,"finger_time":1551891922446,"fix_duration":1136.6729511202,"trial":53,"RT":743,"MT":240,"sideResp":2,"stimulus":"img/500/equaldotsize/R/3_Ratio_500_L_10_R_20.png","xmouse":[795,795,795,795,795,795,795,795,795,795,795,795,795,795,795,795,795,795,795,795,795,795,795,795,795,795,795,795,795,795,795,795,795,795,795,796,800,809,822,874,907,941,966,995,1022,1031,1038,1044,1053,1064],"ymouse":[507,507,507,507,507,507,507,507,507,507,507,507,507,507,507,507,507,507,507,507,507,507,507,507,507,507,507,507,507,507,507,507,507,507,507,505,488,458,416,326,290,257,229,192,145,126,113,98,85,69],"timestamp_mouse":[9,23,42,63,82,102,123,143,163,183,202,222,244,263,283,302,323,343,362,383,403,422,443,463,482,502,523,543,563,584,603,623,643,664,683,702,723,743,762,783,802,823,842,863,884,902,923,942,962,983],"xSR":741.5,"ySR":469.95,"xT1":424.9,"yT1":0,"xT2":1058.1,"yT2":0,"toosoon":0,"cond_shown":"equaldotsize","ratio_trial":500,"smaller_num":"10","larger_num":"20","correct_side":2,"subjID":"SANTIAGOMORALESPRIETO","gender":"0","age":"11","school":"6"},{"start_time":1551891926505,"click_time":1551891927987,"finger_time":1551891927705,"fix_duration":1238.47158197958,"trial":54,"RT":1200,"MT":282,"sideResp":1,"stimulus":"img/750/equaldotanddens/L/13_Ratio_750_L_8_R_6.png","xmouse":[818,818,818,818,818,818,818,818,818,818,818,818,818,818,818,818,818,818,818,818,818,818,818,818,818,818,818,818,818,818,818,818,818,818,818,818,818,818,818,818,818,818,818,818,818,818,818,818,818,818,818,818,818,818,818,819,820,820,821,820,780,744,680,638,597,594,594,594,594,594,589,577,567,556,519],"ymouse":[552,552,552,552,552,552,552,552,552,552,552,552,552,552,552,552,552,552,552,552,552,552,552,552,552,552,552,552,552,552,552,552,552,552,552,552,552,552,552,552,552,552,552,552,552,552,552,552,552,552,552,552,552,552,552,552,552,552,543,528,427,361,256,199,156,154,153,153,153,153,148,130,119,108,85],"timestamp_mouse":[9,33,41,62,80,101,121,142,161,181,201,222,242,260,280,302,321,341,361,380,401,420,441,461,481,501,522,541,561,582,600,622,641,661,680,701,720,742,760,782,802,821,841,860,882,901,922,942,961,981,1001,1021,1041,1060,1080,1101,1121,1140,1162,1181,1200,1222,1241,1261,1282,1301,1321,1341,1362,1382,1401,1421,1441,1462,1482],"xSR":741.5,"ySR":469.95,"xT1":424.9,"yT1":0,"xT2":1058.1,"yT2":0,"toosoon":0,"cond_shown":"equaldotanddens","ratio_trial":750,"smaller_num":"6","larger_num":"8","correct_side":1,"subjID":"SANTIAGOMORALESPRIETO","gender":"0","age":"11","school":"6"},{"start_time":1551891930557,"click_time":1551891931906,"finger_time":1551891931506,"fix_duration":1449.2676076237872,"trial":55,"RT":949,"MT":400,"sideResp":1,"stimulus":"img/750/randomdotsizeEA/L/6_Ratio_750_L_24_R_18.png","xmouse":[808,808,808,808,808,808,808,808,808,808,808,808,808,808,808,808,808,808,808,808,808,808,808,808,808,808,808,808,808,808,808,808,808,808,808,808,808,808,808,808,808,808,808,808,808,808,806,803,799,791,764,695,666,650,638,627,609,603,600,595,594,590,587,581,572,565,542,517],"ymouse":[500,500,500,500,500,500,500,500,500,500,500,500,500,500,500,500,500,500,500,500,500,500,500,500,500,500,500,500,500,500,500,500,500,500,496,494,488,487,486,486,486,486,486,486,486,485,473,459,442,419,361,260,221,192,171,152,119,109,102,94,92,85,82,77,74,73,74,84],"timestamp_mouse":[11,32,49,68,90,108,129,148,168,189,209,229,253,268,289,308,330,348,369,390,409,430,448,469,490,508,530,548,569,588,608,630,649,669,689,710,729,749,769,788,810,828,848,869,890,908,930,949,969,988,1010,1030,1048,1070,1089,1109,1130,1149,1169,1189,1209,1230,1248,1269,1289,1309,1331,1348],"xSR":741.5,"ySR":469.95,"xT1":424.9,"yT1":0,"xT2":1058.1,"yT2":0,"toosoon":0,"cond_shown":"randomdotsizeEA","ratio_trial":750,"smaller_num":"18","larger_num":"24","correct_side":1,"subjID":"SANTIAGOMORALESPRIETO","gender":"0","age":"11","school":"6"},{"start_time":1551891934260,"click_time":1551891935906,"finger_time":1551891935147,"fix_duration":1473.0800758764499,"trial":56,"RT":887,"MT":759,"sideResp":1,"stimulus":"img/250/equaldotanddens/L/2_Ratio_250_L_16_R_4.png","xmouse":[800,800,800,800,800,800,800,800,800,800,801,805,805,805,805,805,805,805,805,805,805,805,805,805,805,805,805,805,805,805,805,805,805,805,805,805,805,805,805,805,805,805,809,818,865,900,940,951,959,962,964,964,964,964,964,964,964,964,964,964,964,945,843,746,711,618,552,539,530,526,525,521,516,506,494,492,491,491,491,491,491,491,489],"ymouse":[521,521,521,521,521,521,521,521,521,521,513,503,501,501,501,501,501,501,501,501,501,501,501,501,501,501,501,501,501,501,501,501,501,501,501,501,501,501,501,501,501,501,496,486,443,414,379,369,362,357,354,354,354,354,354,354,354,354,354,354,354,353,347,332,323,283,223,207,195,188,182,161,146,126,109,106,105,105,105,105,102,102,98],"timestamp_mouse":[10,42,46,66,87,105,125,147,165,187,207,226,247,265,285,306,326,345,366,387,405,425,447,467,486,506,526,545,566,586,605,627,647,665,686,706,725,747,765,785,806,826,845,866,887,905,927,946,966,986,1006,1026,1045,1066,1087,1106,1126,1146,1167,1187,1206,1226,1246,1265,1285,1306,1327,1345,1366,1386,1406,1428,1445,1466,1486,1507,1525,1545,1566,1586,1