[{"start_time":1551891040760,"click_time":1551891043454,"finger_time":1551891042355,"fix_duration":1321.3608168922224,"trial":0,"RT":1595,"MT":1099,"sideResp":2,"stimulus":[],"xmouse":[779,779,779,779,779,779,779,779,779,779,778,776,774,774,774,773,773,773,773,773,773,773,773,773,773,773,773,773,773,773,773,773,773,773,773,773,773,773,773,773,773,773,773,773,773,773,773,773,773,773,773,773,773,773,773,773,773,773,773,773,773,773,773,773,773,773,773,773,773,773,773,773,773,773,773,773,773,780,814,874,967,1005,1025,1031,1031,1031,1031,1031,1031,1027,1025,1025,1025,1024,1024,1023,1023,1022,1022,1021,1016,1011,1006,1004,1004,1008,1020,1035,1062,1069,1075,1081,1092,1114,1118,1119,1119,1120,1121,1121,1121,1122,1124,1126,1127,1127,1125,1124,1124,1124,1123,1121,1120,1117,1117],"ymouse":[519,519,519,519,519,519,519,519,519,519,519,519,519,519,519,520,520,520,520,520,520,520,520,520,520,520,520,520,520,520,520,520,520,520,520,520,520,520,520,520,520,520,520,520,520,520,520,520,520,520,520,520,520,520,520,520,520,520,520,520,520,520,520,520,520,520,520,520,520,520,520,520,520,520,520,520,520,515,498,473,442,432,425,422,421,420,418,414,402,396,386,380,373,357,351,345,341,337,327,324,318,315,313,311,309,305,299,290,277,270,261,251,237,200,181,170,163,159,157,156,154,152,148,142,137,132,129,128,127,125,122,119,114,104,99],"timestamp_mouse":[31,35,55,74,94,114,134,155,174,194,214,234,254,274,294,315,335,355,374,394,415,436,454,474,495,514,535,555,575,595,615,635,655,674,696,715,734,755,775,795,815,835,854,874,894,915,935,955,974,996,1015,1034,1055,1075,1095,1115,1135,1154,1175,1195,1215,1234,1254,1274,1294,1316,1335,1355,1375,1394,1415,1434,1455,1474,1495,1515,1534,1555,1574,1595,1614,1634,1654,1675,1694,1715,1734,1755,1774,1795,1814,1834,1855,1875,1894,1914,1935,1955,1974,1995,2014,2035,2054,2075,2094,2114,2135,2154,2174,2194,2214,2235,2255,2274,2294,2314,2334,2354,2375,2394,2414,2434,2455,2475,2494,2514,2534,2555,2574,2595,2614,2634,2655,2674,2694],"xSR":741.5,"ySR":469.95,"xT1":424.9,"yT1":0,"xT2":1058.1,"yT2":0,"toosoon":0,"cond_shown":"Incongruent","ratio_trial":300,"L_num":8,"L_den":10,"R_num":9,"R_den":18,"correct_side":1,"subjID":"SANTIAGOMORALESPRIETO1","gender":"0","age":"11","school":"6","test":{"fix_dur":[250,1500],"timestim":1000,"targets_dim":[100,100],"targets_relative_coord":[0.3,0.7],"size_stim":[880,420],"start_dim":[100,100],"size_start":[300,300],"size_fix":60,"samplingrate":20,"img_types":["Congruent","Incongruent"],"ratios":[100,200,300],"rep_conds":19,"nTrials":120,"trials_to_rest":500,"Trials_order":[107,7,53,16,87,2,70,109,11,37,54,62,15,68,119,31,79,13,91,45,55,80,46,73,43,101,21,41,116,57,112,64,58,34,96,114,18,115,98,33,61,17,49,92,93,47,32,42,102,24,72,71,66,110,3,9,75,27,95,103,59,81,14,104,85,117,39,60,4,22,78,50,113,26,65,100,90,25,94,88,0,97,12,111,52,89,8,5,76,40,83,35,108,99,28,74,106,30,20,84,63,44,82,69,38,77,118,105,56,23,67,6,1,19,51,48,29,10,86,36],"cond_shown":["Incongruent","Incongruent","Incongruent","Congruent","Incongruent","Congruent","Congruent","Incongruent","Incongruent","Incongruent","Congruent","Congruent","Incongruent","Congruent","Incongruent","Incongruent","Incongruent","Incongruent","Incongruent","Incongruent","Incongruent","Congruent","Congruent","Incongruent","Incongruent","Incongruent","Incongruent","Incongruent","Congruent","Incongruent","Congruent","Congruent","Congruent","Congruent","Congruent","Congruent","Congruent","Incongruent","Congruent","Incongruent","Incongruent","Incongruent","Incongruent","Congruent","Incongruent","Incongruent","Congruent","Congruent","Congruent","Congruent","Congruent","Incongruent","Congruent","Congruent","Incongruent","Incongruent","Incongruent","Incongruent","Incongruent","Incongruent","Incongruent","Incongruent","Congruent","Congruent","Incongruent","Incongruent","Incongruent","Congruent","Congruent","Congruent","Congruent","Congruent","Incongruent","Congruent","Incongruent","Congruent","Congruent","Incongruent","Congruent","Congruent","Congruent","Incongruent","Congruent","Incongruent","Congruent","Incongruent","Congruent","Incongruent","Congruent","Congruent","Incongruent","Incongruent","Congruent","Incongruent","Congruent","Congruent","Congruent","Congruent","Congruent","Congruent","Incongruent","Congruent","Congruent","Incongruent","Congruent","Incongruent","Congruent","Incongruent","Congruent","Incongruent","Incongruent","Congruent","Incongruent","Incongruent","Incongruent","Congruent","Incongruent","Congruent","Congruent","Congruent"],"ratio_trial":[300,100,300,300,200,200,300,100,300,100,100,200,200,200,300,100,100,100,100,200,100,200,300,100,100,300,200,300,200,200,300,300,300,300,100,100,100,100,200,200,100,300,100,200,200,300,200,100,100,100,100,300,100,200,200,200,200,200,300,100,300,200,200,200,100,200,200,100,300,300,100,200,300,200,300,300,100,100,300,300,100,100,100,200,300,300,200,300,300,300,300,300,100,200,300,200,300,100,200,100,200,200,300,200,200,300,300,200,200,300,100,100,100,100,200,100,300,300,200,100],"left_num":[8,8,13,4,9,21,8,1,3,3,10,3,1,16,1,12,3,10,3,7,6,3,12,4,11,8,3,4,7,14,24,8,2,2,6,7,9,8,3,3,3,1,6,6,7,4,12,3,4,11,11,2,11,3,11,6,4,4,13,9,4,6,9,3,12,4,11,8,3,12,1,3,4,3,4,1,8,3,20,3,4,10,3,4,1,13,3,4,20,8,13,13,6,1,3,4,20,9,3,15,7,4,12,4,13,8,2,4,4,13,12,1,17,13,7,4,3,3,3,4],"right_num":[9,6,12,13,8,2,1,8,4,11,3,9,2,12,3,9,8,9,7,12,3,11,2,8,9,9,11,8,2,6,2,10,10,12,15,15,8,6,7,1,4,3,3,7,8,2,6,4,6,6,4,6,6,14,3,3,1,1,12,14,2,3,4,14,9,1,3,2,11,2,3,11,2,14,2,8,2,8,8,2,15,9,4,14,11,12,7,6,5,1,12,12,5,3,2,3,13,8,9,13,4,3,2,1,14,14,10,6,3,12,9,3,10,6,8,15,4,11,11,6],"left_den":[10,16,26,20,15,30,16,2,6,5,25,12,3,20,2,24,5,25,9,10,12,10,24,8,22,10,4,5,21,30,30,15,20,10,12,14,15,16,10,10,6,2,12,12,10,20,20,20,8,22,22,4,22,6,20,20,30,30,26,15,20,20,20,6,24,30,20,16,12,24,2,10,20,10,20,30,16,5,25,6,10,25,20,6,5,26,10,5,25,16,26,26,20,2,6,8,25,15,12,25,15,10,24,30,26,10,20,5,10,26,24,2,30,26,10,10,6,12,10,8],"right_den":[18,10,15,26,10,4,5,20,20,22,10,20,15,20,15,15,16,18,30,24,5,22,10,20,15,18,20,16,15,9,4,12,25,24,25,25,16,10,14,2,10,15,5,10,16,4,15,16,10,15,10,30,15,20,4,6,3,3,15,28,4,6,16,20,15,3,4,5,20,10,5,22,4,28,4,24,5,16,16,10,30,18,16,30,22,15,14,12,10,5,15,15,25,10,10,10,26,16,20,26,6,15,10,3,20,28,25,10,15,15,15,5,15,10,16,30,20,20,22,10],"correct_side":[1,2,2,2,2,1,1,1,1,1,1,2,1,1,1,2,1,2,1,1,2,2,1,1,2,1,1,1,1,2,1,2,2,2,2,2,1,2,2,2,1,1,2,2,1,2,1,2,2,1,1,1,1,2,2,2,2,2,2,1,2,2,1,2,2,2,2,1,2,1,2,2,2,2,2,2,1,1,1,1,2,2,2,1,2,2,2,1,1,1,2,2,1,1,1,1,1,1,2,1,2,1,1,2,2,1,2,1,1,2,2,2,2,2,1,2,1,2,2,2],"img_shown":["img2/300/Incongruent/L/I_Dist_300_LN_8_LD_10_RN_9_RD_18_0.png","img2/100/Incongruent/R/I_Dist_100_LN_8_LD_16_RN_6_RD_10_1.png","img2/300/Incongruent/R/I_Dist_300_LN_13_LD_26_RN_12_RD_15_1.png","img2/300/Congruent/R/C_Dist_300_LN_4_LD_20_RN_13_RD_26_1.png","img2/200/Incongruent/R/I_Dist_200_LN_9_LD_15_RN_8_RD_10_1.png","img2/200/Congruent/L/C_Dist_200_LN_21_LD_30_RN_2_RD_4_0.png","img2/300/Congruent/L/C_Dist_300_LN_8_LD_16_RN_1_RD_5_0.png","img2/100/Incongruent/L/I_Dist_100_LN_1_LD_2_RN_8_RD_20_0.png","img2/300/Incongruent/L/I_Dist_300_LN_3_LD_6_RN_4_RD_20_0.png","img2/100/Incongruent/L/I_Dist_100_LN_3_LD_5_RN_11_RD_22_0.png","img2/100/Congruent/L/C_Dist_100_LN_10_LD_25_RN_3_RD_10_0.png","img2/200/Congruent/R/C_Dist_200_LN_3_LD_12_RN_9_RD_20_1.png","img2/200/Incongruent/L/I_Dist_200_LN_1_LD_3_RN_2_RD_15_0.png","img2/200/Congruent/L/C_Dist_200_LN_16_LD_20_RN_12_RD_20_0.png","img2/300/Incongruent/L/I_Dist_300_LN_1_LD_2_RN_3_RD_15_0.png","img2/100/Incongruent/R/I_Dist_100_LN_12_LD_24_RN_9_RD_15_1.png","img2/100/Incongruent/L/I_Dist_100_LN_3_LD_5_RN_8_RD_16_0.png","img2/100/Incongruent/R/I_Dist_100_LN_10_LD_25_RN_9_RD_18_1.png","img2/100/Incongruent/L/I_Dist_100_LN_3_LD_9_RN_7_RD_30_0.png","img2/200/Incongruent/L/I_Dist_200_LN_7_LD_10_RN_12_RD_24_0.png","img2/100/Incongruent/R/I_Dist_100_LN_6_LD_12_RN_3_RD_5_1.png","img2/200/Congruent/R/C_Dist_200_LN_3_LD_10_RN_11_RD_22_1.png","img2/300/Congruent/L/C_Dist_300_LN_12_LD_24_RN_2_RD_10_0.png","img2/100/Incongruent/L/I_Dist_100_LN_4_LD_8_RN_8_RD_20_0.png","img2/100/Incongruent/R/I_Dist_100_LN_11_LD_22_RN_9_RD_15_1.png","img2/300/Incongruent/L/I_Dist_300_LN_8_LD_10_RN_9_RD_18_0.png","img2/200/Incongruent/L/I_Dist_200_LN_3_LD_4_RN_11_RD_20_0.png","img2/300/Incongruent/L/I_Dist_300_LN_4_LD_5_RN_8_RD_16_0.png","img2/200/Congruent/L/C_Dist_200_LN_7_LD_21_RN_2_RD_15_0.png","img2/200/Incongruent/R/I_Dist_200_LN_14_LD_30_RN_6_RD_9_1.png","img2/300/Congruent/L/C_Dist_300_LN_24_LD_30_RN_2_RD_4_0.png","img2/300/Congruent/R/C_Dist_300_LN_8_LD_15_RN_10_RD_12_1.png","img2/300/Congruent/R/C_Dist_300_LN_2_LD_20_RN_10_RD_25_1.png","img2/300/Congruent/R/C_Dist_300_LN_2_LD_10_RN_12_RD_24_1.png","img2/100/Congruent/R/C_Dist_100_LN_6_LD_12_RN_15_RD_25_1.png","img2/100/Congruent/R/C_Dist_100_LN_7_LD_14_RN_15_RD_25_1.png","img2/100/Congruent/L/C_Dist_100_LN_9_LD_15_RN_8_RD_16_0.png","img2/100/Incongruent/R/I_Dist_100_LN_8_LD_16_RN_6_RD_10_1.png","img2/200/Congruent/R/C_Dist_200_LN_3_LD_10_RN_7_RD_14_1.png","img2/200/Incongruent/R/I_Dist_200_LN_3_LD_10_RN_1_RD_2_1.png","img2/100/Incongruent/L/I_Dist_100_LN_3_LD_6_RN_4_RD_10_0.png","img2/300/Incongruent/L/I_Dist_300_LN_1_LD_2_RN_3_RD_15_0.png","img2/100/Incongruent/R/I_Dist_100_LN_6_LD_12_RN_3_RD_5_1.png","img2/200/Congruent/R/C_Dist_200_LN_6_LD_12_RN_7_RD_10_1.png","img2/200/Incongruent/L/I_Dist_200_LN_7_LD_10_RN_8_RD_16_0.png","img2/300/Incongruent/R/I_Dist_300_LN_4_LD_20_RN_2_RD_4_1.png","img2/200/Congruent/L/C_Dist_200_LN_12_LD_20_RN_6_RD_15_0.png","img2/100/Congruent/R/C_Dist_100_LN_3_LD_20_RN_4_RD_16_1.png","img2/100/Congruent/R/C_Dist_100_LN_4_LD_8_RN_6_RD_10_1.png","img2/100/Congruent/L/C_Dist_100_LN_11_LD_22_RN_6_RD_15_0.png","img2/100/Congruent/L/C_Dist_100_LN_11_LD_22_RN_4_RD_10_0.png","img2/300/Incongruent/L/I_Dist_300_LN_2_LD_4_RN_6_RD_30_0.png","img2/100/Congruent/L/C_Dist_100_LN_11_LD_22_RN_6_RD_15_0.png","img2/200/Congruent/R/C_Dist_200_LN_3_LD_6_RN_14_RD_20_1.png","img2/200/Incongruent/R/I_Dist_200_LN_11_LD_20_RN_3_RD_4_1.png","img2/200/Incongruent/R/I_Dist_200_LN_6_LD_20_RN_3_RD_6_1.png","img2/200/Incongruent/R/I_Dist_200_LN_4_LD_30_RN_1_RD_3_1.png","img2/200/Incongruent/R/I_Dist_200_LN_4_LD_30_RN_1_RD_3_1.png","img2/300/Incongruent/R/I_Dist_300_LN_13_LD_26_RN_12_RD_15_1.png","img2/100/Incongruent/L/I_Dist_100_LN_9_LD_15_RN_14_RD_28_0.png","img2/300/Incongruent/R/I_Dist_300_LN_4_LD_20_RN_2_RD_4_1.png","img2/200/Incongruent/R/I_Dist_200_LN_6_LD_20_RN_3_RD_6_1.png","img2/200/Congruent/L/C_Dist_200_LN_9_LD_20_RN_4_RD_16_0.png","img2/200/Congruent/R/C_Dist_200_LN_3_LD_6_RN_14_RD_20_1.png","img2/100/Incongruent/R/I_Dist_100_LN_12_LD_24_RN_9_RD_15_1.png","img2/200/Incongruent/R/I_Dist_200_LN_4_LD_30_RN_1_RD_3_1.png","img2/200/Incongruent/R/I_Dist_200_LN_11_LD_20_RN_3_RD_4_1.png","img2/100/Congruent/L/C_Dist_100_LN_8_LD_16_RN_2_RD_5_0.png","img2/300/Congruent/R/C_Dist_300_LN_3_LD_12_RN_11_RD_20_1.png","img2/300/Congruent/L/C_Dist_300_LN_12_LD_24_RN_2_RD_10_0.png","img2/100/Congruent/R/C_Dist_100_LN_1_LD_2_RN_3_RD_5_1.png","img2/200/Congruent/R/C_Dist_200_LN_3_LD_10_RN_11_RD_22_1.png","img2/300/Incongruent/R/I_Dist_300_LN_4_LD_20_RN_2_RD_4_1.png","img2/200/Congruent/R/C_Dist_200_LN_3_LD_10_RN_14_RD_28_1.png","img2/300/Incongruent/R/I_Dist_300_LN_4_LD_20_RN_2_RD_4_1.png","img2/300/Congruent/R/C_Dist_300_LN_1_LD_30_RN_8_RD_24_1.png","img2/100/Congruent/L/C_Dist_100_LN_8_LD_16_RN_2_RD_5_0.png","img2/100/Incongruent/L/I_Dist_100_LN_3_LD_5_RN_8_RD_16_0.png","img2/300/Congruent/L/C_Dist_300_LN_20_LD_25_RN_8_RD_16_0.png","img2/300/Congruent/L/C_Dist_300_LN_3_LD_6_RN_2_RD_10_0.png","img2/100/Congruent/R/C_Dist_100_LN_4_LD_10_RN_15_RD_30_1.png","img2/100/Incongruent/R/I_Dist_100_LN_10_LD_25_RN_9_RD_18_1.png","img2/100/Congruent/R/C_Dist_100_LN_3_LD_20_RN_4_RD_16_1.png","img2/200/Incongruent/L/I_Dist_200_LN_4_LD_6_RN_14_RD_30_0.png","img2/300/Congruent/R/C_Dist_300_LN_1_LD_5_RN_11_RD_22_1.png","img2/300/Incongruent/R/I_Dist_300_LN_13_LD_26_RN_12_RD_15_1.png","img2/200/Congruent/R/C_Dist_200_LN_3_LD_10_RN_7_RD_14_1.png","img2/300/Incongruent/L/I_Dist_300_LN_4_LD_5_RN_6_RD_12_0.png","img2/300/Congruent/L/C_Dist_300_LN_20_LD_25_RN_5_RD_10_0.png","img2/300/Congruent/L/C_Dist_300_LN_8_LD_16_RN_1_RD_5_0.png","img2/300/Incongruent/R/I_Dist_300_LN_13_LD_26_RN_12_RD_15_1.png","img2/300/Incongruent/R/I_Dist_300_LN_13_LD_26_RN_12_RD_15_1.png","img2/100/Congruent/L/C_Dist_100_LN_6_LD_20_RN_5_RD_25_0.png","img2/200/Incongruent/L/I_Dist_200_LN_1_LD_2_RN_3_RD_10_0.png","img2/300/Congruent/L/C_Dist_300_LN_3_LD_6_RN_2_RD_10_0.png","img2/200/Congruent/L/C_Dist_200_LN_4_LD_8_RN_3_RD_10_0.png","img2/300/Congruent/L/C_Dist_300_LN_20_LD_25_RN_13_RD_26_0.png","img2/100/Congruent/L/C_Dist_100_LN_9_LD_15_RN_8_RD_16_0.png","img2/200/Congruent/R/C_Dist_200_LN_3_LD_12_RN_9_RD_20_1.png","img2/100/Congruent/L/C_Dist_100_LN_15_LD_25_RN_13_RD_26_0.png","img2/200/Incongruent/R/I_Dist_200_LN_7_LD_15_RN_4_RD_6_1.png","img2/200/Congruent/L/C_Dist_200_LN_4_LD_10_RN_3_RD_15_0.png","img2/300/Congruent/L/C_Dist_300_LN_12_LD_24_RN_2_RD_10_0.png","img2/200/Incongruent/R/I_Dist_200_LN_4_LD_30_RN_1_RD_3_1.png","img2/200/Congruent/R/C_Dist_200_LN_13_LD_26_RN_14_RD_20_1.png","img2/300/Incongruent/L/I_Dist_300_LN_8_LD_10_RN_14_RD_28_0.png","img2/300/Congruent/R/C_Dist_300_LN_2_LD_20_RN_10_RD_25_1.png","img2/200/Incongruent/L/I_Dist_200_LN_4_LD_5_RN_6_RD_10_0.png","img2/200/Congruent/L/C_Dist_200_LN_4_LD_10_RN_3_RD_15_0.png","img2/300/Incongruent/R/I_Dist_300_LN_13_LD_26_RN_12_RD_15_1.png","img2/100/Incongruent/R/I_Dist_100_LN_12_LD_24_RN_9_RD_15_1.png","img2/100/Congruent/R/C_Dist_100_LN_1_LD_2_RN_3_RD_5_1.png","img2/100/Incongruent/R/I_Dist_100_LN_17_LD_30_RN_10_RD_15_1.png","img2/100/Incongruent/R/I_Dist_100_LN_13_LD_26_RN_6_RD_10_1.png","img2/200/Incongruent/L/I_Dist_200_LN_7_LD_10_RN_8_RD_16_0.png","img2/100/Congruent/R/C_Dist_100_LN_4_LD_10_RN_15_RD_30_1.png","img2/300/Incongruent/L/I_Dist_300_LN_3_LD_6_RN_4_RD_20_0.png","img2/300/Congruent/R/C_Dist_300_LN_3_LD_12_RN_11_RD_20_1.png","img2/200/Congruent/R/C_Dist_200_LN_3_LD_10_RN_11_RD_22_1.png","img2/100/Congruent/R/C_Dist_100_LN_4_LD_8_RN_6_RD_10_1.png"],"dist100_C":[["C_Dist_100_LN_10_LD_25_RN_3_RD_10_0.png","C_Dist_100_LN_11_LD_22_RN_4_RD_10_0.png","C_Dist_100_LN_11_LD_22_RN_6_RD_15_0.png","C_Dist_100_LN_15_LD_25_RN_13_RD_26_0.png","C_Dist_100_LN_3_LD_6_RN_2_RD_5_0.png","C_Dist_100_LN_6_LD_20_RN_5_RD_25_0.png","C_Dist_100_LN_8_LD_16_RN_2_RD_5_0.png","C_Dist_100_LN_9_LD_15_RN_8_RD_16_0.png"],["C_Dist_100_LN_1_LD_2_RN_18_RD_30_1.png","C_Dist_100_LN_1_LD_2_RN_3_RD_5_1.png","C_Dist_100_LN_12_LD_30_RN_13_RD_26_1.png","C_Dist_100_LN_2_LD_5_RN_11_RD_22_1.png","C_Dist_100_LN_2_LD_5_RN_6_RD_12_1.png","C_Dist_100_LN_3_LD_20_RN_4_RD_16_1.png","C_Dist_100_LN_4_LD_10_RN_15_RD_30_1.png","C_Dist_100_LN_4_LD_8_RN_6_RD_10_1.png","C_Dist_100_LN_6_LD_12_RN_15_RD_25_1.png","C_Dist_100_LN_7_LD_14_RN_15_RD_25_1.png","C_Dist_100_LN_7_LD_14_RN_9_RD_15_1.png"]],"dist100_I":[["I_Dist_100_LN_1_LD_2_RN_8_RD_20_0.png","I_Dist_100_LN_2_LD_4_RN_6_RD_15_0.png","I_Dist_100_LN_2_LD_4_RN_8_RD_20_0.png","I_Dist_100_LN_3_LD_5_RN_11_RD_22_0.png","I_Dist_100_LN_3_LD_5_RN_8_RD_16_0.png","I_Dist_100_LN_3_LD_6_RN_4_RD_10_0.png","I_Dist_100_LN_3_LD_9_RN_7_RD_30_0.png","I_Dist_100_LN_4_LD_8_RN_8_RD_20_0.png","I_Dist_100_LN_6_LD_10_RN_11_RD_22_0.png","I_Dist_100_LN_6_LD_10_RN_13_RD_26_0.png","I_Dist_100_LN_6_LD_10_RN_7_RD_14_0.png","I_Dist_100_LN_9_LD_10_RN_20_RD_25_0.png","I_Dist_100_LN_9_LD_15_RN_13_RD_26_0.png","I_Dist_100_LN_9_LD_15_RN_14_RD_28_0.png"],["I_Dist_100_LN_10_LD_25_RN_8_RD_16_1.png","I_Dist_100_LN_10_LD_25_RN_9_RD_18_1.png","I_Dist_100_LN_11_LD_22_RN_9_RD_15_1.png","I_Dist_100_LN_12_LD_24_RN_9_RD_15_1.png","I_Dist_100_LN_12_LD_30_RN_2_RD_4_1.png","I_Dist_100_LN_13_LD_26_RN_12_RD_20_1.png","I_Dist_100_LN_13_LD_26_RN_6_RD_10_1.png","I_Dist_100_LN_17_LD_30_RN_10_RD_15_1.png","I_Dist_100_LN_6_LD_12_RN_3_RD_5_1.png","I_Dist_100_LN_8_LD_16_RN_6_RD_10_1.png","I_Dist_100_LN_8_LD_20_RN_1_RD_2_1.png","I_Dist_100_LN_9_LD_18_RN_6_RD_10_1.png"]],"dist100_S":[["E_Dist_100_LN_2_LD_12_RN_2_RD_30_0.png","E_Dist_100_LN_6_LD_10_RN_6_RD_12_0.png"],["E_Dist_100_LN_6_LD_12_RN_6_RD_10_1.png"]],"dist200_C":[["C_Dist_200_LN_11_LD_22_RN_3_RD_10_0.png","C_Dist_200_LN_12_LD_15_RN_6_RD_10_0.png","C_Dist_200_LN_12_LD_20_RN_6_RD_15_0.png","C_Dist_200_LN_14_LD_28_RN_6_RD_20_0.png","C_Dist_200_LN_15_LD_25_RN_4_RD_10_0.png","C_Dist_200_LN_16_LD_20_RN_12_RD_20_0.png","C_Dist_200_LN_16_LD_30_RN_9_RD_27_0.png","C_Dist_200_LN_20_LD_25_RN_9_RD_15_0.png","C_Dist_200_LN_21_LD_30_RN_2_RD_4_0.png","C_Dist_200_LN_4_LD_10_RN_3_RD_15_0.png","C_Dist_200_LN_4_LD_8_RN_3_RD_10_0.png","C_Dist_200_LN_6_LD_15_RN_3_RD_15_0.png","C_Dist_200_LN_7_LD_21_RN_2_RD_15_0.png","C_Dist_200_LN_8_LD_15_RN_2_RD_6_0.png","C_Dist_200_LN_8_LD_15_RN_3_RD_9_0.png","C_Dist_200_LN_8_LD_15_RN_7_RD_21_0.png","C_Dist_200_LN_9_LD_20_RN_4_RD_16_0.png"],["C_Dist_200_LN_1_LD_2_RN_21_RD_30_1.png","C_Dist_200_LN_13_LD_26_RN_14_RD_20_1.png","C_Dist_200_LN_3_LD_10_RN_11_RD_22_1.png","C_Dist_200_LN_3_LD_10_RN_14_RD_28_1.png","C_Dist_200_LN_3_LD_10_RN_7_RD_14_1.png","C_Dist_200_LN_3_LD_12_RN_9_RD_20_1.png","C_Dist_200_LN_3_LD_6_RN_14_RD_20_1.png","C_Dist_200_LN_5_LD_10_RN_14_RD_20_1.png","C_Dist_200_LN_6_LD_12_RN_7_RD_10_1.png","C_Dist_200_LN_6_LD_20_RN_11_RD_22_1.png","C_Dist_200_LN_7_LD_15_RN_18_RD_27_1.png","C_Dist_200_LN_9_LD_30_RN_13_RD_26_1.png"]],"dist200_I":[["I_Dist_200_LN_1_LD_2_RN_3_RD_10_0.png","I_Dist_200_LN_1_LD_3_RN_2_RD_15_0.png","I_Dist_200_LN_3_LD_4_RN_11_RD_20_0.png","I_Dist_200_LN_4_LD_5_RN_6_RD_10_0.png","I_Dist_200_LN_4_LD_6_RN_14_RD_30_0.png","I_Dist_200_LN_7_LD_10_RN_12_RD_24_0.png","I_Dist_200_LN_7_LD_10_RN_14_RD_28_0.png","I_Dist_200_LN_7_LD_10_RN_8_RD_16_0.png"],["I_Dist_200_LN_11_LD_20_RN_3_RD_4_1.png","I_Dist_200_LN_14_LD_30_RN_12_RD_18_1.png","I_Dist_200_LN_14_LD_30_RN_6_RD_9_1.png","I_Dist_200_LN_3_LD_10_RN_1_RD_2_1.png","I_Dist_200_LN_4_LD_30_RN_1_RD_3_1.png","I_Dist_200_LN_6_LD_20_RN_3_RD_6_1.png","I_Dist_200_LN_7_LD_15_RN_4_RD_6_1.png","I_Dist_200_LN_7_LD_15_RN_6_RD_9_1.png","I_Dist_200_LN_9_LD_15_RN_8_RD_10_1.png"]],"dist200_S":[["E_Dist_200_LN_3_LD_6_RN_3_RD_10_0.png"],["E_Dist_200_LN_3_LD_10_RN_3_RD_6_1.png"]],"dist300_C":[["C_Dist_300_LN_11_LD_22_RN_1_RD_5_0.png","C_Dist_300_LN_11_LD_22_RN_2_RD_10_0.png","C_Dist_300_LN_11_LD_22_RN_4_RD_20_0.png","C_Dist_300_LN_12_LD_24_RN_2_RD_10_0.png","C_Dist_300_LN_18_LD_20_RN_9_RD_15_0.png","C_Dist_300_LN_20_LD_25_RN_13_RD_26_0.png","C_Dist_300_LN_20_LD_25_RN_14_RD_28_0.png","C_Dist_300_LN_20_LD_25_RN_5_RD_10_0.png","C_Dist_300_LN_20_LD_25_RN_8_RD_16_0.png","C_Dist_300_LN_20_LD_25_RN_9_RD_18_0.png","C_Dist_300_LN_24_LD_30_RN_2_RD_4_0.png","C_Dist_300_LN_24_LD_30_RN_8_RD_16_0.png","C_Dist_300_LN_3_LD_6_RN_2_RD_10_0.png","C_Dist_300_LN_4_LD_10_RN_1_RD_10_0.png","C_Dist_300_LN_4_LD_5_RN_2_RD_4_0.png","C_Dist_300_LN_8_LD_16_RN_1_RD_5_0.png","C_Dist_300_LN_9_LD_10_RN_3_RD_5_0.png"],["C_Dist_300_LN_1_LD_20_RN_7_RD_20_1.png","C_Dist_300_LN_1_LD_3_RN_19_RD_30_1.png","C_Dist_300_LN_1_LD_30_RN_8_RD_24_1.png","C_Dist_300_LN_1_LD_5_RN_11_RD_22_1.png","C_Dist_300_LN_1_LD_5_RN_3_RD_6_1.png","C_Dist_300_LN_1_LD_5_RN_6_RD_12_1.png","C_Dist_300_LN_2_LD_10_RN_12_RD_24_1.png","C_Dist_300_LN_2_LD_20_RN_10_RD_25_1.png","C_Dist_300_LN_3_LD_12_RN_11_RD_20_1.png","C_Dist_300_LN_3_LD_6_RN_4_RD_5_1.png","C_Dist_300_LN_4_LD_20_RN_13_RD_26_1.png","C_Dist_300_LN_5_LD_25_RN_6_RD_12_1.png","C_Dist_300_LN_5_LD_25_RN_7_RD_14_1.png","C_Dist_300_LN_7_LD_14_RN_20_RD_25_1.png","C_Dist_300_LN_8_LD_15_RN_10_RD_12_1.png"]],"dist300_I":[["I_Dist_300_LN_1_LD_2_RN_2_RD_10_0.png","I_Dist_300_LN_1_LD_2_RN_3_RD_15_0.png","I_Dist_300_LN_2_LD_4_RN_6_RD_30_0.png","I_Dist_300_LN_3_LD_6_RN_4_RD_20_0.png","I_Dist_300_LN_4_LD_5_RN_6_RD_12_0.png","I_Dist_300_LN_4_LD_5_RN_8_RD_16_0.png","I_Dist_300_LN_7_LD_10_RN_8_RD_20_0.png","I_Dist_300_LN_8_LD_10_RN_14_RD_28_0.png","I_Dist_300_LN_8_LD_10_RN_9_RD_18_0.png"],["I_Dist_300_LN_13_LD_26_RN_12_RD_15_1.png","I_Dist_300_LN_4_LD_20_RN_2_RD_4_1.png"]],"dist300_S":[["E_Dist_300_LN_9_LD_12_RN_9_RD_20_0.png"],["E_Dist_300_LN_18_LD_30_RN_18_RD_20_1.png","E_Dist_300_LN_3_LD_10_RN_3_RD_5_1.png","E_Dist_300_LN_9_LD_20_RN_9_RD_12_1.png"]],"dist500_C":[["C_Dist_500_LN_10_LD_13_RN_7_RD_26_0.png","C_Dist_500_LN_10_LD_15_RN_4_RD_24_0.png","C_Dist_500_LN_12_LD_16_RN_3_RD_12_0.png","C_Dist_500_LN_12_LD_18_RN_4_RD_24_0.png","C_Dist_500_LN_15_LD_18_RN_5_RD_15_0.png","C_Dist_500_LN_15_LD_20_RN_1_RD_4_0.png","C_Dist_500_LN_18_LD_27_RN_1_RD_6_0.png","C_Dist_500_LN_20_LD_24_RN_1_RD_3_0.png","C_Dist_500_LN_20_LD_24_RN_3_RD_9_0.png","C_Dist_500_LN_20_LD_24_RN_7_RD_21_0.png","C_Dist_500_LN_20_LD_28_RN_3_RD_14_0.png","C_Dist_500_LN_21_LD_28_RN_6_RD_24_0.png","C_Dist_500_LN_22_LD_28_RN_2_RD_7_0.png","C_Dist_500_LN_25_LD_30_RN_9_RD_27_0.png","C_Dist_500_LN_4_LD_6_RN_1_RD_6_0.png","C_Dist_500_LN_5_LD_6_RN_2_RD_6_0.png","C_Dist_500_LN_6_LD_9_RN_1_RD_6_0.png","C_Dist_500_LN_7_LD_10_RN_1_RD_5_0.png","C_Dist_500_LN_8_LD_12_RN_1_RD_6_0.png","C_Dist_500_LN_8_LD_12_RN_4_RD_24_0.png"],["C_Dist_500_LN_1_LD_4_RN_12_RD_16_1.png","C_Dist_500_LN_1_LD_4_RN_9_RD_12_1.png","C_Dist_500_LN_1_LD_9_RN_11_RD_18_1.png","C_Dist_500_LN_10_LD_24_RN_22_RD_24_1.png","C_Dist_500_LN_2_LD_12_RN_10_RD_15_1.png","C_Dist_500_LN_2_LD_12_RN_12_RD_18_1.png","C_Dist_500_LN_2_LD_12_RN_4_RD_6_1.png","C_Dist_500_LN_2_LD_24_RN_7_RD_12_1.png","C_Dist_500_LN_2_LD_5_RN_18_RD_20_1.png","C_Dist_500_LN_2_LD_5_RN_9_RD_10_1.png","C_Dist_500_LN_2_LD_8_RN_12_RD_16_1.png","C_Dist_500_LN_2_LD_8_RN_21_RD_28_1.png","C_Dist_500_LN_3_LD_10_RN_4_RD_5_1.png","C_Dist_500_LN_3_LD_12_RN_15_RD_20_1.png","C_Dist_500_LN_3_LD_30_RN_6_RD_10_1.png","C_Dist_500_LN_3_LD_8_RN_14_RD_16_1.png","C_Dist_500_LN_4_LD_16_RN_15_RD_20_1.png","C_Dist_500_LN_4_LD_24_RN_12_RD_18_1.png","C_Dist_500_LN_5_LD_14_RN_6_RD_7_1.png","C_Dist_500_LN_7_LD_21_RN_20_RD_24_1.png","C_Dist_500_LN_7_LD_28_RN_12_RD_16_1.png","C_Dist_500_LN_7_LD_28_RN_9_RD_12_1.png","C_Dist_500_LN_9_LD_27_RN_20_RD_24_1.png"]],"dist500_I":[["I_Dist_500_LN_2_LD_3_RN_4_RD_24_0.png","I_Dist_500_LN_5_LD_6_RN_6_RD_18_0.png","I_Dist_500_LN_7_LD_8_RN_9_RD_24_0.png"],["I_Dist_500_LN_7_LD_21_RN_5_RD_6_1.png"]],"dist500_S":[["E_Dist_500_LN_6_LD_8_RN_6_RD_24_0.png"],["E_Dist_500_LN_2_LD_12_RN_2_RD_3_1.png","E_Dist_500_LN_6_LD_24_RN_6_RD_8_1.png"]]}},{"start_time":1551891044942,"click_time":1551891046775,"finger_time":1551891046636,"fix_duration":286.95993421064014,"trial":1,"RT":1694,"MT":139,"sideResp":1,"stimulus":[],"xmouse":[803,803,803,803,803,803,803,803,803,803,803,803,803,803,803,803,803,803,803,803,803,803,803,803,803,803,803,803,803,803,803,803,803,803,803,803,803,803,803,803,803,803,803,803,803,803,803,803,803,803,803,803,803,803,803,803,803,803,803,803,803,803,803,803,803,803,803,803,803,803,803,803,803,803,803,803,803,803,803,803,803,803,802,797,781,772,763,749,721,672,531,493],"ymouse":[499,499,499,499,499,499,499,499,499,499,499,499,499,499,499,499,499,499,499,499,499,499,499,499,499,499,499,499,499,499,499,499,499,499,499,499,499,499,499,499,499,499,499,499,499,499,499,499,499,499,499,499,499,499,499,499,499,499,499,499,499,499,499,499,499,499,499,499,499,499,499,499,499,499,499,499,499,499,499,499,499,499,497,488,465,450,431,396,322,232,64,29],"timestamp_mouse":[12,39,53,73,92,112,134,153,174,193,212,232,253,273,293,312,333,352,372,392,412,432,452,472,492,512,532,552,572,593,612,632,652,672,693,712,732,752,772,793,812,832,853,872,894,912,932,953,972,992,1012,1033,1053,1073,1092,1112,1133,1153,1172,1192,1212,1232,1253,1273,1293,1313,1333,1352,1372,1392,1412,1433,1453,1473,1492,1512,1534,1552,1573,1593,1614,1633,1653,1672,1694,1712,1732,1753,1773,1792,1813,1832],"xSR":741.5,"ySR":469.95,"xT1":424.9,"yT1":0,"xT2":1058.1,"yT2":0,"toosoon":0,"cond_shown":"Incongruent","ratio_trial":100,"L_num":8,"L_den":16,"R_num":6,"R_den":10,"correct_side":2,"subjID":"SANTIAGOMORALESPRIETO1","gender":"0","school":"6","age":"11"},{"start_time":1551891048696,"click_time":1551891050174,"finger_time":1551891049674,"fix_duration":620.4549767666707,"trial":2,"RT":978,"MT":500,"sideResp":2,"stimulus":[],"xmouse":[772,772,772,772,772,772,772,772,772,772,772,772,772,772,772,772,772,772,772,772,772,772,772,772,772,772,772,772,772,772,772,772,772,772,772,772,772,772,772,772,772,772,772,773,776,779,793,810,844,888,933,1015,1067,1101,1134,1163,1220,1237,1245,1246,1246,1246,1246,1246,1246,1246,1244,1239,1231,1219,1204,1173,1165,1154],"ymouse":[524,524,524,524,524,524,524,524,524,524,524,524,524,524,524,524,524,524,524,524,524,524,524,524,524,524,524,524,524,524,524,524,524,524,524,524,524,524,524,524,524,524,524,524,523,520,506,487,451,399,346,249,184,144,102,71,25,11,4,0,0,0,0,0,0,0,0,3,7,10,13,16,16,16],"timestamp_mouse":[19,44,59,78,98,118,139,160,179,199,218,239,258,279,298,319,340,359,379,398,418,438,458,478,499,519,538,558,578,598,618,639,659,678,698,718,739,758,778,798,818,838,859,878,898,918,938,958,978,999,1018,1039,1058,1078,1099,1119,1138,1159,1178,1200,1218,1239,1259,1278,1298,1319,1338,1358,1379,1398,1419,1438,1459,1478],"xSR":741.5,"ySR":469.95,"xT1":424.9,"yT1":0,"xT2":1058.1,"yT2":0,"toosoon":0,"cond_shown":"Incongruent","ratio_trial":300,"L_num":13,"L_den":26,"R_num":12,"R_den":15,"correct_side":2,"subjID":"SANTIAGOMORALESPRIETO1","gender":"0","school":"6","age":"11"},{"start_time":1551891052783,"click_time":1551891054755,"finger_time":1551891054334,"fix_duration":1406.6452968728054,"trial":3,"RT":1551,"MT":421,"sideResp":2,"stimulus":[],"xmouse":[792,793,793,793,793,793,793,793,793,793,793,793,793,793,793,793,793,793,793,793,793,793,793,793,793,793,793,793,793,793,793,793,793,793,793,793,793,793,793,793,793,793,793,793,793,793,793,793,793,793,793,793,793,793,793,793,793,793,793,793,793,793,793,793,793,793,793,793,793,793,793,793,793,793,794,796,805,843,884,956,1005,1056,1098,1104,1110,1117,1124,1148,1164,1174,1174,1174,1173,1173,1173,1172,1169,1164,1157],"ymouse":[503,504,504,504,504,504,504,504,504,504,505,506,507,507,507,507,507,507,507,507,507,507,507,507,507,507,507,507,507,507,507,507,507,507,507,507,507,507,507,507,507,507,507,507,507,507,507,507,507,507,507,507,507,507,507,507,507,507,507,507,507,507,507,507,507,507,507,507,507,507,507,507,507,507,506,503,494,461,423,358,312,265,223,212,200,187,177,149,133,115,106,98,92,90,84,76,68,54,47],"timestamp_mouse":[11,33,52,71,92,112,131,151,172,191,212,232,251,271,292,311,332,352,372,392,411,431,451,471,493,512,532,552,571,592,611,632,651,671,693,711,732,751,773,791,812,831,851,872,892,912,932,953,973,992,1011,1031,1051,1071,1091,1112,1133,1151,1173,1191,1212,1231,1252,1272,1292,1311,1332,1352,1371,1392,1411,1431,1451,1471,1491,1512,1532,1551,1571,1591,1611,1631,1652,1671,1691,1712,1732,1751,1772,1791,1812,1832,1851,1871,1891,1911,1932,1951,1972],"xSR":741.5,"ySR":469.95,"xT1":424.9,"yT1":0,"xT2":1058.1,"yT2":0,"toosoon":0,"cond_shown":"Congruent","ratio_trial":300,"L_num":4,"L_den":20,"R_num":13,"R_den":26,"correct_side":2,"subjID":"SANTIAGOMORALESPRIETO1","gender":"0","school":"6","age":"11"},{"start_time":1551891057286,"click_time":1551891059874,"finger_time":1551891059215,"fix_duration":250,"trial":4,"RT":1929,"MT":659,"sideResp":1,"stimulus":[],"xmouse":[803,803,803,803,803,803,803,803,803,803,803,803,803,803,803,803,803,803,803,803,803,803,803,803,803,803,803,803,803,803,803,803,803,803,803,803,803,803,803,803,803,803,803,803,803,803,803,803,803,803,803,803,803,803,803,803,803,803,803,803,803,803,803,803,803,803,803,803,803,803,803,803,803,803,803,803,803,803,803,803,803,803,803,803,803,803,803,803,803,803,803,803,803,804,805,805,801,758,738,723,713,708,702,694,685,678,675,670,662,653,637,620,598,568,543,519,502,488,487,487,487,487,487,487,487,487,488,489,489,489],"ymouse":[535,535,535,535,535,535,535,535,535,535,535,535,535,535,535,535,535,535,535,535,535,535,535,535,535,535,535,535,535,535,535,535,535,535,535,535,535,535,535,535,535,535,535,535,535,535,535,535,535,535,535,535,535,535,535,535,535,535,535,535,535,535,535,535,535,535,535,535,535,535,535,535,535,535,535,535,535,535,535,535,535,535,535,535,535,535,535,535,535,535,535,535,535,526,502,479,449,362,323,294,270,249,212,199,195,191,188,180,174,169,160,152,140,132,124,118,113,110,110,110,110,110,110,110,109,108,107,103,101,98],"timestamp_mouse":[9,34,49,70,89,109,130,151,168,189,209,230,248,269,288,309,329,349,369,388,408,428,448,468,488,508,528,549,568,590,609,629,648,669,689,708,728,748,768,789,808,829,848,868,888,909,928,948,968,990,1009,1029,1049,1069,1089,1109,1128,1149,1169,1188,1209,1228,1249,1269,1289,1308,1328,1349,1369,1388,1408,1428,1449,1468,1489,1508,1529,1550,1568,1589,1609,1630,1648,1668,1690,1709,1728,1749,1770,1789,1809,1828,1848,1868,1888,1909,1929,1948,1968,1988,2009,2029,2049,2069,2088,2108,2129,2148,2168,2189,2209,2228,2248,2269,2288,2310,2328,2348,2369,2389,2408,2428,2449,2468,2490,2508,2528,2548,2568,2588],"xSR":741.5,"ySR":469.95,"xT1":424.9,"yT1":0,"xT2":1058.1,"yT2":0,"toosoon":0,"cond_shown":"Incongruent","ratio_trial":200,"L_num":9,"L_den":15,"R_num":8,"R_den":10,"correct_side":2,"subjID":"SANTIAGOMORALESPRIETO1","gender":"0","school":"6","age":"11"},{"start_time":1551891061533,"click_time":1551891063396,"finger_time":1551891063034,"fix_duration":437.5957102605911,"trial":5,"RT":1501,"MT":362,"sideResp":1,"stimulus":[],"xmouse":[802,802,802,802,802,802,802,802,802,802,802,802,802,802,802,802,802,802,802,802,802,802,802,802,802,802,802,802,802,802,802,802,802,802,802,802,802,802,802,802,802,802,802,802,802,802,802,802,802,802,802,802,802,802,802,802,802,802,802,802,802,802,802,802,802,802,802,802,802,802,802,802,802,799,788,743,706,670,639,608,555,540,534,534,534,534,534,534,534,534,534,534,534,502],"ymouse":[532,532,532,532,532,532,532,532,532,532,532,532,532,532,532,532,532,532,532,532,532,532,532,532,532,532,532,532,532,532,532,532,532,532,532,532,532,532,532,532,532,532,532,532,532,532,532,532,532,532,532,532,532,532,532,532,532,532,532,532,532,532,532,532,532,532,532,532,532,532,532,532,532,527,506,403,336,270,195,122,29,9,0,0,0,0,0,0,0,0,0,0,0,3],"timestamp_mouse":[8,32,43,61,81,101,121,141,161,182,201,221,241,261,281,302,322,341,361,382,401,423,441,461,482,501,521,543,562,581,601,621,642,661,681,701,722,743,762,781,802,822,841,862,882,901,921,941,962,981,1001,1021,1041,1061,1081,1101,1121,1141,1161,1181,1202,1222,1241,1262,1281,1301,1321,1341,1361,1381,1401,1421,1441,1461,1481,1501,1521,1541,1561,1582,1601,1622,1642,1661,1682,1703,1722,1742,1761,1782,1801,1821,1841,1862],"xSR":741.5,"ySR":469.95,"xT1":424.9,"yT1":0,"xT2":1058.1,"yT2":0,"toosoon":0,"cond_shown":"Congruent","ratio_trial":200,"L_num":21,"L_den":30,"R_num":2,"R_den":4,"correct_side":1,"subjID":"SANTIAGOMORALESPRIETO1","gender":"0","school":"6","age":"11"},{"start_time":1551891065031,"click_time":1551891066795,"finger_time":1551891066434,"fix_duration":295.95142261612096,"trial":6,"RT":1403,"MT":361,"sideResp":2,"stimulus":[],"xmouse":[779,779,779,779,779,779,779,779,779,779,779,779,779,779,779,779,779,779,779,779,779,779,779,779,779,779,779,779,779,779,779,779,779,779,779,779,779,779,779,779,779,779,779,779,779,779,779,779,779,779,779,779,779,779,779,779,779,779,779,779,779,779,779,779,779,779,779,787,799,819,851,864,879,891,904,936,940,946,950,954,970,984,998,1007,1012,1015,1034,1058,1073],"ymouse":[503,503,503,503,503,503,503,503,503,503,503,503,503,503,503,503,503,503,503,503,503,503,503,503,503,503,503,503,503,503,503,503,503,503,503,503,503,503,503,503,503,503,503,503,503,503,503,503,503,503,503,503,503,503,503,503,503,503,503,503,503,503,503,503,503,503,503,501,491,477,454,441,426,409,389,346,341,330,322,312,274,244,209,177,154,133,83,48,34],"timestamp_mouse":[9,39,43,64,83,103,124,143,163,183,203,224,244,264,283,303,324,343,363,383,404,423,444,464,484,504,523,543,564,583,604,624,644,663,684,704,723,744,765,784,803,824,843,864,884,904,923,944,964,984,1003,1023,1043,1064,1084,1104,1123,1143,1163,1184,1204,1225,1243,1263,1284,1304,1324,1343,1364,1383,1403,1423,1444,1463,1483,1503,1523,1543,1564,1583,1604,1623,1645,1663,1684,1703,1723,1743,1764],"xSR":741.5,"ySR":469.95,"xT1":424.9,"yT1":0,"xT2":1058.1,"yT2":0,"toosoon":0,"cond_shown":"Congruent","ratio_trial":300,"L_num":8,"L_den":16,"R_num":1,"R_den":5,"correct_side":1,"subjID":"SANTIAGOMORALESPRIETO1","gender":"0","school":"6","age":"11"},{"start_time":1551891069387,"click_time":1551891071154,"finger_time":1551891070815,"fix_duration":250,"trial":7,"RT":1428,"MT":339,"sideResp":2,"stimulus":[],"xmouse":[767,767,767,767,767,767,767,767,767,767,767,767,767,767,767,767,767,767,767,767,767,767,767,767,767,767,767,767,767,767,767,767,767,767,767,767,767,767,767,767,767,767,767,767,767,767,767,767,767,767,767,767,767,767,767,767,767,767,767,767,767,767,767,767,767,767,767,774,799,816,831,843,869,889,907,917,924,933,941,949,961,975,1006,1020,1034,1045,1057,1091,1115],"ymouse":[530,530,530,530,530,530,530,530,530,530,530,530,530,530,530,530,530,530,530,530,530,530,530,530,530,530,530,530,530,530,530,530,530,530,530,530,530,530,530,530,530,530,530,530,530,530,530,530,530,530,530,530,530,530,530,530,530,530,530,530,530,530,530,530,530,530,530,524,505,493,478,458,390,344,310,289,274,247,223,206,190,174,149,140,132,126,119,105,92],"timestamp_mouse":[9,28,48,67,88,107,129,148,168,188,208,227,247,267,287,307,327,348,367,387,407,428,447,467,487,508,527,547,568,588,609,629,648,667,689,707,728,747,767,787,807,828,848,867,887,909,927,948,967,988,1007,1027,1048,1067,1087,1107,1127,1148,1167,1188,1209,1228,1248,1267,1288,1307,1328,1347,1368,1387,1407,1428,1447,1467,1487,1508,1527,1547,1568,1587,1608,1628,1648,1667,1687,1708,1728,1747,1767],"xSR":741.5,"ySR":469.95,"xT1":424.9,"yT1":0,"xT2":1058.1,"yT2":0,"toosoon":0,"cond_shown":"Incongruent","ratio_trial":100,"L_num":1,"L_den":2,"R_num":8,"R_den":20,"correct_side":1,"subjID":"SANTIAGOMORALESPRIETO1","gender":"0","school":"6","age":"11"},{"start_time":1551891074798,"click_time":1551891076034,"finger_time":1551891075434,"fix_duration":1141.349167099894,"trial":8,"RT":636,"MT":600,"sideResp":1,"stimulus":[],"xmouse":[800,800,800,800,800,800,800,800,800,800,800,800,800,800,800,800,799,798,798,796,792,791,789,788,787,783,780,777,774,771,764,746,736,728,717,699,680,669,659,649,630,620,611,600,586,564,550,545,542,536,522,516,513,512,511,507,495,489,479,463,427],"ymouse":[538,538,538,538,538,538,538,538,538,538,538,538,538,538,538,537,534,530,525,522,509,505,502,500,498,492,489,485,481,476,469,453,443,434,420,385,350,331,314,301,279,269,259,246,232,208,193,186,180,173,162,158,155,154,151,145,140,135,128,120,94],"timestamp_mouse":[38,57,77,96,116,136,157,177,197,217,237,256,276,296,316,336,356,376,397,417,436,456,477,497,516,536,556,576,596,616,636,656,677,697,716,736,756,776,796,817,836,856,876,896,917,936,957,976,996,1016,1036,1056,1076,1096,1116,1136,1156,1176,1196,1216,1236],"xSR":741.5,"ySR":469.95,"xT1":424.9,"yT1":0,"xT2":1058.1,"yT2":0,"toosoon":0,"cond_shown":"Incongruent","ratio_trial":300,"L_num":3,"L_den":6,"R_num":4,"R_den":20,"correct_side":1,"subjID":"SANTIAGOMORALESPRIETO1","gender":"0","school":"6","age":"11"},{"start_time":1551891079086,"click_time":1551891080854,"finger_time":1551891080554,"fix_duration":250,"trial":9,"RT":1468,"MT":300,"sideResp":1,"stimulus":[],"xmouse":[777,777,777,777,777,777,777,777,777,777,777,777,777,777,777,777,777,777,777,777,777,777,777,777,777,777,777,777,777,777,777,777,777,777,777,777,777,777,777,777,777,777,777,777,777,777,777,777,777,777,777,777,777,777,777,777,777,777,777,777,777,777,777,777,777,777,777,777,777,777,777,778,779,775,757,740,716,675,655,632,617,603,587,585,585,584,580,534,496],"ymouse":[501,501,501,501,501,501,501,501,501,501,501,501,501,501,501,501,501,501,501,501,501,501,501,501,501,501,501,501,501,501,501,501,501,501,501,501,501,501,501,501,501,501,501,501,501,501,501,501,501,501,501,501,501,501,501,501,501,501,501,501,501,501,501,501,501,501,501,501,501,501,501,498,475,451,413,387,351,271,225,183,150,127,101,97,96,94,93,85,80],"timestamp_mouse":[9,32,48,68,88,108,129,148,168,190,209,228,248,268,288,308,328,348,368,388,408,428,449,468,489,508,528,549,569,588,608,629,648,668,688,708,728,748,768,788,810,828,848,870,888,909,928,948,968,988,1008,1028,1048,1068,1088,1108,1130,1148,1169,1188,1208,1230,1249,1268,1288,1309,1328,1349,1368,1388,1409,1428,1448,1468,1488,1508,1528,1548,1568,1588,1609,1629,1649,1669,1688,1708,1729,1749,1768],"xSR":741.5,"ySR":469.95,"xT1":424.9,"yT1":0,"xT2":1058.1,"yT2":0,"toosoon":0,"cond_shown":"Incongruent","ratio_trial":100,"L_num":3,"L_den":5,"R_num":11,"R_den":22,"correct_side":1,"subjID":"SANTIAGOMORALESPRIETO1","gender":"0","school":"6","age":"11"},{"start_time":1551891082285,"click_time":1551891084314,"finger_time":1551891083596,"fix_duration":250,"trial":10,"RT":1311,"MT":718,"sideResp":1,"stimulus":[],"xmouse":[791,791,791,791,791,791,791,791,791,791,791,791,791,791,791,791,791,791,791,791,791,791,791,791,791,791,791,791,791,791,791,791,791,791,791,791,791,791,791,791,791,791,791,791,791,791,791,791,791,792,794,800,806,806,806,806,806,806,806,806,806,806,808,813,831,866,920,1017,1027,1031,1031,1031,1031,1031,1034,1035,1032,1006,984,958,923,888,816,775,751,729,705,665,651,631,609,590,574,572,568,561,548,526,526,526,526,519],"ymouse":[514,514,514,514,514,514,514,514,514,514,514,514,514,514,514,514,514,514,514,514,514,514,514,514,514,514,514,514,514,514,514,514,514,514,514,514,513,513,513,513,513,513,513,513,513,513,513,513,513,512,510,506,502,502,502,502,502,502,502,502,502,502,500,495,473,423,352,230,211,203,202,202,202,196,183,168,157,134,123,115,105,96,79,67,63,61,58,51,49,46,44,41,39,39,40,45,50,53,53,53,53,54],"timestamp_mouse":[9,29,50,69,89,109,129,149,170,189,209,229,250,269,289,309,331,349,369,389,409,429,449,469,489,509,530,550,569,589,609,629,649,670,691,710,730,749,769,789,810,829,849,869,890,909,930,949,969,990,1010,1030,1049,1070,1090,1109,1129,1149,1171,1190,1209,1230,1249,1270,1289,1311,1330,1349,1369,1389,1409,1430,1451,1469,1489,1510,1530,1549,1569,1589,1609,1630,1649,1670,1689,1710,1729,1749,1769,1789,1809,1829,1849,1871,1889,1909,1930,1950,1970,1989,2009,2029],"xSR":741.5,"ySR":469.95,"xT1":424.9,"yT1":0,"xT2":1058.1,"yT2":0,"toosoon":0,"cond_shown":"Congruent","ratio_trial":100,"L_num":10,"L_den":25,"R_num":3,"R_den":10,"correct_side":1,"subjID":"SANTIAGOMORALESPRIETO1","gender":"0","school":"6","age":"11"},{"start_time":1551891085839,"click_time":1551891087676,"finger_time":1551891087374,"fix_duration":524.37549417664,"trial":11,"RT":1535,"MT":302,"sideResp":2,"stimulus":[],"xmouse":[795,795,795,795,795,795,795,795,795,795,795,795,795,795,795,795,795,795,795,795,795,795,795,795,795,795,795,795,795,795,795,795,795,795,795,795,795,795,795,795,795,795,795,795,795,795,795,795,795,795,795,795,795,795,795,795,795,795,795,795,795,795,795,795,795,795,795,795,795,795,795,795,795,795,795,832,892,984,1070,1126,1129,1131,1132,1132,1134,1134,1135,1135,1135,1135,1135,1135],"ymouse":[530,530,530,530,530,530,530,530,530,530,530,530,530,530,530,530,530,530,530,530,530,530,530,530,530,530,530,530,530,530,530,530,530,530,530,530,530,530,530,530,530,530,530,530,530,530,530,530,530,530,530,530,530,530,530,530,530,530,530,530,530,530,530,530,530,530,530,530,530,530,530,530,530,530,528,498,456,390,318,251,237,224,212,200,178,175,164,153,141,117,102,82],"timestamp_mouse":[15,36,56,76,95,115,135,156,176,195,216,235,256,275,295,315,335,356,375,396,415,435,455,476,496,516,535,555,576,595,616,635,656,676,695,715,737,756,775,795,815,836,856,875,895,915,936,956,975,996,1015,1036,1056,1076,1096,1115,1135,1155,1176,1195,1215,1236,1256,1276,1296,1315,1336,1356,1375,1395,1415,1436,1455,1476,1495,1515,1535,1556,1576,1595,1615,1635,1655,1675,1696,1715,1735,1757,1775,1795,1815,1837],"xSR":741.5,"ySR":469.95,"xT1":424.9,"yT1":0,"xT2":1058.1,"yT2":0,"toosoon":0,"cond_shown":"Congruent","ratio_trial":200,"L_num":3,"L_den":12,"R_num":9,"R_den":20,"correct_side":2,"subjID":"SANTIAGOMORALESPRIETO1","gender":"0","school":"6","age":"11"},{"start_time":1551891089624,"click_time":1551891090974,"finger_time":1551891090794,"fix_duration":909.1166599099214,"trial":12,"RT":1170,"MT":180,"sideResp":1,"stimulus":[],"xmouse":[782,782,782,782,782,782,782,782,782,782,782,782,782,782,782,782,782,782,782,782,782,782,782,782,782,782,782,782,782,782,782,782,782,782,782,782,782,782,782,782,782,782,782,782,782,782,782,782,782,782,782,782,782,782,782,782,782,778,762,732,690,603,579,565,550,521,509,493],"ymouse":[512,512,512,512,512,512,512,512,512,512,512,512,512,512,512,512,512,512,512,512,512,512,512,512,512,512,512,512,512,512,512,512,512,512,512,512,512,512,512,512,512,512,512,512,512,512,512,512,512,512,512,512,512,512,512,512,500,474,431,375,327,250,219,193,167,118,100,79],"timestamp_mouse":[10,42,50,70,90,112,130,151,171,191,211,231,251,271,290,311,330,350,370,390,410,430,450,470,490,510,530,551,570,591,610,630,650,671,691,710,731,750,770,790,811,830,851,870,890,911,930,951,970,991,1011,1031,1050,1071,1090,1111,1131,1150,1170,1190,1210,1230,1250,1271,1290,1311,1330,1350],"xSR":741.5,"ySR":469.95,"xT1":424.9,"yT1":0,"xT2":1058.1,"yT2":0,"toosoon":0,"cond_shown":"Incongruent","ratio_trial":200,"L_num":1,"L_den":3,"R_num":2,"R_den":15,"correct_side":1,"subjID":"SANTIAGOMORALESPRIETO1","gender":"0","school":"6","age":"11"},{"start_time":1551891093865,"click_time":1551891095554,"finger_time":1551891095374,"fix_duration":1349.2564811209293,"trial":13,"RT":1509,"MT":180,"sideResp":1,"stimulus":[],"xmouse":[778,778,778,778,778,778,778,778,778,778,778,778,778,778,778,778,778,778,778,778,778,778,778,778,778,778,778,778,778,778,778,778,778,778,778,778,778,778,778,778,778,778,778,778,778,778,778,778,778,778,778,778,778,778,778,778,778,778,778,778,778,778,778,778,778,778,778,778,778,778,778,778,778,778,772,756,733,700,664,617,601,585,572,535,507],"ymouse":[502,502,502,502,502,502,502,502,502,502,502,502,502,502,502,502,502,502,502,502,502,502,502,502,502,502,502,502,502,502,502,502,502,502,502,502,502,502,502,502,502,502,502,502,502,502,502,502,502,502,502,502,502,502,502,502,502,502,502,502,502,502,502,502,502,502,502,502,502,502,502,502,502,495,475,425,369,308,259,188,163,142,126,102,85],"timestamp_mouse":[10,35,50,70,89,109,129,149,169,189,209,229,250,270,289,309,330,349,369,389,411,430,450,469,491,510,530,549,570,589,609,629,649,670,689,710,730,750,770,790,809,829,850,870,889,911,929,949,969,989,1009,1030,1049,1069,1089,1109,1129,1150,1169,1189,1209,1230,1250,1270,1289,1309,1329,1350,1370,1390,1410,1430,1451,1469,1490,1509,1530,1550,1569,1589,1609,1629,1650,1669,1689],"xSR":741.5,"ySR":469.95,"xT1":424.9,"yT1":0,"xT2":1058.1,"yT2":0,"toosoon":0,"cond_shown":"Congruent","ratio_trial":200,"L_num":16,"L_den":20,"R_num":12,"R_den":20,"correct_side":1,"subjID":"SANTIAGOMORALESPRIETO1","gender":"0","school":"6","age":"11"},{"start_time":1551891097179,"click_time":1551891099154,"finger_time":1551891098774,"fix_duration":584.8195767096053,"trial":14,"RT":1595,"MT":380,"sideResp":2,"stimulus":[],"xmouse":[763,763,763,763,763,763,763,763,763,763,763,763,763,763,763,763,763,763,763,763,763,763,763,763,763,763,763,763,763,763,763,763,763,763,763,763,763,763,763,763,763,763,763,763,763,763,763,763,763,763,763,763,763,763,763,763,763,763,763,763,763,763,763,763,763,763,763,763,763,763,763,763,763,763,763,763,763,768,777,808,845,885,945,969,996,1023,1048,1091,1094,1103,1106,1109,1110,1110,1110,1110,1110,1110,1110],"ymouse":[497,497,497,497,497,497,497,497,497,497,497,497,497,497,497,497,497,497,497,497,497,497,497,497,497,497,497,497,497,497,497,497,497,497,497,497,497,497,497,497,497,497,497,497,497,497,497,497,497,497,497,497,497,497,497,497,497,497,497,497,497,497,497,497,497,497,497,497,497,497,497,497,497,497,497,497,497,493,481,440,395,351,296,279,259,238,218,178,170,151,143,134,122,116,111,107,106,106,98],"timestamp_mouse":[15,37,55,76,95,115,136,155,176,195,215,235,255,275,295,315,335,355,376,395,415,436,456,475,495,515,536,556,575,595,616,635,655,676,695,716,736,755,775,795,815,836,855,875,895,915,936,955,976,995,1015,1036,1056,1075,1095,1115,1135,1155,1176,1196,1215,1235,1255,1275,1296,1315,1335,1356,1376,1396,1416,1436,1455,1476,1496,1516,1535,1555,1576,1595,1615,1635,1655,1675,1695,1716,1736,1756,1775,1795,1816,1835,1855,1875,1895,1916,1947,1955,1975],"xSR":741.5,"ySR":469.95,"xT1":424.9,"yT1":0,"xT2":1058.1,"yT2":0,"toosoon":0,"cond_shown":"Incongruent","ratio_trial":300,"L_num":1,"L_den":2,"R_num":3,"R_den":15,"correct_side":1,"subjID":"SANTIAGOMORALESPRIETO1","gender":"0","school":"6","age":"11"},{"start_time":1551891102004,"click_time":1551891103914,"finger_time":1551891103294,"fix_duration":1268.6899358361366,"trial":15,"RT":1290,"MT":620,"sideResp":2,"stimulus":[],"xmouse":[804,804,804,804,804,804,804,804,804,804,804,804,804,804,804,804,804,804,804,804,804,804,804,804,804,804,804,804,804,804,804,804,804,804,804,804,804,804,804,804,804,804,804,804,804,804,804,804,804,804,804,804,804,804,804,804,804,804,804,804,804,804,809,818,830,852,873,916,945,955,957,937,921,906,898,897,901,920,962,993,1019,1047,1053,1053,1053,1053,1051,1049,1049,1049,1049,1049,1049,1050,1057,1065],"ymouse":[543,543,543,543,543,543,543,543,543,543,543,543,543,543,543,543,543,543,543,543,543,543,543,543,543,543,543,543,543,543,543,543,543,543,543,543,543,543,543,543,543,543,543,543,543,543,543,543,543,543,543,543,543,543,543,543,543,543,543,543,543,541,525,502,463,410,351,227,159,134,113,73,58,47,40,40,40,44,50,51,54,62,65,65,66,67,70,70,71,71,71,71,71,70,68,66],"timestamp_mouse":[11,30,51,71,90,110,130,151,170,190,210,230,251,271,290,311,330,350,370,391,410,430,450,470,490,510,531,550,570,591,610,630,650,671,691,711,730,752,770,790,810,830,850,871,891,912,931,950,970,990,1010,1030,1050,1070,1091,1111,1130,1150,1171,1191,1211,1231,1250,1270,1290,1310,1330,1350,1370,1390,1411,1430,1450,1470,1491,1510,1530,1551,1570,1591,1610,1630,1651,1670,1690,1711,1730,1750,1770,1790,1812,1831,1850,1871,1890,1910],"xSR":741.5,"ySR":469.95,"xT1":424.9,"yT1":0,"xT2":1058.1,"yT2":0,"toosoon":0,"cond_shown":"Incongruent","ratio_trial":100,"L_num":12,"L_den":24,"R_num":9,"R_den":15,"correct_side":2,"subjID":"SANTIAGOMORALESPRIETO1","gender":"0","school":"6","age":"11"},{"start_time":1551891106099,"click_time":1551891107814,"finger_time":1551891107434,"fix_duration":864.5232008448706,"trial":16,"RT":1335,"MT":380,"sideResp":2,"stimulus":[],"xmouse":[799,799,799,799,799,799,799,799,799,799,799,799,799,799,799,799,799,799,799,799,799,799,799,799,799,799,799,799,799,799,799,799,799,799,799,799,799,799,799,799,799,799,799,799,799,799,799,799,799,799,799,799,799,799,799,799,799,799,799,799,799,799,799,799,807,817,844,859,872,883,896,923,943,956,974,988,1013,1021,1031,1043,1056,1068,1088,1092,1095,1100],"ymouse":[510,510,510,510,510,510,510,510,510,510,510,510,510,510,510,510,510,510,510,510,510,510,510,510,510,510,510,510,510,510,510,510,510,510,510,510,510,510,510,510,510,510,510,510,510,510,510,510,510,510,510,510,510,510,510,510,510,510,510,510,510,510,510,510,500,489,456,438,425,412,399,374,351,336,322,310,288,276,259,238,214,191,144,127,107,83],"timestamp_mouse":[15,35,55,76,95,115,135,155,175,195,216,235,256,276,296,315,335,356,376,396,415,436,455,476,495,515,536,556,575,595,615,636,656,675,696,715,736,756,775,795,815,835,855,876,896,915,935,955,975,995,1015,1035,1055,1075,1095,1116,1135,1156,1175,1195,1215,1235,1255,1275,1296,1316,1335,1355,1375,1395,1416,1435,1455,1475,1495,1515,1536,1555,1575,1595,1615,1635,1655,1675,1695,1715],"xSR":741.5,"ySR":469.95,"xT1":424.9,"yT1":0,"xT2":1058.1,"yT2":0,"toosoon":0,"cond_shown":"Incongruent","ratio_trial":100,"L_num":3,"L_den":5,"R_num":8,"R_den":16,"correct_side":1,"subjID":"SANTIAGOMORALESPRIETO1","gender":"0","school":"6","age":"11"},{"start_time":1551891110549,"click_time":1551891112635,"finger_time":1551891112095,"fix_duration":274.8045646837547,"trial":17,"RT":1546,"MT":540,"sideResp":1,"stimulus":[],"xmouse":[775,775,775,775,775,775,775,775,775,775,775,775,775,775,775,775,775,775,775,775,775,775,775,775,775,775,775,775,775,775,775,775,775,775,775,775,775,775,775,775,775,775,775,775,775,775,775,775,775,775,775,775,775,775,775,775,775,775,775,775,775,775,775,775,775,775,775,775,775,775,775,775,775,775,775,775,778,776,754,676,648,642,633,622,594,588,582,574,564,554,553,553,553,553,553,553,548,544,542,542,541,539,535,528,515],"ymouse":[508,508,508,508,508,508,508,508,508,508,508,508,508,508,508,508,508,508,508,508,508,508,508,508,508,508,508,508,508,508,508,508,508,508,508,508,508,508,508,508,508,508,508,508,508,508,508,508,508,508,508,508,508,508,508,508,508,508,508,508,508,508,508,508,508,508,508,508,508,508,508,508,508,508,508,508,492,457,396,288,255,249,242,235,223,221,217,209,200,188,183,176,162,144,109,95,81,73,70,70,69,69,68,66,64],"timestamp_mouse":[8,32,45,66,85,105,125,145,166,185,205,225,246,266,285,305,326,346,365,385,405,425,445,465,486,505,525,545,565,585,605,625,645,665,685,705,725,745,765,785,805,825,845,865,885,905,925,945,966,986,1005,1025,1045,1066,1086,1105,1125,1145,1165,1185,1205,1225,1245,1266,1286,1306,1325,1345,1365,1385,1405,1426,1445,1466,1485,1505,1525,1546,1566,1585,1605,1625,1646,1665,1685,1705,1726,1746,1765,1785,1806,1825,1845,1865,1885,1905,1925,1945,1965,1985,2006,2025,2045,2065,2086],"xSR":741.5,"ySR":469.95,"xT1":424.9,"yT1":0,"xT2":1058.1,"yT2":0,"toosoon":0,"cond_shown":"Incongruent","ratio_trial":100,"L_num":10,"L_den":25,"R_num":9,"R_den":18,"correct_side":2,"subjID":"SANTIAGOMORALESPRIETO1","gender":"0","school":"6","age":"11"},{"start_time":1551891117286,"click_time":1551891119315,"finger_time":1551891118814,"fix_duration":250,"trial":18,"RT":1528,"MT":501,"sideResp":2,"stimulus":[],"xmouse":[786,786,786,786,786,786,786,786,786,786,786,786,786,786,786,786,786,786,786,786,786,786,786,786,786,786,786,786,786,786,786,786,786,786,786,786,786,786,786,786,786,786,786,786,786,786,786,786,786,786,786,786,786,786,786,786,786,786,786,786,786,786,786,786,786,786,786,786,786,786,786,786,786,786,787,833,893,950,1056,1092,1112,1124,1134,1134,1130,1125,1122,1116,1094,1079,1056,1036,1016,1021,1025,1026,1026,1026,1028,1034,1046,1060],"ymouse":[512,512,512,512,512,512,512,512,512,512,512,512,512,512,512,512,512,512,512,512,512,512,512,512,512,512,512,512,512,512,512,512,512,512,512,512,512,512,512,512,512,512,512,512,512,512,512,512,512,512,512,512,512,512,512,512,512,512,512,512,512,512,512,512,512,512,512,512,512,512,512,512,512,512,509,475,444,419,372,354,338,326,300,287,261,244,231,218,193,174,154,135,79,57,43,37,35,34,33,33,33,36],"timestamp_mouse":[8,35,48,68,88,108,128,149,168,189,208,228,249,269,288,309,328,348,369,389,408,428,449,469,488,508,529,549,568,589,609,629,649,669,689,709,728,748,769,788,809,829,848,868,889,908,928,949,969,988,1009,1028,1048,1069,1089,1109,1129,1148,1168,1188,1208,1228,1248,1269,1288,1308,1328,1348,1368,1388,1408,1428,1448,1468,1488,1509,1528,1548,1568,1588,1608,1629,1648,1668,1688,1708,1728,1748,1768,1788,1809,1829,1848,1869,1888,1908,1929,1949,1968,1988,2008,2029],"xSR":741.5,"ySR":469.95,"xT1":424.9,"yT1":0,"xT2":1058.1,"yT2":0,"toosoon":0,"cond_shown":"Incongruent","ratio_trial":100,"L_num":3,"L_den":9,"R_num":7,"R_den":30,"correct_side":1,"subjID":"SANTIAGOMORALESPRIETO1","gender":"0","school":"6","age":"11"},{"start_time":1551891123822,"click_time":1551891125394,"finger_time":1551891125134,"fix_duration":1147.7147229820464,"trial":19,"RT":1312,"MT":260,"sideResp":1,"stimulus":[],"xmouse":[779,779,779,779,778,778,778,778,778,778,778,778,778,778,778,778,778,778,778,778,778,778,778,778,778,778,778,778,780,780,780,780,780,780,780,780,780,780,781,782,785,786,786,786,786,786,786,786,786,786,786,786,786,786,786,786,786,786,786,786,786,786,785,783,775,763,722,687,656,626,561,538,524,517,515,515,515,515,513],"ymouse":[510,510,510,510,509,509,509,509,509,509,509,509,509,509,509,509,509,509,509,509,509,509,509,509,509,509,508,508,508,508,507,507,507,507,507,507,507,507,507,507,507,506,506,506,506,506,506,506,506,506,506,506,506,506,506,506,506,506,506,506,506,506,502,497,480,459,404,356,314,270,193,165,148,136,129,115,105,100,97],"timestamp_mouse":[12,32,52,72,93,112,132,153,173,192,212,232,252,273,292,312,332,353,372,393,412,432,452,473,492,512,532,553,573,592,613,632,653,673,693,712,733,752,772,792,812,832,852,873,893,912,932,953,972,992,1012,1033,1052,1073,1092,1112,1132,1152,1173,1192,1212,1232,1252,1273,1292,1312,1332,1352,1372,1392,1413,1432,1452,1472,1492,1512,1532,1552,1572],"xSR":741.5,"ySR":469.95,"xT1":424.9,"yT1":0,"xT2":1058.1,"yT2":0,"toosoon":0,"cond_shown":"Incongruent","ratio_trial":200,"L_num":7,"L_den":10,"R_num":12,"R_den":24,"correct_side":1,"subjID":"SANTIAGOMORALESPRIETO1","gender":"0","school":"6","age":"11"},{"start_time":1551891127183,"click_time":1551891129254,"finger_time":1551891128974,"fix_duration":626.8397038813306,"trial":20,"RT":1791,"MT":280,"sideResp":2,"stimulus":[],"xmouse":[773,773,773,773,773,773,773,773,773,773,773,773,773,773,773,773,773,773,773,773,773,773,773,773,773,773,773,773,773,773,773,773,773,773,773,773,773,773,773,773,773,773,773,773,773,773,773,773,773,773,773,773,773,773,773,773,773,773,773,773,773,773,773,773,773,773,773,773,773,773,773,773,773,773,773,773,773,773,773,773,773,773,773,773,773,773,778,806,835,861,867,870,876,880,895,910,933,965,988,1003,1017,1034,1079,1101],"ymouse":[505,505,505,505,505,505,505,505,505,505,505,505,505,505,505,505,505,505,505,505,505,505,505,505,505,505,505,505,505,505,505,505,505,505,505,505,505,505,505,505,505,505,505,505,505,505,505,505,505,505,505,505,505,505,505,505,505,505,505,505,505,505,505,505,505,505,505,505,505,505,505,505,505,505,505,505,505,505,505,505,505,505,505,505,505,505,505,497,481,456,445,434,417,405,387,367,339,275,229,198,174,153,117,97],"timestamp_mouse":[11,33,52,71,91,111,132,152,172,191,211,233,251,271,292,311,332,351,371,391,411,432,452,471,491,511,531,551,572,591,612,631,652,671,691,712,732,751,771,792,811,831,851,871,891,912,931,952,972,991,1011,1031,1052,1071,1091,1111,1131,1151,1172,1191,1211,1231,1252,1271,1292,1311,1331,1352,1372,1391,1412,1431,1452,1472,1491,1511,1531,1551,1571,1591,1611,1631,1652,1671,1692,1711,1732,1751,1771,1791,1813,1832,1851,1871,1891,1911,1931,1951,1972,1991,2011,2031,2051,2071],"xSR":741.5,"ySR":469.95,"xT1":424.9,"yT1":0,"xT2":1058.1,"yT2":0,"toosoon":0,"cond_shown":"Incongruent","ratio_trial":100,"L_num":6,"L_den":12,"R_num":3,"R_den":5,"correct_side":2,"subjID":"SANTIAGOMORALESPRIETO1","gender":"0","school":"6","age":"11"},{"start_time":1551891132659,"click_time":1551891137054,"finger_time":1551891136634,"fix_duration":1003.4384202004908,"trial":21,"RT":3975,"MT":420,"sideResp":2,"stimulus":[],"xmouse":[762,762,762,762,762,762,762,762,762,762,762,762,762,762,762,762,762,762,762,762,762,762,762,762,762,762,762,762,762,762,762,762,762,762,762,762,762,762,762,762,762,762,762,762,762,762,762,762,762,762,762,762,762,762,762,762,762,762,762,762,762,762,762,762,762,762,762,762,762,762,762,762,762,762,762,762,762,762,762,762,762,762,762,762,762,762,762,762,762,762,762,762,762,762,762,762,762,762,762,762,762,762,762,762,762,762,762,762,762,762,762,762,762,762,762,762,762,762,762,762,762,762,762,762,762,762,762,762,762,762,762,762,762,762,762,762,762,762,762,762,762,762,762,762,762,762,762,762,762,762,762,762,762,762,762,762,762,762,762,762,762,762,762,762,762,762,762,762,762,762,762,762,762,762,762,762,762,762,762,762,762,762,762,762,762,762,762,762,762,762,762,762,762,762,762,762,762,769,844,867,886,912,940,986,997,1007,1026,1038,1046,1046,1038,1030,1023,1020,1020,1020,1020,1020,1042,1069],"ymouse":[523,523,523,523,523,523,523,523,523,523,523,523,523,523,523,523,523,523,523,523,523,523,523,523,523,523,523,523,523,523,523,523,523,523,523,523,523,523,523,523,523,523,523,523,523,523,523,523,523,523,523,523,523,523,523,523,523,523,523,523,523,523,523,523,523,523,523,523,523,523,523,523,523,523,523,523,523,523,523,523,523,523,523,523,523,523,523,523,523,523,523,523,523,523,523,523,523,523,523,523,523,523,523,523,523,523,523,523,523,523,523,523,523,523,523,523,523,523,523,523,523,523,523,523,523,523,523,523,523,523,523,523,523,523,523,523,523,523,523,523,523,523,523,523,523,523,523,523,523,523,523,523,523,523,523,523,523,523,523,523,523,523,523,523,523,523,523,523,523,523,523,523,523,523,523,523,523,523,523,523,523,523,523,523,523,523,523,523,523,523,523,523,523,523,523,523,523,517,485,478,472,462,451,425,407,389,361,340,289,254,212,170,136,93,78,76,76,76,75,77],"timestamp_mouse":[15,38,56,75,95,115,135,155,175,195,215,236,255,276,296,315,335,356,375,395,416,435,455,476,496,515,535,556,576,595,615,635,656,676,696,716,736,756,775,796,815,836,856,875,896,915,935,956,975,995,1015,1036,1056,1076,1096,1116,1135,1156,1175,1196,1216,1236,1255,1275,1295,1316,1336,1356,1375,1396,1417,1436,1456,1475,1495,1516,1537,1555,1576,1595,1615,1635,1656,1676,1696,1715,1735,1755,1775,1795,1815,1836,1857,1875,1895,1915,1935,1955,1975,1995,2015,2036,2056,2076,2095,2115,2136,2155,2175,2195,2215,2236,2255,2275,2295,2315,2335,2356,2375,2396,2416,2435,2455,2475,2495,2516,2535,2555,2575,2597,2616,2635,2657,2675,2696,2716,2736,2756,2775,2796,2815,2835,2856,2875,2895,2915,2935,2955,2975,2995,3015,3035,3055,3075,3095,3115,3135,3155,3176,3195,3216,3236,3255,3275,3295,3316,3335,3355,3375,3396,3415,3436,3457,3476,3495,3516,3535,3555,3576,3596,3616,3636,3656,3676,3695,3716,3737,3756,3775,3795,3815,3836,3855,3876,3895,3915,3935,3955,3975,3995,4015,4035,4056,4076,4095,4115,4135,4155,4175,4195,4216,4235,4255,4275,4296,4315,4335,4355,4375,4395],"xSR":741.5,"ySR":469.95,"xT1":424.9,"yT1":0,"xT2":1058.1,"yT2":0,"toosoon":0,"cond_shown":"Congruent","ratio_trial":200,"L_num":3,"L_den":10,"R_num":11,"R_den":22,"correct_side":2,"subjID":"SANTIAGOMORALESPRIETO1","gender":"0","school":"6","age":"11"},{"start_time":1551891139711,"click_time":1551891141494,"finger_time":1551891141316,"fix_duration":955.1701405308226,"trial":22,"RT":1605,"MT":178,"sideResp":1,"stimulus":[],"xmouse":[809,809,809,809,809,811,812,812,812,812,812,813,813,813,813,813,813,813,813,813,813,813,813,813,813,813,813,813,813,813,813,813,813,813,813,813,813,813,813,813,813,813,813,813,813,813,813,813,813,813,813,813,813,813,814,815,819,819,819,819,819,819,819,819,819,819,819,819,819,819,819,819,819,819,819,819,819,817,813,807,801,760,711,613,564,544,540,540,537,523],"ymouse":[512,512,512,512,512,512,511,511,511,511,511,511,511,511,511,511,511,511,511,511,511,511,511,511,511,511,511,511,511,511,511,511,511,511,511,511,511,511,511,511,511,511,511,511,511,511,511,511,511,511,511,511,511,511,511,511,512,512,512,512,512,512,512,512,512,512,512,512,512,512,512,512,512,512,511,510,505,499,491,479,461,341,251,124,80,63,57,56,52,45],"timestamp_mouse":[4,39,44,63,83,103,124,144,164,184,203,223,243,263,283,304,323,343,363,383,403,423,443,463,483,503,523,544,564,583,604,623,644,663,684,705,724,743,764,783,804,823,843,864,885,903,923,943,963,983,1003,1025,1044,1063,1085,1103,1123,1144,1164,1183,1203,1224,1243,1263,1284,1303,1324,1344,1363,1383,1403,1423,1444,1463,1483,1503,1523,1543,1564,1583,1605,1623,1644,1663,1683,1703,1723,1743,1764,1783],"xSR":741.5,"ySR":469.95,"xT1":424.9,"yT1":0,"xT2":1058.1,"yT2":0,"toosoon":0,"cond_shown":"Congruent","ratio_trial":300,"L_num":12,"L_den":24,"R_num":2,"R_den":10,"correct_side":1,"subjID":"SANTIAGOMORALESPRIETO1","gender":"0","school":"6","age":"11"},{"start_time":1551891144174,"click_time":1551891146054,"finger_time":1551891145534,"fix_duration":1437.4678710638348,"trial":23,"RT":1360,"MT":520,"sideResp":2,"stimulus":[],"xmouse":[782,782,782,782,782,782,782,782,782,782,782,782,782,782,782,782,782,782,782,782,782,782,782,782,782,782,782,782,782,782,782,782,782,782,782,782,782,782,782,782,782,782,782,782,782,782,782,782,782,782,782,782,782,782,782,782,782,782,782,782,782,782,782,782,782,786,793,808,842,858,881,895,912,973,998,1016,1026,1034,1055,1060,1077,1090,1103,1131,1140,1146,1150,1154,1164,1166,1167,1167,1167,1159,1147],"ymouse":[500,500,500,500,500,500,500,500,500,500,500,500,500,500,500,500,500,500,500,500,500,500,500,500,500,500,500,500,500,500,500,500,500,500,500,500,500,500,500,500,500,500,500,500,500,500,500,500,500,500,500,500,500,500,500,500,500,500,500,500,500,500,500,500,500,499,491,474,437,421,404,394,384,349,331,312,298,284,244,236,213,198,185,161,151,143,135,129,116,107,104,100,94,79,65],"timestamp_mouse":[8,21,41,61,81,101,120,141,162,181,200,220,241,260,280,301,320,340,361,381,400,420,440,460,481,501,520,540,560,580,600,620,640,661,680,700,721,740,761,780,801,820,841,860,880,900,920,941,960,980,1000,1020,1040,1061,1080,1101,1120,1140,1160,1180,1200,1220,1240,1261,1280,1302,1321,1341,1360,1380,1400,1420,1441,1460,1480,1500,1520,1541,1561,1581,1600,1620,1641,1660,1680,1700,1721,1740,1761,1779,1800,1820,1840,1860,1880],"xSR":741.5,"ySR":469.95,"xT1":424.9,"yT1":0,"xT2":1058.1,"yT2":0,"toosoon":0,"cond_shown":"Incongruent","ratio_trial":100,"L_num":4,"L_den":8,"R_num":8,"R_den":20,"correct_side":1,"subjID":"SANTIAGOMORALESPRIETO1","gender":"0","school":"6","age":"11"},{"start_time":1551891162759,"click_time":1551891164735,"finger_time":1551891163335,"fix_duration":861.2311941466709,"trial":24,"RT":576,"MT":1400,"sideResp":1,"stimulus":[],"xmouse":[782,782,782,782,782,782,782,782,782,782,782,782,782,782,782,782,782,782,782,782,782,782,782,782,782,782,784,790,900,1153,1153,1153,1153,1136,492,0,0,0,975,975,975,975,975,975,1580,1503,1503,1503,1503,1401,829,187,0,172,608,1136,1502,1547,1280,1280,1280,1280,1280,1244,1244,1244,1244,1479,900,0,0,0,0,1260,1345,1202,1019,1019,1019,1019,1019,1019,651,1399,1582,1582,1426,1087,356,246,338,562,867,1261,1261,1157,928,679,463],"ymouse":[544,544,544,544,544,544,544,544,544,544,544,544,544,544,544,544,544,544,544,544,544,544,544,544,544,543,543,542,541,541,541,541,541,359,225,91,22,22,57,57,57,57,57,57,407,365,365,365,365,301,264,193,188,177,178,178,170,123,3,3,3,3,3,228,228,228,228,361,243,40,40,40,40,100,107,66,27,27,27,27,27,27,47,186,232,241,235,192,64,27,20,47,107,189,190,176,141,97,70],"timestamp_mouse":[16,43,56,77,96,117,137,157,177,196,216,237,257,277,295,317,336,355,377,397,416,436,455,477,496,517,536,556,576,597,617,635,656,676,695,716,736,757,776,796,816,837,856,875,896,916,936,957,976,995,1016,1036,1056,1076,1095,1116,1136,1156,1176,1197,1216,1236,1255,1276,1295,1316,1336,1356,1376,1397,1416,1436,1455,1476,1495,1517,1536,1557,1577,1597,1616,1636,1655,1676,1695,1717,1736,1756,1776,1796,1816,1836,1855,1876,1896,1917,1935,1956,1976],"xSR":741.5,"ySR":469.95,"xT1":424.9,"yT1":0,"xT2":1058.1,"yT2":0,"toosoon":0,"cond_shown":"Incongruent","ratio_trial":100,"L_num":11,"L_den":22,"R_num":9,"R_den":15,"correct_side":2,"subjID":"SANTIAGOMORALESPRIETO1","gender":"0","school":"6","age":"11"},{"start_time":1551891166306,"click_time":1551891167236,"finger_time":1551891166715,"fix_duration":250,"trial":25,"RT":409,"MT":521,"sideResp":1,"stimulus":[],"xmouse":[818,818,818,818,818,820,820,820,820,820,820,820,820,820,820,820,820,821,824,833,855,1071,1415,1415,1415,1415,1415,1415,1415,1415,1415,1415,1415,734,945,967,612,219,0,0,0,505,1299,1299,1299,1415,435],"ymouse":[507,507,507,507,507,508,508,508,508,508,508,508,508,508,508,508,508,508,497,477,441,318,197,197,197,197,197,197,197,197,197,197,197,27,59,68,115,120,120,129,137,179,181,181,181,126,39],"timestamp_mouse":[14,42,49,70,90,109,129,150,170,190,209,230,249,270,290,310,329,348,369,389,409,429,450,469,489,510,529,549,569,589,609,629,650,669,689,709,729,749,770,789,810,829,850,869,890,909,929],"xSR":741.5,"ySR":469.95,"xT1":424.9,"yT1":0,"xT2":1058.1,"yT2":0,"toosoon":0,"cond_shown":"Incongruent","ratio_trial":300,"L_num":8,"L_den":10,"R_num":9,"R_den":18,"correct_side":1,"subjID":"SANTIAGOMORALESPRIETO1","gender":"0","school":"6","age":"11"},{"start_time":1551891170137,"click_time":1551891170855,"finger_time":1551891170455,"fix_duration":1441.8910841589263,"trial":26,"RT":318,"MT":400,"sideResp":1,"stimulus":[],"xmouse":[791,791,791,791,791,791,791,791,791,791,791,791,791,791,813,907,1090,1307,1484,1540,1372,1133,885,685,532,535,567,629,738,832,584,253,0,0,120,426],"ymouse":[539,539,539,539,539,539,539,539,539,539,539,539,539,539,545,552,552,544,527,514,485,438,356,293,218,203,191,184,182,166,128,83,39,8,2,31],"timestamp_mouse":[34,38,59,77,98,117,138,158,179,198,218,238,258,278,299,318,338,358,378,397,417,438,458,479,498,518,538,559,578,598,619,637,658,679,698,718],"xSR":741.5,"ySR":469.95,"xT1":424.9,"yT1":0,"xT2":1058.1,"yT2":0,"toosoon":0,"cond_shown":"Incongruent","ratio_trial":200,"L_num":3,"L_den":4,"R_num":11,"R_den":20,"correct_side":1,"subjID":"SANTIAGOMORALESPRIETO1","gender":"0","school":"6","age":"11"},{"start_time":1551891174526,"click_time":1551891176234,"finger_time":1551891175975,"fix_duration":850.9546448187725,"trial":27,"RT":1449,"MT":259,"sideResp":1,"stimulus":[],"xmouse":[779,779,779,779,779,779,779,779,779,779,779,779,779,779,779,779,779,779,779,779,779,779,779,779,779,779,779,779,779,779,779,779,779,779,779,779,779,779,779,779,779,779,779,779,779,779,779,779,779,779,779,779,779,779,779,779,779,779,779,779,779,779,779,779,779,779,779,779,779,778,778,799,910,1142,1462,1462,1462,1462,1486,1206,1206,1206,1206,1206,1206,507],"ymouse":[522,522,522,522,522,522,522,522,522,522,522,522,522,522,522,522,522,522,522,522,522,522,522,522,522,522,522,522,522,522,522,522,522,522,522,522,522,522,522,522,522,522,522,522,522,522,522,522,522,522,522,522,522,522,522,522,522,522,522,522,522,522,522,522,522,522,522,522,522,522,518,505,475,438,397,397,397,397,163,34,34,34,34,34,34,2],"timestamp_mouse":[13,40,48,69,90,109,129,149,169,190,208,228,249,270,288,308,330,350,370,389,409,429,450,470,490,509,529,548,569,590,609,630,649,669,689,709,730,749,770,789,809,829,850,869,889,910,928,950,969,989,1009,1030,1049,1070,1088,1110,1130,1149,1169,1190,1209,1230,1250,1269,1290,1309,1330,1348,1369,1389,1409,1430,1449,1469,1489,1510,1529,1549,1569,1589,1610,1630,1649,1670,1688,1708],"xSR":741.5,"ySR":469.95,"xT1":424.9,"yT1":0,"xT2":1058.1,"yT2":0,"toosoon":0,"cond_shown":"Incongruent","ratio_trial":300,"L_num":4,"L_den":5,"R_num":8,"R_den":16,"correct_side":1,"subjID":"SANTIAGOMORALESPRIETO1","gender":"0","school":"6","age":"11"},{"start_time":1551891177606,"click_time":1551891178555,"finger_time":1551891178215,"fix_duration":250,"trial":28,"RT":609,"MT":340,"sideResp":2,"stimulus":[],"xmouse":[782,782,782,782,782,782,782,782,782,782,782,782,782,782,782,782,782,782,782,782,782,782,782,782,782,782,782,782,789,803,946,1316,1489,1489,1489,1489,1450,1135,698,161,0,0,0,0,0,0,0,1140],"ymouse":[533,533,533,533,533,533,533,533,533,533,533,533,532,532,532,532,532,532,532,532,532,532,532,532,532,532,532,532,533,537,564,603,612,612,612,612,518,432,348,222,37,37,37,37,37,37,37,14],"timestamp_mouse":[9,29,48,69,89,109,128,149,169,189,209,228,249,269,290,309,329,349,369,390,409,429,450,469,489,510,530,548,568,589,609,628,649,669,689,710,729,750,769,788,809,829,849,869,889,909,929,949],"xSR":741.5,"ySR":469.95,"xT1":424.9,"yT1":0,"xT2":1058.1,"yT2":0,"toosoon":0,"cond_shown":"Congruent","ratio_trial":200,"L_num":7,"L_den":21,"R_num":2,"R_den":15,"correct_side":1,"subjID":"SANTIAGOMORALESPRIETO1","gender":"0","school":"6","age":"11"},{"start_time":1551891182350,"click_time":1551891183835,"finger_time":1551891182755,"fix_duration":494.3393599381719,"trial":29,"RT":405,"MT":1080,"sideResp":2,"stimulus":[],"xmouse":[805,805,805,805,805,805,805,805,805,805,804,803,803,803,803,801,798,793,785,749,715,700,710,742,1279,1279,1279,1279,1507,422,0,0,0,27,492,902,1335,1335,1335,1168,450,121,31,130,683,1582,1582,1568,1426,231,0,0,14,227,1152,1152,1152,1152,1570,817,817,817,817,817,1044,1389,1528,1503,1263,370,0,0,46,288,1155],"ymouse":[531,531,531,531,531,531,531,531,531,531,530,529,529,529,529,528,528,525,522,503,481,468,460,456,453,453,453,453,630,699,619,486,344,301,198,202,258,258,258,370,329,273,242,211,197,201,201,347,385,400,400,330,270,183,129,129,129,129,129,13,13,13,13,13,39,87,112,119,123,92,15,4,11,46,97],"timestamp_mouse":[5,25,45,65,86,105,125,145,165,186,205,225,245,265,284,305,325,344,365,385,405,424,446,465,485,505,525,545,566,585,606,624,644,665,685,704,725,745,765,785,804,824,844,865,885,905,925,944,965,985,1005,1025,1045,1065,1085,1104,1125,1145,1165,1185,1204,1225,1246,1265,1285,1306,1324,1344,1365,1385,1406,1425,1446,1465,1485],"xSR":741.5,"ySR":469.95,"xT1":424.9,"yT1":0,"xT2":1058.1,"yT2":0,"toosoon":0,"cond_shown":"Incongruent","ratio_trial":200,"L_num":14,"L_den":30,"R_num":6,"R_den":9,"correct_side":2,"subjID":"SANTIAGOMORALESPRIETO1","gender":"0","school":"6","age":"11"},{"start_time":1551891185746,"click_time":1551891187075,"finger_time":1551891186195,"fix_duration":730.3800502132459,"trial":30,"RT":449,"MT":880,"sideResp":2,"stimulus":[],"xmouse":[821,821,821,821,821,821,821,821,821,821,821,821,821,821,821,821,821,821,821,820,820,826,849,861,1042,1139,1198,1167,1097,391,129,41,52,110,558,763,825,777,710,188,70,63,136,376,697,1206,1226,1066,920,223,29,39,157,480,830,1067,1010,627,479,0,0,117,413,769,1063,1212,1138],"ymouse":[510,510,510,510,510,510,510,510,510,510,510,510,510,510,510,510,510,510,510,509,501,489,462,450,331,266,217,188,173,129,129,135,135,127,127,127,127,127,127,113,101,101,90,90,90,91,97,132,139,142,138,133,124,124,124,121,119,115,115,115,114,113,113,111,101,80,80],"timestamp_mouse":[9,30,48,69,89,108,129,150,170,189,208,229,249,269,290,308,328,350,370,389,408,429,449,469,488,508,529,549,569,589,609,628,650,669,688,709,728,749,769,789,809,829,849,869,889,909,929,949,969,988,1009,1029,1049,1069,1089,1109,1129,1148,1168,1189,1209,1229,1249,1269,1289,1309,1329],"xSR":741.5,"ySR":469.95,"xT1":424.9,"yT1":0,"xT2":1058.1,"yT2":0,"toosoon":0,"cond_shown":"Congruent","ratio_trial":300,"L_num":24,"L_den":30,"R_num":2,"R_den":4,"correct_side":1,"subjID":"SANTIAGOMORALESPRIETO1","gender":"0","school":"6","age":"11"},{"start_time":1551891189089,"click_time":1551891191315,"finger_time":1551891190956,"fix_duration":611.4362333687386,"trial":31,"RT":1867,"MT":359,"sideResp":2,"stimulus":[],"xmouse":[796,796,796,796,796,796,796,796,796,796,796,796,796,796,796,796,796,796,796,796,796,796,796,796,796,796,796,796,796,796,796,796,796,796,796,796,796,796,796,796,796,796,796,796,796,796,796,796,796,796,796,796,796,796,796,796,796,796,796,796,796,796,796,796,796,796,796,796,796,796,796,796,796,796,796,796,796,796,796,796,796,796,796,796,796,796,796,796,796,796,796,796,799,842,890,922,956,975,977,980,985,991,991,991,991,992,1001,1006,1031,1044,1053,1060],"ymouse":[524,524,524,524,524,524,524,524,524,524,524,524,524,524,524,524,524,524,524,524,524,524,524,524,524,524,524,524,524,524,524,524,523,523,523,523,523,523,523,523,523,523,523,523,523,523,523,523,523,523,523,523,523,523,523,523,523,523,523,523,523,523,523,523,523,523,523,523,523,523,523,523,523,523,523,523,523,523,523,523,523,523,523,523,523,523,523,523,523,523,523,523,520,493,457,423,360,302,280,251,215,174,166,162,160,158,144,135,107,95,88,83],"timestamp_mouse":[6,27,46,67,86,105,126,147,166,186,206,226,245,265,286,306,326,346,366,386,406,426,447,467,486,506,526,546,566,585,605,626,646,667,686,706,726,745,766,785,807,826,846,866,886,906,926,946,967,987,1006,1025,1045,1066,1086,1107,1127,1147,1167,1186,1206,1226,1246,1267,1286,1305,1326,1347,1367,1386,1407,1426,1446,1466,1485,1506,1525,1546,1566,1587,1607,1626,1646,1665,1686,1707,1726,1745,1766,1787,1806,1827,1845,1867,1886,1906,1926,1946,1965,1986,2006,2027,2045,2066,2086,2106,2126,2146,2166,2185,2206,2226],"xSR":741.5,"ySR":469.95,"xT1":424.9,"yT1":0,"xT2":1058.1,"yT2":0,"toosoon":0,"cond_shown":"Congruent","ratio_trial":300,"L_num":8,"L_den":15,"R_num":10,"R_den":12,"correct_side":2,"subjID":"SANTIAGOMORALESPRIETO1","gender":"0","school":"6","age":"11"},{"start_time":1551891200777,"click_time":1551891202335,"finger_time":1551891202135,"fix_duration":1340.5086884035195,"trial":32,"RT":1358,"MT":200,"sideResp":2,"stimulus":[],"xmouse":[786,786,786,786,786,786,786,786,786,786,786,786,786,786,786,786,786,786,786,786,786,786,786,786,786,786,786,786,786,786,786,786,786,786,786,786,786,786,786,786,786,786,786,786,786,786,786,786,786,786,786,786,786,786,786,786,786,786,786,786,786,786,786,786,786,787,791,939,1039,1059,1059,1062,1070,1073,1076,1081,1085,1100],"ymouse":[545,545,545,545,545,545,545,545,545,545,545,545,545,545,545,545,545,545,545,545,545,545,545,545,545,545,545,545,545,545,545,545,545,545,545,545,545,545,545,545,545,545,545,545,545,545,545,545,545,545,545,545,545,545,545,545,545,545,545,545,545,545,545,545,545,545,543,436,371,334,318,295,244,219,194,168,139,84],"timestamp_mouse":[19,42,58,79,98,117,138,158,179,199,218,238,259,278,298,317,339,359,378,398,417,439,458,478,499,518,539,559,577,598,619,638,659,678,698,718,738,758,778,798,819,839,857,877,898,918,939,959,978,998,1018,1038,1059,1078,1098,1118,1138,1157,1179,1198,1218,1238,1259,1278,1297,1318,1339,1358,1379,1398,1418,1438,1458,1478,1498,1518,1538,1558],"xSR":741.5,"ySR":469.95,"xT1":424.9,"yT1":0,"xT2":1058.1,"yT2":0,"toosoon":0,"cond_shown":"Congruent","ratio_trial":300,"L_num":2,"L_den":20,"R_num":10,"R_den":25,"correct_side":2,"subjID":"SANTIAGOMORALESPRIETO1","gender":"0","school":"6","age":"11"},{"start_time":1551891203652,"click_time":1551891204716,"finger_time":1551891204535,"fix_duration":417.79246261385873,"trial":33,"RT":883,"MT":181,"sideResp":2,"stimulus":[],"xmouse":[757,757,757,757,757,757,757,757,757,757,757,757,757,757,757,757,757,757,757,757,757,757,757,757,757,757,757,757,757,757,757,757,757,757,757,757,757,757,757,757,759,766,780,803,908,966,991,1014,1035,1053,1055,1061,1071,1084],"ymouse":[531,531,531,531,531,531,531,531,531,531,531,531,531,531,531,531,531,531,531,531,531,531,531,531,531,531,531,531,531,531,531,531,531,531,531,531,531,531,531,531,528,521,506,482,381,327,300,269,234,181,163,145,122,98],"timestamp_mouse":[9,32,44,63,82,103,124,142,164,183,204,223,243,264,284,303,324,343,364,383,404,423,442,463,482,503,523,542,562,583,603,624,642,664,684,702,724,744,764,783,803,822,843,864,883,903,923,943,963,982,1004,1023,1044,1064],"xSR":741.5,"ySR":469.95,"xT1":424.9,"yT1":0,"xT2":1058.1,"yT2":0,"toosoon":0,"cond_shown":"Congruent","ratio_trial":300,"L_num":2,"L_den":10,"R_num":12,"R_den":24,"correct_side":2,"subjID":"SANTIAGOMORALESPRIETO1","gender":"0","school":"6","age":"11"},{"start_time":1551891206414,"click_time":1551891207815,"finger_time":1551891207415,"fix_duration":776.1837523368758,"trial":34,"RT":1001,"MT":400,"sideResp":2,"stimulus":[],"xmouse":[798,798,798,798,798,798,798,798,798,798,798,798,798,798,798,798,798,798,798,798,798,798,798,798,798,798,798,798,798,798,798,798,798,798,798,798,798,798,798,798,798,798,798,798,798,798,805,817,832,839,857,933,986,1031,1051,1061,1067,1069,1076,1082,1088,1092,1092,1092,1092,1094,1096,1100,1102,1106,1106],"ymouse":[528,528,528,528,528,528,528,528,528,528,528,528,528,528,528,528,528,528,528,528,528,528,528,528,528,528,528,528,528,528,528,528,528,528,528,528,528,528,528,528,528,528,528,528,528,528,522,515,506,498,481,395,333,284,262,251,239,233,217,204,189,174,172,170,168,165,152,135,122,105,87],"timestamp_mouse":[9,37,41,62,82,102,121,142,160,182,202,222,241,262,281,301,320,340,360,381,402,422,441,461,481,500,522,541,562,581,601,621,641,660,681,701,722,741,761,781,802,820,840,862,882,901,921,942,961,981,1001,1021,1041,1061,1081,1102,1121,1142,1161,1182,1202,1222,1240,1261,1282,1301,1320,1341,1361,1382,1401],"xSR":741.5,"ySR":469.95,"xT1":424.9,"yT1":0,"xT2":1058.1,"yT2":0,"toosoon":0,"cond_shown":"Congruent","ratio_trial":100,"L_num":6,"L_den":12,"R_num":15,"R_den":25,"correct_side":2,"subjID":"SANTIAGOMORALESPRIETO1","gender":"0","school":"6","age":"11"},{"start_time":1551891209128,"click_time":1551891210675,"finger_time":1551891210156,"fix_duration":250,"trial":35,"RT":1028,"MT":519,"sideResp":2,"stimulus":[],"xmouse":[807,807,807,807,807,807,807,807,807,807,807,807,807,807,807,807,807,807,807,807,807,807,807,807,807,807,807,807,807,807,807,807,807,807,807,807,807,807,807,807,807,807,807,807,808,809,814,815,816,818,840,877,912,946,975,1006,1019,1032,1045,1052,1059,1063,1066,1072,1076,1079,1079,1079,1079,1079,1083,1086,1093,1095,1096,1098,1101,1103],"ymouse":[515,515,515,515,515,515,515,515,515,515,515,515,515,515,515,515,515,515,515,515,515,515,515,515,515,515,515,515,515,515,515,515,515,515,515,515,515,515,515,515,515,515,515,514,514,513,510,510,509,507,498,482,461,436,405,348,319,294,273,257,232,217,207,192,180,173,172,172,171,167,153,143,131,123,117,108,103,96],"timestamp_mouse":[8,40,47,66,88,107,127,147,167,188,206,228,247,267,287,307,328,346,366,387,407,428,447,466,488,508,527,547,566,587,608,626,648,667,688,706,727,747,767,788,808,827,846,867,887,907,927,948,966,987,1008,1028,1047,1067,1086,1107,1127,1147,1167,1186,1207,1227,1247,1268,1287,1307,1328,1347,1368,1387,1408,1427,1447,1467,1487,1507,1526,1547],"xSR":741.5,"ySR":469.95,"xT1":424.9,"yT1":0,"xT2":1058.1,"yT2":0,"toosoon":0,"cond_shown":"Congruent","ratio_trial":100,"L_num":7,"L_den":14,"R_num":15,"R_den":25,"correct_side":2,"subjID":"SANTIAGOMORALESPRIETO1","gender":"0","school":"6","age":"11"},{"start_time":1551891212368,"click_time":1551891214716,"finger_time":1551891213875,"fix_duration":250,"trial":36,"RT":1507,"MT":841,"sideResp":1,"stimulus":[],"xmouse":[793,793,793,793,793,793,793,793,793,793,793,793,793,793,793,793,793,793,793,793,793,793,793,793,793,793,793,793,793,793,793,793,793,793,793,793,793,793,793,793,793,793,793,793,793,793,793,793,793,793,793,793,793,793,793,793,793,793,793,793,793,793,793,793,793,793,793,793,793,793,793,793,793,794,814,840,854,858,858,858,858,858,858,858,854,845,828,799,719,628,573,532,503,467,451,432,408,388,363,359,359,359,359,359,359,359,359,359,362,370,386,398,404,405,405,408,418,432],"ymouse":[526,526,526,526,526,526,526,526,526,526,526,526,526,526,526,526,526,526,526,526,526,526,526,526,526,526,526,526,526,526,526,526,526,526,526,526,526,526,526,526,526,526,526,526,526,526,526,526,526,526,526,526,526,526,526,526,526,526,526,526,526,526,526,526,526,526,526,526,526,526,526,526,526,525,495,459,439,431,431,431,431,431,431,429,424,416,407,391,340,276,233,195,165,127,115,103,92,80,54,40,39,39,39,39,39,39,39,40,42,50,56,59,61,61,61,61,60,56],"timestamp_mouse":[20,37,48,67,88,107,128,147,167,187,207,228,246,268,287,306,327,348,368,387,406,427,447,467,487,507,527,546,568,587,608,628,648,668,687,708,728,746,768,787,807,828,846,867,888,908,927,948,966,987,1007,1027,1047,1067,1086,1108,1127,1148,1167,1187,1208,1227,1248,1268,1287,1307,1327,1347,1368,1387,1407,1428,1446,1468,1487,1507,1527,1547,1567,1587,1606,1627,1647,1667,1686,1707,1727,1747,1767,1787,1807,1827,1848,1867,1887,1907,1926,1948,1968,1988,2007,2027,2047,2068,2088,2108,2128,2148,2166,2187,2207,2227,2247,2268,2287,2308,2328,2348],"xSR":741.5,"ySR":469.95,"xT1":424.9,"yT1":0,"xT2":1058.1,"yT2":0,"toosoon":0,"cond_shown":"Congruent","ratio_trial":100,"L_num":9,"L_den":15,"R_num":8,"R_den":16,"correct_side":1,"subjID":"SANTIAGOMORALESPRIETO1","gender":"0","school":"6","age":"11"},{"start_time":1551891215786,"click_time":1551891221155,"finger_time":1551891220695,"fix_duration":250,"trial":37,"RT":4909,"MT":460,"sideResp":2,"stimulus":[],"xmouse":[778,778,778,778,778,778,778,778,778,778,778,778,778,778,778,778,778,778,778,778,778,778,778,778,778,778,778,778,778,778,778,778,778,778,778,778,778,778,778,778,778,778,778,778,778,778,778,778,778,778,778,778,778,778,778,778,778,778,778,778,778,778,778,778,778,778,778,778,778,778,778,778,778,778,778,778,778,778,778,778,778,778,778,778,778,778,778,778,778,778,778,778,778,778,778,778,778,778,778,778,778,778,778,778,778,778,778,778,778,778,778,778,778,778,778,778,778,778,778,778,778,778,778,778,778,778,778,778,778,778,778,778,778,778,778,778,778,778,778,778,778,778,778,778,778,778,778,778,778,778,778,778,778,778,778,778,778,778,778,778,778,778,778,778,778,778,778,778,778,778,778,778,778,778,778,778,778,778,778,778,778,778,778,778,778,778,778,778,778,778,778,778,778,778,778,778,778,778,778,778,778,778,778,778,778,778,778,778,778,778,778,778,778,778,778,778,778,778,778,778,778,778,778,778,778,778,778,778,778,778,778,778,778,778,778,778,778,778,778,778,778,778,778,778,785,845,955,1099,1147,1184,1213,1237,1254,1258,1261,1267,1276,1278,1278,1276,1271,1263,1239,1224,1205,1187,1173,1171,1154],"ymouse":[517,517,517,517,517,517,517,517,517,517,517,517,517,517,517,517,517,517,517,517,517,517,517,517,517,517,517,517,517,517,517,517,517,517,517,517,517,517,517,517,517,517,517,517,517,517,517,517,517,517,517,517,517,517,517,517,517,517,517,517,517,517,517,517,517,517,517,517,517,517,517,517,517,517,517,517,517,517,517,517,517,517,517,517,517,517,517,517,517,517,517,517,517,517,517,517,517,517,517,517,517,517,517,517,517,517,517,517,517,517,517,517,517,517,517,517,517,517,517,517,517,517,517,517,517,517,517,517,517,517,517,517,517,517,517,517,517,517,517,517,517,517,517,517,517,517,517,517,517,517,517,517,517,517,517,517,517,517,517,517,517,517,517,517,517,517,517,517,517,517,517,517,517,517,517,517,517,517,517,517,517,517,517,517,517,517,517,517,517,517,517,517,517,517,517,517,517,517,517,517,517,517,517,517,517,517,517,517,517,517,517,517,517,517,517,517,517,517,517,517,517,517,517,517,517,517,517,517,517,517,517,517,517,517,517,517,517,517,517,517,516,516,516,516,513,496,455,370,308,256,208,168,121,111,102,86,68,40,24,17,11,9,7,7,8,12,15,16,24],"timestamp_mouse":[10,30,50,69,89,110,129,149,169,189,208,230,248,269,288,309,330,349,369,389,410,429,450,470,490,510,530,549,569,590,610,628,650,670,688,709,730,749,770,790,809,829,849,870,889,910,929,948,970,989,1009,1028,1050,1069,1089,1110,1128,1150,1168,1188,1209,1230,1249,1268,1289,1310,1330,1348,1369,1390,1408,1429,1449,1470,1489,1510,1529,1549,1569,1589,1609,1628,1649,1669,1690,1709,1729,1749,1768,1790,1809,1830,1848,1869,1889,1909,1928,1949,1969,1989,2009,2030,2050,2068,2090,2110,2128,2150,2170,2190,2209,2230,2249,2269,2289,2310,2330,2348,2369,2390,2409,2429,2449,2470,2490,2510,2530,2549,2569,2589,2609,2630,2650,2670,2688,2708,2729,2749,2768,2790,2808,2829,2850,2868,2888,2910,2930,2948,2969,2988,3010,3028,3049,3069,3089,3109,3128,3150,3168,3190,3209,3230,3249,3269,3288,3309,3330,3350,3369,3388,3409,3428,3449,3469,3488,3510,3529,3548,3569,3589,3609,3630,3650,3669,3689,3710,3730,3749,3770,3789,3810,3829,3850,3869,3890,3909,3929,3948,3969,3989,4009,4029,4050,4070,4090,4110,4130,4149,4169,4190,4209,4228,4249,4270,4290,4308,4330,4350,4370,4388,4410,4430,4450,4470,4489,4510,4529,4550,4569,4589,4610,4629,4648,4669,4690,4710,4729,4749,4770,4790,4809,4829,4850,4869,4889,4909,4930,4949,4970,4989,5010,5030,5049,5069,5089,5109,5128,5149,5169,5189,5209,5229,5249,5269,5290,5309,5329,5349,5368],"xSR":741.5,"ySR":469.95,"xT1":424.9,"yT1":0,"xT2":1058.1,"yT2":0,"toosoon":0,"cond_shown":"Incongruent","ratio_trial":100,"L_num":8,"L_den":16,"R_num":6,"R_den":10,"correct_side":2,"subjID":"SANTIAGOMORALESPRIETO1","gender":"0","school":"6","age":"11"},{"start_time":1551891224500,"click_time":1551891226255,"finger_time":1551891226055,"fix_duration":1401.435786035968,"trial":38,"RT":1555,"MT":200,"sideResp":1,"stimulus":[],"xmouse":[791,791,791,791,791,791,791,791,791,791,791,791,791,791,791,791,791,791,791,791,791,791,791,791,791,791,791,791,791,791,791,791,791,791,791,791,791,791,791,791,791,791,791,791,791,791,791,791,791,791,791,791,791,791,791,791,791,791,791,791,791,791,791,791,791,791,791,791,791,791,791,791,791,791,791,791,789,766,722,663,599,463,425,422,422,424,426,426],"ymouse":[493,493,493,493,493,493,493,493,493,493,493,493,493,493,493,493,493,493,493,493,493,493,494,494,494,494,494,494,494,494,494,494,494,494,494,494,494,494,494,494,494,494,494,494,494,494,494,494,494,494,494,494,494,494,494,494,494,494,494,494,494,494,494,494,494,494,494,494,494,494,494,494,494,494,494,494,489,437,369,300,242,148,117,110,108,103,100,98],"timestamp_mouse":[16,36,56,74,95,115,135,154,175,196,214,236,255,275,295,316,334,356,375,394,415,435,455,475,495,514,535,556,576,594,616,636,656,675,695,716,734,756,776,796,816,836,854,876,894,916,934,955,976,995,1015,1035,1056,1076,1096,1116,1136,1155,1175,1196,1216,1235,1255,1275,1295,1314,1336,1354,1375,1396,1415,1436,1455,1475,1494,1515,1535,1555,1575,1595,1616,1635,1654,1675,1696,1715,1734,1754],"xSR":741.5,"ySR":469.95,"xT1":424.9,"yT1":0,"xT2":1058.1,"yT2":0,"toosoon":0,"cond_shown":"Congruent","ratio_trial":200,"L_num":3,"L_den":10,"R_num":7,"R_den":14,"correct_side":2,"subjID":"SANTIAGOMORALESPRIETO1","gender":"0","school":"6","age":"11"},{"start_time":1551891227732,"click_time":1551891229095,"finger_time":1551891228775,"fix_duration":355.3763978961698,"trial":39,"RT":1043,"MT":320,"sideResp":2,"stimulus":[],"xmouse":[780,780,780,780,780,780,780,780,780,780,780,780,780,780,780,780,780,780,780,780,780,780,780,780,780,780,780,780,780,780,780,780,780,780,780,780,780,780,780,780,780,780,780,779,779,779,779,779,779,779,779,778,831,903,936,1010,1031,1043,1046,1048,1052,1055,1060,1063,1064,1066,1066,1068,1070],"ymouse":[479,479,479,479,479,479,479,479,479,479,479,479,479,479,479,479,479,479,479,479,479,479,479,479,479,479,479,479,479,479,479,479,479,479,479,479,479,479,479,479,479,479,479,479,479,479,479,479,479,479,479,476,445,402,374,258,205,173,158,147,134,129,124,119,117,110,106,102,95],"timestamp_mouse":[9,33,44,64,82,103,123,143,163,184,203,223,244,264,284,304,323,344,362,384,403,422,444,464,483,503,523,544,564,584,602,624,644,662,683,703,723,742,764,782,803,823,843,864,884,904,923,944,963,984,1002,1023,1043,1064,1083,1103,1122,1143,1164,1183,1203,1223,1243,1264,1283,1303,1323,1344,1363],"xSR":741.5,"ySR":469.95,"xT1":424.9,"yT1":0,"xT2":1058.1,"yT2":0,"toosoon":0,"cond_shown":"Incongruent","ratio_trial":200,"L_num":3,"L_den":10,"R_num":1,"R_den":2,"correct_side":2,"subjID":"SANTIAGOMORALESPRIETO1","gender":"0","school":"6","age":"11"},{"start_time":1551891231523,"click_time":1551891233316,"finger_time":1551891232876,"fix_duration":1386.76361680634,"trial":40,"RT":1353,"MT":440,"sideResp":1,"stimulus":[],"xmouse":[767,770,772,775,781,782,783,783,783,784,784,784,784,784,784,784,784,784,784,784,784,784,784,784,784,784,784,784,784,784,784,784,784,784,784,784,784,784,784,784,784,784,784,784,784,784,784,784,784,784,784,784,784,784,784,784,784,784,784,784,784,784,784,786,786,786,786,776,758,697,650,629,613,600,586,582,570,559,554,553,553,553,553,553,553,551,546,535,517],"ymouse":[503,503,505,505,507,507,507,507,507,507,507,507,507,507,507,507,507,507,507,507,507,507,507,507,507,507,507,507,507,507,507,507,507,507,507,507,507,507,507,507,507,507,507,507,507,507,507,507,507,507,507,507,507,507,507,507,507,507,507,507,507,507,507,507,500,483,458,423,377,264,211,189,170,153,129,120,109,98,94,93,93,93,93,93,93,90,87,80,71],"timestamp_mouse":[34,51,72,92,112,132,152,173,193,213,233,253,272,292,313,332,352,373,393,412,433,452,472,493,513,531,553,573,593,611,632,652,673,692,713,732,752,772,793,812,833,851,872,893,913,931,952,973,993,1011,1033,1053,1072,1092,1113,1132,1153,1173,1192,1213,1231,1252,1272,1292,1312,1332,1353,1372,1392,1411,1432,1452,1473,1493,1512,1532,1552,1572,1592,1613,1633,1652,1672,1692,1712,1731,1752,1773,1793],"xSR":741.5,"ySR":469.95,"xT1":424.9,"yT1":0,"xT2":1058.1,"yT2":0,"toosoon":0,"cond_shown":"Incongruent","ratio_trial":100,"L_num":3,"L_den":6,"R_num":4,"R_den":10,"correct_side":1,"subjID":"SANTIAGOMORALESPRIETO1","gender":"0","school":"6","age":"11"},{"start_time":1551891235423,"click_time":1551891236835,"finger_time":1551891236535,"fix_duration":1305.6755765858256,"trial":41,"RT":1112,"MT":300,"sideResp":1,"stimulus":[],"xmouse":[804,804,804,804,805,805,805,805,805,805,805,805,805,805,805,805,805,805,805,805,805,805,805,805,805,805,805,805,805,805,805,805,805,805,805,805,805,805,805,805,805,805,805,805,805,805,805,805,805,805,805,805,805,805,801,756,697,660,636,621,603,600,597,595,593,584,575,561,551,540,506],"ymouse":[536,536,536,536,535,535,535,535,535,535,535,535,535,535,535,535,535,535,535,535,535,535,535,535,535,535,535,535,535,535,535,535,535,535,535,535,535,535,535,535,535,535,535,535,535,535,535,535,535,535,535,535,533,512,472,357,289,259,240,227,203,198,193,187,183,162,147,124,106,86,43],"timestamp_mouse":[12,32,52,73,92,113,132,152,172,192,213,233,252,271,292,312,332,352,372,392,412,433,452,472,492,513,532,552,572,593,612,632,651,672,692,713,731,752,772,793,812,832,852,872,891,912,931,952,973,991,1011,1033,1052,1072,1091,1112,1132,1152,1172,1192,1213,1231,1252,1272,1292,1312,1332,1352,1373,1393,1412],"xSR":741.5,"ySR":469.95,"xT1":424.9,"yT1":0,"xT2":1058.1,"yT2":0,"toosoon":0,"cond_shown":"Incongruent","ratio_trial":300,"L_num":1,"L_den":2,"R_num":3,"R_den":15,"correct_side":1,"subjID":"SANTIAGOMORALESPRIETO1","gender":"0","school":"6","age":"11"},{"start_time":1551891239052,"click_time":1551891240856,"finger_time":1551891239954,"fix_duration":1475.5197979987888,"trial":42,"RT":902,"MT":902,"sideResp":2,"stimulus":[],"xmouse":[819,819,819,819,819,819,819,819,819,819,819,819,819,819,819,819,819,819,819,819,819,819,819,819,819,819,819,819,819,819,819,819,819,819,819,819,819,819,819,819,819,819,819,820,840,924,984,1010,1013,886,603,151,0,0,0,0,0,800,1188,1499,1499,1486,1176,779,391,391,391,391,391,1272,887,394,394,394,394,394,972,1517,1517,1524,1146,617,78,0,48,554,1074,1577,1577,1336,1112],"ymouse":[516,516,516,516,516,516,516,516,516,516,516,516,516,516,516,516,516,516,516,516,516,516,516,516,516,516,516,516,516,516,516,516,516,516,516,516,516,516,516,516,516,516,516,517,524,546,563,573,575,523,384,171,53,53,53,53,53,204,272,289,289,263,213,147,10,10,10,10,10,212,149,54,54,54,54,54,135,243,243,362,343,278,180,124,101,101,101,96,96,34,4],"timestamp_mouse":[9,32,44,63,83,102,123,143,163,184,203,223,243,263,284,304,323,343,364,384,403,423,444,463,483,504,523,543,562,584,603,623,644,663,684,704,724,744,764,784,804,824,844,864,883,902,923,944,963,984,1003,1023,1043,1063,1084,1103,1123,1144,1163,1184,1203,1223,1243,1264,1283,1303,1323,1344,1364,1383,1403,1423,1443,1464,1484,1504,1523,1543,1564,1584,1603,1623,1644,1664,1684,1702,1723,1744,1764,1783,1803],"xSR":741.5,"ySR":469.95,"xT1":424.9,"yT1":0,"xT2":1058.1,"yT2":0,"toosoon":0,"cond_shown":"Incongruent","ratio_trial":100,"L_num":6,"L_den":12,"R_num":3,"R_den":5,"correct_side":2,"subjID":"SANTIAGOMORALESPRIETO1","gender":"0","school":"6","age":"11"},{"start_time":1551891242784,"click_time":1551891243336,"finger_time":1551891243074,"fix_duration":486.0841277629061,"trial":43,"RT":290,"MT":262,"sideResp":2,"stimulus":[],"xmouse":[806,806,806,806,806,806,806,806,806,807,808,809,810,818,858,935,1022,1223,1255,1204,1011,744,134,0,17,241,634,1086],"ymouse":[524,524,524,524,524,524,524,524,524,524,523,522,521,518,513,500,487,454,444,417,330,248,99,41,27,21,18,18],"timestamp_mouse":[11,36,52,72,90,111,130,151,172,191,211,231,251,271,290,311,330,351,370,391,411,431,451,470,491,511,531,551],"xSR":741.5,"ySR":469.95,"xT1":424.9,"yT1":0,"xT2":1058.1,"yT2":0,"toosoon":0,"cond_shown":"Congruent","ratio_trial":200,"L_num":6,"L_den":12,"R_num":7,"R_den":10,"correct_side":2,"subjID":"SANTIAGOMORALESPRIETO1","gender":"0","school":"6","age":"11"},{"start_time":1551891246244,"click_time":1551891253255,"finger_time":1551891253134,"fix_duration":1307.638668024748,"trial":44,"RT":6890,"MT":121,"sideResp":2,"stimulus":[],"xmouse":[801,801,801,801,801,801,801,801,801,801,801,801,801,801,801,801,801,801,801,801,801,801,801,801,801,801,801,801,801,801,801,801,801,801,801,801,801,801,801,801,801,801,801,801,801,801,801,801,801,801,801,801,801,801,801,801,801,801,801,801,801,801,801,801,801,801,801,801,801,801,801,801,801,801,801,801,801,801,801,801,801,801,801,801,801,801,801,801,801,801,801,801,801,801,801,801,801,801,801,801,801,801,801,801,801,801,801,801,801,801,801,801,801,801,801,801,801,801,801,801,801,801,801,801,801,801,801,801,801,801,801,801,801,801,801,801,801,801,801,801,801,801,801,801,801,801,801,801,801,801,801,801,801,801,801,801,801,801,801,801,801,801,801,801,801,801,801,801,801,801,801,801,801,801,801,801,801,801,801,801,801,801,801,801,801,801,801,801,801,801,801,801,801,801,801,801,801,801,801,801,801,801,801,801,801,801,801,801,801,801,801,801,801,801,801,801,801,801,801,801,801,801,801,801,801,801,801,801,801,801,801,801,801,801,801,801,801,801,801,801,801,801,801,801,801,801,801,801,801,801,801,801,801,801,801,801,801,801,801,801,801,801,801,801,801,801,801,801,801,801,801,801,801,801,801,801,801,801,801,801,801,801,801,801,801,801,801,801,801,801,801,801,801,801,801,801,801,801,801,801,801,801,801,801,801,801,801,801,801,801,801,801,801,801,801,801,801,801,801,801,801,801,801,801,801,801,801,801,801,801,804,804,804,804,804,801,800,800,800,800,793,790,808,841,1072,1317,1485,1485,1485,1384,1062],"ymouse":[507,507,507,507,507,507,507,507,507,507,507,507,507,507,507,507,507,507,507,507,507,507,507,507,507,507,507,507,507,507,507,507,507,507,507,507,507,507,507,507,507,507,507,507,507,507,507,507,507,507,507,507,507,507,507,507,507,507,507,507,507,507,507,507,507,507,507,507,507,507,507,507,507,507,507,507,507,507,507,507,507,507,507,507,507,507,507,507,507,507,507,507,507,507,507,507,507,507,507,507,507,507,507,507,507,507,507,507,507,507,507,507,507,507,507,507,507,507,507,507,507,507,507,507,507,507,507,507,507,507,507,507,507,507,507,507,507,507,507,507,507,507,507,507,507,507,507,507,507,507,507,507,507,507,507,507,507,507,507,507,507,507,507,507,507,507,507,507,507,507,507,507,507,507,507,507,507,507,507,507,507,507,507,507,507,507,507,507,507,507,507,507,507,507,507,507,507,507,507,507,507,507,507,507,507,507,507,507,507,507,507,507,507,507,507,507,507,507,507,507,507,507,507,507,507,507,507,507,507,507,507,507,507,507,507,507,507,507,507,507,507,507,507,507,507,507,507,507,507,507,507,507,507,507,507,507,507,507,507,507,507,507,507,507,507,507,507,507,507,507,507,507,507,507,507,507,507,507,507,507,507,507,507,507,507,507,507,507,507,507,507,507,507,507,507,507,507,507,507,507,507,507,507,507,507,507,507,507,507,507,507,507,507,507,507,507,507,507,507,507,507,507,507,507,507,507,507,507,507,507,504,503,503,503,503,497,495,495,495,494,498,504,530,545,616,635,610,610,610,227,96],"timestamp_mouse":[20,40,51,71,92,112,131,152,172,192,210,231,251,270,292,310,332,350,371,392,412,431,452,471,490,511,532,552,571,592,612,631,652,671,690,712,732,750,772,792,811,830,850,870,891,911,931,952,970,992,1012,1031,1051,1071,1090,1112,1131,1151,1172,1192,1211,1231,1251,1271,1291,1311,1332,1351,1371,1392,1411,1432,1451,1471,1492,1511,1531,1551,1572,1591,1610,1631,1651,1671,1691,1712,1730,1750,1772,1790,1810,1830,1852,1870,1891,1911,1932,1951,1971,1992,2012,2031,2051,2071,2091,2111,2131,2151,2172,2191,2211,2232,2252,2271,2291,2311,2330,2350,2372,2391,2411,2431,2451,2472,2492,2511,2532,2552,2570,2592,2611,2632,2652,2672,2692,2712,2730,2752,2772,2790,2812,2831,2851,2871,2892,2911,2930,2952,2972,2990,3012,3031,3051,3072,3090,3112,3130,3152,3171,3190,3212,3231,3251,3272,3292,3310,3331,3352,3371,3392,3411,3432,3451,3471,3491,3510,3532,3552,3572,3590,3612,3631,3652,3670,3692,3712,3731,3751,3770,3792,3811,3830,3852,3872,3890,3912,3932,3952,3970,3992,4012,4030,4052,4070,4091,4110,4131,4152,4172,4190,4211,4231,4252,4271,4291,4312,4331,4352,4372,4391,4411,4430,4451,4472,4492,4510,4531,4551,4571,4592,4610,4632,4650,4672,4691,4711,4732,4751,4772,4790,4812,4832,4850,4872,4891,4911,4932,4950,4971,4992,5011,5031,5051,5071,5091,5112,5131,5151,5172,5192,5211,5231,5251,5271,5290,5312,5332,5350,5371,5391,5411,5432,5452,5470,5491,5511,5530,5551,5571,5590,5610,5631,5652,5671,5691,5711,5730,5751,5772,5790,5812,5832,5851,5871,5891,5911,5932,5952,5972,5991,6011,6031,6052,6072,6092,6112,6131,6152,6171,6190,6210,6231,6251,6271,6292,6312,6330,6351,6371,6392,6412,6430,6451,6472,6491,6510,6532,6551,6572,6591,6610,6631,6651,6671,6692,6712,6730,6751,6771,6792,6810,6831,6850,6871,6890,6911,6931,6952,6971,6990,7011],"xSR":741.5,"ySR":469.95,"xT1":424.9,"yT1":0,"xT2":1058.1,"yT2":0,"toosoon":0,"cond_shown":"Incongruent","ratio_trial":200,"L_num":7,"L_den":10,"R_num":8,"R_den":16,"correct_side":1,"subjID":"SANTIAGOMORALESPRIETO1","gender":"0","school":"6","age":"11"},{"start_time":1551891257301,"click_time":1551891259936,"finger_time":1551891258476,"fix_duration":1126.1737975608535,"trial":45,"RT":1175,"MT":1460,"sideResp":2,"stimulus":[],"xmouse":[794,794,794,794,794,794,794,794,794,794,794,795,795,795,795,795,795,795,795,795,795,795,795,795,795,795,795,795,795,795,795,795,795,795,795,795,795,795,795,795,795,795,795,795,795,795,795,795,795,795,795,795,795,795,795,795,798,824,1013,1124,1379,1467,1439,1281,991,624,267,267,267,267,267,267,267,267,267,267,267,267,267,267,995,1307,1269,940,750,750,750,750,255,583,918,1258,1089,919,919,919,0,10,158,468,850,1394,1315,1194,1194,1194,1194,150,293,541,872,1319,1272,1005,823,823,823,823,260,530,913,1494,1448,1215,1215,1215,191,164,185,338,640,1144],"ymouse":[525,525,525,525,525,525,525,525,525,525,525,525,525,525,525,525,525,525,525,525,525,525,525,525,525,525,525,525,525,525,525,525,525,525,525,525,525,525,525,525,525,525,525,525,525,525,525,525,525,525,525,525,525,525,525,525,525,532,532,532,502,476,443,375,267,138,6,6,6,6,6,6,6,6,6,6,6,6,6,6,88,126,106,46,17,17,17,17,26,103,175,220,119,54,54,54,27,66,97,100,100,86,44,18,18,18,18,21,61,100,132,132,106,38,6,6,6,6,34,78,100,95,65,17,17,17,27,45,66,82,82,82],"timestamp_mouse":[14,35,54,74,94,115,134,154,175,195,213,234,254,275,294,314,334,354,373,394,415,435,454,473,494,514,534,553,574,594,614,634,654,674,695,714,734,754,773,794,815,834,855,874,894,914,934,953,973,993,1014,1034,1054,1074,1093,1113,1134,1154,1175,1194,1214,1234,1254,1273,1294,1314,1334,1354,1374,1394,1414,1434,1454,1473,1494,1514,1535,1554,1574,1595,1615,1634,1655,1674,1695,1714,1734,1754,1775,1794,1814,1835,1854,1874,1894,1914,1934,1954,1974,1995,2015,2034,2054,2074,2094,2114,2135,2153,2174,2194,2214,2234,2254,2274,2295,2315,2334,2354,2374,2394,2415,2435,2454,2474,2495,2514,2534,2554,2575,2594,2614,2635],"xSR":741.5,"ySR":469.95,"xT1":424.9,"yT1":0,"xT2":1058.1,"yT2":0,"toosoon":0,"cond_shown":"Incongruent","ratio_trial":300,"L_num":4,"L_den":20,"R_num":2,"R_den":4,"correct_side":2,"subjID":"SANTIAGOMORALESPRIETO1","gender":"0","school":"6","age":"11"},{"start_time":1551891265169,"click_time":1551891266156,"finger_time":1551891265494,"fix_duration":411.90795395828263,"trial":46,"RT":325,"MT":662,"sideResp":1,"stimulus":[],"xmouse":[795,795,795,795,795,795,795,795,795,792,785,775,767,763,763,803,949,1180,1427,1567,1480,1480,1480,1480,1480,241,550,829,907,611,376,251,251,671,1007,1232,1261,1118,591,591,591,591,591,935,1462,1462,1462,1522,821,491],"ymouse":[511,511,511,511,511,511,511,511,511,509,508,506,505,505,505,505,505,487,428,80,7,7,7,7,7,48,117,145,140,95,86,87,101,234,280,281,261,195,39,39,39,39,39,174,302,302,302,298,121,56],"timestamp_mouse":[8,34,46,66,86,106,126,146,165,186,206,226,245,267,286,306,325,346,367,386,407,426,446,466,486,506,525,545,566,585,605,626,646,665,686,707,727,747,766,787,806,827,845,865,885,907,926,947,966,987],"xSR":741.5,"ySR":469.95,"xT1":424.9,"yT1":0,"xT2":1058.1,"yT2":0,"toosoon":0,"cond_shown":"Congruent","ratio_trial":200,"L_num":12,"L_den":20,"R_num":6,"R_den":15,"correct_side":1,"subjID":"SANTIAGOMORALESPRIETO1","gender":"0","school":"6","age":"11"},{"start_time":1551891268623,"click_time":1551891270875,"finger_time":1551891270635,"fix_duration":1005.315423967909,"trial":47,"RT":2012,"MT":240,"sideResp":1,"stimulus":[],"xmouse":[838,838,838,838,838,838,838,838,838,836,827,819,814,811,811,811,811,811,811,811,811,811,811,811,811,811,811,811,811,811,811,811,811,811,811,811,811,811,811,811,811,811,811,811,811,811,811,811,811,811,811,811,811,811,811,811,811,811,811,811,811,811,811,811,811,811,811,811,809,808,808,808,808,807,806,800,798,798,798,798,797,797,797,797,797,797,797,797,797,797,797,797,797,797,797,797,800,813,827,838,847,890,979,1095,1241,1428,1428,1428,1428,1547,985,649,441],"ymouse":[529,529,529,529,529,529,529,529,529,529,527,524,523,522,522,522,522,522,522,522,522,522,522,522,522,522,522,522,522,522,522,522,522,522,522,522,522,522,522,522,522,522,522,522,522,522,522,522,522,522,522,522,522,522,522,522,522,522,522,522,522,522,522,522,522,522,522,522,522,522,523,523,523,523,522,517,515,515,515,514,513,513,513,513,513,513,513,513,513,513,513,513,513,513,513,513,513,514,516,517,518,518,510,494,473,437,437,437,437