[{"start_time":1551893077470,"click_time":1551893084123,"finger_time":1551893077483,"fix_duration":265.5698691935715,"trial":0,"RT":13,"MT":6640,"sideResp":1,"stimulus":"img/500/equaldotanddens/L/13_Ratio_500_L_12_R_6.png","xmouse":[792,792,792,792,792,792,792,792,792,792,793,793,793,793,793,793,793,793,793,793,793,793,795,795,796,797,798,799,799,799,799,799,799,799,799,799,799,799,799,799,799,799,798,798,798,798,798,798,798,798,798,798,796,794,791,788,777,772,768,763,760,759,759,757,757,756,756,756,756,756,756,757,775,791,807,821,835,840,848,858,870,891,900,914,924,929,939,943,947,951,954,963,968,982,995,1011,1056,1078,1090,1096,1099,1101,1104,1106,1107,1108,1111,1123,1138,1157,1176,1194,1201,1201,1201,1201,1201,1201,1201,1201,1201,1201,1201,1201,1201,1201,1201,1201,1201,1201,1201,1201,1201,1201,1201,1201,1201,1201,1201,1201,1201,1201,1201,1201,1201,1201,1201,1201,1201,1201,1201,1201,1201,1201,1201,1201,1201,1201,1201,1201,1201,1201,1201,1201,1201,1201,1201,1201,1153,1153,1153,1153,1153,1153,1153,1153,1153,1153,1153,1153,1153,1153,1153,1153,1153,1153,1153,1153,1153,1153,1153,1153,1153,1153,1153,1153,1152,1148,1144,1139,1138,1136,1136,1136,1136,1136,1136,1135,1130,1127,1125,1123,1123,1120,1118,1113,1103,1099,1097,1095,1093,1093,1093,1093,1093,1093,1087,1083,1077,1066,1055,1043,1024,1005,987,964,920,898,879,862,845,817,812,811,811,810,814,815,815,815,815,814,812,810,808,808,808,808,808,808,808,807,807,807,807,807,806,801,795,788,779,764,735,724,714,705,700,700,700,699,700,706,712,719,727,735,759,777,797,818,841,861,895,927,946,960,985,997,1014,1034,1051,1073,1076,1076,1076,1076,1076,1076,1076,1076,1076,1076,1076,1069,1050,1024,947,903,863,819,769,682,628,599,578,559,523,510,504,498,492,491,488],"ymouse":[539,539,539,539,539,539,539,539,539,539,540,540,540,540,540,540,540,540,540,540,540,540,542,547,552,557,561,567,570,572,574,575,575,575,576,577,579,580,580,580,580,580,580,580,580,580,580,580,580,580,580,580,583,584,586,588,594,598,602,608,612,615,617,618,619,620,621,623,625,627,629,631,640,649,656,662,665,665,665,667,671,678,680,684,687,689,691,692,693,696,699,713,719,737,749,761,790,796,796,795,793,791,790,791,793,795,799,810,820,833,845,860,873,873,873,873,873,873,873,873,873,873,873,873,873,873,873,873,873,873,873,873,873,873,873,873,873,873,873,873,873,873,873,873,873,873,873,873,873,873,873,873,873,873,873,873,873,873,873,873,873,873,873,873,873,873,873,873,882,878,877,877,877,877,877,876,876,876,876,876,876,876,876,876,876,876,876,876,876,876,876,876,876,876,876,876,876,876,876,877,877,877,877,877,877,877,877,878,878,879,879,879,879,878,877,876,871,870,869,868,867,867,867,867,867,867,866,864,862,857,852,837,812,798,789,779,758,745,731,719,709,699,697,697,697,695,683,680,678,677,674,662,649,637,635,635,635,635,635,635,634,632,632,632,632,631,629,622,616,609,602,597,589,588,586,585,585,585,585,585,588,595,604,611,618,627,642,649,655,660,663,664,665,665,660,654,635,623,602,578,559,543,541,541,541,541,541,541,541,541,541,541,541,531,523,519,517,517,512,499,471,387,299,268,248,228,179,159,143,130,116,102,96],"timestamp_mouse":[13,34,52,72,92,112,132,152,172,193,212,233,253,272,292,313,333,354,372,393,414,433,454,473,493,512,532,552,572,593,614,633,653,673,693,712,733,753,772,793,814,832,853,873,894,913,932,954,973,994,1014,1033,1052,1072,1092,1112,1134,1153,1174,1192,1213,1232,1253,1274,1293,1313,1333,1352,1373,1392,1412,1432,1454,1473,1493,1512,1533,1552,1574,1593,1613,1632,1652,1673,1693,1713,1733,1752,1772,1794,1813,1833,1852,1872,1893,1912,1933,1953,1973,1994,2013,2033,2052,2073,2094,2112,2132,2152,2172,2192,2212,2232,2252,2272,2292,2313,2332,2352,2372,2392,2412,2433,2453,2473,2492,2513,2532,2552,2572,2593,2612,2632,2652,2673,2693,2712,2733,2753,2772,2793,2813,2833,2854,2872,2893,2913,2933,2952,2973,2994,3013,3033,3053,3073,3093,3112,3133,3153,3173,3193,3213,3234,3253,3273,3292,3314,3333,3353,3373,3393,3413,3433,3454,3474,3492,3513,3533,3552,3573,3593,3614,3634,3653,3673,3693,3713,3734,3753,3773,3794,3813,3832,3852,3874,3893,3913,3934,3953,3973,3994,4013,4032,4053,4072,4093,4112,4133,4153,4172,4192,4213,4232,4253,4273,4293,4313,4333,4353,4372,4393,4413,4434,4454,4473,4493,4513,4533,4554,4573,4592,4613,4633,4653,4673,4692,4712,4733,4753,4774,4793,4813,4833,4853,4874,4893,4914,4933,4953,4974,4993,5013,5033,5053,5073,5094,5114,5133,5154,5174,5192,5212,5233,5253,5273,5292,5314,5332,5353,5374,5394,5412,5432,5454,5473,5493,5513,5532,5552,5573,5592,5614,5633,5653,5673,5692,5712,5733,5752,5772,5793,5813,5832,5852,5873,5892,5912,5933,5953,5973,5994,6012,6033,6052,6073,6094,6113,6133,6154,6174,6192,6214,6233,6254,6272,6293,6314,6334,6353,6373,6392,6413,6433,6453,6473,6494,6513,6533,6552,6573,6592,6612,6633,6653],"xSR":741.5,"ySR":481,"xT1":424.9,"yT1":0,"xT2":1058.1,"yT2":0,"toosoon":0,"cond_shown":"equaldotanddens","ratio_trial":500,"smaller_num":"6","larger_num":"12","correct_side":1,"subjID":"santiagoolayaa29","gender":"0","age":"11","school":"6","test":{"fix_dur":[250,1500],"timestim":300,"targets_dim":[100,100],"targets_relative_coord":[0.3,0.7],"size_stim":[880,420],"start_dim":[100,100],"size_start":[300,300],"size_fix":60,"samplingrate":20,"img_types":["equaldotsize","equaldotanddens","randomdotsizeEA"],"ratios":[250,500,750,900],"rep_conds":9,"nTrials":120,"trials_to_rest":500,"Trials_order":[100,75,42,118,61,3,115,46,23,1,116,81,18,38,24,7,43,99,47,34,108,109,67,30,12,29,105,39,64,88,78,55,2,112,28,15,74,52,35,53,63,6,94,45,21,33,56,96,70,85,57,54,83,103,22,10,90,66,16,76,17,40,77,71,111,58,13,20,68,91,41,79,73,82,37,4,44,92,27,8,26,14,11,5,106,84,62,87,31,97,80,113,50,114,19,72,0,119,93,89,107,101,86,9,36,51,59,69,49,98,25,102,104,110,60,65,117,32,95,48],"cond_shown":["equaldotanddens","equaldotsize","equaldotsize","equaldotanddens","equaldotanddens","equaldotsize","equaldotanddens","equaldotanddens","randomdotsizeEA","equaldotanddens","randomdotsizeEA","equaldotsize","equaldotsize","randomdotsizeEA","equaldotsize","equaldotanddens","equaldotanddens","equaldotsize","randomdotsizeEA","equaldotanddens","equaldotsize","equaldotanddens","equaldotanddens","equaldotsize","equaldotsize","randomdotsizeEA","equaldotsize","equaldotsize","equaldotanddens","equaldotanddens","equaldotsize","equaldotanddens","randomdotsizeEA","equaldotanddens","equaldotanddens","equaldotsize","randomdotsizeEA","equaldotanddens","randomdotsizeEA","randomdotsizeEA","equaldotsize","equaldotsize","equaldotanddens","equaldotsize","equaldotsize","equaldotsize","randomdotsizeEA","equaldotsize","equaldotanddens","equaldotanddens","equaldotsize","equaldotsize","randomdotsizeEA","equaldotanddens","equaldotanddens","equaldotanddens","equaldotsize","equaldotsize","equaldotanddens","equaldotanddens","randomdotsizeEA","equaldotanddens","randomdotsizeEA","randomdotsizeEA","equaldotsize","equaldotanddens","equaldotanddens","randomdotsizeEA","randomdotsizeEA","equaldotanddens","randomdotsizeEA","equaldotanddens","equaldotanddens","equaldotanddens","equaldotanddens","equaldotanddens","randomdotsizeEA","randomdotsizeEA","equaldotsize","randomdotsizeEA","randomdotsizeEA","randomdotsizeEA","randomdotsizeEA","randomdotsizeEA","equaldotanddens","equaldotsize","randomdotsizeEA","equaldotsize","equaldotanddens","equaldotanddens","randomdotsizeEA","randomdotsizeEA","randomdotsizeEA","equaldotsize","equaldotanddens","equaldotsize","equaldotsize","randomdotsizeEA","equaldotsize","randomdotsizeEA","randomdotsizeEA","randomdotsizeEA","randomdotsizeEA","equaldotsize","equaldotsize","equaldotsize","randomdotsizeEA","equaldotsize","equaldotanddens","randomdotsizeEA","equaldotanddens","equaldotsize","randomdotsizeEA","randomdotsizeEA","equaldotsize","randomdotsizeEA","equaldotsize","randomdotsizeEA","randomdotsizeEA","equaldotsize"],"ratio_trial":[500,500,750,900,250,500,750,900,900,250,750,900,750,250,250,750,750,500,900,900,250,250,750,750,250,500,900,500,500,500,750,750,250,500,500,500,250,500,900,500,500,750,900,900,900,900,750,250,900,250,900,750,900,750,900,900,750,750,500,500,500,500,500,900,500,900,250,750,750,750,500,750,250,900,250,500,750,750,500,750,250,250,900,500,900,250,250,500,750,250,750,500,250,750,750,250,250,900,900,500,900,500,250,900,250,500,900,900,250,250,250,750,750,250,250,500,900,750,900,250],"smaller_num":["6","9","6","18","2","5","3","9","18","2","3","18","12","2","4","3","3","2","18","18","6","1","3","15","3","2","18","4","6","6","6","15","1","1","9","6","6","5","18","5","9","3","9","18","9","18","3","1","18","1","9","6","9","3","18","18","15","15","5","5","9","1","9","18","2","18","3","18","12","3","6","3","2","18","2","4","15","6","3","3","4","3","9","6","18","5","2","6","3","3","12","4","3","9","15","6","3","9","18","5","18","2","3","18","3","6","18","18","1","3","2","15","6","5","1","9","9","6","9","1"],"larger_num":["12","18","8","20","8","10","4","10","20","8","4","20","16","8","16","4","4","4","20","20","24","4","4","20","12","4","20","8","12","12","8","20","4","2","18","12","24","10","20","10","18","4","10","20","10","20","4","4","20","4","10","8","10","4","20","20","20","20","10","10","18","2","18","20","4","20","12","24","16","4","12","4","8","20","8","8","20","8","6","4","16","12","10","12","20","20","8","12","4","12","16","8","12","12","20","24","12","10","20","10","20","4","12","20","12","12","20","20","4","12","8","20","8","20","4","18","10","8","10","4"],"correct_side":[1,2,1,1,2,2,2,2,2,2,2,1,2,1,2,2,2,1,2,1,2,2,2,2,1,1,2,1,1,1,1,2,2,2,2,1,1,2,1,2,1,1,1,1,2,2,1,2,2,2,2,1,1,1,2,1,2,2,2,2,1,2,2,1,1,2,1,1,2,1,1,1,1,2,2,1,1,1,2,1,1,2,1,1,2,2,2,1,2,2,2,1,2,2,1,2,2,2,2,1,2,1,1,2,1,1,1,2,2,2,2,2,2,2,2,1,2,2,2,2],"img_shown":["img/500/equaldotanddens/L/13_Ratio_500_L_12_R_6.png","img/500/equaldotsize/R/6_Ratio_500_L_9_R_18.png","img/750/equaldotsize/L/13_Ratio_750_L_8_R_6.png","img/900/equaldotanddens/L/10_Ratio_900_L_20_R_18.png","img/250/equaldotanddens/R/13_Ratio_250_L_2_R_8.png","img/500/equaldotsize/R/14_Ratio_500_L_5_R_10.png","img/750/equaldotanddens/R/12_Ratio_750_L_3_R_4.png","img/900/equaldotanddens/R/3_Ratio_900_L_9_R_10.png","img/900/randomdotsizeEA/R/14_Ratio_900_L_18_R_20.png","img/250/equaldotanddens/R/13_Ratio_250_L_2_R_8.png","img/750/randomdotsizeEA/R/7_Ratio_750_L_3_R_4.png","img/900/equaldotsize/L/8_Ratio_900_L_20_R_18.png","img/750/equaldotsize/R/11_Ratio_750_L_12_R_16.png","img/250/randomdotsizeEA/L/3_Ratio_250_L_8_R_2.png","img/250/equaldotsize/R/10_Ratio_250_L_4_R_16.png","img/750/equaldotanddens/R/12_Ratio_750_L_3_R_4.png","img/750/equaldotanddens/R/7_Ratio_750_L_3_R_4.png","img/500/equaldotsize/L/10_Ratio_500_L_4_R_2.png","img/900/randomdotsizeEA/R/14_Ratio_900_L_18_R_20.png","img/900/equaldotanddens/L/8_Ratio_900_L_20_R_18.png","img/250/equaldotsize/R/6_Ratio_250_L_6_R_24.png","img/250/equaldotanddens/R/8_Ratio_250_L_1_R_4.png","img/750/equaldotanddens/R/7_Ratio_750_L_3_R_4.png","img/750/equaldotsize/R/5_Ratio_750_L_15_R_20.png","img/250/equaldotsize/L/14_Ratio_250_L_12_R_3.png","img/500/randomdotsizeEA/L/5_Ratio_500_L_4_R_2.png","img/900/equaldotsize/R/11_Ratio_900_L_18_R_20.png","img/500/equaldotsize/L/8_Ratio_500_L_8_R_4.png","img/500/equaldotanddens/L/13_Ratio_500_L_12_R_6.png","img/500/equaldotanddens/L/11_Ratio_500_L_12_R_6.png","img/750/equaldotsize/L/13_Ratio_750_L_8_R_6.png","img/750/equaldotanddens/R/5_Ratio_750_L_15_R_20.png","img/250/randomdotsizeEA/R/8_Ratio_250_L_1_R_4.png","img/500/equaldotanddens/R/15_Ratio_500_L_1_R_2.png","img/500/equaldotanddens/R/6_Ratio_500_L_9_R_18.png","img/500/equaldotsize/L/11_Ratio_500_L_12_R_6.png","img/250/randomdotsizeEA/L/5_Ratio_250_L_24_R_6.png","img/500/equaldotanddens/R/14_Ratio_500_L_5_R_10.png","img/900/randomdotsizeEA/L/10_Ratio_900_L_20_R_18.png","img/500/randomdotsizeEA/R/14_Ratio_500_L_5_R_10.png","img/500/equaldotsize/L/4_Ratio_500_L_18_R_9.png","img/750/equaldotsize/L/8_Ratio_750_L_4_R_3.png","img/900/equaldotanddens/L/1_Ratio_900_L_10_R_9.png","img/900/equaldotsize/L/8_Ratio_900_L_20_R_18.png","img/900/equaldotsize/R/6_Ratio_900_L_9_R_10.png","img/900/equaldotsize/R/9_Ratio_900_L_18_R_20.png","img/750/randomdotsizeEA/L/10_Ratio_750_L_4_R_3.png","img/250/equaldotsize/R/8_Ratio_250_L_1_R_4.png","img/900/equaldotanddens/R/12_Ratio_900_L_18_R_20.png","img/250/equaldotanddens/R/8_Ratio_250_L_1_R_4.png","img/900/equaldotsize/R/6_Ratio_900_L_9_R_10.png","img/750/equaldotsize/L/13_Ratio_750_L_8_R_6.png","img/900/randomdotsizeEA/L/1_Ratio_900_L_10_R_9.png","img/750/equaldotanddens/L/10_Ratio_750_L_4_R_3.png","img/900/equaldotanddens/R/12_Ratio_900_L_18_R_20.png","img/900/equaldotanddens/L/4_Ratio_900_L_20_R_18.png","img/750/equaldotsize/R/5_Ratio_750_L_15_R_20.png","img/750/equaldotsize/R/3_Ratio_750_L_15_R_20.png","img/500/equaldotanddens/R/14_Ratio_500_L_5_R_10.png","img/500/equaldotanddens/R/14_Ratio_500_L_5_R_10.png","img/500/randomdotsizeEA/L/4_Ratio_500_L_18_R_9.png","img/500/equaldotanddens/R/12_Ratio_500_L_1_R_2.png","img/500/randomdotsizeEA/R/6_Ratio_500_L_9_R_18.png","img/900/randomdotsizeEA/L/8_Ratio_900_L_20_R_18.png","img/500/equaldotsize/L/10_Ratio_500_L_4_R_2.png","img/900/equaldotanddens/R/14_Ratio_900_L_18_R_20.png","img/250/equaldotanddens/L/15_Ratio_250_L_12_R_3.png","img/750/randomdotsizeEA/L/6_Ratio_750_L_24_R_18.png","img/750/randomdotsizeEA/R/11_Ratio_750_L_12_R_16.png","img/750/equaldotanddens/L/8_Ratio_750_L_4_R_3.png","img/500/randomdotsizeEA/L/13_Ratio_500_L_12_R_6.png","img/750/equaldotanddens/L/9_Ratio_750_L_4_R_3.png","img/250/equaldotanddens/L/3_Ratio_250_L_8_R_2.png","img/900/equaldotanddens/R/11_Ratio_900_L_18_R_20.png","img/250/equaldotanddens/R/13_Ratio_250_L_2_R_8.png","img/500/equaldotanddens/L/8_Ratio_500_L_8_R_4.png","img/750/randomdotsizeEA/L/1_Ratio_750_L_20_R_15.png","img/750/randomdotsizeEA/L/13_Ratio_750_L_8_R_6.png","img/500/equaldotsize/R/2_Ratio_500_L_3_R_6.png","img/750/randomdotsizeEA/L/9_Ratio_750_L_4_R_3.png","img/250/randomdotsizeEA/L/2_Ratio_250_L_16_R_4.png","img/250/randomdotsizeEA/R/4_Ratio_250_L_3_R_12.png","img/900/randomdotsizeEA/L/1_Ratio_900_L_10_R_9.png","img/500/randomdotsizeEA/L/13_Ratio_500_L_12_R_6.png","img/900/equaldotanddens/R/9_Ratio_900_L_18_R_20.png","img/250/equaldotsize/R/12_Ratio_250_L_5_R_20.png","img/250/randomdotsizeEA/R/13_Ratio_250_L_2_R_8.png","img/500/equaldotsize/L/11_Ratio_500_L_12_R_6.png","img/750/equaldotanddens/R/12_Ratio_750_L_3_R_4.png","img/250/equaldotanddens/R/4_Ratio_250_L_3_R_12.png","img/750/randomdotsizeEA/R/11_Ratio_750_L_12_R_16.png","img/500/randomdotsizeEA/L/8_Ratio_500_L_8_R_4.png","img/250/randomdotsizeEA/R/4_Ratio_250_L_3_R_12.png","img/750/equaldotsize/R/15_Ratio_750_L_9_R_12.png","img/750/equaldotanddens/L/1_Ratio_750_L_20_R_15.png","img/250/equaldotsize/R/6_Ratio_250_L_6_R_24.png","img/250/equaldotsize/R/9_Ratio_250_L_3_R_12.png","img/900/randomdotsizeEA/R/5_Ratio_900_L_9_R_10.png","img/900/equaldotsize/R/13_Ratio_900_L_18_R_20.png","img/500/randomdotsizeEA/L/7_Ratio_500_L_10_R_5.png","img/900/randomdotsizeEA/R/11_Ratio_900_L_18_R_20.png","img/500/randomdotsizeEA/L/10_Ratio_500_L_4_R_2.png","img/250/randomdotsizeEA/L/14_Ratio_250_L_12_R_3.png","img/900/equaldotsize/R/12_Ratio_900_L_18_R_20.png","img/250/equaldotsize/L/15_Ratio_250_L_12_R_3.png","img/500/equaldotsize/L/13_Ratio_500_L_12_R_6.png","img/900/randomdotsizeEA/L/2_Ratio_900_L_20_R_18.png","img/900/equaldotsize/R/14_Ratio_900_L_18_R_20.png","img/250/equaldotanddens/R/8_Ratio_250_L_1_R_4.png","img/250/randomdotsizeEA/R/9_Ratio_250_L_3_R_12.png","img/250/equaldotanddens/R/13_Ratio_250_L_2_R_8.png","img/750/equaldotsize/R/4_Ratio_750_L_15_R_20.png","img/750/randomdotsizeEA/R/2_Ratio_750_L_6_R_8.png","img/250/randomdotsizeEA/R/12_Ratio_250_L_5_R_20.png","img/250/equaldotsize/R/8_Ratio_250_L_1_R_4.png","img/500/randomdotsizeEA/L/4_Ratio_500_L_18_R_9.png","img/900/equaldotsize/R/5_Ratio_900_L_9_R_10.png","img/750/randomdotsizeEA/R/2_Ratio_750_L_6_R_8.png","img/900/randomdotsizeEA/R/6_Ratio_900_L_9_R_10.png","img/250/equaldotsize/R/8_Ratio_250_L_1_R_4.png"],"Rat0":[["12_Ratio_0_L_9_R_0.png","13_Ratio_0_L_6_R_0.png","5_Ratio_0_L_2_R_0.png","6_Ratio_0_L_4_R_0.png","8_Ratio_0_L_6_R_0.png"],["1_Ratio_0_L_0_R_17.png","10_Ratio_0_L_0_R_22.png","11_Ratio_0_L_0_R_1.png","14_Ratio_0_L_0_R_24.png","15_Ratio_0_L_0_R_4.png","2_Ratio_0_L_0_R_5.png","3_Ratio_0_L_0_R_17.png","4_Ratio_0_L_0_R_7.png","7_Ratio_0_L_0_R_19.png","9_Ratio_0_L_0_R_15.png"]],"Rat250":[["1_Ratio_250_L_8_R_2.png","14_Ratio_250_L_12_R_3.png","15_Ratio_250_L_12_R_3.png","2_Ratio_250_L_16_R_4.png","3_Ratio_250_L_8_R_2.png","5_Ratio_250_L_24_R_6.png","7_Ratio_250_L_8_R_2.png"],["10_Ratio_250_L_4_R_16.png","11_Ratio_250_L_3_R_12.png","12_Ratio_250_L_5_R_20.png","13_Ratio_250_L_2_R_8.png","4_Ratio_250_L_3_R_12.png","6_Ratio_250_L_6_R_24.png","8_Ratio_250_L_1_R_4.png","9_Ratio_250_L_3_R_12.png"]],"Rat500":[["10_Ratio_500_L_4_R_2.png","11_Ratio_500_L_12_R_6.png","13_Ratio_500_L_12_R_6.png","4_Ratio_500_L_18_R_9.png","5_Ratio_500_L_4_R_2.png","7_Ratio_500_L_10_R_5.png","8_Ratio_500_L_8_R_4.png"],["1_Ratio_500_L_9_R_18.png","12_Ratio_500_L_1_R_2.png","14_Ratio_500_L_5_R_10.png","15_Ratio_500_L_1_R_2.png","2_Ratio_500_L_3_R_6.png","3_Ratio_500_L_10_R_20.png","6_Ratio_500_L_9_R_18.png","9_Ratio_500_L_2_R_4.png"]],"Rat750":[["1_Ratio_750_L_20_R_15.png","10_Ratio_750_L_4_R_3.png","13_Ratio_750_L_8_R_6.png","14_Ratio_750_L_8_R_6.png","6_Ratio_750_L_24_R_18.png","8_Ratio_750_L_4_R_3.png","9_Ratio_750_L_4_R_3.png"],["11_Ratio_750_L_12_R_16.png","12_Ratio_750_L_3_R_4.png","15_Ratio_750_L_9_R_12.png","2_Ratio_750_L_6_R_8.png","3_Ratio_750_L_15_R_20.png","4_Ratio_750_L_15_R_20.png","5_Ratio_750_L_15_R_20.png","7_Ratio_750_L_3_R_4.png"]],"Rat900":[["1_Ratio_900_L_10_R_9.png","10_Ratio_900_L_20_R_18.png","2_Ratio_900_L_20_R_18.png","4_Ratio_900_L_20_R_18.png","8_Ratio_900_L_20_R_18.png"],["11_Ratio_900_L_18_R_20.png","12_Ratio_900_L_18_R_20.png","13_Ratio_900_L_18_R_20.png","14_Ratio_900_L_18_R_20.png","15_Ratio_900_L_9_R_10.png","3_Ratio_900_L_9_R_10.png","5_Ratio_900_L_9_R_10.png","6_Ratio_900_L_9_R_10.png","7_Ratio_900_L_9_R_10.png","9_Ratio_900_L_18_R_20.png"]],"Rat1000":[["10_Ratio_1000_L_16_R_16.png","11_Ratio_1000_L_6_R_6.png","12_Ratio_1000_L_14_R_14.png","13_Ratio_1000_L_20_R_20.png","15_Ratio_1000_L_15_R_15.png","2_Ratio_1000_L_17_R_17.png","4_Ratio_1000_L_9_R_9.png","5_Ratio_1000_L_6_R_6.png","6_Ratio_1000_L_19_R_19.png","8_Ratio_1000_L_14_R_14.png","9_Ratio_1000_L_25_R_25.png"],["1_Ratio_1000_L_1_R_1.png","14_Ratio_1000_L_17_R_17.png","3_Ratio_1000_L_17_R_17.png","7_Ratio_1000_L_6_R_6.png"]]}},{"start_time":1551893091685,"click_time":1551893092843,"finger_time":1551893092703,"fix_duration":1061.0352630223658,"trial":1,"RT":1018,"MT":140,"sideResp":2,"stimulus":"img/500/equaldotsize/R/6_Ratio_500_L_9_R_18.png","xmouse":[783,783,783,783,783,783,783,787,791,797,802,808,808,808,808,808,808,808,808,808,808,808,808,808,808,808,808,808,808,808,808,808,808,808,808,808,808,807,806,804,802,781,772,768,766,762,762,762,763,775,890,972,1086,1121,1139,1139,1131,1125],"ymouse":[618,618,618,618,618,618,618,625,628,632,635,640,640,640,640,640,640,640,640,640,640,640,640,640,640,640,640,640,640,640,640,640,640,640,640,640,640,640,640,640,640,640,642,642,642,639,639,639,634,625,552,488,397,353,310,158,104,78],"timestamp_mouse":[18,39,59,78,98,118,138,159,178,198,218,238,259,277,298,318,339,358,378,398,418,438,458,477,498,519,538,557,578,598,618,637,657,678,699,718,739,757,777,798,817,837,858,877,897,917,938,957,977,998,1018,1037,1058,1078,1098,1117,1138,1157],"xSR":741.5,"ySR":573.95,"xT1":424.9,"yT1":0,"xT2":1058.1,"yT2":0,"toosoon":0,"cond_shown":"equaldotsize","ratio_trial":500,"smaller_num":"9","larger_num":"18","correct_side":2,"subjID":"santiagoolayaa29","gender":"0","age":"11","school":"6"},{"start_time":1551893094234,"click_time":1551893095284,"finger_time":1551893094982,"fix_duration":250,"trial":2,"RT":748,"MT":302,"sideResp":1,"stimulus":"img/750/equaldotsize/L/13_Ratio_750_L_8_R_6.png","xmouse":[790,790,790,790,790,790,790,790,790,790,790,790,790,790,790,790,790,790,790,790,790,790,790,790,790,790,790,790,790,790,790,790,790,790,790,790,789,768,755,691,660,637,631,626,620,599,576,556,543,519,506,495,486],"ymouse":[635,635,635,635,635,635,635,635,635,635,635,635,635,635,635,635,635,635,635,635,635,635,635,635,635,635,635,635,635,635,635,635,635,635,635,635,624,569,513,403,362,328,317,289,266,226,199,181,168,135,118,104,95],"timestamp_mouse":[9,30,50,69,89,108,128,149,168,189,208,229,249,270,288,309,330,350,370,389,409,429,450,469,489,509,529,549,568,589,610,629,649,669,690,709,729,748,769,788,808,830,850,868,890,909,929,948,969,988,1008,1029,1050],"xSR":741.5,"ySR":573.95,"xT1":424.9,"yT1":0,"xT2":1058.1,"yT2":0,"toosoon":0,"cond_shown":"equaldotsize","ratio_trial":750,"smaller_num":"6","larger_num":"8","correct_side":1,"subjID":"santiagoolayaa29","gender":"0","age":"11","school":"6"},{"start_time":1551893096373,"click_time":1551893097623,"finger_time":1551893096982,"fix_duration":250,"trial":3,"RT":609,"MT":641,"sideResp":2,"stimulus":"img/900/equaldotanddens/L/10_Ratio_900_L_20_R_18.png","xmouse":[768,768,768,768,768,768,768,768,768,768,768,768,768,768,768,768,768,768,768,768,768,768,768,768,768,768,768,768,768,776,792,828,890,902,915,928,941,949,953,955,956,960,961,961,969,985,1007,1021,1025,1026,1027,1032,1033,1035,1036,1038,1044,1050,1056,1056,1057,1058,1061],"ymouse":[619,619,619,619,619,619,619,619,619,619,619,619,619,619,619,619,619,619,619,619,619,619,619,619,619,619,619,619,612,584,538,471,326,280,237,190,146,89,67,55,48,40,39,39,39,39,40,43,47,52,54,55,54,54,54,54,54,54,54,54,54,54,55],"timestamp_mouse":[10,30,50,70,89,111,130,150,170,190,210,230,251,270,289,311,330,351,370,390,410,430,450,469,491,510,529,550,570,590,609,629,650,671,689,711,729,749,770,791,811,829,849,869,890,910,930,950,970,990,1009,1030,1050,1070,1090,1109,1130,1150,1169,1191,1209,1230,1249],"xSR":741.5,"ySR":573.95,"xT1":424.9,"yT1":0,"xT2":1058.1,"yT2":0,"toosoon":0,"cond_shown":"equaldotanddens","ratio_trial":900,"smaller_num":"18","larger_num":"20","correct_side":1,"subjID":"santiagoolayaa29","gender":"0","age":"11","school":"6"},{"start_time":1551893099691,"click_time":1551893100743,"finger_time":1551893100403,"fix_duration":1087.7685567082438,"trial":4,"RT":712,"MT":340,"sideResp":2,"stimulus":"img/250/equaldotanddens/R/13_Ratio_250_L_2_R_8.png","xmouse":[772,772,772,772,772,772,772,772,772,772,772,772,772,772,772,772,772,772,772,772,772,772,772,772,772,772,772,772,772,772,772,772,772,772,776,845,899,942,983,1029,1065,1115,1134,1137,1138,1138,1138,1137,1136,1127,1108,1104,1102],"ymouse":[628,628,628,628,628,628,628,628,628,628,628,628,628,628,628,628,628,628,628,628,628,628,628,628,628,628,628,628,628,628,628,628,628,628,627,536,467,392,318,250,189,140,124,118,117,117,117,116,114,110,104,102,99],"timestamp_mouse":[13,32,52,72,91,111,132,152,172,192,213,232,252,272,293,312,332,352,371,392,412,432,451,471,492,511,532,552,573,591,611,632,652,671,692,712,732,753,772,791,812,831,852,872,891,912,932,951,971,993,1011,1032,1051],"xSR":741.5,"ySR":573.95,"xT1":424.9,"yT1":0,"xT2":1058.1,"yT2":0,"toosoon":0,"cond_shown":"equaldotanddens","ratio_trial":250,"smaller_num":"2","larger_num":"8","correct_side":2,"subjID":"santiagoolayaa29","gender":"0","age":"11","school":"6"},{"start_time":1551893102886,"click_time":1551893103703,"finger_time":1551893103563,"fix_duration":1063.1436188756836,"trial":5,"RT":677,"MT":140,"sideResp":2,"stimulus":"img/500/equaldotsize/R/14_Ratio_500_L_5_R_10.png","xmouse":[809,809,809,809,809,809,809,809,809,809,809,809,809,809,809,809,809,809,809,809,809,809,809,809,809,809,809,809,809,809,809,809,832,870,927,1036,1083,1117,1132,1139,1143],"ymouse":[618,618,618,618,618,618,618,618,618,618,618,618,618,618,618,618,618,618,618,618,618,618,618,618,618,618,618,618,618,618,618,617,589,532,448,278,212,168,139,120,96],"timestamp_mouse":[17,37,57,77,97,116,137,158,178,196,217,237,258,276,298,317,338,356,378,397,417,437,458,476,498,517,536,556,577,597,617,636,657,677,697,717,737,757,777,796,817],"xSR":741.5,"ySR":573.95,"xT1":424.9,"yT1":0,"xT2":1058.1,"yT2":0,"toosoon":0,"cond_shown":"equaldotsize","ratio_trial":500,"smaller_num":"5","larger_num":"10","correct_side":2,"subjID":"santiagoolayaa29","gender":"0","age":"11","school":"6"},{"start_time":1551893105334,"click_time":1551893106103,"finger_time":1551893105864,"fix_duration":690.609897278804,"trial":6,"RT":530,"MT":239,"sideResp":2,"stimulus":"img/750/equaldotanddens/R/12_Ratio_750_L_3_R_4.png","xmouse":[806,806,806,806,806,806,806,806,806,806,806,806,806,806,806,806,806,806,806,806,806,806,806,805,809,817,824,833,939,1037,1083,1129,1146,1159,1159,1159,1159,1159,1157],"ymouse":[642,642,642,642,642,642,642,642,642,642,642,642,642,642,642,642,642,642,642,642,642,642,642,632,612,592,573,551,422,286,204,136,113,92,89,89,89,89,82],"timestamp_mouse":[9,29,50,69,89,109,129,148,169,190,210,229,249,269,289,309,328,348,368,388,408,429,448,469,488,510,530,549,569,589,609,629,648,669,689,709,728,748,769],"xSR":741.5,"ySR":573.95,"xT1":424.9,"yT1":0,"xT2":1058.1,"yT2":0,"toosoon":0,"cond_shown":"equaldotanddens","ratio_trial":750,"smaller_num":"3","larger_num":"4","correct_side":2,"subjID":"santiagoolayaa29","gender":"0","age":"11","school":"6"},{"start_time":1551893107335,"click_time":1551893108962,"finger_time":1551893108403,"fix_duration":411.60455805421805,"trial":7,"RT":1068,"MT":559,"sideResp":1,"stimulus":"img/900/equaldotanddens/R/3_Ratio_900_L_9_R_10.png","xmouse":[823,823,823,823,823,823,823,823,823,823,823,823,823,823,823,823,823,823,823,823,823,823,823,823,823,823,823,823,823,823,823,823,823,823,823,823,823,823,823,823,823,823,823,823,823,823,823,823,823,823,823,822,817,746,696,628,558,497,453,447,442,439,431,410,405,402,402,402,410,419,422,422,423,423,423,423,423,423,423,423,423,426],"ymouse":[608,608,608,608,608,608,608,608,608,608,608,608,608,608,608,608,608,608,608,608,608,608,608,608,608,608,608,608,608,608,608,608,608,608,608,608,608,608,608,608,608,608,608,608,608,608,608,608,608,608,608,608,605,534,484,415,357,308,260,250,229,219,204,175,166,152,137,122,87,63,53,48,44,44,43,43,43,43,43,43,43,43],"timestamp_mouse":[8,28,48,67,89,108,129,147,167,189,209,228,248,267,289,309,328,347,368,389,408,429,447,468,488,508,528,548,568,588,607,627,648,668,688,708,729,747,769,788,808,829,848,868,888,907,927,948,968,988,1007,1029,1049,1068,1088,1108,1129,1149,1168,1188,1208,1228,1248,1267,1289,1308,1327,1348,1368,1388,1408,1429,1447,1467,1487,1507,1529,1548,1568,1587,1608,1627],"xSR":741.5,"ySR":573.95,"xT1":424.9,"yT1":0,"xT2":1058.1,"yT2":0,"toosoon":0,"cond_shown":"equaldotanddens","ratio_trial":900,"smaller_num":"9","larger_num":"10","correct_side":2,"subjID":"santiagoolayaa29","gender":"0","age":"11","school":"6"},{"start_time":1551893112937,"click_time":1551893114963,"finger_time":1551893114643,"fix_duration":1053.2981868177162,"trial":8,"RT":1706,"MT":320,"sideResp":1,"stimulus":"img/900/randomdotsizeEA/R/14_Ratio_900_L_18_R_20.png","xmouse":[813,813,813,813,813,813,813,813,813,813,813,813,813,813,813,813,813,813,813,813,813,813,813,813,813,813,813,813,813,813,813,813,813,813,813,813,813,813,813,813,813,813,813,813,813,813,813,819,828,834,837,839,839,839,839,839,839,839,839,839,839,839,839,839,839,839,839,839,839,839,839,839,839,839,839,839,839,839,839,839,839,830,815,794,751,734,725,714,673,631,578,539,521,510,499,489,476,464,451,451,455,461],"ymouse":[623,623,623,623,623,623,623,623,623,623,623,623,623,623,623,623,623,623,623,623,623,623,623,623,623,623,623,623,623,623,623,623,623,623,623,623,623,623,623,623,623,623,623,623,623,623,623,623,623,620,617,615,614,614,614,614,614,614,614,614,614,614,614,614,614,614,614,614,614,614,614,614,614,614,614,614,614,614,614,614,614,614,615,615,611,602,594,574,506,431,367,326,311,298,259,238,220,204,171,149,118,99],"timestamp_mouse":[7,26,47,66,86,106,125,146,166,186,205,226,246,266,287,306,327,346,366,385,407,425,447,465,485,506,526,547,567,585,606,626,646,666,685,707,726,745,766,787,806,826,847,866,885,906,926,945,966,985,1006,1026,1045,1065,1085,1106,1126,1146,1166,1186,1206,1226,1246,1265,1285,1306,1326,1345,1366,1386,1406,1426,1445,1465,1486,1506,1526,1546,1566,1585,1605,1625,1645,1665,1686,1706,1726,1746,1766,1786,1806,1826,1845,1866,1885,1906,1926,1946,1966,1986,2006,2026],"xSR":741.5,"ySR":573.95,"xT1":424.9,"yT1":0,"xT2":1058.1,"yT2":0,"toosoon":0,"cond_shown":"randomdotsizeEA","ratio_trial":900,"smaller_num":"18","larger_num":"20","correct_side":2,"subjID":"santiagoolayaa29","gender":"0","age":"11","school":"6"},{"start_time":1551893116393,"click_time":1551893117463,"finger_time":1551893117102,"fix_duration":250,"trial":9,"RT":709,"MT":361,"sideResp":2,"stimulus":"img/250/equaldotanddens/R/13_Ratio_250_L_2_R_8.png","xmouse":[754,754,754,754,754,754,754,754,754,754,754,754,754,754,754,754,754,754,754,754,754,754,754,754,754,754,754,754,754,754,754,754,754,754,766,799,982,1029,1036,1041,1045,1046,1046,1046,1046,1046,1046,1045,1045,1045,1045,1045,1048,1063],"ymouse":[627,627,627,627,627,627,627,627,627,627,627,627,627,627,627,627,627,627,627,627,627,627,627,627,627,627,627,627,627,627,627,627,627,627,586,532,367,301,281,260,233,216,202,183,159,114,96,91,91,91,91,91,90,88],"timestamp_mouse":[10,30,50,71,91,110,130,150,169,190,211,231,250,271,291,310,330,349,370,391,409,430,451,471,490,510,531,550,569,590,610,630,649,669,690,709,729,750,770,790,811,830,849,869,891,909,931,951,971,991,1009,1030,1050,1070],"xSR":741.5,"ySR":573.95,"xT1":424.9,"yT1":0,"xT2":1058.1,"yT2":0,"toosoon":0,"cond_shown":"equaldotanddens","ratio_trial":250,"smaller_num":"2","larger_num":"8","correct_side":2,"subjID":"santiagoolayaa29","gender":"0","age":"11","school":"6"},{"start_time":1551893123114,"click_time":1551893124743,"finger_time":1551893124343,"fix_duration":250,"trial":10,"RT":1229,"MT":400,"sideResp":1,"stimulus":"img/750/randomdotsizeEA/R/7_Ratio_750_L_3_R_4.png","xmouse":[812,812,812,812,812,812,812,812,812,812,812,812,812,812,812,812,812,812,812,812,812,812,812,812,812,812,812,812,812,812,812,812,812,812,812,812,812,812,812,812,812,812,812,812,812,812,812,812,812,812,812,812,812,812,812,812,812,812,812,812,809,798,776,740,618,561,534,518,506,493,486,482,478,475,474,478,478,477,476,474,475,476],"ymouse":[628,628,628,628,628,628,628,628,628,628,628,628,628,628,628,628,628,628,628,628,628,628,628,628,628,628,628,628,628,628,628,628,628,628,628,628,628,628,628,628,628,628,628,628,628,628,628,628,628,628,628,628,628,628,628,628,628,628,628,628,611,567,509,443,324,288,268,251,233,210,201,194,189,183,175,146,137,130,124,108,101,96],"timestamp_mouse":[10,30,49,69,88,108,130,150,169,190,210,228,248,269,290,308,329,349,369,388,408,428,449,469,489,508,529,549,569,589,609,628,650,670,689,709,729,749,768,789,809,830,850,868,890,908,929,950,969,990,1009,1029,1049,1069,1089,1110,1130,1148,1170,1189,1209,1229,1248,1268,1290,1310,1329,1349,1368,1389,1409,1429,1449,1469,1488,1508,1529,1549,1569,1589,1609,1629],"xSR":741.5,"ySR":573.95,"xT1":424.9,"yT1":0,"xT2":1058.1,"yT2":0,"toosoon":0,"cond_shown":"randomdotsizeEA","ratio_trial":750,"smaller_num":"3","larger_num":"4","correct_side":2,"subjID":"santiagoolayaa29","gender":"0","age":"11","school":"6"},{"start_time":1551893125954,"click_time":1551893127443,"finger_time":1551893127303,"fix_duration":250,"trial":11,"RT":1349,"MT":140,"sideResp":2,"stimulus":"img/900/equaldotsize/L/8_Ratio_900_L_20_R_18.png","xmouse":[799,799,799,799,799,799,799,799,799,799,799,799,799,799,799,799,799,799,799,799,799,799,799,799,799,799,799,799,799,799,799,799,799,799,799,799,805,815,822,825,827,827,827,827,827,827,827,827,827,827,827,827,827,827,827,827,827,827,824,816,812,809,808,808,808,808,810,869,947,1051,1099,1122,1108,1088,1079],"ymouse":[665,665,665,665,665,665,665,665,665,665,665,665,665,665,665,665,665,665,665,665,665,665,665,665,665,665,665,665,665,665,665,665,665,665,665,665,653,630,611,604,598,595,594,594,594,594,594,594,594,594,594,594,594,594,594,594,594,594,594,595,595,595,595,595,595,595,593,529,466,346,277,233,141,104,84],"timestamp_mouse":[9,30,49,68,89,109,129,148,168,190,209,228,248,270,289,310,329,349,369,389,409,430,450,469,489,508,529,548,569,589,610,628,650,670,689,708,729,749,768,789,809,829,850,869,888,909,930,949,969,990,1009,1028,1049,1070,1088,1110,1129,1148,1169,1189,1209,1229,1249,1269,1290,1310,1328,1349,1368,1389,1409,1428,1449,1470,1489],"xSR":741.5,"ySR":573.95,"xT1":424.9,"yT1":0,"xT2":1058.1,"yT2":0,"toosoon":0,"cond_shown":"equaldotsize","ratio_trial":900,"smaller_num":"18","larger_num":"20","correct_side":1,"subjID":"santiagoolayaa29","gender":"0","age":"11","school":"6"},{"start_time":1551893129214,"click_time":1551893130464,"finger_time":1551893130164,"fix_duration":450.9922274027941,"trial":12,"RT":950,"MT":300,"sideResp":2,"stimulus":"img/750/equaldotsize/R/11_Ratio_750_L_12_R_16.png","xmouse":[799,799,799,799,799,799,799,799,799,799,799,799,799,799,799,799,799,799,799,799,799,799,799,799,799,799,799,799,799,799,799,799,799,799,799,799,799,799,799,799,799,799,799,799,799,802,808,817,834,855,903,918,931,940,956,965,972,981,994,1025,1041,1052,1062],"ymouse":[631,631,631,631,631,631,631,631,631,631,631,631,631,631,631,631,631,631,631,631,631,631,631,631,631,631,631,631,631,631,631,631,631,631,631,631,631,631,631,631,631,631,631,631,631,609,578,538,481,428,312,265,224,193,138,106,88,75,60,34,26,21,17],"timestamp_mouse":[9,29,49,69,88,108,128,149,170,188,209,230,249,268,290,308,329,349,369,390,410,429,449,468,489,509,529,549,569,589,609,629,648,668,689,710,729,749,769,789,809,830,849,868,888,910,929,950,970,988,1008,1029,1050,1069,1088,1109,1129,1148,1168,1189,1208,1228,1249],"xSR":741.5,"ySR":573.95,"xT1":424.9,"yT1":0,"xT2":1058.1,"yT2":0,"toosoon":0,"cond_shown":"equaldotsize","ratio_trial":750,"smaller_num":"12","larger_num":"16","correct_side":2,"subjID":"santiagoolayaa29","gender":"0","age":"11","school":"6"},{"start_time":1551893132945,"click_time":1551893134003,"finger_time":1551893133764,"fix_duration":1202.969230242943,"trial":13,"RT":819,"MT":239,"sideResp":1,"stimulus":"img/250/randomdotsizeEA/L/3_Ratio_250_L_8_R_2.png","xmouse":[799,799,799,799,799,799,799,799,799,799,799,799,799,799,799,799,799,799,799,799,799,799,799,799,799,799,799,799,798,798,798,798,798,798,798,798,798,798,794,782,771,754,720,698,677,657,638,623,592,577,559,540,518],"ymouse":[603,603,603,603,603,603,603,603,603,603,603,603,603,603,603,603,603,603,603,603,603,603,603,603,603,603,603,603,603,603,603,603,603,603,603,603,603,603,597,578,555,511,416,368,317,271,227,192,119,91,62,32,3],"timestamp_mouse":[18,37,58,79,97,118,138,159,177,199,218,237,259,279,298,318,337,358,379,399,417,438,457,478,499,518,537,558,578,597,618,639,658,677,699,719,737,757,778,798,819,837,858,878,898,917,937,959,978,998,1019,1037,1058],"xSR":741.5,"ySR":573.95,"xT1":424.9,"yT1":0,"xT2":1058.1,"yT2":0,"toosoon":0,"cond_shown":"randomdotsizeEA","ratio_trial":250,"smaller_num":"2","larger_num":"8","correct_side":1,"subjID":"santiagoolayaa29","gender":"0","age":"11","school":"6"},{"start_time":1551893141080,"click_time":1551893142104,"finger_time":1551893141743,"fix_duration":455.30432124072905,"trial":14,"RT":663,"MT":361,"sideResp":2,"stimulus":"img/250/equaldotsize/R/10_Ratio_250_L_4_R_16.png","xmouse":[762,762,762,762,762,762,762,762,762,762,762,762,762,762,762,762,762,767,770,772,774,774,774,774,774,774,774,774,774,774,774,774,785,888,971,1025,1035,1038,1041,1046,1053,1056,1056,1054,1049,1046,1046,1047,1049,1051,1053,1065],"ymouse":[598,598,598,598,598,598,598,598,598,598,598,598,598,598,598,598,598,600,601,601,601,601,601,601,601,601,601,601,601,601,601,601,576,468,403,355,338,312,297,282,265,240,226,204,181,161,144,115,106,99,96,95],"timestamp_mouse":[4,25,44,63,83,104,124,143,163,185,204,223,245,263,283,303,325,343,364,383,405,424,444,464,484,505,524,543,564,583,604,623,643,663,683,703,723,743,763,783,804,824,843,863,883,903,923,943,964,984,1004,1024],"xSR":741.5,"ySR":573.95,"xT1":424.9,"yT1":0,"xT2":1058.1,"yT2":0,"toosoon":0,"cond_shown":"equaldotsize","ratio_trial":250,"smaller_num":"4","larger_num":"16","correct_side":2,"subjID":"santiagoolayaa29","gender":"0","age":"11","school":"6"},{"start_time":1551893143414,"click_time":1551893144903,"finger_time":1551893144383,"fix_duration":250,"trial":15,"RT":969,"MT":520,"sideResp":2,"stimulus":"img/750/equaldotanddens/R/12_Ratio_750_L_3_R_4.png","xmouse":[791,791,791,791,791,791,791,791,791,791,791,791,791,791,791,791,791,791,791,791,791,791,791,791,791,791,791,791,791,791,791,791,791,791,791,791,791,791,791,791,791,791,791,791,791,787,782,780,778,777,777,781,796,833,894,1003,1033,1040,1041,1041,1046,1050,1053,1053,1040,1034,1031,1033,1041,1045,1048,1048,1050,1055,1066],"ymouse":[621,621,621,621,621,621,621,621,621,621,621,621,621,621,621,621,621,621,621,621,621,621,621,621,621,621,621,621,621,621,621,621,621,621,621,621,621,621,621,621,621,621,620,617,611,590,581,576,573,568,557,549,533,506,463,373,333,315,302,293,269,253,232,211,165,142,106,79,53,33,8,5,3,3,3],"timestamp_mouse":[14,29,51,69,91,109,129,150,169,189,209,230,249,269,291,311,330,350,370,389,411,431,450,469,491,509,530,551,571,590,611,629,650,669,690,709,729,749,770,791,809,829,849,869,890,909,929,950,969,989,1009,1029,1050,1070,1090,1109,1129,1150,1170,1189,1209,1230,1250,1269,1289,1311,1329,1349,1369,1389,1409,1430,1450,1469,1489],"xSR":741.5,"ySR":573.95,"xT1":424.9,"yT1":0,"xT2":1058.1,"yT2":0,"toosoon":0,"cond_shown":"equaldotanddens","ratio_trial":750,"smaller_num":"3","larger_num":"4","correct_side":2,"subjID":"santiagoolayaa29","gender":"0","age":"11","school":"6"},{"start_time":1551893146293,"click_time":1551893147124,"finger_time":1551893146823,"fix_duration":368.48320199884466,"trial":16,"RT":530,"MT":301,"sideResp":2,"stimulus":"img/750/equaldotanddens/R/7_Ratio_750_L_3_R_4.png","xmouse":[815,815,815,815,815,815,815,815,815,815,815,815,815,812,810,808,806,806,806,806,806,806,806,805,805,809,829,837,840,840,843,858,884,909,931,959,1013,1031,1043,1052,1066,1081],"ymouse":[633,633,633,633,633,633,633,633,633,633,633,633,633,630,628,626,625,625,625,625,625,625,625,621,616,600,552,535,524,514,499,459,415,377,348,312,250,223,198,175,123,87],"timestamp_mouse":[10,30,50,71,92,111,131,150,171,190,212,230,250,270,290,311,330,351,370,390,411,431,450,470,491,511,530,550,570,591,611,631,650,671,690,710,730,750,770,790,810,831],"xSR":741.5,"ySR":573.95,"xT1":424.9,"yT1":0,"xT2":1058.1,"yT2":0,"toosoon":0,"cond_shown":"equaldotanddens","ratio_trial":750,"smaller_num":"3","larger_num":"4","correct_side":2,"subjID":"santiagoolayaa29","gender":"0","age":"11","school":"6"},{"start_time":1551893148696,"click_time":1551893149543,"finger_time":1551893149443,"fix_duration":292.4961565098063,"trial":17,"RT":747,"MT":100,"sideResp":1,"stimulus":"img/500/equaldotsize/L/10_Ratio_500_L_4_R_2.png","xmouse":[803,803,803,803,803,803,803,803,803,803,803,803,803,803,803,803,803,803,803,803,803,803,803,803,803,803,803,803,803,803,803,803,803,803,803,801,782,739,676,607,540,451,428],"ymouse":[630,630,630,630,630,630,630,630,630,630,630,630,630,630,630,630,630,630,630,630,630,630,630,630,630,630,630,630,630,630,630,630,630,630,630,628,601,538,451,356,263,133,89],"timestamp_mouse":[8,28,48,67,88,108,128,147,167,189,207,228,249,267,288,308,329,347,368,387,407,428,448,468,487,507,528,547,567,589,608,627,648,667,687,707,727,747,769,787,808,827,847],"xSR":741.5,"ySR":573.95,"xT1":424.9,"yT1":0,"xT2":1058.1,"yT2":0,"toosoon":0,"cond_shown":"equaldotsize","ratio_trial":500,"smaller_num":"2","larger_num":"4","correct_side":1,"subjID":"santiagoolayaa29","gender":"0","age":"11","school":"6"},{"start_time":1551893151314,"click_time":1551893152524,"finger_time":1551893152263,"fix_duration":608.016091726364,"trial":18,"RT":949,"MT":261,"sideResp":1,"stimulus":"img/900/randomdotsizeEA/R/14_Ratio_900_L_18_R_20.png","xmouse":[799,799,799,799,799,799,799,799,799,799,799,799,799,799,799,799,799,799,799,799,799,799,799,799,799,799,799,799,799,799,799,799,799,799,799,799,799,799,799,799,799,799,799,799,794,777,765,742,714,664,653,654,659,660,659,649,643,637,628,604,511],"ymouse":[636,636,636,636,636,636,636,636,636,636,636,635,635,635,635,635,635,635,635,633,632,632,632,632,632,632,632,632,632,632,632,632,632,632,632,632,632,632,632,632,632,632,632,632,626,606,588,551,503,377,263,197,155,132,116,100,94,90,86,83,86],"timestamp_mouse":[12,30,51,69,89,111,129,150,170,190,209,229,250,270,290,309,330,349,370,391,409,430,450,471,489,509,530,549,569,589,610,629,651,671,691,709,731,751,770,789,810,830,851,869,890,909,930,949,969,990,1015,1029,1050,1069,1089,1109,1129,1151,1170,1190,1210],"xSR":741.5,"ySR":573.95,"xT1":424.9,"yT1":0,"xT2":1058.1,"yT2":0,"toosoon":0,"cond_shown":"randomdotsizeEA","ratio_trial":900,"smaller_num":"18","larger_num":"20","correct_side":2,"subjID":"santiagoolayaa29","gender":"0","age":"11","school":"6"},{"start_time":1551893153814,"click_time":1551893154924,"finger_time":1551893154583,"fix_duration":250,"trial":19,"RT":769,"MT":341,"sideResp":2,"stimulus":"img/900/equaldotanddens/L/8_Ratio_900_L_20_R_18.png","xmouse":[794,794,794,794,794,794,794,794,794,794,794,794,794,794,794,794,794,794,794,794,794,794,794,794,794,794,794,794,794,794,794,794,794,794,794,794,794,801,821,849,925,952,958,958,952,949,947,948,954,960,966,973,984,994,1026,1061],"ymouse":[618,618,618,618,618,618,618,618,618,618,618,618,618,618,618,618,618,618,618,618,618,618,618,618,618,618,618,618,618,618,618,618,618,618,618,618,618,608,537,450,288,231,199,173,138,127,114,106,96,93,90,90,90,88,81,69],"timestamp_mouse":[10,31,50,70,89,110,129,150,171,189,210,229,249,271,289,309,330,349,369,389,410,430,450,469,490,510,529,550,569,589,610,630,650,671,689,709,729,750,769,789,809,830,851,870,889,909,929,949,969,989,1009,1030,1050,1069,1090,1110],"xSR":741.5,"ySR":573.95,"xT1":424.9,"yT1":0,"xT2":1058.1,"yT2":0,"toosoon":0,"cond_shown":"equaldotanddens","ratio_trial":900,"smaller_num":"18","larger_num":"20","correct_side":1,"subjID":"santiagoolayaa29","gender":"0","age":"11","school":"6"},{"start_time":1551893156075,"click_time":1551893156804,"finger_time":1551893156704,"fix_duration":250,"trial":20,"RT":629,"MT":100,"sideResp":2,"stimulus":"img/250/equaldotsize/R/6_Ratio_250_L_6_R_24.png","xmouse":[811,811,811,811,811,811,811,811,811,811,811,811,811,811,811,811,811,811,811,811,811,811,811,811,811,811,811,811,811,814,819,888,938,1000,1041,1057,1069],"ymouse":[600,600,600,600,600,600,600,600,600,600,600,600,600,600,600,600,600,600,600,600,600,600,600,600,600,600,600,600,600,600,589,475,377,270,193,156,99],"timestamp_mouse":[8,33,49,69,89,108,128,149,168,189,208,228,248,270,289,309,329,350,368,389,409,429,449,468,488,508,529,548,570,588,608,629,648,668,688,708,729],"xSR":741.5,"ySR":573.95,"xT1":424.9,"yT1":0,"xT2":1058.1,"yT2":0,"toosoon":0,"cond_shown":"equaldotsize","ratio_trial":250,"smaller_num":"6","larger_num":"24","correct_side":2,"subjID":"santiagoolayaa29","gender":"0","age":"11","school":"6"},{"start_time":1551893159431,"click_time":1551893160704,"finger_time":1551893160243,"fix_duration":1285.494589480666,"trial":21,"RT":812,"MT":461,"sideResp":2,"stimulus":"img/250/equaldotanddens/R/8_Ratio_250_L_1_R_4.png","xmouse":[766,766,766,766,766,766,766,766,766,766,771,772,772,772,773,774,775,779,784,785,786,787,789,789,789,789,789,789,789,789,789,789,789,781,778,778,777,776,775,777,783,793,804,880,915,927,934,936,936,938,942,948,958,980,983,988,995,1001,1008,1024,1036,1043,1049,1068],"ymouse":[619,619,619,619,619,619,619,619,619,619,617,617,617,617,617,617,617,618,618,615,612,608,606,605,605,605,605,605,605,605,605,605,604,606,607,607,607,603,600,583,570,559,526,351,249,196,169,148,115,102,97,94,90,81,78,73,68,64,60,59,59,58,56,54],"timestamp_mouse":[12,33,52,72,95,114,133,154,172,192,213,233,252,273,292,312,333,352,373,392,412,432,452,472,493,512,533,554,573,594,612,632,652,672,692,712,732,752,773,792,812,834,853,872,892,912,933,953,972,992,1013,1033,1053,1072,1093,1112,1133,1152,1172,1192,1213,1232,1252,1273],"xSR":741.5,"ySR":573.95,"xT1":424.9,"yT1":0,"xT2":1058.1,"yT2":0,"toosoon":0,"cond_shown":"equaldotanddens","ratio_trial":250,"smaller_num":"1","larger_num":"4","correct_side":2,"subjID":"santiagoolayaa29","gender":"0","age":"11","school":"6"},{"start_time":1551893168575,"click_time":1551893169724,"finger_time":1551893169343,"fix_duration":611.8351337225845,"trial":22,"RT":768,"MT":381,"sideResp":2,"stimulus":"img/750/equaldotanddens/R/7_Ratio_750_L_3_R_4.png","xmouse":[820,820,820,820,820,820,820,820,820,820,820,820,820,820,820,820,818,814,813,812,810,810,810,810,810,810,810,810,810,810,810,810,810,810,810,809,797,784,753,714,666,622,519,478,454,440,430,427,424,421,421,432,494,559,648,759,995,1102],"ymouse":[627,627,627,627,627,627,627,627,627,627,627,627,627,627,627,627,627,627,627,626,626,626,626,626,626,626,626,626,626,626,626,626,626,626,626,625,613,598,564,525,475,431,340,302,273,255,235,227,220,210,199,183,158,141,116,88,48,32],"timestamp_mouse":[8,28,48,68,89,110,129,148,168,188,208,229,249,268,290,309,328,349,368,388,410,428,448,470,489,509,528,548,568,588,609,628,649,669,689,708,729,748,768,788,808,828,848,869,888,909,928,948,968,988,1010,1028,1048,1068,1090,1109,1128,1149],"xSR":741.5,"ySR":573.95,"xT1":424.9,"yT1":0,"xT2":1058.1,"yT2":0,"toosoon":0,"cond_shown":"equaldotanddens","ratio_trial":750,"smaller_num":"3","larger_num":"4","correct_side":2,"subjID":"santiagoolayaa29","gender":"0","age":"11","school":"6"},{"start_time":1551893171173,"click_time":1551893172323,"finger_time":1551893172004,"fix_duration":527.2310133959419,"trial":23,"RT":831,"MT":319,"sideResp":1,"stimulus":"img/750/equaldotsize/R/5_Ratio_750_L_15_R_20.png","xmouse":[801,801,801,801,801,801,801,801,801,801,801,801,801,801,801,801,801,801,801,801,801,801,801,801,801,801,801,801,801,801,801,801,801,801,801,801,801,801,801,796,780,742,617,550,503,475,463,457,453,452,452,452,451,451,451,453,459,471],"ymouse":[632,632,632,632,632,632,632,632,632,632,632,632,632,632,632,632,632,632,632,632,632,632,632,632,632,632,632,632,632,633,633,633,633,633,633,633,633,633,633,619,589,532,406,348,307,278,242,228,218,213,208,201,165,149,133,122,114,95],"timestamp_mouse":[11,30,51,70,91,111,130,150,170,191,210,231,252,270,290,311,330,351,371,390,410,432,450,470,491,511,530,550,570,591,610,632,650,671,690,710,731,751,770,792,812,831,850,871,891,910,930,952,970,990,1011,1030,1050,1070,1090,1111,1130,1150],"xSR":741.5,"ySR":573.95,"xT1":424.9,"yT1":0,"xT2":1058.1,"yT2":0,"toosoon":0,"cond_shown":"equaldotsize","ratio_trial":750,"smaller_num":"15","larger_num":"20","correct_side":2,"subjID":"santiagoolayaa29","gender":"0","age":"11","school":"6"},{"start_time":1551893174276,"click_time":1551893178584,"finger_time":1551893177984,"fix_duration":1151.9066614780027,"trial":24,"RT":3708,"MT":600,"sideResp":1,"stimulus":"img/250/equaldotsize/L/14_Ratio_250_L_12_R_3.png","xmouse":[788,788,788,788,786,786,786,787,787,787,787,787,787,787,787,787,787,788,788,788,788,788,788,788,788,788,788,788,788,788,788,788,788,788,788,788,788,788,788,788,788,788,788,788,788,788,788,788,788,788,788,788,788,788,788,788,788,788,788,788,788,788,788,788,788,788,788,788,788,788,788,788,788,788,788,788,788,788,788,788,788,788,788,788,788,788,788,788,788,788,788,788,788,788,788,788,788,788,788,788,788,789,789,790,790,790,790,790,790,790,790,790,790,790,790,790,790,790,790,790,790,790,790,790,790,790,790,790,790,790,790,790,790,790,790,790,790,790,790,790,790,790,790,790,790,790,790,790,790,790,790,790,790,790,790,790,790,790,790,790,790,790,790,790,790,790,790,790,790,790,790,790,790,790,790,790,788,787,785,783,780,776,770,762,752,739,711,701,690,677,663,626,580,549,526,511,484,461,435,422,414,411,409,409,409,409,408,408,408,408,408,408,408,412,421,431],"ymouse":[624,626,626,628,631,632,634,635,636,638,639,639,639,639,639,639,639,640,640,640,640,640,640,640,640,640,640,640,640,640,640,640,640,640,640,640,640,640,640,640,640,640,640,640,640,640,640,640,640,640,640,640,640,640,640,640,640,640,640,640,640,640,640,640,640,640,640,640,640,640,640,640,640,640,640,640,640,640,640,640,640,640,640,640,640,640,640,640,640,640,640,640,640,640,640,640,640,640,640,640,639,638,638,637,637,637,637,637,637,637,637,637,637,637,637,637,637,637,637,637,637,637,637,637,637,637,637,637,637,637,637,637,637,637,637,637,637,637,637,637,637,637,637,637,637,637,637,637,637,637,637,637,637,637,637,637,637,637,637,637,637,637,637,637,637,637,637,637,637,637,637,637,637,637,637,637,637,636,636,635,634,631,624,619,613,608,589,573,554,534,516,477,439,412,386,364,301,247,197,165,143,124,92,65,54,46,40,31,30,30,30,30,29,32,37,45],"timestamp_mouse":[8,32,49,67,87,107,127,147,167,187,207,228,249,267,287,307,329,347,367,387,408,428,447,467,487,507,529,547,567,587,607,628,648,669,688,708,728,747,767,787,808,829,849,867,888,908,929,947,968,987,1007,1028,1048,1067,1087,1107,1129,1147,1167,1187,1208,1229,1248,1268,1289,1308,1327,1347,1367,1388,1408,1428,1447,1467,1489,1508,1527,1549,1568,1588,1608,1627,1649,1667,1687,1709,1728,1749,1767,1787,1809,1828,1847,1868,1887,1907,1927,1947,1967,1987,2007,2027,2049,2067,2088,2108,2129,2148,2168,2189,2208,2228,2247,2268,2289,2308,2327,2349,2367,2388,2407,2427,2447,2467,2488,2508,2528,2547,2568,2589,2609,2627,2648,2667,2688,2709,2728,2747,2769,2787,2808,2828,2847,2868,2889,2908,2927,2949,2967,2988,3009,3027,3047,3068,3089,3107,3127,3148,3169,3188,3207,3227,3248,3268,3288,3309,3329,3347,3369,3388,3407,3427,3449,3468,3488,3507,3529,3547,3568,3589,3609,3628,3647,3667,3688,3708,3728,3748,3767,3788,3808,3827,3848,3867,3888,3907,3928,3947,3968,3987,4008,4028,4047,4067,4088,4107,4127,4147,4168,4188,4207,4227,4248,4267,4288,4308],"xSR":741.5,"ySR":573.95,"xT1":424.9,"yT1":0,"xT2":1058.1,"yT2":0,"toosoon":0,"cond_shown":"equaldotsize","ratio_trial":250,"smaller_num":"3","larger_num":"12","correct_side":1,"subjID":"santiagoolayaa29","gender":"0","age":"11","school":"6"},{"start_time":1551893182540,"click_time":1551893183544,"finger_time":1551893183303,"fix_duration":476.61563118369054,"trial":25,"RT":763,"MT":241,"sideResp":1,"stimulus":"img/500/randomdotsizeEA/L/5_Ratio_500_L_4_R_2.png","xmouse":[806,806,806,806,806,806,806,806,806,806,806,806,806,806,806,806,806,806,806,806,806,806,806,806,806,806,806,806,806,806,806,806,806,806,806,802,791,766,698,685,679,674,660,649,632,621,608,593,551,529,515],"ymouse":[638,638,638,638,638,638,638,638,638,638,638,638,638,638,638,638,638,638,638,638,638,638,638,638,638,638,638,638,638,638,638,638,638,638,638,638,630,587,329,213,124,102,87,80,70,63,59,57,57,59,63],"timestamp_mouse":[3,25,45,63,83,103,125,143,163,183,203,223,244,263,283,303,324,343,363,383,404,424,444,463,483,503,523,543,565,584,604,623,644,664,683,704,723,743,763,783,803,823,843,863,883,904,923,943,963,983,1003],"xSR":741.5,"ySR":573.95,"xT1":424.9,"yT1":0,"xT2":1058.1,"yT2":0,"toosoon":0,"cond_shown":"randomdotsizeEA","ratio_trial":500,"smaller_num":"2","larger_num":"4","correct_side":1,"subjID":"santiagoolayaa29","gender":"0","age":"11","school":"6"},{"start_time":1551893187674,"click_time":1551893188684,"finger_time":1551893187963,"fix_duration":549.8466911960089,"trial":26,"RT":289,"MT":721,"sideResp":2,"stimulus":"img/900/equaldotsize/R/11_Ratio_900_L_18_R_20.png","xmouse":[755,755,755,765,772,773,773,773,773,773,773,773,783,818,869,897,903,904,903,901,901,901,901,899,893,884,877,865,864,864,864,864,855,851,848,848,853,876,893,905,919,953,971,973,974,974,974,979,995,1028,1071],"ymouse":[617,617,617,613,610,609,609,609,609,609,609,609,606,589,559,544,539,539,536,533,532,532,531,518,512,511,511,519,519,519,519,519,515,506,492,475,454,390,352,322,289,211,170,155,147,137,106,94,88,85,80],"timestamp_mouse":[10,30,50,69,89,111,129,149,169,189,209,229,249,269,289,309,329,349,370,389,410,429,449,469,490,510,529,549,569,589,609,629,650,669,690,709,729,749,769,790,810,829,849,869,890,911,929,949,970,990,1010],"xSR":741.5,"ySR":573.95,"xT1":424.9,"yT1":0,"xT2":1058.1,"yT2":0,"toosoon":0,"cond_shown":"equaldotsize","ratio_trial":900,"smaller_num":"18","larger_num":"20","correct_side":2,"subjID":"santiagoolayaa29","gender":"0","age":"11","school":"6"},{"start_time":1551893189995,"click_time":1551893191045,"finger_time":1551893190564,"fix_duration":250,"trial":27,"RT":569,"MT":481,"sideResp":1,"stimulus":"img/500/equaldotsize/L/8_Ratio_500_L_8_R_4.png","xmouse":[752,752,752,752,752,752,752,752,752,752,752,752,752,752,752,752,752,752,752,752,752,752,752,752,752,752,752,750,738,712,683,644,636,631,627,618,614,611,601,587,567,531,515,504,501,498,498,498,498,498,498,498,500],"ymouse":[632,632,632,632,632,632,632,632,632,632,632,632,632,632,632,632,632,632,632,632,632,632,632,632,632,632,632,612,546,472,407,332,308,288,273,249,237,231,219,203,186,157,146,138,133,120,109,107,107,107,106,101,95],"timestamp_mouse":[10,29,48,69,88,108,128,148,168,189,208,228,249,268,289,309,328,348,370,390,410,428,448,469,488,508,528,548,569,588,608,628,648,668,689,709,728,748,768,788,808,828,848,869,888,908,928,948,968,988,1009,1028,1050],"xSR":741.5,"ySR":573.95,"xT1":424.9,"yT1":0,"xT2":1058.1,"yT2":0,"toosoon":0,"cond_shown":"equaldotsize","ratio_trial":500,"smaller_num":"4","larger_num":"8","correct_side":1,"subjID":"santiagoolayaa29","gender":"0","age":"11","school":"6"},{"start_time":1551893194896,"click_time":1551893195623,"finger_time":1551893195445,"fix_duration":250,"trial":28,"RT":549,"MT":178,"sideResp":1,"stimulus":"img/500/equaldotanddens/L/13_Ratio_500_L_12_R_6.png","xmouse":[817,817,817,817,817,817,817,817,817,817,817,817,817,817,817,817,817,817,817,817,817,817,817,815,804,762,745,730,717,700,675,611,585,554,521,496,463],"ymouse":[626,626,626,626,626,626,626,626,626,626,626,626,626,626,626,626,626,626,626,626,626,626,626,624,620,605,593,580,562,534,496,396,343,276,200,141,77],"timestamp_mouse":[14,27,48,67,88,109,129,148,167,188,207,229,247,267,287,307,327,348,367,388,407,427,448,468,487,507,527,549,567,587,607,627,647,667,687,707,727],"xSR":741.5,"ySR":573.95,"xT1":424.9,"yT1":0,"xT2":1058.1,"yT2":0,"toosoon":0,"cond_shown":"equaldotanddens","ratio_trial":500,"smaller_num":"6","larger_num":"12","correct_side":1,"subjID":"santiagoolayaa29","gender":"0","age":"11","school":"6"},{"start_time":1551893197004,"click_time":1551893197943,"finger_time":1551893197422,"fix_duration":439.1128268477965,"trial":29,"RT":418,"MT":521,"sideResp":1,"stimulus":"img/500/equaldotanddens/L/11_Ratio_500_L_12_R_6.png","xmouse":[771,771,771,771,771,771,771,771,771,771,771,771,771,771,771,771,771,769,760,751,728,717,710,705,701,693,683,667,646,626,583,566,541,521,495,487,479,474,472,472,474,474,474,474,475,481,487],"ymouse":[621,621,621,621,621,621,621,621,621,621,621,621,621,621,621,621,621,616,609,601,584,579,576,574,569,553,536,517,495,473,414,384,346,316,261,236,200,177,159,147,138,138,138,138,137,112,93],"timestamp_mouse":[19,39,59,80,98,119,138,158,180,199,218,240,258,279,298,320,338,359,378,399,418,439,459,478,499,519,538,559,579,598,618,638,658,678,698,718,738,758,778,798,819,840,858,878,899,919,938],"xSR":741.5,"ySR":573.95,"xT1":424.9,"yT1":0,"xT2":1058.1,"yT2":0,"toosoon":0,"cond_shown":"equaldotanddens","ratio_trial":500,"smaller_num":"6","larger_num":"12","correct_side":1,"subjID":"santiagoolayaa29","gender":"0","age":"11","school":"6"},{"start_time":1551893199014,"click_time":1551893200002,"finger_time":1551893199323,"fix_duration":331.87693366315483,"trial":30,"RT":309,"MT":679,"sideResp":1,"stimulus":"img/750/equaldotsize/L/13_Ratio_750_L_8_R_6.png","xmouse":[776,776,776,776,775,774,774,774,774,774,774,774,774,774,773,744,717,694,681,668,666,666,666,665,668,671,675,684,694,707,749,759,760,760,753,719,657,573,481,383,367,361,359,359,363,373,384,398,415,434],"ymouse":[590,590,590,590,590,590,590,590,590,590,590,590,590,590,590,549,515,480,455,423,412,398,388,381,369,350,329,308,294,279,245,235,231,230,224,208,195,184,171,152,141,136,135,134,125,105,91,75,64,55],"timestamp_mouse":[11,29,48,68,89,108,128,150,168,190,208,228,248,268,289,309,328,348,369,388,409,428,448,468,489,509,528,548,568,589,608,629,648,669,688,708,728,748,768,788,808,828,848,869,888,910,928,948,968,988],"xSR":741.5,"ySR":573.95,"xT1":424.9,"yT1":0,"xT2":1058.1,"yT2":0,"toosoon":0,"cond_shown":"equaldotsize","ratio_trial":750,"smaller_num":"6","larger_num":"8","correct_side":1,"subjID":"santiagoolayaa29","gender":"0","age":"11","school":"6"},{"start_time":1551893201292,"click_time":1551893202362,"finger_time":1551893201963,"fix_duration":569.8787703165756,"trial":31,"RT":671,"MT":399,"sideResp":2,"stimulus":"img/750/equaldotanddens/R/5_Ratio_750_L_15_R_20.png","xmouse":[820,820,820,820,820,820,820,820,820,820,820,820,820,820,820,820,820,820,820,820,820,820,820,818,817,817,816,816,816,816,816,816,822,831,843,870,893,921,936,946,954,957,957,959,964,976,997,1012,1033,1045,1051,1055,1067,1078],"ymouse":[622,622,622,622,622,622,622,622,622,622,622,622,622,622,622,622,622,622,622,622,622,622,622,620,620,619,619,619,619,619,615,597,574,532,471,333,276,235,215,204,198,197,197,197,195,190,178,169,159,151,144,139,115,98],"timestamp_mouse":[11,31,50,70,90,110,130,150,170,190,210,232,250,272,291,311,330,351,370,390,410,431,450,471,491,511,532,551,570,591,610,630,650,671,690,710,731,751,770,791,810,831,850,870,891,910,930,950,971,990,1010,1030,1050,1070],"xSR":741.5,"ySR":573.95,"xT1":424.9,"yT1":0,"xT2":1058.1,"yT2":0,"toosoon":0,"cond_shown":"equaldotanddens","ratio_trial":750,"smaller_num":"15","larger_num":"20","correct_side":2,"subjID":"santiagoolayaa29","gender":"0","age":"11","school":"6"},{"start_time":1551893204098,"click_time":1551893205802,"finger_time":1551893204762,"fix_duration":874.108636387312,"trial":32,"RT":664,"MT":1040,"sideResp":2,"stimulus":"img/250/randomdotsizeEA/R/8_Ratio_250_L_1_R_4.png","xmouse":[811,811,811,811,811,811,811,811,811,811,811,811,811,811,811,811,811,811,811,811,811,811,811,811,811,811,811,811,811,811,811,796,777,745,702,668,631,620,613,610,606,605,605,604,604,604,604,604,604,604,604,604,604,604,604,604,604,604,604,604,604,604,604,604,604,604,604,601,597,595,594,600,703,844,1009,1145,1204,1204,1204,1204,1204,1204,1204,1188,1163,1130],"ymouse":[619,619,619,619,619,619,619,619,619,619,619,619,619,619,619,619,619,619,619,619,619,619,619,619,619,619,619,619,619,619,619,607,592,566,529,501,464,449,440,433,426,423,423,422,422,422,422,422,422,422,422,422,422,422,422,422,422,422,422,422,422,422,422,422,422,422,422,422,420,417,414,401,342,273,197,144,118,118,118,118,118,118,116,110,103,92],"timestamp_mouse":[5,25,44,65,84,104,124,144,164,186,204,224,245,265,286,304,324,345,364,384,406,425,445,465,485,505,524,544,564,584,604,624,644,664,684,704,724,744,764,784,804,825,844,864,885,906,926,945,964,985,1005,1025,1044,1065,1086,1105,1125,1144,1166,1185,1204,1224,1245,1265,1285,1306,1325,1345,1366,1384,1405,1424,1444,1464,1484,1504,1525,1545,1565,1585,1606,1624,1644,1665,1685,1704],"xSR":741.5,"ySR":573.95,"xT1":424.9,"yT1":0,"xT2":1058.1,"yT2":0,"toosoon":0,"cond_shown":"randomdotsizeEA","ratio_trial":250,"smaller_num":"1","larger_num":"4","correct_side":2,"subjID":"santiagoolayaa29","gender":"0","age":"11","school":"6"},{"start_time":1551893207298,"click_time":1551893208403,"finger_time":1551893208062,"fix_duration":396.13826011902466,"trial":33,"RT":764,"MT":341,"sideResp":2,"stimulus":"img/500/equaldotanddens/R/15_Ratio_500_L_1_R_2.png","xmouse":[816,816,816,816,816,816,816,816,816,816,816,816,816,816,816,816,816,816,816,816,816,816,816,816,816,816,816,816,816,816,816,816,816,816,816,816,817,823,833,846,877,920,951,976,993,1002,1016,1021,1027,1037,1048,1053,1056,1060,1066,1073],"ymouse":[615,615,615,615,615,615,615,615,615,615,615,615,615,615,615,615,615,615,615,615,615,615,615,615,615,615,615,615,615,615,615,615,615,615,615,615,615,597,564,520,394,298,249,216,199,191,185,184,181,175,162,149,139,125,108,91],"timestamp_mouse":[4,26,44,66,85,105,126,145,164,184,205,224,245,264,284,305,325,344,365,384,405,425,444,466,485,505,525,545,564,585,605,626,644,665,685,705,724,745,764,784,804,824,844,866,885,905,924,944,966,984,1005,1024,1044,1065,1084,1105],"xSR":741.5,"ySR":573.95,"xT1":424.9,"yT1":0,"xT2":1058.1,"yT2":0,"toosoon":0,"cond_shown":"equaldotanddens","ratio_trial":500,"smaller_num":"1","larger_num":"2","correct_side":2,"subjID":"santiagoolayaa29","gender":"0","age":"11","school":"6"},{"start_time":1551893211991,"click_time":1551893212664,"finger_time":1551893212463,"fix_duration":388.1080744330437,"trial":34,"RT":472,"MT":201,"sideResp":2,"stimulus":"img/500/equaldotanddens/R/6_Ratio_500_L_9_R_18.png","xmouse":[763,763,763,763,763,763,763,763,763,763,763,763,763,763,763,763,763,763,763,763,771,783,811,851,914,965,966,969,974,984,1003,1053,1083,1114],"ymouse":[639,639,639,639,639,639,639,639,639,639,639,639,639,639,639,639,639,639,639,639,636,628,616,599,568,507,482,457,421,363,310,206,155,95],"timestamp_mouse":[12,32,53,71,91,113,131,152,171,191,212,231,251,271,291,311,332,351,371,391,411,431,451,472,492,511,532,551,571,591,611,631,652,673],"xSR":741.5,"ySR":573.95,"xT1":424.9,"yT1":0,"xT2":1058.1,"yT2":0,"toosoon":0,"cond_shown":"equaldotanddens","ratio_trial":500,"smaller_num":"9","larger_num":"18","correct_side":2,"subjID":"santiagoolayaa29","gender":"0","age":"11","school":"6"},{"start_time":1551893219142,"click_time":1551893220822,"finger_time":1551893219723,"fix_duration":478.0521477763321,"trial":35,"RT":581,"MT":1099,"sideResp":1,"stimulus":"img/500/equaldotsize/L/11_Ratio_500_L_12_R_6.png","xmouse":[808,808,808,808,808,808,808,808,808,808,808,808,808,808,808,804,800,787,781,781,781,781,781,781,781,780,772,770,768,771,766,763,762,757,757,764,771,778,789,791,791,791,791,791,791,791,791,791,791,791,791,791,791,791,791,791,791,791,791,791,791,791,791,789,782,768,754,739,679,613,570,527,494,478,456,443,426,412,394,390,389,389,393,403,442],"ymouse":[640,640,640,640,640,640,640,640,640,640,640,640,640,640,640,639,639,636,635,635,635,635,635,635,635,635,616,604,582,561,558,558,558,566,579,596,613,627,640,642,643,643,643,643,643,643,643,643,643,643,643,643,643,643,643,643,643,643,643,643,643,643,643,641,631,612,590,564,490,415,369,316,271,248,204,177,146,120,86,69,63,61,58,58,58],"timestamp_mouse":[4,23,40,61,82,100,121,140,161,180,202,221,241,261,280,301,322,340,360,381,400,421,442,460,480,500,520,540,561,581,600,621,640,660,680,701,720,740,760,781,801,820,840,860,880,900,921,941,960,981,1000,1020,1040,1060,1081,1101,1120,1140,1161,1180,1200,1222,1240,1262,1280,1300,1321,1340,1360,1381,1400,1420,1440,1460,1480,1500,1520,1540,1561,1581,1600,1621,1640,1660,1680],"xSR":741.5,"ySR":573.95,"xT1":424.9,"yT1":0,"xT2":1058.1,"yT2":0,"toosoon":0,"cond_shown":"equaldotsize","ratio_trial":500,"smaller_num":"6","larger_num":"12","correct_side":1,"subjID":"santiagoolayaa29","gender":"0","age":"11","school":"6"},{"start_time":1551893222111,"click_time":1551893223302,"finger_time":1551893222922,"fix_duration":407.46325626946225,"trial":36,"RT":811,"MT":380,"sideResp":2,"stimulus":"img/250/randomdotsizeEA/L/5_Ratio_250_L_24_R_6.png","xmouse":[791,791,791,791,791,791,791,791,791,791,791,791,791,791,791,791,791,791,791,791,791,791,791,791,791,791,791,791,791,791,791,791,791,791,791,791,791,791,795,806,807,806,806,810,820,827,828,829,832,862,892,924,942,967,1042,1057,1069,1080,1090,1098],"ymouse":[602,602,602,602,602,602,602,602,602,602,602,602,602,602,602,602,602,602,602,602,602,602,602,602,602,602,602,602,602,602,602,602,602,602,602,602,602,602,596,577,564,550,534,516,504,492,488,484,478,448,422,375,343,305,199,174,151,125,105,86],"timestamp_mouse":[11,32,52,71,91,112,132,151,172,191,213,231,251,273,291,311,331,352,372,391,412,431,453,471,491,511,533,551,572,591,611,631,652,671,691,712,732,751,771,791,811,831,851,871,891,911,932,952,973,991,1011,1031,1052,1071,1091,1111,1131,1152,1171,1191],"xSR":741.5,"ySR":573.95,"xT1":424.9,"yT1":0,"xT2":1058.1,"yT2":0,"toosoon":0,"cond_shown":"randomdotsizeEA","ratio_trial":250,"smaller_num":"6","larger_num":"24","correct_side":1,"subjID":"santiagoolayaa29","gender":"0","age":"11","school":"6"},{"start_time":1551893225156,"click_time":1551893226222,"finger_time":1551893225722,"fix_duration":893.9154533981003,"trial":37,"RT":566,"MT":500,"sideResp":2,"stimulus":"img/500/equaldotanddens/R/14_Ratio_500_L_5_R_10.png","xmouse":[766,766,766,766,766,766,766,766,766,766,766,766,766,766,766,766,766,766,766,766,766,766,766,766,766,764,760,755,738,729,717,704,682,682,684,692,711,746,896,954,1000,1032,1056,1095,1102,1102,1102,1104,1104,1104,1103,1101,1099,1096],"ymouse":[604,604,604,604,604,604,604,604,604,604,604,604,604,604,604,604,604,604,604,604,604,604,604,604,603,601,599,596,578,567,554,539,506,492,480,468,457,440,362,328,301,273,244,186,168,161,156,150,142,137,127,116,104,85],"timestamp_mouse":[6,26,46,67,86,106,126,146,167,186,207,226,246,268,286,307,326,346,367,386,406,426,447,467,486,506,526,546,566,586,606,626,646,667,687,706,726,747,766,786,808,826,846,866,887,907,926,947,966,986,1007,1027,1047,1066],"xSR":741.5,"ySR":573.95,"xT1":424.9,"yT1":0,"xT2":1058.1,"yT2":0,"toosoon":0,"cond_shown":"equaldotanddens","ratio_trial":500,"smaller_num":"5","larger_num":"10","correct_side":2,"subjID":"santiagoolayaa29","gender":"0","age":"11","school":"6"},{"start_time":1551893231578,"click_time":1551893232543,"finger_time":1551893232282,"fix_duration":1313.3881024964455,"trial":38,"RT":704,"MT":261,"sideResp":1,"stimulus":"img/900/randomdotsizeEA/L/10_Ratio_900_L_20_R_18.png","xmouse":[768,768,768,768,768,768,768,768,768,768,768,768,768,768,768,768,768,768,768,768,768,768,768,768,769,769,769,769,769,769,769,769,769,766,758,738,666,619,589,569,555,542,538,538,538,538,526,521,518],"ymouse":[613,613,613,613,613,613,613,613,613,613,613,613,613,613,613,613,613,613,613,613,613,613,613,613,613,613,613,613,613,613,613,613,613,608,602,585,506,461,432,409,388,355,332,302,264,223,140,102,90],"timestamp_mouse":[4,24,45,64,84,106,125,145,165,185,204,224,244,264,285,305,324,344,365,384,404,424,446,465,484,506,524,544,564,585,605,624,645,664,685,704,725,745,764,784,806,824,844,864,885,904,924,945,964],"xSR":741.5,"ySR":573.95,"xT1":424.9,"yT1":0,"xT2":1058.1,"yT2":0,"toosoon":0,"cond_shown":"randomdotsizeEA","ratio_trial":900,"smaller_num":"18","larger_num":"20","correct_side":1,"subjID":"santiagoolayaa29","gender":"0","age":"11","school":"6"},{"start_time":1551893233612,"click_time":1551893234763,"finger_time":1551893234442,"fix_duration":250,"trial":39,"RT":830,"MT":321,"sideResp":2,"stimulus":"img/500/randomdotsizeEA/R/14_Ratio_500_L_5_R_10.png","xmouse":[779,779,779,779,779,779,779,779,779,779,779,779,779,779,779,778,776,775,774,773,773,773,773,773,773,773,773,773,773,773,773,773,773,773,773,773,773,773,773,773,773,815,855,950,1098,1104,1104,1102,1093,1079,1053,1053,1053,1052,1052,1053,1067,1094],"ymouse":[632,632,632,632,632,632,632,632,632,632,632,632,632,632,632,632,633,633,633,633,633,633,633,633,633,633,633,633,633,633,633,633,633,633,633,633,633,633,633,633,633,547,477,367,203,184,181,177,173,162,148,148,148,148,144,127,111,92],"timestamp_mouse":[10,30,50,70,90,111,130,150,170,191,210,230,250,270,290,310,331,351,370,391,411,431,451,470,491,511,531,551,571,592,610,630,650,671,690,711,732,752,771,790,810,830,850,870,890,911,930,951,970,990,1011,1031,1050,1071,1091,1110,1130,1151],"xSR":741.5,"ySR":573.95,"xT1":424.9,"yT1":0,"xT2":1058.1,"yT2":0,"toosoon":0,"cond_shown":"randomdotsizeEA","ratio_trial":500,"smaller_num":"5","larger_num":"10","correct_side":2,"subjID":"santiagoolayaa29","gender":"0","age":"11","school":"6"},{"start_time":1551893236202,"click_time":1551893237242,"finger_time":1551893236842,"fix_duration":877.4264510373787,"trial":40,"RT":640,"MT":400,"sideResp":1,"stimulus":"img/500/equaldotsize/L/4_Ratio_500_L_18_R_9.png","xmouse":[809,806,802,800,798,798,798,798,798,798,798,798,798,798,798,798,798,798,798,798,798,798,798,798,798,798,798,798,798,798,783,760,719,673,610,542,469,460,454,445,439,424,417,412,410,406,406,411,420,435,465,474,481],"ymouse":[636,631,627,624,622,622,622,622,622,622,622,622,622,622,622,622,622,622,622,622,622,622,622,622,622,622,622,622,622,622,606,592,573,545,500,452,396,380,363,344,319,268,243,220,200,170,161,152,143,131,109,102,94],"timestamp_mouse":[1,27,40,60,81,102,121,141,161,180,201,222,240,261,282,300,320,340,360,382,401,421,442,460,480,501,520,540,560,580,600,620,640,660,681,700,720,740,760,780,800,820,840,861,881,901,921,940,961,980,1000,1021,1040],"xSR":741.5,"ySR":573.95,"xT1":424.9,"yT1":0,"xT2":1058.1,"yT2":0,"toosoon":0,"cond_shown":"equaldotsize","ratio_trial":500,"smaller_num":"9","larger_num":"18","correct_side":1,"subjID":"santiagoolayaa29","gender":"0","age":"11","school":"6"},{"start_time":1551893238868,"click_time":1551893240022,"finger_time":1551893239482,"fix_duration":924.9292244476169,"trial":41,"RT":614,"MT":540,"sideResp":1,"stimulus":"img/750/equaldotsize/L/8_Ratio_750_L_4_R_3.png","xmouse":[804,804,804,804,804,804,804,804,804,804,804,804,804,804,804,804,804,804,804,804,804,804,804,804,804,802,798,780,765,748,732,726,728,735,752,770,787,814,821,822,819,763,688,644,606,581,558,540,537,534,532,525,524,524,524,523,521,516],"ymouse":[611,611,611,611,611,611,611,611,611,611,611,611,611,611,611,611,611,611,611,611,611,611,611,611,611,610,608,598,589,576,563,559,552,534,511,498,483,453,442,434,423,332,242,199,174,160,151,141,138,132,128,120,119,119,119,117,111,95],"timestamp_mouse":[14,34,55,74,96,114,134,154,176,194,216,235,254,275,294,315,335,355,374,394,414,435,456,474,494,514,534,554,574,594,614,635,654,674,695,714,735,754,775,795,815,834,854,874,895,914,934,954,975,996,1015,1034,1054,1075,1095,1114,1134,1154],"xSR":741.5,"ySR":573.95,"xT1":424.9,"yT1":0,"xT2":1058.1,"yT2":0,"toosoon":0,"cond_shown":"equaldotsize","ratio_trial":750,"smaller_num":"3","larger_num":"4","correct_side":1,"subjID":"santiagoolayaa29","gender":"0","age":"11","school":"6"},{"start_time":1551893241114,"click_time":1551893242182,"finger_time":1551893241942,"fix_duration":250,"trial":42,"RT":828,"MT":240,"sideResp":2,"stimulus":"img/900/equaldotanddens/L/1_Ratio_900_L_10_R_9.png","xmouse":[805,805,805,805,805,805,805,805,805,805,805,805,805,805,805,805,805,805,805,805,805,805,805,805,805,805,805,805,805,805,805,805,805,805,805,805,805,805,805,805,806,832,890,953,1017,1073,1089,1098,1100,1095,1094,1092,1086,1078],"ymouse":[625,625,625,625,625,625,625,625,625,625,625,625,625,625,625,625,625,625,625,625,625,625,625,625,625,625,625,625,625,625,625,625,625,625,625,625,625,625,625,624,603,567,502,427,350,277,252,235,221,194,169,143,117,91],"timestamp_mouse":[8,28,49,68,88,109,128,149,170,188,209,228,249,268,288,309,330,349,369,388,408,430,448,469,490,508,529,548,570,588,609,628,648,668,689,708,729,748,769,788,808,828,848,869,888,908,929,948,968,989,1009,1028,1049,1068],"xSR":741.5,"ySR":573.95,"xT1":424.9,"yT1":0,"xT2":1058.1,"yT2":0,"toosoon":0,"cond_shown":"equaldotanddens","ratio_trial":900,"smaller_num":"9","larger_num":"10","correct_side":1,"subjID":"santiagoolayaa29","gender":"0","age":"11","school":"6"},{"start_time":1551893243174,"click_time":1551893244244,"finger_time":1551893243983,"fix_duration":250,"trial":43,"RT":809,"MT":261,"sideResp":1,"stimulus":"img/900/equaldotsize/L/8_Ratio_900_L_20_R_18.png","xmouse":[753,753,753,753,753,753,753,753,753,753,753,753,753,753,753,753,753,753,753,753,753,753,753,753,753,753,753,753,753,753,753,753,753,753,753,753,753,753,753,748,738,713,634,597,569,543,515,506,503,499,496,493,490,490],"ymouse":[630,630,630,630,630,630,630,630,630,630,630,630,630,630,630,630,630,630,630,630,630,630,630,630,630,630,630,630,630,630,630,630,630,630,630,630,630,630,630,617,590,548,428,376,337,301,238,205,184,163,138,119,100,93],"timestamp_mouse":[9,28,49,68,88,109,129,148,169,189,208,229,248,269,288,308,329,349,370,388,408,429,449,468,489,508,530,548,568,589,608,630,649,668,689,709,729,748,768,789,809,828,848,869,890,908,929,948,968,989,1009,1028,1048,1070],"xSR":741.5,"ySR":573.95,"xT1":424.9,"yT1":0,"xT2":1058.1,"yT2":0,"toosoon":0,"cond_shown":"equaldotsize","ratio_trial":900,"smaller_num":"18","larger_num":"20","correct_side":1,"subjID":"santiagoolayaa29","gender":"0","age":"11","school":"6"},{"start_time":1551893245860,"click_time":1551893247603,"finger_time":1551893247222,"fix_duration":917.5775545177924,"trial":44,"RT":1362,"MT":381,"sideResp":1,"stimulus":"img/900/equaldotsize/R/6_Ratio_900_L_9_R_10.png","xmouse":[763,763,763,763,763,763,763,763,763,763,763,763,763,763,763,763,763,763,763,763,763,763,763,763,763,763,763,763,763,763,763,763,763,763,763,763,763,763,763,763,763,763,763,763,763,763,763,763,763,763,763,763,763,763,763,763,763,763,763,763,763,763,763,763,763,763,760,754,716,691,669,653,614,595,585,573,564,560,554,554,554,553,547,545,543,536,532,519],"ymouse":[627,627,627,627,627,627,627,627,627,627,627,627,627,627,627,627,627,627,627,627,627,627,627,627,627,627,627,627,627,627,627,627,627,627,627,627,627,627,627,627,627,627,627,627,627,627,627,627,627,627,627,627,627,627,627,627,627,627,627,627,627,627,627,627,627,627,611,600,535,494,461,432,375,342,325,308,292,278,253,243,227,210,173,137,116,98,88,81],"timestamp_mouse":[4,22,43,62,84,103,123,142,163,182,202,223,243,263,283,302,323,342,364,382,402,422,442,463,482,502,523,543,562,583,602,624,643,662,683,703,723,743,762,784,802,823,842,862,882,904,923,942,963,983,1003,1023,1043,1062,1082,1103,1124,1142,1162,1183,1203,1222,1242,1263,1282,1302,1322,1342,1362,1382,1403,1422,1442,1463,1482,1503,1522,1542,1562,1582,1603,1622,1642,1662,1682,1702,1722,1743],"xSR":741.5,"ySR":573.95,"xT1":424.9,"yT1":0,"xT2":1058.1,"yT2":0,"toosoon":0,"cond_shown":"equaldotsize","ratio_trial":900,"smaller_num":"9","larger_num":"10","correct_side":2,"subjID":"santiagoolayaa29","gender":"0","age":"11","school":"6"},{"start_time":1551893253865,"click_time":1551893254823,"finger_time":1551893254503,"fix_duration":1242.6064853080427,"trial":45,"RT":638,"MT":320,"sideResp":2,"stimulus":"img/900/equaldotsize/R/9_Ratio_900_L_18_R_20.png","xmouse":[799,799,799,799,799,799,799,799,799,799,799,799,799,799,799,799,799,799,799,799,799,799,799,799,799,799,799,799,807,815,822,858,943,1017,1064,1095,1108,1094,1085,1080,1077,1073,1072,1064,1062,1062,1063,1083],"ymouse":[640,640,640,640,640,640,640,640,640,640,640,640,640,640,640,640,640,640,640,640,640,640,640,640,640,640,640,638,631,627,623,598,542,487,418,361,302,209,189,179,174,162,153,130,122,115,110,97],"timestamp_mouse":[18,39,58,77,98,119,137,158,178,198,218,237,257,277,297,318,339,357,377,398,417,437,457,479,497,518,539,557,578,598,619,638,658,677,699,717,738,757,778,797,818,837,857,877,898,917,937,957],"xSR":741.5,"ySR":573.95,"xT1":424.9,"yT1":0,"xT2":1058.1,"yT2":0,"toosoon":0,"cond_shown":"equaldotsize","ratio_trial":900,"smaller_num":"18","larger_num":"20","correct_side":2,"subjID":"santiagoolayaa29","gender":"0","age":"11","school":"6"},{"start_time":1551893258318,"click_time":1551893259362,"finger_time":1551893259102,"fix_duration":1115.6685565063956,"trial":46,"RT":784,"MT":260,"sideResp":2,"stimulus":"img/750/randomdotsizeEA/L/10_Ratio_750_L_4_R_3.png","xmouse":[801,801,801,801,801,801,801,801,801,801,801,801,801,801,806,809,810,810,810,810,810,810,810,810,810,810,810,810,810,810,810,810,810,810,810,810,810,814,819,848,893,940,984,1023,1062,1069,1071,1071,1071,1071,1076,1081,1083],"ymouse":[625,625,625,625,625,625,625,625,625,625,625,625,625,625,617,614,614,614,614,614,614,614,614,614,614,614,614,614,614,614,614,614,614,614,614,614,614,604,597,556,515,469,418,366,314,297,278,257,234,209,145,119,96],"timestamp_mouse":[5,26,44,64,84,105,125,144,164,184,205,224,246,264,284,305,324,344,364,386,404,425,445,465,486,505,524,546,565,585,606,624,644,665,685,704,724,744,764,784,805,824,844,865,884,904,924,945,965,984,1004,1024,1044],"xSR":741.5,"ySR":573.95,"xT1":424.9,"yT1":0,"xT2":1058.1,"yT2":0,"toosoon":0,"cond_shown":"randomdotsizeEA","ratio_trial":750,"smaller_num":"3","larger_num":"4","correct_side":1,"subjID":"santiagoolayaa29","gender":"0","age":"11","school":"6"},{"start_time":1551893261058,"click_time":1551893262582,"finger_time":1551893262222,"fix_duration":615.2510857574092,"trial":47,"RT":1164,"MT":360,"sideResp":2,"stimulus":"img/250/equaldotsize/R/8_Ratio_250_L_1_R_4.png","xmouse":[789,789,789,789,789,789,789,789,789,789,789,789,789,789,789,789,789,789,789,789,789,789,789,789,789,789,789,789,789,789,789,789,789,789,789,789,789,789,789,789,789,789,789,789,789,789,789,789,789,789,789,789,789,789,789,789,789,799,898,972,1044,1104,1207,1243,1258,1258,1258,1258,1255,1249,1241,1235,1226,1191,1173,1159,1148],"ymouse":[644,644,644,644,644,644,644,644,644,644,644,644,644,644,644,644,644,644,644,644,644,644,644,644,644,644,644,644,644,644,644,644,644,644,644,644,644,644,644,644,644,644,644,644,644,644,644,644,644,644,644,644,644,644,644,644,640,630,525,453,377,298,168,127,106,99,97,94,77,67,58,51,48,44,44,44,45],"timestamp_mouse":[5,25,44,64,86,105,126,144,164,185,205,224,245,264,285,305,325,345,366,385,404,425,446,464,484,505,525,545,565,584,604,624,644,664,685,705,725,745,765,785,805,826,845,864,885,905,925,945,966,984,1004,1025,1045,1064,1084,1105,1124,1145,1164,1185,1205,1225,1245,1264,1284,1305,1325,1344,1364,1384,1404,1424,1444,1464,1484,1504,1524],"xSR":741.5,"ySR":573.95,"xT1":424.9,"yT1":0,"xT2":1058.1,"yT2":0,"toosoon":0,"cond_shown":"equaldotsize","ratio_trial":250,"smaller_num":"1","larger_num":"4","correct_side":2,"subjID":"santiagoolayaa29","gender":"0","age":"11","school":"6"},{"start_time":1551893264168,"click_time":1551893266142,"finger_time":1551893265764,"fix_duration":545.6141604553695,"trial":48,"RT":1596,"MT":378,"sideResp":1,"stimulus":"img/900/equaldotanddens/R/12_Ratio_900_L_18_R_20.png","xmouse":[810,810,810,810,810,810,810,810,810,810,810,810,810,810,810,810,810,810,810,810,810,810,810,810,810,810,810,810,810,810,810,810,810,810,810,810,810,810,810,810,810,810,810,810,810,810,810,810,810,810,810,810,810,810,810,810,810,810,810,810,810,810,810,810,810,810,810,810,810,810,810,810,810,810,810,810,809,794,775,744,701,658,596,572,553,539,531,528,526,524,523,521,511,508,507,505,505,502,501],"ymouse":[624,624,624,624,624,624,624,624,624,624,624,624,624,624,624,624,624,624,624,624,624,624,624,624,624,624,624,624,624,624,624,624,624,624,624,624,624,624,624,624,624,624,624,624,624,624,624,624,624,624,624,624,624,624,624,624,624,624,624,624,624,624,624,624,624,624,624,624,624,624,624,624,624,624,624,624,625,614,588,553,507,460,381,341,307,277,243,224,212,199,186,164,130,120,114,111,110,100,96],"timestamp_mouse":[15,38,54,75,94,114,134,155,174,196,215,234,254,274,294,314,334,354,374,394,414,434,454,474,494,514,534,555,574,594,614,634,654,674,695,714,734,754,774,794,814,834,854,874,896,914,934,955,975,994,1015,1034,1055,1075,1094,1114,1134,1155,1174,1194,1214,1234,1256,1274,1295,1315,1335,1356,1374,1395,1414,1434,1454,1475,1494,1514,1535,1554,1574,1596,1615,1634,1654,1674,1694,1714,1734,1755,1774,1795,1814,1834,1854,1874,1894,1914,1935,1954,1974],"xSR":741.5,"ySR":573.95,"xT1":424.9,"yT1":0,"xT2":1058.1,"yT2":0,"toosoon":0,"cond_shown":"equaldotanddens","ratio_trial":900,"smaller_num":"18","larger_num":"20","correct_side":2,"subjID":"santiagoolayaa29","gender":"0","age":"11","school":"6"},{"start_time":1551893267784,"click_time":1551893268684,"finger_time":1551893268563,"fix_duration":480.72327353339784,"trial":49,"RT":779,"MT":121,"sideResp":2,"stimulus":"img/250/equaldotanddens/R/8_Ratio_250_L_1_R_4.png","xmouse":[781,781,781,781,781,781,781,781,781,781,781,781,781,781,781,781,781,781,781,781,781,781,781,781,781,781,781,781,781,781,781,781,781,781,781,781,781,802,846,882,924,1041,1080,1092,1094],"ymouse":[616,616,616,616,616,616,616,616,616,616,616,616,616,616,616,616,616,616,616,616,616,616,616,616,616,616,616,616,616,616,616,616,616,616,616,616,616,593,521,457,383,222,150,113,96],"timestamp_mouse":[19,38,58,78,98,119,140,158,178,199,218,238,259,278,299,318,339,358,378,398,418,439,459,479,498,519,538,560,579,598,618,638,658,679,698,720,738,758,779,798,818,838,858,878,900],"xSR":741.5,"ySR":573.95,"xT1":424.9,"yT1":0,"xT2":1058.1,"yT2":0,"toosoon":0,"cond_shown":"equaldotanddens","ratio_trial":250,"smaller_num":"1","larger_num":"4","correct_side":2,"subjID":"santiagoolayaa29","gender":"0","age":"11","school":"6"},{"start_time":1551893271853,"click_time":1551893272803,"finger_time":1551893272102,"fix_duration":909.6112228943213,"trial":50,"RT":249,"MT":701,"sideResp":1,"stimulus":"img/900/equaldotsize/R/6_Ratio_900_L_9_R_10.png","xmouse":[780,780,780,780,780,780,780,780,780,778,772,767,764,764,764,764,764,764,764,764,764,764,764,759,756,756,754,747,736,736,736,736,723,688,581,542,526,458,413,409,424,469,499,464,454,447,443,440],"ymouse":[636,636,636,636,636,636,636,636,636,639,653,670,678,678,678,678,678,678,678,678,678,678,678,705,714,714,721,726,727,727,727,727,704,679,656,656,656,645,638,630,566,422,0,0,0,0,0,1],"timestamp_mouse":[10,29,49,69,89,109,130,150,169,190,209,229,249,270,290,309,329,350,369,389,410,429,449,469,490,510,529,549,570,589,610,629,650,670,689,709,729,749,769,789,811,831,849,869,890,910,929,949],"xSR":741.5,"ySR":573.95,"xT1":424.9,"yT1":0,"xT2":1058.1,"yT2":0,"toosoon":0,"cond_shown":"equaldotsize","ratio_trial":900,"smaller_num":"9","larger_num":"10","correct_side":2,"subjID":"santiagoolayaa29","gender":"0","age":"11","school":"6"},{"start_time":1551893286174,"click_time":1551893288904,"finger_time":1551893288322,"fix_duration":1370.8348772734632,"trial":51,"RT":2148,"MT":582,"sideResp":2,"stimulus":"img/750/equaldotsize/L/13_Ratio_750_L_8_R_6.png","xmouse":[814,814,814,814,814,814,814,814,814,814,814,814,814,814,814,814,814,814,814,814,814,814,814,814,814,814,814,814,814,814,814,814,814,814,814,814,814,814,814,814,814,814,814,814,814,814,814,814,814,814,814,814,814,814,814,814,814,814,814,814,814,814,814,814,814,814,814,814,814,814,814,814,814,814,814,814,814,814,814,814,814,814,814,814,814,814,814,814,814,814,814,814,814,814,814,814,814,814,814,814,814,814,814,814,814,812,810,806,806,806,806,806,806,806,806,806,806,806,806,826,852,890,1020,1103,1176,1227,1252,1278,1278,1278,1278,1268,1242,1211,1173,1142,1074],"ymouse":[625,625,625,625,625,625,625,625,625,625,625,625,625,625,625,625,625,625,625,625,625,625,625,625,625,625,625,625,625,625,625,625,625,625,625,625,625,625,625,625,625,625,625,625,625,625,625,625,625,625,625,625,625,625,625,625,625,625,625,625,625,625,625,625,625,625,625,625,625,625,625,625,625,625,625,625,625,625,625,625,625,625,625,625,625,625,625,625,625,625,625,625,625,625,625,625,625,625,625,625,625,625,625,625,625,611,598,566,564,564,564,564,564,564,564,564,564,564,558,524,488,431,261,142,37,0,0,0,0,0,0,0,0,0,0,0,10],"timestamp_mouse":[8,29,49,68,89,110,128,148,169,189,208,228,250,269,289,309,328,348,369,388,409,428,448,469,488,508,528,548,569,588,608,628,648,669,688,710,728,750,768,788,809,828,848,868,888,908,928,948,970,989,1008,1028,1048,1069,1089,1110,1129,1150,1169,1189,1208,1229,1248,1269,1288,1308,1328,1349,1368,1389,1409,1429,1450,1469,1489,1508,1530,1549,1569,1589,1609,1628,1648,1669,1688,1710,1729,1748,1768,1788,1808,1829,1848,1870,1888,1908,1928,1948,1969,1990,2008,2028,2048,2069,2088,2110,2129,2148,2169,2188,2208,2228,2249,2268,2289,2309,2328,2349,2368,2390,2408,2428,2448,2469,2488,2509,2528,2548,2568,2589,2608,2628,2648,2668,2688,2709,2729],"xSR":741.5,"ySR":573.95,"xT1":424.9,"yT1":0,"xT2":1058.1,"yT2":0,"toosoon":0,"cond_shown":"equaldotsize","ratio_trial":750,"smaller_num":"6","larger_num":"8","correct_side":1,"subjID":"santiagoolayaa29","gender":"0","age":"11","school":"6"},{"start_time":1551893293556,"click_time":1551893294282,"finger_time":1551893294202,"fix_duration":872.4575885336426,"trial":52,"RT":646,"MT":80,"sideResp":2,"stimulus":"img/900/randomdotsizeEA/L/1_Ratio_900_L_10_R_9.png","xmouse":[801,801,801,801,801,801,801,801,801,801,801,801,801,801,801,801,801,801,801,801,801,801,801,801,801,801,801,801,801,801,804,809,832,904,972,1045,1097],"ymouse":[612,612,612,612,612,612,612,612,612,612,612,612,612,612,612,612,612,612,612,612,612,612,612,612,612,612,612,612,612,612,604,585,533,346,223,142,89],"timestamp_mouse":[7,26,47,66,86,107,128,147,166,187,206,227,246,266,286,306,328,347,366,387,407,426,446,467,486,506,526,548,566,586,606,626,646,666,686,707,726],"xSR":741.5,"ySR":573.95,"xT1":424.9,"yT1":0,"xT2":1058.1,"yT2":0,"toosoon":0,"cond_shown":"randomdotsizeEA","ratio_trial":900,"smaller_num":"9","larger_num":"10","correct_side":1,"subjID":"santiagoolayaa29","gender":"0","age":"11","school":"6"},{"start_time":1551893295493,"click_time":1551893327544,"finger_time":1551893295803,"fix_duration":250,"trial":53,"RT":310,"MT":31741,"sideResp":1,"stimulus":"img/750/equaldotanddens/L/10_Ratio_750_L_4_R_3.png","xmouse":[773,773,773,773,773,773,773,773,773,773,773,773,769,757,743,682,634,591,568,559,555,554,554,557,564,571,585,592,605,622,652,659,659,659,659,659,678,697,723,751,778,818,822,824,825,825,826,826,826,826,825,825,825,825,825,825,825,825,825,825,825,825,825,825,825,825,825,825,825,825,825,825,825,825,825,825,825,825,825,825,825,825,825,825,825,825,825,825,825,825,811,794,784,774,768,763,747,727,688,639,592,474,443,415,397,372,339,284,224,179,154,152,151,146,136,118,116,118,143,191,379,379,379,379,379,379,379,379,379,379,379,379,379,379,379,379,379,379,379,379,379,379,379,379,379,379,379,379,379,379,379,379,379,379,379,379,379,379,379,379,379,379,379,379,379,379,379,379,379,379,379,379,379,379,379,379,379,379,379,379,379,379,379,379,379,379,379,379,379,379,379,379,379,379,379,379,379,379,379,379,379,379,379,379,379,379,379,379,379,379,379,379,379,379,379,379,379,379,379,379,379,379,379,379,379,379,379,379,379,379,379,379,379,379,379,379,379,379,379,379,379,379,379,379,379,379,379,379,379,379,379,379,379,379,379,379,379,379,379,379,379,379,379,379,379,379,379,379,379,379,379,379,379,379,379,379,379,379,379,379,379,379,379,379,379,379,379,379,379,379,379,379,379,379,379,379,379,379,379,379,379,379,379,379,379,379,379,379,379,379,379,379,379,379,379,379,379,379,379,379,379,379,379,379,379,379,379,379,379,379,379,379,379,379,379,379,379,379,379,379,379,379,379,379,379,387,434],"ymouse":[615,615,615,615,615,615,615,615,615,615,615,615,615,606,583,458,392,346,329,325,326,331,343,355,366,373,378,378,377,371,347,339,339,339,339,339,357,384,420,457,491,529,532,533,533,533,534,537,540,544,546,546,546,546,546,546,546,544,542,542,542,542,542,542,542,542,542,542,542,542,542,542,542,542,542,542,542,542,542,542,542,542,542,542,542,542,542,439,439,439,409,378,366,356,352,348,333,315,286,252,218,133,118,111,109,120,169,256,326,361,379,379,379,379,377,365,350,321,262,194,17,17,17,17,17,17,17,17,17,17,17,17,17,17,17,17,17,17,17,17,17,17,17,17,17,17,17,17,17,17,17,17,17,17,17,17,17,17,17,17,17,17,17,17,17,17,17,17,17,17,17,17,17,17,17,17,17,17,17,17,17,17,17,17,17,17,17,17,17,17,17,17,17,17,17,17,17,17,17,17,17,17,17,17,17,17,17,17,17,17,17,17,17,17,17,17,17,17,17,17,17,17,17,17,17,17,17,17,17,17,17,17,17,17,17,17,17,17,17,17,17,17,17,17,17,17,17,17,17,17,17,17,17,17,17,17,17,17,17,17,17,17,17,17,17,17,17,17,17,17,17,17,17,17,17,17,17,17,17,17,17,17,17,17,17,17,17,17,17,17,17,17,17,17,17,17,17,17,17,17,17,17,17,17,17,17,17,17,17,17,17,17,17,17,17,17,17,17,17,17,17,17,17,17,17,17,17,17,17,17,17,17,17,17,17,17,17,17,17,17,17,17,17,17,17,20,98],"timestamp_mouse":[9,30,49,69,89,109,129,149,169,190,209,229,249,269,289,310,329,350,370,389,409,429,449,470,491,510,529,550,570,589,610,629,649,670,690,709,729,749,770,789,810,830,849,869,890,909,929,949,969,989,1010,1029,1049,1069,1089,1109,1130,1149,1169,1189,1209,1230,1249,1269,1290,1309,1331,1349,1369,1389,1410,1429,1449,1469,1490,1509,1529,1549,1571,1591,1610,1629,1650,1670,1690,1711,1732,1750,1769,1790,1810,1829,1849,1869,1889,1909,1929,1951,1969,1991,2009,2029,2049,2069,2089,2109,2130,2150,2169,2190,2210,2230,2249,2269,2289,2310,2329,2349,2370,2389,2410,2429,2449,2469,2489,2510,2529,2549,2569,2591,2610,2630,2649,2669,2690,2710,2731,2750,2770,2789,2810,2830,2849,2869,2889,2910,2929,2949,2969,2989,3010,3030,3051,3070,3090,3110,3129,3151,3169,3190,3209,3230,3249,3269,3289,3310,3329,3349,3369,3389,3410,3430,3449,3469,3489,3510,3529,3549,3571,3589,3609,3630,3650,3670,3689,3710,3729,3750,3770,3789,3810,3830,4095,5096,6095,7095,8107,8110,9108,9109,10108,10110,11108,11109,12101,13095,14108,14110,15095,15869,15869,15891,15910,15930,15949,15970,15990,16010,16030,16050,16070,16090,16109,16130,16150,16169,16189,16210,16230,16250,16269,16290,16309,16329,16349,16369,16390,16410,16430,16449,16469,16489,16511,16530,16549,16569,16589,16610,16629,16649,16669,16691,16710,16730,16749,16769,16789,16810,16829,16850,16869,16889,17102,18094,19096,20095,21095,22094,23095,24096,25096,26095,27097,28096,29096,30096,30652,30670,30691,30711,30730,30750,30770,30791,30811,30830,30850,30870,30891,30910,30930,30951,30971,30991,31010,31031,31050,31071,31090,31110,31131,31150,31171,31191,31211,31230,31251,31269,31290,31311,31330,31351,31370,31390,31411,31430,31451,31471,31491,31511,31530,31550,31571,31590,31611,31630,31651,31670,31691,31710,31729,31750,31771,31790,31810,31830,31850,31870,31891,31910,31930,31950,31971,31990,32011,32030,32050],"xSR":741.5,"ySR":573.95,"xT1":424.9,"yT1":0,"xT2":1058.1,"yT2":0,"toosoon":0,"cond_shown":"equaldotanddens","ratio_trial":750,"smaller_num":"3","larger_num":"4","correct_side":1,"subjID":"santiagoolayaa29","gender":"0","age":"11","school":"6"},{"start_time":1551893338787,"click_time":1551893339943,"finger_time":1551893339563,"fix_duration":582.9445988167457,"trial":54,"RT":776,"MT":380,"sideResp":2,"stimulus":"img/900/equaldotanddens/R/12_Ratio_900_L_18_R_20.png","xmouse":[807,807,807,807,807,805,802,801,801,801,799,792,787,787,787,787,787,787,787,787,787,787,787,787,787,787,787,787,787,787,787,787,787,787,787,787,787,817,882,914,943,946,949,951,953,957,960,960,961,972,990,1011,1013,1019,1026,1051,1057,1059],"ymouse":[633,633,633,633,633,631,631,631,631,631,631,631,631,631,631,631,631,631,631,631,631,631,631,631,631,631,631,631,631,631,631,631,631,631,631,631,631,596,502,416,311,284,268,262,254,246,235,230,224,215,201,168,148,127,107,66,44,31],"timestamp_mouse":[20,37,56,76,97,116,136,157,176,196,217,235,257,276,296,316,337,356,376,396,416,436,457,477,497,516,536,556,576,596,616,636,656,676,696,716,736,756,776,795,816,837,856,876,896,917,936,956,977,996,1016,1036,1057,1076,1096,1116,1135,1156],"xSR":741.5,"ySR":573.95,"xT1":424.9,"yT1":0,"xT2":1058.1,"yT2":0,"toosoon":0,"cond_shown":"equaldotanddens","ratio_trial":900,"smaller_num":"18","larger_num":"20","correct_side":2,"subjID":"santiagoolayaa29","gender":"0","age":"11","school":"6"},{"start_time":1551893345630,"click_time":1551893346242,"finger_time":1551893345743,"fix_duration":1064.1240906801124,"trial":55,"RT":113,"MT":499,"sideResp":1,"stimulus":"img/900/equaldotanddens/L/4_Ratio_900_L_20_R_18.png","xmouse":[761,761,761,761,761,761,762,763,764,764,764,764,764,761,751,744,734,724,697,679,657,632,609,573,546,531,514,502,487,485,485],"ymouse":[627,626,615,606,578,573,566,555,545,542,540,536,531,524,509,504,497,489,460,444,425,399,368,309,260,222,187,157,118,106,98],"timestamp_mouse":[14,34,54,72,94,113,134,153,173,193,213,233,253,273,293,313,332,353,373,393,413,433,453,473,493,513,533,553,573,593,612],"xSR":741.5,"ySR":573.95,"xT1":424.9,"yT1":0,"xT2":1058.1,"yT2":0,"toosoon":0,"cond_shown":"equaldotanddens","ratio_trial":900,"smaller_num":"18","larger_num":"20","correct_side":1,"subjID":"santiagoolayaa29","gender":"0","age":"11","school":"6"},{"start_time":1551893355851,"click_time":1551893356823,"finger_time":1551893356044,"fix_duration":1307.0613629188267,"trial":56,"RT":193,"MT":779,"sideResp":2,"stimulus":"img/750/equaldotsize/R/5_Ratio_750_L_15_R_20.png","xmouse":[790,790,788,787,787,788,791,793,793,793,793,793,793,788,781,774,770,767,766,766,765,765,765,765,765,767,774,780,807,836,868,898,935,944,953,966,980,999,1032,1041,1049,1055,1059,1060,1060,1060,1060,1060,1059],"ymouse":[583,583,593,608,619,624,634,656,668,675,677,677,677,671,654,636,622,613,603,601,601,601,601,601,600,596,590,583,541,492,446,402,321,290,252,222,192,156,81,45,15,0,0,0,0,0,0,0,3],"timestamp_mouse":[13,33,52,72,92,112,132,152,172,193,212,232,253,273,292,312,333,353,373,392,412,432,452,472,492,512,532,552,572,592,613,632,652,672,692,712,732,752,772,792,812,832,853,872,892,912,932,953,972],"xSR":741.5,"ySR":573.95,"xT1":424.9,"yT1":0,"xT2":1058.1,"yT2":0,"toosoon":0,"cond_shown":"equaldotsize","ratio_trial":750,"smaller_num":"15","larger_num":"20","correct_side":2,"subjID":"santiagoolayaa29","gender":"0","age":"11","school":"6"},{"start_time":1551893359924,"click_time":1551893360823,"finger_time":1551893360403,"fix_duration":1019.849928613693,"trial":57,"RT":479,"MT":420,"sideResp":2,"stimulus":"img/750/equaldotsize/R/3_Ratio_750_L_15_R_20.png","xmouse":[792,792,792,792,792,792,792,792,792,792,792,792,792,792,792,792,792,792,792,792,792,793,797,799,800,800,800,797,794,805,832,874,916,988,1011,1027,1040,1055,1075,1078,1079,1079,1081,1086,1088],"ymouse":[628,628,628,628,628,628,628,628,628,628,628,628,628,628,628,628,628,628,628,628,628,616,597,572,505,469,434,400,354,340,323,299,275,218,191,170,151,133,116,113,111,109,107,103,99],"timestamp_mouse":[19,39,59,79,99,119,139,159,179,199,219,239,260,279,299,320,339,359,379,400,419,439,459,479,499,519,539,559,579,600,619,639,659,679,699,719,739,759,779,798,819,840,859,879,899],"xSR":741.5,"ySR":573.95,"xT1":424.9,"yT1":0,"xT2":1058.1,"yT2":0,"toosoon":0,"cond_shown":"equaldotsize","ratio_trial":750,"smaller_num":"15","larger_num":"20","correct_side":2,"subjID":"santiagoolayaa29","gender":"0","age":"11","school":"6"},{"start_time":1551893364199,"click_time":1551893364803,"finger_time":1551893364543,"fix_duration":1415.6460480465864,"trial":58,"RT":344,"MT":260,"sideResp":2,"stimulus":"img/500/equaldotanddens/R/14_Ratio_500_L_5_R_10.png","xmouse":[783,794,801,809,814,816,816,816,816,816,816,816,817,817,819,820,820,823,830,843,874,895,920,951,980,1019,1041,1052,1063,1070,1076],"ymouse":[610,600,596,593,591,591,591,591,596,599,608,608,609,609,605,598,577,566,553,537,511,496,477,448,398,287,223,190,156,130,90],"timestamp_mouse":[4,24,45,64,84,105,125,144,165,185,204,224,244,264,284,304,324,344,364,385,404,424,444,464,485,504,525,544,564,584,604],"xSR":741.5,"ySR":573.95,"xT1":424.9,"yT1":0,"xT2":1058.1,"yT2":0,"toosoon":0,"cond_shown":"equaldotanddens","ratio_trial":500,"smaller_num":"5","larger_num":"10","correct_side":2,"subjID":"santiagoolayaa29","gender":"0","age":"11","school":"6"},{"start_time":1551893369530,"click_time":1551893370223,"finger_time":1551893369904,"fix_duration":1006.0698142893847,"trial":59,"RT":374,"MT":319,"sideResp":2,"stimulus":"img/500/equaldotanddens/R/14_Ratio_500_L_5_R_10.png","xmouse":[785,785,785,785,785,785,785,785,785,785,785,785,785,785,785,785,785,799,843,955,984,1004,1017,1031,1062,1070,1074,1077,1080,1081,1081,1081,1082,1083,1090],"ymouse":[618,618,618,618,618,618,618,618,618,618,618,618,618,618,618,618,618,601,570,487,457,427,378,324,227,185,157,134,117,103,103,103,101,101,96],"timestamp_mouse":[13,33,53,73,93,113,133,153,173,193,213,234,254,273,293,314,333,353,374,393,413,434,453,473,493,513,533,553,574,593,613,633,653,673,693],"xSR":741.5,"ySR":573.95,"xT1":424.9,"yT1":0,"xT2":1058.1,"yT2":0,"toosoon":0,"cond_shown":"equaldotanddens","ratio_trial":500,"smaller_num":"5","larger_num":"10","correct_side":2,"subjID":"santiagoolayaa29","gender":"0","age":"11","school":"6"},{"start_time":1551893374667,"click_time":1551893385422,"finger_time":1551893384703,"fix_duration":423.86328135024087,"trial":60,"RT":10036,"MT":719,"sideResp":2,"stimulus":"img/500/randomdotsizeEA/L/4_Ratio_500_L_18_R_9.png","xmouse":[794,794,794,794,794,794,794,794,794,794,794,794,794,794,794,794,794,794,794,794,794,794,794,794,794,794,794,794,794,794,794,794,794,794,794,794,794,794,794,794,794,794,794,794,794,794,794,794,794,794,794,794,794,794,794,794,794,794,794,794,794,794,794,794,794,794,794,794,794,794,794,794,794,794,794,794,794,794,794,794,794,794,794,794,794,794,794,794,794,794,794,794,794,794,794,794,794,794,794,794,794,794,794,794,794,794,794,794,794,794,794,794,794,794,794,794,794,794,794,794,794,794,794,794,794,794,794,794,794,794,794,794,794,794,794,794,794,794,794,794,794,794,794,794,794,794,794,794,794,794,794,794,794,794,794,794,794,794,794,794,794,794,794,794,794,794,794,794,794,794,794,794,794,794,794,794,794,794,794,794,794,794,794,794,794,794,794,794,794,794,794,794,794,794,794,794,794,794,794,794,794,794,794,794,794,794,794,794,794,794,794,794,794,794,794,794,794,794,794,794,794,794,794,794,794,794,794,794,794,794,794,794,794,794,794,794,794,794,794,794,794,794,794,794,794,794,794,794,794,794,794,794,794,794,794,794,794,794,794,794,794,794,794,794,794,794,794,794,794,794,794,794,794,794,794,794,794,794,794,794,794,794,794,794,794,794,794,794,794,794,794,794,794,794,794,794,794,794,794,794,794,794,794,794,794,794,794,794,794,794,794,794,794,794,794,794,794,794,794,794,794,794,794,794,794,794,794,794,794,794,794,794,794,794,794,794,794,794,794,794,794,794,794,794,794,794,794,794,794,794,794,794,794,794,794,794,794,794,794,794,794,794,794,794,794,794,794,794,794,794,794,794,794,794,794,794,794,794,794,794,794,794,794,794,794,794,794,794,794,794,794,794,794,794,794,794,794,794,794,794,794,794,794,794,794,794,794,794,794,794,794,794,794,794,794,794,794,794,794,794,794,794,794,794,794,794,794,794,794,794,794,794,794,794,794,794,794,794,794,794,794,794,794,794,794,794,794,794,794,794,794,794,794,794,794,794,794,794,794,794,794,797,801,806,809,811,812,814,814,814,814,814,814,814,814,814,814,813,812,812,812,812,812,812,812,812,811,806,798,792,786,785,785,785,785,785,784,784,784,784,785,805,821,846,864,882,896,923,933,939,944,947,949,949,953,959,970,978,989,1005,1016,1030,1041,1053,1070,1087,1103,1126,1132,1136,1138,1140,1140,1140,1140,1140,1137,1127],"ymouse":[634,634,634,634,634,634,634,634,634,634,634,634,634,634,634,634,634,634,634,634,634,634,634,634,634,634,634,634,634,634,634,634,634,634,634,634,634,634,634,634,634,634,634,634,634,634,634,634,634,634,634,634,634,634,634,634,634,634,634,634,634,634,634,634,634,634,634,634,634,634,634,634,634,634,634,634,634,634,634,634,634,634,634,634,634,634,634,634,634,634,634,634,634,634,634,634,634,634,634,634,634,634,634,634,634,634,634,634,634,634,634,634,634,634,634,634,634,634,634,634,634,634,634,634,634,634,634,634,634,634,634,634,634,634,634,634,634,634,634,634,634,634,634,634,634,634,634,634,634,634,634,634,634,634,634,634,634,634,634,634,634,634,634,634,634,634,634,634,634,634,634,634,634,634,634,634,634,634,634,634,634,634,634,634,634,634,634,634,634,634,634,634,634,634,634,634,634,634,634,634,634,634,634,634,634,634,634,634,629,627,623,621,620,620,620,620,620,620,620,618,618,618,618,618,618,618,618,618,618,618,618,618,618,618,618,618,618,618,618,618,618,618,618,618,618,618,618,618,618,618,618,618,618,618,618,618,618,618,618,618,618,618,618,618,618,618,618,618,618,618,618,618,618,618,618,618,618,618,618,618,618,618,618,618,618,618,618,618,618,618,618,618,618,618,618,618,618,618,618,618,618,618,618,618,618,618,618,618,618,618,618,618,618,618,618,618,618,618,618,618,618,618,618,618,618,618,618,618,618,618,618,618,618,618,618,618,618,618,618,618,618,618,618,618,618,618,618,618,618,618,618,618,618,618,618,618,618,618,618,618,618,618,618,618,618,618,618,618,618,618,618,618,618,618,618,618,618,618,618,618,618,618,618,618,618,618,618,618,618,618,618,618,618,618,618,618,618,618,618,618,618,618,618,618,618,618,618,618,618,618,618,618,618,618,618,618,618,618,618,618,618,618,618,618,618,618,618,618,618,618,618,618,618,618,618,618,618,618,618,618,618,618,618,618,618,618,618,618,618,618,618,618,618,618,618,618,618,618,618,618,618,616,623,632,637,642,644,649,650,650,650,650,650,650,651,652,657,661,664,667,668,669,669,669,669,669,670,670,668,667,667,667,667,667,667,667,667,658,641,620,594,531,494,438,402,370,350,314,303,295,290,288,288,288,288,287,278,269,254,236,222,205,192,182,171,160,152,130,125,120,116,111,109,108,107,106,104,95],"timestamp_mouse":[16,36,56,76,96,116,136,156,176,196,216,236,256,276,297,317,336,357,377,396,415,437,456,476,496,516,536,556,576,596,616,637,656,676,697,716,736,756,777,796,817,835,856,877,897,916,937,956,976,996,1016,1036,1056,1076,1096,1116,1137,1155,1177,1196,1217,1236