[{"start_time":1551892834648,"click_time":1551892850807,"finger_time":1551892834649,"fix_duration":1119.3138008507472,"trial":0,"RT":1,"MT":16158,"sideResp":2,"stimulus":"img/750/randomdotsizeEA/R/15_Ratio_750_L_9_R_12.png","xmouse":[799,799,799,799,799,799,799,799,799,799,799,799,799,799,799,799,799,799,799,799,799,799,799,799,799,799,798,797,797,806,810,811,812,812,812,812,812,811,811,810,810,810,810,810,810,810,809,809,807,802,800,795,793,792,790,790,790,790,790,790,790,790,790,790,790,790,790,790,790,790,790,790,790,790,790,790,790,790,790,790,790,790,790,790,790,790,790,790,790,790,790,790,790,790,790,790,790,790,790,790,790,790,790,790,790,790,790,790,790,790,790,790,790,790,790,790,790,790,790,790,790,790,790,790,790,790,790,790,790,790,790,790,790,790,790,790,790,790,790,790,790,790,790,790,790,790,790,790,790,790,790,790,790,790,790,790,790,790,790,790,790,790,790,790,790,790,790,790,790,790,790,790,790,790,790,790,790,790,790,790,790,790,790,790,790,790,790,790,790,790,790,790,790,790,790,790,790,790,790,790,790,790,790,790,790,790,790,790,790,790,790,790,790,790,790,790,790,790,790,790,790,790,790,790,790,790,790,790,790,790,790,790,790,790,790,790,790,790,790,790,790,790,790,790,790,790,790,790,790,790,790,790,790,790,790,790,790,790,790,790,790,790,790,790,790,790,790,790,790,790,790,790,790,790,790,790,790,790,790,790,790,790,790,790,790,790,790,790,790,790,790,790,790,790,790,790,790,790,790,790,790,790,790,790,790,790,790,790,790,790,790,790,790,790,790,790,790,790,790,790,790,790,790,790,790,790,790,790,790,790,790,790,790,790,790,790,790,790,790,790,790,790,790,790,790,790,790,790,790,790,790,790,790,790,790,790,790,790,790,790,790,790,790,790,790,790,790,790,790,790,790,790,790,790,790,790,790,790,790,790,790,790,790,790,790,790,790,790,790,790,790,790,790,790,790,790,790,790,790,790,790,790,790,790,790,790,790,790,790,790,790,790,790,790,790,790,790,790,790,790,790,790,790,790,790,790,790,790,790,790,790,790,790,790,790,790,790,790,790,790,790,790,790,790,790,790,790,790,790,790,790,790,790,790,790,790,790,790,790,790,790,790,790,790,790,790,790,790,790,790,790,790,790,790,790,790,790,790,790,790,790,790,790,790,790,790,790,790,790,790,790,790,790,790,790,790,790,790,790,790,790,790,790,790,790,790,790,790,790,790,790,790,790,790,790,790,790,790,790,790,790,790,790,790,790,790,790,790,790,790,790,790,790,790,790,790,790,790,790,790,790,790,790,790,790,790,790,790,790,790,790,790,790,790,790,790,790,790,790,790,790,790,790,790,790,790,790,790,790,790,790,790,790,790,804,821,821,821,821,821,821,821,821,821,821,821,821,821,821,821,821,821,821,821,821,821,821,821,821,821,821,821,821,821,821,821,821,821,821,821,821,821,821,821,821,821,821,821,821,821,821,821,821,821,821,821,821,821,821,821,821,821,821,821,821,821,821,821,821,821,821,821,821,821,821,821,821,821,821,821,821,821,821,821,821,821,821,821,821,821,821,821,821,821,821,821,821,821,821,821,821,821,821,821,821,821,821,821,821,821,821,821,821,821,821,821,821,821,821,821,821,821,821,821,821,821,821,821,821,821,821,821,821,821,821,821,821,821,821,821,821,821,821,821,821,821,821,821,821,821,821,821,821,821,821,821,821,821,821,821,821,821,821,821,821,821,821,821,821,821,821,821,821,821,821,821,821,821,821,821,821,821,821,821,821,821,821,821,821,821,821,821,821,822,822,825,828,834,845,856,862,877,883,891,901,919,928,933,938,943,951,952,954,956,957,960,961,961,961,962,970,981,986,990,995,1012,1016,1018,1019,1022,1032,1034,1034,1034,1034,1035,1040,1047,1059],"ymouse":[492,492,492,492,492,492,492,492,492,492,492,492,492,492,492,492,492,492,492,492,492,492,492,492,492,497,505,520,528,559,572,578,583,587,594,596,598,599,600,600,600,600,601,601,601,601,601,603,606,615,619,625,629,629,631,631,631,631,631,631,631,631,631,631,631,631,631,631,631,631,631,631,631,631,631,631,631,631,631,631,631,631,631,631,631,631,631,631,631,631,631,631,631,631,631,631,631,631,631,631,631,631,631,631,631,631,631,631,631,631,631,631,631,631,631,631,631,631,631,631,631,631,631,631,631,631,631,631,631,631,631,631,631,631,631,631,631,631,631,631,631,631,631,631,631,631,631,631,631,631,631,631,631,631,631,631,631,631,631,631,631,631,631,631,631,631,631,631,631,631,631,631,631,631,631,631,631,631,631,631,631,631,631,631,631,631,631,631,631,631,631,631,631,631,631,631,631,631,631,631,631,631,631,631,631,631,631,631,631,631,631,631,631,631,631,631,631,631,631,631,631,631,631,631,631,631,631,631,631,631,631,631,631,631,631,631,631,631,631,631,631,631,631,631,631,631,631,631,631,631,631,631,631,631,631,631,631,631,631,631,631,631,631,631,631,631,631,631,631,631,631,631,631,631,631,631,631,631,631,631,631,631,631,631,631,631,631,631,631,631,631,631,631,631,631,631,631,631,631,631,631,631,631,631,631,631,631,631,631,631,631,631,631,631,631,631,631,631,631,631,631,631,631,631,631,631,631,631,631,631,631,631,631,631,631,631,631,631,631,631,631,631,631,631,631,631,631,631,631,631,631,631,631,631,631,631,631,631,631,631,631,631,631,631,631,631,631,631,631,631,631,631,631,631,631,631,631,631,631,631,631,631,631,631,631,631,631,631,631,631,631,631,631,631,631,631,631,631,631,631,631,631,631,631,631,631,631,631,631,631,631,631,631,631,631,631,631,631,631,631,631,631,631,631,631,631,631,631,631,631,631,631,631,631,631,631,631,631,631,631,631,631,631,631,631,631,631,631,631,631,631,631,631,631,631,631,631,631,631,631,631,631,631,631,631,631,631,631,631,631,631,631,631,631,631,631,631,631,631,631,631,631,631,631,631,631,631,631,631,631,631,631,631,631,631,631,631,631,631,631,631,631,631,631,631,631,631,631,631,631,631,631,631,631,631,631,631,631,631,631,631,631,631,631,631,631,631,631,631,631,631,631,631,631,631,631,631,631,631,631,631,631,631,631,631,631,631,631,631,631,631,631,631,631,631,631,631,631,631,631,631,631,631,631,631,631,631,631,631,631,631,631,631,630,584,553,553,553,553,553,553,553,553,553,553,553,553,553,553,553,553,553,553,553,553,553,553,553,553,553,553,553,553,553,553,553,553,553,553,553,553,553,553,553,553,553,553,553,553,553,553,553,553,553,553,553,553,553,553,553,553,553,553,553,553,553,553,553,553,553,553,553,553,553,553,553,553,553,553,553,553,553,553,553,553,553,553,553,553,553,553,553,553,553,553,553,553,553,553,553,553,553,553,553,553,553,553,553,553,553,553,553,553,553,553,553,553,553,553,553,553,553,553,553,553,553,553,553,553,553,553,553,553,553,553,553,553,553,553,553,553,553,553,553,553,553,553,553,553,553,553,553,553,553,553,553,553,553,553,553,553,553,553,553,553,553,553,553,553,553,553,553,553,553,553,553,553,553,553,553,553,553,553,553,553,553,553,548,538,528,512,507,504,503,501,494,488,480,467,454,444,417,402,383,361,314,293,275,258,245,226,221,218,213,210,206,204,204,204,201,193,185,183,179,173,153,149,145,142,135,121,117,117,117,117,112,105,95,83],"timestamp_mouse":[1,18,38,58,78,98,118,137,158,177,198,219,237,258,278,299,318,338,358,378,397,418,437,458,478,498,517,537,558,578,598,618,637,658,677,697,717,737,758,778,797,818,837,859,878,897,917,938,957,977,997,1018,1037,1058,1079,1098,1118,1137,1159,1177,1199,1218,1237,1258,1277,1298,1318,1338,1358,1379,1398,1418,1438,1458,1477,1497,1517,1538,1558,1577,1599,1618,1637,1658,1678,1697,1717,1738,1758,1778,1797,1818,1838,1858,1878,1899,1917,1937,1957,1977,1999,2019,2037,2058,2078,2098,2117,2138,2158,2178,2199,2217,2238,2259,2278,2298,2319,2337,2358,2378,2397,2419,2437,2457,2478,2497,2518,2539,2557,2577,2599,2618,2638,2657,2678,2697,2719,2737,2757,2778,2798,2818,2839,2857,2878,2898,2919,2938,2957,2979,2998,3019,3039,3058,3079,3097,3118,3137,3158,3178,3198,3219,3238,3258,3279,3298,3318,3337,3359,3379,3398,3418,3438,3458,3479,3497,3517,3537,3559,3579,3598,3618,3637,3658,3679,3699,3718,3738,3758,3778,3798,3817,3838,3858,3878,3898,3917,3938,3958,3978,3999,4018,4037,4059,4077,4097,4117,4138,4157,4178,4198,4218,4237,4258,4277,4298,4318,4337,4358,4379,4397,4417,4438,4457,4478,4498,4519,4538,4558,4577,4598,4619,4638,4657,4678,4697,4719,4737,4758,4777,4797,4818,4839,4857,4878,4898,4917,4939,4957,4977,4997,5017,5038,5058,5078,5098,5118,5137,5157,5179,5197,5219,5238,5258,5278,5297,5318,5337,5357,5378,5399,5417,5438,5459,5477,5498,5517,5538,5557,5578,5599,5617,5639,5657,5679,5697,5718,5737,5757,5779,5798,5818,5837,5857,5877,5898,5918,5937,5957,5977,5997,6018,6038,6057,6079,6098,6118,6137,6159,6177,6197,6219,6237,6257,6277,6298,6317,6338,6358,6379,6398,6418,6437,6459,6478,6497,6518,6538,6558,6579,6598,6618,6639,6658,6677,6698,6717,6738,6758,6778,6797,6818,6838,6859,6877,6897,6918,6938,6957,6978,6997,7017,7039,7058,7078,7097,7119,7139,7158,7178,7197,7219,7237,7258,7279,7298,7318,7339,7357,7379,7397,7417,7437,7459,7478,7497,7517,7538,7559,7578,7597,7618,7639,7658,7677,7697,7718,7739,7759,7778,7799,7819,7837,7857,7878,7898,7917,7937,7958,7978,7999,8017,8038,8059,8078,8099,8118,8139,8158,8178,8197,8219,8237,8257,8279,8297,8318,8338,8359,8379,8397,8418,8439,8457,8478,8497,8517,8537,8559,8577,8597,8618,8638,8659,8677,8698,8717,8737,8759,8777,8797,8819,8839,8857,8877,8898,8918,8938,8959,8977,8997,9019,9038,9057,9078,9097,9117,9138,9157,9178,9198,9217,9237,9257,9277,9298,9318,9338,9359,9377,9398,9419,9437,9457,9478,9498,9518,9539,9558,9578,9598,9618,9637,9657,9677,9698,9717,9738,9757,9778,9799,9819,9838,9857,9878,9898,9918,9938,9959,9978,9998,10018,10037,10059,10078,10098,10119,10139,10158,10178,10198,10219,10239,10258,10277,10298,10318,10338,10357,10377,10399,10419,10438,10458,10478,10498,10518,10537,10558,10577,10598,10619,10638,10657,10679,10698,10718,10738,10759,10778,10798,10819,10839,10857,10878,10898,10918,10937,10958,10978,10999,11017,11038,11058,11077,11099,11119,11138,11157,11177,11198,11218,11238,11258,11277,11298,11318,11337,11357,11378,11397,11418,11437,11458,11478,11498,11517,11537,11558,11579,11598,11618,11638,11657,11677,11698,11717,11737,11757,11778,11798,11818,11837,11857,11878,11899,11918,11937,11958,11978,11998,12018,12038,12058,12078,12098,12119,12137,12157,12178,12197,12217,12238,12258,12278,12297,12317,12338,12357,12378,12399,12418,12438,12457,12478,12498,12518,12539,12557,12577,12598,12618,12638,12657,12678,12697,12718,12738,12758,12779,12798,12819,12839,12858,12878,12897,12917,12938,12958,12978,12998,13018,13038,13058,13078,13097,13119,13138,13158,13177,13197,13217,13237,13259,13279,13299,13318,13338,13358,13378,13398,13417,13437,13457,13478,13497,13517,13538,13558,13578,13598,13618,13637,13658,13678,13698,13717,13737,13757,13777,13798,13818,13838,13857,13877,13898,13918,13938,13957,13978,13998,14018,14038,14057,14078,14097,14118,14137,14159,14178,14198,14217,14237,14258,14277,14297,14318,14337,14358,14378,14398,14417,14438,14458,14479,14498,14519,14537,14557,14578,14598,14618,14638,14658,14678,14697,14717,14738,14758,14777,14798,14817,14837,14857,14877,14897,14918,14938,14958,14978,14998,15019,15038,15057,15079,15098,15118,15137,15158,15177,15198,15217,15237,15257,15277,15297,15317,15337,15358,15377,15398,15418,15438,15457,15477,15498,15517,15538,15559,15577,15598,15617,15638,15657,15677,15697,15719,15738,15758,15778,15797,15817,15837,15857,15877,15897,15917,15938,15957,15977,15997,16017,16037,16059,16079,16098,16117,16137,16159],"xSR":741.5,"ySR":469.95,"xT1":424.9,"yT1":0,"xT2":1058.1,"yT2":0,"toosoon":0,"cond_shown":"randomdotsizeEA","ratio_trial":750,"smaller_num":"9","larger_num":"12","correct_side":2,"subjID":"SantiagoRochaColmenares19","gender":"0","age":"11","school":"6","test":{"fix_dur":[250,1500],"timestim":300,"targets_dim":[100,100],"targets_relative_coord":[0.3,0.7],"size_stim":[880,420],"start_dim":[100,100],"size_start":[300,300],"size_fix":60,"samplingrate":20,"img_types":["equaldotsize","equaldotanddens","randomdotsizeEA"],"ratios":[250,500,750,900],"rep_conds":9,"nTrials":120,"trials_to_rest":500,"Trials_order":[104,105,26,55,46,81,72,88,47,89,115,108,93,61,41,50,1,43,62,18,16,60,52,109,91,59,51,7,37,10,118,45,32,100,99,92,54,97,48,15,33,17,57,58,69,28,12,68,65,21,31,11,42,64,86,71,96,66,73,20,24,95,114,0,49,70,3,74,63,119,116,8,6,117,101,13,2,98,82,30,22,23,27,103,19,38,90,53,78,39,110,4,9,25,75,107,113,76,79,84,35,85,112,29,40,14,83,5,111,36,80,56,34,87,67,77,44,102,106,94],"cond_shown":["randomdotsizeEA","equaldotsize","randomdotsizeEA","equaldotanddens","equaldotanddens","equaldotsize","equaldotsize","equaldotanddens","randomdotsizeEA","randomdotsizeEA","equaldotanddens","equaldotsize","equaldotsize","equaldotanddens","randomdotsizeEA","randomdotsizeEA","equaldotanddens","equaldotanddens","randomdotsizeEA","equaldotsize","equaldotanddens","equaldotsize","equaldotanddens","equaldotanddens","equaldotanddens","randomdotsizeEA","equaldotsize","equaldotanddens","equaldotanddens","equaldotanddens","equaldotanddens","equaldotsize","randomdotsizeEA","equaldotanddens","equaldotsize","randomdotsizeEA","equaldotsize","equaldotanddens","equaldotsize","equaldotsize","equaldotsize","randomdotsizeEA","equaldotsize","equaldotanddens","equaldotsize","equaldotanddens","equaldotsize","randomdotsizeEA","randomdotsizeEA","equaldotsize","equaldotanddens","randomdotsizeEA","equaldotsize","equaldotanddens","randomdotsizeEA","randomdotsizeEA","equaldotsize","equaldotsize","equaldotanddens","randomdotsizeEA","equaldotsize","randomdotsizeEA","equaldotsize","equaldotsize","equaldotanddens","equaldotanddens","equaldotsize","randomdotsizeEA","equaldotsize","randomdotsizeEA","randomdotsizeEA","randomdotsizeEA","equaldotsize","equaldotsize","randomdotsizeEA","equaldotanddens","randomdotsizeEA","randomdotsizeEA","equaldotanddens","equaldotsize","equaldotanddens","randomdotsizeEA","equaldotsize","equaldotanddens","equaldotanddens","randomdotsizeEA","equaldotsize","randomdotsizeEA","equaldotsize","equaldotsize","randomdotsizeEA","equaldotanddens","equaldotsize","equaldotanddens","equaldotsize","randomdotsizeEA","randomdotsizeEA","equaldotanddens","equaldotanddens","equaldotsize","randomdotsizeEA","equaldotanddens","equaldotanddens","randomdotsizeEA","equaldotanddens","randomdotsizeEA","randomdotsizeEA","randomdotsizeEA","equaldotsize","equaldotsize","randomdotsizeEA","randomdotsizeEA","equaldotanddens","equaldotsize","equaldotanddens","randomdotsizeEA","randomdotsizeEA","equaldotsize","equaldotanddens","equaldotanddens"],"ratio_trial":[750,900,250,750,900,900,250,500,900,500,750,250,900,250,500,250,250,750,250,750,500,250,500,250,750,900,500,750,250,900,900,900,750,500,500,750,750,250,250,500,900,500,900,900,900,500,250,750,500,900,750,900,750,500,250,900,250,750,250,750,250,900,750,250,250,900,500,250,500,900,750,750,750,900,500,250,250,250,900,750,900,900,500,750,750,250,750,500,750,500,250,500,900,250,500,900,500,500,750,250,900,250,500,500,500,250,900,500,500,250,750,750,900,500,750,500,750,750,900,900],"smaller_num":["9","18","3","15","18","18","2","6","18","2","15","2","18","4","2","3","2","6","2","6","1","1","2","2","3","18","1","15","6","18","18","18","3","1","4","3","18","2","3","10","18","9","18","18","18","9","2","3","10","9","15","9","6","1","6","9","4","6","5","3","3","18","15","2","6","9","10","2","3","18","3","15","15","18","9","2","3","3","18","6","18","9","9","15","6","5","15","6","3","9","6","3","18","2","6","9","5","9","3","1","18","3","6","10","5","2","18","5","5","4","3","6","18","9","15","1","3","3","9","18"],"larger_num":["12","20","12","20","20","20","8","12","20","4","20","8","20","16","4","12","8","8","8","8","2","4","4","8","4","20","2","20","24","20","20","20","4","2","8","4","24","8","12","20","20","18","20","20","20","18","8","4","20","10","20","10","8","2","24","10","16","8","20","4","12","20","20","8","24","10","20","8","6","20","4","20","20","20","18","8","12","12","20","8","20","10","18","20","8","20","20","12","4","18","24","6","20","8","12","10","10","18","4","4","20","12","12","20","10","8","20","10","10","16","4","8","20","18","20","2","4","4","10","20"],"correct_side":[2,2,2,2,2,1,1,1,1,2,2,1,1,1,1,1,1,1,1,2,2,2,1,1,1,2,2,2,1,2,1,1,1,2,1,2,1,1,1,2,2,1,2,1,1,2,1,2,2,2,1,2,2,2,1,2,2,2,2,2,2,2,2,1,1,2,2,1,2,2,1,2,2,1,2,1,2,2,1,2,1,2,1,2,1,2,2,1,1,2,2,2,2,1,1,1,1,1,1,2,2,2,1,2,2,1,2,1,2,2,1,2,2,2,2,2,1,1,1,2],"img_shown":["img/750/randomdotsizeEA/R/15_Ratio_750_L_9_R_12.png","img/900/equaldotsize/R/9_Ratio_900_L_18_R_20.png","img/250/randomdotsizeEA/R/11_Ratio_250_L_3_R_12.png","img/750/equaldotanddens/R/4_Ratio_750_L_15_R_20.png","img/900/equaldotanddens/R/12_Ratio_900_L_18_R_20.png","img/900/equaldotsize/L/4_Ratio_900_L_20_R_18.png","img/250/equaldotsize/L/3_Ratio_250_L_8_R_2.png","img/500/equaldotanddens/L/11_Ratio_500_L_12_R_6.png","img/900/randomdotsizeEA/L/8_Ratio_900_L_20_R_18.png","img/500/randomdotsizeEA/R/9_Ratio_500_L_2_R_4.png","img/750/equaldotanddens/R/3_Ratio_750_L_15_R_20.png","img/250/equaldotsize/L/1_Ratio_250_L_8_R_2.png","img/900/equaldotsize/L/10_Ratio_900_L_20_R_18.png","img/250/equaldotanddens/L/2_Ratio_250_L_16_R_4.png","img/500/randomdotsizeEA/L/10_Ratio_500_L_4_R_2.png","img/250/randomdotsizeEA/L/14_Ratio_250_L_12_R_3.png","img/250/equaldotanddens/L/1_Ratio_250_L_8_R_2.png","img/750/equaldotanddens/L/14_Ratio_750_L_8_R_6.png","img/250/randomdotsizeEA/L/1_Ratio_250_L_8_R_2.png","img/750/equaldotsize/R/2_Ratio_750_L_6_R_8.png","img/500/equaldotanddens/R/15_Ratio_500_L_1_R_2.png","img/250/equaldotsize/R/8_Ratio_250_L_1_R_4.png","img/500/equaldotanddens/L/5_Ratio_500_L_4_R_2.png","img/250/equaldotanddens/L/7_Ratio_250_L_8_R_2.png","img/750/equaldotanddens/L/10_Ratio_750_L_4_R_3.png","img/900/randomdotsizeEA/R/12_Ratio_900_L_18_R_20.png","img/500/equaldotsize/R/12_Ratio_500_L_1_R_2.png","img/750/equaldotanddens/R/4_Ratio_750_L_15_R_20.png","img/250/equaldotanddens/L/5_Ratio_250_L_24_R_6.png","img/900/equaldotanddens/R/14_Ratio_900_L_18_R_20.png","img/900/equaldotanddens/L/8_Ratio_900_L_20_R_18.png","img/900/equaldotsize/L/8_Ratio_900_L_20_R_18.png","img/750/randomdotsizeEA/L/9_Ratio_750_L_4_R_3.png","img/500/equaldotanddens/R/12_Ratio_500_L_1_R_2.png","img/500/equaldotsize/L/8_Ratio_500_L_8_R_4.png","img/750/randomdotsizeEA/R/7_Ratio_750_L_3_R_4.png","img/750/equaldotsize/L/6_Ratio_750_L_24_R_18.png","img/250/equaldotanddens/L/3_Ratio_250_L_8_R_2.png","img/250/equaldotsize/L/15_Ratio_250_L_12_R_3.png","img/500/equaldotsize/R/3_Ratio_500_L_10_R_20.png","img/900/equaldotsize/R/11_Ratio_900_L_18_R_20.png","img/500/randomdotsizeEA/L/4_Ratio_500_L_18_R_9.png","img/900/equaldotsize/R/11_Ratio_900_L_18_R_20.png","img/900/equaldotanddens/L/10_Ratio_900_L_20_R_18.png","img/900/equaldotsize/L/2_Ratio_900_L_20_R_18.png","img/500/equaldotanddens/R/6_Ratio_500_L_9_R_18.png","img/250/equaldotsize/L/7_Ratio_250_L_8_R_2.png","img/750/randomdotsizeEA/R/12_Ratio_750_L_3_R_4.png","img/500/randomdotsizeEA/R/3_Ratio_500_L_10_R_20.png","img/900/equaldotsize/R/5_Ratio_900_L_9_R_10.png","img/750/equaldotanddens/L/1_Ratio_750_L_20_R_15.png","img/900/randomdotsizeEA/R/7_Ratio_900_L_9_R_10.png","img/750/equaldotsize/R/2_Ratio_750_L_6_R_8.png","img/500/equaldotanddens/R/15_Ratio_500_L_1_R_2.png","img/250/randomdotsizeEA/L/5_Ratio_250_L_24_R_6.png","img/900/randomdotsizeEA/R/5_Ratio_900_L_9_R_10.png","img/250/equaldotsize/R/10_Ratio_250_L_4_R_16.png","img/750/equaldotsize/R/2_Ratio_750_L_6_R_8.png","img/250/equaldotanddens/R/12_Ratio_250_L_5_R_20.png","img/750/randomdotsizeEA/R/7_Ratio_750_L_3_R_4.png","img/250/equaldotsize/R/4_Ratio_250_L_3_R_12.png","img/900/randomdotsizeEA/R/9_Ratio_900_L_18_R_20.png","img/750/equaldotsize/R/3_Ratio_750_L_15_R_20.png","img/250/equaldotsize/L/1_Ratio_250_L_8_R_2.png","img/250/equaldotanddens/L/5_Ratio_250_L_24_R_6.png","img/900/equaldotanddens/R/3_Ratio_900_L_9_R_10.png","img/500/equaldotsize/R/3_Ratio_500_L_10_R_20.png","img/250/randomdotsizeEA/L/1_Ratio_250_L_8_R_2.png","img/500/equaldotsize/R/2_Ratio_500_L_3_R_6.png","img/900/randomdotsizeEA/R/14_Ratio_900_L_18_R_20.png","img/750/randomdotsizeEA/L/10_Ratio_750_L_4_R_3.png","img/750/randomdotsizeEA/R/4_Ratio_750_L_15_R_20.png","img/750/equaldotsize/R/5_Ratio_750_L_15_R_20.png","img/900/equaldotsize/L/8_Ratio_900_L_20_R_18.png","img/500/randomdotsizeEA/R/6_Ratio_500_L_9_R_18.png","img/250/equaldotanddens/L/1_Ratio_250_L_8_R_2.png","img/250/randomdotsizeEA/R/11_Ratio_250_L_3_R_12.png","img/250/randomdotsizeEA/R/4_Ratio_250_L_3_R_12.png","img/900/equaldotanddens/L/2_Ratio_900_L_20_R_18.png","img/750/equaldotsize/R/2_Ratio_750_L_6_R_8.png","img/900/equaldotanddens/L/8_Ratio_900_L_20_R_18.png","img/900/randomdotsizeEA/R/15_Ratio_900_L_9_R_10.png","img/500/equaldotsize/L/4_Ratio_500_L_18_R_9.png","img/750/equaldotanddens/R/4_Ratio_750_L_15_R_20.png","img/750/equaldotanddens/L/13_Ratio_750_L_8_R_6.png","img/250/randomdotsizeEA/R/12_Ratio_250_L_5_R_20.png","img/750/equaldotsize/R/3_Ratio_750_L_15_R_20.png","img/500/randomdotsizeEA/L/11_Ratio_500_L_12_R_6.png","img/750/equaldotsize/L/10_Ratio_750_L_4_R_3.png","img/500/equaldotsize/R/1_Ratio_500_L_9_R_18.png","img/250/randomdotsizeEA/R/6_Ratio_250_L_6_R_24.png","img/500/equaldotanddens/R/2_Ratio_500_L_3_R_6.png","img/900/equaldotsize/R/11_Ratio_900_L_18_R_20.png","img/250/equaldotanddens/L/3_Ratio_250_L_8_R_2.png","img/500/equaldotsize/L/11_Ratio_500_L_12_R_6.png","img/900/randomdotsizeEA/L/1_Ratio_900_L_10_R_9.png","img/500/randomdotsizeEA/L/7_Ratio_500_L_10_R_5.png","img/500/equaldotanddens/L/4_Ratio_500_L_18_R_9.png","img/750/equaldotanddens/L/10_Ratio_750_L_4_R_3.png","img/250/equaldotsize/R/8_Ratio_250_L_1_R_4.png","img/900/randomdotsizeEA/R/13_Ratio_900_L_18_R_20.png","img/250/equaldotanddens/R/11_Ratio_250_L_3_R_12.png","img/500/equaldotanddens/L/13_Ratio_500_L_12_R_6.png","img/500/randomdotsizeEA/R/3_Ratio_500_L_10_R_20.png","img/500/equaldotanddens/R/14_Ratio_500_L_5_R_10.png","img/250/randomdotsizeEA/L/7_Ratio_250_L_8_R_2.png","img/900/randomdotsizeEA/R/12_Ratio_900_L_18_R_20.png","img/500/randomdotsizeEA/L/7_Ratio_500_L_10_R_5.png","img/500/equaldotsize/R/14_Ratio_500_L_5_R_10.png","img/250/equaldotsize/R/10_Ratio_250_L_4_R_16.png","img/750/randomdotsizeEA/L/8_Ratio_750_L_4_R_3.png","img/750/randomdotsizeEA/R/2_Ratio_750_L_6_R_8.png","img/900/equaldotanddens/R/13_Ratio_900_L_18_R_20.png","img/500/equaldotsize/R/1_Ratio_500_L_9_R_18.png","img/750/equaldotanddens/R/3_Ratio_750_L_15_R_20.png","img/500/randomdotsizeEA/R/12_Ratio_500_L_1_R_2.png","img/750/randomdotsizeEA/L/10_Ratio_750_L_4_R_3.png","img/750/equaldotsize/L/8_Ratio_750_L_4_R_3.png","img/900/equaldotanddens/L/1_Ratio_900_L_10_R_9.png","img/900/equaldotanddens/R/11_Ratio_900_L_18_R_20.png"],"Rat0":[["12_Ratio_0_L_9_R_0.png","13_Ratio_0_L_6_R_0.png","5_Ratio_0_L_2_R_0.png","6_Ratio_0_L_4_R_0.png","8_Ratio_0_L_6_R_0.png"],["1_Ratio_0_L_0_R_17.png","10_Ratio_0_L_0_R_22.png","11_Ratio_0_L_0_R_1.png","14_Ratio_0_L_0_R_24.png","15_Ratio_0_L_0_R_4.png","2_Ratio_0_L_0_R_5.png","3_Ratio_0_L_0_R_17.png","4_Ratio_0_L_0_R_7.png","7_Ratio_0_L_0_R_19.png","9_Ratio_0_L_0_R_15.png"]],"Rat250":[["1_Ratio_250_L_8_R_2.png","14_Ratio_250_L_12_R_3.png","15_Ratio_250_L_12_R_3.png","2_Ratio_250_L_16_R_4.png","3_Ratio_250_L_8_R_2.png","5_Ratio_250_L_24_R_6.png","7_Ratio_250_L_8_R_2.png"],["10_Ratio_250_L_4_R_16.png","11_Ratio_250_L_3_R_12.png","12_Ratio_250_L_5_R_20.png","13_Ratio_250_L_2_R_8.png","4_Ratio_250_L_3_R_12.png","6_Ratio_250_L_6_R_24.png","8_Ratio_250_L_1_R_4.png","9_Ratio_250_L_3_R_12.png"]],"Rat500":[["10_Ratio_500_L_4_R_2.png","11_Ratio_500_L_12_R_6.png","13_Ratio_500_L_12_R_6.png","4_Ratio_500_L_18_R_9.png","5_Ratio_500_L_4_R_2.png","7_Ratio_500_L_10_R_5.png","8_Ratio_500_L_8_R_4.png"],["1_Ratio_500_L_9_R_18.png","12_Ratio_500_L_1_R_2.png","14_Ratio_500_L_5_R_10.png","15_Ratio_500_L_1_R_2.png","2_Ratio_500_L_3_R_6.png","3_Ratio_500_L_10_R_20.png","6_Ratio_500_L_9_R_18.png","9_Ratio_500_L_2_R_4.png"]],"Rat750":[["1_Ratio_750_L_20_R_15.png","10_Ratio_750_L_4_R_3.png","13_Ratio_750_L_8_R_6.png","14_Ratio_750_L_8_R_6.png","6_Ratio_750_L_24_R_18.png","8_Ratio_750_L_4_R_3.png","9_Ratio_750_L_4_R_3.png"],["11_Ratio_750_L_12_R_16.png","12_Ratio_750_L_3_R_4.png","15_Ratio_750_L_9_R_12.png","2_Ratio_750_L_6_R_8.png","3_Ratio_750_L_15_R_20.png","4_Ratio_750_L_15_R_20.png","5_Ratio_750_L_15_R_20.png","7_Ratio_750_L_3_R_4.png"]],"Rat900":[["1_Ratio_900_L_10_R_9.png","10_Ratio_900_L_20_R_18.png","2_Ratio_900_L_20_R_18.png","4_Ratio_900_L_20_R_18.png","8_Ratio_900_L_20_R_18.png"],["11_Ratio_900_L_18_R_20.png","12_Ratio_900_L_18_R_20.png","13_Ratio_900_L_18_R_20.png","14_Ratio_900_L_18_R_20.png","15_Ratio_900_L_9_R_10.png","3_Ratio_900_L_9_R_10.png","5_Ratio_900_L_9_R_10.png","6_Ratio_900_L_9_R_10.png","7_Ratio_900_L_9_R_10.png","9_Ratio_900_L_18_R_20.png"]],"Rat1000":[["10_Ratio_1000_L_16_R_16.png","11_Ratio_1000_L_6_R_6.png","12_Ratio_1000_L_14_R_14.png","13_Ratio_1000_L_20_R_20.png","15_Ratio_1000_L_15_R_15.png","2_Ratio_1000_L_17_R_17.png","4_Ratio_1000_L_9_R_9.png","5_Ratio_1000_L_6_R_6.png","6_Ratio_1000_L_19_R_19.png","8_Ratio_1000_L_14_R_14.png","9_Ratio_1000_L_25_R_25.png"],["1_Ratio_1000_L_1_R_1.png","14_Ratio_1000_L_17_R_17.png","3_Ratio_1000_L_17_R_17.png","7_Ratio_1000_L_6_R_6.png"]]}},{"start_time":1551892851918,"click_time":1551892853586,"finger_time":1551892853205,"fix_duration":250,"trial":1,"RT":1287,"MT":381,"sideResp":2,"stimulus":"img/900/equaldotsize/R/9_Ratio_900_L_18_R_20.png","xmouse":[794,794,794,794,794,794,794,794,794,794,794,794,794,794,794,794,794,794,794,794,794,794,794,794,794,794,794,794,794,794,794,794,794,794,794,794,794,794,794,794,794,794,794,794,794,794,794,794,794,794,794,794,794,794,794,794,794,794,794,794,794,794,794,794,794,796,804,824,846,871,899,942,946,946,948,954,958,961,963,968,981,1000,1053,1072],"ymouse":[586,586,586,586,586,586,586,586,586,586,586,586,586,586,586,586,586,586,586,586,586,586,586,586,586,586,586,586,586,586,586,586,586,586,586,586,586,586,586,586,586,586,586,586,586,586,586,586,586,586,586,586,586,586,586,586,586,586,586,586,586,586,586,586,564,506,454,371,322,282,238,155,146,145,142,133,128,125,123,118,113,106,91,84],"timestamp_mouse":[11,27,49,68,87,108,128,148,168,189,207,227,248,267,288,308,329,347,367,387,409,428,448,468,487,508,527,548,567,587,607,629,648,668,688,708,727,747,768,788,809,828,849,868,887,908,928,947,969,987,1009,1028,1048,1068,1088,1107,1127,1148,1167,1187,1209,1228,1247,1269,1287,1308,1327,1349,1367,1388,1407,1428,1447,1469,1487,1507,1527,1548,1567,1588,1607,1627,1648,1668],"xSR":741.5,"ySR":573.95,"xT1":424.9,"yT1":0,"xT2":1058.1,"yT2":0,"toosoon":0,"cond_shown":"equaldotsize","ratio_trial":900,"smaller_num":"18","larger_num":"20","correct_side":2,"subjID":"SantiagoRochaColmenares19","gender":"0","age":"11","school":"6"},{"start_time":1551892854677,"click_time":1551892855767,"finger_time":1551892855465,"fix_duration":250,"trial":2,"RT":788,"MT":302,"sideResp":1,"stimulus":"img/250/randomdotsizeEA/R/11_Ratio_250_L_3_R_12.png","xmouse":[795,795,795,795,795,795,795,795,795,795,795,795,795,795,795,795,795,795,795,795,795,795,795,795,795,795,795,795,795,795,795,795,795,795,795,795,795,795,792,773,746,703,645,581,520,516,514,513,512,509,509,509,509,509,509],"ymouse":[650,650,650,650,650,650,650,650,650,650,650,650,650,650,650,650,650,650,650,650,650,650,650,650,650,650,650,650,650,650,650,650,650,650,650,650,632,610,594,558,516,454,372,282,177,148,134,125,118,110,107,106,106,105,99],"timestamp_mouse":[10,34,48,69,88,110,128,149,168,189,209,228,249,269,289,309,328,349,369,389,408,428,449,469,488,510,528,548,568,588,610,628,648,668,688,708,728,749,768,788,808,829,848,868,888,908,929,948,968,988,1008,1028,1048,1069,1090],"xSR":741.5,"ySR":573.95,"xT1":424.9,"yT1":0,"xT2":1058.1,"yT2":0,"toosoon":0,"cond_shown":"randomdotsizeEA","ratio_trial":250,"smaller_num":"3","larger_num":"12","correct_side":2,"subjID":"SantiagoRochaColmenares19","gender":"0","age":"11","school":"6"},{"start_time":1551892856959,"click_time":1551892858066,"finger_time":1551892857585,"fix_duration":351.2864225393492,"trial":3,"RT":626,"MT":481,"sideResp":2,"stimulus":"img/750/equaldotanddens/R/4_Ratio_750_L_15_R_20.png","xmouse":[826,826,826,826,826,826,826,826,826,826,826,826,826,826,826,826,826,826,826,826,826,826,826,826,826,826,826,826,826,826,826,840,846,851,859,869,873,878,884,895,920,961,974,979,983,991,999,1011,1030,1044,1052,1054,1055,1055,1055,1060],"ymouse":[628,628,628,628,628,628,628,628,628,628,628,628,628,628,628,628,628,628,628,628,628,628,628,628,628,628,628,628,628,628,620,569,522,481,439,363,334,312,288,265,214,144,120,109,99,80,68,54,45,39,34,33,33,33,33,33],"timestamp_mouse":[8,41,46,68,86,106,127,147,168,186,206,227,247,266,287,307,327,348,366,387,407,427,447,468,486,507,526,548,568,586,607,626,646,666,686,707,727,746,767,787,806,826,846,867,887,906,927,946,966,986,1006,1026,1047,1067,1087,1107],"xSR":741.5,"ySR":573.95,"xT1":424.9,"yT1":0,"xT2":1058.1,"yT2":0,"toosoon":0,"cond_shown":"equaldotanddens","ratio_trial":750,"smaller_num":"15","larger_num":"20","correct_side":2,"subjID":"SantiagoRochaColmenares19","gender":"0","age":"11","school":"6"},{"start_time":1551892860826,"click_time":1551892861685,"finger_time":1551892861526,"fix_duration":559.9645592353106,"trial":4,"RT":700,"MT":159,"sideResp":2,"stimulus":"img/900/equaldotanddens/R/12_Ratio_900_L_18_R_20.png","xmouse":[799,799,799,799,799,799,799,799,799,799,799,799,799,799,799,799,799,799,799,799,799,799,799,799,799,799,799,799,799,799,799,799,799,799,818,861,901,944,1023,1057,1085,1105,1114,1119],"ymouse":[638,638,638,638,638,638,638,638,638,638,638,638,638,638,638,638,638,638,638,638,638,638,638,638,638,638,638,638,638,638,638,638,638,638,611,548,491,428,297,231,166,120,100,82],"timestamp_mouse":[1,20,39,60,80,101,121,139,159,180,199,219,240,259,279,300,320,340,359,381,400,420,440,460,479,499,521,540,561,579,599,619,639,659,679,700,720,741,759,780,799,820,839,859],"xSR":741.5,"ySR":573.95,"xT1":424.9,"yT1":0,"xT2":1058.1,"yT2":0,"toosoon":0,"cond_shown":"equaldotanddens","ratio_trial":900,"smaller_num":"18","larger_num":"20","correct_side":2,"subjID":"SantiagoRochaColmenares19","gender":"0","age":"11","school":"6"},{"start_time":1551892863294,"click_time":1551892866746,"finger_time":1551892864086,"fix_duration":526.8825298533017,"trial":5,"RT":792,"MT":2660,"sideResp":2,"stimulus":"img/900/equaldotsize/L/4_Ratio_900_L_20_R_18.png","xmouse":[786,786,786,786,786,786,786,786,786,786,786,786,786,786,786,786,786,786,786,786,786,786,786,786,786,786,786,786,786,786,786,786,786,786,786,786,786,783,776,741,718,681,651,633,618,612,604,594,583,559,554,547,543,542,532,524,516,507,494,464,455,454,454,454,454,454,454,454,454,454,454,454,454,454,454,454,454,454,455,457,458,458,458,458,458,458,458,458,458,458,458,458,458,458,458,465,476,488,497,503,518,527,537,550,567,603,615,623,627,635,640,646,653,657,663,666,669,674,680,720,743,759,774,782,790,793,798,804,810,831,843,854,863,873,897,908,918,927,930,936,943,951,955,958,961,961,962,962,962,962,962,962,962,962,962,962,962,962,962,973,976,982,987,992,998,1024,1035,1040,1042,1043,1048,1053,1068],"ymouse":[639,639,639,639,639,639,639,639,639,639,639,639,639,639,639,639,639,639,639,639,639,639,639,639,639,639,639,639,639,639,639,639,639,639,639,639,639,634,625,600,585,556,523,487,435,412,385,354,328,285,279,274,271,270,260,252,244,232,212,170,154,152,152,152,152,152,152,152,152,152,152,152,152,152,152,150,143,136,131,124,123,123,123,123,123,123,123,123,123,123,123,123,123,123,123,121,119,117,117,116,113,112,111,109,109,109,109,109,109,109,109,110,113,113,113,113,113,114,115,121,124,127,129,130,130,130,130,130,130,130,130,130,130,130,124,123,121,120,119,116,116,115,114,112,109,109,108,108,108,108,108,108,108,108,108,108,108,108,108,106,105,105,104,102,100,93,91,91,91,90,90,91,95],"timestamp_mouse":[15,40,52,71,91,111,132,151,171,191,211,231,251,272,293,313,331,351,371,391,412,433,451,472,491,511,532,552,571,592,612,631,651,672,691,711,731,751,771,792,811,831,852,871,891,912,932,952,972,991,1013,1032,1052,1071,1092,1112,1131,1151,1171,1192,1212,1231,1251,1272,1292,1311,1331,1353,1371,1392,1411,1433,1452,1471,1492,1512,1532,1552,1573,1591,1612,1631,1653,1673,1692,1712,1733,1752,1771,1792,1813,1832,1852,1872,1892,1911,1931,1951,1971,1991,2012,2031,2053,2071,2091,2111,2131,2152,2172,2192,2212,2231,2251,2271,2291,2311,2332,2351,2373,2391,2411,2431,2452,2471,2491,2512,2531,2552,2572,2592,2611,2631,2652,2671,2692,2711,2732,2752,2771,2791,2812,2831,2853,2872,2892,2912,2931,2951,2971,2992,3013,3031,3051,3071,3092,3112,3131,3152,3173,3191,3211,3231,3251,3272,3291,3311,3332,3352,3371,3391,3412,3431,3452],"xSR":741.5,"ySR":573.95,"xT1":424.9,"yT1":0,"xT2":1058.1,"yT2":0,"toosoon":0,"cond_shown":"equaldotsize","ratio_trial":900,"smaller_num":"18","larger_num":"20","correct_side":1,"subjID":"SantiagoRochaColmenares19","gender":"0","age":"11","school":"6"},{"start_time":1551892868234,"click_time":1551892869905,"finger_time":1551892869305,"fix_duration":366.8110767926677,"trial":6,"RT":1071,"MT":600,"sideResp":1,"stimulus":"img/250/equaldotsize/L/3_Ratio_250_L_8_R_2.png","xmouse":[838,838,838,838,838,838,838,838,838,837,835,833,829,827,827,827,827,827,827,825,823,810,804,797,795,795,795,795,795,795,795,795,795,795,795,795,795,795,795,795,795,795,795,795,795,795,795,795,795,795,795,795,790,741,715,682,651,619,608,601,586,584,575,561,557,555,554,546,515,505,501,498,497,496,496,496,495,495,495,495,495,495,495,493],"ymouse":[647,647,647,647,647,647,647,647,647,647,649,652,657,657,657,657,657,657,657,657,657,654,652,652,651,651,651,651,651,651,651,651,651,651,651,651,651,651,651,651,651,651,651,651,651,651,651,651,651,651,651,651,648,555,512,463,419,373,360,348,330,327,319,306,301,292,280,254,177,150,134,125,118,114,113,113,113,113,111,109,108,105,102,90],"timestamp_mouse":[13,32,52,71,93,111,133,151,171,193,212,231,252,272,292,313,333,351,372,391,413,431,452,471,491,513,532,552,571,592,612,631,652,672,691,711,732,752,771,791,812,831,851,871,892,911,933,953,972,993,1013,1031,1052,1071,1092,1111,1131,1152,1171,1193,1212,1231,1251,1271,1291,1311,1331,1352,1372,1391,1411,1432,1451,1472,1491,1512,1532,1552,1571,1592,1611,1633,1652,1671],"xSR":741.5,"ySR":573.95,"xT1":424.9,"yT1":0,"xT2":1058.1,"yT2":0,"toosoon":0,"cond_shown":"equaldotsize","ratio_trial":250,"smaller_num":"2","larger_num":"8","correct_side":1,"subjID":"SantiagoRochaColmenares19","gender":"0","age":"11","school":"6"},{"start_time":1551892870977,"click_time":1551892872205,"finger_time":1551892871785,"fix_duration":250,"trial":7,"RT":808,"MT":420,"sideResp":1,"stimulus":"img/500/equaldotanddens/L/11_Ratio_500_L_12_R_6.png","xmouse":[814,814,814,814,814,814,814,814,814,814,814,814,814,812,810,804,801,801,801,801,801,801,801,801,801,801,801,801,801,801,801,801,801,801,801,801,801,801,793,775,697,502,444,422,422,422,425,425,419,413,408,404,402,401,401,402,411,415,420,423,427,434],"ymouse":[610,610,610,610,610,610,610,610,610,610,610,610,610,611,612,614,614,614,614,614,614,614,614,614,614,614,614,614,614,614,614,614,614,614,614,614,614,614,608,576,477,325,292,280,279,271,232,213,200,191,185,181,178,173,170,165,146,137,129,119,112,93],"timestamp_mouse":[11,43,49,69,89,109,129,149,169,189,209,230,250,269,289,308,330,349,369,389,410,428,449,469,489,509,529,549,569,589,608,629,648,670,690,709,728,748,769,788,808,828,848,869,889,909,928,948,968,988,1010,1029,1048,1068,1089,1108,1128,1148,1168,1188,1208,1228],"xSR":741.5,"ySR":573.95,"xT1":424.9,"yT1":0,"xT2":1058.1,"yT2":0,"toosoon":0,"cond_shown":"equaldotanddens","ratio_trial":500,"smaller_num":"6","larger_num":"12","correct_side":1,"subjID":"SantiagoRochaColmenares19","gender":"0","age":"11","school":"6"},{"start_time":1551892874083,"click_time":1551892875825,"finger_time":1551892874965,"fix_duration":737.9422755660738,"trial":8,"RT":882,"MT":860,"sideResp":1,"stimulus":"img/900/randomdotsizeEA/L/8_Ratio_900_L_20_R_18.png","xmouse":[759,759,759,759,759,759,759,759,759,759,759,759,759,759,759,759,759,759,759,759,759,759,759,759,759,759,759,759,759,759,759,759,759,759,759,759,759,759,759,760,762,771,776,785,796,806,821,824,827,833,843,860,863,863,863,863,863,863,863,863,863,863,863,861,857,818,669,581,550,535,528,517,510,501,494,493,486,484,484,483,482,481,481,481,479,478,476,476],"ymouse":[607,607,607,607,607,607,607,607,607,607,607,607,607,607,607,607,607,607,607,607,607,607,607,607,607,607,607,607,607,607,607,607,607,607,607,607,607,607,607,607,607,598,594,584,571,550,503,495,490,481,469,444,439,438,438,438,438,438,438,438,438,438,438,436,432,417,361,331,319,309,303,284,274,261,251,243,206,191,181,174,168,163,147,136,127,117,105,96],"timestamp_mouse":[11,35,44,62,82,103,123,144,163,184,203,222,243,264,284,303,323,342,363,383,402,423,442,462,483,502,523,543,562,582,603,623,642,662,682,702,722,742,763,782,802,822,843,863,882,902,922,943,962,983,1002,1022,1042,1062,1083,1104,1123,1143,1163,1183,1204,1223,1242,1263,1282,1302,1323,1342,1362,1382,1402,1422,1442,1463,1482,1504,1522,1543,1562,1582,1602,1622,1642,1662,1682,1702,1722,1742],"xSR":741.5,"ySR":573.95,"xT1":424.9,"yT1":0,"xT2":1058.1,"yT2":0,"toosoon":0,"cond_shown":"randomdotsizeEA","ratio_trial":900,"smaller_num":"18","larger_num":"20","correct_side":1,"subjID":"SantiagoRochaColmenares19","gender":"0","age":"11","school":"6"},{"start_time":1551892879035,"click_time":1551892880926,"finger_time":1551892879986,"fix_duration":1027.362752522382,"trial":9,"RT":951,"MT":940,"sideResp":2,"stimulus":"img/500/randomdotsizeEA/R/9_Ratio_500_L_2_R_4.png","xmouse":[794,794,794,794,794,794,794,794,794,794,794,794,794,794,794,794,794,794,794,794,794,794,794,794,794,794,794,794,794,794,794,794,794,794,794,794,794,794,794,794,794,794,794,794,794,794,780,761,752,746,745,744,742,738,708,690,676,662,658,654,653,653,653,653,666,690,720,784,820,872,886,895,900,910,936,948,959,968,978,987,991,996,999,1004,1015,1021,1029,1034,1040,1058,1067,1071,1074,1075,1079],"ymouse":[641,641,641,641,641,641,641,641,641,641,641,641,641,641,641,641,641,641,641,641,641,641,641,641,641,641,641,641,641,641,641,641,641,641,641,641,641,641,641,641,641,641,641,641,641,641,599,558,541,531,530,528,527,522,496,482,468,449,435,411,407,406,404,402,387,372,356,320,294,253,238,229,222,215,208,203,197,194,189,182,178,173,168,161,146,140,132,127,122,113,109,106,104,103,98],"timestamp_mouse":[10,39,51,70,91,111,132,151,170,191,210,232,251,270,291,311,331,352,370,390,410,430,450,471,491,510,531,550,571,590,611,630,650,670,691,711,731,750,772,790,810,832,852,870,892,911,930,951,970,991,1012,1030,1050,1070,1090,1110,1130,1151,1170,1191,1210,1231,1250,1270,1290,1312,1332,1351,1370,1390,1410,1431,1450,1471,1491,1511,1531,1550,1570,1591,1610,1630,1651,1671,1691,1711,1730,1750,1771,1791,1810,1830,1850,1870,1890],"xSR":741.5,"ySR":573.95,"xT1":424.9,"yT1":0,"xT2":1058.1,"yT2":0,"toosoon":0,"cond_shown":"randomdotsizeEA","ratio_trial":500,"smaller_num":"2","larger_num":"4","correct_side":2,"subjID":"SantiagoRochaColmenares19","gender":"0","age":"11","school":"6"},{"start_time":1551892882670,"click_time":1551892883485,"finger_time":1551892883325,"fix_duration":882.9978739359256,"trial":10,"RT":655,"MT":160,"sideResp":2,"stimulus":"img/750/equaldotanddens/R/3_Ratio_750_L_15_R_20.png","xmouse":[790,790,790,790,790,790,790,790,790,790,790,790,790,790,790,790,790,790,790,790,790,790,790,790,790,790,790,790,790,790,790,790,816,876,916,959,1005,1110,1138,1149,1151],"ymouse":[600,600,600,600,600,600,600,600,600,600,600,600,600,600,600,600,600,600,600,600,600,600,600,600,600,600,600,600,600,600,600,597,552,474,417,352,284,168,131,108,92],"timestamp_mouse":[16,35,55,77,97,116,136,157,175,196,217,236,256,275,295,315,335,355,377,397,415,436,455,477,496,516,535,556,576,597,615,636,655,675,696,716,735,755,776,796,815],"xSR":741.5,"ySR":573.95,"xT1":424.9,"yT1":0,"xT2":1058.1,"yT2":0,"toosoon":0,"cond_shown":"equaldotanddens","ratio_trial":750,"smaller_num":"15","larger_num":"20","correct_side":2,"subjID":"SantiagoRochaColmenares19","gender":"0","age":"11","school":"6"},{"start_time":1551892884687,"click_time":1551892885946,"finger_time":1551892885325,"fix_duration":360.8368666221476,"trial":11,"RT":638,"MT":621,"sideResp":1,"stimulus":"img/250/equaldotsize/L/1_Ratio_250_L_8_R_2.png","xmouse":[834,834,834,834,834,834,834,834,834,834,834,834,834,834,834,834,834,834,834,834,834,834,834,834,834,834,833,818,794,773,755,736,733,726,726,680,637,618,608,600,594,574,563,558,553,553,553,553,549,546,540,535,531,527,521,519,517,515,513,510,506,505,503],"ymouse":[654,654,654,654,654,654,654,654,654,654,654,654,654,654,654,654,654,654,654,654,654,654,654,654,654,654,652,633,608,586,575,565,563,557,557,500,448,420,400,378,355,298,278,263,245,226,193,182,171,164,158,150,145,140,133,131,129,127,123,119,112,109,96],"timestamp_mouse":[19,38,58,78,99,119,139,158,178,198,218,238,259,278,299,319,338,358,380,399,419,439,458,479,499,518,539,558,578,599,620,638,660,678,699,719,740,759,778,798,819,839,859,878,898,919,939,958,978,1000,1019,1039,1058,1078,1098,1118,1138,1159,1178,1198,1218,1238,1259],"xSR":741.5,"ySR":573.95,"xT1":424.9,"yT1":0,"xT2":1058.1,"yT2":0,"toosoon":0,"cond_shown":"equaldotsize","ratio_trial":250,"smaller_num":"2","larger_num":"8","correct_side":1,"subjID":"SantiagoRochaColmenares19","gender":"0","age":"11","school":"6"},{"start_time":1551892887005,"click_time":1551892887906,"finger_time":1551892887725,"fix_duration":257.45138584792136,"trial":12,"RT":720,"MT":181,"sideResp":2,"stimulus":"img/900/equaldotsize/L/10_Ratio_900_L_20_R_18.png","xmouse":[778,778,778,778,778,778,778,778,778,778,778,778,778,778,778,778,778,778,778,778,778,778,778,778,778,778,778,778,778,778,778,778,778,779,792,799,845,871,892,911,931,984,1015,1043,1072,1089],"ymouse":[605,605,605,605,605,605,605,605,605,605,605,605,605,605,605,605,605,605,605,605,605,605,605,605,605,605,605,605,605,605,605,605,605,605,604,602,556,492,424,359,301,221,190,157,116,95],"timestamp_mouse":[8,21,41,60,81,101,120,140,162,182,200,221,240,260,282,300,321,341,360,381,400,422,441,461,480,501,521,541,560,581,601,620,640,660,680,700,720,741,762,781,801,820,841,861,880,901],"xSR":741.5,"ySR":573.95,"xT1":424.9,"yT1":0,"xT2":1058.1,"yT2":0,"toosoon":0,"cond_shown":"equaldotsize","ratio_trial":900,"smaller_num":"18","larger_num":"20","correct_side":1,"subjID":"SantiagoRochaColmenares19","gender":"0","age":"11","school":"6"},{"start_time":1551892889455,"click_time":1551892890506,"finger_time":1551892889965,"fix_duration":669.6185573302703,"trial":13,"RT":510,"MT":541,"sideResp":1,"stimulus":"img/250/equaldotanddens/L/2_Ratio_250_L_16_R_4.png","xmouse":[759,759,759,759,759,759,759,759,759,759,759,759,759,759,759,759,759,759,759,759,759,759,759,758,745,723,696,673,655,628,618,605,593,586,571,563,556,549,542,530,525,523,522,521,515,508,500,496,494,493,492,491,487],"ymouse":[652,652,652,652,652,652,652,652,652,652,652,652,652,652,652,652,652,652,652,652,652,653,655,655,640,602,561,523,490,428,403,382,366,358,339,321,298,273,249,204,187,175,164,158,148,139,125,117,111,107,104,101,95],"timestamp_mouse":[10,40,51,70,90,112,130,151,171,190,210,232,251,271,291,311,331,350,372,390,411,430,450,470,490,510,531,550,570,590,610,630,652,672,692,710,730,750,770,790,810,831,850,870,890,911,932,950,970,991,1010,1031,1051],"xSR":741.5,"ySR":573.95,"xT1":424.9,"yT1":0,"xT2":1058.1,"yT2":0,"toosoon":0,"cond_shown":"equaldotanddens","ratio_trial":250,"smaller_num":"4","larger_num":"16","correct_side":1,"subjID":"SantiagoRochaColmenares19","gender":"0","age":"11","school":"6"},{"start_time":1551892892824,"click_time":1551892894084,"finger_time":1551892893645,"fix_duration":338.536399605616,"trial":14,"RT":821,"MT":439,"sideResp":1,"stimulus":"img/500/randomdotsizeEA/L/10_Ratio_500_L_4_R_2.png","xmouse":[791,791,791,791,791,791,791,791,791,791,791,791,791,791,791,791,791,791,791,791,791,791,791,791,791,791,791,791,791,791,791,791,791,791,791,791,791,791,790,788,778,761,756,752,748,748,748,748,748,742,723,671,641,624,613,606,584,575,568,562,558,548,526,504],"ymouse":[617,617,617,617,617,617,617,617,617,617,617,617,617,617,617,617,617,617,617,617,617,617,617,617,617,617,617,617,617,617,617,617,617,617,617,617,617,617,615,607,584,563,554,549,544,544,542,541,539,532,519,465,405,357,322,287,208,173,150,133,124,113,97,82],"timestamp_mouse":[10,32,40,60,81,101,121,141,161,181,201,222,242,261,281,301,321,341,361,382,402,422,441,461,481,501,520,540,562,581,601,621,641,660,682,700,721,741,761,780,802,821,840,860,882,901,921,942,961,981,1001,1021,1041,1060,1080,1101,1121,1142,1161,1180,1200,1220,1242,1260],"xSR":741.5,"ySR":573.95,"xT1":424.9,"yT1":0,"xT2":1058.1,"yT2":0,"toosoon":0,"cond_shown":"randomdotsizeEA","ratio_trial":500,"smaller_num":"2","larger_num":"4","correct_side":1,"subjID":"SantiagoRochaColmenares19","gender":"0","age":"11","school":"6"},{"start_time":1551892896108,"click_time":1551892897245,"finger_time":1551892896824,"fix_duration":1463.9776310706093,"trial":15,"RT":716,"MT":421,"sideResp":1,"stimulus":"img/250/randomdotsizeEA/L/14_Ratio_250_L_12_R_3.png","xmouse":[772,772,772,772,772,772,772,772,772,772,772,772,772,772,772,772,772,772,772,772,772,772,772,772,772,772,772,772,772,772,772,770,763,756,749,738,680,647,611,574,545,517,512,508,496,473,423,416,415,414,413,410,409,409,412,418,437],"ymouse":[640,640,640,640,640,640,640,640,640,640,640,640,640,640,640,640,640,640,640,640,640,640,640,640,640,640,640,640,640,640,640,640,638,631,624,611,550,513,465,416,374,312,287,259,223,185,125,116,111,107,103,88,85,80,78,77,75],"timestamp_mouse":[17,38,56,77,97,116,137,157,177,197,217,237,257,277,296,317,337,356,378,397,417,438,456,476,498,517,538,556,577,596,618,637,656,678,697,716,737,758,776,798,817,837,857,878,896,917,937,958,976,996,1016,1036,1056,1077,1097,1117,1137],"xSR":741.5,"ySR":573.95,"xT1":424.9,"yT1":0,"xT2":1058.1,"yT2":0,"toosoon":0,"cond_shown":"randomdotsizeEA","ratio_trial":250,"smaller_num":"3","larger_num":"12","correct_side":1,"subjID":"SantiagoRochaColmenares19","gender":"0","age":"11","school":"6"},{"start_time":1551892899264,"click_time":1551892900325,"finger_time":1551892899945,"fix_duration":1337.0358004704037,"trial":16,"RT":681,"MT":380,"sideResp":1,"stimulus":"img/250/equaldotanddens/L/1_Ratio_250_L_8_R_2.png","xmouse":[776,776,776,776,776,776,776,776,776,776,776,776,776,776,776,776,776,776,776,776,776,776,776,776,776,776,776,776,776,776,776,775,771,751,645,572,509,446,426,383,358,353,351,350,349,349,349,349,350,351,366,385,418,463],"ymouse":[652,652,652,652,652,652,652,652,652,652,652,652,652,652,652,652,652,652,652,652,652,652,652,652,652,652,652,652,652,652,652,652,644,604,447,354,283,205,177,110,49,28,13,6,1,0,0,0,0,0,0,0,12,35],"timestamp_mouse":[11,35,41,61,81,101,120,141,160,181,202,221,242,261,282,301,322,341,361,380,400,421,442,461,482,500,521,542,560,581,602,621,641,661,681,700,722,741,761,780,800,821,841,860,880,900,920,940,961,980,1000,1020,1042,1061],"xSR":741.5,"ySR":573.95,"xT1":424.9,"yT1":0,"xT2":1058.1,"yT2":0,"toosoon":0,"cond_shown":"equaldotanddens","ratio_trial":250,"smaller_num":"2","larger_num":"8","correct_side":1,"subjID":"SantiagoRochaColmenares19","gender":"0","age":"11","school":"6"},{"start_time":1551892901477,"click_time":1551892902445,"finger_time":1551892902245,"fix_duration":331.33867020395877,"trial":17,"RT":768,"MT":200,"sideResp":1,"stimulus":"img/750/equaldotanddens/L/14_Ratio_750_L_8_R_6.png","xmouse":[780,780,780,780,780,780,780,780,780,780,780,780,780,780,780,780,780,780,780,780,780,780,780,780,780,780,780,780,780,780,780,780,780,780,780,780,780,777,754,712,617,573,533,505,496,496,498,500,502],"ymouse":[650,650,650,650,650,650,650,650,650,650,650,650,650,650,650,650,650,650,650,650,650,650,650,650,650,650,650,650,650,650,650,650,650,650,650,650,640,626,570,500,359,299,244,190,150,135,121,106,95],"timestamp_mouse":[10,37,47,68,89,107,128,147,168,188,207,228,248,267,288,308,328,348,369,389,407,428,449,468,487,508,527,549,569,587,608,629,649,667,688,708,727,748,768,788,808,828,847,868,889,907,928,947,967],"xSR":741.5,"ySR":573.95,"xT1":424.9,"yT1":0,"xT2":1058.1,"yT2":0,"toosoon":0,"cond_shown":"equaldotanddens","ratio_trial":750,"smaller_num":"6","larger_num":"8","correct_side":1,"subjID":"SantiagoRochaColmenares19","gender":"0","age":"11","school":"6"},{"start_time":1551892903783,"click_time":1551892904765,"finger_time":1551892904485,"fix_duration":416.21654178172287,"trial":18,"RT":702,"MT":280,"sideResp":1,"stimulus":"img/250/randomdotsizeEA/L/1_Ratio_250_L_8_R_2.png","xmouse":[793,793,793,793,793,793,793,793,793,793,793,793,793,793,793,793,793,793,793,793,793,793,793,793,793,793,793,793,793,793,793,793,791,783,764,705,664,619,609,607,600,589,577,568,558,541,529,515,494,477],"ymouse":[644,644,644,644,644,644,644,644,644,644,644,644,644,644,644,644,644,644,644,644,644,644,644,644,644,644,644,644,644,644,644,644,645,637,615,547,501,438,410,382,303,262,236,215,198,160,140,122,104,92],"timestamp_mouse":[12,36,42,62,83,102,122,143,162,181,202,222,241,263,282,301,322,342,362,381,402,422,442,463,482,502,523,543,563,581,602,622,642,661,682,702,722,741,762,782,801,822,842,861,882,902,923,942,963,982],"xSR":741.5,"ySR":573.95,"xT1":424.9,"yT1":0,"xT2":1058.1,"yT2":0,"toosoon":0,"cond_shown":"randomdotsizeEA","ratio_trial":250,"smaller_num":"2","larger_num":"8","correct_side":1,"subjID":"SantiagoRochaColmenares19","gender":"0","age":"11","school":"6"},{"start_time":1551892909463,"click_time":1551892910705,"finger_time":1551892910225,"fix_duration":1415.1636888686849,"trial":19,"RT":762,"MT":480,"sideResp":2,"stimulus":"img/750/equaldotsize/R/2_Ratio_750_L_6_R_8.png","xmouse":[767,758,758,758,758,758,758,758,758,758,758,758,758,758,758,758,758,758,758,758,758,758,758,758,758,758,758,758,758,758,758,758,758,758,758,758,760,791,822,862,907,1013,1028,1032,1033,1033,1029,1027,1027,1027,1027,1026,1025,1025,1025,1026,1033,1053,1059,1062,1062,1066,1066],"ymouse":[649,657,657,657,657,657,657,657,657,657,657,657,656,654,654,654,654,654,654,654,654,654,654,654,654,654,654,654,654,654,654,654,654,654,654,653,647,603,558,504,441,323,306,299,296,294,284,278,271,259,244,209,199,195,191,186,176,150,136,119,116,101,97],"timestamp_mouse":[1,37,41,62,82,103,123,141,161,182,203,222,242,262,282,302,322,341,362,382,402,421,442,462,483,501,521,542,562,581,602,622,642,662,682,701,721,742,762,782,802,822,842,861,882,902,922,942,962,982,1003,1022,1043,1062,1082,1102,1121,1142,1162,1181,1202,1222,1242],"xSR":741.5,"ySR":573.95,"xT1":424.9,"yT1":0,"xT2":1058.1,"yT2":0,"toosoon":0,"cond_shown":"equaldotsize","ratio_trial":750,"smaller_num":"6","larger_num":"8","correct_side":2,"subjID":"SantiagoRochaColmenares19","gender":"0","age":"11","school":"6"},{"start_time":1551892912566,"click_time":1551892913685,"finger_time":1551892913225,"fix_duration":1040.975259200322,"trial":20,"RT":659,"MT":460,"sideResp":2,"stimulus":"img/500/equaldotanddens/R/15_Ratio_500_L_1_R_2.png","xmouse":[803,803,803,803,803,803,803,803,803,803,803,803,803,803,803,803,803,803,803,803,803,803,803,803,803,803,803,803,803,803,803,810,831,868,906,940,996,1014,1034,1047,1052,1052,1044,1038,1036,1036,1036,1036,1036,1036,1036,1036,1039,1050,1056,1068],"ymouse":[605,605,605,605,605,605,605,605,605,605,605,605,605,605,605,605,605,605,605,605,605,605,605,605,605,605,605,605,605,605,605,595,569,527,494,467,421,400,368,326,244,210,181,149,134,119,95,89,87,86,86,85,84,77,69,61],"timestamp_mouse":[32,39,59,80,99,119,138,159,180,200,219,239,259,279,298,320,339,360,379,399,419,439,459,478,500,519,538,560,579,599,620,639,659,679,699,719,739,759,780,799,820,838,859,879,899,919,939,960,979,998,1019,1038,1060,1078,1099,1119],"xSR":741.5,"ySR":573.95,"xT1":424.9,"yT1":0,"xT2":1058.1,"yT2":0,"toosoon":0,"cond_shown":"equaldotanddens","ratio_trial":500,"smaller_num":"1","larger_num":"2","correct_side":2,"subjID":"SantiagoRochaColmenares19","gender":"0","age":"11","school":"6"},{"start_time":1551892915124,"click_time":1551892917085,"finger_time":1551892916105,"fix_duration":796.2217534480171,"trial":21,"RT":981,"MT":980,"sideResp":2,"stimulus":"img/250/equaldotsize/R/8_Ratio_250_L_1_R_4.png","xmouse":[789,789,789,789,789,789,789,789,789,789,789,789,789,789,789,788,781,776,774,774,773,773,773,773,773,773,773,773,773,773,773,773,773,773,773,773,773,773,773,773,773,773,773,773,773,773,773,771,766,705,664,616,569,529,475,456,449,444,439,435,435,435,435,435,435,435,435,435,435,435,435,435,435,435,435,436,458,516,595,830,956,1069,1160,1205,1233,1234,1234,1234,1234,1234,1234,1234,1232,1226,1207,1187,1175,1160,1146],"ymouse":[618,618,618,618,618,618,618,618,618,618,618,618,618,618,618,618,623,625,625,625,626,626,626,626,626,626,626,626,626,626,626,626,626,626,626,626,626,626,626,626,626,626,626,626,626,626,626,624,614,543,500,450,394,346,266,231,217,205,193,180,175,169,164,159,157,157,157,157,157,157,157,157,157,157,157,156,175,205,241,289,297,297,281,255,184,145,125,113,106,95,92,90,89,87,84,83,81,79,77],"timestamp_mouse":[8,21,45,61,81,102,120,141,162,182,201,220,241,261,280,301,321,342,361,380,401,421,441,461,482,502,521,540,562,580,600,621,641,661,681,700,722,741,762,781,800,821,841,862,882,901,920,942,962,981,1001,1021,1041,1061,1081,1101,1120,1140,1161,1181,1201,1221,1240,1262,1281,1300,1320,1341,1362,1381,1401,1421,1440,1462,1481,1501,1521,1540,1561,1580,1601,1621,1641,1662,1681,1702,1721,1741,1760,1780,1801,1821,1841,1861,1880,1901,1921,1941,1961],"xSR":741.5,"ySR":573.95,"xT1":424.9,"yT1":0,"xT2":1058.1,"yT2":0,"toosoon":0,"cond_shown":"equaldotsize","ratio_trial":250,"smaller_num":"1","larger_num":"4","correct_side":2,"subjID":"SantiagoRochaColmenares19","gender":"0","age":"11","school":"6"},{"start_time":1551892921719,"click_time":1551892922705,"finger_time":1551892922346,"fix_duration":492.5503846254049,"trial":22,"RT":627,"MT":359,"sideResp":1,"stimulus":"img/500/equaldotanddens/L/5_Ratio_500_L_4_R_2.png","xmouse":[807,807,807,807,807,807,807,807,807,807,807,807,807,807,807,807,807,807,807,807,807,807,807,807,807,807,807,807,807,807,781,693,635,591,548,493,484,479,474,471,463,463,463,464,465,466,466,466,466,466],"ymouse":[663,663,663,663,663,663,663,663,663,663,663,663,663,663,663,663,663,663,663,663,663,663,663,663,663,663,663,663,663,663,617,511,455,404,353,269,245,224,208,191,153,142,135,128,120,108,107,107,104,98],"timestamp_mouse":[9,34,46,65,86,107,127,146,165,186,206,227,245,266,286,306,326,346,366,386,406,426,446,467,486,506,525,547,565,586,605,627,646,666,686,706,726,746,766,786,805,825,846,866,886,906,926,946,966,986],"xSR":741.5,"ySR":573.95,"xT1":424.9,"yT1":0,"xT2":1058.1,"yT2":0,"toosoon":0,"cond_shown":"equaldotanddens","ratio_trial":500,"smaller_num":"2","larger_num":"4","correct_side":1,"subjID":"SantiagoRochaColmenares19","gender":"0","age":"11","school":"6"},{"start_time":1551892924590,"click_time":1551892925486,"finger_time":1551892925085,"fix_duration":1064.8960867892972,"trial":23,"RT":495,"MT":401,"sideResp":1,"stimulus":"img/250/equaldotanddens/L/7_Ratio_250_L_8_R_2.png","xmouse":[800,800,800,800,800,800,800,800,800,800,800,800,800,800,800,800,800,800,800,800,800,800,796,780,755,732,683,659,642,632,627,616,610,599,591,586,586,586,585,578,571,563,555,541,523],"ymouse":[617,617,617,617,617,617,617,617,617,617,617,617,617,617,617,617,617,617,617,617,617,617,617,596,562,535,466,414,367,324,288,235,212,190,177,167,159,152,144,131,123,113,99,82,65],"timestamp_mouse":[19,37,55,75,96,116,135,155,175,195,216,236,255,275,295,315,336,354,375,395,416,436,454,475,495,515,534,556,575,595,616,635,654,675,695,715,735,755,776,795,815,835,855,875,896],"xSR":741.5,"ySR":573.95,"xT1":424.9,"yT1":0,"xT2":1058.1,"yT2":0,"toosoon":0,"cond_shown":"equaldotanddens","ratio_trial":250,"smaller_num":"2","larger_num":"8","correct_side":1,"subjID":"SantiagoRochaColmenares19","gender":"0","age":"11","school":"6"},{"start_time":1551892926538,"click_time":1551892927365,"finger_time":1551892927085,"fix_duration":250,"trial":24,"RT":547,"MT":280,"sideResp":1,"stimulus":"img/750/equaldotanddens/L/10_Ratio_750_L_4_R_3.png","xmouse":[782,782,782,782,782,782,782,782,782,782,782,782,782,782,782,782,782,782,782,782,782,782,782,782,779,764,753,739,703,643,629,621,618,608,580,564,550,537,528,515,514,514],"ymouse":[640,640,640,640,640,640,640,640,640,640,640,640,640,640,640,640,640,640,640,640,640,640,640,637,613,591,575,559,510,404,350,315,290,264,214,192,172,156,141,108,102,96],"timestamp_mouse":[6,27,49,67,87,107,127,146,167,187,208,226,247,266,288,307,327,346,367,387,407,428,447,467,487,508,526,547,567,587,606,627,646,667,687,706,727,747,768,787,808,827],"xSR":741.5,"ySR":573.95,"xT1":424.9,"yT1":0,"xT2":1058.1,"yT2":0,"toosoon":0,"cond_shown":"equaldotanddens","ratio_trial":750,"smaller_num":"3","larger_num":"4","correct_side":1,"subjID":"SantiagoRochaColmenares19","gender":"0","age":"11","school":"6"},{"start_time":1551892928357,"click_time":1551892929305,"finger_time":1551892929064,"fix_duration":250,"trial":25,"RT":707,"MT":241,"sideResp":1,"stimulus":"img/900/randomdotsizeEA/R/12_Ratio_900_L_18_R_20.png","xmouse":[753,753,753,753,753,753,753,753,753,753,753,753,753,753,753,753,753,753,753,753,753,753,753,753,753,753,753,753,753,753,753,753,754,754,743,733,718,681,651,594,581,570,563,551,544,536,527,522],"ymouse":[643,643,643,643,643,643,643,643,643,643,643,643,643,643,643,643,643,643,643,643,643,643,643,643,643,643,643,643,643,643,643,643,643,637,601,580,555,498,450,333,286,248,223,177,156,137,111,99],"timestamp_mouse":[11,35,48,67,88,108,128,149,168,188,208,227,249,268,289,308,328,348,369,389,408,427,449,469,487,508,528,548,569,588,607,629,648,668,688,707,728,749,768,789,809,827,847,868,888,907,929,947],"xSR":741.5,"ySR":573.95,"xT1":424.9,"yT1":0,"xT2":1058.1,"yT2":0,"toosoon":0,"cond_shown":"randomdotsizeEA","ratio_trial":900,"smaller_num":"18","larger_num":"20","correct_side":2,"subjID":"SantiagoRochaColmenares19","gender":"0","age":"11","school":"6"},{"start_time":1551892931916,"click_time":1551892933044,"finger_time":1551892932505,"fix_duration":290.4526670907932,"trial":26,"RT":589,"MT":539,"sideResp":2,"stimulus":"img/500/equaldotsize/R/12_Ratio_500_L_1_R_2.png","xmouse":[782,782,782,782,782,782,781,779,777,776,776,776,776,776,776,776,776,776,776,776,776,776,776,776,776,776,776,777,782,790,841,884,921,968,1013,1070,1085,1088,1093,1093,1093,1089,1089,1089,1092,1095,1098,1099,1102,1108,1110,1114,1114,1114,1114,1112,1104],"ymouse":[620,620,620,620,620,620,618,612,604,601,600,600,599,599,599,599,599,599,599,599,599,599,599,599,599,599,599,595,575,544,472,444,422,392,353,304,279,271,248,237,227,212,206,202,197,194,182,170,157,149,146,135,129,122,116,107,87],"timestamp_mouse":[8,30,50,70,89,109,129,148,169,190,209,229,250,270,289,309,329,350,370,388,409,430,448,470,489,508,529,549,569,589,610,629,649,668,689,710,730,748,769,789,808,829,849,869,888,909,928,949,969,989,1008,1029,1049,1070,1090,1109,1128],"xSR":741.5,"ySR":573.95,"xT1":424.9,"yT1":0,"xT2":1058.1,"yT2":0,"toosoon":0,"cond_shown":"equaldotsize","ratio_trial":500,"smaller_num":"1","larger_num":"2","correct_side":2,"subjID":"SantiagoRochaColmenares19","gender":"0","age":"11","school":"6"},{"start_time":1551892939613,"click_time":1551892940364,"finger_time":1551892940224,"fix_duration":1128.8095758983568,"trial":27,"RT":611,"MT":140,"sideResp":2,"stimulus":"img/750/equaldotanddens/R/4_Ratio_750_L_15_R_20.png","xmouse":[780,780,780,780,780,780,780,780,780,780,780,780,780,780,780,780,780,780,780,780,780,780,780,780,780,780,780,780,785,798,809,824,868,893,916,937,1012,1068],"ymouse":[608,608,608,608,608,608,608,608,608,608,608,608,608,608,608,608,608,608,608,608,608,608,608,608,608,608,608,608,606,583,545,486,376,342,311,285,178,97],"timestamp_mouse":[11,34,52,73,91,112,131,152,173,192,211,233,251,273,293,312,331,352,373,392,413,431,453,472,492,513,532,552,571,591,611,632,653,672,691,711,733,751],"xSR":741.5,"ySR":573.95,"xT1":424.9,"yT1":0,"xT2":1058.1,"yT2":0,"toosoon":0,"cond_shown":"equaldotanddens","ratio_trial":750,"smaller_num":"15","larger_num":"20","correct_side":2,"subjID":"SantiagoRochaColmenares19","gender":"0","age":"11","school":"6"},{"start_time":1551892941716,"click_time":1551892942565,"finger_time":1551892942245,"fix_duration":250,"trial":28,"RT":529,"MT":320,"sideResp":1,"stimulus":"img/250/equaldotanddens/L/5_Ratio_250_L_24_R_6.png","xmouse":[790,782,781,781,781,781,781,781,781,781,781,781,781,781,781,781,781,781,781,781,781,781,781,781,781,777,768,707,677,657,649,646,619,589,572,565,565,565,563,559,551,542,508],"ymouse":[595,595,595,595,595,595,595,595,595,595,595,595,595,595,595,595,595,595,595,595,595,595,595,595,595,587,565,444,398,355,330,306,178,108,70,52,45,35,30,24,20,16,8],"timestamp_mouse":[10,29,50,68,88,109,129,149,169,190,209,230,250,268,289,309,329,348,370,390,408,429,449,470,489,509,529,549,569,589,609,630,649,669,689,709,728,749,769,789,809,829,849],"xSR":741.5,"ySR":573.95,"xT1":424.9,"yT1":0,"xT2":1058.1,"yT2":0,"toosoon":0,"cond_shown":"equaldotanddens","ratio_trial":250,"smaller_num":"6","larger_num":"24","correct_side":1,"subjID":"SantiagoRochaColmenares19","gender":"0","age":"11","school":"6"},{"start_time":1551892945063,"click_time":1551892946065,"finger_time":1551892945765,"fix_duration":1477.6763581184725,"trial":29,"RT":702,"MT":300,"sideResp":2,"stimulus":"img/900/equaldotanddens/R/14_Ratio_900_L_18_R_20.png","xmouse":[779,779,779,779,779,779,775,774,772,769,767,767,767,767,767,767,767,767,767,767,767,767,767,767,767,767,767,767,767,767,767,767,767,767,772,854,902,945,973,989,999,1009,1016,1024,1031,1033,1035,1036,1038,1046,1067],"ymouse":[641,641,641,641,641,639,632,628,623,615,611,611,611,611,611,611,611,611,611,611,611,611,611,611,611,611,611,611,611,611,611,611,611,610,601,512,434,344,262,208,174,126,105,84,74,69,64,60,56,46,36],"timestamp_mouse":[10,35,43,62,82,102,123,142,162,182,203,222,242,262,283,302,321,343,361,382,402,421,443,462,482,502,521,543,563,582,602,622,642,662,682,702,722,742,761,781,802,822,841,862,881,902,923,942,962,983,1002],"xSR":741.5,"ySR":573.95,"xT1":424.9,"yT1":0,"xT2":1058.1,"yT2":0,"toosoon":0,"cond_shown":"equaldotanddens","ratio_trial":900,"smaller_num":"18","larger_num":"20","correct_side":2,"subjID":"SantiagoRochaColmenares19","gender":"0","age":"11","school":"6"},{"start_time":1551892947332,"click_time":1551892948186,"finger_time":1551892947905,"fix_duration":544.0014701416744,"trial":30,"RT":573,"MT":281,"sideResp":1,"stimulus":"img/900/equaldotanddens/L/8_Ratio_900_L_20_R_18.png","xmouse":[790,790,790,790,790,790,790,790,790,790,790,790,790,790,790,790,790,790,790,790,790,790,790,790,790,790,789,767,741,697,671,648,644,642,635,615,579,565,551,531,519,508,488],"ymouse":[621,621,621,621,621,621,621,621,621,621,621,621,621,621,621,621,621,621,621,621,621,621,621,621,621,621,620,589,552,485,442,396,375,347,305,252,188,171,152,131,120,111,98],"timestamp_mouse":[13,32,53,74,94,113,132,153,172,193,214,232,253,273,293,313,333,353,372,393,413,433,453,473,493,513,533,553,573,593,613,634,653,673,693,713,734,753,772,792,813,833,854],"xSR":741.5,"ySR":573.95,"xT1":424.9,"yT1":0,"xT2":1058.1,"yT2":0,"toosoon":0,"cond_shown":"equaldotanddens","ratio_trial":900,"smaller_num":"18","larger_num":"20","correct_side":1,"subjID":"SantiagoRochaColmenares19","gender":"0","age":"11","school":"6"},{"start_time":1551892949236,"click_time":1551892950005,"finger_time":1551892949725,"fix_duration":250,"trial":31,"RT":489,"MT":280,"sideResp":2,"stimulus":"img/900/equaldotsize/L/8_Ratio_900_L_20_R_18.png","xmouse":[780,780,780,780,780,780,780,780,780,780,780,780,780,780,780,780,780,780,780,780,780,780,780,790,809,839,872,904,911,915,917,917,924,942,965,994,1024,1056,1064],"ymouse":[601,601,601,601,601,601,601,601,601,601,601,601,601,601,601,601,601,601,601,601,601,601,601,588,572,551,527,478,444,418,396,376,312,242,188,138,101,78,71],"timestamp_mouse":[10,30,49,69,89,109,129,149,168,190,210,230,249,269,290,309,329,349,369,389,409,429,450,469,489,510,528,549,569,589,609,630,649,670,689,709,729,749,769],"xSR":741.5,"ySR":573.95,"xT1":424.9,"yT1":0,"xT2":1058.1,"yT2":0,"toosoon":0,"cond_shown":"equaldotsize","ratio_trial":900,"smaller_num":"18","larger_num":"20","correct_side":1,"subjID":"SantiagoRochaColmenares19","gender":"0","age":"11","school":"6"},{"start_time":1551892952023,"click_time":1551892952886,"finger_time":1551892952344,"fix_duration":937.1400269195519,"trial":32,"RT":321,"MT":542,"sideResp":1,"stimulus":"img/750/randomdotsizeEA/L/9_Ratio_750_L_4_R_3.png","xmouse":[789,789,789,789,789,801,809,813,814,814,814,814,814,814,814,815,815,810,804,776,758,742,727,702,692,669,639,601,570,546,542,537,534,526,525,525,525,525,525,523,518,510,504,497],"ymouse":[591,591,591,591,591,584,581,579,579,579,579,579,579,579,579,576,571,553,538,501,483,471,460,406,373,332,292,251,220,178,164,152,143,131,129,129,129,129,129,125,119,109,100,82],"timestamp_mouse":[9,28,42,62,82,102,122,141,163,182,203,222,242,263,282,303,321,343,361,382,402,422,443,463,482,502,521,542,562,582,602,621,643,662,682,703,723,743,763,782,802,822,843,863],"xSR":741.5,"ySR":573.95,"xT1":424.9,"yT1":0,"xT2":1058.1,"yT2":0,"toosoon":0,"cond_shown":"randomdotsizeEA","ratio_trial":750,"smaller_num":"3","larger_num":"4","correct_side":1,"subjID":"SantiagoRochaColmenares19","gender":"0","age":"11","school":"6"},{"start_time":1551892954441,"click_time":1551892955545,"finger_time":1551892955067,"fix_duration":1054.6020362739375,"trial":33,"RT":626,"MT":478,"sideResp":2,"stimulus":"img/500/equaldotanddens/R/12_Ratio_500_L_1_R_2.png","xmouse":[780,780,780,780,780,780,780,780,780,780,780,780,780,780,780,780,780,780,780,780,780,780,780,780,780,780,780,780,797,814,833,866,897,1010,1071,1121,1140,1145,1145,1149,1152,1154,1159,1158,1149,1129,1112,1095,1095,1095,1095,1095,1095,1097,1099,1101],"ymouse":[651,651,651,651,651,651,651,651,651,651,651,651,651,651,651,651,651,651,651,651,651,651,651,651,651,651,651,648,630,615,600,571,548,493,467,442,425,380,353,335,329,327,324,293,273,241,216,175,157,141,127,120,115,106,101,97],"timestamp_mouse":[10,24,44,64,84,105,126,144,165,185,204,224,244,265,284,305,324,344,365,384,406,425,445,465,484,504,524,544,564,584,606,626,644,664,685,705,725,745,764,784,804,826,844,866,884,904,925,945,964,985,1006,1025,1044,1065,1085,1104],"xSR":741.5,"ySR":573.95,"xT1":424.9,"yT1":0,"xT2":1058.1,"yT2":0,"toosoon":0,"cond_shown":"equaldotanddens","ratio_trial":500,"smaller_num":"1","larger_num":"2","correct_side":2,"subjID":"SantiagoRochaColmenares19","gender":"0","age":"11","school":"6"},{"start_time":1551892956966,"click_time":1551892958046,"finger_time":1551892957605,"fix_duration":620.8661687399385,"trial":34,"RT":639,"MT":441,"sideResp":1,"stimulus":"img/500/equaldotsize/L/8_Ratio_500_L_8_R_4.png","xmouse":[803,803,803,803,803,803,803,803,803,803,803,803,803,803,803,803,803,803,803,803,803,803,803,803,803,803,803,803,803,793,769,616,541,480,407,373,347,345,347,350,352,353,353,353,353,353,353,354,358,369,380,402,424,435],"ymouse":[594,594,594,594,594,594,594,594,594,594,594,594,594,594,594,594,594,594,594,594,594,594,594,594,594,594,594,594,594,589,582,503,422,325,164,81,0,0,0,0,0,0,0,0,0,0,0,0,0,4,13,46,77,91],"timestamp_mouse":[33,40,60,80,99,120,140,159,180,201,220,241,261,280,299,319,339,360,380,399,420,441,460,480,499,519,540,561,579,600,619,639,659,679,700,720,740,760,779,800,820,839,859,881,900,920,940,959,980,1001,1019,1039,1061,1080],"xSR":741.5,"ySR":573.95,"xT1":424.9,"yT1":0,"xT2":1058.1,"yT2":0,"toosoon":0,"cond_shown":"equaldotsize","ratio_trial":500,"smaller_num":"4","larger_num":"8","correct_side":1,"subjID":"SantiagoRochaColmenares19","gender":"0","age":"11","school":"6"},{"start_time":1551892959562,"click_time":1551892961185,"finger_time":1551892960145,"fix_duration":534.3640753215893,"trial":35,"RT":583,"MT":1040,"sideResp":2,"stimulus":"img/750/randomdotsizeEA/R/7_Ratio_750_L_3_R_4.png","xmouse":[778,778,778,778,778,778,778,778,778,778,778,778,778,778,778,778,778,778,778,778,778,778,778,778,778,778,779,770,757,744,728,719,709,706,701,695,691,688,687,685,678,664,623,609,602,598,596,592,592,592,592,592,592,592,600,614,625,646,665,693,740,800,924,948,965,975,985,1004,1012,1019,1021,1024,1028,1029,1033,1035,1039,1046,1049,1055,1058,1060],"ymouse":[628,628,628,628,628,628,628,628,628,628,628,628,628,628,628,628,628,628,628,628,628,628,628,628,628,628,627,601,576,548,513,482,385,361,343,328,318,306,303,298,289,273,236,223,218,214,212,210,210,210,210,210,210,210,207,205,203,195,189,182,180,180,179,175,170,164,155,143,136,133,132,131,129,128,124,120,113,96,89,80,74,71],"timestamp_mouse":[10,24,43,63,83,104,123,145,163,183,204,223,244,264,283,304,323,343,364,383,403,424,444,464,483,503,525,543,563,583,604,624,643,663,684,704,724,744,764,783,803,824,844,865,883,903,925,943,963,983,1005,1023,1045,1063,1085,1104,1125,1144,1164,1183,1204,1223,1243,1264,1284,1305,1325,1344,1363,1383,1403,1424,1444,1464,1483,1504,1525,1544,1563,1584,1605,1623],"xSR":741.5,"ySR":573.95,"xT1":424.9,"yT1":0,"xT2":1058.1,"yT2":0,"toosoon":0,"cond_shown":"randomdotsizeEA","ratio_trial":750,"smaller_num":"3","larger_num":"4","correct_side":2,"subjID":"SantiagoRochaColmenares19","gender":"0","age":"11","school":"6"},{"start_time":1551892962793,"click_time":1551892963607,"finger_time":1551892963367,"fix_duration":786.3465619321299,"trial":36,"RT":574,"MT":240,"sideResp":1,"stimulus":"img/750/equaldotsize/L/6_Ratio_750_L_24_R_18.png","xmouse":[797,797,797,797,797,797,797,797,797,797,797,797,797,797,797,797,797,797,797,797,797,797,797,797,795,794,797,796,785,745,666,619,576,541,519,495,489,488,488,491,493],"ymouse":[610,610,610,610,610,610,610,610,610,610,610,610,610,610,610,610,610,610,610,610,610,610,610,610,611,611,601,579,540,457,352,309,272,240,217,174,152,133,120,106,93],"timestamp_mouse":[13,32,54,73,93,112,133,153,172,192,212,233,253,272,292,313,333,353,372,392,412,433,454,472,492,514,533,552,574,592,613,632,653,672,694,713,732,754,772,793,814],"xSR":741.5,"ySR":573.95,"xT1":424.9,"yT1":0,"xT2":1058.1,"yT2":0,"toosoon":0,"cond_shown":"equaldotsize","ratio_trial":750,"smaller_num":"18","larger_num":"24","correct_side":1,"subjID":"SantiagoRochaColmenares19","gender":"0","age":"11","school":"6"},{"start_time":1551892964438,"click_time":1551892965185,"finger_time":1551892964946,"fix_duration":250,"trial":37,"RT":508,"MT":239,"sideResp":1,"stimulus":"img/250/equaldotanddens/L/3_Ratio_250_L_8_R_2.png","xmouse":[794,794,794,794,794,794,794,794,794,794,794,794,794,794,794,794,794,794,794,794,794,794,794,794,780,733,715,666,637,580,551,533,521,515,508,508,508,508],"ymouse":[616,616,616,616,616,616,616,616,616,616,616,616,616,616,616,616,616,616,616,616,616,616,616,613,582,493,458,376,325,245,212,189,168,151,123,114,105,99],"timestamp_mouse":[8,33,47,67,87,108,127,148,167,187,207,228,248,267,289,307,327,347,367,387,408,427,447,469,487,508,528,547,568,588,607,627,647,667,687,709,728,747],"xSR":741.5,"ySR":573.95,"xT1":424.9,"yT1":0,"xT2":1058.1,"yT2":0,"toosoon":0,"cond_shown":"equaldotanddens","ratio_trial":250,"smaller_num":"2","larger_num":"8","correct_side":1,"subjID":"SantiagoRochaColmenares19","gender":"0","age":"11","school":"6"},{"start_time":1551892966611,"click_time":1551892967285,"finger_time":1551892967125,"fix_duration":504.8666356575995,"trial":38,"RT":514,"MT":160,"sideResp":1,"stimulus":"img/250/equaldotsize/L/15_Ratio_250_L_12_R_3.png","xmouse":[790,790,790,790,790,790,790,790,790,790,790,790,788,784,783,783,783,783,783,783,783,783,782,777,749,600,539,491,459,440,427,426,426,427],"ymouse":[622,622,622,622,622,622,622,622,622,622,622,624,625,625,625,625,625,625,625,625,625,625,625,622,586,434,362,293,237,199,152,133,113,97],"timestamp_mouse":[27,35,55,75,95,114,136,154,174,195,215,234,255,274,296,314,334,354,374,396,415,436,455,474,494,514,536,554,575,594,614,636,655,674],"xSR":741.5,"ySR":573.95,"xT1":424.9,"yT1":0,"xT2":1058.1,"yT2":0,"toosoon":0,"cond_shown":"equaldotsize","ratio_trial":250,"smaller_num":"3","larger_num":"12","correct_side":1,"subjID":"SantiagoRochaColmenares19","gender":"0","age":"11","school":"6"},{"start_time":1551892968136,"click_time":1551892969026,"finger_time":1551892968706,"fix_duration":250,"trial":39,"RT":570,"MT":320,"sideResp":2,"stimulus":"img/500/equaldotsize/R/3_Ratio_500_L_10_R_20.png","xmouse":[766,766,766,766,766,766,766,766,766,766,766,766,766,766,766,766,766,766,766,766,766,766,766,766,766,773,786,810,850,923,954,981,1011,1026,1036,1039,1045,1054,1066,1075,1082,1082,1083,1087,1102],"ymouse":[624,624,624,624,624,624,624,624,624,624,624,624,624,624,624,624,624,624,624,624,624,624,624,624,621,616,607,593,569,500,458,415,364,324,266,241,222,205,190,181,153,140,129,116,91],"timestamp_mouse":[10,40,50,69,89,109,130,150,170,189,210,231,249,270,289,311,329,350,370,389,410,430,451,469,490,509,529,550,570,590,610,630,649,670,689,711,730,750,769,789,810,829,850,870,890],"xSR":741.5,"ySR":573.95,"xT1":424.9,"yT1":0,"xT2":1058.1,"yT2":0,"toosoon":0,"cond_shown":"equaldotsize","ratio_trial":500,"smaller_num":"10","larger_num":"20","correct_side":2,"subjID":"SantiagoRochaColmenares19","gender":"0","age":"11","school":"6"},{"start_time":1551892969979,"click_time":1551892970966,"finger_time":1551892970526,"fix_duration":250,"trial":40,"RT":547,"MT":440,"sideResp":2,"stimulus":"img/900/equaldotsize/R/11_Ratio_900_L_18_R_20.png","xmouse":[792,792,792,792,792,792,792,792,792,792,792,792,792,792,792,792,792,792,792,792,792,792,792,792,792,793,799,851,891,908,921,932,956,972,987,1005,1018,1049,1061,1072,1081,1087,1093,1096,1099,1103,1106,1111,1111,1112],"ymouse":[627,627,627,627,627,627,627,627,627,627,627,627,627,627,627,627,627,627,627,627,627,627,627,627,627,627,620,576,544,530,516,502,458,421,386,346,316,244,220,198,183,170,152,145,136,127,119,106,102,99],"timestamp_mouse":[6,40,46,66,87,107,126,147,167,186,206,226,247,266,286,306,326,347,367,388,406,427,448,466,487,506,527,547,566,586,608,627,647,666,687,706,727,746,768,786,807,826,846,866,887,907,926,946,966,987],"xSR":741.5,"ySR":573.95,"xT1":424.9,"yT1":0,"xT2":1058.1,"yT2":0,"toosoon":0,"cond_shown":"equaldotsize","ratio_trial":900,"smaller_num":"18","larger_num":"20","correct_side":2,"subjID":"SantiagoRochaColmenares19","gender":"0","age":"11","school":"6"},{"start_time":1551892973049,"click_time":1551892974286,"finger_time":1551892973845,"fix_duration":1221.3057608996303,"trial":41,"RT":796,"MT":441,"sideResp":1,"stimulus":"img/500/randomdotsizeEA/L/4_Ratio_500_L_18_R_9.png","xmouse":[788,788,788,788,788,788,788,788,788,788,788,788,788,788,788,788,788,788,788,788,788,788,788,788,788,788,788,788,792,802,808,810,812,812,812,812,812,812,796,776,752,733,711,700,663,635,603,576,556,532,528,527,527,527,530,532,533,534,534,529,524,520],"ymouse":[619,619,619,619,619,619,619,619,619,619,619,619,619,619,619,619,619,619,619,619,619,619,619,619,619,619,619,619,619,615,612,612,610,610,610,610,610,609,574,535,495,461,424,404,351,319,286,256,230,195,185,177,173,169,158,150,143,138,124,115,103,93],"timestamp_mouse":[16,42,57,76,96,116,137,156,178,196,217,236,257,277,298,316,337,356,377,398,416,437,457,478,496,518,537,556,578,596,616,637,657,677,698,716,736,757,777,796,816,837,856,876,897,917,936,956,976,997,1017,1036,1056,1076,1097,1116,1137,1156,1178,1196,1216,1236],"xSR":741.5,"ySR":573.95,"xT1":424.9,"yT1":0,"xT2":1058.1,"yT2":0,"toosoon":0,"cond_shown":"randomdotsizeEA","ratio_trial":500,"smaller_num":"9","larger_num":"18","correct_side":1,"subjID":"SantiagoRochaColmenares19","gender":"0","age":"11","school":"6"},{"start_time":1551892976183,"click_time":1551892977185,"finger_time":1551892976786,"fix_duration":1035.0015687272087,"trial":42,"RT":603,"MT":399,"sideResp":2,"stimulus":"img/900/equaldotsize/R/11_Ratio_900_L_18_R_20.png","xmouse":[791,791,791,791,791,791,791,791,791,791,791,791,791,791,791,791,791,791,791,791,791,791,791,791,791,791,791,791,791,791,794,820,880,1025,1071,1112,1133,1148,1209,1233,1250,1258,1259,1260,1260,1255,1248,1234,1185,1165,1150],"ymouse":[638,638,638,638,638,638,638,638,638,638,638,638,638,638,638,638,638,638,638,638,638,638,638,638,638,638,638,638,622,593,570,533,483,375,324,257,216,185,124,110,100,94,92,85,79,71,65,58,42,36,32],"timestamp_mouse":[10,24,42,63,83,103,123,143,163,182,204,223,242,263,282,302,322,342,364,382,403,423,443,462,482,502,523,543,562,584,603,624,643,662,682,703,722,742,762,782,804,822,842,862,882,902,924,942,962,984,1002],"xSR":741.5,"ySR":573.95,"xT1":424.9,"yT1":0,"xT2":1058.1,"yT2":0,"toosoon":0,"cond_shown":"equaldotsize","ratio_trial":900,"smaller_num":"18","larger_num":"20","correct_side":2,"subjID":"SantiagoRochaColmenares19","gender":"0","age":"11","school":"6"},{"start_time":1551892979807,"click_time":1551892980645,"finger_time":1551892980385,"fix_duration":279.2965667368824,"trial":43,"RT":578,"MT":260,"sideResp":1,"stimulus":"img/900/equaldotanddens/L/10_Ratio_900_L_20_R_18.png","xmouse":[798,798,798,798,798,798,798,798,798,798,798,798,798,798,798,798,798,798,798,798,798,798,798,798,798,798,799,799,791,757,706,615,503,460,442,438,437,437,436,436,436,436,436],"ymouse":[629,629,629,629,629,629,629,629,629,629,629,629,629,629,629,629,629,629,629,629,629,629,629,629,629,629,628,627,606,541,462,359,239,188,152,133,118,103,100,100,100,100,93],"timestamp_mouse":[1,18,38,59,79,98,118,138,159,178,200,219,238,259,279,299,319,338,358,379,398,420,438,458,478,498,519,540,558,578,600,619,639,659,678,698,718,738,759,778,798,818,838],"xSR":741.5,"ySR":573.95,"xT1":424.9,"yT1":0,"xT2":1058.1,"yT2":0,"toosoon":0,"cond_shown":"equaldotanddens","ratio_trial":900,"smaller_num":"18","larger_num":"20","correct_side":1,"subjID":"SantiagoRochaColmenares19","gender":"0","age":"11","school":"6"},{"start_time":1551892983926,"click_time":1551892984786,"finger_time":1551892984467,"fix_duration":1240.2901660037817,"trial":44,"RT":541,"MT":319,"sideResp":1,"stimulus":"img/900/equaldotsize/L/2_Ratio_900_L_20_R_18.png","xmouse":[751,751,751,751,751,751,751,751,751,751,751,751,751,751,751,751,751,751,751,751,751,751,751,750,750,748,735,724,694,650,604,545,543,543,545,545,541,539,539,539,539,533,519],"ymouse":[620,620,620,620,620,620,620,620,620,620,620,620,620,620,620,620,620,620,620,620,620,620,620,620,616,589,543,516,450,366,281,133,105,78,58,45,27,21,21,21,21,22,28],"timestamp_mouse":[19,39,59,81,100,119,140,160,179,200,221,239,259,279,299,321,340,360,379,399,420,439,459,479,500,520,541,559,581,599,619,639,659,680,701,721,739,760,779,800,820,840,860],"xSR":741.5,"ySR":573.95,"xT1":424.9,"yT1":0,"xT2":1058.1,"yT2":0,"toosoon":0,"cond_shown":"equaldotsize","ratio_trial":900,"smaller_num":"18","larger_num":"20","correct_side":1,"subjID":"SantiagoRochaColmenares19","gender":"0","age":"11","school":"6"},{"start_time":1551892987347,"click_time":1551892988365,"finger_time":1551892987766,"fix_duration":498.2176520552496,"trial":45,"RT":419,"MT":599,"sideResp":2,"stimulus":"img/500/equaldotanddens/R/6_Ratio_500_L_9_R_18.png","xmouse":[791,791,791,791,791,791,791,791,791,791,798,798,798,798,798,798,798,801,816,833,842,842,842,842,842,842,842,842,843,848,891,1047,1088,1111,1130,1134,1134,1134,1134,1134,1133,1115,1085,1065,1056,1055,1055,1055,1054,1054,1060],"ymouse":[619,619,619,619,619,619,619,619,619,618,611,611,611,611,611,611,611,606,593,584,581,581,581,581,581,581,581,581,581,579,568,456,397,359,318,300,296,296,296,296,268,233,193,165,143,109,91,75,55,53,48],"timestamp_mouse":[36,38,59,79,98,118,139,160,180,200,219,239,258,280,299,319,338,359,379,398,419,438,458,479,500,520,539,558,578,599,618,639,659,680,698,719,738,759,778,798,819,840,859,879,898,918,938,959,980,999,1018],"xSR":741.5,"ySR":573.95,"xT1":424.9,"yT1":0,"xT2":1058.1,"yT2":0,"toosoon":0,"cond_shown":"equaldotanddens","ratio_trial":500,"smaller_num":"9","larger_num":"18","correct_side":2,"subjID":"SantiagoRochaColmenares19","gender":"0","age":"11","school":"6"},{"start_time":1551892990749,"click_time":1551892991527,"finger_time":1551892991305,"fix_duration":1482.5136312518391,"trial":46,"RT":556,"MT":222,"sideResp":1,"stimulus":"img/250/equaldotsize/L/7_Ratio_250_L_8_R_2.png","xmouse":[753,753,753,753,753,753,753,754,757,768,773,775,775,776,776,776,776,776,776,776,776,776,776,776,776,776,777,760,717,674,620,602,588,575,564,558,539,526,508],"ymouse":[594,594,594,594,594,594,594,594,594,590,590,590,590,590,590,590,590,590,590,590,590,590,590,590,590,590,589,563,489,409,307,275,252,230,206,182,140,120,94],"timestamp_mouse":[30,37,57,76,97,116,138,156,176,197,217,236,257,276,297,317,337,358,376,396,417,436,457,477,496,516,536,556,577,597,617,638,656,676,697,716,737,757,778],"xSR":741.5,"ySR":573.95,"xT1":424.9,"yT1":0,"xT2":1058.1,"yT2":0,"toosoon":0,"cond_shown":"equaldotsize","ratio_trial":250,"smaller_num":"2","larger_num":"8","correct_side":1,"subjID":"SantiagoRochaColmenares19","gender":"0","age":"11","school":"6"},{"start_time":1551892992498,"click_time":1551892993485,"finger_time":1551892993145,"fix_duration":250,"trial":47,"RT":647,"MT":340,"sideResp":2,"stimulus":"img/750/randomdotsizeEA/R/12_Ratio_750_L_3_R_4.png","xmouse":[818,817,816,816,816,816,816,816,816,816,816,816,816,816,816,816,814,812,812,812,812,808,793,777,774,774,774,774,773,775,794,809,823,853,866,876,885,891,892,893,893,893,893,893,910,941,982,1020,1046,1075],"ymouse":[638,639,639,639,639,639,639,639,639,639,639,639,639,639,639,639,640,641,642,642,642,639,621,611,608,608,608,608,608,604,589,576,560,524,507,488,465,436,408,359,331,310,286,265,207,166,130,105,91,72],"timestamp_mouse":[8,27,50,68,88,109,128,147,168,188,208,227,247,268,288,308,327,348,368,388,409,429,449,468,487,507,529,547,568,588,607,629,647,669,687,708,729,748,768,787,807,827,848,867,888,908,928,947,968,987],"xSR":741.5,"ySR":573.95,"xT1":424.9,"yT1":0,"xT2":1058.1,"yT2":0,"toosoon":0,"cond_shown":"randomdotsizeEA","ratio_trial":750,"smaller_num":"3","larger_num":"4","correct_side":2,"subjID":"SantiagoRochaColmenares19","gender":"0","age":"11","school":"6"},{"start_time":1551892995637,"click_time":1551892996745,"finger_time":1551892996206,"fix_duration":1149.1747835334827,"trial":48,"RT":569,"MT":539,"sideResp":2,"stimulus":"img/500/randomdotsizeEA/R/3_Ratio_500_L_10_R_20.png","xmouse":[802,802,802,802,802,802,802,802,802,802,802,802,802,802,802,802,802,802,802,802,802,802,802,802,801,797,786,753,723,693,670,651,635,635,635,635,635,637,642,652,667,695,842,928,994,1041,1060,1075,1077,1078,1075,1066,1062,1064,1072,1075],"ymouse":[630,630,630,630,630,630,630,630,630,630,630,630,630,630,630,630,630,630,630,630,630,630,630,630,630,627,611,574,544,515,492,469,429,425,425,424,424,428,435,443,446,448,413,377,345,320,305,266,239,215,191,173,134,118,102,87],"timestamp_mouse":[9,30,48,69,89,109,130,148,168,189,208,228,249,268,289,309,328,348,368,388,409,428,448,468,488,510,528,548,569,590,608,628,648,668,689,709,728,749,769,788,808,830,849,869,888,908,929,949,968,988,1009,1030,1048,1068,1088,1108],"xSR":741.5,"ySR":573.95,"xT1":424.9,"yT1":0,"xT2":1058.1,"yT2":0,"toosoon":0,"cond_shown":"randomdotsizeEA","ratio_trial":500,"smaller_num":"10","larger_num":"20","correct_side":2,"subjID":"SantiagoRochaColmenares19","gender":"0","age":"11","school":"6"},{"start_time":1551893001626,"click_time":1551893002545,"finger_time":1551893002287,"fix_duration":858.802510385642,"trial":49,"RT":661,"MT":258,"sideResp":1,"stimulus":"img/900/equaldotsize/R/5_Ratio_900_L_9_R_10.png","xmouse":[778,778,778,778,778,778,778,778,778,778,778,778,778,778,778,778,778,778,778,778,778,778,778,778,778,778,778,778,778,778,778,776,768,712,686,651,603,542,446,424,414,409,407,407,413,420,425],"ymouse":[642,642,642,642,642,642,642,642,642,642,642,642,642,642,642,642,642,642,642,642,642,642,642,642,642,642,642,642,642,642,642,638,618,535,512,473,415,342,216,176,152,126,111,96,78,72,69],"timestamp_mouse":[1,19,39,59,79,100,120,146,159,179,200,220,240,259,279,300,319,339,359,379,400,421,440,461,480,501,519,540,560,580,599,619,639,661,679,700,721,739,760,779,800,819,839,860,880,901,919],"xSR":741.5,"ySR":573.95,"xT1":424.9,"yT1":0,"xT2":1058.1,"yT2":0,"toosoon":0,"cond_shown":"equaldotsize","ratio_trial":900,"smaller_num":"9","larger_num":"10","correct_side":2,"subjID":"SantiagoRochaColmenares19","gender":"0","age":"11","school":"6"},{"start_time":1551893003829,"click_time":1551893004646,"finger_time":1551893004346,"fix_duration":562.746959801404,"trial":50,"RT":517,"MT":300,"sideResp":1,"stimulus":"img/750/equaldotanddens/L/1_Ratio_750_L_20_R_15.png","xmouse":[773,773,773,773,773,773,773,773,773,773,773,773,773,773,773,773,773,773,773,773,773,773,773,767,752,718,672,628,585,574,570,565,557,538,535,532,531,528,507,489,480],"ymouse":[663,663,663,663,663,663,663,663,663,663,663,663,663,663,663,663,663,663,663,663,663,663,662,635,593,535,469,418,340,288,259,229,203,157,147,141,137,133,115,102,95],"timestamp_mouse":[17,37,57,76,96,116,137,157,176,197,216,236,256,277,296,318,337,357,378,397,416,437,456,478,498,517,537,557,576,596,616,637,658,676,697,717,737,758,776,797,816],"xSR":741.5,"ySR":573.95,"xT1":424.9,"yT1":0,"xT2":1058.1,"yT2":0,"toosoon":0,"cond_shown":"equaldotanddens","ratio_trial":750,"smaller_num":"15","larger_num":"20","correct_side":1,"subjID":"SantiagoRochaColmenares19","gender":"0","age":"11","school":"6"},{"start_time":1551893006056,"click_time":1551893006945,"finger_time":1551893006645,"fix_duration":649.9526401524753,"trial":51,"RT":589,"MT":300,"sideResp":2,"stimulus":"img/900/randomdotsizeEA/R/7_Ratio_900_L_9_R_10.png","xmouse":[820,820,820,820,820,820,820,820,820,820,820,820,820,820,820,820,820,820,820,820,820,820,820,820,820,820,820,824,835,855,878,895,921,928,933,937,937,960,979,1000,1020,1036,1065,1080,1091],"ymouse":[623,623,623,623,623,623,623,623,623,623,623,623,623,623,623,623,623,623,623,623,623,623,623,623,623,623,623,619,605,579,541,501,398,356,326,299,275,212,190,175,164,154,127,110,95],"timestamp_mouse":[10,42,50,69,90,109,129,149,170,190,210,229,249,270,290,310,330,350,370,390,410,429,451,469,491,509,529,549,570,589,609,631,650,670,689,711,730,749,770,789,810,829,850,869,889],"xSR":741.5,"ySR":573.95,"xT1":424.9,"yT1":0,"xT2":1058.1,"yT2":0,"toosoon":0,"cond_shown":"randomdotsizeEA","ratio_trial":900,"smaller_num":"9","larger_num":"10","correct_side":2,"subjID":"SantiagoRochaColmenares19","gender":"0","age":"11","school":"6"},{"start_time":1551893011366,"click_time":1551893012486,"finger_time":1551893011965,"fix_duration":698.9325274609447,"trial":52,"RT":599,"MT":521,"sideResp":2,"stimulus":"img/750/equaldotsize/R/2_Ratio_750_L_6_R_8.png","xmouse":[807,807,807,807,807,807,807,807,807,807,807,807,807,807,807,807,807,807,807,807,807,807,807,807,807,807,807,807,797,773,740,724,717,715,719,738,765,791,823,848,880,928,948,978,987,992,992,992,992,997,1002,1011,1025,1031,1040,1051,1062],"ymouse":[631,631,631,631,631,631,631,631,631,631,631,631,631,631,631,631,631,631,631,631,631,631,631,631,631,631,631,631,620,585,540,523,514,512,506,493,475,457,422,387,347,292,268,226,211,193,177,152,144,135,127,116,104,99,94,88,83],"timestamp_mouse":[1,19,40,59,79,100,119,140,161,179,200,219,239,260,281,299,319,340,359,380,399,421,440,459,480,500,520,539,560,580,599,619,639,660,680,699,719,739,759,780,799,819,841,861,880,899,920,941,960,979,999,1019,1041,1059,1081,1100,1120],"xSR":741.5,"ySR":573.95,"xT1":424.9,"yT1":0,"xT2":1058.1,"yT2":0,"toosoon":0,"cond_shown":"equaldotsize","ratio_trial":750,"smaller_num":"6","larger_num":"8","correct_side":2,"subjID":"SantiagoRochaColmenares19","gender":"0","age":"11","school":"6"},{"start_time":1551893014134,"click_time":1551893015004,"finger_time":1551893014646,"fix_duration":727.0697815063355,"trial":53,"RT":512,"MT":358,"sideResp":2,"stimulus":"img/500/equaldotanddens/R/15_Ratio_500_L_1_R_2.png","xmouse":[815,815,815,815,815,815,815,815,815,815,815,815,815,815,815,815,815,815,815,815,815,815,815,815,816,819,826,841,870,952,1007,1029,1039,1042,1045,1045,1045,1045,1045,1045,1045,1048,1055,1066],"ymouse":[607,607,607,607,607,607,607,607,607,607,607,607,607,607,607,607,607,607,607,607,607,607,607,601,576,554,529,499,453,335,239,179,136,115,103,103,103,103,103,103,102,96,88,80],"timestamp_mouse":[10,37,51,70,90,112,130,152,170,191,211,231,251,272,291,311,330,350,371,391,411,430,451,472,490,512,531,550,570,591,612,631,650,670,691,711,730,751,770,791,810,831,852,870],"xSR":741.5,"ySR":573.95,"xT1":424.9,"yT1":0,"xT2":1058.1,"yT2":0,"toosoon":0,"cond_shown":"equaldotanddens","ratio_trial":500,"smaller_num":"1","larger_num":"2","correct_side":2,"subjID":"SantiagoRochaColmenares19","gender":"0","age":"11","school":"6"},{"start_time":1551893017380,"click_time":1551893018524,"finger_time":1551893017984,"fix_duration":1352.895485512167,"trial":54,"RT":604,"MT":540,"sideResp":1,"stimulus":"img/250/randomdotsizeEA/L/5_Ratio_250_L_24_R_6.png","xmouse":[829,827,827,827,827,827,827,827,827,827,827,827,827,827,827,827,827,827,827,827,827,827,827,827,827,827,827,827,821,795,740,674,564,532,512,500,485,479,480,480,480,480,480,480,480,478,472,470,470,470,470,469,469,469,469,468,467,467],"ymouse":[631,632,632,632,632,632,632,632,632,632,632,632,632,632,632,632,632,632,632,632,632,632,632,632,632,632,632,632,629,601,552,498,420,393,365,338,279,180,173,169,169,169,169,158,143,136,125,123,120,118,117,115,114,112,109,105,100,90],"timestamp_mouse":[9,35,45,65,86,105,124,146,164,184,205,224,244,264,284,304,325,345,364,384,405,426,446,465,485,506,525,546,565,584,604,624,645,664,684,704,725,745,765,784,805,824,844,866,885,904,926,944,964,986,1005,1025,1044,1064,1085,1104,1126,1144],"xSR":741.5,"ySR":573.95,"xT1":424.9,"yT1":0,"xT2":1058.1,"yT2":0,"toosoon":0,"cond_shown":"randomdotsizeEA","ratio_trial":250,"smaller_num":"6","larger_num":"24","correct_side":1,"subjID":"SantiagoRochaColmenares19","gender":"0","age":"11","school":"6"},{"start_time":1551893020740,"click_time":1551893022484,"finger_time":1551893021106,"fix_duration":1314.2015003054478,"trial":55,"RT":366,"MT":1378,"sideResp":1,"stimulus":"img/900/randomdotsizeEA/R/5_Ratio_900_L_9_R_10.png","xmouse":[801,801,801,801,801,801,801,801,801,801,801,801,801,801,801,800,800,800,800,801,773,758,745,730,710,699,693,689,689,689,689,689,683,674,657,653,645,640,639,639,632,622,607,596,589,588,585,579,561,542,513,513,513,513,513,513,513,513,513,513,513,512,512,512,512,512,512,512,512,512,513,515,515,515,515,516,516,516,516,516,516,516,516,516,516,516,515,514],"ymouse":[592,592,592,592,592,592,592,592,592,592,592,592,592,592,592,591,591,581,562,539,475,457,442,430,409,389,373,364,361,360,354,339,320,308,294,291,288,283,277,266,233,213,193,180,168,164,160,154,148,146,143,143,143,143,143,143,143,143,143,143,143,142,142,139,136,132,130,128,126,125,123,123,123,123,123,122,121,118,116,113,112,111,109,108,106,103,100,98],"timestamp_mouse":[9,25,45,66,84,105,125,144,164,185,204,224,244,264,284,304,325,346,366,384,405,425,445,464,485,504,525,545,565,584,605,625,646,666,685,704,725,744,766,784,804,824,844,864,885,904,925,946,965,985,1006,1024,1044,1064,1084,1104,1125,1145,1164,1184,1205,1225,1245,1266,1284,1304,1325,1345,1366,1384,1404,1424,1445,1464,1485,1505,1524,1545,1564,1585,1604,1624,1645,1665,1685,1704,1725,1744],"xSR":741.5,"ySR":573.95,"xT1":424.9,"yT1":0,"xT2":1058.1,"yT2":0,"toosoon":0,"cond_shown":"randomdotsizeEA","ratio_trial":900,"smaller_num":"9","larger_num":"10","correct_side":2,"subjID":"SantiagoRochaColmenares19","gender":"0","age":"11","school":"6"},{"start_time":1551893028863,"click_time":1551893029886,"finger_time":1551893029605,"fix_duration":555.6967219386114,"trial":56,"RT":742,"MT":281,"sideResp":2,"stimulus":"img/250/equaldotsize/R/10_Ratio_250_L_4_R_16.png","xmouse":[791,791,791,791,790,788,788,788,788,788,788,788,788,788,788,788,788,788,788,788,788,788,788,788,788,788,788,788,788,788,788,788,788,788,788,788,801,836,867,892,921,969,982,988,996,1016,1026,1038,1045,1051,1055,1060],"ymouse":[582,582,582,582,583,584,584,584,584,584,584,584,584,584,584,584,584,584,584,584,584,584,584,584,584,584,584,584,584,584,584,584,584,584,584,584,577,552,525,487,427,309,260,229,200,165,153,133,116,95,59,43],"timestamp_mouse":[9,31,42,61,81,101,121,142,161,182,201,222,241,263,281,301,322,341,363,382,403,421,442,463,481,501,523,542,561,583,601,622,642,661,682,702,723,742,763,781,801,821,842,862,882,901,921,941,962,982,1001,1023],"xSR":741.5,"ySR":573.95,"xT1":424.9,"yT1":0,"xT2":1058.1,"yT2":0,"toosoon":0,"cond_shown":"equaldotsize","ratio_trial":250,"smaller_num":"4","larger_num":"16","correct_side":2,"subjID":"SantiagoRochaColmenares19","gender":"0","age":"11","school":"6"},{"start_time":1551893031083,"click_time":1551893032125,"finger_time":1551893031705,"fix_duration":317.1915822725889,"trial":57,"RT":622,"MT":420,"sideResp":1,"stimulus":"img/750/equaldotsize/R/2_Ratio_750_L_6_R_8.png","xmouse":[790,790,790,790,790,790,790,790,790,790,790,790,790,790,790,790,790,790,790,790,790,790,790,790,790,790,790,790,790,788,776,747,694,664,633,625,619,608,598,579,569,561,552,542,538,532,528,525,522,519,516,515,515],"ymouse":[615,615,615,615,615,615,615,615,615,615,615,615,615,615,615,615,615,615,615,615,615,615,615,615,615,615,615,615,615,614,577,524,450,404,354,332,308,281,259,226,208,191,172,144,130,115,109,107,106,104,101,100,99],"timestamp_mouse":[13,38,42,61,81,101,122,141,161,182,201,222,241,263,281,301,322,341,361,381,401,422,442,462,481,501,521,543,562,581,601,622,643,662,682,702,722,742,762,782,801,821,842,863,882,902,921,943,961,981,1001,1022,1042],"xSR":741.5,"ySR":573.95,"xT1":424.9,"yT1":0,"xT2":1058.1,"yT2":0,"toosoon":0,"cond_shown":"equaldotsize","ratio_trial":750,"smaller_num":"6","larger_num":"8","correct_side":2,"subjID":"SantiagoRochaColmenares19","gender":"0","age":"11","school":"6"},{"start_time":1551893034808,"click_time":1551893035684,"finger_time":1551893035184,"fix_duration":981.7360300586421,"trial":58,"RT":376,"MT":500,"sideResp":2,"stimulus":"img/250/equaldotanddens/R/12_Ratio_250_L_5_R_20.png","xmouse":[795,795,795,795,795,795,795,795,795,795,795,795,795,795,795,795,795,796,805,808,811,812,813,813,814,830,859,896,940,943,943,943,943,943,945,948,953,971,985,1002,1014,1026,1053,1069],"ymouse":[620,620,620,620,620,620,620,620,620,620,620,620,620,620,620,620,620,607,555,536,528,526,525,524,524,513,482,418,284,245,219,203,192,181,176,171,164,145,137,128,121,113,96,88],"timestamp_mouse":[17,38,56,77,96,116,137,156,176,198,216,236,257,277,296,317,338,357,376,396,418,436,457,476,497,516,537,556,576,596,617,637,656,676,697,718,737,758,776,796,818,837,858,876],"xSR":741.5,"ySR":573.95,"xT1":424.9,"yT1":0,"xT2":1058.1,"yT2":0,"toosoon":0,"cond_shown":"equaldotanddens","ratio_trial":250,"smaller_num":"5","larger_num":"20","correct_side":2,"subjID":"SantiagoRochaColmenares19","gender":"0","age":"11","school":"6"},{"start_time":1551893037059,"click_time":1551893038285,"finger_time":1551893037885,"fix_duration":672.6216474071131,"trial":59,"RT":826,"MT":400,"sideResp":1,"stimulus":"img/750/randomdotsizeEA/R/7_Ratio_750_L_3_R_4.png","xmouse":[804,804,804,804,804,804,804,804,804,804,804,804,804,804,804,804,804,804,804,804,804,804,804,804,804,804,804,804,804,804,804,804,804,804,804,804,804,804,804,804,799,743,653,583,538,503,429,400,381,370,362,359,359,363,370,377,386,389,390,391,402,454],"ymouse":[597,597,597,597,597,597,597,597,597,597,597,597,597,597,597,597,597,597,597,597,597,597,597,597,597,597,597,597,597,597,597,597,597,597,597,597,597,597,597,596,593,565,515,473,440,409,325,284,252,221,189,150,128,118,103,90,75,72,71,70,67,64],"timestamp_mouse":[14,39,45,65,87,105,126,145,165,186,207,226,245,266,286,306,325,346,365,385,406,425,446,465,486,505,526,546,566,586,605,626,647,665,685,705,726,745,767,787,806,826,845,865,887,907,925,946,965,986,1005,1025,1045,1066,1085,1105,1125,1145,1165,1185,1206,1225],"xSR":741.5,"ySR":573.95,"xT1":424.9,"yT1":0,"xT2":1058.1,"yT2":0,"toosoon":0,"cond_shown":"randomdotsizeEA","ratio_trial":750,"smaller_num":"3","larger_num":"4","correct_side":2,"subjID":"SantiagoRochaColmenares19","gender":"0","age":"11","school":"6"},{"start_time":1551893044611,"click_time":1551893045485,"finger_time":1551893044926,"fix_duration":784.1966993777185,"trial":60,"RT":315,"MT":559,"sideResp":2,"stimulus":"img/250/equaldotsize/R/4_Ratio_250_L_3_R_12.png","xmouse":[819,819,819,819,819,819,819,819,819,819,819,819,819,819,824,826,828,829,834,844,857,873,902,929,958,978,1010,1045,1068,1069,1069,1069,1069,1069,1069,1069,1069,1069,1069,1070,1075,1081,1089,1095],"ymouse":[607,607,607,607,607,607,607,607,607,607,607,607,607,602,576,567,557,551,540,524,513,495,456,408,330,291,247,202,170,169,169,169,169,169,169,169,169,169,166,147,131,117,107,97],"timestamp_mouse":[13,46,54,73,95,113,134,155,174,193,213,235,253,274,293,315,333,355,374,393,414,434,453,474,494,515,534,554,580,594,614,633,653,674,694,714,735,753,774,794,813,833,853,873],"xSR":741.5,"ySR":573.95,"xT1":424.9,"yT1":0,"xT2":1058.1,"yT2":0,"toosoon":0,"cond_shown":"equaldotsize","ratio_trial":250,"smaller_num":"3","larger_num":"12","correct_side":2,"subjID":"SantiagoRochaColmenares19","gender":"0","age":"11","school":"6"},{"start_time":1551893049174,"click_time":1551893052486,"finger_time":1551893051225,"fix_duration":368.77843871527006,"trial":61,"RT":2051,"MT":1261,"sideResp":1,"stimulus":"img/900/randomdotsizeEA/R/9_Ratio_900_L_18_R_20.png","xmouse":[811,811,811,811,811,811,811,811,811,811,811,811,811,811,811,811,811,811,811,811,811,811,811,811,811,811,811,811,811,811,811,811,811,811,811,811,811,811,811,811,811,811,811,811,811,811,811,811,811,811,811,811,811,811,811,811,811,811,811,811,811,811,811,811,811,811,811,811,811,811,811,811,811,811,811,811,811,811,811,811,811,811,811,811,811,811,811,811,811,811,811,811,811,811,811,811,811,811,811,811,811,817,829,851,901,976,1075,1406,1406,1406,1406,1406,1406,1406,1406,1406,1578,1321,1101,686,406,165,0,0,1,24,52,83,84,84,74,53,0,0,0,0,0,0,0,0,0,0,10,28,54,98,159,278,311,312,310,305,303,303,303,303,301,299,299,299,302,315,364,399,422,433],"ymouse":[637,637,637,637,637,637,637,637,637,637,637,637,637,637,637,637,637,637,637,637,637,637,637,637,637,637,637,637,637,637,637,637,637,637,637,637,637,637,637,637,637,637,637,637,637,637,637,637,637,637,637,637,637,637,637,637,637,637,637,637,637,637,637,637,637,637,637,637,637,637,637,637,637,637,637,637,637,637,637,637,637,637,637,637,637,637,637,637,637,637,637,637,637,637,637,637,637,637,637,637,637,602,549,512,441,362,273,87,87,87,87,87,87,87,87,87,550,730,787,820,818,770,605,510,419,333,263,198,197,197,209,242,318,347,370,388,396,399,399,400,400,398,371,348,319,285,243,175,150,143,138,138,138,138,138,138,138,138,138,138,135,125,108,99,97,97],"timestamp_mouse":[10,38,51,71,92,112,132,151,172,191,211,230,251,270,291,311,331,350,370,391,410,431,450,472,490,510,530,550,571,591,611,630,650,670,690,711,730,750,770,790,810,830,850,870,890,910,931,950,970,990,1010,1031,1050,1070,1090,1110,1130,1150,1170,1190,1210,1230,1251,1271,1290,1312,1331,1350,1372,1392,1411,1431,1450,1471,1492,1512,1530,1551,1570,1592,1610,1631,1650,1671,1691,1712,1730,1751,1770,1791,1811,1830,1850,1870,1890,1912,1931,1950,1971,1991,2010,2031,2051,2072,2091,2110,2130,2150,2170,2192,2211,2231,2250,2272,2291,2311,2332,2351,2372,2390,2411,2430,2450,2470,2491,2510,2531,2551,2572,2592,2610,2632,2651,2670,2691,2711,2731,2751,2770,2791,2810,2831,2851,2871,2891,2911,2931,2950,2971,2992,3011,3031,3050,3070,3092,3111,3130,3151,3171,3191,3211,3230,3250,3271,3291,3312],"xSR":741.5,"ySR":573.95,"xT1":424.9,"yT1":0,"xT2":1058.1,"yT2":0,"toosoon":0,"cond_shown":"randomdotsizeEA","ratio_trial":900,"smaller_num":"18","larger_num":"20","correct_side":2,"subjID":"SantiagoRochaColmenares19","gender":"0","age":"11","school":"6"},{"start_time":1551893055663,"click_time":1551893056464,"finger_time":1551893056186,"fix_duration":677.1648889415657,"trial":62,"RT":523,"MT":278,"sideResp":2,"stimulus":"img/750/equaldotsize/R/3_Ratio_750_L_15_R_20.png","xmouse":[788,788,788,788,788,788,788,788,788,788,788,788,788,788,788,788,788,788,788,788,788,788,788,788,788,804,850,915,1037,1081,1108,1123,1130,1130,1126,1124,1122,1119,1106,1101,1098],"ymouse":[638,638,638,638,638,638,638,638,638,638,638,638,638,638,638,638,638,638,638,638,638,638,638,638,638,602,532,461,362,330,309,285,263,198,178,160,146,137,115,103,93],"timestamp_mouse":[12,21,41,62,82,102,121,141,162,181,202,221,241,262,281,301,322,341,361,381,402,422,441,462,483,502,523,543,561,582,601,622,643,661,681,701,722,742,762,781,801],"xSR":741.5,"ySR":573.95,"xT1":424.9,"yT1":0,"xT2":1058.1,"yT2":0,"toosoon":0,"cond_shown":"equaldotsize","ratio_trial":750,"smaller_num":"15","larger_num":"20","correct_side":2,"subjID":"SantiagoRochaColmenares19","gender":"0","age":"11","school":"6"},{"start_time":1551893060386,"cli