[{"start_time":1551891506620,"click_time":1551891518050,"finger_time":1551891506629,"fix_duration":726.7613273166862,"trial":0,"RT":9,"MT":11421,"sideResp":1,"stimulus":[],"xmouse":[787,787,787,787,787,787,787,787,787,787,787,787,787,787,787,787,787,787,787,787,787,787,787,787,787,787,787,787,787,787,787,787,787,787,787,787,787,787,787,787,787,787,787,787,787,787,787,787,787,787,787,787,785,784,784,784,784,785,785,786,786,786,786,786,786,786,786,786,786,786,786,786,786,787,787,788,788,789,790,790,790,790,791,791,791,791,791,791,791,791,791,791,791,791,791,791,791,791,791,791,791,791,791,791,791,791,791,791,791,791,791,791,791,791,791,791,791,791,791,791,791,791,791,791,791,791,791,791,791,791,791,791,791,791,791,791,791,791,791,791,791,791,791,791,791,791,791,791,791,791,791,791,791,791,791,791,791,791,791,791,791,791,791,791,791,791,791,791,791,791,791,791,791,791,791,791,791,791,791,791,791,791,791,791,791,791,791,791,791,791,791,791,791,791,791,791,791,791,791,791,791,791,791,791,791,791,791,791,791,791,791,791,791,791,791,791,791,791,791,791,791,791,791,791,791,791,791,791,791,791,791,791,791,791,791,791,791,791,791,791,791,791,791,791,791,791,791,791,791,791,791,791,791,791,791,791,791,791,791,791,791,791,791,791,791,791,791,791,791,791,791,791,791,791,791,791,791,791,791,791,791,791,791,791,791,791,791,791,791,791,791,791,791,791,791,791,791,791,791,791,791,791,791,791,791,791,791,791,791,791,791,791,791,791,791,791,791,791,791,791,791,791,791,791,791,791,791,791,791,791,791,791,791,791,791,791,791,791,791,791,791,791,791,791,791,791,791,791,791,791,791,791,791,791,791,791,791,791,791,791,791,791,791,791,791,791,791,791,791,791,791,791,791,791,791,791,791,791,791,791,791,791,791,791,791,791,791,791,791,791,791,791,791,791,791,791,791,791,791,791,791,791,791,791,791,791,791,791,791,791,791,791,791,791,791,791,791,791,791,791,791,791,791,791,791,791,791,791,791,791,791,791,791,791,791,791,791,791,791,791,791,791,791,791,791,791,791,791,791,791,791,791,791,791,791,791,791,791,791,791,791,791,791,791,791,791,791,791,791,791,791,791,791,791,791,791,791,791,791,791,791,791,791,791,791,791,791,791,791,791,791,791,791,791,791,791,791,791,791,791,791,791,791,791,791,791,791,791,791,791,791,791,791,791,791,791,791,791,791,791,791,791,791,791,791,791,791,791,791,791,791,791,791,791,791,791,791,791,791,791,791,791,791,791,791,791,792,793,793,771,696,665,644,629,622,612,606,598,575,560,552,552,552,548,541,526,525,525,525,525,525,524],"ymouse":[527,527,527,527,527,527,527,527,527,527,527,527,527,527,527,527,527,527,527,527,527,527,527,527,527,527,527,527,527,527,527,527,527,527,527,527,527,527,527,527,527,527,527,527,527,527,527,527,527,527,527,527,527,533,545,550,553,558,564,581,586,587,587,587,587,587,587,590,591,594,595,596,597,598,603,605,606,607,608,612,615,617,619,620,620,620,620,620,620,620,620,620,620,620,620,620,620,620,620,620,620,620,620,620,620,620,620,620,620,620,620,620,620,620,620,620,620,620,620,620,620,620,620,620,620,620,620,620,620,620,620,620,620,620,620,620,620,620,620,620,620,620,620,620,620,620,620,620,620,620,620,620,620,620,620,620,620,620,620,620,620,620,620,620,620,620,620,620,620,620,620,620,620,620,620,620,620,620,620,620,620,620,620,620,620,620,620,620,620,620,620,620,620,620,620,620,620,620,620,620,620,620,620,620,620,620,620,620,620,620,620,620,620,620,620,620,620,620,620,620,620,620,620,620,620,620,620,620,620,620,620,620,620,620,620,620,620,620,620,620,620,620,620,620,620,620,620,620,620,620,620,620,620,620,620,620,620,620,620,620,620,620,620,620,620,620,620,620,620,620,620,620,620,620,620,620,620,620,620,620,620,620,620,620,620,620,620,620,620,620,620,620,620,620,620,620,620,620,620,620,620,620,620,620,620,620,620,620,620,620,620,620,620,620,620,620,620,620,620,620,620,620,620,620,620,620,620,620,620,620,620,620,620,620,620,620,620,620,620,620,620,620,620,620,620,620,620,620,620,620,620,620,620,620,620,620,620,620,620,620,620,620,620,620,620,620,620,620,620,620,620,620,620,620,620,620,620,620,620,620,620,620,620,620,620,620,620,620,620,620,620,620,620,620,620,620,620,620,620,620,620,620,620,620,620,620,620,620,620,620,620,620,620,620,620,620,620,620,620,620,620,620,620,620,620,620,620,620,620,620,620,620,620,620,620,620,620,620,620,620,620,620,620,620,620,620,620,620,620,620,620,620,620,620,620,620,620,620,620,620,620,620,620,620,620,620,620,620,620,620,620,620,620,620,620,620,620,620,620,620,620,620,620,620,620,620,620,620,620,620,620,620,620,620,620,620,620,620,620,620,620,620,620,620,620,620,620,620,620,620,620,620,620,620,620,620,620,620,620,620,620,620,620,620,620,620,620,620,620,620,620,620,620,620,620,620,620,620,620,620,620,620,620,620,620,620,605,587,577,528,412,368,340,317,304,281,265,242,185,150,127,125,122,109,88,67,66,66,66,66,66,65],"timestamp_mouse":[9,30,51,71,90,110,130,150,169,190,211,231,250,271,289,310,331,349,370,390,409,429,450,470,490,509,530,550,571,591,609,631,650,669,689,709,730,751,770,791,809,830,850,869,890,911,930,950,970,989,1010,1030,1049,1069,1091,1110,1130,1150,1169,1189,1210,1230,1251,1269,1290,1310,1329,1351,1369,1390,1410,1431,1450,1471,1490,1510,1530,1550,1571,1590,1611,1631,1650,1669,1691,1711,1731,1749,1771,1791,1810,1830,1849,1870,1890,1910,1930,1949,1970,1990,2010,2030,2050,2070,2089,2110,2129,2150,2170,2191,2211,2230,2251,2270,2289,2310,2330,2351,2369,2389,2410,2430,2451,2470,2490,2510,2530,2551,2570,2590,2611,2629,2650,2670,2691,2710,2731,2751,2769,2789,2810,2829,2850,2870,2890,2911,2930,2949,2970,2990,3011,3030,3049,3071,3089,3110,3131,3150,3171,3189,3209,3231,3249,3269,3291,3309,3329,3349,3370,3390,3409,3429,3451,3469,3489,3511,3530,3550,3571,3589,3609,3631,3650,3670,3690,3711,3729,3751,3769,3791,3809,3830,3850,3871,3890,3909,3930,3949,3970,3990,4009,4031,4051,4070,4091,4110,4131,4149,4169,4189,4209,4229,4250,4270,4290,4310,4329,4351,4370,4389,4409,4431,4449,4470,4490,4511,4531,4550,4570,4591,4609,4631,4649,4671,4689,4709,4731,4750,4770,4790,4811,4829,4849,4869,4889,4911,4931,4951,4970,4990,5010,5030,5050,5070,5090,5110,5131,5150,5170,5189,5210,5231,5249,5270,5290,5310,5331,5351,5371,5391,5410,5430,5449,5470,5491,5510,5529,5550,5571,5591,5611,5629,5650,5669,5691,5709,5731,5751,5770,5789,5810,5829,5850,5871,5890,5909,5929,5949,5971,5990,6009,6031,6050,6070,6090,6109,6131,6150,6170,6191,6210,6229,6250,6269,6290,6310,6329,6351,6371,6390,6410,6430,6451,6469,6490,6511,6530,6549,6570,6590,6609,6631,6649,6671,6690,6709,6729,6751,6770,6790,6810,6830,6850,6870,6890,6911,6930,6949,6970,6990,7011,7030,7049,7070,7090,7110,7131,7149,7171,7189,7209,7231,7250,7269,7291,7310,7330,7349,7369,7390,7409,7431,7449,7471,7491,7510,7529,7549,7570,7590,7611,7631,7650,7670,7689,7710,7729,7751,7771,7790,7810,7830,7850,7869,7889,7910,7931,7950,7969,7989,8010,8029,8051,8071,8089,8110,8129,8149,8170,8191,8210,8231,8251,8270,8290,8310,8330,8349,8371,8391,8411,8430,8450,8470,8489,8509,8530,8550,8570,8591,8610,8629,8651,8670,8690,8710,8730,8749,8769,8791,8811,8829,8851,8869,8889,8910,8930,8950,8970,8989,9011,9030,9051,9069,9089,9110,9129,9151,9169,9190,9210,9230,9250,9269,9290,9311,9330,9349,9370,9390,9409,9430,9451,9470,9490,9510,9531,9550,9570,9591,9611,9629,9651,9670,9690,9709,9730,9750,9770,9790,9811,9829,9850,9870,9890,9909,9930,9951,9971,9990,10010,10031,10050,10070,10090,10109,10131,10151,10169,10190,10210,10231,10249,10270,10290,10310,10330,10350,10371,10391,10410,10429,10451,10471,10489,10509,10531,10550,10570,10590,10609,10630,10651,10670,10689,10709,10731,10750,10770,10790,10811,10831,10851,10870,10890,10909,10930,10951,10970,10989,11010,11031,11050,11071,11090,11111,11129,11149,11169,11190,11209,11230,11250,11270,11290,11310,11331,11350,11370,11391,11410,11429],"xSR":741.5,"ySR":469.95,"xT1":424.9,"yT1":0,"xT2":1058.1,"yT2":0,"toosoon":0,"cond_shown":"Incongruent","ratio_trial":300,"L_num":13,"L_den":26,"R_num":12,"R_den":15,"correct_side":2,"subjID":"SantiagoRochaColmenares19","gender":"0","age":"11","school":"6","test":{"fix_dur":[250,1500],"timestim":1000,"targets_dim":[100,100],"targets_relative_coord":[0.3,0.7],"size_stim":[880,420],"start_dim":[100,100],"size_start":[300,300],"size_fix":60,"samplingrate":20,"img_types":["Congruent","Incongruent"],"ratios":[100,200,300],"rep_conds":19,"nTrials":120,"trials_to_rest":500,"Trials_order":[71,116,4,11,8,6,7,104,64,2,0,24,80,46,31,102,53,54,85,76,23,84,39,87,25,81,52,38,32,90,91,77,110,101,47,118,67,18,65,44,37,68,49,28,112,51,98,58,115,48,21,106,97,92,30,43,95,119,26,111,63,10,22,19,42,15,12,34,117,69,79,3,60,40,66,86,96,108,5,62,88,113,72,103,100,75,55,27,83,45,99,73,70,14,50,41,78,9,109,107,56,36,74,93,33,105,59,17,20,29,16,61,94,13,114,1,57,35,89,82],"cond_shown":["Incongruent","Congruent","Congruent","Incongruent","Congruent","Congruent","Incongruent","Congruent","Congruent","Congruent","Congruent","Congruent","Congruent","Congruent","Incongruent","Congruent","Incongruent","Congruent","Incongruent","Congruent","Incongruent","Congruent","Incongruent","Incongruent","Incongruent","Incongruent","Congruent","Congruent","Congruent","Congruent","Incongruent","Incongruent","Congruent","Incongruent","Incongruent","Congruent","Incongruent","Congruent","Incongruent","Congruent","Incongruent","Congruent","Incongruent","Congruent","Congruent","Incongruent","Congruent","Congruent","Incongruent","Congruent","Incongruent","Congruent","Incongruent","Congruent","Congruent","Incongruent","Incongruent","Incongruent","Congruent","Incongruent","Incongruent","Congruent","Congruent","Incongruent","Congruent","Incongruent","Congruent","Congruent","Incongruent","Incongruent","Incongruent","Incongruent","Congruent","Congruent","Congruent","Congruent","Congruent","Congruent","Incongruent","Congruent","Congruent","Incongruent","Congruent","Incongruent","Congruent","Incongruent","Incongruent","Incongruent","Incongruent","Incongruent","Incongruent","Incongruent","Congruent","Congruent","Congruent","Incongruent","Congruent","Incongruent","Incongruent","Incongruent","Congruent","Congruent","Congruent","Incongruent","Incongruent","Incongruent","Incongruent","Incongruent","Congruent","Incongruent","Congruent","Incongruent","Congruent","Incongruent","Congruent","Incongruent","Incongruent","Incongruent","Incongruent","Congruent"],"ratio_trial":[300,200,300,300,200,100,100,200,300,200,100,100,200,300,100,100,300,100,100,300,300,100,200,200,100,200,300,200,200,100,100,300,200,300,300,300,100,100,300,200,100,200,100,300,300,200,200,300,100,100,200,300,100,200,100,100,300,300,200,200,200,300,300,100,100,200,100,300,200,200,100,200,100,300,100,200,100,100,300,200,300,300,100,100,300,200,100,200,300,200,200,100,300,200,200,300,100,200,100,300,200,100,200,200,200,200,300,300,200,300,300,100,300,100,100,100,200,300,300,300],"left_num":[13,3,2,4,9,7,10,6,2,6,10,3,12,24,13,11,2,12,4,1,4,3,4,7,6,14,1,3,16,3,6,13,21,4,4,12,4,8,13,3,11,12,12,1,5,1,4,11,3,1,7,20,2,3,11,9,8,8,3,3,4,2,2,2,10,1,11,18,4,6,10,14,1,11,4,7,12,12,4,8,20,4,11,9,3,7,2,1,4,1,14,3,4,3,7,7,1,7,3,4,3,8,6,1,1,1,13,7,3,4,5,12,1,11,11,2,4,13,13,3],"right_num":[12,14,10,2,13,15,8,3,12,7,3,4,6,2,6,4,6,13,8,6,2,2,1,4,13,6,3,11,12,2,13,12,2,2,2,2,8,2,12,11,9,6,2,6,7,2,3,1,7,18,12,5,6,14,6,14,9,9,9,1,1,10,12,6,3,2,6,9,1,3,8,6,18,1,6,2,13,13,2,2,5,6,4,14,2,14,6,3,8,3,12,11,13,9,18,8,3,6,8,2,11,2,11,3,2,3,12,8,9,2,6,2,6,9,6,6,1,12,12,4],"left_den":[26,10,20,20,30,14,25,15,10,12,25,20,15,30,26,22,4,30,8,5,20,6,30,15,10,30,5,10,20,6,10,26,30,20,20,24,8,16,26,10,22,15,30,5,25,3,8,22,9,2,10,25,4,10,22,15,10,10,12,10,30,20,10,4,25,3,22,20,30,20,25,30,2,22,8,21,30,30,20,15,25,5,22,15,6,10,4,2,5,2,30,5,20,12,15,10,2,15,5,20,10,16,20,2,3,2,26,10,12,20,25,30,5,22,22,4,30,26,26,6],"right_den":[15,28,25,4,26,25,16,15,24,10,10,16,10,4,10,10,30,26,20,12,4,5,3,6,26,9,6,22,20,5,26,15,4,4,4,10,20,5,15,22,15,10,4,12,14,15,10,5,30,30,24,10,15,28,15,28,18,18,20,2,3,25,24,15,10,15,15,15,3,6,16,9,30,5,10,15,26,26,4,6,10,12,10,28,10,28,15,10,16,10,18,22,26,20,27,20,5,9,16,4,22,5,22,10,15,10,15,20,20,4,12,4,12,15,15,15,3,15,15,5],"correct_side":[2,2,2,2,2,2,2,1,2,2,1,2,1,1,2,1,1,2,1,2,2,1,2,2,1,2,2,2,1,1,1,2,1,2,2,1,1,1,2,2,2,1,2,2,2,1,1,1,1,2,1,1,1,2,1,1,1,1,2,2,2,2,2,1,1,1,1,1,2,2,2,2,2,1,2,1,2,2,2,1,1,1,1,1,1,1,1,1,1,1,2,1,2,2,2,1,2,2,1,2,2,1,2,1,1,1,2,1,2,2,2,2,2,2,1,1,2,2,2,2],"img_shown":["img2/300/Incongruent/R/I_Dist_300_LN_13_LD_26_RN_12_RD_15_1.png","img2/200/Congruent/R/C_Dist_200_LN_3_LD_10_RN_14_RD_28_1.png","img2/300/Congruent/R/C_Dist_300_LN_2_LD_20_RN_10_RD_25_1.png","img2/300/Incongruent/R/I_Dist_300_LN_4_LD_20_RN_2_RD_4_1.png","img2/200/Congruent/R/C_Dist_200_LN_9_LD_30_RN_13_RD_26_1.png","img2/100/Congruent/R/C_Dist_100_LN_7_LD_14_RN_15_RD_25_1.png","img2/100/Incongruent/R/I_Dist_100_LN_10_LD_25_RN_8_RD_16_1.png","img2/200/Congruent/L/C_Dist_200_LN_6_LD_15_RN_3_RD_15_0.png","img2/300/Congruent/R/C_Dist_300_LN_2_LD_10_RN_12_RD_24_1.png","img2/200/Congruent/R/C_Dist_200_LN_6_LD_12_RN_7_RD_10_1.png","img2/100/Congruent/L/C_Dist_100_LN_10_LD_25_RN_3_RD_10_0.png","img2/100/Congruent/R/C_Dist_100_LN_3_LD_20_RN_4_RD_16_1.png","img2/200/Congruent/L/C_Dist_200_LN_12_LD_15_RN_6_RD_10_0.png","img2/300/Congruent/L/C_Dist_300_LN_24_LD_30_RN_2_RD_4_0.png","img2/100/Incongruent/R/I_Dist_100_LN_13_LD_26_RN_6_RD_10_1.png","img2/100/Congruent/L/C_Dist_100_LN_11_LD_22_RN_4_RD_10_0.png","img2/300/Incongruent/L/I_Dist_300_LN_2_LD_4_RN_6_RD_30_0.png","img2/100/Congruent/R/C_Dist_100_LN_12_LD_30_RN_13_RD_26_1.png","img2/100/Incongruent/L/I_Dist_100_LN_4_LD_8_RN_8_RD_20_0.png","img2/300/Congruent/R/C_Dist_300_LN_1_LD_5_RN_6_RD_12_1.png","img2/300/Incongruent/R/I_Dist_300_LN_4_LD_20_RN_2_RD_4_1.png","img2/100/Congruent/L/C_Dist_100_LN_3_LD_6_RN_2_RD_5_0.png","img2/200/Incongruent/R/I_Dist_200_LN_4_LD_30_RN_1_RD_3_1.png","img2/200/Incongruent/R/I_Dist_200_LN_7_LD_15_RN_4_RD_6_1.png","img2/100/Incongruent/L/I_Dist_100_LN_6_LD_10_RN_13_RD_26_0.png","img2/200/Incongruent/R/I_Dist_200_LN_14_LD_30_RN_6_RD_9_1.png","img2/300/Congruent/R/C_Dist_300_LN_1_LD_5_RN_3_RD_6_1.png","img2/200/Congruent/R/C_Dist_200_LN_3_LD_10_RN_11_RD_22_1.png","img2/200/Congruent/L/C_Dist_200_LN_16_LD_20_RN_12_RD_20_0.png","img2/100/Congruent/L/C_Dist_100_LN_3_LD_6_RN_2_RD_5_0.png","img2/100/Incongruent/L/I_Dist_100_LN_6_LD_10_RN_13_RD_26_0.png","img2/300/Incongruent/R/I_Dist_300_LN_13_LD_26_RN_12_RD_15_1.png","img2/200/Congruent/L/C_Dist_200_LN_21_LD_30_RN_2_RD_4_0.png","img2/300/Incongruent/R/I_Dist_300_LN_4_LD_20_RN_2_RD_4_1.png","img2/300/Incongruent/R/I_Dist_300_LN_4_LD_20_RN_2_RD_4_1.png","img2/300/Congruent/L/C_Dist_300_LN_12_LD_24_RN_2_RD_10_0.png","img2/100/Incongruent/L/I_Dist_100_LN_4_LD_8_RN_8_RD_20_0.png","img2/100/Congruent/L/C_Dist_100_LN_8_LD_16_RN_2_RD_5_0.png","img2/300/Incongruent/R/I_Dist_300_LN_13_LD_26_RN_12_RD_15_1.png","img2/200/Congruent/R/C_Dist_200_LN_3_LD_10_RN_11_RD_22_1.png","img2/100/Incongruent/R/I_Dist_100_LN_11_LD_22_RN_9_RD_15_1.png","img2/200/Congruent/L/C_Dist_200_LN_12_LD_15_RN_6_RD_10_0.png","img2/100/Incongruent/R/I_Dist_100_LN_12_LD_30_RN_2_RD_4_1.png","img2/300/Congruent/R/C_Dist_300_LN_1_LD_5_RN_6_RD_12_1.png","img2/300/Congruent/R/C_Dist_300_LN_5_LD_25_RN_7_RD_14_1.png","img2/200/Incongruent/L/I_Dist_200_LN_1_LD_3_RN_2_RD_15_0.png","img2/200/Congruent/L/C_Dist_200_LN_4_LD_8_RN_3_RD_10_0.png","img2/300/Congruent/L/C_Dist_300_LN_11_LD_22_RN_1_RD_5_0.png","img2/100/Incongruent/L/I_Dist_100_LN_3_LD_9_RN_7_RD_30_0.png","img2/100/Congruent/R/C_Dist_100_LN_1_LD_2_RN_18_RD_30_1.png","img2/200/Incongruent/L/I_Dist_200_LN_7_LD_10_RN_12_RD_24_0.png","img2/300/Congruent/L/C_Dist_300_LN_20_LD_25_RN_5_RD_10_0.png","img2/100/Incongruent/L/I_Dist_100_LN_2_LD_4_RN_6_RD_15_0.png","img2/200/Congruent/R/C_Dist_200_LN_3_LD_10_RN_14_RD_28_1.png","img2/100/Congruent/L/C_Dist_100_LN_11_LD_22_RN_6_RD_15_0.png","img2/100/Incongruent/L/I_Dist_100_LN_9_LD_15_RN_14_RD_28_0.png","img2/300/Incongruent/L/I_Dist_300_LN_8_LD_10_RN_9_RD_18_0.png","img2/300/Incongruent/L/I_Dist_300_LN_8_LD_10_RN_9_RD_18_0.png","img2/200/Congruent/R/C_Dist_200_LN_3_LD_12_RN_9_RD_20_1.png","img2/200/Incongruent/R/I_Dist_200_LN_3_LD_10_RN_1_RD_2_1.png","img2/200/Incongruent/R/I_Dist_200_LN_4_LD_30_RN_1_RD_3_1.png","img2/300/Congruent/R/C_Dist_300_LN_2_LD_20_RN_10_RD_25_1.png","img2/300/Congruent/R/C_Dist_300_LN_2_LD_10_RN_12_RD_24_1.png","img2/100/Incongruent/L/I_Dist_100_LN_2_LD_4_RN_6_RD_15_0.png","img2/100/Congruent/L/C_Dist_100_LN_10_LD_25_RN_3_RD_10_0.png","img2/200/Incongruent/L/I_Dist_200_LN_1_LD_3_RN_2_RD_15_0.png","img2/100/Congruent/L/C_Dist_100_LN_11_LD_22_RN_6_RD_15_0.png","img2/300/Congruent/L/C_Dist_300_LN_18_LD_20_RN_9_RD_15_0.png","img2/200/Incongruent/R/I_Dist_200_LN_4_LD_30_RN_1_RD_3_1.png","img2/200/Incongruent/R/I_Dist_200_LN_6_LD_20_RN_3_RD_6_1.png","img2/100/Incongruent/R/I_Dist_100_LN_10_LD_25_RN_8_RD_16_1.png","img2/200/Incongruent/R/I_Dist_200_LN_14_LD_30_RN_6_RD_9_1.png","img2/100/Congruent/R/C_Dist_100_LN_1_LD_2_RN_18_RD_30_1.png","img2/300/Congruent/L/C_Dist_300_LN_11_LD_22_RN_1_RD_5_0.png","img2/100/Congruent/R/C_Dist_100_LN_4_LD_8_RN_6_RD_10_1.png","img2/200/Congruent/L/C_Dist_200_LN_7_LD_21_RN_2_RD_15_0.png","img2/100/Congruent/R/C_Dist_100_LN_12_LD_30_RN_13_RD_26_1.png","img2/100/Congruent/R/C_Dist_100_LN_12_LD_30_RN_13_RD_26_1.png","img2/300/Incongruent/R/I_Dist_300_LN_4_LD_20_RN_2_RD_4_1.png","img2/200/Congruent/L/C_Dist_200_LN_8_LD_15_RN_2_RD_6_0.png","img2/300/Congruent/L/C_Dist_300_LN_20_LD_25_RN_5_RD_10_0.png","img2/300/Incongruent/L/I_Dist_300_LN_4_LD_5_RN_6_RD_12_0.png","img2/100/Congruent/L/C_Dist_100_LN_11_LD_22_RN_4_RD_10_0.png","img2/100/Incongruent/L/I_Dist_100_LN_9_LD_15_RN_14_RD_28_0.png","img2/300/Congruent/L/C_Dist_300_LN_3_LD_6_RN_2_RD_10_0.png","img2/200/Incongruent/L/I_Dist_200_LN_7_LD_10_RN_14_RD_28_0.png","img2/100/Incongruent/L/I_Dist_100_LN_2_LD_4_RN_6_RD_15_0.png","img2/200/Incongruent/L/I_Dist_200_LN_1_LD_2_RN_3_RD_10_0.png","img2/300/Incongruent/L/I_Dist_300_LN_4_LD_5_RN_8_RD_16_0.png","img2/200/Incongruent/L/I_Dist_200_LN_1_LD_2_RN_3_RD_10_0.png","img2/200/Incongruent/R/I_Dist_200_LN_14_LD_30_RN_12_RD_18_1.png","img2/100/Incongruent/L/I_Dist_100_LN_3_LD_5_RN_11_RD_22_0.png","img2/300/Congruent/R/C_Dist_300_LN_4_LD_20_RN_13_RD_26_1.png","img2/200/Congruent/R/C_Dist_200_LN_3_LD_12_RN_9_RD_20_1.png","img2/200/Congruent/R/C_Dist_200_LN_7_LD_15_RN_18_RD_27_1.png","img2/300/Incongruent/L/I_Dist_300_LN_7_LD_10_RN_8_RD_20_0.png","img2/100/Congruent/R/C_Dist_100_LN_1_LD_2_RN_3_RD_5_1.png","img2/200/Incongruent/R/I_Dist_200_LN_7_LD_15_RN_6_RD_9_1.png","img2/100/Incongruent/L/I_Dist_100_LN_3_LD_5_RN_8_RD_16_0.png","img2/300/Incongruent/R/I_Dist_300_LN_4_LD_20_RN_2_RD_4_1.png","img2/200/Congruent/R/C_Dist_200_LN_3_LD_10_RN_11_RD_22_1.png","img2/100/Congruent/L/C_Dist_100_LN_8_LD_16_RN_2_RD_5_0.png","img2/200/Congruent/R/C_Dist_200_LN_6_LD_20_RN_11_RD_22_1.png","img2/200/Incongruent/L/I_Dist_200_LN_1_LD_2_RN_3_RD_10_0.png","img2/200/Incongruent/L/I_Dist_200_LN_1_LD_3_RN_2_RD_15_0.png","img2/200/Incongruent/L/I_Dist_200_LN_1_LD_2_RN_3_RD_10_0.png","img2/300/Incongruent/R/I_Dist_300_LN_13_LD_26_RN_12_RD_15_1.png","img2/300/Incongruent/L/I_Dist_300_LN_7_LD_10_RN_8_RD_20_0.png","img2/200/Congruent/R/C_Dist_200_LN_3_LD_12_RN_9_RD_20_1.png","img2/300/Incongruent/R/I_Dist_300_LN_4_LD_20_RN_2_RD_4_1.png","img2/300/Congruent/R/C_Dist_300_LN_5_LD_25_RN_6_RD_12_1.png","img2/100/Incongruent/R/I_Dist_100_LN_12_LD_30_RN_2_RD_4_1.png","img2/300/Congruent/R/C_Dist_300_LN_1_LD_5_RN_6_RD_12_1.png","img2/100/Incongruent/R/I_Dist_100_LN_11_LD_22_RN_9_RD_15_1.png","img2/100/Congruent/L/C_Dist_100_LN_11_LD_22_RN_6_RD_15_0.png","img2/100/Incongruent/L/I_Dist_100_LN_2_LD_4_RN_6_RD_15_0.png","img2/200/Incongruent/R/I_Dist_200_LN_4_LD_30_RN_1_RD_3_1.png","img2/300/Incongruent/R/I_Dist_300_LN_13_LD_26_RN_12_RD_15_1.png","img2/300/Incongruent/R/I_Dist_300_LN_13_LD_26_RN_12_RD_15_1.png","img2/300/Congruent/R/C_Dist_300_LN_3_LD_6_RN_4_RD_5_1.png"],"dist100_C":[["C_Dist_100_LN_10_LD_25_RN_3_RD_10_0.png","C_Dist_100_LN_11_LD_22_RN_4_RD_10_0.png","C_Dist_100_LN_11_LD_22_RN_6_RD_15_0.png","C_Dist_100_LN_15_LD_25_RN_13_RD_26_0.png","C_Dist_100_LN_3_LD_6_RN_2_RD_5_0.png","C_Dist_100_LN_6_LD_20_RN_5_RD_25_0.png","C_Dist_100_LN_8_LD_16_RN_2_RD_5_0.png","C_Dist_100_LN_9_LD_15_RN_8_RD_16_0.png"],["C_Dist_100_LN_1_LD_2_RN_18_RD_30_1.png","C_Dist_100_LN_1_LD_2_RN_3_RD_5_1.png","C_Dist_100_LN_12_LD_30_RN_13_RD_26_1.png","C_Dist_100_LN_2_LD_5_RN_11_RD_22_1.png","C_Dist_100_LN_2_LD_5_RN_6_RD_12_1.png","C_Dist_100_LN_3_LD_20_RN_4_RD_16_1.png","C_Dist_100_LN_4_LD_10_RN_15_RD_30_1.png","C_Dist_100_LN_4_LD_8_RN_6_RD_10_1.png","C_Dist_100_LN_6_LD_12_RN_15_RD_25_1.png","C_Dist_100_LN_7_LD_14_RN_15_RD_25_1.png","C_Dist_100_LN_7_LD_14_RN_9_RD_15_1.png"]],"dist100_I":[["I_Dist_100_LN_1_LD_2_RN_8_RD_20_0.png","I_Dist_100_LN_2_LD_4_RN_6_RD_15_0.png","I_Dist_100_LN_2_LD_4_RN_8_RD_20_0.png","I_Dist_100_LN_3_LD_5_RN_11_RD_22_0.png","I_Dist_100_LN_3_LD_5_RN_8_RD_16_0.png","I_Dist_100_LN_3_LD_6_RN_4_RD_10_0.png","I_Dist_100_LN_3_LD_9_RN_7_RD_30_0.png","I_Dist_100_LN_4_LD_8_RN_8_RD_20_0.png","I_Dist_100_LN_6_LD_10_RN_11_RD_22_0.png","I_Dist_100_LN_6_LD_10_RN_13_RD_26_0.png","I_Dist_100_LN_6_LD_10_RN_7_RD_14_0.png","I_Dist_100_LN_9_LD_10_RN_20_RD_25_0.png","I_Dist_100_LN_9_LD_15_RN_13_RD_26_0.png","I_Dist_100_LN_9_LD_15_RN_14_RD_28_0.png"],["I_Dist_100_LN_10_LD_25_RN_8_RD_16_1.png","I_Dist_100_LN_10_LD_25_RN_9_RD_18_1.png","I_Dist_100_LN_11_LD_22_RN_9_RD_15_1.png","I_Dist_100_LN_12_LD_24_RN_9_RD_15_1.png","I_Dist_100_LN_12_LD_30_RN_2_RD_4_1.png","I_Dist_100_LN_13_LD_26_RN_12_RD_20_1.png","I_Dist_100_LN_13_LD_26_RN_6_RD_10_1.png","I_Dist_100_LN_17_LD_30_RN_10_RD_15_1.png","I_Dist_100_LN_6_LD_12_RN_3_RD_5_1.png","I_Dist_100_LN_8_LD_16_RN_6_RD_10_1.png","I_Dist_100_LN_8_LD_20_RN_1_RD_2_1.png","I_Dist_100_LN_9_LD_18_RN_6_RD_10_1.png"]],"dist100_S":[["E_Dist_100_LN_2_LD_12_RN_2_RD_30_0.png","E_Dist_100_LN_6_LD_10_RN_6_RD_12_0.png"],["E_Dist_100_LN_6_LD_12_RN_6_RD_10_1.png"]],"dist200_C":[["C_Dist_200_LN_11_LD_22_RN_3_RD_10_0.png","C_Dist_200_LN_12_LD_15_RN_6_RD_10_0.png","C_Dist_200_LN_12_LD_20_RN_6_RD_15_0.png","C_Dist_200_LN_14_LD_28_RN_6_RD_20_0.png","C_Dist_200_LN_15_LD_25_RN_4_RD_10_0.png","C_Dist_200_LN_16_LD_20_RN_12_RD_20_0.png","C_Dist_200_LN_16_LD_30_RN_9_RD_27_0.png","C_Dist_200_LN_20_LD_25_RN_9_RD_15_0.png","C_Dist_200_LN_21_LD_30_RN_2_RD_4_0.png","C_Dist_200_LN_4_LD_10_RN_3_RD_15_0.png","C_Dist_200_LN_4_LD_8_RN_3_RD_10_0.png","C_Dist_200_LN_6_LD_15_RN_3_RD_15_0.png","C_Dist_200_LN_7_LD_21_RN_2_RD_15_0.png","C_Dist_200_LN_8_LD_15_RN_2_RD_6_0.png","C_Dist_200_LN_8_LD_15_RN_3_RD_9_0.png","C_Dist_200_LN_8_LD_15_RN_7_RD_21_0.png","C_Dist_200_LN_9_LD_20_RN_4_RD_16_0.png"],["C_Dist_200_LN_1_LD_2_RN_21_RD_30_1.png","C_Dist_200_LN_13_LD_26_RN_14_RD_20_1.png","C_Dist_200_LN_3_LD_10_RN_11_RD_22_1.png","C_Dist_200_LN_3_LD_10_RN_14_RD_28_1.png","C_Dist_200_LN_3_LD_10_RN_7_RD_14_1.png","C_Dist_200_LN_3_LD_12_RN_9_RD_20_1.png","C_Dist_200_LN_3_LD_6_RN_14_RD_20_1.png","C_Dist_200_LN_5_LD_10_RN_14_RD_20_1.png","C_Dist_200_LN_6_LD_12_RN_7_RD_10_1.png","C_Dist_200_LN_6_LD_20_RN_11_RD_22_1.png","C_Dist_200_LN_7_LD_15_RN_18_RD_27_1.png","C_Dist_200_LN_9_LD_30_RN_13_RD_26_1.png"]],"dist200_I":[["I_Dist_200_LN_1_LD_2_RN_3_RD_10_0.png","I_Dist_200_LN_1_LD_3_RN_2_RD_15_0.png","I_Dist_200_LN_3_LD_4_RN_11_RD_20_0.png","I_Dist_200_LN_4_LD_5_RN_6_RD_10_0.png","I_Dist_200_LN_4_LD_6_RN_14_RD_30_0.png","I_Dist_200_LN_7_LD_10_RN_12_RD_24_0.png","I_Dist_200_LN_7_LD_10_RN_14_RD_28_0.png","I_Dist_200_LN_7_LD_10_RN_8_RD_16_0.png"],["I_Dist_200_LN_11_LD_20_RN_3_RD_4_1.png","I_Dist_200_LN_14_LD_30_RN_12_RD_18_1.png","I_Dist_200_LN_14_LD_30_RN_6_RD_9_1.png","I_Dist_200_LN_3_LD_10_RN_1_RD_2_1.png","I_Dist_200_LN_4_LD_30_RN_1_RD_3_1.png","I_Dist_200_LN_6_LD_20_RN_3_RD_6_1.png","I_Dist_200_LN_7_LD_15_RN_4_RD_6_1.png","I_Dist_200_LN_7_LD_15_RN_6_RD_9_1.png","I_Dist_200_LN_9_LD_15_RN_8_RD_10_1.png"]],"dist200_S":[["E_Dist_200_LN_3_LD_6_RN_3_RD_10_0.png"],["E_Dist_200_LN_3_LD_10_RN_3_RD_6_1.png"]],"dist300_C":[["C_Dist_300_LN_11_LD_22_RN_1_RD_5_0.png","C_Dist_300_LN_11_LD_22_RN_2_RD_10_0.png","C_Dist_300_LN_11_LD_22_RN_4_RD_20_0.png","C_Dist_300_LN_12_LD_24_RN_2_RD_10_0.png","C_Dist_300_LN_18_LD_20_RN_9_RD_15_0.png","C_Dist_300_LN_20_LD_25_RN_13_RD_26_0.png","C_Dist_300_LN_20_LD_25_RN_14_RD_28_0.png","C_Dist_300_LN_20_LD_25_RN_5_RD_10_0.png","C_Dist_300_LN_20_LD_25_RN_8_RD_16_0.png","C_Dist_300_LN_20_LD_25_RN_9_RD_18_0.png","C_Dist_300_LN_24_LD_30_RN_2_RD_4_0.png","C_Dist_300_LN_24_LD_30_RN_8_RD_16_0.png","C_Dist_300_LN_3_LD_6_RN_2_RD_10_0.png","C_Dist_300_LN_4_LD_10_RN_1_RD_10_0.png","C_Dist_300_LN_4_LD_5_RN_2_RD_4_0.png","C_Dist_300_LN_8_LD_16_RN_1_RD_5_0.png","C_Dist_300_LN_9_LD_10_RN_3_RD_5_0.png"],["C_Dist_300_LN_1_LD_20_RN_7_RD_20_1.png","C_Dist_300_LN_1_LD_3_RN_19_RD_30_1.png","C_Dist_300_LN_1_LD_30_RN_8_RD_24_1.png","C_Dist_300_LN_1_LD_5_RN_11_RD_22_1.png","C_Dist_300_LN_1_LD_5_RN_3_RD_6_1.png","C_Dist_300_LN_1_LD_5_RN_6_RD_12_1.png","C_Dist_300_LN_2_LD_10_RN_12_RD_24_1.png","C_Dist_300_LN_2_LD_20_RN_10_RD_25_1.png","C_Dist_300_LN_3_LD_12_RN_11_RD_20_1.png","C_Dist_300_LN_3_LD_6_RN_4_RD_5_1.png","C_Dist_300_LN_4_LD_20_RN_13_RD_26_1.png","C_Dist_300_LN_5_LD_25_RN_6_RD_12_1.png","C_Dist_300_LN_5_LD_25_RN_7_RD_14_1.png","C_Dist_300_LN_7_LD_14_RN_20_RD_25_1.png","C_Dist_300_LN_8_LD_15_RN_10_RD_12_1.png"]],"dist300_I":[["I_Dist_300_LN_1_LD_2_RN_2_RD_10_0.png","I_Dist_300_LN_1_LD_2_RN_3_RD_15_0.png","I_Dist_300_LN_2_LD_4_RN_6_RD_30_0.png","I_Dist_300_LN_3_LD_6_RN_4_RD_20_0.png","I_Dist_300_LN_4_LD_5_RN_6_RD_12_0.png","I_Dist_300_LN_4_LD_5_RN_8_RD_16_0.png","I_Dist_300_LN_7_LD_10_RN_8_RD_20_0.png","I_Dist_300_LN_8_LD_10_RN_14_RD_28_0.png","I_Dist_300_LN_8_LD_10_RN_9_RD_18_0.png"],["I_Dist_300_LN_13_LD_26_RN_12_RD_15_1.png","I_Dist_300_LN_4_LD_20_RN_2_RD_4_1.png"]],"dist300_S":[["E_Dist_300_LN_9_LD_12_RN_9_RD_20_0.png"],["E_Dist_300_LN_18_LD_30_RN_18_RD_20_1.png","E_Dist_300_LN_3_LD_10_RN_3_RD_5_1.png","E_Dist_300_LN_9_LD_20_RN_9_RD_12_1.png"]],"dist500_C":[["C_Dist_500_LN_10_LD_13_RN_7_RD_26_0.png","C_Dist_500_LN_10_LD_15_RN_4_RD_24_0.png","C_Dist_500_LN_12_LD_16_RN_3_RD_12_0.png","C_Dist_500_LN_12_LD_18_RN_4_RD_24_0.png","C_Dist_500_LN_15_LD_18_RN_5_RD_15_0.png","C_Dist_500_LN_15_LD_20_RN_1_RD_4_0.png","C_Dist_500_LN_18_LD_27_RN_1_RD_6_0.png","C_Dist_500_LN_20_LD_24_RN_1_RD_3_0.png","C_Dist_500_LN_20_LD_24_RN_3_RD_9_0.png","C_Dist_500_LN_20_LD_24_RN_7_RD_21_0.png","C_Dist_500_LN_20_LD_28_RN_3_RD_14_0.png","C_Dist_500_LN_21_LD_28_RN_6_RD_24_0.png","C_Dist_500_LN_22_LD_28_RN_2_RD_7_0.png","C_Dist_500_LN_25_LD_30_RN_9_RD_27_0.png","C_Dist_500_LN_4_LD_6_RN_1_RD_6_0.png","C_Dist_500_LN_5_LD_6_RN_2_RD_6_0.png","C_Dist_500_LN_6_LD_9_RN_1_RD_6_0.png","C_Dist_500_LN_7_LD_10_RN_1_RD_5_0.png","C_Dist_500_LN_8_LD_12_RN_1_RD_6_0.png","C_Dist_500_LN_8_LD_12_RN_4_RD_24_0.png"],["C_Dist_500_LN_1_LD_4_RN_12_RD_16_1.png","C_Dist_500_LN_1_LD_4_RN_9_RD_12_1.png","C_Dist_500_LN_1_LD_9_RN_11_RD_18_1.png","C_Dist_500_LN_10_LD_24_RN_22_RD_24_1.png","C_Dist_500_LN_2_LD_12_RN_10_RD_15_1.png","C_Dist_500_LN_2_LD_12_RN_12_RD_18_1.png","C_Dist_500_LN_2_LD_12_RN_4_RD_6_1.png","C_Dist_500_LN_2_LD_24_RN_7_RD_12_1.png","C_Dist_500_LN_2_LD_5_RN_18_RD_20_1.png","C_Dist_500_LN_2_LD_5_RN_9_RD_10_1.png","C_Dist_500_LN_2_LD_8_RN_12_RD_16_1.png","C_Dist_500_LN_2_LD_8_RN_21_RD_28_1.png","C_Dist_500_LN_3_LD_10_RN_4_RD_5_1.png","C_Dist_500_LN_3_LD_12_RN_15_RD_20_1.png","C_Dist_500_LN_3_LD_30_RN_6_RD_10_1.png","C_Dist_500_LN_3_LD_8_RN_14_RD_16_1.png","C_Dist_500_LN_4_LD_16_RN_15_RD_20_1.png","C_Dist_500_LN_4_LD_24_RN_12_RD_18_1.png","C_Dist_500_LN_5_LD_14_RN_6_RD_7_1.png","C_Dist_500_LN_7_LD_21_RN_20_RD_24_1.png","C_Dist_500_LN_7_LD_28_RN_12_RD_16_1.png","C_Dist_500_LN_7_LD_28_RN_9_RD_12_1.png","C_Dist_500_LN_9_LD_27_RN_20_RD_24_1.png"]],"dist500_I":[["I_Dist_500_LN_2_LD_3_RN_4_RD_24_0.png","I_Dist_500_LN_5_LD_6_RN_6_RD_18_0.png","I_Dist_500_LN_7_LD_8_RN_9_RD_24_0.png"],["I_Dist_500_LN_7_LD_21_RN_5_RD_6_1.png"]],"dist500_S":[["E_Dist_500_LN_6_LD_8_RN_6_RD_24_0.png"],["E_Dist_500_LN_2_LD_12_RN_2_RD_3_1.png","E_Dist_500_LN_6_LD_24_RN_6_RD_8_1.png"]]}},{"start_time":1551891520297,"click_time":1551891526390,"finger_time":1551891522250,"fix_duration":1023.3177324823154,"trial":1,"RT":1953,"MT":4140,"sideResp":1,"stimulus":[],"xmouse":[782,782,782,782,782,782,782,782,782,782,782,782,782,782,782,782,782,782,782,782,782,782,782,782,782,782,782,782,782,782,782,782,782,782,782,782,782,782,782,782,782,782,782,782,782,782,782,782,782,782,782,782,782,782,782,782,782,782,782,782,782,782,782,782,782,782,782,782,782,782,782,782,782,782,782,782,782,782,782,782,782,782,782,782,782,782,782,782,782,782,782,782,782,786,795,809,828,860,870,875,879,882,883,883,883,885,887,892,896,900,904,907,907,907,907,907,907,907,907,907,907,907,907,907,907,907,907,907,907,908,900,872,856,850,848,846,845,837,830,827,827,826,822,819,814,813,812,812,811,811,810,810,810,810,810,810,810,810,810,810,810,810,810,810,810,810,810,810,810,810,810,810,810,810,810,810,810,810,810,810,810,810,810,810,810,810,810,810,810,810,810,810,810,807,803,802,802,802,802,802,802,802,802,802,802,802,802,802,802,802,802,802,802,802,802,802,802,802,802,802,802,802,802,802,802,802,802,802,802,802,802,802,802,802,802,802,802,802,802,802,802,802,802,802,802,802,802,802,802,802,802,802,802,802,802,802,802,802,800,795,789,777,758,748,740,736,732,716,710,708,706,704,688,678,671,664,658,650,647,640,633,628,619,618,613,607,597,581,576,576,576,573,567,560,560,554,549,541,539,537,534,529,522,518,513],"ymouse":[629,629,629,629,629,629,629,629,629,629,629,629,629,629,629,629,629,629,629,629,629,629,629,629,629,629,629,629,629,629,629,629,629,629,629,629,629,629,629,629,629,629,629,629,629,629,629,629,629,629,629,629,629,629,629,629,629,629,629,629,629,629,629,629,629,629,629,629,629,629,629,629,629,629,629,629,629,629,629,629,629,629,629,629,629,629,629,629,629,629,629,629,628,619,608,595,574,535,519,511,502,491,486,482,481,478,473,463,452,436,424,420,420,420,420,420,420,420,420,420,420,420,420,420,420,420,420,420,419,421,439,483,503,509,511,514,519,537,549,553,554,556,568,577,586,590,592,593,594,594,595,595,595,595,595,595,595,595,595,595,595,595,595,595,595,595,595,595,595,595,595,595,595,595,595,595,595,595,595,595,595,595,595,595,595,595,595,595,595,595,595,595,595,584,578,576,576,576,576,576,576,576,576,576,576,576,576,576,576,576,576,576,576,576,576,576,576,576,576,576,576,576,576,576,576,576,576,576,576,576,576,576,576,576,576,576,576,576,576,576,576,576,576,576,576,576,576,576,576,576,576,576,576,576,576,576,576,576,573,572,569,564,538,518,500,489,477,443,429,423,416,411,387,374,363,354,347,338,334,326,319,314,298,291,279,265,247,215,203,195,189,185,175,166,166,160,153,139,132,128,123,115,106,101,96],"timestamp_mouse":[13,35,53,74,93,113,133,152,174,194,212,233,252,274,294,313,332,353,373,392,414,432,454,473,493,514,532,552,573,593,612,633,653,674,693,713,732,752,773,793,814,834,853,872,893,912,932,954,972,993,1013,1032,1054,1072,1093,1114,1132,1154,1173,1193,1213,1234,1253,1273,1294,1313,1332,1353,1373,1393,1412,1433,1453,1473,1494,1512,1532,1553,1572,1593,1612,1634,1653,1672,1693,1712,1733,1753,1773,1792,1813,1832,1853,1874,1893,1914,1932,1953,1973,1994,2012,2034,2053,2073,2092,2113,2133,2154,2173,2193,2214,2233,2253,2272,2294,2313,2333,2354,2374,2393,2412,2433,2452,2472,2494,2513,2533,2553,2572,2594,2613,2634,2653,2673,2692,2713,2732,2753,2774,2793,2812,2832,2854,2873,2893,2913,2934,2954,2973,2992,3012,3034,3053,3073,3093,3113,3132,3154,3172,3192,3214,3233,3253,3274,3293,3312,3334,3353,3372,3393,3412,3433,3453,3473,3492,3513,3532,3554,3572,3594,3612,3632,3653,3673,3692,3713,3733,3754,3773,3792,3813,3832,3852,3874,3893,3913,3934,3952,3972,3993,4012,4034,4052,4074,4092,4114,4132,4153,4174,4193,4213,4234,4253,4273,4292,4313,4334,4352,4373,4394,4412,4433,4454,4472,4492,4512,4534,4553,4572,4594,4612,4633,4652,4674,4693,4712,4733,4753,4773,4793,4814,4833,4853,4874,4892,4913,4934,4952,4973,4994,5013,5032,5054,5073,5092,5113,5133,5152,5173,5193,5213,5233,5252,5273,5293,5312,5333,5353,5374,5393,5413,5433,5452,5474,5493,5514,5534,5553,5572,5594,5613,5633,5652,5673,5694,5714,5732,5752,5773,5793,5813,5833,5852,5884,5892,5913,5932,5953,5973,5994,6012,6033,6052,6073,6093],"xSR":741.5,"ySR":573.95,"xT1":424.9,"yT1":0,"xT2":1058.1,"yT2":0,"toosoon":0,"cond_shown":"Congruent","ratio_trial":200,"L_num":3,"L_den":10,"R_num":14,"R_den":28,"correct_side":2,"subjID":"SantiagoRochaColmenares19","gender":"0","school":"6","age":"11"},{"start_time":1551891529968,"click_time":1551891531971,"finger_time":1551891531471,"fix_duration":1197.7228443373258,"trial":2,"RT":1503,"MT":500,"sideResp":2,"stimulus":[],"xmouse":[773,773,773,773,773,773,773,773,773,773,773,773,773,773,773,773,773,773,773,773,773,773,773,773,773,773,773,773,773,773,773,773,773,773,773,773,773,773,773,773,773,773,773,773,773,773,773,773,773,773,773,773,773,773,773,773,773,773,773,773,773,773,773,773,773,773,773,773,773,773,773,773,773,774,786,875,911,957,975,993,1027,1043,1053,1058,1065,1082,1092,1093,1085,1056,1052,1052,1052,1052,1052,1052,1052,1052,1052,1052,1062],"ymouse":[631,631,631,631,631,631,631,631,631,631,631,631,631,631,631,631,631,631,631,631,631,631,631,631,631,631,631,631,631,631,631,631,631,631,631,631,631,631,631,631,631,631,631,631,631,631,631,631,631,631,631,631,631,631,631,631,631,631,631,631,631,631,631,631,631,631,631,631,631,631,631,631,631,626,614,537,494,432,412,392,343,310,269,237,216,182,158,147,129,102,99,95,90,86,86,86,86,86,86,84,71],"timestamp_mouse":[8,22,43,63,82,103,121,143,161,182,202,223,241,263,281,302,322,341,362,381,401,423,442,461,482,503,521,542,562,583,601,622,643,662,683,702,722,742,763,782,802,823,843,862,882,903,921,942,963,983,1002,1022,1042,1061,1082,1102,1123,1142,1162,1183,1202,1222,1243,1262,1283,1302,1322,1341,1362,1383,1403,1422,1443,1461,1483,1503,1521,1542,1561,1582,1603,1623,1642,1661,1682,1701,1722,1743,1761,1782,1801,1821,1843,1861,1882,1902,1921,1943,1962,1982,2003],"xSR":741.5,"ySR":573.95,"xT1":424.9,"yT1":0,"xT2":1058.1,"yT2":0,"toosoon":0,"cond_shown":"Congruent","ratio_trial":300,"L_num":2,"L_den":20,"R_num":10,"R_den":25,"correct_side":2,"subjID":"SantiagoRochaColmenares19","gender":"0","school":"6","age":"11"},{"start_time":1551891534303,"click_time":1551891536470,"finger_time":1551891536010,"fix_duration":1471.9002471307713,"trial":3,"RT":1707,"MT":460,"sideResp":1,"stimulus":[],"xmouse":[800,800,800,800,800,800,800,800,800,800,800,800,800,800,800,800,800,800,800,800,800,800,800,800,800,800,800,800,800,800,800,800,800,800,800,800,800,800,800,800,800,800,800,800,800,800,800,800,800,800,800,800,800,800,800,800,800,800,800,800,800,800,800,800,800,800,800,800,800,800,800,800,800,800,800,800,800,800,800,800,800,800,800,800,787,756,722,667,623,605,593,581,573,571,573,574,575,575,575,575,575,575,575,574,566,559,551,542,522],"ymouse":[614,614,614,614,614,614,614,614,614,614,614,614,614,614,614,614,614,614,614,614,614,614,614,614,614,614,614,614,614,614,614,614,614,614,614,614,614,614,614,614,614,614,614,614,614,614,614,614,614,614,614,614,614,614,614,614,614,614,614,614,614,614,614,614,614,614,614,614,614,614,614,614,614,614,614,614,614,614,614,614,614,614,614,615,589,516,438,342,277,245,215,184,156,116,102,96,91,91,91,91,91,91,91,91,91,91,89,85,71],"timestamp_mouse":[15,40,47,66,86,108,127,148,168,187,206,228,246,267,287,307,327,347,367,387,406,426,447,467,488,506,528,547,566,587,607,627,647,667,687,707,727,746,767,787,806,826,846,866,887,907,928,947,967,986,1007,1026,1046,1066,1088,1107,1127,1146,1166,1186,1207,1227,1246,1266,1287,1307,1327,1347,1367,1386,1408,1426,1446,1466,1487,1507,1527,1547,1567,1587,1607,1626,1647,1666,1687,1707,1727,1747,1767,1787,1807,1826,1846,1868,1887,1906,1926,1948,1967,1988,2008,2027,2046,2067,2087,2107,2127,2147,2167],"xSR":741.5,"ySR":573.95,"xT1":424.9,"yT1":0,"xT2":1058.1,"yT2":0,"toosoon":0,"cond_shown":"Incongruent","ratio_trial":300,"L_num":4,"L_den":20,"R_num":2,"R_den":4,"correct_side":2,"subjID":"SantiagoRochaColmenares19","gender":"0","school":"6","age":"11"},{"start_time":1551891538571,"click_time":1551891541351,"finger_time":1551891540090,"fix_duration":1378.739629924203,"trial":4,"RT":1519,"MT":1261,"sideResp":2,"stimulus":[],"xmouse":[784,784,784,784,784,784,784,784,784,784,784,784,784,784,784,784,784,784,784,784,784,784,784,784,784,784,784,784,784,784,784,784,784,784,784,784,784,784,784,784,784,784,784,784,784,784,784,784,784,784,784,784,784,784,784,784,784,784,784,784,784,784,784,784,784,784,784,784,784,784,784,784,784,787,794,833,861,889,909,928,958,965,967,970,973,976,982,983,983,983,983,983,983,983,983,983,983,983,983,983,980,979,978,977,977,977,985,990,997,1004,1012,1014,1017,1017,1017,1017,1017,1017,1017,1017,1017,1017,1019,1020,1023,1024,1032,1036,1039,1041,1043,1047,1051,1059,1065,1068,1072,1075,1079,1087],"ymouse":[628,628,628,628,628,628,628,628,628,628,628,628,628,628,628,628,628,628,628,628,628,628,628,628,628,628,628,628,628,628,628,628,628,628,628,628,628,628,628,628,628,628,628,628,628,628,628,628,628,628,628,628,628,628,628,628,628,628,628,628,628,628,628,628,628,628,628,628,628,628,628,628,628,629,627,585,539,500,474,452,423,416,413,402,393,384,370,368,368,368,368,368,368,368,368,368,368,368,367,358,306,295,287,285,285,284,262,252,243,235,225,221,214,212,212,212,212,207,198,194,186,181,178,175,170,166,152,147,142,140,138,134,131,124,119,116,111,108,102,91],"timestamp_mouse":[1,32,39,58,78,99,120,138,160,179,198,218,238,258,280,298,318,340,360,379,400,418,439,459,479,500,520,539,559,578,599,618,639,658,678,699,719,739,760,779,799,818,839,858,879,899,919,938,960,978,999,1019,1039,1058,1079,1098,1119,1140,1159,1179,1198,1219,1239,1260,1279,1299,1319,1339,1360,1379,1400,1418,1440,1459,1480,1499,1519,1538,1560,1578,1598,1618,1640,1659,1680,1698,1718,1738,1759,1779,1799,1819,1839,1859,1879,1900,1919,1939,1959,1979,1999,2018,2038,2059,2080,2098,2118,2138,2159,2179,2199,2218,2240,2259,2279,2299,2319,2339,2359,2378,2399,2419,2439,2459,2478,2498,2518,2539,2558,2579,2599,2619,2639,2658,2679,2699,2719,2738,2760,2779],"xSR":741.5,"ySR":573.95,"xT1":424.9,"yT1":0,"xT2":1058.1,"yT2":0,"toosoon":0,"cond_shown":"Congruent","ratio_trial":200,"L_num":9,"L_den":30,"R_num":13,"R_den":26,"correct_side":2,"subjID":"SantiagoRochaColmenares19","gender":"0","school":"6","age":"11"},{"start_time":1551891543363,"click_time":1551891545530,"finger_time":1551891544749,"fix_duration":1192.2502855318014,"trial":5,"RT":1386,"MT":781,"sideResp":2,"stimulus":[],"xmouse":[790,790,790,790,790,790,790,790,790,790,790,790,790,790,790,790,790,790,790,790,790,790,790,790,790,790,790,790,790,790,790,790,790,790,790,790,790,790,790,790,790,790,790,790,790,790,790,790,790,790,790,790,790,790,790,790,790,790,790,790,790,790,790,790,790,790,791,810,816,821,824,827,830,837,848,858,876,888,904,914,923,931,950,961,969,978,983,992,996,1000,1004,1010,1014,1018,1023,1028,1034,1045,1047,1050,1052,1057,1062,1065,1065,1066,1067,1068,1069],"ymouse":[608,608,608,608,608,608,608,608,608,608,608,608,608,608,608,608,608,608,608,608,608,608,608,608,608,608,608,608,608,608,608,608,608,608,608,608,608,608,608,608,608,608,608,608,608,608,608,608,608,608,608,608,608,608,608,608,608,608,608,608,608,608,608,608,608,608,607,585,578,573,570,567,565,556,544,530,502,487,465,448,434,417,383,367,351,336,325,298,287,273,261,246,238,230,221,211,198,166,156,152,146,134,125,118,112,108,105,101,98],"timestamp_mouse":[11,43,46,66,88,106,127,147,167,186,207,226,247,268,286,308,326,347,368,386,408,427,446,468,487,506,528,547,568,586,606,627,646,667,688,707,726,748,768,786,807,826,848,868,888,907,926,947,966,986,1007,1027,1046,1066,1087,1107,1126,1147,1168,1188,1207,1227,1247,1266,1286,1307,1327,1347,1366,1386,1408,1427,1446,1466,1487,1507,1528,1547,1567,1586,1607,1626,1647,1666,1688,1707,1727,1748,1766,1786,1807,1828,1847,1867,1886,1907,1927,1947,1967,1987,2008,2027,2046,2067,2087,2107,2127,2146,2167],"xSR":741.5,"ySR":573.95,"xT1":424.9,"yT1":0,"xT2":1058.1,"yT2":0,"toosoon":0,"cond_shown":"Congruent","ratio_trial":100,"L_num":7,"L_den":14,"R_num":15,"R_den":25,"correct_side":2,"subjID":"SantiagoRochaColmenares19","gender":"0","school":"6","age":"11"},{"start_time":1551891546832,"click_time":1551891548550,"finger_time":1551891548170,"fix_duration":340.87498818866703,"trial":6,"RT":1338,"MT":380,"sideResp":1,"stimulus":[],"xmouse":[817,817,817,815,815,815,814,812,810,809,807,807,806,804,803,803,803,803,803,803,803,803,803,803,803,803,803,803,803,803,803,803,803,803,803,803,803,803,803,803,803,803,803,803,803,803,803,803,803,803,803,803,803,803,803,803,803,803,803,803,803,803,803,803,802,792,771,753,732,718,701,677,642,580,571,564,558,537,530,526,526,526,526,526,525,523],"ymouse":[604,604,604,605,605,605,606,606,607,608,608,609,609,610,610,610,610,610,610,610,610,610,610,610,610,610,610,610,610,610,610,610,610,610,610,610,610,610,610,610,610,610,610,610,610,610,610,610,610,610,610,610,610,610,610,610,610,610,610,610,610,610,610,610,610,586,544,508,453,421,385,343,291,194,173,149,124,76,63,56,56,56,56,56,53,52],"timestamp_mouse":[18,40,59,77,98,118,138,158,179,198,217,238,257,279,298,317,339,358,377,398,417,437,459,477,499,517,538,558,578,597,618,639,658,679,698,717,738,759,778,797,817,839,858,878,897,919,939,957,979,997,1017,1039,1059,1077,1098,1117,1139,1157,1178,1198,1217,1238,1259,1278,1298,1319,1338,1358,1378,1398,1419,1438,1459,1478,1498,1517,1539,1560,1579,1597,1619,1638,1659,1679,1697,1717],"xSR":741.5,"ySR":573.95,"xT1":424.9,"yT1":0,"xT2":1058.1,"yT2":0,"toosoon":0,"cond_shown":"Incongruent","ratio_trial":100,"L_num":10,"L_den":25,"R_num":8,"R_den":16,"correct_side":2,"subjID":"SantiagoRochaColmenares19","gender":"0","school":"6","age":"11"},{"start_time":1551891550343,"click_time":1551891552350,"finger_time":1551891552009,"fix_duration":971.9224566598349,"trial":7,"RT":1666,"MT":341,"sideResp":1,"stimulus":[],"xmouse":[781,781,781,781,781,781,781,781,781,781,781,781,781,781,781,781,781,781,781,781,781,781,781,781,781,781,781,781,781,781,781,781,781,781,781,781,781,781,781,781,781,781,781,781,781,781,781,781,781,781,781,781,781,781,781,781,781,781,781,781,781,781,781,781,781,781,781,781,781,781,781,781,781,781,781,781,781,781,781,781,781,780,775,744,735,732,731,727,706,678,654,642,640,625,609,592,578,555,529,514,503],"ymouse":[624,624,624,624,624,624,624,624,624,624,624,624,624,624,624,624,624,624,624,624,624,624,624,624,624,624,624,624,624,624,624,624,624,624,624,624,624,624,624,624,624,624,624,624,624,624,624,624,624,624,624,624,624,624,624,624,624,624,624,624,624,624,624,624,624,624,624,624,624,624,624,624,624,624,624,624,624,624,624,624,624,614,595,532,513,503,497,482,446,424,412,406,403,362,322,286,250,200,138,114,94],"timestamp_mouse":[6,27,47,68,88,107,128,146,166,187,206,228,247,268,287,307,327,346,366,387,406,426,446,466,486,508,528,547,566,588,606,627,646,666,687,707,728,748,766,786,808,827,848,866,886,906,927,946,967,986,1006,1027,1047,1066,1088,1106,1127,1146,1166,1186,1208,1226,1248,1266,1287,1308,1326,1347,1367,1386,1407,1428,1446,1468,1486,1507,1527,1547,1567,1587,1607,1628,1647,1666,1688,1708,1728,1747,1767,1787,1806,1827,1848,1867,1886,1907,1928,1947,1966,1987,2006],"xSR":741.5,"ySR":573.95,"xT1":424.9,"yT1":0,"xT2":1058.1,"yT2":0,"toosoon":0,"cond_shown":"Congruent","ratio_trial":200,"L_num":6,"L_den":15,"R_num":3,"R_den":15,"correct_side":1,"subjID":"SantiagoRochaColmenares19","gender":"0","school":"6","age":"11"},{"start_time":1551891553731,"click_time":1551891555110,"finger_time":1551891554609,"fix_duration":539.0633521239264,"trial":8,"RT":878,"MT":501,"sideResp":2,"stimulus":[],"xmouse":[782,782,782,782,782,782,782,782,782,782,782,782,782,782,782,782,782,782,782,782,782,782,782,782,782,782,782,782,782,782,782,782,782,782,782,782,782,782,782,789,799,811,823,842,846,851,852,856,864,891,906,918,923,930,934,939,952,965,998,1018,1035,1049,1054,1056,1056,1056,1056,1056,1059],"ymouse":[644,644,644,644,644,644,644,644,644,644,644,644,644,644,644,644,644,644,644,644,644,644,644,644,644,644,644,644,644,644,644,644,644,644,644,644,644,644,643,629,610,595,584,570,567,562,560,554,542,511,495,484,478,471,465,460,445,427,370,324,276,227,189,137,121,102,95,88,77],"timestamp_mouse":[31,39,59,80,99,118,140,158,180,198,219,239,258,280,299,319,339,358,379,399,420,440,459,479,498,518,540,558,580,599,618,639,660,678,698,720,738,758,779,799,819,839,859,878,898,919,939,959,978,998,1018,1039,1059,1079,1098,1119,1139,1158,1179,1199,1218,1240,1259,1279,1298,1318,1339,1360,1378],"xSR":741.5,"ySR":573.95,"xT1":424.9,"yT1":0,"xT2":1058.1,"yT2":0,"toosoon":0,"cond_shown":"Congruent","ratio_trial":300,"L_num":2,"L_den":10,"R_num":12,"R_den":24,"correct_side":2,"subjID":"SantiagoRochaColmenares19","gender":"0","school":"6","age":"11"},{"start_time":1551891557487,"click_time":1551891563430,"finger_time":1551891559429,"fix_duration":1395.022826124659,"trial":9,"RT":1942,"MT":4001,"sideResp":2,"stimulus":[],"xmouse":[772,772,772,772,772,772,772,772,772,772,772,772,772,772,772,772,772,772,772,772,772,772,772,772,772,772,772,772,772,772,772,772,772,772,772,772,772,772,772,772,772,772,772,772,772,772,772,772,772,772,772,772,772,772,772,772,772,772,772,772,772,772,772,772,772,772,772,772,772,772,772,772,772,772,772,772,772,772,772,772,772,772,772,772,772,772,772,772,772,772,772,772,772,773,776,788,802,845,852,855,856,856,857,858,860,862,867,874,876,879,882,884,890,892,895,898,898,900,901,903,906,911,921,930,936,949,954,974,977,981,983,985,992,995,999,1002,1006,1008,1009,1009,1009,1009,1009,1009,1009,1008,1002,985,975,967,963,961,952,939,925,910,897,889,886,882,881,879,870,865,858,845,832,811,807,805,803,802,799,796,792,791,787,782,780,774,769,766,766,766,766,762,755,711,697,684,669,661,652,648,643,639,636,619,613,608,604,603,601,595,593,589,587,584,581,577,574,571,567,566,566,566,565,563,562,562,562,562,562,563,564,572,580,595,604,615,623,634,658,668,680,683,689,696,698,704,717,738,782,796,803,806,808,809,811,813,815,818,823,827,831,838,845,857,863,869,876,886,911,925,940,951,961,966,968,972,978,984,994,998,1008,1014,1021,1031,1034,1037,1039,1041,1043,1044,1045,1052,1058,1068,1072,1075,1078,1082,1086,1088,1092,1093,1093,1089],"ymouse":[642,642,642,642,642,642,642,642,642,642,642,642,642,642,642,642,642,642,642,642,642,642,642,642,642,642,642,642,642,642,642,642,642,642,642,642,642,642,642,642,642,642,642,642,642,642,642,642,642,642,642,642,642,642,642,642,642,642,642,642,642,642,642,642,642,642,642,642,642,642,642,642,642,642,642,642,642,642,642,642,642,642,642,642,642,642,642,642,642,642,642,642,642,641,636,625,614,590,587,587,587,587,586,585,582,581,577,568,563,557,551,546,534,529,524,516,511,492,483,474,461,444,418,399,381,353,343,299,290,283,277,272,255,245,234,227,219,214,212,212,212,212,212,212,211,211,215,224,227,230,231,231,231,230,226,220,217,216,216,216,216,215,213,211,210,206,202,195,192,191,191,191,191,191,191,191,190,189,189,188,188,187,187,187,187,185,182,174,173,171,169,168,168,168,169,170,171,175,178,179,180,180,180,183,183,185,186,190,193,199,204,212,221,225,229,232,242,261,268,272,277,281,287,291,296,310,321,340,350,358,366,375,382,384,386,387,388,392,392,393,395,398,406,410,412,413,413,413,413,413,413,412,410,410,408,406,404,401,397,395,393,389,381,375,370,365,359,355,352,349,345,341,334,329,318,311,303,288,282,275,270,265,258,252,244,228,219,204,198,194,189,180,165,157,146,130,117,86],"timestamp_mouse":[10,23,44,63,84,104,124,142,162,184,202,223,243,264,283,302,324,342,362,383,403,424,443,463,482,504,522,544,563,583,603,624,642,663,682,703,722,744,762,782,803,824,843,863,882,904,923,943,964,982,1003,1024,1044,1062,1083,1104,1123,1142,1162,1183,1204,1224,1243,1263,1283,1302,1322,1342,1363,1382,1404,1422,1443,1464,1482,1504,1522,1543,1563,1582,1603,1623,1643,1663,1683,1703,1722,1743,1763,1782,1804,1823,1843,1862,1883,1903,1922,1942,1962,1983,2003,2024,2042,2062,2084,2103,2123,2142,2163,2183,2203,2222,2242,2263,2283,2303,2323,2343,2363,2382,2402,2423,2443,2463,2482,2503,2524,2544,2563,2582,2603,2623,2643,2663,2682,2702,2723,2743,2763,2783,2802,2824,2843,2863,2882,2903,2923,2942,2963,2983,3004,3022,3042,3063,3083,3102,3123,3142,3162,3182,3203,3222,3242,3263,3284,3303,3322,3342,3363,3382,3403,3423,3443,3463,3482,3502,3523,3543,3563,3583,3603,3624,3643,3662,3684,3704,3724,3742,3762,3782,3803,3823,3843,3863,3883,3902,3923,3942,3963,3983,4004,4023,4044,4064,4082,4103,4124,4143,4163,4182,4204,4224,4242,4264,4282,4304,4323,4342,4363,4382,4404,4424,4443,4462,4482,4502,4523,4542,4563,4582,4604,4623,4642,4663,4683,4703,4724,4742,4762,4783,4802,4822,4843,4863,4883,4903,4922,4943,4963,4982,5002,5023,5044,5063,5082,5102,5123,5143,5163,5183,5202,5222,5242,5263,5284,5303,5324,5342,5362,5382,5404,5424,5442,5463,5483,5503,5523,5542,5563,5583,5602,5622,5643,5663,5684,5702,5724,5744,5762,5784,5803,5823,5843,5864,5882,5903,5924,5942],"xSR":741.5,"ySR":573.95,"xT1":424.9,"yT1":0,"xT2":1058.1,"yT2":0,"toosoon":0,"cond_shown":"Congruent","ratio_trial":200,"L_num":6,"L_den":12,"R_num":7,"R_den":10,"correct_side":2,"subjID":"SantiagoRochaColmenares19","gender":"0","school":"6","age":"11"},{"start_time":1551891567538,"click_time":1551891569191,"finger_time":1551891568910,"fix_duration":1067.8181101751202,"trial":10,"RT":1372,"MT":281,"sideResp":1,"stimulus":[],"xmouse":[790,790,790,790,790,790,790,790,790,790,790,790,790,790,790,790,790,790,790,790,790,790,790,790,790,790,790,790,790,790,790,790,790,790,790,790,790,790,790,790,790,790,790,790,790,790,790,790,790,790,790,790,790,790,790,790,790,790,790,790,790,790,790,790,790,790,790,786,738,660,469,435,426,421,414,405,405,408,412,417,421,423,429],"ymouse":[624,624,624,624,624,624,624,624,624,624,624,624,624,624,624,624,624,624,624,624,624,624,624,624,624,624,624,624,624,624,624,624,624,624,624,624,624,624,624,624,624,624,624,624,624,624,624,624,624,624,624,624,624,624,624,624,624,624,624,624,624,624,624,624,624,624,623,618,560,478,274,217,197,180,163,136,123,109,97,89,85,84,84],"timestamp_mouse":[13,41,52,74,93,114,133,152,172,193,212,232,253,272,292,312,332,353,373,394,413,432,453,472,494,513,533,552,572,592,612,632,654,672,692,712,732,752,774,792,813,833,854,874,893,912,932,954,973,993,1013,1034,1053,1072,1092,1113,1132,1152,1172,1192,1213,1232,1252,1273,1293,1312,1332,1353,1372,1393,1412,1432,1453,1472,1493,1513,1533,1553,1573,1592,1612,1633,1653],"xSR":741.5,"ySR":573.95,"xT1":424.9,"yT1":0,"xT2":1058.1,"yT2":0,"toosoon":0,"cond_shown":"Congruent","ratio_trial":100,"L_num":10,"L_den":25,"R_num":3,"R_den":10,"correct_side":1,"subjID":"SantiagoRochaColmenares19","gender":"0","school":"6","age":"11"},{"start_time":1551891571350,"click_time":1551891573390,"finger_time":1551891572912,"fix_duration":1338.8136744030423,"trial":11,"RT":1562,"MT":478,"sideResp":2,"stimulus":[],"xmouse":[749,749,749,749,749,749,749,749,749,749,749,749,749,749,751,757,760,761,761,761,761,761,761,761,761,761,761,761,761,761,761,761,761,761,761,761,761,761,761,761,761,761,761,761,761,761,761,761,761,761,761,761,761,761,761,761,761,761,761,761,761,761,761,761,761,761,761,761,761,761,761,761,761,761,767,785,793,804,810,833,870,881,895,910,933,959,1000,1026,1033,1056,1078,1090,1101,1111,1123,1138,1140,1140,1140,1140,1140,1138,1126],"ymouse":[606,606,606,606,606,606,606,606,606,606,606,606,606,606,606,604,603,602,602,602,602,602,602,602,602,602,602,602,602,602,602,602,602,602,602,602,602,602,602,602,602,602,602,602,602,602,602,602,602,602,602,602,602,602,602,602,602,602,602,602,602,602,602,602,602,602,602,602,602,602,602,602,602,602,599,584,579,574,572,569,559,552,540,507,456,413,354,319,303,253,201,179,163,148,135,114,111,109,109,109,108,102,94],"timestamp_mouse":[11,37,40,60,82,100,122,140,161,180,201,220,242,261,281,301,322,340,360,380,400,420,441,462,480,500,521,541,561,581,601,621,641,661,680,701,722,741,761,781,800,820,841,860,880,901,921,940,961,982,1000,1021,1041,1060,1081,1100,1120,1140,1160,1181,1201,1220,1240,1260,1280,1300,1321,1340,1361,1382,1401,1420,1441,1461,1481,1500,1520,1541,1562,1580,1600,1620,1640,1661,1681,1700,1720,1740,1761,1780,1801,1821,1840,1861,1882,1900,1921,1940,1962,1981,2000,2020,2040],"xSR":741.5,"ySR":573.95,"xT1":424.9,"yT1":0,"xT2":1058.1,"yT2":0,"toosoon":0,"cond_shown":"Congruent","ratio_trial":100,"L_num":3,"L_den":20,"R_num":4,"R_den":16,"correct_side":2,"subjID":"SantiagoRochaColmenares19","gender":"0","school":"6","age":"11"},{"start_time":1551891574832,"click_time":1551891576750,"finger_time":1551891576210,"fix_duration":500.2303769268615,"trial":12,"RT":1378,"MT":540,"sideResp":1,"stimulus":[],"xmouse":[806,806,806,806,806,806,806,806,806,806,806,804,801,799,797,794,790,790,790,790,790,790,790,790,790,790,790,790,790,790,790,790,790,790,790,790,790,790,790,790,790,790,790,790,790,790,790,790,790,790,790,790,790,790,790,790,790,790,790,790,790,790,790,790,790,790,787,777,761,747,706,665,636,606,578,549,546,542,536,529,527,527,527,528,531,532,532,532,532,532,532,532,532,531,526,515],"ymouse":[598,598,598,598,598,598,598,598,598,598,598,599,599,599,599,599,599,599,599,599,599,599,599,599,599,599,599,599,599,599,599,599,599,599,599,599,599,599,599,599,599,599,599,599,599,599,599,599,599,599,599,599,599,599,599,599,599,599,599,599,599,599,599,599,599,599,599,576,555,532,470,399,353,304,268,222,202,175,146,125,110,102,96,88,80,71,69,68,66,64,63,63,63,63,62,60],"timestamp_mouse":[31,38,60,78,99,119,139,158,180,199,218,239,259,279,299,318,338,359,378,399,420,440,458,478,499,519,540,558,579,600,618,639,658,679,698,719,739,758,778,798,819,838,859,878,898,920,939,958,978,999,1020,1039,1059,1079,1098,1118,1139,1158,1179,1198,1219,1239,1258,1278,1298,1319,1339,1358,1378,1400,1419,1438,1458,1478,1499,1519,1538,1558,1579,1600,1619,1638,1659,1680,1698,1719,1738,1758,1778,1799,1820,1839,1858,1879,1898,1918],"xSR":741.5,"ySR":573.95,"xT1":424.9,"yT1":0,"xT2":1058.1,"yT2":0,"toosoon":0,"cond_shown":"Congruent","ratio_trial":200,"L_num":12,"L_den":15,"R_num":6,"R_den":10,"correct_side":1,"subjID":"SantiagoRochaColmenares19","gender":"0","school":"6","age":"11"},{"start_time":1551891578603,"click_time":1551891580990,"finger_time":1551891580012,"fix_duration":1048.2158687296132,"trial":13,"RT":1409,"MT":978,"sideResp":1,"stimulus":[],"xmouse":[770,770,770,770,770,770,770,770,770,770,770,770,770,770,770,770,770,770,770,770,770,770,770,770,770,770,770,770,770,770,770,770,770,770,770,770,770,770,770,770,770,770,770,770,770,770,770,770,770,770,770,770,770,770,770,770,770,770,770,770,770,770,770,770,770,770,770,768,759,748,736,722,714,698,687,675,664,654,633,615,597,590,590,596,597,597,597,597,597,597,597,597,597,597,597,597,597,597,597,597,597,592,586,563,552,547,547,546,545,542,540,537,533,533,534,534,534,534,527,519],"ymouse":[627,627,627,627,627,627,627,627,627,627,627,627,627,627,627,627,627,627,627,627,627,627,627,627,627,627,627,627,627,627,627,627,627,627,627,627,627,627,627,627,627,627,627,627,627,627,627,627,627,627,627,627,627,627,627,627,627,627,627,627,627,627,627,627,627,627,627,624,605,585,564,542,526,480,459,440,419,399,352,327,294,271,245,226,224,224,224,224,224,224,224,224,224,224,224,224,224,224,224,224,224,216,206,178,164,153,145,135,114,101,88,74,57,47,45,44,43,43,43,43],"timestamp_mouse":[10,27,47,67,88,107,129,147,167,187,208,227,247,267,287,307,329,348,367,387,408,427,447,469,488,508,527,548,567,588,607,627,647,667,688,707,727,748,768,789,808,827,847,868,887,908,927,947,968,988,1008,1027,1047,1069,1088,1107,1128,1147,1168,1187,1207,1227,1247,1267,1288,1307,1327,1347,1368,1387,1409,1427,1447,1467,1487,1509,1528,1548,1568,1588,1607,1627,1648,1668,1687,1708,1728,1747,1768,1787,1807,1828,1848,1867,1889,1908,1927,1947,1968,1989,2008,2027,2048,2068,2087,2107,2127,2148,2168,2188,2208,2228,2247,2267,2287,2307,2327,2348,2367,2387],"xSR":741.5,"ySR":573.95,"xT1":424.9,"yT1":0,"xT2":1058.1,"yT2":0,"toosoon":0,"cond_shown":"Congruent","ratio_trial":300,"L_num":24,"L_den":30,"R_num":2,"R_den":4,"correct_side":1,"subjID":"SantiagoRochaColmenares19","gender":"0","school":"6","age":"11"},{"start_time":1551891582152,"click_time":1551891583791,"finger_time":1551891583470,"fix_duration":580.4011556582325,"trial":14,"RT":1318,"MT":321,"sideResp":1,"stimulus":[],"xmouse":[782,782,782,782,782,782,782,782,782,782,782,782,782,782,782,782,782,782,782,782,782,782,782,782,782,782,782,782,782,782,782,782,782,782,782,782,782,782,782,782,782,782,782,782,782,782,782,782,782,782,782,782,782,782,782,782,782,782,782,782,782,782,782,782,781,748,722,698,675,659,619,592,570,566,558,548,539,532,527,522,522,521],"ymouse":[625,625,625,625,625,625,625,625,625,625,625,625,625,625,625,625,625,625,625,625,625,625,625,625,625,625,625,625,625,625,625,625,625,625,625,625,625,625,625,625,625,625,625,625,625,625,625,625,625,625,625,625,625,625,625,625,625,625,625,625,625,625,625,625,622,564,521,481,443,414,367,332,292,281,251,205,183,165,145,129,107,99],"timestamp_mouse":[19,38,65,79,98,118,138,160,178,199,218,238,260,278,298,318,339,360,378,398,418,439,459,478,498,518,538,558,579,599,619,639,658,678,698,718,738,760,779,798,818,839,858,878,899,918,938,959,979,998,1019,1038,1058,1079,1099,1119,1139,1158,1178,1199,1219,1239,1258,1278,1298,1318,1338,1358,1380,1400,1418,1439,1458,1478,1498,1518,1539,1558,1578,1598,1619,1639],"xSR":741.5,"ySR":573.95,"xT1":424.9,"yT1":0,"xT2":1058.1,"yT2":0,"toosoon":0,"cond_shown":"Incongruent","ratio_trial":100,"L_num":13,"L_den":26,"R_num":6,"R_den":10,"correct_side":2,"subjID":"SantiagoRochaColmenares19","gender":"0","school":"6","age":"11"},{"start_time":1551891585022,"click_time":1551891587050,"finger_time":1551891586731,"fix_duration":250,"trial":15,"RT":1709,"MT":319,"sideResp":1,"stimulus":[],"xmouse":[821,821,821,821,819,818,818,818,818,818,818,818,818,818,818,818,817,817,817,817,817,817,817,815,811,808,807,807,807,807,807,807,807,807,807,807,805,804,804,804,804,804,804,804,804,804,802,801,801,801,801,801,801,801,799,798,797,796,796,796,795,795,795,795,795,795,795,795,795,795,795,795,795,795,795,795,795,795,795,795,795,795,788,774,748,707,655,595,586,580,573,566,560,548,546,545,544,543,534,525,515,497],"ymouse":[642,642,642,642,643,643,643,643,643,643,643,643,643,643,643,643,642,633,626,619,619,619,619,620,628,633,635,636,636,636,636,636,636,636,636,636,637,637,637,637,637,637,637,637,637,637,638,638,638,638,638,638,638,638,638,638,638,639,639,639,640,640,640,640,640,640,640,640,640,640,640,640,640,640,640,640,640,640,640,640,640,640,637,626,601,555,486,383,342,318,286,258,229,193,183,177,171,166,146,129,113,99],"timestamp_mouse":[12,39,48,68,88,109,129,148,168,189,208,230,248,268,288,308,328,348,370,388,408,429,449,468,488,509,529,549,570,588,608,629,648,668,689,709,728,749,769,789,809,829,849,868,889,909,929,949,969,988,1009,1030,1049,1069,1089,1108,1129,1149,1170,1189,1208,1228,1249,1269,1289,1309,1330,1349,1368,1388,1408,1428,1450,1469,1488,1508,1529,1548,1569,1588,1608,1629,1649,1668,1688,1709,1728,1749,1768,1790,1809,1828,1848,1868,1889,1909,1928,1949,1969,1988,2008,2028],"xSR":741.5,"ySR":573.95,"xT1":424.9,"yT1":0,"xT2":1058.1,"yT2":0,"toosoon":0,"cond_shown":"Congruent","ratio_trial":100,"L_num":11,"L_den":22,"R_num":4,"R_den":10,"correct_side":1,"subjID":"SantiagoRochaColmenares19","gender":"0","school":"6","age":"11"},{"start_time":1551891588026,"click_time":1551891590071,"finger_time":1551891589651,"fix_duration":353.2131970549995,"trial":16,"RT":1625,"MT":420,"sideResp":2,"stimulus":[],"xmouse":[776,776,776,776,776,776,776,776,776,776,776,776,776,776,776,776,776,776,776,776,776,776,776,776,776,776,776,776,776,776,776,776,776,776,776,776,776,776,776,776,776,776,776,776,776,776,776,776,776,776,776,776,776,776,776,776,776,776,776,776,776,776,776,776,776,776,776,776,776,776,776,776,776,776,778,778,780,781,789,801,821,842,855,884,908,938,967,990,1039,1051,1058,1061,1064,1078,1082,1085,1085,1082,1079,1082,1086,1090,1096],"ymouse":[618,618,618,618,618,618,618,618,618,618,618,618,618,618,618,618,618,618,618,618,618,618,618,618,618,618,618,618,618,618,618,618,618,618,618,618,618,618,618,618,618,618,618,618,618,618,618,618,618,618,619,619,619,619,619,619,619,619,619,619,619,619,619,619,619,619,619,619,619,619,619,619,619,619,619,619,619,619,615,603,589,576,563,518,480,436,401,375,317,299,278,254,234,194,181,170,159,145,124,120,113,106,96],"timestamp_mouse":[5,25,44,65,84,104,125,145,164,184,205,225,244,265,285,304,324,344,364,384,404,424,445,464,484,505,525,545,564,586,604,625,644,664,684,704,724,744,765,784,804,824,845,864,884,904,925,944,964,984,1004,1024,1044,1066,1084,1104,1124,1145,1165,1185,1205,1225,1244,1265,1284,1306,1324,1344,1366,1384,1405,1424,1444,1466,1485,1504,1526,1544,1565,1585,1604,1625,1644,1665,1684,1706,1725,1745,1766,1784,1804,1824,1844,1864,1885,1905,1924,1944,1964,1985,2005,2026,2045],"xSR":741.5,"ySR":573.95,"xT1":424.9,"yT1":0,"xT2":1058.1,"yT2":0,"toosoon":0,"cond_shown":"Incongruent","ratio_trial":300,"L_num":2,"L_den":4,"R_num":6,"R_den":30,"correct_side":1,"subjID":"SantiagoRochaColmenares19","gender":"0","school":"6","age":"11"},{"start_time":1551891591196,"click_time":1551891593071,"finger_time":1551891591255,"fix_duration":405.1450760151588,"trial":17,"RT":59,"MT":1816,"sideResp":1,"stimulus":[],"xmouse":[787,787,787,787,787,787,787,788,789,789,789,789,789,789,789,789,789,789,789,791,793,797,798,799,800,800,800,800,799,799,799,799,799,799,799,799,799,799,799,799,799,799,799,799,799,799,799,799,799,799,799,799,799,799,799,799,799,799,799,799,799,799,799,799,799,799,799,799,799,799,797,796,793,784,749,728,709,690,678,648,631,614,601,593,587,583,583,578,572,554,543,534,526,515],"ymouse":[661,671,677,677,678,677,670,656,643,637,637,637,637,637,637,637,637,637,637,634,631,626,623,621,620,620,620,620,621,624,624,624,624,624,624,624,624,624,624,624,624,624,624,624,624,624,624,624,624,624,624,624,624,624,624,624,624,624,624,624,624,624,624,624,624,624,624,624,624,624,621,617,614,605,568,535,494,443,394,312,272,234,202,176,144,135,133,129,126,115,109,103,99,93],"timestamp_mouse":[18,35,59,76,96,114,135,154,175,194,215,236,255,276,295,315,334,354,375,394,415,435,454,475,495,514,534,554,574,594,614,634,655,674,695,715,735,754,774,795,815,835,855,875,894,914,934,954,975,995,1014,1035,1054,1074,1094,1114,1134,1155,1174,1194,1214,1234,1255,1275,1294,1316,1334,1356,1374,1394,1415,1434,1454,1474,1494,1516,1534,1555,1575,1594,1615,1634,1655,1675,1695,1715,1735,1754,1774,1794,1815,1835,1855,1875],"xSR":741.5,"ySR":573.95,"xT1":424.9,"yT1":0,"xT2":1058.1,"yT2":0,"toosoon":0,"cond_shown":"Congruent","ratio_trial":100,"L_num":12,"L_den":30,"R_num":13,"R_den":26,"correct_side":2,"subjID":"SantiagoRochaColmenares19","gender":"0","school":"6","age":"11"},{"start_time":1551891595193,"click_time":1551891596730,"finger_time":1551891596472,"fix_duration":1100.190239023015,"trial":18,"RT":1279,"MT":258,"sideResp":2,"stimulus":[],"xmouse":[784,784,784,784,784,784,781,778,775,772,771,771,771,771,771,771,771,771,771,771,771,771,772,773,774,776,777,781,783,786,786,787,788,788,794,799,800,800,800,800,800,800,800,800,800,800,797,795,794,794,794,794,794,794,794,794,794,794,796,798,808,820,834,847,872,885,899,922,940,960,1008,1030,1046,1059,1070,1078,1082],"ymouse":[614,614,614,614,614,614,618,624,633,649,651,651,651,651,651,651,651,651,651,651,651,651,651,650,649,647,647,644,643,641,640,639,639,638,636,634,634,634,634,634,634,634,634,634,634,634,634,636,637,639,639,639,639,639,639,639,639,640,640,640,635,627,616,600,556,522,480,399,339,278,186,153,131,118,108,102,99],"timestamp_mouse":[18,39,57,78,99,117,137,158,177,197,218,238,257,277,298,317,338,357,378,397,419,437,457,478,498,517,539,557,578,598,618,637,658,678,698,719,737,759,777,797,819,837,857,877,897,917,937,957,977,997,1017,1038,1058,1078,1097,1117,1137,1158,1177,1197,1217,1237,1258,1279,1298,1317,1337,1357,1378,1397,1417,1438,1459,1477,1498,1518,1537],"xSR":741.5,"ySR":573.95,"xT1":424.9,"yT1":0,"xT2":1058.1,"yT2":0,"toosoon":0,"cond_shown":"Incongruent","ratio_trial":100,"L_num":4,"L_den":8,"R_num":8,"R_den":20,"correct_side":1,"subjID":"SantiagoRochaColmenares19","gender":"0","school":"6","age":"11"},{"start_time":1551891598609,"click_time":1551891601811,"finger_time":1551891601270,"fix_duration":798.0951623240938,"trial":19,"RT":2661,"MT":541,"sideResp":2,"stimulus":[],"xmouse":[758,758,758,758,758,761,763,763,763,763,763,764,764,764,764,764,764,764,764,764,764,764,764,764,764,764,764,764,764,764,764,764,764,764,764,764,764,764,764,764,764,764,764,764,764,764,764,764,764,764,764,764,764,764,764,764,764,764,764,764,764,764,764,764,764,764,764,764,764,764,764,764,764,764,764,764,764,764,764,764,764,764,764,764,764,764,764,764,764,764,764,764,764,764,764,764,764,764,764,764,764,764,764,764,764,764,764,764,764,764,764,764,764,764,764,764,764,764,764,764,764,764,764,764,764,764,764,764,764,765,775,791,814,839,886,920,933,946,955,961,971,978,982,987,993,1000,1009,1013,1023,1045,1063,1086,1092,1097,1102,1108,1122,1127,1134,1137,1142],"ymouse":[598,598,598,598,598,604,606,606,606,607,607,607,607,607,607,607,607,607,607,607,607,607,607,607,607,607,607,607,607,607,607,607,607,607,607,607,607,607,607,607,607,607,607,607,607,607,607,607,607,607,607,607,607,607,607,607,607,607,607,607,607,607,607,607,607,607,607,607,607,607,607,607,607,607,607,607,607,607,607,607,607,607,607,607,607,607,607,607,607,607,607,607,607,607,607,607,607,607,607,607,607,607,607,607,607,607,607,607,607,607,607,607,607,607,607,607,607,607,607,607,607,607,607,607,607,607,607,607,607,607,603,592,577,561,529,491,474,455,444,436,424,413,404,391,379,367,353,346,335,316,303,267,250,232,213,194,155,136,113,105,92],"timestamp_mouse":[11,38,41,61,81,101,122,142,162,182,201,221,241,262,282,301,322,341,363,382,401,422,441,462,481,501,521,542,561,581,601,621,641,661,682,702,721,742,763,781,801,821,842,862,881,902,922,942,963,982,1001,1022,1041,1062,1082,1101,1122,1143,1161,1182,1203,1221,1241,1262,1281,1302,1321,1341,1362,1382,1402,1421,1443,1461,1483,1503,1521,1543,1561,1582,1601,1622,1641,1662,1682,1701,1721,1741,1763,1781,1801,1821,1843,1861,1881,1901,1921,1942,1961,1982,2002,2022,2042,2062,2083,2102,2121,2142,2161,2181,2201,2222,2242,2262,2281,2302,2321,2343,2362,2381,2401,2421,2441,2463,2482,2501,2522,2541,2562,2581,2602,2623,2641,2661,2682,2701,2722,2742,2761,2782,2802,2821,2841,2861,2881,2902,2922,2942,2961,2981,3002,3021,3042,3062,3081,3102,3122,3141,3161,3181,3202],"xSR":741.5,"ySR":573.95,"xT1":424.9,"yT1":0,"xT2":1058.1,"yT2":0,"toosoon":0,"cond_shown":"Congruent","ratio_trial":300,"L_num":1,"L_den":5,"R_num":6,"R_den":12,"correct_side":2,"subjID":"SantiagoRochaColmenares19","gender":"0","school":"6","age":"11"},{"start_time":1551891603249,"click_time":1551891604931,"finger_time":1551891604711,"fix_duration":436.77518995965903,"trial":20,"RT":1462,"MT":220,"sideResp":1,"stimulus":[],"xmouse":[811,811,811,811,811,811,811,811,811,811,811,811,811,811,811,811,811,811,811,811,811,811,811,811,811,811,811,811,811,811,811,811,811,811,811,811,811,811,811,811,811,811,811,811,811,811,811,811,811,811,811,811,811,811,811,811,811,811,810,808,805,805,804,803,803,803,803,803,803,801,795,789,779,763,711,682,635,606,584,564,557,545,535,528,523],"ymouse":[608,608,608,608,608,608,608,608,608,608,608,608,608,608,608,608,608,608,608,608,608,608,608,608,608,608,608,608,608,608,608,608,608,608,608,608,608,608,608,608,608,608,608,608,608,608,608,608,608,608,608,608,608,608,608,608,608,608,609,611,613,614,615,616,616,616,616,616,616,617,607,598,584,565,494,455,389,341,290,189,145,106,84,72,65],"timestamp_mouse":[9,32,43,62,82,101,121,142,161,182,201,221,242,261,282,301,322,342,361,381,401,421,442,462,482,501,523,542,561,581,602,621,642,661,681,701,721,741,762,783,802,821,841,861,883,901,921,942,962,981,1001,1022,1041,1061,1081,1103,1122,1141,1161,1182,1202,1222,1242,1261,1282,1303,1322,1341,1362,1381,1401,1423,1442,1462,1482,1503,1521,1541,1562,1581,1601,1621,1642,1661,1681],"xSR":741.5,"ySR":573.95,"xT1":424.9,"yT1":0,"xT2":1058.1,"yT2":0,"toosoon":0,"cond_shown":"Incongruent","ratio_trial":300,"L_num":4,"L_den":20,"R_num":2,"R_den":4,"correct_side":2,"subjID":"SantiagoRochaColmenares19","gender":"0","school":"6","age":"11"},{"start_time":1551891606781,"click_time":1551891610631,"finger_time":1551891609431,"fix_duration":949.5056350952322,"trial":21,"RT":2650,"MT":1200,"sideResp":1,"stimulus":[],"xmouse":[828,827,827,824,824,823,823,823,823,822,822,822,822,822,822,822,822,822,822,822,822,822,822,822,822,822,822,822,822,822,822,822,822,822,822,822,822,822,822,822,822,822,822,822,822,822,822,822,822,822,822,822,822,822,822,822,822,822,822,822,822,822,822,822,822,822,822,822,822,822,822,822,822,820,820,820,820,820,820,820,820,820,820,820,820,820,820,820,820,820,820,820,820,819,819,818,817,816,812,808,805,804,804,803,800,796,793,792,792,792,792,792,791,788,787,787,787,787,787,787,787,787,787,787,787,787,785,784,777,776,773,767,751,696,663,629,607,598,573,556,536,519,512,511,511,511,511,511,511,511,511,511,511,511,511,511,511,511,511,510,510,510,510,510,510,510,510,510,510,510,510,509,508,508,507,507,507,506,506,506,506,506,506,506,506,506,506,506,506,506,506,506,506],"ymouse":[640,640,640,640,640,640,640,640,640,640,640,640,640,640,640,640,640,640,640,640,640,640,640,640,640,640,640,640,640,640,640,640,640,640,640,640,640,640,640,640,640,640,640,640,640,640,640,640,640,640,640,640,640,640,640,640,640,640,640,640,640,640,640,640,640,640,640,640,640,640,640,640,640,641,641,641,641,641,641,641,641,641,641,641,641,641,641,641,641,641,641,641,641,641,641,641,641,641,641,638,636,634,634,634,631,627,624,622,622,622,622,622,621,621,621,621,621,621,621,621,621,621,621,621,621,621,620,616,603,599,591,575,549,479,441,407,385,371,308,270,224,186,164,151,147,144,143,142,140,140,139,138,135,129,128,127,126,126,123,122,122,122,121,121,120,120,120,120,120,120,119,118,116,114,114,113,112,110,107,107,107,107,107,105,105,104,104,104,103,102,101,100,99],"timestamp_mouse":[9,39,50,70,89,110,130,150,169,189,209,229,249,269,290,309,331,349,369,389,409,430,451,469,489,509,529,549,569,589,610,629,650,670,689,710,729,749,769,789,809,829,849,870,889,909,929,949,969,989,1009,1029,1051,1069,1090,1109,1129,1149,1169,1189,1209,1229,1249,1270,1289,1309,1330,1349,1369,1389,1410,1429,1450,1469,1489,1510,1530,1551,1570,1590,1611,1630,1651,1670,1690,1709,1729,1750,1770,1790,1809,1829,1849,1870,1889,1909,1929,1949,1970,1990,2010,2029,2049,2069,2090,2109,2129,2151,2170,2189,2209,2230,2249,2269,2289,2309,2329,2349,2369,2389,2409,2430,2450,2470,2489,2509,2529,2550,2570,2589,2610,2630,2650,2670,2690,2711,2729,2750,2770,2790,2810,2829,2849,2870,2890,2909,2930,2950,2969,2990,3011,3029,3049,3069,3089,3109,3129,3150,3169,3190,3210,3229,3250,3270,3289,3310,3329,3350,3370,3390,3409,3429,3450,3469,3489,3510,3529,3550,3569,3591,3611,3629,3650,3669,3689,3710,3730,3750,3769,3789,3809,3829,3850],"xSR":741.5,"ySR":573.95,"xT1":424.9,"yT1":0,"xT2":1058.1,"yT2":0,"toosoon":0,"cond_shown":"Congruent","ratio_trial":100,"L_num":3,"L_den":6,"R_num":2,"R_den":5,"correct_side":1,"subjID":"SantiagoRochaColmenares19","gender":"0","school":"6","age":"11"},{"start_time":1551891612104,"click_time":1551891616931,"finger_time":1551891613791,"fix_duration":253.1475599594395,"trial":22,"RT":1687,"MT":3140,"sideResp":2,"stimulus":[],"xmouse":[810,810,810,810,810,810,810,810,810,810,810,810,810,810,810,810,810,810,810,810,810,810,810,810,810,810,810,810,810,810,810,810,810,810,810,810,810,810,810,810,810,810,810,810,810,810,810,810,810,810,810,810,810,810,810,810,810,810,810,810,810,810,810,810,810,810,810,810,810,810,810,810,810,810,810,810,809,811,811,811,811,810,793,785,779,774,767,748,740,731,722,717,707,704,700,697,689,679,674,671,667,664,654,646,639,633,628,627,627,627,627,627,627,627,627,627,626,625,625,624,624,623,622,621,620,620,620,620,620,620,620,620,620,620,620,621,633,671,706,718,752,773,816,846,873,892,901,920,933,937,948,953,958,960,960,960,962,969,975,980,985,990,1005,1009,1013,1015,1016,1018,1019,1019,1020,1020,1024,1026,1029,1032,1034,1040,1041,1044,1045,1047,1047,1048,1048,1049,1049,1051,1052,1053,1054,1055,1056,1058,1059,1059,1060,1061,1061,1061,1061,1061,1061,1061,1061,1062,1062,1062,1062,1062,1062,1062,1062,1063,1063,1063,1064,1064,1064,1064,1064,1064,1064,1064,1064,1064,1064,1064,1064,1064,1064,1064,1064,1064,1064,1064,1064,1064,1064,1064,1063,1062],"ymouse":[630,630,630,630,630,630,630,630,630,630,630,630,630,630,630,630,630,630,630,630,630,630,630,630,630,630,630,630,630,630,630,630,630,630,630,630,630,630,630,630,630,630,630,630,630,630,630,630,630,630,630,630,630,630,630,630,630,630,630,630,630,630,630,630,630,630,630,630,630,630,630,630,630,630,630,630,627,619,619,619,617,612,594,582,571,560,545,510,492,472,447,433,407,398,387,374,361,343,336,332,325,320,305,291,280,270,258,255,254,253,253,253,253,252,250,250,247,242,238,233,229,225,218,216,214,214,214,214,214,214,214,214,214,214,214,213,213,217,222,222,222,217,203,194,185,179,175,169,163,162,158,155,154,152,152,152,152,150,148,146,145,143,141,141,141,140,139,138,138,138,138,137,136,135,133,132,131,129,129,127,127,126,126,125,125,124,124,123,122,121,120,119,117,116,115,114,113,113,112,112,112,112,112,112,112,111,111,111,111,111,111,111,110,110,109,108,107,107,106,106,106,106,106,106,106,106,106,106,105,105,104,103,103,103,102,102,102,102,101,101,100,99],"timestamp_mouse":[11,32,46,66,87,108,126,146,166,188,206,227,246,266,286,306,326,346,368,388,406,428,446,466,486,507,527,546,566,586,607,626,646,666,686,707,727,747,766,788,807,826,847,866,886,908,926,947,967,987,1006,1026,1046,1066,1087,1106,1126,1146,1166,1186,1206,1227,1246,1266,1286,1306,1327,1347,1366,1386,1406,1426,1446,1467,1487,1506,1526,1546,1567,1587,1607,1627,1646,1667,1687,1706,1726,1747,1766,1786,1806,1827,1846,1867,1886,1907,1927,1946,1966,1986,2007,2026,2046,2067,2086,2107,2126,2147,2166,2186,2206,2227,2246,2267,2287,2307,2326,2346,2368,2386,2406,2427,2446,2467,2487,2506,2526,2547,2566,2586,2606,2627,2647,2677,2686,2707,2726,2746,2766,2787,2806,2828,2847,2866,2886,2907,2926,2946,2966,2986,3007,3027,3046,3067,3086,3107,3127,3146,3166,3187,3206,3228,3246,3266,3286,3307,3326,3346,3366,3386,3406,3426,3446,3466,3487,3507,3527,3547,3566,3587,3606,3627,3647,3666,3686,3707,3727,3747,3766,3786,3807,3826,3846,3867,3886,3907,3926,3947,3966,3986,4006,4027,4048,4066,4087,4106,4127,4147,4167,4187,4207,4227,4246,4267,4287,4307,4326,4346,4366,4386,4407,4427,4448,4467,4487,4506,4526,4546,4567,4586,4607,4627,4648,4668,4686,4706,4727,4746,4768,4786,4807,4827],"xSR":741.5,"ySR":573.95,"xT1":424.9,"yT1":0,"xT2":1058.1,"yT2":0,"toosoon":0,"cond_shown":"Incongruent","ratio_trial":200,"L_num":4,"L_den":30,"R_num":1,"R_den":3,"correct_side":2,"subjID":"SantiagoRochaColmenares19","gender":"0","school":"6","age":"11"},{"start_time":1551891618989,"click_time":1551891620691,"finger_time":1551891620371,"fix_duration":717.3135192070268,"trial":23,"RT":1382,"MT":320,"sideResp":2,"stimulus":[],"xmouse":[743,743,743,743,743,743,743,743,743,743,743,743,743,743,743,743,743,743,743,743,743,743,743,743,743,743,743,743,743,743,743,743,743,743,743,743,743,743,743,743,743,743,743,743,743,743,743,743,743,743,743,743,743,743,743,743,743,743,743,743,743,743,743,743,743,748,757,772,788,835,864,898,929,993,1082,1106,1121,1130,1136,1140,1141,1142,1142,1142,1144,1145],"ymouse":[615,615,615,615,615,615,615,615,615,615,615,615,615,615,615,615,615,615,615,615,615,615,615,615,615,615,615,615,615,615,615,615,615,615,615,615,615,615,615,615,615,615,615,615,615,615,615,615,615,615,615,615,615,615,615,615,615,615,615,615,615,615,615,615,615,612,604,592,576,525,486,437,395,323,244,215,184,166,152,138,132,128,122,117,100,93],"timestamp_mouse":[11,21,41,62,83,101,121,141,161,181,203,221,241,263,281,301,321,341,361,382,401,421,441,461,481,501,521,542,561,581,602,621,643,662,681,701,721,741,762,781,801,822,841,862,881,901,922,941,961,981,1001,1022,1041,1061,1083,1102,1122,1141,1162,1182,1202,1223,1242,1263,1282,1301,1321,1342,1362,1382,1402,1421,1441,1462,1481,1502,1521,1541,1561,1582,1602,1622,1641,1662,1681,1701],"xSR":741.5,"ySR":573.95,"xT1":424.9,"yT1":0,"xT2":1058.1,"yT2":0,"toosoon":0,"cond_shown":"Incongruent","ratio_trial":200,"L_num":7,"L_den":15,"R_num":4,"R_den":6,"correct_side":2,"subjID":"SantiagoRochaColmenares19","gender":"0","school":"6","age":"11"},{"start_time":1551891621768,"click_time":1551891623710,"finger_time":1551891623052,"fix_duration":336.4048732058791,"trial":24,"RT":1284,"MT":658,"sideResp":1,"stimulus":[],"xmouse":[786,786,786,786,786,786,786,786,786,786,786,786,786,786,786,786,786,786,786,786,786,786,786,786,786,786,786,786,786,786,786,786,786,786,786,786,786,786,786,786,786,786,786,786,786,786,786,786,786,786,786,786,786,786,785,784,780,779,778,777,772,769,767,759,747,697,659,623,601,590,565,553,544,534,531,528,526,525,524,523,522,516,509,503,496,484,466,466,466,466,466,466,466,466,466,465,465,465],"ymouse":[604,604,604,604,604,604,604,604,604,604,604,604,604,604,604,604,604,604,604,604,604,604,604,604,604,604,604,604,604,604,604,604,604,604,604,604,604,604,604,604,604,604,604,604,604,604,604,604,604,604,604,604,604,604,604,604,604,603,603,602,596,593,592,577,551,456,387,319,258,205,103,66,40,11,5,0,0,0,0,0,0,0,0,0,0,0,0,0,0,0,0,0,0,0,0,0,0,1],"timestamp_mouse":[10,32,43,63,84,102,122,143,162,182,203,222,242,264,282,302,323,344,362,382,403,422,443,462,483,503,523,543,562,584,603,623,644,662,683,702,722,742,764,783,803,823,842,863,882,902,922,944,962,983,1002,1023,1042,1062,1083,1102,1122,1142,1163,1182,1203,1223,1243,1262,1284,1303,1322,1342,1362,1383,1402,1423,1444,1462,1482,1502,1523,1542,1563,1582,1603,1623,1642,1662,1682,1703,1722,1742,1763,1782,1803,1822,1842,1863,1882,1902,1923,1942],"xSR":741.5,"ySR":573.95,"xT1":424.9,"yT1":0,"xT2":1058.1,"yT2":0,"toosoon":0,"cond_shown":"Incongruent","ratio_trial":100,"L_num":6,"L_den":10,"R_num":13,"R_den":26,"correct_side":1,"subjID":"SantiagoRochaColmenares19","gender":"0","school":"6","age":"11"},{"start_time":1551891625602,"click_time":1551891627329,"finger_time":1551891626969,"fix_duration":350.4571566382667,"trial":25,"RT":1367,"MT":360,"sideResp":2,"stimulus":[],"xmouse":[807,807,807,807,807,807,807,807,807,807,807,807,807,807,807,807,807,807,807,807,807,807,807,807,807,807,807,807,807,807,807,807,807,805,802,802,802,802,802,802,802,802,802,802,802,802,802,802,802,802,802,802,802,802,802,802,802,802,802,802,802,802,802,802,802,804,813,826,847,908,925,940,951,956,977,993,1013,1018,1032,1057,1072,1084,1091,1095,1105,1115,1133],"ymouse":[653,653,653,653,653,653,653,653,653,653,653,653,653,653,653,653,653,653,653,653,653,653,653,653,653,653,653,653,653,653,653,653,653,653,653,652,652,652,652,652,652,652,652,652,652,652,652,652,652,652,652,652,652,652,652,652,652,652,652,652,652,652,652,652,652,649,638,620,588,490,441,408,397,392,366,340,298,286,254,218,199,182,168,157,128,104,74],"timestamp_mouse":[13,37,47,67,88,107,127,148,168,188,207,228,249,268,288,307,328,347,369,388,407,429,447,469,488,507,527,548,567,588,609,627,648,668,688,707,728,748,767,788,807,827,849,867,888,908,927,949,969,988,1007,1027,1047,1068,1088,1109,1127,1149,1168,1188,1207,1227,1247,1268,1288,1307,1328,1348,1367,1387,1407,1427,1448,1469,1488,1509,1527,1548,1567,1588,1608,1627,1648,1667,1688,1708,1727],"xSR":741.5,"ySR":573.95,"xT1":424.9,"yT1":0,"xT2":1058.1,"yT2":0,"toosoon":0,"cond_shown":"Incongruent","ratio_trial":200,"L_num":14,"L_den":30,"R_num":6,"R_den":9,"correct_side":2,"subjID":"SantiagoRochaColmenares19","gender":"0","school":"6","age":"11"},{"start_time":1551891631053,"click_time":1551891632691,"finger_time":1551891632590,"fix_duration":1481.9733364301783,"trial":26,"RT":1537,"MT":101,"sideResp":1,"stimulus":[],"xmouse":[791,791,791,791,791,791,791,791,791,791,791,791,791,791,791,791,791,791,791,791,791,791,791,791,791,791,791,791,791,791,791,791,791,791,791,791,791,791,791,791,791,791,791,791,791,791,791,791,791,791,791,791,791,791,791,791,791,791,791,791,791,791,791,791,791,791,788,783,779,777,774,774,774,774,774,766,727,695,658,616,579,522],"ymouse":[628,628,628,628,628,628,628,628,628,628,628,628,628,628,628,628,628,628,628,628,628,628,628,628,628,628,628,628,628,628,628,628,628,628,628,628,628,628,628,628,628,628,628,628,628,628,628,628,628,628,628,628,628,628,628,628,628,628,628,628,628,628,628,628,628,628,627,624,621,620,617,617,617,617,616,605,524,456,377,293,219,85],"timestamp_mouse":[18,38,57,76,96,118,136,156,178,197,218,236,258,277,298,317,336,358,378,397,417,438,456,477,496,516,537,556,578,596,617,637,656,678,697,716,737,756,777,797,816,838,858,877,897,917,938,956,977,997,1016,1037,1057,1076,1097,1117,1137,1156,1177,1196,1218,1236,1256,1278,1296,1318,1336,1357,1377,1397,1418,1437,1458,1476,1497,1517,1537,1557,1576,1597,1616,1638],"xSR":741.5,"ySR":573.95,"xT1":424.9,"yT1":0,"xT2":1058.1,"yT2":0,"toosoon":0,"cond_shown":"Congruent","ratio_trial":300,"L_num":1,"L_den":5,"R_num":3,"R_den":6,"correct_side":2,"subjID":"SantiagoRochaColmenares19","gender":"0","school":"6","age":"11"},{"start_time":1551891634820,"click_time":1551891637949,"finger_time":1551891636509,"fix_duration":509.54979244196807,"trial":27,"RT":1689,"MT":1440,"sideResp":1,"stimulus":[],"xmouse":[768,769,769,769,769,769,769,769,769,769,769,770,770,770,770,770,770,770,770,770,770,770,770,770,770,770,770,770,770,770,770,770,770,770,770,770,770,770,770,770,770,770,770,770,770,770,770,770,770,770,770,770,770,770,770,770,770,770,770,770,770,770,770,770,770,770,770,770,770,770,770,770,770,770,770,770,770,770,770,770,770,770,769,764,739,728,709,693,680,661,652,643,634,629,619,608,602,597,592,583,576,568,553,546,542,542,542,542,542,539,538,536,534,532,531,531,531,531,531,531,531,531,531,531,531,531,531,531,531,531,531,531,531,531,531,531,531,531,531,531,531,531,531,531,531,531,531,531,531,531,531,531,531,531,531,526,523],"ymouse":[628,628,628,628,628,628,628,628,628,628,628,628,628,628,628,628,628,628,628,628,629,629,629,629,629,629,629,629,629,629,629,629,629,629,629,629,629,629,629,629,629,629,629,629,629,629,629,629,629,629,629,629,629,629,629,629,629,629,629,629,629,629,629,629,629,629,629,629,629,629,629,629,629,629,629,629,629,629,629,629,629,630,630,606,402,320,253,208,183,158,150,141,131,127,116,109,105,101,98,94,90,87,81,79,77,77,77,77,77,76,75,74,72,71,71,71,71,71,71,71,71,71,71,71,71,71,71,71,71,71,71,71,71,71,71,71,71,71,71,71,71,71,71,71,71,71,71,71,71,71,71,71,71,71,71,71,71],"timestamp_mouse":[13,38,49,69,90,110,130,149,170,190,210,229,249,270,289,311,330,350,370,390,409,431,451,471,489,511,531,550,570,589,609,630,649,669,689,710,730,750,770,790,811,830,850,869,889,909,930,951,970,990,1010,1030,1049,1070,1090,1110,1131,1149,1170,1189,1211,1229,1249,1269,1291,1309,1329,1351,1369,1391,1409,1429,1451,1471,1489,1510,1530,1550,1569,1590,1609,1630,1651,1670,1689,1709,1729,1749,1769,1790,1810,1831,1849,1870,1889,1910,1929,1950,1969,1989,2011,2029,2049,2069,2090,2111,2131,2151,2169,2189,2209,2230,2249,2269,2290,2311,2330,2349,2370,2389,2410,2430,2450,2470,2490,2509,2529,2549,2571,2590,2609,2629,2649,2671,2690,2710,2731,2749,2771,2789,2810,2829,2849,2870,2891,2909,2929,2950,2970,2990,3010,3029,3051,3070,3089,3110,3129],"xSR":741.5,"ySR":573.95,"xT1":424.9,"yT1":0,"xT2":1058.1,"yT2":0,"toosoon":0,"cond_shown":"Congruent","ratio_trial":200,"L_num":3,"L_den":10,"R_num":11,"R_den":22,"correct_side":2,"subjID":"SantiagoRochaColmenares19","gender":"0","school":"6","age":"11"},{"start_time":1551891639850,"click_time":1551891642509,"finger_time":1551891641450,"fix_duration":517.8515816693774,"trial":28,"RT":1600,"MT":1059,"sideResp":2,"stimulus":[],"xmouse":[763,763,763,763,763,763,763,763,763,763,763,763,763,763,763,763,763,763,763,763,763,763,763,763,763,763,763,763,763,763,763,763,763,763,763,763,763,763,763,763,763,763,763,763,763,763,763,763,763,763,763,763,763,763,763,763,763,763,763,763,763,763,763,763,763,763,763,763,763,763,763,763,763,763,763,767,773,780,789,794,799,804,813,824,856,876,895,919,949,958,964,966,967,968,972,973,978,982,989,993,998,1002,1006,1009,1014,1017,1020,1025,1030,1035,1036,1036,1036,1038,1038,1039,1041,1042,1044,1045,1046,1047,1047,1049,1051,1052,1053,1053,1056,1056,1056,1057,1058,1059],"ymouse":[644,644,644,644,644,644,644,644,644,644,644,644,644,644,644,644,644,644,644,644,644,644,644,644,644,644,644,644,644,644,644,644,644,644,644,644,644,644,644,644,644,644,644,644,644,644,644,644,644,646,646,646,646,646,646,646,646,646,646,646,646,646,646,646,646,646,646,646,646,646,646,646,646,646,646,636,629,616,596,580,563,545,521,493,415,369,328,288,243,225,204,196,193,188,177,171,165,158,147,142,138,135,132,130,127,125,123,119,116,113,112,112,112,111,111,109,108,107,105,104,103,102,101,101,100,98,98,97,97,97,97,96,96,96],"timestamp_mouse":[8,21,43,60,79,100,119,141,159,180,200,220,241,259,279,300,319,340,359,380,400,420,439,459,479,500,521,539,559,580,599,620,640,659,680,701,719,741,760,779,799,820,840,860,879,900,919,940,962,979,999,1019,1041,1059,1079,1099,1120,1141,1159,1180,1200,1221,1240,1259,1281,1299,1320,1340,1359,1379,1401,1420,1439,1459,1480,1499,1519,1540,1561,1579,1600,1619,1641,1660,1680,1700,1719,1739,1760,1779,1799,1820,1840,1859,1879,1899,1920,1940,1960,1979,2000,2020,2039,2059,2079,2099,2120,2139,2161,2181,2200,2220,2239,2260,2279,2300,2320,2340,2360,2379,2400,2421,2440,2459,2480,2499,2520,2539,2560,2579,2599,2620,2640,2659],"xSR":741.5,"ySR":573.95,"xT1":424.9,"yT1":0,"xT2":1058.1,"yT2":0,"toosoon":0,"cond_shown":"Congruent","ratio_trial":200,"L_num":16,"L_den":20,"R_num":12,"R_den":20,"correct_side":1,"subjID":"SantiagoRochaColmenares19","gender":"0","school":"6","age":"11"},{"start_time":1551891644236,"click_time":1551891647351,"finger_time":1551891646310,"fix_duration":704.3181294391902,"trial":29,"RT":2074,"MT":1041,"sideResp":1,"stimulus":[],"xmouse":[762,762,762,762,762,762,762,762,762,762,762,762,762,762,762,762,762,762,762,762,762,762,762,762,762,762,762,762,762,762,762,762,762,762,762,762,762,762,762,762,762,762,762,762,762,762,762,762,762,762,762,762,762,762,762,762,762,762,762,762,762,762,762,762,762,762,762,762,762,762,762,762,762,762,762,762,762,762,762,762,762,762,762,762,762,762,762,762,762,762,762,762,762,762,762,762,762,762,763,763,762,758,753,747,723,703,671,637,621,616,613,607,597,586,566,554,543,532,521,510,504,497,491,487,484,483,482,481,481,481,481,481,481,481,481,481,481,481,481,481,482,482,482,482,482,482,482,482,482,482,482,482,482,482,484,484],"ymouse":[613,613,613,613,613,613,613,613,613,613,613,613,613,613,613,613,613,613,613,613,613,613,613,613,613,613,613,613,613,613,613,613,613,613,613,613,613,613,613,613,613,613,613,613,613,613,613,613,613,613,613,613,613,613,613,613,613,613,613,613,613,613,613,613,613,613,613,613,613,613,613,613,613,613,613,613,613,613,613,613,613,613,613,613,613,613,613,613,613,613,612,612,611,611,611,611,611,608,606,596,592,585,579,571,544,522,482,423,379,341,326,312,297,286,272,262,255,247,238,225,214,201,187,174,162,159,155,150,149,149,149,148,148,148,143,141,138,131,128,123,114,113,111,110,110,110,110,110,110,110,110,110,109,107,101,98],"timestamp_mouse":[14,41,54,74,94,113,135,155,173,193,213,235,255,273,294,313,335,355,373,393,414,433,453,475,493,513,534,554,575,594,613,634,653,675,694,713,735,755,775,793,814,833,854,874,893,913,935,953,973,995,1015,1034,1055,1073,1094,1115,1133,1153,1175,1194,1215,1233,1255,1273,1294,1314,1334,1353,1373,1395,1413,1435,1454,1474,1495,1513,1535,1554,1574,1595,1615,1633,1654,1674,1694,1715,1733,1753,1774,1794,1813,1834,1854,1874,1894,1914,1933,1953,1974,1994,2013,2034,2053,2074,2094,2114,2133,2153,2173,2193,2213,2233,2254,2273,2293,2314,2333,2353,2373,2394,2414,2434,2453,2473,2493,2514,2533,2553,2573,2593,2614,2635,2653,2673,2693,2713,2735,2754,2774,2793,2814,2835,2853,2873,2894,2914,2933,2953,2975,2994,3015,3033,3053,3073,3093,3114],"xSR":741.5,"ySR":573.95,"xT1":424.9,"yT1":0,"xT2":1058.1,"yT2":0,"toosoon":0,"cond_shown":"Congruent","ratio_trial":100,"L_num":3,"L_den":6,"R_num":2,"R_den":5,"correct_side":1,"subjID":"SantiagoRochaColmenares19","gender":"0","school":"6","age":"11"},{"start_time":1551891649493,"click_time":1551891651830,"finger_time":1551891651050,"fix_duration":1241.1784442555122,"trial":30,"RT":1557,"MT":780,"sideResp":1,"stimulus":[],"xmouse":[771,771,771,771,771,771,771,771,771,771,771,771,771,771,771,771,771,771,771,771,771,771,771,771,771,771,771,771,771,771,771,771,771,771,771,771,771,771,771,771,771,771,771,771,771,771,771,771,771,771,771,771,771,771,771,771,771,771,771,771,771,771,771,771,771,771,771,771,771,771,771,766,755,755,755,754,699,654,615,587,562,559,559,559,557,555,552,551,548,545,538,537,535,535,535,535,536,538,539,539,535,531,528,527,527,526,526,525,525,525,525,525,525,525,525,520],"ymouse":[653,653,653,653,653,653,653,653,653,653,653,653,653,653,653,653,653,653,653,653,653,653,653,653,653,653,653,653,653,653,653,653,653,653,653,653,653,653,653,653,653,653,653,653,653,653,653,653,653,653,653,653,653,653,653,653,653,654,654,654,654,654,654,654,654,654,654,654,654,654,654,653,644,629,606,578,462,399,346,310,270,244,227,213,203,197,189,183,172,162,147,145,143,141,140,140,138,133,127,120,103,95,89,88,88,86,85,85,85,85,85,85,85,85,85,85],"timestamp_mouse":[38,56,78,97,117,137,156,177,198,217,236,256,277,297,318,336,357,377,396,418,437,457,476,497,518,538,556,576,597,616,637,656,678,697,716,736,756,777,796,816,838,857,876,896,917,937,958,976,998,1017,1038,1057,1077,1096,1117,1136,1157,1177,1198,1216,1238,1256,1276,1298,1316,1336,1358,1376,1396,1417,1437,1456,1476,1497,1516,1536,1557,1578,1597,1616,1638,1657,1678,1697,1716,1736,1757,1777,1798,1816,1837,1856,1877,1897,1916,1936,1956,1977,1997,2017,2037,2056,2076,2097,2118,2138,2157,2176,2197,2218,2236,2256,2276,2296,2317,2337],"xSR":741.5,"ySR":573.95,"xT1":424.9,"yT1":0,"xT2":1058.1,"yT2":0,"toosoon":0,"cond_shown":"Incongruent","ratio_trial":100,"L_num":6,"L_den":10,"R_num":13,"R_den":26,"correct_side":1,"subjID":"SantiagoRochaColmenares19","gender":"0","school":"6","age":"11"},{"start_time":1551891652887,"click_time":1551891654570,"finger_time":1551891654351,"fix_duration":375.37746222336665,"trial":31,"RT":1464,"MT":219,"sideResp":2,"stimulus":[],"xmouse":[765,765,765,765,765,765,765,765,765,765,765,765,765,765,765,765,765,765,765,765,765,765,765,765,765,765,765,765,765,765,765,765,765,765,765,765,765,765,765,765,765,765,765,765,765,765,765,765,765,765,765,765,765,765,765,765,765,765,765,765,765,765,765,765,765,765,765,765,765,765,766,773,811,889,922,955,998,1044,1102,1110,1115,1121,1129,1131,1131],"ymouse":[633,633,633,633,633,633,633,633,633,633,633,633,633,633,633,633,633,633,633,633,633,633,633,633,633,633,633,633,633,633,633,633,633,633,633,633,633,633,633,633,633,633,633,633,633,633,633,633,633,633,633,633,633,633,633,633,633,633,633,633,633,633,633,633,633,633,633,633,633,633,632,626,586,519,489,451,398,318,179,155,137,123,106,102,97],"timestamp_mouse":[11,24,44,62,83,103,123,142,163,184,202,223,243,262,284,302,324,344,362,382,402,423,443,462,484,502,522,544,562,583,602,624,643,663,682,703,723,744,763,782,803,823,844,863,882,903,922,943,964,982,1003,1023,1043,1063,1084,1102,1124,1143,1162,1183,1204,1223,1242,1263,1284,1304,1322,1342,1363,1384,1403,1423,1443,1464,1483,1502,1523,1543,1563,1583,1602,1623,1643,1662,1683],"xSR":741.5,"ySR":573.95,"xT1":424.9,"yT1":0,"xT2":1058.1,"yT2":0,"toosoon":0,"cond_shown":"Incongruent","ratio_trial":300,"L_num":13,"L_den":26,"R_num":12,"R_den":15,"correct_side":2,"subjID":"SantiagoRochaColmenares19","gender":"0","school":"6","age":"11"},{"start_time":1551891656603,"click_time":1551891658189,"finger_time":1551891657890,"fix_duration":653.0254460105904,"trial":32,"RT":1287,"MT":299,"sideResp":2,"stimulus":[],"xmouse":[790,790,790,790,790,790,790,790,790,790,790,790,790,790,790,790,790,790,790,789,787,785,785,785,785,785,785,785,785,785,785,785,785,785,785,785,785,785,785,785,785,785,785,785,785,785,785,785,785,785,785,785,785,785,785,785,785,785,785,785,786,789,816,834,864,917,950,1023,1047,1065,1080,1086,1087,1083,1078,1073,1073,1078,1082,1086],"ymouse":[641,641,641,641,641,641,641,641,641,641,641,641,641,641,641,641,641,641,641,641,641,641,641,641,641,641,641,641,641,641,641,641,641,641,641,641,641,641,641,641,641,641,641,641,641,641,641,641,641,641,641,641,641,641,641,641,641,641,641,641,640,639,620,606,587,548,513,418,366,326,281,252,210,193,173,149,135,116,107,98],"timestamp_mouse":[15,28,47,67,87,108,127,147,168,188,206,227,247,267,286,308,327,347,367,386,408,426,446,467,487,507,527,546,566,586,607,626,647,666,688,706,726,748,766,788,808,826,848,867,886,906,927,948,968,986,1006,1026,1047,1067,1087,1107,1126,1147,1168,1188,1207,1227,1247,1267,1287,1307,1326,1346,1367,1387,1407,1427,1446,1467,1486,1506,1526,1546,1567,1586],"xSR":741.5,"ySR":573.95,"xT1":424.9,"yT1":0,"xT2":1058.1,"yT2":0,"toosoon":0,"cond_shown":"Congruent","ratio_trial":200,"L_num":21,"L_den":30,"R_num":2,"R_den":4,"correct_side":1,"subjID":"SantiagoRochaColmenares19","gender":"0","school":"6","age":"11"},{"start_time":1551891659320,"click_time":1551891661991,"finger_time":1551891659390,"fix_duration":368.0895690523971,"trial":33,"RT":70,"MT":2601,"sideResp":2,"stimulus":[],"xmouse":[775,767,763,762,762,759,754,753,752,752,752,752,752,752,758,760,763,765,767,770,772,777,780,783,785,789,791,792,793,796,798,798,798,798,798,798,798,798,798,798,798,798,799,798,793,785,765,755,751,749,749,749,749,748,737,708,645,635,634,634,634,634,634,634,634,634,634,634,634,634,634,634,635,642,672,732,866,902,913,926,935,940,944,944,945,946,954,984,1001,1018,1031,1037,1038,1039,1039,1039,1039,1039,1040,1041,1045,1047,1051,1053,1054,1054,1054,1054,1054,1054,1054,1054,1054,1054,1054,1054,1054,1054,1054,1054,1055,1055,1055,1055,1055,1055,1055,1055,1055,1055,1055,1055,1058,1061],"ymouse":[649,659,668,674,680,685,693,694,695,695,695,695,695,690,674,669,662,657,656,655,654,652,651,650,648,648,646,646,645,644,643,643,643,643,643,643,643,643,643,643,643,643,640,632,621,607,571,554,545,537,533,508,494,483,465,431,345,323,293,280,270,266,266,266,264,264,264,264,264,264,264,264,264,264,258,244,200,168,156,149,145,143,139,139,138,138,138,132,127,121,115,111,111,110,110,110,110,110,109,108,103,100,94,93,91,91,91,91,91,91,91,91,91,91,91,91,91,90,89,88,88,88,88,88,88,88,88,88,88,88,88,88,88,88],"timestamp_mouse":[9,35,50,70,90,109,129,149,169,189,210,230,251,270,289,310,329,350,369,391,411,429,450,469,489,510,531,551,569,589,609,631,650,669,690,710,731,749,769,790,810,830,849,869,889,909,930,949,969,991,1010,1030,1049,1069,1090,1109,1130,1150,1169,1189,1209,1229,1250,1271,1290,1310,1329,1349,1369,1390,1410,1429,1450,1469,1490,1511,1530,1551,1570,1590,1609,1631,1650,1669,1689,1709,1729,1750,1770,1790,1809,1829,1849,1870,1889,1909,1930,1951,1970,1990,2009,2030,2050,2069,2090,2109,2131,2150,2170,2190,2209,2231,2250,2270,2289,2310,2330,2349,2369,2390,2409,2429,2450,2469,2489,2510,2529,2550,2570,2589,2610,2630,2649,2671],"xSR":741.5,"ySR":573.95,"xT1":424.9,"yT1":0,"xT2":1058.1,"yT2":0,"toosoon":0,"cond_shown":"Incongruent","ratio_trial":300,"L_num":4,"L_den":20,"R_num":2,"R_den":4,"correct_side":2,"subjID":"SantiagoRochaColmenares19","gender":"0","school":"6","age":"11"},{"start_time":1551891664557,"click_time":1551891666290,"finger_time":1551891665970,"fix_duration":1465.5190713727995,"trial":34,"RT":1413,"MT":320,"sideResp":2,"stimulus":[],"xmouse":[793,793,793,793,793,793,793,793,793,793,793,793,793,793,793,793,793,793,793,793,793,793,793,793,793,793,793,793,793,793,793,793,793,793,793,793,793,793,793,793,793,793,793,793,793,793,793,793,793,793,793,793,793,793,793,793,793,793,793,793,793,793,793,793,793,793,793,793,807,820,884,935,969,995,1024,1059,1071,1082,1092,1101,1107,1108,1108,1108,1108,1110,1112],"ymouse":[618,618,618,618,618,618,618,618,618,618,618,618,618,618,618,618,618,618,618,618,618,618,618,618,618,618,618,618,618,618,618,618,618,618,618,618,618,618,618,618,618,618,618,618,618,618,618,618,618,618,618,618,618,618,618,618,618,618,618,618,618,618,618,618,618,618,618,618,607,595,544,503,477,452,410,285,219,181,160,147,140,137,126,117,107,100,99],"timestamp_mouse":[12,33,53,72,92,113,133,154,173,192,212,232,253,273,294,312,333,353,372,394,412,432,453,472,493,512,532,553,572,593,613,633,653,673,694,713,732,753,773,792,813,832,852,872,893,913,932,952,973,993,1012,1032,1052,1072,1092,1113,1132,1154,1172,1193,1213,1233,1252,1274,1293,1312,1332,1353,1373,1392,1413,1432,1452,1473,1494,1513,1533,1552,1573,1594,1613,1632,1652,1673,1694,1713,1732],"xSR":741.5,"ySR":573.95,"xT1":424.9,"yT1":0,"xT2":1058.1,"yT2":0,"toosoon":0,"cond_shown":"Incongruent","ratio_trial":300,"L_num":4,"L_den":20,"R_num":2,"R_den":4,"correct_side":2,"subjID":"SantiagoRochaColmenares19","gender":"0","school":"6","age":"11"},{"start_time":1551891667362,"click_time":1551891669631,"finger_time":1551891669289,"fix_duration":250,"trial":35,"RT":1927,"MT":342,"sideResp":1,"stimulus":[],"xmouse":[791,791,791,791,791,791,791,791,791,791,791,791,791,791,791,791,791,791,791,791,791,791,791,791,791,791,791,791,791,791,791,791,791,791,791,791,791,791,791,791,791,791,791,791,791,791,791,791,791,791,791,791,791,791,791,791,791,791,791,791,791,791,791,791,791,791,791,791,791,791,791,791,791,791,791,791,791,791,791,791,791,791,791,791,791,791,791,791,791,791,791,791,791,791,791,786,745,689,638,603,579,523,496,482,482,490,503,503,503,503,503,503,503,502],"ymouse":[593,593,593,593,593,593,593,593,593,593,593,593,593,593,593,593,593,593,593,593,593,593,593,593,593,593,593,593,593,593,593,593,593,593,593,593,593,593,593,593,593,593,593,593,593,593,593,593,593,593,593,593,593,593,593,593,593,593,593,593,593,593,593,593,593,593,593,593,593,593,593,593,593,593,593,593,593,593,593,593,593,593,593,593,593,593,593,593,593,593,593,593,593,593,593,591,535,484,445,413,384,281,224,180,152,129,108,106,106,106,106,106,103,97],"timestamp_mouse":[8,38,47,68,89,108,129,147,167,189,207,229,248,268,289,308,327,349,368,388,407,428,448,469,488,507,528,548,568,588,607,629,647,669,688,707,727,748,767,788,807,828,849,867,888,907,929,948,968,987,1008,1028,1048,1067,1088,1107,1128,1148,1167,1187,1209,1228,1247,1268,1287,1308,1329,1348,1369,1388,1407,1428,1448,1468,1489,1507,1528,1548,1568,1587,1608,1627,1647,1667,1689,1707,1728,1748,1768,1789,1809,1828,1847,1867,1889,1909,1927,1949,1969,1987,2007,2028,2047,2067,2088,2108,2128,2147,2167,2188,2208,2228,2248,2269],"xSR":741.5,"ySR":573.95,"xT1":424.9,"yT1":0,"xT2":1058.1,"yT2":0,"toosoon":0,"cond_shown":"Congruent","ratio_trial":300,"L_num":12,"L_den":24,"R_num":2,"R_den":10,"correct_side":1,"subjID":"SantiagoRochaColmenares19","gender":"0","school":"6","age":"11"},{"start_time":1551891672108,"click_time":1551891673790,"finger_time":1551891673491,"fix_duration":1475.386452536611,"trial":36,"RT":1383,"MT":299,"sideResp":1,"stimulus":[],"xmouse":[790,790,790,790,790,790,790,790,790,790,790,790,790,790,790,790,790,790,790,790,790,790,790,790,790,790,790,790,790,790,790,790,790,790,790,790,790,790,790,790,790,790,790,790,790,790,790,790,790,790,790,790,790,790,790,790,790,790,790,790,790,790,790,790,790,790,790,785,774,703,662,624,613,610,603,599,591,586,580,573,570,564,556,539,524],"ymouse":[615,615,615,615,615,615,615,615,615,615,615,615,615,615,615,615,615,615,615,615,615,615,615,615,615,615,615,615,615,615,615,615,615,615,615,615,615,615,615,615,615,615,615,615,615,615,615,615,615,615,615,615,615,615,615,615,615,615,615,615,615,615,615,615,615,615,615,609,590,460,400,343,325,312,271,241,214,193,180,165,156,145,132,111,96],"timestamp_mouse":[12,40,41,61,81,102,123,142,163,181,202,221,243,263,281,301,322,342,363,383,402,422,443,461,482,501,522,543,561,581,602,621,641,661,683,701,721,741,763,782,801,822,842,862,881,902,922,942,961,983,1001,1021,1042,1062,1081,1102,1122,1143,1161,1181,1202,1221,1241,1261,1282,1302,1322,1341,1361,1383,1402,1421,1441,1462,1482,1502,1522,1542,1562,1581,1602,1622,1641,1662,1682],"xSR":741.5,"ySR":573.95,"xT1":424.9,"yT1":0,"xT2":1058.1,"yT2":0,"toosoon":0,"cond_shown":"Incongruent","ratio_trial":100,"L_num":4,"L_den":8,"R_num":8,"R_den":20,"correct_side":1,"subjID":"SantiagoRochaColmenares19","gender":"0","school":"6","age":"11"},{"start_time":1551891676474,"click_time":1551891677990,"finger_time":1551891677770,"fix_duration":543.243087353759,"trial":37,"RT":1296,"MT":220,"sideResp":2,"stimulus":[],"xmouse":[787,787,787,787,787,787,787,787,787,787,787,787,787,787,787,787,787,787,787,787,787,787,787,787,787,787,787,787,787,787,