[{"start_time":1551793961406,"click_time":1551793966698,"finger_time":1551793961417,"fix_duration":565.5361670298423,"trial":0,"RT":11,"MT":5281,"sideResp":1,"stimulus":[],"xmouse":[764,764,764,764,764,764,764,764,764,764,764,764,764,764,764,764,764,764,764,764,764,764,764,764,764,764,764,764,764,764,764,764,764,764,764,764,764,764,764,764,764,764,764,764,764,764,764,764,764,764,764,764,764,764,764,764,764,764,764,764,764,764,764,764,764,764,768,773,778,787,793,806,810,814,814,814,814,814,814,814,814,814,814,814,814,814,814,814,814,814,814,814,814,814,814,814,814,814,814,814,814,814,814,814,814,814,814,814,814,814,814,814,814,814,814,814,814,814,814,814,814,814,814,814,814,814,814,814,814,814,814,814,814,814,814,814,814,814,814,814,814,814,814,814,814,814,814,814,814,814,814,814,810,802,799,797,797,797,797,797,798,800,800,800,800,800,800,800,800,800,800,799,798,798,797,797,797,797,797,797,797,797,797,797,797,797,797,797,797,797,797,797,797,797,797,797,796,796,796,796,796,796,796,796,796,796,797,801,803,803,803,799,794,793,793,793,793,793,792,792,792,789,788,787,782,779,773,755,738,717,675,571,502,424,340,257,135,103,89,85,84,85,94,108,129,156,224,263,289,309,326,330,338,348,361,375,395,398,400,402,407,411,417,423,429],"ymouse":[572,572,572,572,572,572,572,572,572,572,572,572,572,572,572,572,572,572,572,572,572,572,572,572,572,572,572,572,572,572,572,572,572,572,572,572,572,572,572,572,572,572,572,572,572,572,572,572,572,572,572,572,572,572,572,572,572,572,572,572,572,572,572,572,572,572,569,564,559,553,549,541,538,536,536,536,536,536,536,536,536,536,536,536,536,536,536,536,536,536,536,536,536,536,536,536,536,536,536,536,536,536,536,536,536,536,536,536,536,536,536,536,536,536,536,536,536,536,536,536,536,536,536,536,536,536,536,536,536,536,536,536,536,536,536,536,536,536,536,536,536,536,536,536,536,536,536,536,536,536,536,536,537,540,541,542,543,543,545,546,548,551,551,551,552,552,552,553,553,553,553,553,553,553,553,553,553,553,553,553,553,553,553,553,553,553,553,553,553,553,553,553,553,548,545,542,539,538,537,536,535,535,535,535,535,534,532,524,514,502,486,465,451,447,445,445,445,445,445,444,444,442,439,436,429,422,413,390,380,366,336,273,236,201,167,131,89,74,68,65,64,62,58,54,46,39,25,20,17,17,17,19,26,34,43,48,49,50,50,50,52,53,55,56,57],"timestamp_mouse":[11,32,51,70,91,111,131,150,171,191,210,232,251,272,291,312,331,351,371,391,410,431,452,472,491,511,532,551,572,591,612,630,651,672,691,711,731,751,770,792,812,831,852,871,891,911,931,950,971,990,1010,1032,1051,1072,1091,1111,1132,1152,1171,1191,1212,1230,1251,1271,1291,1310,1331,1351,1371,1392,1411,1430,1452,1471,1491,1511,1532,1552,1572,1591,1611,1630,1652,1672,1692,1710,1730,1750,1772,1792,1811,1831,1851,1870,1892,1911,1931,1950,1971,1991,2011,2031,2051,2070,2092,2112,2131,2151,2171,2191,2211,2231,2251,2272,2291,2311,2331,2351,2372,2392,2410,2431,2451,2471,2492,2510,2531,2550,2571,2592,2611,2632,2650,2672,2690,2710,2732,2752,2771,2791,2811,2830,2851,2871,2890,2911,2932,2951,2972,2991,3012,3032,3051,3070,3092,3111,3131,3151,3172,3191,3211,3231,3252,3272,3291,3311,3331,3350,3371,3391,3412,3431,3452,3471,3491,3512,3531,3550,3571,3591,3610,3631,3651,3671,3691,3711,3731,3751,3771,3791,3811,3832,3851,3871,3891,3910,3932,3950,3971,3991,4012,4031,4051,4070,4091,4111,4132,4150,4172,4191,4211,4231,4250,4270,4291,4312,4332,4352,4370,4390,4411,4432,4451,4472,4491,4510,4532,4550,4571,4591,4611,4632,4651,4671,4691,4712,4733,4750,4771,4791,4811,4832,4850,4871,4892,4910,4932,4951,4971,4991,5011,5031,5050,5070,5091,5110,5132,5150,5171,5192,5212,5231,5251,5270,5291],"xSR":741.5,"ySR":501.8,"xT1":424.9,"yT1":0,"xT2":1058.1,"yT2":0,"toosoon":0,"cond_shown":"Incongruent","ratio_trial":300,"L_num":13,"L_den":26,"R_num":12,"R_den":15,"correct_side":2,"subjID":"santiagovaldesgomez3","gender":"0","age":"10","school":"0","test":{"fix_dur":[250,1500],"timestim":1000,"targets_dim":[100,100],"targets_relative_coord":[0.3,0.7],"size_stim":[880,420],"start_dim":[100,100],"size_start":[300,300],"size_fix":60,"samplingrate":20,"img_types":["Congruent","Incongruent"],"ratios":[100,200,300],"rep_conds":19,"nTrials":120,"trials_to_rest":500,"Trials_order":[53,88,96,102,28,86,11,110,79,94,45,8,76,91,2,80,48,85,106,37,84,18,63,82,22,101,14,6,81,5,20,70,50,29,16,105,0,51,69,42,74,83,40,109,54,17,19,118,13,66,108,56,67,47,23,25,27,100,87,46,43,117,111,77,64,116,113,35,89,58,98,61,55,41,24,32,99,68,4,92,97,90,15,10,95,107,52,7,60,71,9,33,73,112,93,3,38,30,26,72,57,103,115,78,39,119,114,104,1,75,59,62,36,31,44,34,21,65,49,12],"cond_shown":["Incongruent","Congruent","Congruent","Congruent","Congruent","Congruent","Incongruent","Congruent","Incongruent","Congruent","Incongruent","Congruent","Congruent","Incongruent","Congruent","Congruent","Congruent","Incongruent","Congruent","Incongruent","Congruent","Congruent","Incongruent","Congruent","Congruent","Incongruent","Congruent","Congruent","Incongruent","Incongruent","Congruent","Congruent","Congruent","Incongruent","Congruent","Incongruent","Congruent","Incongruent","Incongruent","Congruent","Congruent","Incongruent","Congruent","Incongruent","Congruent","Incongruent","Incongruent","Congruent","Incongruent","Congruent","Congruent","Congruent","Incongruent","Incongruent","Incongruent","Incongruent","Incongruent","Congruent","Incongruent","Congruent","Incongruent","Incongruent","Incongruent","Incongruent","Congruent","Congruent","Incongruent","Incongruent","Incongruent","Congruent","Congruent","Incongruent","Incongruent","Incongruent","Congruent","Congruent","Incongruent","Congruent","Congruent","Congruent","Incongruent","Congruent","Incongruent","Congruent","Incongruent","Incongruent","Congruent","Incongruent","Congruent","Incongruent","Incongruent","Incongruent","Incongruent","Congruent","Incongruent","Incongruent","Congruent","Congruent","Congruent","Congruent","Incongruent","Incongruent","Incongruent","Congruent","Incongruent","Incongruent","Congruent","Congruent","Incongruent","Incongruent","Incongruent","Congruent","Congruent","Incongruent","Congruent","Congruent","Incongruent","Incongruent","Incongruent","Congruent"],"ratio_trial":[300,300,100,100,300,200,300,200,100,300,200,200,300,100,200,200,100,100,300,100,100,100,200,300,300,300,200,100,200,300,200,300,200,300,300,200,100,200,200,100,200,300,300,100,100,300,100,300,100,100,100,200,100,300,300,100,200,300,200,300,100,200,200,300,300,200,300,300,300,300,200,100,100,300,100,200,200,200,300,200,100,100,200,300,300,300,300,100,100,300,200,200,100,300,200,200,200,100,200,100,200,100,100,100,200,300,100,200,100,200,300,200,100,100,200,300,200,300,100,100],"left_num":[13,1,2,11,1,6,8,16,8,8,7,3,12,6,13,8,6,6,3,13,11,3,6,7,3,4,21,6,11,4,1,1,8,4,4,7,10,11,4,9,3,4,12,12,3,13,11,1,12,8,11,14,10,8,3,12,3,5,7,2,9,1,7,13,2,3,8,7,4,1,7,9,3,4,7,16,1,21,20,3,2,1,11,1,13,7,1,2,9,8,11,6,9,1,1,14,6,10,8,12,1,3,6,11,9,2,9,9,8,7,8,9,8,9,3,1,1,13,4,7],"right_num":[12,11,6,6,11,7,14,9,6,10,8,7,2,3,14,2,15,11,4,12,4,2,3,20,2,2,2,5,3,2,21,6,3,2,2,8,3,3,1,8,14,2,2,9,4,12,9,8,9,2,4,6,8,9,4,9,11,7,12,10,14,2,4,12,10,14,9,8,6,3,2,6,7,2,9,12,2,2,5,14,6,18,3,19,12,8,6,8,8,9,3,3,6,7,3,6,7,3,3,13,2,4,13,4,8,6,8,4,6,6,9,13,2,13,11,11,2,12,8,15],"left_den":[26,5,5,22,5,12,10,30,16,15,10,10,24,12,26,15,12,10,6,26,22,6,20,14,6,20,30,20,20,20,2,5,15,20,5,10,25,20,30,15,10,20,24,24,20,26,22,30,24,16,22,28,25,10,6,24,4,25,10,20,15,3,15,26,20,6,10,10,5,5,21,18,9,20,14,20,3,30,25,6,4,2,20,3,26,10,5,4,15,10,20,20,18,20,2,30,12,25,15,30,3,6,10,22,15,4,15,20,16,15,10,30,16,15,10,5,3,26,8,14],"right_den":[15,22,12,15,22,10,28,27,10,12,16,14,10,5,20,6,25,22,5,20,10,5,6,25,10,4,4,25,4,4,30,12,9,4,4,16,10,4,3,16,28,4,10,15,16,15,15,24,15,5,10,20,16,18,20,15,20,14,24,25,28,15,6,15,25,20,18,20,12,6,15,10,30,4,15,20,15,4,10,20,15,30,4,30,15,20,12,20,16,18,4,6,10,20,10,9,10,10,9,26,15,10,26,10,10,30,16,16,10,9,18,26,5,26,22,22,15,15,20,25],"correct_side":[2,2,2,1,2,2,1,1,2,2,1,2,1,2,2,1,2,1,2,2,1,1,2,2,1,2,1,1,2,2,2,2,1,2,1,1,1,2,2,1,2,2,1,2,2,2,2,2,2,1,1,1,2,1,1,2,1,2,1,2,1,1,2,2,2,2,1,1,1,2,1,2,1,2,2,1,1,1,1,2,1,2,2,2,2,1,2,1,1,1,2,2,2,2,1,2,2,1,1,2,1,1,1,1,2,1,1,1,2,2,1,2,1,1,2,2,1,2,1,2],"img_shown":["img2/300/Incongruent/R/I_Dist_300_LN_13_LD_26_RN_12_RD_15_1.png","img2/300/Congruent/R/C_Dist_300_LN_1_LD_5_RN_11_RD_22_1.png","img2/100/Congruent/R/C_Dist_100_LN_2_LD_5_RN_6_RD_12_1.png","img2/100/Congruent/L/C_Dist_100_LN_11_LD_22_RN_6_RD_15_0.png","img2/300/Congruent/R/C_Dist_300_LN_1_LD_5_RN_11_RD_22_1.png","img2/200/Congruent/R/C_Dist_200_LN_6_LD_12_RN_7_RD_10_1.png","img2/300/Incongruent/L/I_Dist_300_LN_8_LD_10_RN_14_RD_28_0.png","img2/200/Congruent/L/C_Dist_200_LN_16_LD_30_RN_9_RD_27_0.png","img2/100/Incongruent/R/I_Dist_100_LN_8_LD_16_RN_6_RD_10_1.png","img2/300/Congruent/R/C_Dist_300_LN_8_LD_15_RN_10_RD_12_1.png","img2/200/Incongruent/L/I_Dist_200_LN_7_LD_10_RN_8_RD_16_0.png","img2/200/Congruent/R/C_Dist_200_LN_3_LD_10_RN_7_RD_14_1.png","img2/300/Congruent/L/C_Dist_300_LN_12_LD_24_RN_2_RD_10_0.png","img2/100/Incongruent/R/I_Dist_100_LN_6_LD_12_RN_3_RD_5_1.png","img2/200/Congruent/R/C_Dist_200_LN_13_LD_26_RN_14_RD_20_1.png","img2/200/Congruent/L/C_Dist_200_LN_8_LD_15_RN_2_RD_6_0.png","img2/100/Congruent/R/C_Dist_100_LN_6_LD_12_RN_15_RD_25_1.png","img2/100/Incongruent/L/I_Dist_100_LN_6_LD_10_RN_11_RD_22_0.png","img2/300/Congruent/R/C_Dist_300_LN_3_LD_6_RN_4_RD_5_1.png","img2/100/Incongruent/R/I_Dist_100_LN_13_LD_26_RN_12_RD_20_1.png","img2/100/Congruent/L/C_Dist_100_LN_11_LD_22_RN_4_RD_10_0.png","img2/100/Congruent/L/C_Dist_100_LN_3_LD_6_RN_2_RD_5_0.png","img2/200/Incongruent/R/I_Dist_200_LN_6_LD_20_RN_3_RD_6_1.png","img2/300/Congruent/R/C_Dist_300_LN_7_LD_14_RN_20_RD_25_1.png","img2/300/Congruent/L/C_Dist_300_LN_3_LD_6_RN_2_RD_10_0.png","img2/300/Incongruent/R/I_Dist_300_LN_4_LD_20_RN_2_RD_4_1.png","img2/200/Congruent/L/C_Dist_200_LN_21_LD_30_RN_2_RD_4_0.png","img2/100/Congruent/L/C_Dist_100_LN_6_LD_20_RN_5_RD_25_0.png","img2/200/Incongruent/R/I_Dist_200_LN_11_LD_20_RN_3_RD_4_1.png","img2/300/Incongruent/R/I_Dist_300_LN_4_LD_20_RN_2_RD_4_1.png","img2/200/Congruent/R/C_Dist_200_LN_1_LD_2_RN_21_RD_30_1.png","img2/300/Congruent/R/C_Dist_300_LN_1_LD_5_RN_6_RD_12_1.png","img2/200/Congruent/L/C_Dist_200_LN_8_LD_15_RN_3_RD_9_0.png","img2/300/Incongruent/R/I_Dist_300_LN_4_LD_20_RN_2_RD_4_1.png","img2/300/Congruent/L/C_Dist_300_LN_4_LD_5_RN_2_RD_4_0.png","img2/200/Incongruent/L/I_Dist_200_LN_7_LD_10_RN_8_RD_16_0.png","img2/100/Congruent/L/C_Dist_100_LN_10_LD_25_RN_3_RD_10_0.png","img2/200/Incongruent/R/I_Dist_200_LN_11_LD_20_RN_3_RD_4_1.png","img2/200/Incongruent/R/I_Dist_200_LN_4_LD_30_RN_1_RD_3_1.png","img2/100/Congruent/L/C_Dist_100_LN_9_LD_15_RN_8_RD_16_0.png","img2/200/Congruent/R/C_Dist_200_LN_3_LD_10_RN_14_RD_28_1.png","img2/300/Incongruent/R/I_Dist_300_LN_4_LD_20_RN_2_RD_4_1.png","img2/300/Congruent/L/C_Dist_300_LN_12_LD_24_RN_2_RD_10_0.png","img2/100/Incongruent/R/I_Dist_100_LN_12_LD_24_RN_9_RD_15_1.png","img2/100/Congruent/R/C_Dist_100_LN_3_LD_20_RN_4_RD_16_1.png","img2/300/Incongruent/R/I_Dist_300_LN_13_LD_26_RN_12_RD_15_1.png","img2/100/Incongruent/R/I_Dist_100_LN_11_LD_22_RN_9_RD_15_1.png","img2/300/Congruent/R/C_Dist_300_LN_1_LD_30_RN_8_RD_24_1.png","img2/100/Incongruent/R/I_Dist_100_LN_12_LD_24_RN_9_RD_15_1.png","img2/100/Congruent/L/C_Dist_100_LN_8_LD_16_RN_2_RD_5_0.png","img2/100/Congruent/L/C_Dist_100_LN_11_LD_22_RN_4_RD_10_0.png","img2/200/Congruent/L/C_Dist_200_LN_14_LD_28_RN_6_RD_20_0.png","img2/100/Incongruent/R/I_Dist_100_LN_10_LD_25_RN_8_RD_16_1.png","img2/300/Incongruent/L/I_Dist_300_LN_8_LD_10_RN_9_RD_18_0.png","img2/300/Incongruent/L/I_Dist_300_LN_3_LD_6_RN_4_RD_20_0.png","img2/100/Incongruent/R/I_Dist_100_LN_12_LD_24_RN_9_RD_15_1.png","img2/200/Incongruent/L/I_Dist_200_LN_3_LD_4_RN_11_RD_20_0.png","img2/300/Congruent/R/C_Dist_300_LN_5_LD_25_RN_7_RD_14_1.png","img2/200/Incongruent/L/I_Dist_200_LN_7_LD_10_RN_12_RD_24_0.png","img2/300/Congruent/R/C_Dist_300_LN_2_LD_20_RN_10_RD_25_1.png","img2/100/Incongruent/L/I_Dist_100_LN_9_LD_15_RN_14_RD_28_0.png","img2/200/Incongruent/L/I_Dist_200_LN_1_LD_3_RN_2_RD_15_0.png","img2/200/Incongruent/R/I_Dist_200_LN_7_LD_15_RN_4_RD_6_1.png","img2/300/Incongruent/R/I_Dist_300_LN_13_LD_26_RN_12_RD_15_1.png","img2/300/Congruent/R/C_Dist_300_LN_2_LD_20_RN_10_RD_25_1.png","img2/200/Congruent/R/C_Dist_200_LN_3_LD_6_RN_14_RD_20_1.png","img2/300/Incongruent/L/I_Dist_300_LN_8_LD_10_RN_9_RD_18_0.png","img2/300/Incongruent/L/I_Dist_300_LN_7_LD_10_RN_8_RD_20_0.png","img2/300/Incongruent/L/I_Dist_300_LN_4_LD_5_RN_6_RD_12_0.png","img2/300/Congruent/R/C_Dist_300_LN_1_LD_5_RN_3_RD_6_1.png","img2/200/Congruent/L/C_Dist_200_LN_7_LD_21_RN_2_RD_15_0.png","img2/100/Incongruent/R/I_Dist_100_LN_9_LD_18_RN_6_RD_10_1.png","img2/100/Incongruent/L/I_Dist_100_LN_3_LD_9_RN_7_RD_30_0.png","img2/300/Incongruent/R/I_Dist_300_LN_4_LD_20_RN_2_RD_4_1.png","img2/100/Congruent/R/C_Dist_100_LN_7_LD_14_RN_9_RD_15_1.png","img2/200/Congruent/L/C_Dist_200_LN_16_LD_20_RN_12_RD_20_0.png","img2/200/Incongruent/L/I_Dist_200_LN_1_LD_3_RN_2_RD_15_0.png","img2/200/Congruent/L/C_Dist_200_LN_21_LD_30_RN_2_RD_4_0.png","img2/300/Congruent/L/C_Dist_300_LN_20_LD_25_RN_5_RD_10_0.png","img2/200/Congruent/R/C_Dist_200_LN_3_LD_6_RN_14_RD_20_1.png","img2/100/Incongruent/L/I_Dist_100_LN_2_LD_4_RN_6_RD_15_0.png","img2/100/Congruent/R/C_Dist_100_LN_1_LD_2_RN_18_RD_30_1.png","img2/200/Incongruent/R/I_Dist_200_LN_11_LD_20_RN_3_RD_4_1.png","img2/300/Congruent/R/C_Dist_300_LN_1_LD_3_RN_19_RD_30_1.png","img2/300/Incongruent/R/I_Dist_300_LN_13_LD_26_RN_12_RD_15_1.png","img2/300/Incongruent/L/I_Dist_300_LN_7_LD_10_RN_8_RD_20_0.png","img2/300/Congruent/R/C_Dist_300_LN_1_LD_5_RN_6_RD_12_1.png","img2/100/Incongruent/L/I_Dist_100_LN_2_LD_4_RN_8_RD_20_0.png","img2/100/Congruent/L/C_Dist_100_LN_9_LD_15_RN_8_RD_16_0.png","img2/300/Incongruent/L/I_Dist_300_LN_8_LD_10_RN_9_RD_18_0.png","img2/200/Incongruent/R/I_Dist_200_LN_11_LD_20_RN_3_RD_4_1.png","img2/200/Incongruent/R/I_Dist_200_LN_6_LD_20_RN_3_RD_6_1.png","img2/100/Incongruent/R/I_Dist_100_LN_9_LD_18_RN_6_RD_10_1.png","img2/300/Congruent/R/C_Dist_300_LN_1_LD_20_RN_7_RD_20_1.png","img2/200/Incongruent/L/I_Dist_200_LN_1_LD_2_RN_3_RD_10_0.png","img2/200/Incongruent/R/I_Dist_200_LN_14_LD_30_RN_6_RD_9_1.png","img2/200/Congruent/R/C_Dist_200_LN_6_LD_12_RN_7_RD_10_1.png","img2/100/Congruent/L/C_Dist_100_LN_10_LD_25_RN_3_RD_10_0.png","img2/200/Congruent/L/C_Dist_200_LN_8_LD_15_RN_3_RD_9_0.png","img2/100/Congruent/R/C_Dist_100_LN_12_LD_30_RN_13_RD_26_1.png","img2/200/Incongruent/L/I_Dist_200_LN_1_LD_3_RN_2_RD_15_0.png","img2/100/Incongruent/L/I_Dist_100_LN_3_LD_6_RN_4_RD_10_0.png","img2/100/Incongruent/L/I_Dist_100_LN_6_LD_10_RN_13_RD_26_0.png","img2/100/Congruent/L/C_Dist_100_LN_11_LD_22_RN_4_RD_10_0.png","img2/200/Incongruent/R/I_Dist_200_LN_9_LD_15_RN_8_RD_10_1.png","img2/300/Incongruent/L/I_Dist_300_LN_2_LD_4_RN_6_RD_30_0.png","img2/100/Congruent/L/C_Dist_100_LN_9_LD_15_RN_8_RD_16_0.png","img2/200/Congruent/L/C_Dist_200_LN_9_LD_20_RN_4_RD_16_0.png","img2/100/Incongruent/R/I_Dist_100_LN_8_LD_16_RN_6_RD_10_1.png","img2/200/Incongruent/R/I_Dist_200_LN_7_LD_15_RN_6_RD_9_1.png","img2/300/Incongruent/L/I_Dist_300_LN_8_LD_10_RN_9_RD_18_0.png","img2/200/Congruent/R/C_Dist_200_LN_9_LD_30_RN_13_RD_26_1.png","img2/100/Congruent/L/C_Dist_100_LN_8_LD_16_RN_2_RD_5_0.png","img2/100/Incongruent/L/I_Dist_100_LN_9_LD_15_RN_13_RD_26_0.png","img2/200/Congruent/R/C_Dist_200_LN_3_LD_10_RN_11_RD_22_1.png","img2/300/Congruent/R/C_Dist_300_LN_1_LD_5_RN_11_RD_22_1.png","img2/200/Incongruent/L/I_Dist_200_LN_1_LD_3_RN_2_RD_15_0.png","img2/300/Incongruent/R/I_Dist_300_LN_13_LD_26_RN_12_RD_15_1.png","img2/100/Incongruent/L/I_Dist_100_LN_4_LD_8_RN_8_RD_20_0.png","img2/100/Congruent/R/C_Dist_100_LN_7_LD_14_RN_15_RD_25_1.png"],"dist100_C":[["C_Dist_100_LN_10_LD_25_RN_3_RD_10_0.png","C_Dist_100_LN_11_LD_22_RN_4_RD_10_0.png","C_Dist_100_LN_11_LD_22_RN_6_RD_15_0.png","C_Dist_100_LN_15_LD_25_RN_13_RD_26_0.png","C_Dist_100_LN_3_LD_6_RN_2_RD_5_0.png","C_Dist_100_LN_6_LD_20_RN_5_RD_25_0.png","C_Dist_100_LN_8_LD_16_RN_2_RD_5_0.png","C_Dist_100_LN_9_LD_15_RN_8_RD_16_0.png"],["C_Dist_100_LN_1_LD_2_RN_18_RD_30_1.png","C_Dist_100_LN_1_LD_2_RN_3_RD_5_1.png","C_Dist_100_LN_12_LD_30_RN_13_RD_26_1.png","C_Dist_100_LN_2_LD_5_RN_11_RD_22_1.png","C_Dist_100_LN_2_LD_5_RN_6_RD_12_1.png","C_Dist_100_LN_3_LD_20_RN_4_RD_16_1.png","C_Dist_100_LN_4_LD_10_RN_15_RD_30_1.png","C_Dist_100_LN_4_LD_8_RN_6_RD_10_1.png","C_Dist_100_LN_6_LD_12_RN_15_RD_25_1.png","C_Dist_100_LN_7_LD_14_RN_15_RD_25_1.png","C_Dist_100_LN_7_LD_14_RN_9_RD_15_1.png"]],"dist100_I":[["I_Dist_100_LN_1_LD_2_RN_8_RD_20_0.png","I_Dist_100_LN_2_LD_4_RN_6_RD_15_0.png","I_Dist_100_LN_2_LD_4_RN_8_RD_20_0.png","I_Dist_100_LN_3_LD_5_RN_11_RD_22_0.png","I_Dist_100_LN_3_LD_5_RN_8_RD_16_0.png","I_Dist_100_LN_3_LD_6_RN_4_RD_10_0.png","I_Dist_100_LN_3_LD_9_RN_7_RD_30_0.png","I_Dist_100_LN_4_LD_8_RN_8_RD_20_0.png","I_Dist_100_LN_6_LD_10_RN_11_RD_22_0.png","I_Dist_100_LN_6_LD_10_RN_13_RD_26_0.png","I_Dist_100_LN_6_LD_10_RN_7_RD_14_0.png","I_Dist_100_LN_9_LD_10_RN_20_RD_25_0.png","I_Dist_100_LN_9_LD_15_RN_13_RD_26_0.png","I_Dist_100_LN_9_LD_15_RN_14_RD_28_0.png"],["I_Dist_100_LN_10_LD_25_RN_8_RD_16_1.png","I_Dist_100_LN_10_LD_25_RN_9_RD_18_1.png","I_Dist_100_LN_11_LD_22_RN_9_RD_15_1.png","I_Dist_100_LN_12_LD_24_RN_9_RD_15_1.png","I_Dist_100_LN_12_LD_30_RN_2_RD_4_1.png","I_Dist_100_LN_13_LD_26_RN_12_RD_20_1.png","I_Dist_100_LN_13_LD_26_RN_6_RD_10_1.png","I_Dist_100_LN_17_LD_30_RN_10_RD_15_1.png","I_Dist_100_LN_6_LD_12_RN_3_RD_5_1.png","I_Dist_100_LN_8_LD_16_RN_6_RD_10_1.png","I_Dist_100_LN_8_LD_20_RN_1_RD_2_1.png","I_Dist_100_LN_9_LD_18_RN_6_RD_10_1.png"]],"dist100_S":[["E_Dist_100_LN_2_LD_12_RN_2_RD_30_0.png","E_Dist_100_LN_6_LD_10_RN_6_RD_12_0.png"],["E_Dist_100_LN_6_LD_12_RN_6_RD_10_1.png"]],"dist200_C":[["C_Dist_200_LN_11_LD_22_RN_3_RD_10_0.png","C_Dist_200_LN_12_LD_15_RN_6_RD_10_0.png","C_Dist_200_LN_12_LD_20_RN_6_RD_15_0.png","C_Dist_200_LN_14_LD_28_RN_6_RD_20_0.png","C_Dist_200_LN_15_LD_25_RN_4_RD_10_0.png","C_Dist_200_LN_16_LD_20_RN_12_RD_20_0.png","C_Dist_200_LN_16_LD_30_RN_9_RD_27_0.png","C_Dist_200_LN_20_LD_25_RN_9_RD_15_0.png","C_Dist_200_LN_21_LD_30_RN_2_RD_4_0.png","C_Dist_200_LN_4_LD_10_RN_3_RD_15_0.png","C_Dist_200_LN_4_LD_8_RN_3_RD_10_0.png","C_Dist_200_LN_6_LD_15_RN_3_RD_15_0.png","C_Dist_200_LN_7_LD_21_RN_2_RD_15_0.png","C_Dist_200_LN_8_LD_15_RN_2_RD_6_0.png","C_Dist_200_LN_8_LD_15_RN_3_RD_9_0.png","C_Dist_200_LN_8_LD_15_RN_7_RD_21_0.png","C_Dist_200_LN_9_LD_20_RN_4_RD_16_0.png"],["C_Dist_200_LN_1_LD_2_RN_21_RD_30_1.png","C_Dist_200_LN_13_LD_26_RN_14_RD_20_1.png","C_Dist_200_LN_3_LD_10_RN_11_RD_22_1.png","C_Dist_200_LN_3_LD_10_RN_14_RD_28_1.png","C_Dist_200_LN_3_LD_10_RN_7_RD_14_1.png","C_Dist_200_LN_3_LD_12_RN_9_RD_20_1.png","C_Dist_200_LN_3_LD_6_RN_14_RD_20_1.png","C_Dist_200_LN_5_LD_10_RN_14_RD_20_1.png","C_Dist_200_LN_6_LD_12_RN_7_RD_10_1.png","C_Dist_200_LN_6_LD_20_RN_11_RD_22_1.png","C_Dist_200_LN_7_LD_15_RN_18_RD_27_1.png","C_Dist_200_LN_9_LD_30_RN_13_RD_26_1.png"]],"dist200_I":[["I_Dist_200_LN_1_LD_2_RN_3_RD_10_0.png","I_Dist_200_LN_1_LD_3_RN_2_RD_15_0.png","I_Dist_200_LN_3_LD_4_RN_11_RD_20_0.png","I_Dist_200_LN_4_LD_5_RN_6_RD_10_0.png","I_Dist_200_LN_4_LD_6_RN_14_RD_30_0.png","I_Dist_200_LN_7_LD_10_RN_12_RD_24_0.png","I_Dist_200_LN_7_LD_10_RN_14_RD_28_0.png","I_Dist_200_LN_7_LD_10_RN_8_RD_16_0.png"],["I_Dist_200_LN_11_LD_20_RN_3_RD_4_1.png","I_Dist_200_LN_14_LD_30_RN_12_RD_18_1.png","I_Dist_200_LN_14_LD_30_RN_6_RD_9_1.png","I_Dist_200_LN_3_LD_10_RN_1_RD_2_1.png","I_Dist_200_LN_4_LD_30_RN_1_RD_3_1.png","I_Dist_200_LN_6_LD_20_RN_3_RD_6_1.png","I_Dist_200_LN_7_LD_15_RN_4_RD_6_1.png","I_Dist_200_LN_7_LD_15_RN_6_RD_9_1.png","I_Dist_200_LN_9_LD_15_RN_8_RD_10_1.png"]],"dist200_S":[["E_Dist_200_LN_3_LD_6_RN_3_RD_10_0.png"],["E_Dist_200_LN_3_LD_10_RN_3_RD_6_1.png"]],"dist300_C":[["C_Dist_300_LN_11_LD_22_RN_1_RD_5_0.png","C_Dist_300_LN_11_LD_22_RN_2_RD_10_0.png","C_Dist_300_LN_11_LD_22_RN_4_RD_20_0.png","C_Dist_300_LN_12_LD_24_RN_2_RD_10_0.png","C_Dist_300_LN_18_LD_20_RN_9_RD_15_0.png","C_Dist_300_LN_20_LD_25_RN_13_RD_26_0.png","C_Dist_300_LN_20_LD_25_RN_14_RD_28_0.png","C_Dist_300_LN_20_LD_25_RN_5_RD_10_0.png","C_Dist_300_LN_20_LD_25_RN_8_RD_16_0.png","C_Dist_300_LN_20_LD_25_RN_9_RD_18_0.png","C_Dist_300_LN_24_LD_30_RN_2_RD_4_0.png","C_Dist_300_LN_24_LD_30_RN_8_RD_16_0.png","C_Dist_300_LN_3_LD_6_RN_2_RD_10_0.png","C_Dist_300_LN_4_LD_10_RN_1_RD_10_0.png","C_Dist_300_LN_4_LD_5_RN_2_RD_4_0.png","C_Dist_300_LN_8_LD_16_RN_1_RD_5_0.png","C_Dist_300_LN_9_LD_10_RN_3_RD_5_0.png"],["C_Dist_300_LN_1_LD_20_RN_7_RD_20_1.png","C_Dist_300_LN_1_LD_3_RN_19_RD_30_1.png","C_Dist_300_LN_1_LD_30_RN_8_RD_24_1.png","C_Dist_300_LN_1_LD_5_RN_11_RD_22_1.png","C_Dist_300_LN_1_LD_5_RN_3_RD_6_1.png","C_Dist_300_LN_1_LD_5_RN_6_RD_12_1.png","C_Dist_300_LN_2_LD_10_RN_12_RD_24_1.png","C_Dist_300_LN_2_LD_20_RN_10_RD_25_1.png","C_Dist_300_LN_3_LD_12_RN_11_RD_20_1.png","C_Dist_300_LN_3_LD_6_RN_4_RD_5_1.png","C_Dist_300_LN_4_LD_20_RN_13_RD_26_1.png","C_Dist_300_LN_5_LD_25_RN_6_RD_12_1.png","C_Dist_300_LN_5_LD_25_RN_7_RD_14_1.png","C_Dist_300_LN_7_LD_14_RN_20_RD_25_1.png","C_Dist_300_LN_8_LD_15_RN_10_RD_12_1.png"]],"dist300_I":[["I_Dist_300_LN_1_LD_2_RN_2_RD_10_0.png","I_Dist_300_LN_1_LD_2_RN_3_RD_15_0.png","I_Dist_300_LN_2_LD_4_RN_6_RD_30_0.png","I_Dist_300_LN_3_LD_6_RN_4_RD_20_0.png","I_Dist_300_LN_4_LD_5_RN_6_RD_12_0.png","I_Dist_300_LN_4_LD_5_RN_8_RD_16_0.png","I_Dist_300_LN_7_LD_10_RN_8_RD_20_0.png","I_Dist_300_LN_8_LD_10_RN_14_RD_28_0.png","I_Dist_300_LN_8_LD_10_RN_9_RD_18_0.png"],["I_Dist_300_LN_13_LD_26_RN_12_RD_15_1.png","I_Dist_300_LN_4_LD_20_RN_2_RD_4_1.png"]],"dist300_S":[["E_Dist_300_LN_9_LD_12_RN_9_RD_20_0.png"],["E_Dist_300_LN_18_LD_30_RN_18_RD_20_1.png","E_Dist_300_LN_3_LD_10_RN_3_RD_5_1.png","E_Dist_300_LN_9_LD_20_RN_9_RD_12_1.png"]],"dist500_C":[["C_Dist_500_LN_10_LD_13_RN_7_RD_26_0.png","C_Dist_500_LN_10_LD_15_RN_4_RD_24_0.png","C_Dist_500_LN_12_LD_16_RN_3_RD_12_0.png","C_Dist_500_LN_12_LD_18_RN_4_RD_24_0.png","C_Dist_500_LN_15_LD_18_RN_5_RD_15_0.png","C_Dist_500_LN_15_LD_20_RN_1_RD_4_0.png","C_Dist_500_LN_18_LD_27_RN_1_RD_6_0.png","C_Dist_500_LN_20_LD_24_RN_1_RD_3_0.png","C_Dist_500_LN_20_LD_24_RN_3_RD_9_0.png","C_Dist_500_LN_20_LD_24_RN_7_RD_21_0.png","C_Dist_500_LN_20_LD_28_RN_3_RD_14_0.png","C_Dist_500_LN_21_LD_28_RN_6_RD_24_0.png","C_Dist_500_LN_22_LD_28_RN_2_RD_7_0.png","C_Dist_500_LN_25_LD_30_RN_9_RD_27_0.png","C_Dist_500_LN_4_LD_6_RN_1_RD_6_0.png","C_Dist_500_LN_5_LD_6_RN_2_RD_6_0.png","C_Dist_500_LN_6_LD_9_RN_1_RD_6_0.png","C_Dist_500_LN_7_LD_10_RN_1_RD_5_0.png","C_Dist_500_LN_8_LD_12_RN_1_RD_6_0.png","C_Dist_500_LN_8_LD_12_RN_4_RD_24_0.png"],["C_Dist_500_LN_1_LD_4_RN_12_RD_16_1.png","C_Dist_500_LN_1_LD_4_RN_9_RD_12_1.png","C_Dist_500_LN_1_LD_9_RN_11_RD_18_1.png","C_Dist_500_LN_10_LD_24_RN_22_RD_24_1.png","C_Dist_500_LN_2_LD_12_RN_10_RD_15_1.png","C_Dist_500_LN_2_LD_12_RN_12_RD_18_1.png","C_Dist_500_LN_2_LD_12_RN_4_RD_6_1.png","C_Dist_500_LN_2_LD_24_RN_7_RD_12_1.png","C_Dist_500_LN_2_LD_5_RN_18_RD_20_1.png","C_Dist_500_LN_2_LD_5_RN_9_RD_10_1.png","C_Dist_500_LN_2_LD_8_RN_12_RD_16_1.png","C_Dist_500_LN_2_LD_8_RN_21_RD_28_1.png","C_Dist_500_LN_3_LD_10_RN_4_RD_5_1.png","C_Dist_500_LN_3_LD_12_RN_15_RD_20_1.png","C_Dist_500_LN_3_LD_30_RN_6_RD_10_1.png","C_Dist_500_LN_3_LD_8_RN_14_RD_16_1.png","C_Dist_500_LN_4_LD_16_RN_15_RD_20_1.png","C_Dist_500_LN_4_LD_24_RN_12_RD_18_1.png","C_Dist_500_LN_5_LD_14_RN_6_RD_7_1.png","C_Dist_500_LN_7_LD_21_RN_20_RD_24_1.png","C_Dist_500_LN_7_LD_28_RN_12_RD_16_1.png","C_Dist_500_LN_7_LD_28_RN_9_RD_12_1.png","C_Dist_500_LN_9_LD_27_RN_20_RD_24_1.png"]],"dist500_I":[["I_Dist_500_LN_2_LD_3_RN_4_RD_24_0.png","I_Dist_500_LN_5_LD_6_RN_6_RD_18_0.png","I_Dist_500_LN_7_LD_8_RN_9_RD_24_0.png"],["I_Dist_500_LN_7_LD_21_RN_5_RD_6_1.png"]],"dist500_S":[["E_Dist_500_LN_6_LD_8_RN_6_RD_24_0.png"],["E_Dist_500_LN_2_LD_12_RN_2_RD_3_1.png","E_Dist_500_LN_6_LD_24_RN_6_RD_8_1.png"]]}},{"start_time":1551793972664,"click_time":1551793977677,"finger_time":1551793975457,"fix_duration":1145.7566091602098,"trial":1,"RT":2793,"MT":2220,"sideResp":1,"stimulus":[],"xmouse":[795,795,795,795,795,795,795,795,795,795,795,795,795,795,795,795,795,795,795,795,795,795,795,795,795,795,795,795,795,795,795,795,795,795,795,795,795,795,795,795,795,795,795,795,795,795,795,795,795,795,795,795,795,795,795,795,795,795,795,795,795,795,795,795,795,795,795,795,795,795,795,795,795,795,795,795,795,795,795,795,795,795,795,795,795,795,795,795,795,795,795,795,795,795,795,795,795,795,795,795,795,795,795,795,795,795,795,795,795,795,795,795,795,795,795,795,795,795,795,795,795,795,795,795,795,795,795,795,795,795,795,795,795,795,795,795,795,795,795,795,795,795,796,796,796,796,796,796,796,796,796,796,796,796,796,796,796,796,796,796,796,796,796,796,796,796,796,796,796,796,796,796,796,796,796,796,796,796,796,796,796,796,796,796,796,796,796,796,796,796,796,796,796,796,796,796,796,796,796,796,796,796,796,796,796,796,796,796,796,796,796,796,796,796,784,662,631,607,593,589,589,598,604,608,612,604,595,588,584,581,580,580,586,590,591,583,571,559,550,548,548,548,548,548,548,548,548,546,541,533,524],"ymouse":[550,550,550,550,550,550,550,550,550,550,550,550,550,550,550,550,550,550,550,550,550,550,550,550,550,550,550,550,550,550,550,550,550,550,550,550,550,550,550,550,550,550,550,550,550,550,550,550,550,550,550,550,550,550,550,550,550,550,550,550,550,550,550,550,550,550,550,550,550,550,550,550,550,550,550,550,550,550,550,550,550,550,550,550,550,550,550,550,550,550,550,550,550,550,550,550,550,550,550,550,550,550,550,550,550,550,550,550,550,550,550,550,550,550,550,550,550,550,550,550,550,550,550,550,550,550,550,550,550,550,550,550,550,550,550,550,550,550,559,590,599,606,612,617,617,617,617,617,617,617,617,617,617,617,617,617,617,617,617,617,617,617,617,617,617,617,617,617,617,617,617,617,617,617,617,617,617,617,617,617,617,617,617,617,617,617,617,617,617,617,617,617,617,617,617,617,617,617,617,617,617,617,617,617,617,617,617,617,617,617,617,617,617,618,618,612,603,595,583,564,524,498,483,471,455,409,389,373,360,348,318,294,249,209,170,94,64,45,33,31,31,31,31,31,31,31,31,31,33,41,49],"timestamp_mouse":[19,51,52,73,93,112,132,153,173,192,214,234,252,272,292,314,334,352,373,392,414,433,452,474,494,513,534,552,573,593,614,633,653,674,693,714,732,752,774,792,813,834,854,873,894,913,932,954,973,992,1012,1033,1052,1074,1092,1114,1133,1153,1173,1192,1214,1233,1254,1274,1293,1312,1334,1353,1373,1393,1412,1434,1452,1473,1493,1514,1534,1553,1574,1594,1613,1632,1652,1673,1693,1714,1734,1753,1773,1794,1813,1833,1852,1872,1892,1913,1933,1954,1972,1993,2014,2034,2053,2072,2093,2114,2134,2154,2173,2193,2212,2234,2254,2274,2293,2314,2334,2353,2372,2393,2414,2434,2453,2473,2492,2514,2534,2553,2574,2593,2613,2634,2654,2674,2693,2713,2734,2754,2773,2793,2812,2833,2853,2874,2893,2912,2933,2953,2973,2994,3013,3033,3052,3072,3094,3113,3133,3154,3173,3193,3212,3234,3254,3273,3294,3312,3332,3353,3373,3394,3414,3433,3454,3473,3493,3512,3532,3553,3573,3594,3613,3633,3653,3672,3693,3713,3732,3752,3773,3792,3812,3832,3853,3873,3893,3912,3933,3953,3974,3994,4013,4032,4052,4073,4093,4112,4132,4152,4172,4192,4212,4233,4254,4272,4292,4312,4332,4353,4373,4393,4412,4433,4452,4473,4492,4512,4533,4552,4573,4593,4612,4633,4653,4674,4693,4712,4733,4752,4773,4794,4813,4833,4854,4872,4894,4912,4933,4953,4973,4993,5012],"xSR":741.5,"ySR":469.95,"xT1":424.9,"yT1":0,"xT2":1058.1,"yT2":0,"toosoon":0,"cond_shown":"Congruent","ratio_trial":300,"L_num":1,"L_den":5,"R_num":11,"R_den":22,"correct_side":2,"subjID":"santiagovaldesgomez3","gender":"0","school":"0","age":"10"},{"start_time":1551793981026,"click_time":1551793983437,"finger_time":1551793982797,"fix_duration":1267.288591707174,"trial":2,"RT":1771,"MT":640,"sideResp":2,"stimulus":[],"xmouse":[793,793,793,793,793,793,793,793,793,793,793,793,793,793,793,793,793,793,793,793,793,793,793,793,793,793,793,793,793,793,793,793,793,793,793,793,793,793,793,793,793,793,793,793,793,793,793,793,793,793,793,793,793,793,793,793,793,793,793,793,793,793,793,793,793,793,793,793,793,793,793,793,793,793,793,793,793,793,793,793,793,793,793,793,793,793,798,812,822,833,846,858,878,932,968,1009,1058,1107,1168,1180,1191,1214,1229,1262,1275,1288,1294,1298,1298,1297,1293,1266,1241,1203,1192,1187,1183,1180,1171,1164,1158],"ymouse":[504,504,504,504,504,504,504,504,504,504,504,504,504,504,504,504,504,504,504,504,504,504,504,504,504,504,504,504,504,504,504,504,504,504,504,504,504,504,504,504,504,504,504,504,504,504,504,504,504,504,504,504,504,504,504,504,504,504,504,504,504,504,504,504,504,504,504,504,504,504,504,504,504,504,504,504,504,504,504,504,504,504,504,504,504,504,493,471,456,441,423,407,379,318,283,247,213,182,151,146,141,132,124,105,93,81,71,64,60,57,55,49,42,34,32,32,32,32,33,35,36],"timestamp_mouse":[11,31,50,72,91,111,132,152,171,190,211,231,251,272,292,312,332,352,370,391,411,432,451,470,491,512,530,551,571,592,611,632,651,672,691,712,731,751,770,792,812,831,851,870,891,911,932,951,971,990,1011,1031,1052,1071,1091,1112,1130,1150,1170,1191,1212,1232,1250,1271,1290,1311,1331,1351,1372,1391,1412,1432,1450,1472,1491,1511,1530,1551,1571,1590,1611,1631,1651,1672,1692,1711,1730,1752,1771,1790,1811,1832,1851,1870,1890,1910,1931,1952,1970,1991,2010,2030,2051,2071,2091,2110,2130,2151,2170,2191,2210,2231,2251,2271,2290,2311,2331,2352,2370,2391,2411],"xSR":741.5,"ySR":469.95,"xT1":424.9,"yT1":0,"xT2":1058.1,"yT2":0,"toosoon":0,"cond_shown":"Congruent","ratio_trial":100,"L_num":2,"L_den":5,"R_num":6,"R_den":12,"correct_side":2,"subjID":"santiagovaldesgomez3","gender":"0","school":"0","age":"10"},{"start_time":1551793989787,"click_time":1551793993157,"finger_time":1551793991098,"fix_duration":949.0555081897601,"trial":3,"RT":1311,"MT":2059,"sideResp":1,"stimulus":[],"xmouse":[762,762,762,762,762,762,762,762,762,762,762,762,762,762,762,762,762,762,762,762,762,762,762,762,762,762,762,762,762,762,762,762,762,762,762,762,762,762,762,762,762,762,762,762,762,762,762,762,762,762,762,762,762,762,762,762,762,762,762,762,762,762,762,762,749,716,689,671,660,660,658,650,644,638,638,638,638,638,638,638,638,638,638,638,638,638,638,638,638,638,638,638,638,638,638,638,638,638,638,638,638,638,638,638,638,638,638,638,638,638,638,638,638,638,638,638,638,638,638,638,638,638,638,638,638,638,638,638,638,638,638,638,638,637,636,628,619,619,618,617,615,615,615,615,614,609,591,583,576,568,555,551,548,547,547,547,547,547,547,547,547,547,547,545,542,540,530,518,497],"ymouse":[517,517,517,517,517,517,517,517,517,517,517,517,517,517,517,517,517,517,517,517,517,517,517,517,517,517,517,517,517,517,517,517,517,517,517,517,517,517,517,517,517,517,517,517,517,517,517,517,517,517,517,517,517,517,517,517,517,517,517,517,517,517,517,517,512,498,486,480,476,476,476,476,476,477,477,477,477,477,477,477,477,477,477,477,477,477,477,477,477,477,477,477,477,477,477,477,477,477,477,477,477,477,477,477,477,477,477,477,477,477,477,477,477,477,477,477,477,477,477,477,477,477,477,477,477,477,477,477,477,477,477,477,477,478,463,448,436,435,433,432,429,429,429,429,427,419,388,375,363,352,337,332,330,329,329,329,329,329,329,326,307,256,231,207,187,173,143,120,93],"timestamp_mouse":[12,43,50,70,89,109,130,150,171,191,209,230,251,270,289,310,330,350,369,390,410,431,449,470,490,510,529,550,570,590,609,630,650,670,691,710,730,750,769,790,810,829,851,870,889,911,930,951,970,991,1011,1031,1051,1070,1090,1110,1130,1151,1170,1190,1209,1231,1251,1270,1289,1311,1330,1350,1370,1390,1411,1430,1449,1469,1489,1511,1531,1550,1570,1591,1611,1630,1650,1670,1690,1710,1730,1750,1770,1789,1811,1830,1850,1870,1890,1910,1930,1950,1971,1990,2011,2030,2049,2071,2090,2111,2131,2149,2170,2190,2210,2229,2249,2271,2290,2311,2331,2349,2371,2390,2410,2429,2450,2470,2490,2511,2531,2549,2569,2590,2610,2631,2650,2669,2689,2709,2729,2749,2769,2789,2811,2829,2850,2870,2889,2909,2929,2949,2969,2990,3011,3029,3050,3070,3090,3111,3131,3149,3170,3190,3209,3229,3249,3271,3291,3310,3329,3349,3370],"xSR":741.5,"ySR":469.95,"xT1":424.9,"yT1":0,"xT2":1058.1,"yT2":0,"toosoon":0,"cond_shown":"Congruent","ratio_trial":100,"L_num":11,"L_den":22,"R_num":6,"R_den":15,"correct_side":1,"subjID":"santiagovaldesgomez3","gender":"0","school":"0","age":"10"},{"start_time":1551793996909,"click_time":1551793998357,"finger_time":1551793997578,"fix_duration":250,"trial":4,"RT":669,"MT":779,"sideResp":2,"stimulus":[],"xmouse":[792,792,792,792,792,792,792,792,792,792,792,792,792,792,792,792,792,792,792,792,792,792,792,792,792,792,792,792,792,792,792,806,834,865,900,937,938,938,938,938,938,938,938,938,938,938,938,938,939,939,958,974,991,1006,1021,1034,1039,1043,1046,1048,1052,1052,1052,1052,1051,1049,1048,1048,1047,1047,1049,1055,1063],"ymouse":[543,543,543,543,543,543,543,543,543,543,543,543,543,543,543,543,543,543,543,543,543,543,543,543,543,543,543,543,543,543,543,543,539,532,528,528,528,528,528,528,528,528,528,528,528,528,528,528,528,528,476,442,404,367,329,281,260,244,225,208,173,166,162,157,153,146,142,138,132,122,109,101,92],"timestamp_mouse":[13,38,48,67,88,108,128,149,168,187,207,229,248,268,287,307,327,349,368,388,408,427,447,469,488,508,528,547,569,589,607,627,648,669,688,707,728,747,768,787,807,828,848,868,889,908,928,948,967,989,1009,1027,1049,1068,1088,1108,1129,1149,1167,1187,1208,1228,1247,1268,1289,1308,1328,1349,1368,1389,1407,1428,1447],"xSR":741.5,"ySR":469.95,"xT1":424.9,"yT1":0,"xT2":1058.1,"yT2":0,"toosoon":0,"cond_shown":"Congruent","ratio_trial":300,"L_num":1,"L_den":5,"R_num":11,"R_den":22,"correct_side":2,"subjID":"santiagovaldesgomez3","gender":"0","school":"0","age":"10"},{"start_time":1551793999349,"click_time":1551794001976,"finger_time":1551794001338,"fix_duration":250,"trial":5,"RT":1989,"MT":638,"sideResp":2,"stimulus":[],"xmouse":[777,777,777,777,777,777,777,777,777,777,777,777,777,777,777,777,777,777,777,777,777,777,777,777,777,777,777,777,777,777,777,777,777,777,777,777,777,777,777,777,777,777,777,777,777,777,777,777,777,777,777,777,777,777,777,777,777,777,777,777,777,777,777,777,777,777,777,777,777,777,777,777,777,777,777,777,777,777,777,777,777,777,777,777,777,777,777,777,777,777,777,777,777,777,777,777,777,777,783,857,928,1012,1094,1219,1241,1254,1264,1271,1271,1271,1267,1259,1249,1245,1240,1233,1219,1212,1211,1211,1208,1205,1199,1193,1183,1179,1177,1177,1177,1172,1159,1140],"ymouse":[529,529,529,529,529,529,529,529,529,529,529,529,529,529,529,529,529,529,529,529,529,529,529,529,529,529,529,529,529,529,529,529,529,529,529,529,529,529,529,529,529,529,529,529,529,529,529,529,529,529,529,529,529,529,529,529,529,529,529,529,529,529,529,529,529,529,529,529,529,529,529,529,529,529,529,529,529,529,529,529,529,529,529,529,529,529,529,529,529,529,529,529,529,529,529,529,529,529,528,490,440,377,316,223,198,171,140,107,96,80,63,45,32,26,18,15,13,13,13,13,13,23,37,50,68,73,75,75,75,77,81,85],"timestamp_mouse":[7,27,47,68,89,109,128,148,169,189,209,229,249,268,289,308,329,347,368,388,408,429,449,468,489,508,529,548,568,587,609,628,648,668,688,708,729,748,768,789,808,828,848,869,888,908,927,948,967,988,1008,1029,1047,1069,1088,1107,1128,1149,1168,1188,1207,1229,1248,1267,1288,1309,1328,1348,1367,1388,1408,1429,1449,1469,1488,1507,1528,1548,1567,1588,1609,1628,1647,1668,1687,1709,1728,1749,1769,1788,1809,1828,1849,1867,1888,1907,1929,1948,1968,1989,2008,2027,2047,2069,2087,2108,2127,2148,2167,2187,2207,2227,2248,2267,2287,2308,2329,2347,2368,2389,2408,2428,2448,2468,2488,2508,2528,2555,2568,2587,2608,2627],"xSR":741.5,"ySR":469.95,"xT1":424.9,"yT1":0,"xT2":1058.1,"yT2":0,"toosoon":0,"cond_shown":"Congruent","ratio_trial":200,"L_num":6,"L_den":12,"R_num":7,"R_den":10,"correct_side":2,"subjID":"santiagovaldesgomez3","gender":"0","school":"0","age":"10"},{"start_time":1551794003079,"click_time":1551794005258,"finger_time":1551794004736,"fix_duration":340.626817519686,"trial":6,"RT":1657,"MT":522,"sideResp":1,"stimulus":[],"xmouse":[777,777,777,777,777,777,777,777,777,777,777,777,777,777,777,777,777,777,777,777,777,777,777,777,777,777,777,777,777,777,777,777,777,777,777,777,777,777,777,777,777,777,777,777,777,777,777,777,777,777,777,777,777,777,777,777,777,777,777,777,777,777,777,777,777,777,777,777,777,777,777,777,777,777,777,777,777,777,777,777,780,782,795,806,816,821,822,808,791,780,769,756,718,696,670,630,587,505,464,444,431,424,418,416,416,416,416,418,427],"ymouse":[526,526,526,526,526,526,526,526,526,526,526,526,526,526,526,526,526,526,526,526,526,526,526,526,526,526,526,526,526,526,526,526,526,526,526,526,526,526,526,526,526,526,526,526,526,526,526,526,526,526,526,526,526,526,526,526,526,526,526,526,526,526,526,526,526,526,526,526,526,526,526,526,526,526,526,526,526,526,526,526,522,514,469,431,386,355,335,288,259,243,230,217,196,187,179,169,155,133,120,111,104,100,94,90,88,87,86,83,78],"timestamp_mouse":[17,38,58,78,99,117,137,159,179,198,217,239,259,277,298,318,338,357,379,398,417,438,459,478,497,517,539,557,577,598,618,639,658,678,699,718,737,757,777,799,818,838,858,877,898,918,937,959,979,999,1018,1038,1059,1077,1097,1119,1138,1158,1177,1198,1217,1239,1259,1279,1299,1319,1338,1358,1377,1398,1418,1439,1458,1478,1498,1518,1537,1558,1579,1599,1619,1639,1657,1678,1698,1719,1738,1758,1777,1797,1819,1838,1858,1877,1897,1917,1939,1958,1979,1997,2017,2037,2057,2077,2097,2117,2138,2158,2179],"xSR":741.5,"ySR":469.95,"xT1":424.9,"yT1":0,"xT2":1058.1,"yT2":0,"toosoon":0,"cond_shown":"Incongruent","ratio_trial":300,"L_num":8,"L_den":10,"R_num":14,"R_den":28,"correct_side":1,"subjID":"santiagovaldesgomez3","gender":"0","school":"0","age":"10"},{"start_time":1551794006408,"click_time":1551794008538,"finger_time":1551794007916,"fix_duration":250,"trial":7,"RT":1508,"MT":622,"sideResp":1,"stimulus":[],"xmouse":[764,764,763,763,763,763,763,763,763,763,763,763,763,763,763,763,763,763,763,763,763,763,763,763,763,763,763,763,763,763,763,763,763,763,763,763,763,763,763,763,763,763,763,763,763,763,763,763,763,763,763,763,763,763,763,763,763,763,763,763,763,763,763,763,763,763,763,763,763,763,763,763,763,763,765,765,753,739,724,708,698,687,686,683,675,661,644,611,600,594,587,585,577,569,564,557,550,543,542,542,542,542,541,540,536,530,508],"ymouse":[507,509,511,511,511,511,511,511,511,511,511,511,511,511,511,511,511,511,511,511,511,511,511,511,511,511,511,511,511,511,511,511,511,511,511,511,511,511,511,511,511,511,511,511,511,511,511,511,511,511,511,511,511,511,511,511,511,511,511,511,511,511,511,511,511,511,511,511,511,511,511,511,511,503,480,452,403,381,362,343,329,314,312,309,301,290,274,249,237,228,213,206,164,148,139,130,124,118,118,118,118,116,114,112,109,103,87],"timestamp_mouse":[8,29,49,70,89,119,129,150,170,188,209,230,249,269,289,310,329,349,370,390,410,428,450,469,489,509,529,550,569,589,608,628,649,669,688,709,729,749,768,790,809,828,849,870,890,909,930,949,970,989,1009,1028,1049,1070,1089,1108,1129,1150,1170,1189,1209,1228,1249,1269,1288,1308,1329,1350,1369,1390,1410,1428,1448,1468,1489,1508,1529,1548,1569,1588,1608,1629,1648,1669,1688,1709,1730,1748,1768,1788,1809,1828,1849,1869,1889,1908,1928,1948,1969,1989,2009,2030,2050,2068,2088,2109,2130],"xSR":741.5,"ySR":469.95,"xT1":424.9,"yT1":0,"xT2":1058.1,"yT2":0,"toosoon":0,"cond_shown":"Congruent","ratio_trial":200,"L_num":16,"L_den":30,"R_num":9,"R_den":27,"correct_side":1,"subjID":"santiagovaldesgomez3","gender":"0","school":"0","age":"10"},{"start_time":1551794010417,"click_time":1551794012657,"finger_time":1551794012138,"fix_duration":957.8555695300306,"trial":8,"RT":1721,"MT":519,"sideResp":2,"stimulus":[],"xmouse":[800,800,800,800,800,800,800,800,800,800,800,800,800,800,800,800,800,800,800,800,800,800,800,800,800,800,800,800,800,800,800,800,800,800,800,800,800,800,800,800,800,800,800,800,800,800,800,800,800,800,800,800,800,800,800,800,800,800,800,800,800,800,800,800,800,800,800,800,800,800,800,800,800,800,800,800,800,800,800,800,800,800,802,810,823,839,850,863,883,946,992,1010,1028,1029,1029,1029,1029,1042,1050,1066,1082,1098,1120,1124,1127,1131,1135,1136,1136,1137,1138,1140,1141],"ymouse":[534,534,534,534,534,534,534,534,534,534,534,534,534,534,534,534,534,534,534,534,534,534,534,534,534,534,534,534,534,534,534,534,534,534,534,534,534,534,534,534,534,534,534,534,534,534,534,534,534,534,534,534,534,534,534,534,534,534,534,534,534,534,534,534,534,534,534,534,534,534,534,534,534,534,534,534,534,534,534,534,534,534,530,519,503,483,467,436,398,326,277,259,247,246,246,246,246,225,214,199,185,173,158,155,153,149,143,138,136,130,117,102,77],"timestamp_mouse":[10,21,41,59,81,100,119,140,159,179,201,221,240,260,281,300,320,340,361,380,400,420,441,460,479,499,521,541,560,580,601,621,640,659,681,701,721,741,759,779,800,819,841,861,881,900,921,940,961,979,1000,1019,1040,1061,1081,1100,1119,1141,1161,1180,1200,1220,1240,1261,1279,1300,1319,1341,1359,1379,1399,1421,1440,1461,1479,1499,1521,1539,1560,1579,1599,1619,1639,1659,1679,1699,1721,1739,1761,1780,1801,1819,1839,1860,1880,1900,1920,1940,1960,1979,2001,2021,2039,2060,2080,2100,2120,2140,2160,2180,2200,2220,2240],"xSR":741.5,"ySR":469.95,"xT1":424.9,"yT1":0,"xT2":1058.1,"yT2":0,"toosoon":0,"cond_shown":"Incongruent","ratio_trial":100,"L_num":8,"L_den":16,"R_num":6,"R_den":10,"correct_side":2,"subjID":"santiagovaldesgomez3","gender":"0","school":"0","age":"10"},{"start_time":1551794015314,"click_time":1551794017797,"finger_time":1551794016957,"fix_duration":356.15726146883065,"trial":9,"RT":1643,"MT":840,"sideResp":1,"stimulus":[],"xmouse":[808,808,808,808,808,808,808,808,808,808,808,808,808,808,808,808,808,808,808,808,808,808,808,808,808,808,808,808,808,808,808,808,808,808,808,808,808,808,808,808,808,808,808,808,808,808,808,808,808,808,808,808,808,808,808,808,808,808,808,808,808,807,805,801,796,790,784,775,774,774,774,774,774,774,774,773,773,772,770,767,761,752,724,711,711,707,682,682,682,682,682,682,682,682,682,682,682,682,682,682,380,364,362,362,363,363,363,363,363,363,364,372,459,504,529,538,539,539,539,539,539,539,536,531,521],"ymouse":[554,554,554,554,554,554,554,554,554,554,554,554,554,554,554,554,554,554,554,554,554,554,554,554,554,554,554,554,554,554,554,554,554,554,554,554,554,554,554,554,554,554,554,554,554,554,554,554,554,554,554,554,554,554,554,554,554,554,554,554,554,554,555,556,556,559,560,565,565,565,565,565,565,565,565,565,564,563,556,547,533,514,425,340,219,96,4,4,4,4,4,4,4,4,4,4,4,4,4,4,21,108,182,196,200,202,202,202,202,202,202,199,132,107,93,84,83,83,83,83,83,83,81,81,81],"timestamp_mouse":[10,23,42,63,83,103,124,143,164,184,202,224,244,263,284,302,323,344,363,384,402,424,443,463,483,504,523,544,563,584,603,623,643,663,683,704,723,743,764,783,804,823,843,864,884,902,924,943,964,983,1003,1024,1042,1064,1083,1103,1124,1143,1163,1184,1204,1222,1242,1263,1282,1302,1323,1352,1363,1382,1404,1423,1444,1463,1482,1503,1522,1543,1563,1583,1603,1622,1643,1663,1682,1703,1722,1744,1763,1782,1802,1822,1843,1863,1883,1903,1923,1943,1964,1984,2002,2023,2044,2062,2082,2102,2122,2143,2163,2183,2202,2223,2244,2262,2282,2303,2323,2344,2364,2384,2403,2422,2444,2462,2483],"xSR":741.5,"ySR":469.95,"xT1":424.9,"yT1":0,"xT2":1058.1,"yT2":0,"toosoon":0,"cond_shown":"Congruent","ratio_trial":300,"L_num":8,"L_den":15,"R_num":10,"R_den":12,"correct_side":2,"subjID":"santiagovaldesgomez3","gender":"0","school":"0","age":"10"},{"start_time":1551794021709,"click_time":1551794023476,"finger_time":1551794023257,"fix_duration":250,"trial":10,"RT":1548,"MT":219,"sideResp":2,"stimulus":[],"xmouse":[806,806,806,806,806,806,806,806,806,806,806,806,806,806,806,806,806,806,806,806,806,806,806,806,806,806,806,806,806,806,806,806,806,806,806,806,806,806,806,806,806,806,806,806,806,806,806,806,806,806,806,806,806,806,806,806,806,806,806,806,806,806,806,806,806,806,806,806,806,806,806,806,806,806,807,811,818,826,878,906,935,963,986,1013,1021,1024,1028,1036,1081],"ymouse":[516,516,516,516,516,516,516,516,516,516,516,516,516,516,516,516,516,516,516,516,516,516,516,516,516,516,516,516,516,516,516,516,516,516,516,516,516,516,516,516,516,516,516,516,516,516,516,516,516,516,516,516,516,516,516,516,516,516,516,516,516,516,516,516,516,516,516,516,516,516,516,516,516,516,509,497,476,448,333,283,232,191,158,124,118,116,114,108,78],"timestamp_mouse":[10,41,47,67,86,107,128,147,167,186,208,228,247,267,288,308,327,347,368,388,407,428,447,466,487,508,526,547,567,588,607,628,648,668,687,707,727,748,766,787,808,828,847,867,888,906,927,947,967,987,1007,1026,1046,1066,1086,1107,1128,1147,1166,1186,1207,1228,1247,1266,1286,1306,1328,1347,1366,1387,1406,1427,1448,1468,1486,1507,1527,1548,1567,1586,1606,1627,1647,1667,1687,1708,1727,1747,1767],"xSR":741.5,"ySR":469.95,"xT1":424.9,"yT1":0,"xT2":1058.1,"yT2":0,"toosoon":0,"cond_shown":"Incongruent","ratio_trial":200,"L_num":7,"L_den":10,"R_num":8,"R_den":16,"correct_side":1,"subjID":"santiagovaldesgomez3","gender":"0","school":"0","age":"10"},{"start_time":1551794025797,"click_time":1551794027616,"finger_time":1551794027516,"fix_duration":1058.3527198595486,"trial":11,"RT":1719,"MT":100,"sideResp":2,"stimulus":[],"xmouse":[785,785,785,785,785,785,785,785,785,785,785,785,785,785,785,785,785,785,785,785,785,785,785,785,785,785,785,785,785,785,785,785,785,785,785,785,785,785,785,785,785,785,785,785,785,785,785,785,785,785,787,787,787,787,787,787,787,787,787,787,787,787,787,787,787,787,787,787,786,785,784,781,781,780,780,780,780,780,780,780,780,780,780,780,780,810,839,878,920,963,1040,1092],"ymouse":[521,521,521,521,521,521,521,521,521,521,521,521,521,521,521,521,521,521,521,521,521,521,521,521,521,521,521,521,521,521,521,521,521,521,521,521,521,521,521,521,521,521,521,521,521,521,521,521,521,521,521,519,518,518,518,518,518,518,518,518,518,518,518,518,518,518,518,518,517,515,510,505,503,502,502,502,502,502,502,502,502,502,502,502,500,472,447,410,357,297,168,99],"timestamp_mouse":[6,21,43,59,80,99,119,138,158,180,200,219,239,258,279,300,319,339,359,379,400,419,439,459,479,500,520,538,560,578,599,619,638,659,679,698,718,739,760,778,798,819,839,858,879,900,919,938,958,979,999,1019,1038,1058,1080,1099,1120,1138,1158,1180,1200,1219,1239,1259,1280,1300,1319,1340,1359,1380,1399,1419,1439,1458,1479,1500,1520,1539,1559,1578,1598,1618,1639,1658,1679,1700,1719,1739,1758,1779,1798,1819],"xSR":741.5,"ySR":469.95,"xT1":424.9,"yT1":0,"xT2":1058.1,"yT2":0,"toosoon":0,"cond_shown":"Congruent","ratio_trial":200,"L_num":3,"L_den":10,"R_num":7,"R_den":14,"correct_side":2,"subjID":"santiagovaldesgomez3","gender":"0","school":"0","age":"10"},{"start_time":1551794030587,"click_time":1551794032377,"finger_time":1551794031796,"fix_duration":250,"trial":12,"RT":1209,"MT":581,"sideResp":1,"stimulus":[],"xmouse":[811,811,811,811,811,811,811,811,811,811,811,811,811,811,811,811,811,811,811,811,811,811,811,811,811,811,811,811,811,811,811,811,811,811,811,811,811,811,811,811,811,811,811,811,811,811,811,809,806,800,793,772,762,752,749,749,749,746,745,743,737,729,723,716,705,693,663,649,638,632,636,638,637,633,625,618,616,613,611,605,596,589,587,582,578,563,553,542,531,507],"ymouse":[515,515,515,515,515,515,515,515,515,515,515,515,515,515,515,515,515,515,515,515,515,515,515,515,515,515,515,515,515,515,515,515,515,515,515,515,515,515,515,515,515,515,515,515,515,515,515,515,515,509,501,484,480,478,477,477,477,474,474,471,464,455,445,431,416,396,352,327,299,265,210,195,182,174,165,156,150,141,132,121,111,107,106,104,102,97,92,87,81,73],"timestamp_mouse":[15,29,50,69,89,109,129,150,169,189,210,229,250,268,289,310,328,350,370,390,409,429,450,470,490,509,530,550,569,589,608,630,649,669,689,709,729,748,768,790,809,830,850,869,890,908,929,948,969,989,1008,1029,1049,1069,1089,1109,1130,1148,1168,1189,1209,1228,1248,1268,1288,1308,1328,1349,1369,1389,1409,1428,1448,1468,1488,1509,1528,1549,1569,1590,1609,1628,1648,1669,1688,1709,1728,1748,1769,1790],"xSR":741.5,"ySR":469.95,"xT1":424.9,"yT1":0,"xT2":1058.1,"yT2":0,"toosoon":0,"cond_shown":"Congruent","ratio_trial":300,"L_num":12,"L_den":24,"R_num":2,"R_den":10,"correct_side":1,"subjID":"santiagovaldesgomez3","gender":"0","school":"0","age":"10"},{"start_time":1551794034060,"click_time":1551794035815,"finger_time":1551794035195,"fix_duration":703.6455599292686,"trial":13,"RT":1135,"MT":620,"sideResp":1,"stimulus":[],"xmouse":[783,783,783,783,783,783,783,783,783,783,783,783,783,783,783,783,783,783,783,783,783,783,783,783,783,783,783,783,783,783,783,783,783,783,783,783,783,783,783,783,783,783,783,783,783,783,783,783,783,783,783,783,781,774,758,752,731,704,695,688,685,685,683,682,680,678,675,659,650,643,635,605,589,575,566,560,556,554,554,554,554,554,554,553,552,550,544,520],"ymouse":[518,518,518,518,518,518,518,518,518,518,518,518,518,518,518,518,518,518,518,518,518,518,518,518,518,518,518,518,518,518,518,518,518,518,518,518,518,518,518,518,518,518,518,518,518,518,518,518,518,518,518,518,515,508,494,489,470,452,447,443,440,440,439,438,436,433,428,388,352,306,254,186,162,139,119,101,86,83,83,83,83,83,82,81,81,79,78,74],"timestamp_mouse":[16,38,56,76,95,115,136,157,176,197,216,236,255,277,295,316,336,355,377,395,416,435,457,475,495,515,537,555,576,597,615,636,657,676,696,717,736,755,776,795,817,837,856,875,896,917,935,955,977,997,1017,1037,1055,1077,1096,1117,1135,1155,1177,1195,1217,1237,1255,1275,1296,1317,1337,1355,1375,1396,1415,1437,1456,1476,1496,1516,1537,1557,1576,1596,1616,1637,1657,1675,1695,1717,1737,1755],"xSR":741.5,"ySR":469.95,"xT1":424.9,"yT1":0,"xT2":1058.1,"yT2":0,"toosoon":0,"cond_shown":"Incongruent","ratio_trial":100,"L_num":6,"L_den":12,"R_num":3,"R_den":5,"correct_side":2,"subjID":"santiagovaldesgomez3","gender":"0","school":"0","age":"10"},{"start_time":1551794039587,"click_time":1551794041397,"finger_time":1551794041017,"fix_duration":250,"trial":14,"RT":1430,"MT":380,"sideResp":2,"stimulus":[],"xmouse":[810,810,810,810,810,810,810,810,810,810,810,810,810,810,810,810,810,810,810,810,810,810,810,810,810,810,810,810,810,810,810,810,810,810,810,810,810,810,810,810,810,810,810,810,810,810,810,810,810,810,810,810,810,810,810,810,810,810,810,810,810,810,810,810,810,810,810,810,812,819,834,889,925,956,980,1012,1071,1102,1124,1141,1149,1153,1151,1151,1151,1151,1151,1150,1145,1137,1127],"ymouse":[535,535,535,535,535,535,535,535,535,535,535,535,535,535,535,535,535,535,535,535,535,535,535,535,535,535,535,535,535,535,535,535,535,535,535,535,535,535,535,535,535,535,535,535,535,535,535,535,535,535,535,535,535,535,535,535,535,535,535,535,535,535,535,535,535,535,535,535,531,525,514,467,433,402,377,339,272,234,206,180,160,146,132,129,127,126,122,118,111,102,96],"timestamp_mouse":[9,46,50,68,89,110,128,150,169,189,208,230,250,269,289,310,328,350,368,390,410,429,450,468,490,509,530,548,569,588,608,628,649,670,689,708,729,749,770,790,809,829,848,870,888,908,928,949,969,988,1008,1029,1049,1069,1090,1109,1128,1148,1170,1189,1209,1229,1248,1268,1289,1310,1328,1349,1369,1389,1410,1430,1448,1469,1489,1509,1530,1548,1568,1590,1609,1629,1649,1669,1689,1708,1729,1748,1768,1790,1810],"xSR":741.5,"ySR":469.95,"xT1":424.9,"yT1":0,"xT2":1058.1,"yT2":0,"toosoon":0,"cond_shown":"Congruent","ratio_trial":200,"L_num":13,"L_den":26,"R_num":14,"R_den":20,"correct_side":2,"subjID":"santiagovaldesgomez3","gender":"0","school":"0","age":"10"},{"start_time":1551794043107,"click_time":1551794045056,"finger_time":1551794044736,"fix_duration":549.7729530891521,"trial":15,"RT":1629,"MT":320,"sideResp":2,"stimulus":[],"xmouse":[770,770,770,770,770,770,770,770,770,770,770,770,770,770,770,770,770,770,770,770,770,770,770,770,770,770,770,770,770,770,770,770,770,770,770,770,770,770,770,770,770,770,770,770,770,770,770,770,770,770,770,770,770,770,770,770,770,770,770,770,770,770,770,770,770,770,770,770,770,770,770,770,770,770,770,770,770,770,770,773,783,832,873,924,967,1007,1064,1075,1082,1082,1083,1087,1088,1091,1094,1112,1122,1130],"ymouse":[527,527,527,527,527,527,527,527,527,527,527,527,527,527,527,527,527,527,527,527,527,527,527,527,527,527,527,527,527,527,527,527,527,527,527,527,527,527,527,527,527,527,527,527,527,527,527,527,527,527,527,527,527,527,527,527,527,527,527,527,527,527,527,527,527,527,527,527,527,527,527,527,527,527,527,527,527,527,526,519,509,469,442,410,383,361,328,319,314,313,309,282,261,239,215,150,107,65],"timestamp_mouse":[20,44,50,70,89,108,130,149,169,189,209,229,249,270,289,308,330,350,370,389,410,430,448,468,488,508,528,550,570,588,610,630,650,669,690,710,730,748,769,789,809,828,850,869,888,909,929,949,968,988,1008,1030,1049,1069,1090,1110,1130,1149,1169,1188,1209,1230,1250,1270,1289,1309,1329,1349,1368,1388,1410,1430,1449,1468,1489,1510,1530,1549,1569,1590,1608,1629,1648,1668,1688,1709,1728,1749,1769,1789,1808,1828,1848,1868,1888,1911,1928,1949],"xSR":741.5,"ySR":469.95,"xT1":424.9,"yT1":0,"xT2":1058.1,"yT2":0,"toosoon":0,"cond_shown":"Congruent","ratio_trial":200,"L_num":8,"L_den":15,"R_num":2,"R_den":6,"correct_side":1,"subjID":"santiagovaldesgomez3","gender":"0","school":"0","age":"10"},{"start_time":1551794048817,"click_time":1551794049655,"finger_time":1551794049576,"fix_duration":1259.9532054072438,"trial":16,"RT":759,"MT":79,"sideResp":2,"stimulus":[],"xmouse":[767,767,767,767,767,767,767,767,767,767,767,767,767,767,767,767,767,767,767,767,767,767,767,767,767,767,767,767,767,767,767,767,767,767,766,775,793,825,888,997,1119,1145],"ymouse":[527,527,527,527,527,527,527,527,527,527,527,527,527,527,527,527,527,527,527,527,527,527,527,527,527,527,527,527,527,527,527,527,527,527,527,516,499,469,405,280,111,47],"timestamp_mouse":[19,39,60,78,99,119,138,160,180,199,218,239,258,279,300,319,339,360,380,399,419,440,458,479,500,519,539,560,578,600,618,638,659,680,698,719,739,759,780,800,819,838],"xSR":741.5,"ySR":469.95,"xT1":424.9,"yT1":0,"xT2":1058.1,"yT2":0,"toosoon":0,"cond_shown":"Congruent","ratio_trial":100,"L_num":6,"L_den":12,"R_num":15,"R_den":25,"correct_side":2,"subjID":"santiagovaldesgomez3","gender":"0","school":"0","age":"10"},{"start_time":1551794051205,"click_time":1551794053438,"finger_time":1551794052436,"fix_duration":289.5772602628105,"trial":17,"RT":1231,"MT":1002,"sideResp":2,"stimulus":[],"xmouse":[803,803,803,803,803,803,803,803,803,803,803,803,803,803,803,803,803,803,803,803,803,803,803,803,803,803,803,803,803,803,803,803,803,803,803,803,803,803,803,803,803,803,803,803,803,803,803,803,803,803,803,803,803,803,803,803,803,803,803,804,807,813,842,866,900,940,1024,1054,1085,1094,1105,1117,1118,1119,1120,1122,1127,1130,1133,1137,1138,1140,1145,1146,1146,1146,1145,1142,1138,1130,1127,1125,1118,1115,1114,1113,1113,1113,1113,1112,1112,1112,1112,1112,1112,1112,1111,1109,1109,1107,1105,1102],"ymouse":[485,485,485,485,486,486,486,486,486,486,486,486,486,486,486,486,486,486,486,486,486,486,486,486,486,486,486,486,486,486,486,486,486,486,486,486,486,486,486,486,486,486,486,486,486,486,486,486,486,486,486,486,486,486,486,485,484,484,482,480,476,469,445,430,413,395,359,339,316,308,297,283,281,279,278,274,255,243,220,203,184,169,136,126,120,116,114,113,111,111,111,111,118,121,122,122,122,122,122,122,119,117,113,111,110,110,106,104,103,101,100,99],"timestamp_mouse":[13,30,55,70,90,110,131,151,170,190,212,231,251,272,291,312,331,351,372,390,411,432,452,471,491,511,531,552,572,591,612,630,651,672,692,712,731,752,771,791,811,831,852,872,891,911,931,951,970,992,1011,1030,1051,1071,1092,1112,1131,1151,1170,1190,1211,1231,1252,1271,1290,1311,1333,1350,1371,1391,1412,1432,1450,1470,1492,1510,1544,1551,1570,1592,1610,1630,1651,1671,1692,1711,1732,1750,1771,1791,1810,1830,1852,1870,1891,1910,1930,1951,1970,1992,2011,2032,2052,2070,2091,2111,2133,2151,2171,2192,2212,2233],"xSR":741.5,"ySR":469.95,"xT1":424.9,"yT1":0,"xT2":1058.1,"yT2":0,"toosoon":0,"cond_shown":"Incongruent","ratio_trial":100,"L_num":6,"L_den":10,"R_num":11,"R_den":22,"correct_side":1,"subjID":"santiagovaldesgomez3","gender":"0","school":"0","age":"10"},{"start_time":1551794060238,"click_time":1551794062937,"finger_time":1551794062336,"fix_duration":721.2134663268151,"trial":18,"RT":2098,"MT":601,"sideResp":1,"stimulus":[],"xmouse":[787,787,787,787,787,787,787,787,787,787,787,787,787,787,787,787,787,787,787,788,788,788,788,788,788,788,788,788,788,788,788,788,788,788,788,788,788,788,788,788,788,788,788,788,788,788,788,788,788,788,788,788,788,788,788,788,788,788,788,788,788,788,788,788,788,788,788,788,788,788,788,788,788,788,788,788,788,788,788,788,788,788,788,788,788,788,788,788,788,788,788,788,788,788,788,788,788,788,788,788,788,787,782,774,764,751,727,719,714,712,711,707,701,698,687,680,662,650,638,625,612,583,561,550,540,534,529,527,527,526,524,522,520,518,514],"ymouse":[558,558,558,558,558,558,558,558,558,558,558,558,558,558,558,558,558,558,558,557,557,557,557,557,557,557,557,557,557,557,557,557,557,557,557,557,557,557,557,557,557,557,557,557,557,557,557,557,557,557,557,557,557,557,557,557,557,557,557,557,557,557,557,557,557,557,557,557,557,557,557,557,557,557,557,557,557,557,557,557,557,557,557,557,557,557,557,557,557,557,557,557,557,557,557,557,557,557,557,557,557,550,533,488,436,389,330,315,307,303,301,293,280,276,259,249,234,226,218,208,196,177,161,154,146,141,135,134,133,132,122,116,110,102,90],"timestamp_mouse":[18,38,57,77,97,119,139,158,177,199,219,239,258,279,298,318,338,359,378,398,419,439,457,479,498,519,537,558,579,599,618,639,657,677,699,717,739,758,778,799,817,837,859,877,899,917,937,959,977,998,1019,1039,1058,1077,1099,1119,1138,1157,1179,1198,1219,1237,1257,1278,1299,1317,1337,1358,1378,1399,1418,1437,1459,1477,1499,1519,1538,1558,1579,1598,1619,1638,1659,1678,1697,1717,1737,1759,1777,1799,1818,1839,1857,1878,1899,1919,1938,1957,1977,1998,2018,2037,2059,2077,2098,2117,2137,2157,2178,2197,2217,2237,2259,2278,2299,2317,2337,2357,2377,2397,2417,2437,2458,2478,2497,2517,2537,2557,2578,2598,2620,2637,2658,2678,2699],"xSR":741.5,"ySR":469.95,"xT1":424.9,"yT1":0,"xT2":1058.1,"yT2":0,"toosoon":0,"cond_shown":"Congruent","ratio_trial":300,"L_num":3,"L_den":6,"R_num":4,"R_den":5,"correct_side":2,"subjID":"santiagovaldesgomez3","gender":"0","school":"0","age":"10"},{"start_time":1551794066849,"click_time":1551794068677,"finger_time":1551794068356,"fix_duration":250,"trial":19,"RT":1507,"MT":321,"sideResp":2,"stimulus":[],"xmouse":[794,794,794,794,794,794,794,794,794,794,794,794,794,794,794,794,794,794,794,794,794,794,794,794,794,794,794,794,794,794,794,794,794,794,794,794,794,794,794,794,794,794,794,794,794,794,794,794,794,794,794,794,794,794,794,794,794,794,794,794,794,794,794,794,794,794,794,794,796,798,799,803,808,818,830,849,883,892,908,929,956,1006,1025,1039,1048,1057,1075,1082,1088,1093,1100,1110],"ymouse":[539,539,539,539,539,539,539,539,539,540,540,540,540,540,540,540,540,540,540,540,540,541,541,541,541,541,541,541,541,541,541,541,541,541,541,541,541,541,541,541,541,541,541,541,541,541,541,541,541,541,541,541,541,541,542,542,542,542,542,542,542,542,542,542,542,542,542,542,542,542,542,539,536,528,517,502,441,399,342,298,257,201,185,173,165,156,133,122,114,109,106,99],"timestamp_mouse":[13,43,47,66,88,107,127,147,168,187,207,227,248,267,287,307,327,347,368,388,407,428,448,467,488,506,526,546,568,588,607,627,647,668,687,708,726,746,768,787,806,826,846,867,888,908,927,947,967,988,1007,1026,1047,1068,1087,1107,1127,1147,1167,1188,1207,1227,1246,1267,1288,1307,1327,1348,1366,1386,1407,1427,1448,1468,1487,1507,1528,1546,1567,1587,1608,1627,1647,1666,1686,1706,1728,1746,1767,1787,1808,1827],"xSR":741.5,"ySR":469.95,"xT1":424.9,"yT1":0,"xT2":1058.1,"yT2":0,"toosoon":0,"cond_shown":"Incongruent","ratio_trial":100,"L_num":13,"L_den":26,"R_num":12,"R_den":20,"correct_side":2,"subjID":"santiagovaldesgomez3","gender":"0","school":"0","age":"10"},{"start_time":1551794072549,"click_time":1551794073796,"finger_time":1551794073556,"fix_duration":250,"trial":20,"RT":1007,"MT":240,"sideResp":1,"stimulus":[],"xmouse":[798,798,798,798,798,798,798,798,798,798,798,798,798,798,798,798,798,798,798,798,798,798,798,798,798,798,798,798,798,798,798,798,798,798,798,798,798,798,798,798,798,798,792,785,776,770,763,755,752,747,741,734,711,686,664,636,607,558,537,516,497,483,466],"ymouse":[552,552,552,552,552,552,552,552,552,552,552,552,552,552,552,552,552,552,552,552,552,552,552,552,552,552,552,552,552,552,552,552,552,552,552,552,552,552,552,552,552,552,550,545,541,537,533,525,517,505,492,475,439,405,376,344,309,244,214,179,145,119,73],"timestamp_mouse":[12,28,47,68,86,107,128,148,167,188,207,227,247,266,288,307,327,348,366,387,408,427,446,466,486,507,527,548,566,587,607,627,648,667,687,707,726,746,766,788,806,827,846,867,887,908,926,946,966,987,1007,1027,1048,1066,1086,1107,1126,1147,1167,1187,1208,1228,1247],"xSR":741.5,"ySR":469.95,"xT1":424.9,"yT1":0,"xT2":1058.1,"yT2":0,"toosoon":0,"cond_shown":"Congruent","ratio_trial":100,"L_num":11,"L_den":22,"R_num":4,"R_den":10,"correct_side":1,"subjID":"santiagovaldesgomez3","gender":"0","school":"0","age":"10"},{"start_time":1551794075213,"click_time":1551794077157,"finger_time":1551794076656,"fix_duration":616.1468859061473,"trial":21,"RT":1443,"MT":501,"sideResp":1,"stimulus":[],"xmouse":[809,805,805,795,788,788,788,788,788,788,788,788,788,788,788,788,788,788,788,788,788,788,788,788,788,788,788,788,788,788,788,788,788,788,788,788,788,788,788,788,788,788,788,788,788,788,788,788,788,788,788,788,788,788,788,788,788,788,788,788,788,788,788,788,788,788,788,788,788,788,783,777,772,766,743,721,697,680,671,670,670,670,668,667,656,649,642,637,631,598,584,571,562,554,547,535,525,520],"ymouse":[536,533,533,527,523,523,523,523,523,523,523,523,523,523,523,523,523,523,523,523,523,523,523,523,523,523,523,523,523,523,523,523,523,523,523,523,523,523,523,523,521,521,521,521,521,521,521,521,521,521,521,521,521,521,521,521,521,521,521,521,521,521,521,521,521,521,521,519,518,515,495,472,437,383,276,227,187,163,152,149,149,149,148,144,132,128,126,123,120,104,98,92,89,88,87,87,87,87],"timestamp_mouse":[2,37,43,63,82,103,123,144,164,184,202,224,243,264,283,303,324,343,364,382,403,423,444,464,482,504,522,544,564,583,602,622,644,664,682,703,724,744,763,783,803,824,844,862,882,903,924,943,963,982,1002,1022,1043,1063,1082,1104,1124,1144,1162,1182,1204,1223,1243,1262,1283,1303,1323,1343,1363,1382,1403,1422,1443,1463,1484,1502,1523,1543,1563,1590,1604,1623,1644,1662,1684,1702,1722,1744,1763,1783,1803,1822,1843,1863,1883,1902,1924,1944],"xSR":741.5,"ySR":469.95,"xT1":424.9,"yT1":0,"xT2":1058.1,"yT2":0,"toosoon":0,"cond_shown":"Congruent","ratio_trial":100,"L_num":3,"L_den":6,"R_num":2,"R_den":5,"correct_side":1,"subjID":"santiagovaldesgomez3","gender":"0","school":"0","age":"10"},{"start_time":1551794079322,"click_time":1551794080974,"finger_time":1551794080434,"fix_duration":1224.8904209769921,"trial":22,"RT":1112,"MT":540,"sideResp":1,"stimulus":[],"xmouse":[782,782,782,782,784,784,784,785,785,785,785,785,785,785,785,785,785,785,785,785,785,785,785,785,785,785,785,785,785,785,785,785,785,785,785,785,785,785,785,785,785,785,785,785,784,784,784,784,784,784,784,782,777,767,742,735,729,726,725,723,721,715,708,701,678,664,653,643,635,621,614,594,579,571,561,561,561,561,561,561,561,561,502],"ymouse":[507,507,507,507,508,508,508,507,507,507,507,507,507,507,507,507,507,507,507,507,507,507,507,507,507,507,507,507,507,507,507,507,507,507,507,507,507,507,507,507,507,507,507,504,501,500,499,498,498,498,498,497,496,494,486,483,480,478,477,473,470,464,455,447,420,404,381,342,285,171,129,71,36,15,1,1,1,1,1,1,1,1,12],"timestamp_mouse":[14,35,52,72,93,112,134,153,173,192,213,234,253,273,292,313,332,352,372,393,412,434,454,473,492,513,533,553,573,593,614,633,654,674,694,713,733,752,772,792,814,834,853,874,892,912,934,953,973,993,1014,1034,1052,1072,1092,1112,1132,1152,1173,1192,1213,1232,1252,1272,1293,1312,1333,1352,1372,1392,1412,1432,1453,1472,1493,1513,1533,1553,1574,1593,1612,1632,1652],"xSR":741.5,"ySR":469.95,"xT1":424.9,"yT1":0,"xT2":1058.1,"yT2":0,"toosoon":0,"cond_shown":"Incongruent","ratio_trial":200,"L_num":6,"L_den":20,"R_num":3,"R_den":6,"correct_side":2,"subjID":"santiagovaldesgomez3","gender":"0","school":"0","age":"10"},{"start_time":1551794083547,"click_time":1551794085574,"finger_time":1551794084834,"fix_duration":250,"trial":23,"RT":1287,"MT":740,"sideResp":2,"stimulus":[],"xmouse":[795,795,795,795,793,790,789,788,787,787,787,787,787,787,787,787,787,787,787,787,787,787,787,787,787,787,787,787,787,787,787,787,787,787,787,787,787,787,787,787,787,787,787,787,787,787,787,787,787,787,787,787,787,787,787,787,787,787,787,787,787,787,787,814,872,942,1020,1100,1257,1298,1326,1326,1326,1326,1326,1326,1326,1326,1326,1326,1326,1326,1326,1326,1231,1225,1221,1218,1205,1184,1174,1169,1168,1167,1167,1167,1166,1166,1166,1162,1155,1145],"ymouse":[520,520,520,520,520,519,518,518,518,518,518,518,518,518,518,518,518,518,518,518,518,518,518,518,518,518,518,518,518,518,518,518,518,518,518,518,518,518,518,518,518,518,518,518,518,518,518,518,518,518,518,518,518,518,518,518,518,518,518,518,518,518,517,502,478,449,404,333,140,77,15,15,15,15,15,15,15,15,15,15,15,15,15,15,23,31,38,46,69,95,100,103,104,104,104,104,104,104,104,104,101,91],"timestamp_mouse":[9,27,47,68,88,108,128,147,168,188,208,228,248,268,288,308,327,347,369,387,407,427,448,469,488,507,529,547,567,588,607,628,649,668,688,707,729,749,768,788,809,827,848,867,887,908,929,947,968,988,1008,1029,1049,1068,1087,1108,1128,1147,1169,1189,1207,1228,1249,1267,1287,1309,1328,1347,1368,1387,1407,1428,1449,1469,1488,1509,1528,1547,1567,1587,1607,1628,1648,1667,1688,1707,1729,1749,1767,1788,1808,1828,1848,1868,1889,1907,1927,1948,1968,1988,2008,2027],"xSR":741.5,"ySR":469.95,"xT1":424.9,"yT1":0,"xT2":1058.1,"yT2":0,"toosoon":0,"cond_shown":"Congruent","ratio_trial":300,"L_num":7,"L_den":14,"R_num":20,"R_den":25,"correct_side":2,"subjID":"santiagovaldesgomez3","gender":"0","school":"0","age":"10"},{"start_time":1551794089392,"click_time":1551794091314,"finger_time":1551794091076,"fix_duration":1054.6596347473574,"trial":24,"RT":1684,"MT":238,"sideResp":1,"stimulus":[],"xmouse":[815,815,815,815,815,815,815,815,815,815,815,815,815,815,815,815,815,815,815,815,815,815,815,815,815,815,815,815,815,815,815,815,815,815,815,815,815,815,815,815,815,815,815,815,815,815,815,815,815,815,815,815,815,815,815,815,815,815,815,815,815,815,815,815,815,815,815,815,815,815,815,815,815,815,815,815,815,815,815,815,814,811,786,756,737,715,692,656,639,623,609,596,563,541,530,519,512],"ymouse":[531,531,531,531,531,531,531,531,531,531,531,531,531,531,531,531,531,531,531,531,531,531,531,531,531,531,531,531,531,531,531,531,531,531,531,531,531,531,531,531,531,531,531,531,531,531,531,531,531,531,531,531,531,531,531,531,531,531,531,531,531,531,531,531,531,531,531,531,531,531,531,531,531,531,531,531,531,531,531,531,531,530,520,503,490,473,456,410,384,355,329,302,233,190,157,119,77],"timestamp_mouse":[13,22,43,62,84,103,123,144,163,184,203,222,242,263,283,304,323,343,364,382,402,424,444,462,483,502,522,543,563,583,603,623,642,663,684,703,724,743,762,782,803,823,842,863,883,902,922,943,962,982,1003,1023,1042,1062,1084,1104,1124,1144,1163,1183,1202,1222,1244,1263,1284,1303,1323,1343,1363,1383,1403,1422,1444,1464,1484,1502,1523,1542,1562,1582,1604,1623,1642,1662,1684,1702,1723,1742,1762,1784,1804,1824,1843,1862,1883,1902,1922],"xSR":741.5,"ySR":469.95,"xT1":424.9,"yT1":0,"xT2":1058.1,"yT2":0,"toosoon":0,"cond_shown":"Congruent","ratio_trial":300,"L_num":3,"L_den":6,"R_num":2,"R_den":10,"correct_side":1,"subjID":"santiagovaldesgomez3","gender":"0","school":"0","age":"10"},{"start_time":1551794093169,"click_time":1551794094996,"finger_time":1551794094635,"fix_duration":250,"trial":25,"RT":1466,"MT":361,"sideResp":1,"stimulus":[],"xmouse":[759,759,759,759,759,759,759,759,759,759,759,759,759,759,759,759,759,759,763,767,770,774,778,778,778,778,778,778,778,778,778,778,778,778,778,778,778,778,778,778,778,778,778,778,778,778,778,778,778,778,778,778,778,778,778,778,778,778,778,778,778,778,778,778,778,778,778,778,778,778,775,764,759,735,725,715,707,697,684,681,675,669,662,641,632,622,611,595,563,544,529,516],"ymouse":[522,522,522,522,522,522,522,522,522,522,522,522,522,522,522,522,522,522,522,522,522,522,522,522,522,522,522,522,522,522,522,522,522,522,522,522,522,522,522,522,522,522,522,522,522,522,522,522,522,522,522,522,522,522,522,522,522,522,522,522,522,522,522,522,522,522,522,522,522,522,517,507,501,462,444,426,409,394,364,358,349,340,328,297,283,268,247,226,179,152,123,99],"timestamp_mouse":[12,37,46,65,87,105,126,146,166,187,205,227,245,265,285,305,326,347,366,385,406,425,446,466,485,506,526,545,566,585,605,626,647,666,687,706,727,747,766,786,805,826,846,866,887,905,926,945,966,986,1005,1027,1046,1065,1087,1105,1126,1146,1165,1186,1206,1226,1247,1266,1285,1305,1326,1347,1366,1385,1406,1425,1446,1466,1485,1505,1525,1547,1574,1585,1606,1625,1646,1666,1685,1705,1725,1746,1766,1786,1806,1827],"xSR":741.5,"ySR":469.95,"xT1":424.9,"yT1":0,"xT2":1058.1,"yT2":0,"toosoon":0,"cond_shown":"Incongruent","ratio_trial":300,"L_num":4,"L_den":20,"R_num":2,"R_den":4,"correct_side":2,"subjID":"santiagovaldesgomez3","gender":"0","school":"0","age":"10"},{"start_time":1551794098627,"click_time":1551794101155,"finger_time":1551794100175,"fix_duration":250,"trial":26,"RT":1548,"MT":980,"sideResp":1,"stimulus":[],"xmouse":[797,797,797,797,797,797,797,797,797,797,797,797,797,797,797,797,797,797,797,797,797,797,797,797,797,797,797,797,797,797,797,797,797,797,797,797,797,797,797,797,797,797,797,797,797,797,797,797,797,797,797,797,797,797,797,797,797,796,783,777,777,777,777,777,777,777,777,777,777,777,777,777,777,777,779,781,809,810,808,801,794,784,784,784,784,783,783,783,783,783,783,783,783,779,767,749,732,732,732,732,732,732,733,733,733,731,729,720,718,718,716,715,715,719,725,727,722,722,721,718,708,690,641,617,593,566,511],"ymouse":[508,508,508,508,508,508,508,508,508,508,508,508,508,508,508,508,508,508,508,508,508,508,508,508,508,508,508,508,508,508,508,508,508,508,508,508,508,508,508,508,508,508,508,508,508,508,508,508,508,508,508,508,508,508,508,508,508,508,514,516,516,516,516,516,516,516,516,516,516,516,516,516,516,516,515,512,477,458,438,419,405,387,385,385,384,383,378,377,375,375,374,373,372,366,358,341,324,324,324,324,324,312,306,301,299,294,291,282,281,276,269,252,235,205,143,114,93,93,92,91,89,82,66,63,59,55,48],"timestamp_mouse":[14,41,49,68,87,107,129,149,167,188,207,228,248,268,289,308,327,347,367,387,408,429,448,467,489,508,528,547,568,589,608,627,647,667,688,708,729,748,769,788,807,827,847,867,888,908,927,948,969,988,1008,1027,1048,1069,1089,1109,1127,1148,1167,1188,1208,1227,1247,1269,1289,1308,1327,1349,1367,1387,1408,1428,1449,1467,1487,1509,1527,1548,1567,1588,1609,1627,1648,1667,1687,1708,1728,1747,1767,1787,1808,1828,1847,1867,1889,1908,1927,1948,1967,1988,2008,2027,2047,2068,2088,2109,2127,2149,2167,2187,2209,2227,2247,2268,2289,2308,2328,2348,2367,2388,2407,2427,2447,2468,2487,2507,2527],"xSR":741.5,"ySR":469.95,"xT1":424.9,"yT1":0,"xT2":1058.1,"yT2":0,"toosoon":0,"cond_shown":"Congruent","ratio_trial":200,"L_num":21,"L_den":30,"R_num":2,"R_den":4,"correct_side":1,"subjID":"santiagovaldesgomez3","gender":"0","school":"0","age":"10"},{"start_time":1551794102967,"click_time":1551794104954,"finger_time":1551794104534,"fix_duration":430.2136824830961,"trial":27,"RT":1567,"MT":420,"sideResp":2,"stimulus":[],"xmouse":[800,800,800,800,800,800,800,800,800,800,800,800,800,800,800,800,800,800,800,800,800,800,800,800,800,800,800,800,800,800,799,799,799,799,799,799,799,799,799,799,799,799,799,799,799,799,799,799,799,799,799,799,798,798,798,798,798,798,798,798,800,802,804,806,807,807,807,807,807,807,807,807,807,807,807,807,807,812,819,844,945,1002,1058,1087,1111,1115,1115,1116,1116,1116,1116,1116,1116,1116,1116,1116,1116,1116,1117,1117],"ymouse":[547,547,547,547,547,547,546,545,545,544,544,544,544,544,543,543,543,543,543,543,543,543,543,543,543,542,542,542,542,541,541,541,541,541,541,540,540,540,540,539,539,538,537,537,536,536,536,536,536,536,536,535,533,533,533,533,533,532,530,525,509,499,493,485,478,478,478,478,478,478,478,478,478,478,478,478,478,474,461,414,245,168,127,115,119,127,128,129,129,129,129,129,129,126,115,109,105,102,100,98],"timestamp_mouse":[14,40,47,68,87,107,128,147,168,187,209,228,247,268,288,308,327,349,369,388,408,427,448,467,488,507,527,549,569,587,608,627,648,668,689,709,728,749,767,788,809,827,848,869,888,907,928,948,967,989,1008,1029,1049,1069,1087,1108,1129,1149,1168,1187,1208,1227,1247,1267,1288,1308,1328,1349,1368,1387,1407,1427,1448,1467,1489,1509,1528,1547,1567,1589,1608,1627,1648,1668,1689,1707,1728,1748,1767,1788,1807,1829,1848,1867,1889,1907,1928,1948,1967,1987],"xSR":741.5,"ySR":469.95,"xT1":424.9,"yT1":0,"xT2":1058.1,"yT2":0,"toosoon":0,"cond_shown":"Congruent","ratio_trial":100,"L_num":6,"L_den":20,"R_num":5,"R_den":25,"correct_side":1,"subjID":"santiagovaldesgomez3","gender":"0","school":"0","age":"10"},{"start_time":1551794110965,"click_time":1551794113494,"finger_time":1551794112534,"fix_duration":629.655036103686,"trial":28,"RT":1569,"MT":960,"sideResp":1,"stimulus":[],"xmouse":[781,781,781,781,781,781,781,781,781,781,781,781,781,781,781,781,781,781,781,781,781,781,781,781,781,781,781,781,781,781,781,781,781,781,781,781,781,781,781,782,782,782,782,782,782,782,782,782,782,782,782,782,782,782,782,782,782,782,782,782,782,782,782,782,782,782,782,781,781,779,778,773,770,767,764,763,759,749,736,722,711,687,667,647,644,652,650,645,645,643,642,641,639,633,630,619,601,584,568,544,478,436,388,327,307,295,295,295,295,295,295,295,295,296,304,353,368,375,378,378,382,385,388,391,396,417,431],"ymouse":[542,542,542,542,542,542,542,542,542,542,542,542,542,542,542,542,542,542,542,542,542,542,542,542,542,542,542,542,542,542,542,542,542,542,542,542,542,542,542,541,541,541,541,541,541,541,541,541,541,541,541,541,541,541,541,541,541,541,541,541,541,541,541,541,541,541,541,540,540,537,535,526,521,516,508,503,492,480,469,459,451,434,417,400,389,314,305,297,292,285,279,275,270,259,254,242,229,222,214,208,186,171,153,133,127,123,123,123,123,123,123,122,122,120,118,109,105,103,102,102,97,94,92,91,89,82,79],"timestamp_mouse":[14,41,50,70,90,110,130,149,170,190,210,230,251,270,290,310,330,350,370,391,409,429,449,470,489,509,530,550,571,589,609,629,651,670,690,710,730,751,771,790,809,830,851,869,890,910,929,950,970,991,1010,1029,1049,1070,1091,1110,1129,1149,1170,1191,1210,1229,1250,1269,1290,1311,1330,1349,1369,1389,1410,1429,1450,1469,1489,1509,1530,1551,1569,1589,1611,1629,1649,1669,1689,1711,1730,1750,1771,1789,1811,1829,1851,1869,1890,1911,1931,1949,1971,1991,2011,2029,2050,2070,2091,2110,2129,2149,2171,2190,2210,2229,2250,2270,2291,2310,2330,2350,2369,2389,2412,2430,2451,2469,2489,2511,2529],"xSR":741.5,"ySR":469.95,"xT1":424.9,"yT1":0,"xT2":1058.1,"yT2":0,"toosoon":0,"cond_shown":"Incongruent","ratio_trial":200,"L_num":11,"L_den":20,"R_num":3,"R_den":4,"correct_side":2,"subjID":"santiagovaldesgomez3","gender":"0","school":"0","age":"10"},{"start_time":1551794117358,"click_time":1551794119635,"finger_time":1551794118894,"fix_duration":982.0283433111412,"trial":29,"RT":1536,"MT":741,"sideResp":1,"stimulus":[],"xmouse":[750,750,750,750,750,750,750,750,750,750,750,750,750,750,750,750,750,750,750,750,750,750,750,750,750,750,750,750,750,750,750,750,750,750,750,750,750,750,750,750,750,750,750,750,750,750,750,750,750,750,750,750,750,750,750,750,750,750,750,750,750,750,750,750,751,754,777,792,805,812,814,814,812,807,797,783,734,696,655,596,537,450,438,433,430,428,428,428,428,428,428,474,501,519,543,565,603,612,616,616,616,603,596,591,587,584,582,582,577,572,556,533,526,521],"ymouse":[538,538,538,538,538,538,538,538,538,538,538,538,538,538,538,538,538,538,538,538,538,538,538,538,538,538,538,538,538,538,538,538,538,538,538,538,538,538,538,538,538,538,538,538,538,538,538,538,538,538,538,538,538,538,538,538,538,538,538,538,538,538,538,538,538,538,538,538,538,536,533,523,519,514,504,494,458,433,404,370,333,282,267,254,244,239,239,239,239,238,238,217,209,203,192,176,134,112,90,70,53,24,17,13,12,11,11,11,11,15,28,53,60,64],"timestamp_mouse":[16,37,56,76,96,116,136,156,177,196,217,238,258,277,298,316,337,356,376,398,417,436,457,476,496,516,537,556,576,596,616,638,657,677,697,717,736,756,777,797,816,837,857,877,897,917,936,957,977,998,1018,1037,1057,1077,1096,1118,1138,1157,1176,1197,1218,1236,1256,1277,1297,1318,1336,1358,1376,1396,1417,1437,1456,1478,1497,1517,1536,1557,1576,1598,1617,1637,1657,1676,1697,1717,1736,1757,1776,1796,1818,1837,1857,1877,1898,1917,1937,1957,1977,1996,2016,2037,2057,2076,2096,2116,2137,2157,2177,2197,2217,2237,2256,2277],"xSR":741.5,"ySR":469.95,"xT1":424.9,"yT1":0,"xT2":1058.1,"yT2":0,"toosoon":0,"cond_shown":"Incongruent","ratio_trial":300,"L_num":4,"L_den":20,"R_num":2,"R_den":4,"correct_side":2,"subjID":"santiagovaldesgomez3","gender":"0","school":"0","age":"10"},{"start_time":1551794122900,"click_time":1551794124134,"finger_time":1551794123315,"fix_duration":1424.274489274219,"trial":30,"RT":415,"MT":819,"sideResp":1,"stimulus":[],"xmouse":[794,794,794,794,794,794,794,795,797,798,799,803,805,810,815,818,823,826,830,834,844,848,854,857,860,861,861,861,861,861,861,861,861,861,861,861,862,862,862,859,845,839,825,816,806,794,792,788,786,784,778,777,769,760,747,713,689,658,620,583,516,494],"ymouse":[517,517,517,517,517,517,517,517,519,521,522,524,526,529,531,532,534,534,536,537,540,540,540,540,538,537,537,537,537,537,537,537,537,537,537,537,537,537,535,532,524,519,512,508,504,498,497,495,493,493,489,488,482,475,465,432,404,362,308,241,114,56],"timestamp_mouse":[15,35,55,76,95,114,136,156,175,195,215,234,255,275,296,314,334,354,376,395,415,435,455,476,496,516,535,554,574,596,614,635,655,674,695,715,735,754,774,795,814,835,855,875,894,914,934,954,974,996,1015,1035,1055,1075,1094,1114,1134,1155,1176,1195,1214,1234],"xSR":741.5,"ySR":469.95,"xT1":424.9,"yT1":0,"xT2":1058.1,"yT2":0,"toosoon":0,"cond_shown":"Congruent","ratio_trial":200,"L_num":1,"L_den":2,"R_num":21,"R_den":30,"correct_side":2,"subjID":"santiagovaldesgomez3","gender":"0","school":"0","age":"10"},{"start_time":1551794126869,"click_time":1551794127936,"finger_time":1551794126916,"fix_duration":1352.071290572565,"trial":31,"RT":47,"MT":1020,"sideResp":2,"stimulus":[],"xmouse":[799,799,799,799,799,799,799,799,799,799,799,799,799,799,799,799,799,799,799,799,799,799,799,799,799,802,807,817,823,831,844,864,951,976,996,1006,1012,1016,1023,1026,1028,1031,1042,1049,1051,1051,1051,1051,1051,1050,1050,1050,1058,1061],"ymouse":[472,470,468,466,465,465,464,463,463,463,462,462,462,462,462,462,462,462,462,462,462,462,462,461,459,455,450,441,437,430,420,403,327,306,290,280,272,264,237,222,206,183,104,65,41,24,17,17,17,22,31,41,66,71],"timestamp_mouse":[5,25,47,67,87,105,125,146,167,186,205,225,246,265,286,306,325,346,366,386,407,426,445,465,486,506,526,545,566,586,605,626,646,666,685,706,725,745,766,785,805,826,846,865,886,907,926,945,966,986,1007,1026,1045,1067],"xSR":741.5,"ySR":469.95,"xT1":424.9,"yT1":0,"xT2":1058.1,"yT2":0,"toosoon":0,"cond_shown":"Congruent","ratio_trial":300,"L_num":1,"L_den":5,"R_num":6,"R_den":12,"correct_side":2,"subjID":"santiagovaldesgomez3","gender":"0","school":"0","age":"10"},{"start_time":1551794131237,"click_time":1551794133116,"finger_time":1551794132634,"fix_duration":400.2031657972872,"trial":32,"RT":1397,"MT":482,"sideResp":1,"stimulus":[],"xmouse":[764,764,764,764,764,764,764,764,764,764,764,764,764,764,764,764,764,764,764,764,764,764,764,764,764,764,764,764,764,764,764,764,764,764,764,764,764,764,764,764,764,764,764,764,764,764,764,765,766,768,770,771,771,771,771,771,771,771,771,771,771,771,771,771,771,771,771,767,756,714,669,636,604,579,541,531,526,523,522,522,522,522,522,522,521,521,521,521,520,516,511,509,505,500],"ymouse":[546,546,546,546,546,546,546,546,546,546,546,546,546,546,546,546,546,546,546,546,546,546,546,546,546,546,546,546,546,546,546,546,546,546,546,546,546,546,546,546,546,546,546,546,546,546,546,546,545,542,541,539,539,539,539,539,539,539,539,539,539,539,539,539,539,538,536,529,514,458,394,341,294,252,177,157,144,135,131,130,130,130,129,128,126,126,126,125,123,116,109,105,100,93],"timestamp_mouse":[18,48,59,79,99,117,138,158,179,197,218,237,259,279,298,319,338,357,377,397,418,439,458,478,498,518,539,559,577,598,617,638,657,678,699,717,737,758,777,799,819,838,858,879,898,918,938,957,977,998,1018,1039,1059,1077,1097,1117,1138,1158,1177,1198,1218,1239,1257,1278,1299,1317,1338,1357,1377,1397,1419,1437,1457,1477,1498,1517,1537,1557,1578,1597,1619,1638,1658,1678,1697,1717,1738,1757,1778,1798,1818,1838,1859,1879],"xSR":741.5,"ySR":469.95,"xT1":424.9,"yT1":0,"xT2":1058.1,"yT2":0,"toosoon":0,"cond_shown":"Congruent","ratio_trial":200,"L_num":8,"L_den":15,"R_num":3,"R_den":9,"correct_side":1,"subjID":"santiagovaldesgomez3","gender":"0","school":"0","age":"10"},{"start_time":1551794134207,"click_time":1551794135695,"finger_time":1551794135235,"fix_duration":250,"trial":33,"RT":1028,"MT":460,"sideResp":1,"stimulus":[],"xmouse":[785,780,778,777,777,777,777,777,777,777,777,777,777,777,777,777,777,777,777,777,777,777,777,777,777,777,777,777,777,777,777,777,777,777,777,777,777,777,777,777,777,777,777,777,777,777,775,771,764,756,750,728,720,712,703,693,681,654,642,631,621,605,601,600,598,597,595,593,591,588,579,557,543,530,521],"ymouse":[509,505,503,503,503,503,503,503,503,503,503,503,503,503,503,503,503,503,503,503,503,503,503,503,503,503,503,503,503,503,503,503,503,503,503,503,503,503,503,503,503,503,503,503,503,503,501,497,489,479,471,444,435,424,410,396,380,345,329,314,297,270,262,257,253,248,234,226,213,199,179,149,133,115,99],"timestamp_mouse":[10,36,48,67,89,107,127,148,167,187,208,228,248,268,288,307,327,347,369,388,407,427,447,467,488,507,528,547,569,588,607,628,647,668,687,707,728,747,768,787,808,827,847,868,887,909,927,949,968,987,1009,1028,1048,1069,1088,1108,1127,1147,1167,1189,1209,1228,1247,1267,1288,1309,1327,1347,1367,1389,1408,1428,1448,1468,1488],"xSR":741.5,"ySR":469.95,"xT1":424.9,"yT1":0,"xT2":1058.1,"yT2":0,"toosoon":0,"cond_shown":"Incongruent","ratio_trial":300,"L_num":4,"L_den":20,"R_num":2,"R_den":4,"correct_side":2,"subjID":"santiagovaldesgomez3","gender":"0","school":"0","age":"10"},{"start_time":1551794138070,"click_time":1551794140175,"finger_time":1551794139615,"fix_duration":1334.416245472627,"trial":34,"RT":1545,"MT":560,"sideResp":1,"stimulus":[],"xmouse":[776,776,776,776,776,776,776,776,776,776,776,776,776,776,776,776,776,776,776,776,776,776,776,776,776,776,776,776,776,776,776,776,776,776,776,776,776,776,776,776,776,776,776,776,776,776,776,776,776,776,776,776,776,776,776,776,776,776,776,776,776,776,776,776,776,776,776,776,776,776,776,776,776,775,767,751,743,713,689,641,623,608,596,585,571,567,561,558,556,556,556,555,553,546,543,541,539,538,537,532,530,528,525,519,517,516],"ymouse":[551,551,551,551,551,551,551,551,551,551,551,551,551,551,551,551,551,551,551,551,551,551,551,551,551,551,551,551,551,551,551,551,551,551,551,551,551,551,551,551,551,551,551,551,551,551,551,551,551,551,551,551,551,551,551,551,551,551,551,551,551,551,551,551,551,551,551,551,551,551,551,551,551,548,537,517,509,481,461,427,414,402,391,379,339,314,278,262,239,231,225,220,213,195,190,184,175,169,161,139,132,124,118,107,100,99],"timestamp_mouse":[9,40,45,66,84,104,124,144,164,185,205,224,244,264,285,306,326,344,365,386,406,426,444,465,485,504,524,545,565,586,604,624,644,665,684,706,725,744,765,785,806,824,844,866,886,906,925,946,964,985,1005,1024,1044,1064,1085,1106,1126,1145,1165,1185,1204,1226,1246,1265,1284,1304,1324,1344,1364,1384,1404,1425,1445,1465,1485,1505,1524,1545,1566,1586,1606,1625,1646,1666,1685,1704,1724,1745,1766,1784,1804,1824,1844,1866,1884,1904,1924,1945,1964,1984,2005,2026,2044,2066,2085,2105],"xSR":741.5,"ySR":469.95,"xT1":424.9,"yT1":0,"xT2":1058.1,"yT2":0,"toosoon":0,"cond_shown":"Congruent","ratio_trial":300,"L_num":4,"L_den":5,"R_num":2,"R_den":4,"correct_side":1,"subjID":"santiagovaldesgomez3","gender":"0","school":"0","age":"10"},{"start_time":1551794141618,"click_time":1551794143595,"finger_time":1551794143215,"fix_duration":461.93746689560476,"trial":35,"RT":1597,"MT":380,"sideResp":2,"stimulus":[],"xmouse":[784,784,784,784,784,784,784,784,784,784,784,784,784,784,784,784,784,784,784,784,784,784,784,784,784,784,784,784,784,784,784,784,784,784,784,783,782,781,781,781,781,781,781,781,781,781,781,781,781,781,781,781,781,781,781,781,781,781,781,781,781,781,781,781,780,779,777,775,773,773,770,769,767,762,759,757,755,755,760,772,786,818,833,847,862,879,920,945,960,974,986,1007,1016,1026,1034,1045,1082,1092,1099],"ymouse":[543,543,543,543,543,543,543,543,543,543,543,543,543,543,543,543,543,543,543,543,543,543,543,543,543,543,543,543,543,543,543,543,543,543,543,543,543,543,543,543,543,543,543,543,543,543,543,543,543,543,543,543,543,543,543,543,543,543,543,543,543,543,543,543,543,542,542,540,539,539,536,534,532,527,523,518,505,496,478,451,427,385,370,366,362,355,344,335,328,320,313,293,278,255,235,210,137,113,91],"timestamp_mouse":[18,37,58,76,96,117,137,158,178,198,217,237,257,278,297,317,337,356,376,396,417,437,456,476,496,517,536,556,578,596,616,636,656,678,697,716,737,756,776,796,816,838,856,878,896,916,936,956,978,996,1016,1037,1056,1076,1097,1116,1137,1156,1177,1197,1216,1238,1256,1276,1296,1316,1336,1356,1377,1396,1417,1436,1456,1477,1498,1517,1536,1556,1577,1597,1617,1637,1656,1676,1696,1717,1736,1757,1777,1797,1818,1837,1857,1877,1896,1916,1937,1956,1976],"xSR":741.5,"ySR":469.95,"xT1":424.9,"yT1":0,"xT2":1058.1,"yT2":0,"toosoon":0,"cond_shown":"Incongruent","ratio_trial":200,"L_num":7,"L_den":10,"R_num":8,"R_den":16,"correct_side":1,"subjID":"santiagovaldesgomez3","gender":"0","school":"0","age":"10"},{"start_time":1551794148927,"click_time":1551794150874,"finger_time":1551794150476,"fix_duration":250,"trial":36,"RT":1549,"MT":398,"sideResp":1,"stimulus":[],"xmouse":[836,836,836,836,836,836,835,830,828,828,828,828,828,828,828,828,828,828,828,828,828,828,828,828,828,828,828,828,828,828,828,828,828,828,828,828,828,828,828,828,828,828,828,828,828,828,828,828,828,828,828,828,828,828,823,821,820,819,819,819,819,819,819,819,819,819,819,819,819,819,819,819,819,819,819,819,829,871,874,832,800,773,731,728,728,728,728,728,728,727,725,713,664,638,614,592,572,518],"ymouse":[525,525,525,525,525,525,525,525,524,524,524,524,524,524,524,524,524,524,524,524,524,525,525,525,525,525,525,525,525,525,525,525,525,525,525,525,525,525,525,525,525,525,525,525,525,525,525,525,525,525,525,525,525,531,542,548,551,553,553,553,553,553,553,553,553,553,553,553,553,553,553,553,553,553,553,550,522,320,239,143,103,78,43,37,36,36,36,36,36,35,34,33,26,22,20,20,20,17],"timestamp_mouse":[9,27,52,68,88,107,128,147,167,188,208,227,248,268,287,308,328,347,368,387,409,427,448,468,488,508,529,548,567,588,609,629,648,668,689,707,727,747,767,788,807,829,848,867,887,907,929,949,967,988,1007,1027,1048,1067,1089,1107,1127,1147,1167,1187,1207,1227,1247,1267,1288,1307,1328,1347,1368,1388,1408,1427,1448,1467,1488,1508,1528,1549,1567,1587,1607,1627,1647,1667,1688,1707,1728,1748,1767,1788,1808,1827,1847,1868,1887,1908,1928,1947],"xSR":741.5,"ySR":469.95,"xT1":424.9,"yT1":0,"xT2":1058.1,"yT2":0,"toosoon":0,"cond_shown":"Congruent","ratio_trial":100,"L_num":10,"L_den":25,"R_num":3,"R_den":10,"correct_side":1,"subjID":"santiagovaldesgomez3","gender":"0","school":"0","age":"10"},{"start_time":1551794153098,"click_time":1551794154615,"finger_time":1551794153914,"fix_duration":1340.0158712066561,"trial":37,"RT":816,"MT":701,"sideResp":1,"stimulus":[],"xmouse":[798,798,798,798,798,798,798,798,798,798,798,798,798,798,798,798,798,798,798,798,798,798,798,798,798,798,798,798,798,798,798,798,798,798,798,798,798,798,798,798,798,797,793,781,779,773,768,760,735,731,730,730,729,725,718,707,679,669,603,577,558,546,542,541,541,541,541,540,540,540,539,538,536,532,527,519],"ymouse":[486,486,486,486,486,486,486,486,486,486,486,486,486,486,486,486,486,486,486,486,486,486,486,486,486,486,486,486,486,486,486,486,486,486,486,486,486,486,486,484,466,442,418,362,317,271,242,217,179,174,172,172,172,170,165,158,142,138,113,104,98,95,94,93,93,93,93,93,92,89,87,84,83,78,72,67],"timestamp_mouse":[17,43,57,77,96,116,137,156,178,196,217,238,256,276,296,317,338,356,377,397,417,437,457,476,497,516,537,557,576,596,617,637,657,677,698,717,736,756,778,797,816,837,858,876,896,916,936,958,977,997,1017,1036,1058,1076,1096,1118,1136,1157,1177,1197,1216,1236,1257,1276,1297,1316,1337,1356,1377,1396,1417,1437,1457,1477,1496,1517],"xSR":741.5,"ySR":469.95,"xT1":424.9,"yT1":0,"xT2":1058.1,"yT2":0,"toosoon":0,"cond_shown":"Incongruent","ratio_trial":200,"L_num":11,"L_den":20,"R_num":3,"R_den":4,"correct_side":2,"subjID":"santiagovaldesgomez3","gender":"0","school":"0","age":"10"},{"start_time":1551794159100,"click_time":1551794160816,"finger_time":1551794160494,"fix_duration":623.237277683935,"trial":38,"RT":1394,"MT":322,"sideResp":1,"stimulus":[],"xmouse":[790,790,790,790,790,790,790,790,790,790,790,790,790,790,790,790,790,790,790,790,790,790,790,790,790,790,790,790,790,790,790,790,790,790,790,790,790,790,790,790,790,790,790,790,790,790,790,790,790,790,790,790,790,790,790,790,790,790,790,790,790,790,790,790,790,790,790,789,778,741,727,722,717,713,709,709,709,708,706,685,666,641,613,582,529,506],"ymouse":[555,555,555,555,555,555,555,555,555,555,555,555,555,555,555,555,555,555,555,555,555,555,555,555,555,555,555,555,555,555,555,555,555,555,555,555,555,555,555,555,555,555,555,555,555,555,555,555,555,555,555,555,555,555,555,555,555,555,555,555,555,555,555,555,555,554,543,526,488,360,296,253,219,196,181,181,181,180,176,164,157,149,138,124,105,94],"timestamp_mouse":[15,35,54,75,95,115,135,155,175,194,214,235,255,274,295,314,334,356,375,394,415,435,455,475,494,514,535,554,575,595,616,635,655,674,694,714,734,755,774,794,814,835,854,874,895,914,934,954,974,994,1014,1034,1054,1074,1094,1114,1134,1155,1175,1194,1215,1236,1254,1275,1296,1315,1336,1355,1374,1394,1414,1434,1454,1474,1495,1515,1535,1554,1575,1594,1615,1634,1654,1674,1694,1716],"xSR":741.5,"ySR":469.95,"xT1":424.9,"yT1":0,"xT2":1058.1,"yT2":0,"toosoon":0,"cond_shown":"Incongruent","ratio_trial":200,"L_num":4,"L_den":30,"R_num":1,"R_den":3,"correct_side":2,"subjID":"santiagovaldesgomez3","gender":"0","school":"0","age":"10"},{"start_time":1551794166831,"click_time":1551794170954,"finger_time":1551794168415,"fix_duration":275.6030120377535,"trial":39,"RT":1584,"MT":2539,"sideResp":2,"stimulus":[],"xmouse":[754,754,754,754,754,754,754,754,754,754,754,754,754,754,754,754,754,754,754,754,754,754,754,754,754,754,754,754,754,754,754,754,754,754,754,754,754,754,754,754,754,754,754,754,754,754,754,754,754,754,754,754,754,754,754,754,754,754,754,754,754,754,754,754,754,754,754,754,754,754,754,754,754,754,754,754,757,768,794,859,883,901,918,931,944,951,957,969,992,1018,1023,1024,1025,1026,1032,1039,1053,1064,1071,1071,1075,1078,1081,1082,1084,1087,1088,1090,1092,1094,1097,1100,1102,1105,1107,1107,1107,1107,1107,1107,1107,1107,1107,1107,1107,1107,1107,1107,1107,1107,1107,1107,1107,1107,1107,1107,1107,1107,1107,1107,1107,1107,1107,1109,1110,1110,1110,1110,1110,1110,1110,1110,1110,1110,1110,1110,1110,1111,1114,1115,1115,1115,1115,1115,1115,1115,1115,1115,1115,1115,1115,1115,1115,1115,1115,1115,1116,1116,1116,1116,1116,1116,1116,1116,1116,1116,1116,1116,1116,1116,1116,1116,1114,1111,1107,1107,1107,1106,1103,1091,1090,1089,1089,1089,1089,1090,1093],"ymouse":[551,551,551,551,551,551,551,551,551,551,551,551,551,551,551,551,551,551,551,551,551,551,551,551,551,551,551,551,551,551,551,551,551,551,551,551,551,551,551,551,551,551,551,551,551,551,551,551,551,551,551,551,551,551,551,551,551,551,551,551,551,551,551,551,551,551,551,551,551,551,551,551,551,551,551,551,551,551,544,523,510,498,485,473,456,444,434,412,367,287,274,271,268,265,256,250,243,236,228,203,195,189,183,181,178,173,170,168,164,160,156,151,147,142,139,139,139,139,139,139,139,139,139,139,139,139,139,139,139,139,139,139,139,139,139,139,139,139,139,139,139,139,138,132,128,128,128,128,128,128,128,128,128,128,128,128,128,127,127,127,127,127,127,127,127,127,127,127,127,127,127,127,127,127,127,127,128,130,135,144,144,144,144,144,144,144,144,144,144,144,144,144,145,147,150,150,150,150,143,121,119,117,116,115,110,106,97],"timestamp_mouse":[13,36,43,65,84,103,124,144,164,183,204,224,245,263,283,304,323,344,363,384,403,424,443,463,485,503,524,543,564,584,605,623,645,664,685,703,723,744,764,784,804,825,845,863,884,903,924,943,964,983,1003,1025,1044,1063,1084,1105,1124,1144,1163,1183,1204,1224,1244,1265,1284,1304,1323,1343,1363,1384,1403,1424,1444,1464,1484,1505,1523,1544,1563,1583,1603,1623,1643,1664,1683,1704,1724,1743,1764,1783,1803,1824,1843,1864,1883,1904,1924,1944,1964,1983,2003,2024,2044,2064,2084,2103,2123,2143,2164,2184,2203,2224,2243,2263,2283,2304,2323,2344,2365,2384,2404,2424,2443,2464,2485,2505,2524,2543,2564,2583,2604,2623,2644,2663,2683,2703,2723,2744,2765,2784,2803,2823,2844,2864,2883,2904,2923,2943,2964,2984,3005,3024,3043,3063,3084,3104,3123,3143,3163,3183,3204,3224,3244,3263,3284,3304,3325,3345,3363,3384,3403,3423,3444,3463,3483,3504,3523,3544,3564,3583,3604,3624,3643,3664,3684,3703,3723,3744,3763,3783,3803,3824,3844,3863,3883,3904,3923,3944,3964,3984,4003,4024,4045,4064,4083,4103,4123],"xSR":741.5,"ySR":469.95,"xT1":424.9,"yT1":0,"xT2":1058.1,"yT2":0,"toosoon":0,"cond_shown":"Congruent","ratio_trial":100,"L_num":9,"L_den":15,"R_num":8,"R_den":16,"correct_side":1,"subjID":"santiagovaldesgomez3","gender":"0","school":"0","age":"10"},{"start_time":1551794174142,"click_time":1551794176395,"finger_time":1551794175254,"fix_duration":746.241658100498,"trial":40,"RT":1112,"MT":1141,"sideResp":2,"stimulus":[],"xmouse":[819,819,819,819,819,819,819,819,819,819,819,819,819,819,819,819,819,819,819,819,819,819,819,819,819,819,819,819,819,819,819,819,819,819,819,819,819,819,819,819,819,819,819,819,819,819,819,819,819,819,819,819,819,819,819,821,824,828,831,831,831,831,831,831,831,831,832,836,873,901,948,1010,1074,1137,1224,1254,1254,1254,1254,1254,1254,1254,1254,1254,1254,1254,1254,1254,1254,1254,1522,1503,1466,1395,1364,1350,1343,1341,1340,1338,1333,1324,1311,1292,1238,1217,1201,1188,1178,1161,1153,1140,1134],"ymouse":[544,544,544,544,544,544,544,544,544,544,544,544,544,544,544,544,544,544,544,544,544,544,544,544,544,544,544,544,544,544,544,544,544,544,544,544,544,544,544,544,544,544,544,544,544,544,544,544,544,544,544,539,536,523,486,467,453,437,433,432,432,432,432,432,432,432,430,426,386,356,311,259,201,140,45,14,14,14,14,14,14,14,14,14,14,14,14,14,14,14,28,70,161,321,392,411,419,421,421,421,421,416,405,392,347,325,301,278,253,189,150,111,85],"timestamp_mouse":[12,32,54,72,93,114,133,154,172,192,213,234,252,273,292,312,332,352,372,393,412,433,452,472,492,514,532,553,574,592,613,634,653,673,693,713,733,752,772,793,812,833,852,872,893,913,932,953,972,992,1012,1033,1054,1072,1093,1112,1134,1152,1172,1192,1212,1233,1254,1273,1292,1312,1332,1352,1374,1394,1413,1432,1452,1472,1492,1513,1533,1552,1573,1594,1613,1632,1653,1674,1693,1714,1733,1754,1773,1792,1812,1832,1853,1874,1892,1913,1932,1953,1974,1992,2013,2033,2052,2073,2092,2112,2133,2152,2173,2192,2213,2233,2253],"xSR":741.5,"ySR":469.95,"xT1":424.9,"yT1":0,"xT2":1058.1,"yT2":0,"toosoon":0,"cond_shown":"Congruent","ratio_trial":200,"L_num":3,"L_den":10,"R_num":14,"R_den":28,"correct_side":2,"subjID":"santiagovaldesgomez3","gender":"0","school":"0","age":"10"},{"start_time":1551794179503,"click_time":1551794183295,"finger_time":1551794181535,"fix_duration":266.7111384125056,"trial":41,"RT":2032,"MT":1760,"sideResp":1,"stimulus":[],"xmouse":[809,809,809,809,809,809,809,809,809,809,809,809,809,809,809,809,809,809,809,809,809,809,809,809,809,809,809,809,809,809,809,809,809,809,809,809,809,809,809,809,809,809,809,809,809,809,809,809,809,809,809,809,809,809,809,809,809,809,809,809,809,809,809,809,809,809,809,809,809,809,809,809,809,809,809,809,809,809,809,809,809,809,809,809,809,809,809,809,809,809,809,809,809,809,809,809,809,809,809,807,805,778,750,711,663,583,556,556,556,556,556,556,556,556,556,556,556,556,556,556,556,556,556,556,169,262,404,462,497,513,518,518,519,519,526,550,605,627,643,647,647,647,647,647,647,647,245,226,219,219,219,224,252,312,455,568,673,816,845,858,860,859,821,761,628,522,361,342,334,333,332,332,332,334,353,380,412,452,456,456,456,457,450,427,389,344,337,337,362,447],"ymouse":[525,525,525,525,525,525,525,525,525,525,525,525,525,525,525,525,525,525,525,525,525,525,525,525,525,525,525,525,525,525,525,525,525,525,525,525,525,525,525,525,525,525,525,525,525,525,525,525,525,525,525,525,525,525,525,525,525,525,525,525,525,525,525,525,525,525,525,525,525,525,525,525,525,525,525,525,525,525,525,525,525,525,525,525,525,525,525,525,525,525,525,525,525,525,525,525,525,525,525,519,513,457,392,316,230,89,46,46,46,46,46,46,46,46,46,46,46,46,46,46,46,46,46,46,36,152,286,334,355,364,365,365,365,365,362,337,250,187,112,38,6,6,6,6,6,6,40,57,63,63,63,80,113,167,255,307,336,337,319,303,291,280,245,214,175,159,161,164,164,164,164,164,164,161,156,148,139,127,126,126,126,125,122,119,116,116,114,106,75,14],"timestamp_mouse":[20,48,51,71,91,112,132,152,172,191,212,231,251,272,291,311,331,352,373,392,412,431,451,471,492,513,531,552,572,592,612,631,653,672,691,712,731,753,772,792,813,832,852,873,891,911,931,951,972,991,1011,1031,1051,1071,1092,1112,1132,1151,1172,1191,1211,1231,1252,1271,1291,1312,1331,1351,1372,1391,1412,1431,1451,1471,1493,1512,1531,1552,1571,1592,1611,1632,1652,1671,1693,1713,1732,1752,1772,1792,1811,1832,1852,1871,1891,1912,1931,1951,1972,1991,2012,2032,2051,2071,2092,2111,2132,2151,2171,2192,2211,2233,2252,2271,2291,2311,2332,2351,2372,2391,2411,2431,2451,2471,2491,2511,2532,2551,2571,2591,2613,2631,2652,2673,2692,2711,2732,2751,2772,2792,2811,2832,2851,2871,2891,2912,2932,2952,2971,2992,3012,3032,3051,3071,3091,3112,3133,3152,3172,3191,3212,3232,3251,3271,3291,3311,3333,3351,3371,3391,3411,3432,3452,3472,3492,3512,3531,3551,3572,3591,3612,3633,3651,3672,3691,3711,3733,3751,3772,3791],"xSR":741.5,"ySR":469.95,"xT1":424.9,"yT1":0,"xT2":1058.1,"yT2":0,"toosoon":0,"cond_shown":"Incongruent","ratio_trial":300,"L_num":4,"L_den":20,"R_num":2,"R_den":4,"correct_side":2,"subjID":"santiagovaldesgomez3","gender":"0","school":"0","age":"10"},{"start_time":1551794185287,"click_time":1551794188496,"finger_time":1551794186955,"fix_duration":250,"trial":42,"RT":1668,"MT":1541,"sideResp":2,"stimulus":[],"xmouse":[783,783,783,783,783,783,783,783,783,783,783,783,783,783,783,783,783,783,783,783,783,783,783,783,783,783,783,783,783,783,783,783,783,783,783,783,783,783,783,783,783,783,783,783,783,783,783,783,783,783,783,783,783,783,783,783,783,783,783,783,783,783,783,783,783,783,783,783,783,783,783,783,783,783,783,783,783,783,783,783,772,764,743,693,613,545,479,447,433,433,433,433,433,433,433,433,433,433,433,433,433,433,433,433,433,434,446,466,516,546,579,620,661,778,821,872,922,968,1047,1080,1113,1138,1158,1198,1206,1212,1220,1225,1238,1238,1233,1214,1214,1214,1214,1214,1214,1214,1214,1214,1214,1214,1214,1214,853,852,851,851,852,852,853,854,857,874,888,906,929,955,1012,1038,1065],"ymouse":[513,513,513,513,513,513,513,513,513,513,513,513,513,513,513,513,513,513,513,513,513,513,513,513,513,513,513,513,513,513,513,513,513,513,513,513,513,513,513,513,513,513,513,513,513,513,513,513,513,513,513,513,513,513,513,513,513,513,513,513,513,513,513,513,513,513,513,513,513,513,513,513,513,513,513,513,513,513,513,513,503,497,480,438,382,336,301,282,275,275,275,275,275,275,275,275,275,275,275,275,275,275,275,275,275,275,275,275,275,275,275,275,275,275,272,266,259,253,242,234,225,218,212,193,186,177,164,147,89,60,37,8,8,8,8,8,8,8,8,8,8,8,8,8,20,32,41,44,50,51,53,54,59,71,75,80,83,86,88,92,97],"timestamp_mouse":[14,37,47,68,89,107,127,149,168,189,207,228,249,267,287,308,328,348,367,387,407,427,448,467,487,507,528,547,569,588,607,627,647,668,687,707,728,748,767,787,809,829,848,868,887,907,928,947,968,988,1009,1028,1048,1069,1088,1108,1127,1147,1168,1188,1207,1229,1247,1268,1287,1308,1328,1348,1367,1388,1408,1428,1447,1467,1488,1508,1529,1548,1568,1588,1608,1627,1647,1668,1689,1707,1728,1748,1768,1788,1807,1827,1848,1868,1888,1907,1928,1948,1968,1988,2007,2028,2047,2067,2089,2108,2127,2148,2167,2187,2208,2228,2247,2267,2287,2307,2327,2347,2367,2387,2407,2428,2448,2467,2487,2507,2527,2548,2567,2587,2609,2629,2648,2667,2688,2708,2727,2748,2768,2787,2808,2827,2848,2867,2887,2907,2928,2947,2975,2987,3007,3028,3047,3069,3088,3107,3127,3148,3168,3187,3208],"xSR":741.5,"ySR":469.95,"xT1":424.9,"yT1":0,"xT2":1058.1,"yT2":0,"toosoon":0,"con