[{"start_time":1551794819065,"click_time":1551794820692,"finger_time":1551794820291,"fix_duration":1408.3404114907314,"trial":0,"RT":1226,"MT":401,"sideResp":2,"stimulus":"img/900/randomdotsizeEA/R/7_Ratio_900_L_9_R_10.png","xmouse":[743,743,743,743,743,743,743,743,743,743,743,743,743,743,743,743,743,743,743,743,743,743,743,743,743,743,743,743,743,743,743,743,743,743,743,743,743,743,743,743,743,743,743,743,743,743,743,743,743,743,743,743,743,743,743,743,743,743,742,756,781,839,903,920,929,935,941,950,953,958,965,979,999,1011,1016,1018,1019,1022,1027,1041,1060,1089],"ymouse":[566,566,566,566,566,566,566,566,566,566,566,566,566,566,566,566,566,566,566,566,566,566,566,566,566,566,566,566,566,566,566,566,566,566,566,566,566,566,566,566,566,566,566,566,566,566,566,566,566,566,566,566,566,566,566,566,566,566,560,539,506,433,353,329,317,306,299,291,288,285,282,276,263,256,253,251,249,242,221,180,132,61],"timestamp_mouse":[14,37,46,66,86,106,126,146,167,185,207,227,245,267,287,305,327,345,365,387,406,427,447,466,486,507,526,546,565,586,605,627,646,666,687,705,725,746,767,785,807,827,847,867,886,907,927,947,967,986,1005,1026,1045,1065,1087,1106,1126,1146,1167,1186,1206,1225,1246,1267,1286,1306,1325,1345,1367,1387,1406,1426,1445,1466,1485,1506,1526,1546,1566,1586,1606,1626],"xSR":741.5,"ySR":501.8,"xT1":424.9,"yT1":0,"xT2":1058.1,"yT2":0,"toosoon":0,"cond_shown":"randomdotsizeEA","ratio_trial":900,"smaller_num":"9","larger_num":"10","correct_side":2,"subjID":"santiagovaldesgomez3","gender":"0","age":"10","school":"6","test":{"fix_dur":[250,1500],"timestim":300,"targets_dim":[100,100],"targets_relative_coord":[0.3,0.7],"size_stim":[880,420],"start_dim":[100,100],"size_start":[300,300],"size_fix":60,"samplingrate":20,"img_types":["equaldotsize","equaldotanddens","randomdotsizeEA"],"ratios":[250,500,750,900],"rep_conds":9,"nTrials":120,"trials_to_rest":500,"Trials_order":[83,35,93,49,12,77,27,64,67,34,62,97,22,119,82,100,36,55,65,118,106,107,70,74,47,81,84,26,96,72,46,39,20,44,61,45,7,29,86,94,66,103,50,104,28,117,9,105,31,56,58,80,109,63,51,18,4,110,41,116,53,102,79,54,43,75,3,101,23,76,14,113,38,115,48,69,108,112,68,98,10,95,2,87,52,114,25,88,92,0,60,33,73,40,30,59,91,42,15,111,11,89,1,78,99,57,6,17,90,13,71,24,19,37,21,32,8,16,85,5],"cond_shown":["randomdotsizeEA","randomdotsizeEA","equaldotsize","equaldotanddens","equaldotsize","randomdotsizeEA","equaldotsize","equaldotanddens","equaldotanddens","equaldotanddens","randomdotsizeEA","equaldotanddens","equaldotanddens","randomdotsizeEA","equaldotanddens","equaldotanddens","equaldotsize","equaldotanddens","randomdotsizeEA","equaldotanddens","equaldotanddens","randomdotsizeEA","equaldotanddens","randomdotsizeEA","randomdotsizeEA","equaldotsize","equaldotsize","randomdotsizeEA","equaldotsize","equaldotsize","equaldotanddens","equaldotsize","randomdotsizeEA","randomdotsizeEA","equaldotanddens","equaldotsize","equaldotanddens","randomdotsizeEA","randomdotsizeEA","equaldotanddens","equaldotsize","equaldotanddens","randomdotsizeEA","randomdotsizeEA","equaldotanddens","equaldotsize","equaldotsize","equaldotsize","equaldotanddens","randomdotsizeEA","equaldotanddens","randomdotsizeEA","equaldotanddens","equaldotsize","equaldotsize","equaldotsize","equaldotanddens","randomdotsizeEA","randomdotsizeEA","randomdotsizeEA","randomdotsizeEA","equaldotsize","equaldotanddens","equaldotsize","equaldotanddens","equaldotsize","equaldotsize","randomdotsizeEA","randomdotsizeEA","equaldotanddens","randomdotsizeEA","randomdotsizeEA","randomdotsizeEA","equaldotanddens","equaldotsize","equaldotsize","equaldotsize","equaldotanddens","randomdotsizeEA","randomdotsizeEA","equaldotanddens","randomdotsizeEA","randomdotsizeEA","equaldotsize","equaldotanddens","equaldotsize","equaldotanddens","equaldotanddens","randomdotsizeEA","equaldotsize","equaldotsize","equaldotsize","equaldotanddens","equaldotanddens","equaldotsize","randomdotsizeEA","equaldotanddens","equaldotsize","equaldotsize","equaldotsize","randomdotsizeEA","randomdotsizeEA","equaldotanddens","equaldotsize","equaldotsize","equaldotsize","equaldotsize","randomdotsizeEA","equaldotsize","equaldotanddens","randomdotsizeEA","equaldotsize","equaldotanddens","equaldotanddens","equaldotsize","randomdotsizeEA","randomdotsizeEA","equaldotanddens","equaldotanddens","randomdotsizeEA"],"ratio_trial":[900,900,900,250,250,500,500,500,750,900,250,250,900,900,900,500,250,750,500,900,900,900,900,250,900,900,250,250,250,250,900,500,750,750,250,900,750,500,250,900,750,750,250,750,500,900,900,900,750,750,900,750,250,500,500,750,500,250,500,750,500,750,750,750,750,500,500,500,900,500,250,500,250,750,250,900,250,500,750,250,900,900,250,500,500,750,250,500,750,250,250,900,250,500,750,900,750,750,500,500,900,500,250,750,500,900,750,500,750,250,900,250,750,250,900,750,750,500,250,500],"smaller_num":["9","9","18","4","1","5","9","2","9","18","3","2","9","9","9","9","6","9","4","18","9","18","18","1","18","9","4","5","2","6","18","2","6","6","3","18","6","3","3","18","18","18","3","3","5","18","18","18","3","12","9","3","4","2","2","3","4","3","6","3","9","3","3","6","6","10","3","9","18","9","4","5","3","15","3","9","4","1","3","2","18","18","6","9","9","6","6","5","15","3","3","9","6","1","9","9","3","18","9","1","18","2","3","6","2","9","9","10","15","2","18","3","6","5","9","6","3","4","4","2"],"larger_num":["10","10","20","16","4","10","18","4","12","20","12","8","10","10","10","18","24","12","8","20","10","20","20","4","20","10","16","20","8","24","20","4","8","8","12","20","8","6","12","20","24","24","12","4","10","20","20","20","4","16","10","4","16","4","4","4","8","12","12","4","18","4","4","8","8","20","6","18","20","18","16","10","12","20","12","10","16","2","4","8","20","20","24","18","18","8","24","10","20","12","12","10","24","2","12","10","4","24","18","2","20","4","12","8","4","10","12","20","20","8","20","12","8","20","10","8","4","8","16","4"],"correct_side":[2,2,1,1,2,1,2,1,2,2,1,1,1,1,2,1,1,2,1,1,2,2,1,2,2,1,1,2,2,2,1,1,1,2,2,2,2,2,2,1,1,1,2,1,1,2,1,2,1,2,1,1,2,1,2,2,1,2,1,1,1,1,1,1,2,2,2,2,1,2,1,1,1,1,2,2,1,2,1,1,1,1,2,2,2,2,1,1,2,2,1,1,2,2,2,2,2,1,2,2,2,1,2,1,1,2,2,2,1,1,1,1,1,2,1,2,1,1,1,1],"img_shown":["img/900/randomdotsizeEA/R/7_Ratio_900_L_9_R_10.png","img/900/randomdotsizeEA/R/7_Ratio_900_L_9_R_10.png","img/900/equaldotsize/L/4_Ratio_900_L_20_R_18.png","img/250/equaldotanddens/L/2_Ratio_250_L_16_R_4.png","img/250/equaldotsize/R/8_Ratio_250_L_1_R_4.png","img/500/randomdotsizeEA/L/7_Ratio_500_L_10_R_5.png","img/500/equaldotsize/R/6_Ratio_500_L_9_R_18.png","img/500/equaldotanddens/L/5_Ratio_500_L_4_R_2.png","img/750/equaldotanddens/R/15_Ratio_750_L_9_R_12.png","img/900/equaldotanddens/R/13_Ratio_900_L_18_R_20.png","img/250/randomdotsizeEA/L/15_Ratio_250_L_12_R_3.png","img/250/equaldotanddens/L/1_Ratio_250_L_8_R_2.png","img/900/equaldotanddens/L/1_Ratio_900_L_10_R_9.png","img/900/randomdotsizeEA/L/1_Ratio_900_L_10_R_9.png","img/900/equaldotanddens/R/5_Ratio_900_L_9_R_10.png","img/500/equaldotanddens/L/4_Ratio_500_L_18_R_9.png","img/250/equaldotsize/L/5_Ratio_250_L_24_R_6.png","img/750/equaldotanddens/R/15_Ratio_750_L_9_R_12.png","img/500/randomdotsizeEA/L/8_Ratio_500_L_8_R_4.png","img/900/equaldotanddens/L/8_Ratio_900_L_20_R_18.png","img/900/equaldotanddens/R/5_Ratio_900_L_9_R_10.png","img/900/randomdotsizeEA/R/14_Ratio_900_L_18_R_20.png","img/900/equaldotanddens/L/4_Ratio_900_L_20_R_18.png","img/250/randomdotsizeEA/R/8_Ratio_250_L_1_R_4.png","img/900/randomdotsizeEA/R/9_Ratio_900_L_18_R_20.png","img/900/equaldotsize/L/1_Ratio_900_L_10_R_9.png","img/250/equaldotsize/L/2_Ratio_250_L_16_R_4.png","img/250/randomdotsizeEA/R/12_Ratio_250_L_5_R_20.png","img/250/equaldotsize/R/13_Ratio_250_L_2_R_8.png","img/250/equaldotsize/R/6_Ratio_250_L_6_R_24.png","img/900/equaldotanddens/L/4_Ratio_900_L_20_R_18.png","img/500/equaldotsize/L/5_Ratio_500_L_4_R_2.png","img/750/randomdotsizeEA/L/13_Ratio_750_L_8_R_6.png","img/750/randomdotsizeEA/R/2_Ratio_750_L_6_R_8.png","img/250/equaldotanddens/R/9_Ratio_250_L_3_R_12.png","img/900/equaldotsize/R/12_Ratio_900_L_18_R_20.png","img/750/equaldotanddens/R/2_Ratio_750_L_6_R_8.png","img/500/randomdotsizeEA/R/2_Ratio_500_L_3_R_6.png","img/250/randomdotsizeEA/R/4_Ratio_250_L_3_R_12.png","img/900/equaldotanddens/L/2_Ratio_900_L_20_R_18.png","img/750/equaldotsize/L/6_Ratio_750_L_24_R_18.png","img/750/equaldotanddens/L/6_Ratio_750_L_24_R_18.png","img/250/randomdotsizeEA/R/9_Ratio_250_L_3_R_12.png","img/750/randomdotsizeEA/L/10_Ratio_750_L_4_R_3.png","img/500/equaldotanddens/L/7_Ratio_500_L_10_R_5.png","img/900/equaldotsize/R/12_Ratio_900_L_18_R_20.png","img/900/equaldotsize/L/8_Ratio_900_L_20_R_18.png","img/900/equaldotsize/R/11_Ratio_900_L_18_R_20.png","img/750/equaldotanddens/L/10_Ratio_750_L_4_R_3.png","img/750/randomdotsizeEA/R/11_Ratio_750_L_12_R_16.png","img/900/equaldotanddens/L/1_Ratio_900_L_10_R_9.png","img/750/randomdotsizeEA/L/10_Ratio_750_L_4_R_3.png","img/250/equaldotanddens/R/10_Ratio_250_L_4_R_16.png","img/500/equaldotsize/L/5_Ratio_500_L_4_R_2.png","img/500/equaldotsize/R/9_Ratio_500_L_2_R_4.png","img/750/equaldotsize/R/7_Ratio_750_L_3_R_4.png","img/500/equaldotanddens/L/8_Ratio_500_L_8_R_4.png","img/250/randomdotsizeEA/R/4_Ratio_250_L_3_R_12.png","img/500/randomdotsizeEA/L/11_Ratio_500_L_12_R_6.png","img/750/randomdotsizeEA/L/8_Ratio_750_L_4_R_3.png","img/500/randomdotsizeEA/L/4_Ratio_500_L_18_R_9.png","img/750/equaldotsize/L/8_Ratio_750_L_4_R_3.png","img/750/equaldotanddens/L/10_Ratio_750_L_4_R_3.png","img/750/equaldotsize/L/13_Ratio_750_L_8_R_6.png","img/750/equaldotanddens/R/2_Ratio_750_L_6_R_8.png","img/500/equaldotsize/R/3_Ratio_500_L_10_R_20.png","img/500/equaldotsize/R/2_Ratio_500_L_3_R_6.png","img/500/randomdotsizeEA/R/6_Ratio_500_L_9_R_18.png","img/900/randomdotsizeEA/L/4_Ratio_900_L_20_R_18.png","img/500/equaldotanddens/R/1_Ratio_500_L_9_R_18.png","img/250/randomdotsizeEA/L/2_Ratio_250_L_16_R_4.png","img/500/randomdotsizeEA/L/7_Ratio_500_L_10_R_5.png","img/250/randomdotsizeEA/L/14_Ratio_250_L_12_R_3.png","img/750/equaldotanddens/L/1_Ratio_750_L_20_R_15.png","img/250/equaldotsize/R/9_Ratio_250_L_3_R_12.png","img/900/equaldotsize/R/7_Ratio_900_L_9_R_10.png","img/250/equaldotsize/L/2_Ratio_250_L_16_R_4.png","img/500/equaldotanddens/R/15_Ratio_500_L_1_R_2.png","img/750/randomdotsizeEA/L/8_Ratio_750_L_4_R_3.png","img/250/randomdotsizeEA/L/3_Ratio_250_L_8_R_2.png","img/900/equaldotanddens/L/4_Ratio_900_L_20_R_18.png","img/900/randomdotsizeEA/L/4_Ratio_900_L_20_R_18.png","img/250/randomdotsizeEA/R/6_Ratio_250_L_6_R_24.png","img/500/equaldotsize/R/6_Ratio_500_L_9_R_18.png","img/500/equaldotanddens/R/6_Ratio_500_L_9_R_18.png","img/750/equaldotsize/R/2_Ratio_750_L_6_R_8.png","img/250/equaldotanddens/L/5_Ratio_250_L_24_R_6.png","img/500/equaldotanddens/L/7_Ratio_500_L_10_R_5.png","img/750/randomdotsizeEA/R/3_Ratio_750_L_15_R_20.png","img/250/equaldotsize/R/9_Ratio_250_L_3_R_12.png","img/250/equaldotsize/L/14_Ratio_250_L_12_R_3.png","img/900/equaldotsize/L/1_Ratio_900_L_10_R_9.png","img/250/equaldotanddens/R/6_Ratio_250_L_6_R_24.png","img/500/equaldotanddens/R/12_Ratio_500_L_1_R_2.png","img/750/equaldotsize/R/15_Ratio_750_L_9_R_12.png","img/900/randomdotsizeEA/R/3_Ratio_900_L_9_R_10.png","img/750/equaldotanddens/R/12_Ratio_750_L_3_R_4.png","img/750/equaldotsize/L/6_Ratio_750_L_24_R_18.png","img/500/equaldotsize/R/6_Ratio_500_L_9_R_18.png","img/500/equaldotsize/R/15_Ratio_500_L_1_R_2.png","img/900/randomdotsizeEA/R/11_Ratio_900_L_18_R_20.png","img/500/randomdotsizeEA/L/5_Ratio_500_L_4_R_2.png","img/250/equaldotanddens/R/9_Ratio_250_L_3_R_12.png","img/750/equaldotsize/L/14_Ratio_750_L_8_R_6.png","img/500/equaldotsize/L/10_Ratio_500_L_4_R_2.png","img/900/equaldotsize/R/7_Ratio_900_L_9_R_10.png","img/750/equaldotsize/R/15_Ratio_750_L_9_R_12.png","img/500/randomdotsizeEA/R/3_Ratio_500_L_10_R_20.png","img/750/equaldotsize/L/1_Ratio_750_L_20_R_15.png","img/250/equaldotanddens/L/1_Ratio_250_L_8_R_2.png","img/900/randomdotsizeEA/L/8_Ratio_900_L_20_R_18.png","img/250/equaldotsize/L/15_Ratio_250_L_12_R_3.png","img/750/equaldotanddens/L/13_Ratio_750_L_8_R_6.png","img/250/equaldotanddens/R/12_Ratio_250_L_5_R_20.png","img/900/equaldotsize/L/1_Ratio_900_L_10_R_9.png","img/750/randomdotsizeEA/R/2_Ratio_750_L_6_R_8.png","img/750/randomdotsizeEA/L/10_Ratio_750_L_4_R_3.png","img/500/equaldotanddens/L/8_Ratio_500_L_8_R_4.png","img/250/equaldotanddens/L/2_Ratio_250_L_16_R_4.png","img/500/randomdotsizeEA/L/5_Ratio_500_L_4_R_2.png"],"Rat0":[["12_Ratio_0_L_9_R_0.png","13_Ratio_0_L_6_R_0.png","5_Ratio_0_L_2_R_0.png","6_Ratio_0_L_4_R_0.png","8_Ratio_0_L_6_R_0.png"],["1_Ratio_0_L_0_R_17.png","10_Ratio_0_L_0_R_22.png","11_Ratio_0_L_0_R_1.png","14_Ratio_0_L_0_R_24.png","15_Ratio_0_L_0_R_4.png","2_Ratio_0_L_0_R_5.png","3_Ratio_0_L_0_R_17.png","4_Ratio_0_L_0_R_7.png","7_Ratio_0_L_0_R_19.png","9_Ratio_0_L_0_R_15.png"]],"Rat250":[["1_Ratio_250_L_8_R_2.png","14_Ratio_250_L_12_R_3.png","15_Ratio_250_L_12_R_3.png","2_Ratio_250_L_16_R_4.png","3_Ratio_250_L_8_R_2.png","5_Ratio_250_L_24_R_6.png","7_Ratio_250_L_8_R_2.png"],["10_Ratio_250_L_4_R_16.png","11_Ratio_250_L_3_R_12.png","12_Ratio_250_L_5_R_20.png","13_Ratio_250_L_2_R_8.png","4_Ratio_250_L_3_R_12.png","6_Ratio_250_L_6_R_24.png","8_Ratio_250_L_1_R_4.png","9_Ratio_250_L_3_R_12.png"]],"Rat500":[["10_Ratio_500_L_4_R_2.png","11_Ratio_500_L_12_R_6.png","13_Ratio_500_L_12_R_6.png","4_Ratio_500_L_18_R_9.png","5_Ratio_500_L_4_R_2.png","7_Ratio_500_L_10_R_5.png","8_Ratio_500_L_8_R_4.png"],["1_Ratio_500_L_9_R_18.png","12_Ratio_500_L_1_R_2.png","14_Ratio_500_L_5_R_10.png","15_Ratio_500_L_1_R_2.png","2_Ratio_500_L_3_R_6.png","3_Ratio_500_L_10_R_20.png","6_Ratio_500_L_9_R_18.png","9_Ratio_500_L_2_R_4.png"]],"Rat750":[["1_Ratio_750_L_20_R_15.png","10_Ratio_750_L_4_R_3.png","13_Ratio_750_L_8_R_6.png","14_Ratio_750_L_8_R_6.png","6_Ratio_750_L_24_R_18.png","8_Ratio_750_L_4_R_3.png","9_Ratio_750_L_4_R_3.png"],["11_Ratio_750_L_12_R_16.png","12_Ratio_750_L_3_R_4.png","15_Ratio_750_L_9_R_12.png","2_Ratio_750_L_6_R_8.png","3_Ratio_750_L_15_R_20.png","4_Ratio_750_L_15_R_20.png","5_Ratio_750_L_15_R_20.png","7_Ratio_750_L_3_R_4.png"]],"Rat900":[["1_Ratio_900_L_10_R_9.png","10_Ratio_900_L_20_R_18.png","2_Ratio_900_L_20_R_18.png","4_Ratio_900_L_20_R_18.png","8_Ratio_900_L_20_R_18.png"],["11_Ratio_900_L_18_R_20.png","12_Ratio_900_L_18_R_20.png","13_Ratio_900_L_18_R_20.png","14_Ratio_900_L_18_R_20.png","15_Ratio_900_L_9_R_10.png","3_Ratio_900_L_9_R_10.png","5_Ratio_900_L_9_R_10.png","6_Ratio_900_L_9_R_10.png","7_Ratio_900_L_9_R_10.png","9_Ratio_900_L_18_R_20.png"]],"Rat1000":[["10_Ratio_1000_L_16_R_16.png","11_Ratio_1000_L_6_R_6.png","12_Ratio_1000_L_14_R_14.png","13_Ratio_1000_L_20_R_20.png","15_Ratio_1000_L_15_R_15.png","2_Ratio_1000_L_17_R_17.png","4_Ratio_1000_L_9_R_9.png","5_Ratio_1000_L_6_R_6.png","6_Ratio_1000_L_19_R_19.png","8_Ratio_1000_L_14_R_14.png","9_Ratio_1000_L_25_R_25.png"],["1_Ratio_1000_L_1_R_1.png","14_Ratio_1000_L_17_R_17.png","3_Ratio_1000_L_17_R_17.png","7_Ratio_1000_L_6_R_6.png"]]}},{"start_time":1551794823141,"click_time":1551794824712,"finger_time":1551794824271,"fix_duration":1166.5339211199357,"trial":1,"RT":1130,"MT":441,"sideResp":2,"stimulus":"img/900/randomdotsizeEA/R/7_Ratio_900_L_9_R_10.png","xmouse":[802,802,802,802,802,802,802,802,802,802,802,802,802,802,802,802,802,802,802,802,802,802,802,802,802,802,802,802,802,802,802,802,802,802,802,802,802,802,802,802,802,802,802,802,802,802,802,801,800,800,800,799,799,799,799,813,836,881,1031,1121,1207,1275,1316,1329,1331,1331,1331,1331,1331,1330,1328,1323,1314,1295,1239,1202,1183,1171,1128],"ymouse":[525,525,525,525,525,525,525,525,525,525,525,525,525,525,525,525,525,525,525,525,525,525,525,525,525,525,525,525,525,525,525,525,525,525,525,525,525,525,525,525,525,525,525,525,525,523,515,509,503,493,489,485,484,484,481,471,457,431,357,314,276,245,227,218,207,201,200,199,197,195,192,187,179,162,117,92,83,80,80],"timestamp_mouse":[9,30,49,69,91,110,130,150,169,189,210,231,249,269,289,311,330,350,370,391,409,431,449,470,490,511,531,550,570,591,610,630,650,670,690,711,731,749,769,791,811,830,850,870,890,910,931,950,970,990,1010,1029,1050,1070,1090,1110,1130,1150,1171,1190,1210,1230,1250,1271,1289,1309,1330,1351,1370,1390,1411,1430,1451,1470,1490,1510,1530,1550,1570],"xSR":741.5,"ySR":469.95,"xT1":424.9,"yT1":0,"xT2":1058.1,"yT2":0,"toosoon":0,"cond_shown":"randomdotsizeEA","ratio_trial":900,"smaller_num":"9","larger_num":"10","correct_side":2,"subjID":"santiagovaldesgomez3","gender":"0","age":"10","school":"6"},{"start_time":1551794828546,"click_time":1551794830032,"finger_time":1551794829512,"fix_duration":914.9341616417489,"trial":2,"RT":966,"MT":520,"sideResp":1,"stimulus":"img/900/equaldotsize/L/4_Ratio_900_L_20_R_18.png","xmouse":[770,770,770,770,770,770,770,770,770,770,770,770,770,770,770,770,770,770,770,770,770,770,770,770,770,770,770,770,770,770,770,770,770,770,770,770,770,770,770,770,770,770,770,770,770,770,763,751,740,724,721,720,719,715,712,709,706,701,693,657,635,615,600,591,590,590,590,589,588,576,567,561,551,537,521],"ymouse":[549,549,549,549,549,549,549,549,549,549,549,549,549,549,549,549,549,549,549,549,549,549,549,549,549,549,549,549,549,549,549,549,549,549,549,549,549,549,549,549,549,549,549,549,549,545,532,516,498,458,433,406,389,369,352,344,334,320,299,226,172,114,94,78,77,77,77,75,74,68,65,65,65,66,66],"timestamp_mouse":[13,36,46,65,85,104,125,145,164,184,206,226,246,264,284,306,325,344,366,385,405,426,446,465,485,504,525,544,565,586,605,625,645,664,686,705,726,745,764,785,804,826,846,865,886,905,924,944,966,985,1004,1024,1044,1065,1085,1105,1125,1145,1165,1184,1205,1225,1245,1265,1285,1305,1325,1344,1365,1385,1406,1425,1446,1465,1486],"xSR":741.5,"ySR":469.95,"xT1":424.9,"yT1":0,"xT2":1058.1,"yT2":0,"toosoon":0,"cond_shown":"equaldotsize","ratio_trial":900,"smaller_num":"18","larger_num":"20","correct_side":1,"subjID":"santiagovaldesgomez3","gender":"0","age":"10","school":"6"},{"start_time":1551794831942,"click_time":1551794832931,"finger_time":1551794832651,"fix_duration":1009.7304164795128,"trial":3,"RT":709,"MT":280,"sideResp":1,"stimulus":"img/250/equaldotanddens/L/2_Ratio_250_L_16_R_4.png","xmouse":[808,808,808,808,808,808,808,808,808,808,808,808,808,808,808,808,808,808,808,808,808,808,808,808,808,808,808,808,808,808,807,806,801,794,788,750,727,704,687,651,648,635,627,623,619,597,580,562,547,522],"ymouse":[533,533,533,533,533,533,533,533,533,533,533,533,533,533,533,533,533,533,533,532,532,532,532,532,532,532,532,532,532,532,531,526,515,498,472,357,296,244,206,157,154,148,145,143,140,121,98,79,69,55],"timestamp_mouse":[12,38,49,68,90,110,129,150,169,188,209,228,250,270,288,308,330,349,368,388,409,430,448,469,489,510,530,548,570,588,610,628,649,670,689,709,728,748,770,790,809,829,848,870,889,909,929,949,969,989],"xSR":741.5,"ySR":469.95,"xT1":424.9,"yT1":0,"xT2":1058.1,"yT2":0,"toosoon":0,"cond_shown":"equaldotanddens","ratio_trial":250,"smaller_num":"4","larger_num":"16","correct_side":1,"subjID":"santiagovaldesgomez3","gender":"0","age":"10","school":"6"},{"start_time":1551794834687,"click_time":1551794836671,"finger_time":1551794835991,"fix_duration":775.1553125530214,"trial":4,"RT":1304,"MT":680,"sideResp":2,"stimulus":"img/250/equaldotsize/R/8_Ratio_250_L_1_R_4.png","xmouse":[785,785,785,785,785,785,785,785,785,785,785,785,785,785,785,785,785,785,785,785,785,785,785,785,785,785,785,785,785,785,785,785,785,785,787,788,789,790,791,793,794,795,795,795,795,795,795,795,795,795,795,795,795,797,798,799,800,802,805,807,810,815,817,826,833,844,857,876,930,946,959,964,969,974,975,978,983,987,999,1004,1009,1013,1016,1022,1024,1027,1028,1029,1031,1032,1034,1037,1040,1048,1051,1053,1054,1057,1057,1062],"ymouse":[520,520,520,520,520,520,520,520,520,520,520,520,520,520,520,520,520,520,520,520,520,520,520,520,520,520,520,520,520,520,520,520,520,520,520,520,520,519,518,517,516,516,516,516,516,516,516,516,516,516,516,516,516,515,514,514,514,512,511,509,507,504,502,496,490,478,459,427,329,292,260,238,221,194,188,178,161,146,121,111,103,95,90,82,81,77,76,76,75,75,75,74,72,67,66,65,64,62,62,61],"timestamp_mouse":[10,24,44,63,83,105,124,143,165,185,204,224,243,265,285,303,324,344,365,383,404,424,444,465,485,505,524,543,564,585,603,625,645,665,684,704,724,745,764,785,804,824,845,864,884,904,925,945,963,985,1004,1024,1044,1065,1083,1103,1124,1145,1164,1184,1204,1224,1244,1264,1284,1304,1324,1344,1364,1384,1404,1425,1443,1464,1484,1504,1524,1544,1564,1585,1604,1623,1643,1663,1683,1704,1724,1744,1764,1783,1804,1823,1845,1864,1885,1904,1924,1945,1964,1984],"xSR":741.5,"ySR":469.95,"xT1":424.9,"yT1":0,"xT2":1058.1,"yT2":0,"toosoon":0,"cond_shown":"equaldotsize","ratio_trial":250,"smaller_num":"1","larger_num":"4","correct_side":2,"subjID":"santiagovaldesgomez3","gender":"0","age":"10","school":"6"},{"start_time":1551794840365,"click_time":1551794842591,"finger_time":1551794841272,"fix_duration":1292.1738796519005,"trial":5,"RT":907,"MT":1319,"sideResp":2,"stimulus":"img/500/randomdotsizeEA/L/7_Ratio_500_L_10_R_5.png","xmouse":[768,768,768,768,768,768,768,768,768,768,768,768,768,768,768,768,768,768,768,768,768,768,768,768,768,768,768,768,768,768,768,768,768,768,768,768,768,768,768,768,768,770,777,790,827,842,856,860,864,878,885,897,920,954,1014,1026,1036,1038,1039,1039,1043,1046,1050,1054,1055,1055,1055,1055,1055,1057,1058,1059,1061,1063,1073,1085,1090,1095,1096,1096,1096,1097,1097,1097,1097,1097,1097,1097,1097,1097,1097,1097,1097,1097,1097,1100,1101,1101,1101,1101,1101,1101,1101,1101,1101,1101,1101,1101,1101,1101,1101,1101],"ymouse":[566,566,566,566,566,566,566,566,566,566,566,566,566,566,566,566,566,566,566,566,566,566,566,566,566,566,566,566,566,566,566,566,566,566,566,566,566,566,566,566,566,563,559,549,526,515,500,491,483,461,449,434,412,378,312,298,283,273,259,246,218,199,176,161,146,144,142,142,141,137,135,133,132,129,123,117,116,114,114,113,113,113,113,113,113,113,113,113,113,113,113,113,113,113,113,108,105,105,105,105,105,105,105,105,105,105,105,105,105,102,100,99],"timestamp_mouse":[10,35,46,66,87,106,126,146,166,186,207,227,245,265,287,306,325,345,366,385,406,425,445,466,486,505,525,546,566,585,606,626,647,667,686,706,725,747,767,785,806,825,846,867,886,907,926,946,965,986,1006,1026,1046,1066,1087,1106,1126,1145,1166,1186,1206,1227,1246,1266,1287,1305,1325,1346,1366,1387,1406,1426,1447,1466,1487,1506,1526,1547,1567,1586,1607,1626,1647,1666,1686,1706,1726,1747,1766,1786,1806,1827,1847,1867,1886,1906,1926,1946,1966,1986,2006,2026,2047,2065,2086,2107,2126,2146,2166,2187,2206,2225],"xSR":741.5,"ySR":469.95,"xT1":424.9,"yT1":0,"xT2":1058.1,"yT2":0,"toosoon":0,"cond_shown":"randomdotsizeEA","ratio_trial":500,"smaller_num":"5","larger_num":"10","correct_side":1,"subjID":"santiagovaldesgomez3","gender":"0","age":"10","school":"6"},{"start_time":1551794846177,"click_time":1551794847832,"finger_time":1551794846912,"fix_duration":1083.0652965263098,"trial":6,"RT":735,"MT":920,"sideResp":2,"stimulus":"img/500/equaldotsize/R/6_Ratio_500_L_9_R_18.png","xmouse":[789,789,789,789,789,789,789,789,789,789,789,789,789,789,789,789,789,789,789,789,789,789,789,789,789,789,789,789,789,789,789,789,789,789,787,773,757,740,732,730,730,730,730,730,730,742,767,813,879,1068,1165,1267,1297,1297,1297,1297,1297,1297,1297,1297,1297,1297,1297,1297,1297,1297,1297,1287,1274,1259,1236,1229,1229,1228,1219,1214,1207,1199,1192,1180,1174,1160,1146],"ymouse":[492,492,492,492,492,492,493,493,493,493,493,493,493,493,493,493,493,493,493,493,493,493,493,492,489,489,489,489,489,489,489,489,489,489,485,478,468,455,448,436,433,433,433,433,430,426,420,400,364,215,133,39,6,6,6,6,6,6,6,6,6,6,6,6,6,6,6,0,10,21,31,34,34,34,37,37,38,39,41,41,41,41,44],"timestamp_mouse":[14,38,54,75,93,113,134,154,173,195,213,235,254,273,294,314,334,355,374,395,414,435,454,474,493,514,535,554,574,595,613,633,655,675,693,714,735,753,775,793,813,833,853,874,894,915,933,954,975,993,1014,1034,1053,1074,1094,1114,1134,1154,1174,1195,1214,1234,1255,1274,1295,1314,1333,1353,1374,1394,1414,1434,1454,1473,1494,1514,1535,1554,1575,1593,1615,1634,1655],"xSR":741.5,"ySR":469.95,"xT1":424.9,"yT1":0,"xT2":1058.1,"yT2":0,"toosoon":0,"cond_shown":"equaldotsize","ratio_trial":500,"smaller_num":"9","larger_num":"18","correct_side":2,"subjID":"santiagovaldesgomez3","gender":"0","age":"10","school":"6"},{"start_time":1551794850910,"click_time":1551794852731,"finger_time":1551794851711,"fix_duration":656.4642688393078,"trial":7,"RT":801,"MT":1020,"sideResp":1,"stimulus":"img/500/equaldotanddens/L/5_Ratio_500_L_4_R_2.png","xmouse":[810,810,810,810,810,810,810,810,810,810,810,810,810,810,810,810,810,810,810,810,810,810,810,811,814,819,821,821,821,821,821,821,821,821,821,821,821,821,818,802,793,784,776,763,758,745,731,718,665,603,502,382,249,249,249,249,249,249,249,249,249,249,249,249,305,323,329,329,329,329,330,329,328,335,343,353,362,368,371,376,384,394,403,408,423,429,434,437,442,450,455,460],"ymouse":[540,540,540,540,540,540,540,540,540,540,540,540,540,540,540,540,540,540,540,540,540,540,540,540,538,533,531,530,530,530,530,530,530,530,530,530,530,525,515,480,459,438,416,390,381,363,343,326,255,185,111,50,8,8,8,8,8,8,8,8,8,8,8,8,5,9,9,9,9,9,10,15,26,64,77,89,100,105,108,111,115,118,120,120,120,120,120,118,117,109,105,98],"timestamp_mouse":[11,21,42,61,81,101,120,140,162,182,201,220,242,261,282,300,320,341,361,381,401,426,442,461,480,501,521,542,561,580,602,621,641,662,681,700,721,741,761,781,801,822,841,861,880,902,921,941,962,981,1002,1022,1042,1061,1081,1101,1121,1140,1160,1181,1200,1220,1241,1262,1282,1300,1321,1341,1361,1380,1400,1422,1441,1462,1481,1500,1521,1540,1561,1580,1601,1621,1641,1661,1681,1701,1722,1741,1762,1781,1800,1821],"xSR":741.5,"ySR":469.95,"xT1":424.9,"yT1":0,"xT2":1058.1,"yT2":0,"toosoon":0,"cond_shown":"equaldotanddens","ratio_trial":500,"smaller_num":"2","larger_num":"4","correct_side":1,"subjID":"santiagovaldesgomez3","gender":"0","age":"10","school":"6"},{"start_time":1551794855044,"click_time":1551794856491,"finger_time":1551794855871,"fix_duration":1071.4164887611105,"trial":8,"RT":827,"MT":620,"sideResp":2,"stimulus":"img/750/equaldotanddens/R/15_Ratio_750_L_9_R_12.png","xmouse":[822,822,822,822,822,822,822,822,823,823,825,825,825,825,825,825,825,825,825,825,825,825,825,825,825,824,821,819,818,818,818,818,818,818,818,818,818,818,818,824,838,856,895,914,919,928,928,930,933,937,941,944,948,948,949,950,951,953,955,959,964,975,1004,1016,1022,1024,1026,1035,1040,1045,1050,1057,1070],"ymouse":[528,528,528,528,528,528,528,526,520,516,509,503,493,491,490,490,490,490,490,490,490,490,490,492,494,495,500,504,505,506,506,506,506,506,506,506,506,506,506,503,483,455,375,328,311,224,196,150,127,108,95,87,77,75,73,72,72,72,72,72,72,72,72,72,71,70,70,71,71,71,70,66,55],"timestamp_mouse":[9,34,46,67,87,107,127,148,167,187,208,228,247,267,286,306,327,348,367,387,408,428,447,466,487,507,527,546,567,587,606,626,648,668,687,707,727,748,766,787,807,827,846,867,888,907,927,946,966,987,1008,1027,1047,1066,1086,1107,1127,1146,1166,1187,1207,1227,1247,1267,1288,1308,1328,1346,1367,1388,1407,1427,1447],"xSR":741.5,"ySR":469.95,"xT1":424.9,"yT1":0,"xT2":1058.1,"yT2":0,"toosoon":0,"cond_shown":"equaldotanddens","ratio_trial":750,"smaller_num":"9","larger_num":"12","correct_side":2,"subjID":"santiagovaldesgomez3","gender":"0","age":"10","school":"6"},{"start_time":1551794862704,"click_time":1551794863692,"finger_time":1551794863512,"fix_duration":250,"trial":9,"RT":808,"MT":180,"sideResp":2,"stimulus":"img/900/equaldotanddens/R/13_Ratio_900_L_18_R_20.png","xmouse":[774,774,774,775,775,775,775,775,775,775,775,775,775,775,775,775,775,775,775,775,775,775,775,775,775,775,775,775,775,775,775,775,775,775,775,775,775,775,775,781,809,829,859,899,946,1045,1100,1124,1135,1138],"ymouse":[497,497,497,497,497,497,497,497,497,497,497,497,497,497,497,497,495,494,494,494,494,494,494,494,494,494,494,493,493,493,493,493,493,493,493,493,493,492,491,486,467,454,433,406,374,267,181,138,113,99],"timestamp_mouse":[18,41,46,68,88,108,126,148,166,186,208,226,247,268,286,307,328,348,368,387,408,427,446,467,488,507,528,548,566,588,608,628,647,668,687,708,727,747,767,788,808,827,847,867,888,907,927,947,966,988],"xSR":741.5,"ySR":469.95,"xT1":424.9,"yT1":0,"xT2":1058.1,"yT2":0,"toosoon":0,"cond_shown":"equaldotanddens","ratio_trial":900,"smaller_num":"18","larger_num":"20","correct_side":2,"subjID":"santiagovaldesgomez3","gender":"0","age":"10","school":"6"},{"start_time":1551794866731,"click_time":1551794868212,"finger_time":1551794867510,"fix_duration":1458.3625887367539,"trial":10,"RT":779,"MT":702,"sideResp":1,"stimulus":"img/250/randomdotsizeEA/L/15_Ratio_250_L_12_R_3.png","xmouse":[758,758,758,758,758,758,758,758,758,758,758,758,758,758,758,758,758,758,758,758,758,758,758,758,758,758,758,758,758,758,758,758,758,758,760,760,760,760,756,746,732,718,709,701,692,687,685,684,684,682,680,675,673,670,649,638,628,617,608,592,583,576,570,565,553,547,542,542,542,542,542,542,541,537,523],"ymouse":[509,509,509,509,509,509,509,509,509,509,509,509,509,509,509,509,509,509,509,509,509,509,509,509,509,509,509,509,509,509,509,509,509,509,505,500,493,485,471,415,366,329,302,282,263,254,250,249,249,247,244,239,236,232,205,194,183,171,159,139,126,114,102,94,80,78,76,76,76,76,76,76,76,76,76],"timestamp_mouse":[2,20,43,60,79,101,119,141,160,179,199,219,241,261,280,300,320,340,360,381,400,420,441,461,480,501,520,540,560,579,600,620,641,661,679,699,719,741,760,779,799,820,840,859,881,901,919,939,960,980,1000,1019,1040,1061,1081,1099,1120,1140,1160,1180,1200,1220,1240,1261,1281,1300,1321,1341,1360,1380,1399,1419,1439,1461,1481],"xSR":741.5,"ySR":469.95,"xT1":424.9,"yT1":0,"xT2":1058.1,"yT2":0,"toosoon":0,"cond_shown":"randomdotsizeEA","ratio_trial":250,"smaller_num":"3","larger_num":"12","correct_side":1,"subjID":"santiagovaldesgomez3","gender":"0","age":"10","school":"6"},{"start_time":1551794872207,"click_time":1551794873550,"finger_time":1551794872990,"fix_duration":1474.7175039131164,"trial":11,"RT":783,"MT":560,"sideResp":1,"stimulus":"img/250/equaldotanddens/L/1_Ratio_250_L_8_R_2.png","xmouse":[818,818,818,818,818,818,818,818,818,818,818,818,818,818,818,818,818,818,818,818,818,818,818,818,818,818,818,818,818,818,818,818,818,818,818,817,803,793,776,753,715,660,637,620,606,595,574,564,554,542,537,532,532,532,532,532,532,531,529,529,526,525,524,524,523,523,520,514],"ymouse":[547,547,547,547,547,547,547,547,547,547,547,547,547,547,547,547,547,547,547,547,547,547,547,547,547,547,547,547,547,547,547,547,547,547,547,541,521,507,486,461,431,391,373,358,346,335,314,303,294,274,265,255,250,235,221,208,174,154,139,131,123,117,115,113,112,112,103,91],"timestamp_mouse":[10,23,44,65,84,103,124,144,164,184,203,223,245,264,285,304,324,345,364,383,405,424,445,465,484,503,525,543,563,585,605,625,643,664,683,704,724,744,763,783,805,824,844,865,884,905,924,945,965,984,1004,1023,1044,1065,1084,1105,1124,1144,1163,1184,1203,1223,1244,1265,1284,1304,1324,1343],"xSR":741.5,"ySR":469.95,"xT1":424.9,"yT1":0,"xT2":1058.1,"yT2":0,"toosoon":0,"cond_shown":"equaldotanddens","ratio_trial":250,"smaller_num":"2","larger_num":"8","correct_side":1,"subjID":"santiagovaldesgomez3","gender":"0","age":"10","school":"6"},{"start_time":1551794876645,"click_time":1551794877932,"finger_time":1551794877392,"fix_duration":592.0292918118142,"trial":12,"RT":747,"MT":540,"sideResp":2,"stimulus":"img/900/equaldotanddens/L/1_Ratio_900_L_10_R_9.png","xmouse":[803,803,803,802,802,802,802,802,801,801,799,798,797,797,797,797,797,797,797,795,792,789,785,780,777,776,776,776,776,776,776,776,775,775,777,803,825,857,886,954,981,1002,1015,1022,1029,1034,1038,1041,1047,1055,1059,1061,1064,1066,1071,1072,1072,1072,1072,1072,1072,1072,1072,1072,1072],"ymouse":[545,545,545,544,544,544,544,544,544,544,544,543,543,543,543,543,543,543,543,543,542,541,541,540,540,540,540,540,540,540,540,540,539,538,535,513,495,468,438,362,327,297,276,260,243,231,222,211,195,166,155,148,143,134,119,115,114,113,113,113,113,111,108,105,98],"timestamp_mouse":[10,42,46,67,85,106,127,147,166,185,206,227,247,266,285,307,326,347,366,387,406,426,446,466,486,506,525,545,567,586,606,626,646,667,686,706,726,747,766,787,806,826,846,867,887,906,926,946,966,987,1005,1027,1046,1066,1087,1106,1126,1145,1165,1187,1205,1225,1245,1267,1287],"xSR":741.5,"ySR":469.95,"xT1":424.9,"yT1":0,"xT2":1058.1,"yT2":0,"toosoon":0,"cond_shown":"equaldotanddens","ratio_trial":900,"smaller_num":"9","larger_num":"10","correct_side":1,"subjID":"santiagovaldesgomez3","gender":"0","age":"10","school":"6"},{"start_time":1551794885665,"click_time":1551794887090,"finger_time":1551794886751,"fix_duration":1271.1988426343642,"trial":13,"RT":1086,"MT":339,"sideResp":1,"stimulus":"img/900/randomdotsizeEA/L/1_Ratio_900_L_10_R_9.png","xmouse":[757,757,757,757,757,757,757,757,757,757,757,757,757,757,757,757,757,757,757,757,757,757,757,757,757,757,757,757,757,757,757,757,757,757,757,757,757,757,757,757,757,757,757,757,757,757,757,757,759,765,776,787,803,826,893,939,976,1014,1051,1100,1110,1110,1110,1110,1083,1049,988,906,814,714,487,430],"ymouse":[534,534,534,534,534,534,534,534,534,534,534,534,534,534,534,534,534,534,534,534,534,534,534,534,534,534,534,534,534,534,534,534,534,534,534,534,534,534,534,534,534,534,534,534,534,534,534,534,534,534,531,525,515,500,462,443,429,412,398,381,378,378,378,376,346,325,302,278,247,205,108,83],"timestamp_mouse":[13,31,46,66,86,104,125,146,165,185,206,225,246,266,285,305,326,345,365,389,405,425,446,465,486,505,526,546,565,585,606,625,644,666,686,705,726,745,765,785,806,826,846,865,886,905,926,945,966,985,1004,1025,1045,1065,1086,1105,1125,1145,1166,1187,1205,1226,1246,1265,1287,1305,1324,1346,1366,1386,1405,1425],"xSR":741.5,"ySR":469.95,"xT1":424.9,"yT1":0,"xT2":1058.1,"yT2":0,"toosoon":0,"cond_shown":"randomdotsizeEA","ratio_trial":900,"smaller_num":"9","larger_num":"10","correct_side":1,"subjID":"santiagovaldesgomez3","gender":"0","age":"10","school":"6"},{"start_time":1551794890638,"click_time":1551794891650,"finger_time":1551794891210,"fix_duration":1306.307622992771,"trial":14,"RT":572,"MT":440,"sideResp":2,"stimulus":"img/900/equaldotanddens/R/5_Ratio_900_L_9_R_10.png","xmouse":[833,833,833,833,833,833,833,833,833,833,833,833,833,833,833,831,827,825,824,823,823,823,825,826,828,831,837,840,845,865,891,990,1037,1082,1114,1135,1173,1190,1193,1197,1198,1199,1199,1199,1199,1198,1194,1187,1179,1170,1156],"ymouse":[493,493,493,493,493,494,494,494,494,494,494,494,494,494,496,497,501,502,503,505,510,517,519,519,519,515,502,495,489,465,440,367,334,300,274,258,216,189,183,176,172,162,156,151,148,145,134,120,110,100,87],"timestamp_mouse":[13,39,52,72,92,113,133,152,172,193,212,232,252,273,292,313,332,352,373,393,412,432,452,473,492,512,532,552,572,592,612,632,652,673,692,713,732,752,773,792,812,832,853,872,892,912,932,952,973,992,1012],"xSR":741.5,"ySR":469.95,"xT1":424.9,"yT1":0,"xT2":1058.1,"yT2":0,"toosoon":0,"cond_shown":"equaldotanddens","ratio_trial":900,"smaller_num":"9","larger_num":"10","correct_side":2,"subjID":"santiagovaldesgomez3","gender":"0","age":"10","school":"6"},{"start_time":1551794893730,"click_time":1551794894951,"finger_time":1551794894410,"fix_duration":958.187485343319,"trial":15,"RT":680,"MT":541,"sideResp":1,"stimulus":"img/500/equaldotanddens/L/4_Ratio_500_L_18_R_9.png","xmouse":[766,766,766,766,766,766,766,766,766,766,766,766,766,766,766,766,766,766,766,766,766,767,769,770,770,770,770,770,770,770,770,770,761,750,732,717,694,630,598,567,544,526,505,500,499,499,499,499,499,499,499,499,499,499,497,497,497,496,496,496,496,496],"ymouse":[547,547,547,547,547,547,547,547,547,547,547,547,547,547,547,547,547,547,547,547,547,547,547,547,547,547,547,547,547,546,543,536,518,504,479,455,417,315,271,229,198,175,150,142,141,141,141,141,141,141,141,141,141,140,136,135,131,125,111,106,102,97],"timestamp_mouse":[16,30,40,61,80,99,120,141,160,180,200,220,241,261,281,301,321,340,361,380,401,421,440,460,480,501,520,540,560,581,600,621,640,660,680,700,720,741,760,780,800,819,841,860,880,901,920,940,961,981,1000,1020,1041,1061,1081,1101,1120,1141,1160,1180,1200,1221],"xSR":741.5,"ySR":469.95,"xT1":424.9,"yT1":0,"xT2":1058.1,"yT2":0,"toosoon":0,"cond_shown":"equaldotanddens","ratio_trial":500,"smaller_num":"9","larger_num":"18","correct_side":1,"subjID":"santiagovaldesgomez3","gender":"0","age":"10","school":"6"},{"start_time":1551794896666,"click_time":1551794897672,"finger_time":1551794897290,"fix_duration":774.997468011956,"trial":16,"RT":624,"MT":382,"sideResp":1,"stimulus":"img/250/equaldotsize/L/5_Ratio_250_L_24_R_6.png","xmouse":[820,820,820,820,820,820,820,820,820,820,820,820,820,820,820,820,820,820,820,820,820,820,820,820,820,820,820,820,818,813,796,727,675,628,589,555,504,491,485,482,480,475,474,473,472,471,470,470,470,470,468],"ymouse":[516,516,516,516,516,516,516,516,516,516,516,516,516,516,516,516,516,516,516,516,516,516,516,516,516,516,516,516,516,513,494,417,370,333,304,279,239,224,217,213,206,190,186,183,180,173,151,134,118,105,97],"timestamp_mouse":[10,24,47,65,85,104,125,144,165,184,204,223,245,265,285,304,324,344,365,384,405,425,444,463,485,505,524,544,565,584,604,624,644,664,684,705,724,744,764,784,804,823,844,865,885,905,924,944,964,985,1005],"xSR":741.5,"ySR":469.95,"xT1":424.9,"yT1":0,"xT2":1058.1,"yT2":0,"toosoon":0,"cond_shown":"equaldotsize","ratio_trial":250,"smaller_num":"6","larger_num":"24","correct_side":1,"subjID":"santiagovaldesgomez3","gender":"0","age":"10","school":"6"},{"start_time":1551794899535,"click_time":1551794900531,"finger_time":1551794900111,"fix_duration":1043.3415028918969,"trial":17,"RT":576,"MT":420,"sideResp":2,"stimulus":"img/750/equaldotanddens/R/15_Ratio_750_L_9_R_12.png","xmouse":[772,772,772,772,772,772,772,772,772,772,772,772,772,772,772,772,772,772,772,772,772,772,772,774,776,781,789,814,826,842,882,906,948,964,977,992,1003,1014,1017,1019,1026,1034,1042,1043,1043,1043,1043,1051,1058,1064],"ymouse":[511,511,511,511,511,511,511,511,511,511,511,511,511,511,511,511,511,511,511,511,511,511,511,511,511,507,500,480,468,445,384,342,266,239,216,191,175,154,150,144,132,117,104,103,103,103,103,91,81,72],"timestamp_mouse":[16,39,55,76,95,115,135,156,175,196,215,234,256,276,296,316,336,356,376,394,416,436,455,475,496,515,535,555,576,596,615,636,655,675,695,716,735,756,775,795,815,835,855,876,895,915,936,955,975,996],"xSR":741.5,"ySR":469.95,"xT1":424.9,"yT1":0,"xT2":1058.1,"yT2":0,"toosoon":0,"cond_shown":"equaldotanddens","ratio_trial":750,"smaller_num":"9","larger_num":"12","correct_side":2,"subjID":"santiagovaldesgomez3","gender":"0","age":"10","school":"6"},{"start_time":1551794903725,"click_time":1551794904710,"finger_time":1551794903890,"fix_duration":933.4255471873934,"trial":18,"RT":165,"MT":820,"sideResp":2,"stimulus":"img/500/randomdotsizeEA/L/8_Ratio_500_L_8_R_4.png","xmouse":[771,771,771,771,771,771,771,767,752,749,749,749,749,749,749,749,749,749,749,749,749,749,749,749,749,749,749,751,760,782,805,828,842,864,873,882,888,895,905,935,947,958,967,971,982,991,1000,1007,1047,1079],"ymouse":[541,541,541,541,541,545,547,557,580,584,584,584,584,584,584,584,584,584,584,584,584,584,584,584,584,584,584,577,559,517,472,421,388,346,326,308,291,273,254,204,182,165,154,149,137,130,123,117,91,72],"timestamp_mouse":[10,26,45,65,85,105,125,146,165,185,205,225,245,266,286,306,325,346,366,386,406,426,446,466,486,505,526,546,566,585,605,625,645,665,685,705,726,745,766,786,805,825,846,865,885,905,925,946,967,985],"xSR":741.5,"ySR":469.95,"xT1":424.9,"yT1":0,"xT2":1058.1,"yT2":0,"toosoon":0,"cond_shown":"randomdotsizeEA","ratio_trial":500,"smaller_num":"4","larger_num":"8","correct_side":1,"subjID":"santiagovaldesgomez3","gender":"0","age":"10","school":"6"},{"start_time":1551794905952,"click_time":1551794907150,"finger_time":1551794906750,"fix_duration":479.41694540086866,"trial":19,"RT":798,"MT":400,"sideResp":1,"stimulus":"img/900/equaldotanddens/L/8_Ratio_900_L_20_R_18.png","xmouse":[796,796,793,791,790,790,790,790,790,790,790,790,790,790,790,790,790,790,790,790,790,790,790,790,790,790,790,790,790,790,790,790,790,790,790,790,790,786,781,763,729,678,602,584,569,562,555,547,546,546,546,545,545,545,545,545,545,545,541,521],"ymouse":[533,533,528,526,524,524,524,524,524,524,524,524,524,524,524,524,524,524,524,524,524,524,524,524,524,524,524,524,524,524,524,524,524,524,524,524,523,517,506,467,387,299,191,167,145,126,108,77,74,73,73,72,72,72,72,72,72,72,66,51],"timestamp_mouse":[18,41,57,78,98,119,138,158,179,199,218,239,258,278,298,319,339,358,379,398,418,438,459,479,499,519,539,558,579,599,619,637,658,678,699,718,739,759,778,798,819,838,858,878,898,919,939,958,978,998,1018,1038,1058,1079,1097,1118,1138,1158,1178,1198],"xSR":741.5,"ySR":469.95,"xT1":424.9,"yT1":0,"xT2":1058.1,"yT2":0,"toosoon":0,"cond_shown":"equaldotanddens","ratio_trial":900,"smaller_num":"18","larger_num":"20","correct_side":1,"subjID":"santiagovaldesgomez3","gender":"0","age":"10","school":"6"},{"start_time":1551794910446,"click_time":1551794911450,"finger_time":1551794911110,"fix_duration":1013.6501405580641,"trial":20,"RT":664,"MT":340,"sideResp":2,"stimulus":"img/900/equaldotanddens/R/5_Ratio_900_L_9_R_10.png","xmouse":[801,801,801,801,801,801,801,801,801,801,801,801,801,801,801,801,801,801,801,801,801,801,801,801,801,801,801,801,801,801,801,804,812,842,860,880,903,924,962,976,982,987,991,998,1002,1006,1012,1018,1033,1056,1086],"ymouse":[537,537,537,537,537,537,537,537,537,537,537,537,537,537,537,537,537,537,537,537,537,537,537,537,537,537,537,537,537,537,537,531,521,484,467,445,418,388,322,287,272,259,246,228,215,202,190,176,145,101,55],"timestamp_mouse":[13,29,45,64,85,105,125,144,164,184,205,225,245,264,284,303,324,344,364,385,404,425,445,464,485,505,525,544,564,585,605,625,644,664,685,704,724,745,765,784,804,824,845,865,885,904,924,944,965,984,1004],"xSR":741.5,"ySR":469.95,"xT1":424.9,"yT1":0,"xT2":1058.1,"yT2":0,"toosoon":0,"cond_shown":"equaldotanddens","ratio_trial":900,"smaller_num":"9","larger_num":"10","correct_side":2,"subjID":"santiagovaldesgomez3","gender":"0","age":"10","school":"6"},{"start_time":1551794913529,"click_time":1551794914630,"finger_time":1551794914290,"fix_duration":1197.0341082365856,"trial":21,"RT":761,"MT":340,"sideResp":2,"stimulus":"img/900/randomdotsizeEA/R/14_Ratio_900_L_18_R_20.png","xmouse":[797,797,797,797,797,797,797,797,797,797,797,797,797,797,797,797,797,797,797,797,797,797,797,797,797,799,801,802,802,802,802,802,802,802,804,811,820,835,844,850,869,882,896,908,918,950,962,976,990,1002,1019,1024,1033,1042,1074,1085],"ymouse":[520,520,520,520,520,520,520,520,520,520,520,520,520,520,520,520,520,520,520,520,520,520,520,520,520,514,512,511,511,511,511,511,511,511,510,503,494,482,472,462,430,407,380,357,336,281,259,235,216,199,178,171,158,146,104,90],"timestamp_mouse":[10,21,41,65,81,101,122,141,161,181,202,221,242,262,281,302,321,342,361,382,401,421,441,462,481,502,522,541,562,582,602,621,642,662,682,702,721,742,761,782,801,821,841,861,881,901,922,941,961,982,1001,1022,1041,1061,1082,1101],"xSR":741.5,"ySR":469.95,"xT1":424.9,"yT1":0,"xT2":1058.1,"yT2":0,"toosoon":0,"cond_shown":"randomdotsizeEA","ratio_trial":900,"smaller_num":"18","larger_num":"20","correct_side":2,"subjID":"santiagovaldesgomez3","gender":"0","age":"10","school":"6"},{"start_time":1551794917200,"click_time":1551794918331,"finger_time":1551794918070,"fix_duration":366.30021227505813,"trial":22,"RT":870,"MT":261,"sideResp":1,"stimulus":"img/900/equaldotanddens/L/4_Ratio_900_L_20_R_18.png","xmouse":[779,779,779,779,779,779,779,779,779,779,779,779,779,779,779,779,779,779,779,779,779,779,779,779,779,779,779,779,779,779,779,779,779,779,779,779,778,778,778,778,778,783,786,788,791,791,786,780,772,759,749,727,712,687,647,593,475],"ymouse":[557,557,557,557,557,557,557,557,557,557,557,557,557,557,557,557,557,557,557,557,557,557,557,557,557,557,557,557,557,557,557,557,557,550,541,533,527,524,521,519,516,495,478,461,439,423,403,390,377,363,353,328,307,273,222,165,65],"timestamp_mouse":[13,44,49,70,90,111,130,150,171,190,211,231,251,270,291,311,330,350,372,391,410,430,450,470,491,510,531,550,571,590,610,631,650,671,691,710,731,750,771,791,810,829,850,870,890,910,930,951,970,990,1011,1030,1050,1070,1090,1111,1131],"xSR":741.5,"ySR":469.95,"xT1":424.9,"yT1":0,"xT2":1058.1,"yT2":0,"toosoon":0,"cond_shown":"equaldotanddens","ratio_trial":900,"smaller_num":"18","larger_num":"20","correct_side":1,"subjID":"santiagovaldesgomez3","gender":"0","age":"10","school":"6"},{"start_time":1551794921194,"click_time":1551794922830,"finger_time":1551794922250,"fix_duration":361.96160254060436,"trial":23,"RT":1056,"MT":580,"sideResp":2,"stimulus":"img/250/randomdotsizeEA/R/8_Ratio_250_L_1_R_4.png","xmouse":[828,828,828,828,828,828,828,828,828,828,828,828,828,828,828,828,828,828,828,828,828,828,828,828,828,828,828,828,828,828,828,828,828,828,828,828,828,828,828,828,828,827,827,827,827,827,827,827,828,830,834,841,854,863,871,878,894,903,910,920,935,972,985,990,992,992,997,1001,1004,1011,1018,1028,1030,1031,1031,1031,1031,1036,1043,1051,1058,1065],"ymouse":[526,527,527,527,527,527,527,527,527,527,527,527,527,529,530,534,536,538,538,538,538,538,538,538,538,538,538,538,538,538,538,538,538,538,538,538,538,538,538,538,538,538,537,536,535,534,533,526,519,509,495,477,428,397,368,345,307,286,272,253,229,182,169,164,163,161,146,139,131,120,111,99,95,95,95,95,95,95,95,92,90,86],"timestamp_mouse":[23,49,56,76,95,116,136,156,176,197,217,236,256,277,296,316,337,357,376,397,417,436,456,477,497,517,536,557,576,597,617,637,656,677,697,717,737,756,776,797,816,836,856,877,896,916,936,956,976,997,1015,1037,1056,1076,1096,1116,1137,1156,1177,1196,1216,1238,1256,1277,1296,1317,1337,1356,1376,1396,1417,1437,1456,1476,1497,1516,1536,1557,1576,1597,1616,1636],"xSR":741.5,"ySR":469.95,"xT1":424.9,"yT1":0,"xT2":1058.1,"yT2":0,"toosoon":0,"cond_shown":"randomdotsizeEA","ratio_trial":250,"smaller_num":"1","larger_num":"4","correct_side":2,"subjID":"santiagovaldesgomez3","gender":"0","age":"10","school":"6"},{"start_time":1551794924281,"click_time":1551794925950,"finger_time":1551794925111,"fix_duration":608.0610126033565,"trial":24,"RT":830,"MT":839,"sideResp":2,"stimulus":"img/900/randomdotsizeEA/R/9_Ratio_900_L_18_R_20.png","xmouse":[819,816,816,809,808,808,808,808,808,808,808,808,808,808,806,805,802,802,802,802,802,802,802,802,802,802,802,802,802,802,802,802,802,800,798,795,791,785,768,757,744,716,696,638,613,591,572,552,526,518,514,508,505,500,498,497,497,497,497,497,497,497,497,518,546,597,662,734,867,916,955,978,1004,1027,1037,1050,1065,1082,1110,1124,1131,1136,1141,1152],"ymouse":[522,527,527,534,536,536,536,536,536,536,536,536,536,536,537,537,539,540,540,540,540,540,540,540,540,540,540,540,540,540,540,540,540,540,538,533,528,522,509,502,492,470,452,413,395,379,368,357,340,335,331,324,319,302,293,284,274,262,244,240,240,238,238,244,253,265,274,277,277,272,265,259,247,233,223,212,197,182,159,147,140,129,117,90],"timestamp_mouse":[13,38,49,69,90,110,129,150,170,189,210,230,249,270,289,309,329,350,369,390,410,430,449,470,490,509,530,550,570,590,609,630,650,670,689,709,729,749,769,789,810,830,850,868,890,909,930,950,969,989,1009,1029,1049,1069,1089,1109,1129,1149,1169,1189,1209,1229,1250,1268,1289,1309,1330,1349,1370,1389,1410,1430,1450,1469,1489,1510,1529,1550,1570,1589,1609,1629,1650,1669],"xSR":741.5,"ySR":469.95,"xT1":424.9,"yT1":0,"xT2":1058.1,"yT2":0,"toosoon":0,"cond_shown":"randomdotsizeEA","ratio_trial":900,"smaller_num":"18","larger_num":"20","correct_side":2,"subjID":"santiagovaldesgomez3","gender":"0","age":"10","school":"6"},{"start_time":1551794929076,"click_time":1551794930290,"finger_time":1551794929651,"fix_duration":842.5003359838738,"trial":25,"RT":575,"MT":639,"sideResp":2,"stimulus":"img/900/equaldotsize/L/1_Ratio_900_L_10_R_9.png","xmouse":[779,779,779,779,779,779,779,779,779,779,779,779,779,779,779,779,779,779,779,779,779,779,779,793,807,816,828,837,854,861,865,869,874,880,885,889,893,901,929,954,969,985,1000,1026,1043,1062,1074,1084,1096,1101,1101,1101,1101,1100,1099,1098,1097,1094,1088,1084,1081],"ymouse":[543,543,543,543,543,543,543,543,543,543,543,543,543,543,543,543,543,543,543,543,543,543,543,551,553,549,542,538,523,514,510,504,497,489,482,477,472,460,423,392,375,356,337,305,281,255,233,213,177,158,151,145,143,140,135,131,127,122,111,103,97],"timestamp_mouse":[22,37,54,73,94,115,135,155,174,195,215,235,255,274,295,315,335,355,373,394,415,434,454,474,494,514,535,554,575,594,614,634,654,674,694,714,735,755,775,794,814,834,854,875,894,915,934,954,976,994,1014,1035,1054,1073,1094,1115,1134,1154,1175,1194,1214],"xSR":741.5,"ySR":469.95,"xT1":424.9,"yT1":0,"xT2":1058.1,"yT2":0,"toosoon":0,"cond_shown":"equaldotsize","ratio_trial":900,"smaller_num":"9","larger_num":"10","correct_side":1,"subjID":"santiagovaldesgomez3","gender":"0","age":"10","school":"6"},{"start_time":1551794933620,"click_time":1551794934571,"finger_time":1551794934171,"fix_duration":347.4245736776301,"trial":26,"RT":551,"MT":400,"sideResp":1,"stimulus":"img/250/equaldotsize/L/2_Ratio_250_L_16_R_4.png","xmouse":[783,783,783,783,783,783,783,783,783,783,783,783,783,783,783,783,783,783,783,783,783,782,779,779,777,776,775,768,763,756,744,735,715,701,689,677,666,646,637,628,622,616,594,580,565,549,538,513],"ymouse":[559,559,559,559,559,559,559,559,559,559,559,559,559,559,555,545,538,525,520,518,515,510,501,497,494,491,486,465,449,430,399,378,331,305,287,269,255,230,217,205,198,189,158,139,119,101,83,61],"timestamp_mouse":[10,37,51,70,91,110,131,150,171,190,210,231,250,269,290,310,331,350,371,391,410,431,450,469,490,511,530,551,571,591,611,630,650,670,690,710,730,751,771,790,810,830,850,870,891,910,931,950],"xSR":741.5,"ySR":469.95,"xT1":424.9,"yT1":0,"xT2":1058.1,"yT2":0,"toosoon":0,"cond_shown":"equaldotsize","ratio_trial":250,"smaller_num":"4","larger_num":"16","correct_side":1,"subjID":"santiagovaldesgomez3","gender":"0","age":"10","school":"6"},{"start_time":1551794935622,"click_time":1551794936971,"finger_time":1551794936290,"fix_duration":250,"trial":27,"RT":668,"MT":681,"sideResp":2,"stimulus":"img/250/randomdotsizeEA/R/12_Ratio_250_L_5_R_20.png","xmouse":[786,786,786,786,786,786,786,786,786,786,786,786,786,786,786,786,786,786,786,786,786,786,786,786,786,786,786,786,786,786,786,786,821,855,896,933,960,995,1015,1029,1047,1070,1103,1183,1211,1229,1236,1242,1249,1251,1251,1252,1248,1243,1240,1237,1234,1222,1211,1206,1200,1194,1190,1182,1175,1166,1161,1154],"ymouse":[547,547,547,547,547,547,547,547,547,547,547,547,547,547,547,547,547,547,547,547,547,547,547,547,547,547,547,547,547,547,547,548,539,526,507,487,469,439,413,393,371,346,316,260,244,232,227,221,206,196,188,178,163,153,149,143,138,124,113,109,105,101,97,91,86,78,71,61],"timestamp_mouse":[9,45,48,68,88,109,128,148,169,188,209,229,248,269,289,308,328,349,368,389,409,428,449,469,489,509,528,547,569,589,608,628,648,668,689,708,729,748,768,789,808,829,848,867,888,908,927,948,968,988,1009,1029,1049,1067,1089,1108,1128,1148,1168,1188,1209,1229,1248,1268,1289,1308,1328,1349],"xSR":741.5,"ySR":469.95,"xT1":424.9,"yT1":0,"xT2":1058.1,"yT2":0,"toosoon":0,"cond_shown":"randomdotsizeEA","ratio_trial":250,"smaller_num":"5","larger_num":"20","correct_side":2,"subjID":"santiagovaldesgomez3","gender":"0","age":"10","school":"6"},{"start_time":1551794937974,"click_time":1551794939090,"finger_time":1551794938710,"fix_duration":302.850370569992,"trial":28,"RT":736,"MT":380,"sideResp":2,"stimulus":"img/250/equaldotsize/R/13_Ratio_250_L_2_R_8.png","xmouse":[798,798,798,798,798,798,798,798,798,798,798,798,798,798,798,798,798,798,798,798,798,798,798,798,798,798,798,798,798,798,798,798,803,813,822,840,852,865,880,906,997,1029,1053,1073,1096,1102,1106,1107,1107,1107,1107,1107,1107,1108,1118,1124],"ymouse":[555,555,555,555,555,555,555,555,555,555,555,555,555,555,555,555,555,555,555,555,555,555,555,555,555,555,555,555,555,555,555,555,551,544,540,528,520,511,491,448,314,277,252,232,202,192,186,184,184,184,184,184,182,176,127,84],"timestamp_mouse":[29,36,57,76,96,116,136,157,177,196,217,237,257,277,296,317,336,357,376,396,417,435,457,476,497,517,536,557,576,596,617,636,657,676,696,716,736,757,776,797,816,836,857,877,897,915,936,957,976,997,1016,1037,1056,1077,1098,1116],"xSR":741.5,"ySR":469.95,"xT1":424.9,"yT1":0,"xT2":1058.1,"yT2":0,"toosoon":0,"cond_shown":"equaldotsize","ratio_trial":250,"smaller_num":"2","larger_num":"8","correct_side":2,"subjID":"santiagovaldesgomez3","gender":"0","age":"10","school":"6"},{"start_time":1551794941263,"click_time":1551794942249,"finger_time":1551794941910,"fix_duration":252.07258895174533,"trial":29,"RT":647,"MT":339,"sideResp":2,"stimulus":"img/250/equaldotsize/R/6_Ratio_250_L_6_R_24.png","xmouse":[806,806,806,806,806,806,806,806,806,806,806,806,806,806,805,805,804,804,804,804,804,804,804,804,804,804,804,804,806,810,818,838,851,867,887,898,920,937,956,973,989,1007,1011,1017,1025,1037,1060,1070,1077,1082],"ymouse":[543,543,543,543,543,543,543,543,543,543,543,543,543,543,540,533,530,528,527,527,527,527,527,527,527,527,527,527,524,522,519,508,497,482,458,440,392,354,313,280,253,225,215,202,186,159,122,110,103,97],"timestamp_mouse":[13,42,46,67,87,107,125,147,166,186,207,226,247,266,287,306,325,346,366,386,405,426,447,465,486,506,527,546,566,586,606,626,647,665,687,706,726,746,766,786,806,826,847,866,887,906,925,947,966,986],"xSR":741.5,"ySR":469.95,"xT1":424.9,"yT1":0,"xT2":1058.1,"yT2":0,"toosoon":0,"cond_shown":"equaldotsize","ratio_trial":250,"smaller_num":"6","larger_num":"24","correct_side":2,"subjID":"santiagovaldesgomez3","gender":"0","age":"10","school":"6"},{"start_time":1551794943812,"click_time":1551794945409,"finger_time":1551794944368,"fix_duration":602.8857517347585,"trial":30,"RT":556,"MT":1041,"sideResp":1,"stimulus":"img/900/equaldotanddens/L/4_Ratio_900_L_20_R_18.png","xmouse":[793,793,793,793,793,793,793,793,793,793,793,793,793,793,793,793,793,793,793,793,793,793,793,798,806,819,840,849,862,865,865,865,866,870,874,877,884,887,889,889,889,889,889,889,888,876,866,852,822,814,809,803,797,770,754,732,715,700,673,660,647,637,630,617,607,590,577,567,551,544,539,531,520,502,493,486,485,485,485,482],"ymouse":[532,532,532,532,532,532,532,532,532,532,532,532,532,532,532,532,532,532,532,532,532,532,532,531,527,521,508,502,497,495,494,494,494,492,489,486,480,478,474,474,474,474,474,474,475,480,485,491,499,500,500,499,496,474,457,425,399,374,332,313,296,281,273,257,245,229,218,212,197,190,183,171,156,129,117,107,106,106,103,96],"timestamp_mouse":[16,40,56,77,97,116,138,158,177,197,218,237,257,276,296,318,337,357,378,397,417,438,457,477,497,516,538,556,578,597,617,637,658,677,698,717,737,758,777,798,816,837,857,877,898,916,937,958,977,997,1017,1038,1057,1077,1097,1117,1137,1157,1178,1197,1217,1238,1257,1278,1298,1318,1337,1358,1377,1398,1417,1437,1457,1477,1497,1517,1537,1557,1577,1597],"xSR":741.5,"ySR":469.95,"xT1":424.9,"yT1":0,"xT2":1058.1,"yT2":0,"toosoon":0,"cond_shown":"equaldotanddens","ratio_trial":900,"smaller_num":"18","larger_num":"20","correct_side":1,"subjID":"santiagovaldesgomez3","gender":"0","age":"10","school":"6"},{"start_time":1551794948283,"click_time":1551794949409,"finger_time":1551794949049,"fix_duration":250,"trial":31,"RT":766,"MT":360,"sideResp":1,"stimulus":"img/500/equaldotsize/L/5_Ratio_500_L_4_R_2.png","xmouse":[776,776,776,776,776,776,776,776,776,776,776,776,776,776,776,776,776,776,776,776,776,776,776,776,776,776,776,776,776,776,776,776,776,776,776,774,762,747,728,693,681,631,616,602,589,570,562,550,539,529,526,524,520,516,511,499,493],"ymouse":[554,554,554,554,554,554,554,554,554,554,554,554,554,554,554,554,554,554,554,554,554,554,554,554,554,554,554,554,554,554,554,554,554,554,554,546,529,508,483,444,431,387,371,354,334,295,273,249,228,209,198,189,178,162,147,105,83],"timestamp_mouse":[10,42,46,65,86,107,127,147,167,185,207,227,246,266,287,306,326,346,365,387,407,427,447,465,487,507,525,546,565,587,607,627,646,667,686,707,726,747,766,786,806,826,846,866,886,907,926,946,966,986,1007,1026,1046,1066,1086,1108,1126],"xSR":741.5,"ySR":469.95,"xT1":424.9,"yT1":0,"xT2":1058.1,"yT2":0,"toosoon":0,"cond_shown":"equaldotsize","ratio_trial":500,"smaller_num":"2","larger_num":"4","correct_side":1,"subjID":"santiagovaldesgomez3","gender":"0","age":"10","school":"6"},{"start_time":1551794952387,"click_time":1551794953909,"finger_time":1551794953329,"fix_duration":676.1753308813579,"trial":32,"RT":942,"MT":580,"sideResp":1,"stimulus":"img/750/randomdotsizeEA/L/13_Ratio_750_L_8_R_6.png","xmouse":[787,787,787,787,787,787,787,787,787,787,787,787,787,787,787,787,787,787,787,787,787,787,787,787,787,787,787,787,787,787,787,787,787,787,787,787,787,787,787,787,787,787,787,787,783,774,760,750,738,726,717,703,696,688,679,674,657,648,636,623,612,592,584,572,565,558,542,539,537,534,530,522,520,518,516,515,514],"ymouse":[553,553,553,553,553,553,553,553,553,553,553,553,553,553,553,553,553,553,553,553,553,553,553,553,553,553,553,553,553,553,553,553,553,553,553,553,553,553,553,553,553,553,553,551,536,515,471,441,414,388,366,338,327,317,304,297,276,265,250,237,224,206,199,187,179,168,146,142,139,135,128,115,110,107,102,100,99],"timestamp_mouse":[13,35,43,63,82,101,121,142,162,183,203,221,242,263,282,302,322,341,362,382,403,423,442,462,482,502,522,542,563,582,602,622,643,662,682,701,721,742,763,782,802,821,842,862,882,902,922,942,962,982,1003,1022,1043,1062,1083,1103,1122,1142,1162,1183,1202,1221,1241,1262,1282,1302,1322,1341,1362,1382,1403,1422,1441,1462,1482,1503,1522],"xSR":741.5,"ySR":469.95,"xT1":424.9,"yT1":0,"xT2":1058.1,"yT2":0,"toosoon":0,"cond_shown":"randomdotsizeEA","ratio_trial":750,"smaller_num":"6","larger_num":"8","correct_side":1,"subjID":"santiagovaldesgomez3","gender":"0","age":"10","school":"6"},{"start_time":1551794956725,"click_time":1551794958111,"finger_time":1551794957649,"fix_duration":694.843433475361,"trial":33,"RT":924,"MT":462,"sideResp":1,"stimulus":"img/750/randomdotsizeEA/R/2_Ratio_750_L_6_R_8.png","xmouse":[782,782,782,782,782,782,782,782,782,782,782,782,782,782,782,782,782,782,782,782,782,782,782,782,782,782,782,782,782,782,782,782,782,782,782,782,782,782,782,782,782,781,779,776,772,754,741,727,711,691,652,633,617,605,593,575,571,565,560,556,549,545,539,533,507,505,500,494,488,480],"ymouse":[540,540,540,540,540,540,540,540,540,540,540,540,540,540,540,540,540,540,540,540,540,540,540,540,540,540,540,540,540,540,540,540,540,540,540,540,540,539,536,535,531,529,526,520,515,490,475,457,432,400,327,295,262,240,220,191,186,180,176,172,165,160,156,149,128,126,121,114,106,95],"timestamp_mouse":[19,40,44,64,84,103,125,143,164,184,205,224,245,264,283,303,325,344,363,384,405,423,445,465,483,503,525,544,564,583,605,625,643,664,684,704,725,744,764,784,804,825,845,864,884,904,924,945,965,984,1004,1024,1044,1064,1085,1104,1124,1145,1164,1184,1203,1224,1244,1264,1286,1303,1325,1343,1365,1384],"xSR":741.5,"ySR":469.95,"xT1":424.9,"yT1":0,"xT2":1058.1,"yT2":0,"toosoon":0,"cond_shown":"randomdotsizeEA","ratio_trial":750,"smaller_num":"6","larger_num":"8","correct_side":2,"subjID":"santiagovaldesgomez3","gender":"0","age":"10","school":"6"},{"start_time":1551794961141,"click_time":1551794962369,"finger_time":1551794961829,"fix_duration":330.0906301931672,"trial":34,"RT":688,"MT":540,"sideResp":2,"stimulus":"img/250/equaldotanddens/R/9_Ratio_250_L_3_R_12.png","xmouse":[781,781,781,781,781,781,781,781,781,781,781,781,781,781,781,781,781,781,781,781,781,781,781,781,781,781,781,781,781,781,781,782,788,796,820,830,837,842,847,855,858,859,860,864,884,902,931,974,1025,1100,1120,1136,1139,1142,1143,1143,1143,1143,1142,1140,1140,1139],"ymouse":[546,546,546,546,546,546,546,546,546,546,546,546,546,546,546,546,546,546,546,546,546,546,546,546,546,546,546,546,546,546,546,541,529,511,465,445,426,410,395,367,355,351,346,335,296,274,249,221,192,160,151,141,137,132,116,111,108,106,103,100,100,97],"timestamp_mouse":[12,35,48,68,88,108,129,148,169,188,209,229,248,269,289,309,329,349,369,388,409,429,448,469,488,508,529,549,568,587,608,628,649,668,688,708,728,748,769,789,808,828,848,868,888,908,928,948,969,989,1008,1028,1047,1067,1088,1108,1128,1148,1168,1188,1209,1228],"xSR":741.5,"ySR":469.95,"xT1":424.9,"yT1":0,"xT2":1058.1,"yT2":0,"toosoon":0,"cond_shown":"equaldotanddens","ratio_trial":250,"smaller_num":"3","larger_num":"12","correct_side":2,"subjID":"santiagovaldesgomez3","gender":"0","age":"10","school":"6"},{"start_time":1551794964619,"click_time":1551794966010,"finger_time":1551794965550,"fix_duration":1028.5218810822773,"trial":35,"RT":931,"MT":460,"sideResp":2,"stimulus":"img/900/equaldotsize/R/12_Ratio_900_L_18_R_20.png","xmouse":[776,776,776,776,776,776,776,776,776,776,776,776,776,776,776,776,776,776,776,776,776,776,776,776,776,776,776,776,776,776,776,776,776,776,776,776,776,776,776,776,776,779,781,786,795,832,892,934,980,1026,1067,1133,1155,1172,1185,1207,1215,1224,1234,1234,1234,1234,1234,1234,1234,1234,1234,1202,1171,1147],"ymouse":[523,523,523,523,523,523,523,523,523,523,523,523,523,523,523,523,523,523,523,523,523,523,523,523,523,523,523,523,523,523,523,523,523,523,522,522,522,522,522,522,518,511,508,503,498,485,460,436,406,365,319,228,188,155,125,69,48,26,2,2,2,2,2,2,2,2,2,31,67,87],"timestamp_mouse":[12,37,50,71,89,109,131,150,170,189,211,230,250,269,291,311,331,351,370,391,410,429,451,470,490,510,531,550,571,590,611,629,649,670,691,711,730,751,771,790,810,830,851,870,891,910,931,950,970,990,1012,1029,1050,1070,1090,1112,1129,1150,1170,1190,1211,1231,1250,1270,1291,1310,1329,1350,1370,1391],"xSR":741.5,"ySR":469.95,"xT1":424.9,"yT1":0,"xT2":1058.1,"yT2":0,"toosoon":0,"cond_shown":"equaldotsize","ratio_trial":900,"smaller_num":"18","larger_num":"20","correct_side":2,"subjID":"santiagovaldesgomez3","gender":"0","age":"10","school":"6"},{"start_time":1551794968008,"click_time":1551794969909,"finger_time":1551794968969,"fix_duration":536.3879438980551,"trial":36,"RT":961,"MT":940,"sideResp":1,"stimulus":"img/750/equaldotanddens/R/2_Ratio_750_L_6_R_8.png","xmouse":[805,805,805,805,805,805,805,805,805,805,805,805,805,805,805,805,805,805,805,805,805,805,805,805,805,805,805,805,805,805,805,805,805,805,805,805,805,805,805,805,805,805,805,805,805,805,810,829,840,851,858,860,861,861,861,861,860,846,826,789,719,627,402,294,204,168,168,168,168,168,168,168,168,168,168,168,168,168,168,168,168,168,168,168,168,168,168,168,168,168,275,284,315,340,416,482],"ymouse":[534,534,534,534,534,534,534,534,534,534,534,534,534,534,534,534,534,534,534,534,534,534,534,534,534,534,534,534,534,534,534,534,534,534,534,534,534,534,534,534,534,534,534,534,534,532,518,483,463,445,432,425,418,417,416,415,412,403,393,377,348,305,171,94,30,4,4,4,4,4,4,4,4,4,4,4,4,4,4,4,4,4,4,4,4,4,4,4,4,4,3,7,19,30,50,63],"timestamp_mouse":[10,22,42,60,82,101,122,141,162,180,201,221,240,262,282,301,322,341,361,380,402,422,442,462,482,502,521,540,562,582,601,621,640,661,682,702,721,741,762,781,801,820,842,861,882,902,921,941,961,982,1002,1022,1041,1061,1081,1101,1121,1141,1161,1181,1201,1222,1241,1262,1281,1301,1321,1342,1361,1382,1401,1421,1441,1461,1481,1501,1521,1541,1562,1580,1601,1620,1642,1660,1681,1701,1721,1742,1761,1781,1801,1820,1841,1862,1881,1901],"xSR":741.5,"ySR":469.95,"xT1":424.9,"yT1":0,"xT2":1058.1,"yT2":0,"toosoon":0,"cond_shown":"equaldotanddens","ratio_trial":750,"smaller_num":"6","larger_num":"8","correct_side":2,"subjID":"santiagovaldesgomez3","gender":"0","age":"10","school":"6"},{"start_time":1551794972888,"click_time":1551794973889,"finger_time":1551794973470,"fix_duration":998.4480801939848,"trial":37,"RT":582,"MT":419,"sideResp":1,"stimulus":"img/500/randomdotsizeEA/R/2_Ratio_500_L_3_R_6.png","xmouse":[797,797,797,797,797,797,797,797,797,797,797,797,797,797,797,797,797,797,797,797,797,797,797,797,797,797,796,796,790,769,760,748,735,717,706,697,690,683,676,656,640,621,603,588,559,546,536,522,510,482,474],"ymouse":[509,509,509,509,509,509,509,509,509,509,509,509,509,509,509,509,509,509,509,509,509,509,509,509,509,509,508,504,492,457,441,425,411,393,383,375,366,356,344,296,266,232,207,188,165,158,151,140,129,101,91],"timestamp_mouse":[12,21,42,62,81,102,120,142,161,181,202,222,241,260,282,302,321,342,360,382,402,421,441,461,482,501,521,542,561,582,601,621,640,662,681,701,721,741,762,781,801,821,841,861,881,902,922,941,961,982,1001],"xSR":741.5,"ySR":469.95,"xT1":424.9,"yT1":0,"xT2":1058.1,"yT2":0,"toosoon":0,"cond_shown":"randomdotsizeEA","ratio_trial":500,"smaller_num":"3","larger_num":"6","correct_side":2,"subjID":"santiagovaldesgomez3","gender":"0","age":"10","school":"6"},{"start_time":1551794976352,"click_time":1551794977449,"finger_time":1551794977130,"fix_duration":1401.8762325942946,"trial":38,"RT":778,"MT":319,"sideResp":1,"stimulus":"img/250/randomdotsizeEA/R/4_Ratio_250_L_3_R_12.png","xmouse":[784,787,787,788,789,790,790,790,790,791,791,791,791,791,791,791,791,792,794,797,799,800,802,804,810,814,816,816,816,816,816,816,816,816,816,809,797,786,770,752,710,681,671,644,628,610,601,593,585,576,546,528,499,476,457],"ymouse":[541,542,542,542,542,543,543,543,543,543,543,543,543,543,543,543,543,543,543,543,541,540,536,535,526,520,518,517,517,517,517,517,517,517,516,510,497,485,465,438,380,343,329,298,282,263,252,243,233,221,186,166,130,103,80],"timestamp_mouse":[18,48,58,76,98,118,137,158,177,196,217,237,256,278,296,316,338,357,378,398,417,438,457,476,497,517,537,557,576,597,618,637,657,677,697,717,737,757,778,798,817,837,858,877,898,917,938,957,977,997,1017,1037,1056,1077,1097],"xSR":741.5,"ySR":469.95,"xT1":424.9,"yT1":0,"xT2":1058.1,"yT2":0,"toosoon":0,"cond_shown":"randomdotsizeEA","ratio_trial":250,"smaller_num":"3","larger_num":"12","correct_side":2,"subjID":"santiagovaldesgomez3","gender":"0","age":"10","school":"6"},{"start_time":1551794984558,"click_time":1551794985790,"finger_time":1551794985370,"fix_duration":1227.7912673249236,"trial":39,"RT":812,"MT":420,"sideResp":2,"stimulus":"img/900/equaldotanddens/L/2_Ratio_900_L_20_R_18.png","xmouse":[793,793,793,793,793,793,793,793,793,793,793,793,793,793,793,793,793,793,793,793,793,793,793,793,793,793,793,793,793,793,793,793,793,793,793,793,793,793,793,795,800,842,910,978,1045,1111,1224,1255,1266,1265,1257,1252,1252,1252,1252,1252,1252,1252,1252,1252,1252,1114],"ymouse":[516,516,516,516,516,516,516,516,516,516,516,516,516,516,516,516,516,516,516,516,516,516,516,516,516,516,516,516,516,516,516,516,516,516,516,516,516,505,490,474,463,427,396,362,325,275,166,115,77,37,15,4,4,4,4,4,4,4,4,4,4,64],"timestamp_mouse":[11,42,51,71,91,112,132,152,172,192,211,232,252,271,292,312,332,350,372,391,412,432,451,471,491,512,531,552,572,592,612,632,651,672,692,712,731,751,771,792,812,831,851,871,891,911,931,951,971,992,1011,1031,1051,1071,1091,1112,1132,1152,1171,1192,1211,1232],"xSR":741.5,"ySR":469.95,"xT1":424.9,"yT1":0,"xT2":1058.1,"yT2":0,"toosoon":0,"cond_shown":"equaldotanddens","ratio_trial":900,"smaller_num":"18","larger_num":"20","correct_side":1,"subjID":"santiagovaldesgomez3","gender":"0","age":"10","school":"6"},{"start_time":1551794992048,"click_time":1551794993509,"finger_time":1551794992790,"fix_duration":1178.8128977332788,"trial":40,"RT":742,"MT":719,"sideResp":1,"stimulus":"img/750/equaldotsize/L/6_Ratio_750_L_24_R_18.png","xmouse":[805,805,805,805,805,805,805,805,805,805,805,805,805,805,805,805,805,805,805,805,805,805,805,805,805,805,805,805,805,805,805,805,805,805,799,783,764,712,680,648,612,580,501,470,447,432,418,405,384,377,371,366,358,345,341,338,336,335,335,335,336,336,336,336,337,341,347,355,364,368,375,387,409,434],"ymouse":[538,538,538,538,538,538,538,538,538,538,538,538,538,538,538,538,538,538,538,538,538,538,538,538,538,538,538,538,538,538,538,538,538,538,535,525,517,492,475,455,429,401,335,313,299,291,283,275,265,261,257,251,239,211,193,174,152,108,87,72,64,62,62,62,62,65,70,74,77,77,77,74,66,55],"timestamp_mouse":[10,21,46,61,81,102,120,141,161,182,200,222,242,261,280,301,321,342,362,382,402,422,442,462,481,502,522,542,562,582,601,621,642,661,681,701,721,742,762,781,801,821,842,861,881,900,921,942,960,981,1001,1021,1041,1061,1081,1101,1121,1143,1161,1182,1201,1222,1242,1261,1281,1301,1321,1341,1360,1382,1402,1421,1441,1460],"xSR":741.5,"ySR":469.95,"xT1":424.9,"yT1":0,"xT2":1058.1,"yT2":0,"toosoon":0,"cond_shown":"equaldotsize","ratio_trial":750,"smaller_num":"18","larger_num":"24","correct_side":1,"subjID":"santiagovaldesgomez3","gender":"0","age":"10","school":"6"},{"start_time":1551794995036,"click_time":1551794996550,"finger_time":1551794995830,"fix_duration":285.74100296505645,"trial":41,"RT":794,"MT":720,"sideResp":1,"stimulus":"img/750/equaldotanddens/L/6_Ratio_750_L_24_R_18.png","xmouse":[796,794,794,792,792,792,792,792,792,792,792,792,792,792,792,792,792,792,792,792,792,792,792,792,792,792,792,792,792,792,792,792,792,792,792,792,792,788,753,720,683,631,597,533,512,494,482,477,466,462,455,452,449,442,438,433,430,428,425,424,424,424,424,423,422,422,422,422,423,423,423,423,423,423,423,425],"ymouse":[530,530,530,530,530,530,530,530,530,530,530,530,530,530,530,530,530,530,530,530,530,530,530,530,530,530,530,530,530,530,530,530,530,530,530,530,530,530,501,470,434,373,341,289,273,260,253,249,240,236,229,225,220,204,194,179,167,158,141,136,133,130,128,121,115,110,106,104,100,99,98,98,98,98,98,96],"timestamp_mouse":[15,38,53,72,92,114,134,153,174,194,213,233,252,273,293,313,333,352,374,394,414,433,454,474,493,514,535,553,573,593,613,633,653,673,693,712,733,753,773,794,813,833,852,874,893,913,934,954,973,994,1014,1033,1053,1074,1093,1113,1133,1153,1173,1194,1212,1232,1254,1273,1293,1314,1334,1354,1373,1394,1413,1433,1453,1474,1493,1513],"xSR":741.5,"ySR":469.95,"xT1":424.9,"yT1":0,"xT2":1058.1,"yT2":0,"toosoon":0,"cond_shown":"equaldotanddens","ratio_trial":750,"smaller_num":"18","larger_num":"24","correct_side":1,"subjID":"santiagovaldesgomez3","gender":"0","age":"10","school":"6"},{"start_time":1551794998721,"click_time":1551795000189,"finger_time":1551794999529,"fix_duration":1069.8695737992712,"trial":42,"RT":808,"MT":660,"sideResp":2,"stimulus":"img/250/randomdotsizeEA/R/9_Ratio_250_L_3_R_12.png","xmouse":[781,781,781,781,781,781,781,781,781,781,781,781,781,781,781,781,781,781,781,781,781,781,781,781,781,781,781,781,781,781,781,781,781,781,785,797,803,812,818,822,829,831,837,843,853,859,862,865,868,881,890,900,910,921,954,964,971,977,980,988,990,993,995,998,1004,1005,1006,1008,1013,1018,1032,1040,1045,1064],"ymouse":[539,539,539,539,539,539,539,539,539,539,539,539,539,539,539,539,539,539,539,539,539,539,539,539,539,539,539,539,539,539,539,539,539,538,529,511,503,494,489,485,467,456,438,415,380,362,350,340,330,298,281,262,241,219,158,143,126,114,108,92,88,84,80,77,72,72,72,72,72,72,75,79,81,85],"timestamp_mouse":[15,40,49,68,88,108,128,147,169,188,209,227,249,267,289,309,329,348,368,388,409,428,448,468,487,509,529,549,568,588,608,628,648,669,688,708,728,749,768,788,808,828,848,868,889,907,928,949,968,989,1008,1028,1048,1069,1089,1108,1128,1149,1167,1189,1208,1228,1248,1267,1290,1308,1327,1349,1367,1388,1408,1428,1448,1467],"xSR":741.5,"ySR":469.95,"xT1":424.9,"yT1":0,"xT2":1058.1,"yT2":0,"toosoon":0,"cond_shown":"randomdotsizeEA","ratio_trial":250,"smaller_num":"3","larger_num":"12","correct_side":2,"subjID":"santiagovaldesgomez3","gender":"0","age":"10","school":"6"},{"start_time":1551795001761,"click_time":1551795002969,"finger_time":1551795002628,"fix_duration":250,"trial":43,"RT":867,"MT":341,"sideResp":2,"stimulus":"img/750/randomdotsizeEA/L/10_Ratio_750_L_4_R_3.png","xmouse":[748,748,748,750,751,753,754,757,759,763,768,770,771,772,772,772,772,772,772,774,776,776,776,776,776,776,776,776,776,776,776,776,776,776,776,776,776,776,776,779,782,797,810,845,859,871,881,892,910,918,944,956,1012,1026,1033,1038,1042,1045,1063,1076,1094],"ymouse":[520,520,520,522,523,525,526,529,531,533,535,536,537,537,537,537,537,537,537,537,537,537,537,537,537,537,537,537,536,536,536,536,536,536,536,536,536,536,536,528,522,492,471,422,402,386,372,357,332,316,271,245,173,161,154,145,141,136,115,103,90],"timestamp_mouse":[15,33,46,67,87,107,127,148,166,187,207,228,247,268,287,308,327,347,368,388,408,428,447,467,487,506,528,546,567,587,607,628,647,667,688,707,727,748,767,788,806,828,847,867,888,907,927,948,967,987,1007,1027,1049,1067,1087,1107,1128,1148,1166,1188,1208],"xSR":741.5,"ySR":469.95,"xT1":424.9,"yT1":0,"xT2":1058.1,"yT2":0,"toosoon":0,"cond_shown":"randomdotsizeEA","ratio_trial":750,"smaller_num":"3","larger_num":"4","correct_side":1,"subjID":"santiagovaldesgomez3","gender":"0","age":"10","school":"6"},{"start_time":1551795005207,"click_time":1551795006148,"finger_time":1551795005688,"fix_duration":1418.9197437329979,"trial":44,"RT":481,"MT":460,"sideResp":1,"stimulus":"img/500/equaldotanddens/L/7_Ratio_500_L_10_R_5.png","xmouse":[785,785,785,785,785,785,785,785,785,785,785,785,785,785,785,785,785,785,785,785,785,785,776,753,729,700,676,630,614,586,550,434,374,326,295,273,253,252,252,252,252,252,258,271,287,314,388,435],"ymouse":[526,526,526,526,526,526,526,526,526,526,526,526,526,526,526,526,526,526,526,526,526,526,516,499,480,452,423,359,341,311,271,171,131,102,83,68,37,23,18,17,17,16,14,15,19,29,53,64],"timestamp_mouse":[1,33,41,61,81,101,122,141,162,182,200,221,242,261,281,301,321,342,361,381,401,422,441,460,481,502,521,541,561,581,602,621,640,660,681,702,733,741,760,781,801,821,840,860,882,902,921,941],"xSR":741.5,"ySR":469.95,"xT1":424.9,"yT1":0,"xT2":1058.1,"yT2":0,"toosoon":0,"cond_shown":"equaldotanddens","ratio_trial":500,"smaller_num":"5","larger_num":"10","correct_side":1,"subjID":"santiagovaldesgomez3","gender":"0","age":"10","school":"6"},{"start_time":1551795007933,"click_time":1551795009269,"finger_time":1551795008328,"fix_duration":384.9276829709791,"trial":45,"RT":395,"MT":941,"sideResp":2,"stimulus":"img/900/equaldotsize/R/12_Ratio_900_L_18_R_20.png","xmouse":[802,802,802,802,802,802,801,799,799,798,798,798,796,795,789,788,785,784,782,782,782,785,787,787,779,772,768,762,757,756,764,778,810,876,962,1114,1150,1171,1179,1185,1186,1188,1190,1196,1218,1230,1236,1239,1241,1241,1239,1233,1226,1220,1211,1202,1191,1186,1182,1176,1176,1176,1175,1175,1168,1160,1148],"ymouse":[535,535,535,535,535,535,536,536,535,535,534,533,530,523,508,502,493,486,477,459,435,410,382,353,309,299,294,288,284,277,251,237,222,199,177,133,123,114,109,102,95,89,85,76,60,55,51,49,48,48,47,47,47,48,51,56,63,66,67,68,68,68,68,68,73,77,83],"timestamp_mouse":[16,45,55,75,95,115,135,155,175,194,215,235,255,276,296,315,335,356,376,395,414,435,455,475,496,514,535,555,575,595,615,635,655,676,695,714,736,755,776,796,814,834,855,874,896,914,935,955,976,995,1015,1035,1056,1075,1096,1114,1134,1156,1174,1195,1214,1235,1256,1275,1296,1315,1336],"xSR":741.5,"ySR":469.95,"xT1":424.9,"yT1":0,"xT2":1058.1,"yT2":0,"toosoon":0,"cond_shown":"equaldotsize","ratio_trial":900,"smaller_num":"18","larger_num":"20","correct_side":2,"subjID":"santiagovaldesgomez3","gender":"0","age":"10","school":"6"},{"start_time":1551795011724,"click_time":1551795012648,"finger_time":1551795012168,"fix_duration":313.63404467290326,"trial":46,"RT":444,"MT":480,"sideResp":2,"stimulus":"img/900/equaldotsize/L/8_Ratio_900_L_20_R_18.png","xmouse":[763,763,763,763,763,763,763,763,763,763,763,763,763,763,763,763,763,762,760,753,748,742,741,740,740,740,740,740,740,744,756,783,800,819,845,873,912,951,959,986,1003,1037,1053,1067,1079,1091,1107],"ymouse":[532,532,532,532,532,532,532,532,532,532,532,532,532,532,532,532,532,529,524,508,498,485,483,479,472,465,456,450,440,429,412,385,368,350,325,296,254,220,212,189,177,156,146,135,124,113,99],"timestamp_mouse":[13,37,45,64,85,103,125,143,164,185,204,225,244,263,284,303,324,345,365,384,404,424,444,464,483,504,524,545,564,584,604,623,644,665,684,703,724,743,764,784,804,824,843,864,885,904,924],"xSR":741.5,"ySR":469.95,"xT1":424.9,"yT1":0,"xT2":1058.1,"yT2":0,"toosoon":0,"cond_shown":"equaldotsize","ratio_trial":900,"smaller_num":"18","larger_num":"20","correct_side":1,"subjID":"santiagovaldesgomez3","gender":"0","age":"10","school":"6"},{"start_time":1551795014043,"click_time":1551795015128,"finger_time":1551795014348,"fix_duration":433.0889108388263,"trial":47,"RT":305,"MT":780,"sideResp":1,"stimulus":"img/900/equaldotsize/R/11_Ratio_900_L_18_R_20.png","xmouse":[789,789,789,789,789,789,789,789,789,789,789,789,788,783,777,750,727,702,682,662,635,623,618,611,603,590,585,581,577,573,561,555,554,553,550,548,546,542,537,532,527,525,525,525,525,525,525,525,525,525,525,525,525,525,524],"ymouse":[505,505,505,505,505,505,505,505,504,504,504,504,500,491,476,412,353,296,264,240,205,189,179,167,156,138,133,127,120,116,97,88,86,84,80,77,73,68,62,55,48,46,46,46,46,46,46,46,46,46,46,46,51,55,58],"timestamp_mouse":[11,24,45,65,85,106,126,144,165,186,206,226,244,266,285,305,325,345,365,386,405,424,445,466,485,505,525,545,564,585,605,625,645,665,686,705,724,746,765,785,805,824,845,865,886,905,924,945,966,985,1004,1024,1044,1066,1084],"xSR":741.5,"ySR":469.95,"xT1":424.9,"yT1":0,"xT2":1058.1,"yT2":0,"toosoon":0,"cond_shown":"equaldotsize","ratio_trial":900,"smaller_num":"18","larger_num":"20","correct_side":2,"subjID":"santiagovaldesgomez3","gender":"0","age":"10","school":"6"},{"start_time":1551795017319,"click_time":1551795017867,"finger_time":1551795017357,"fix_duration":1248.079179854209,"trial":48,"RT":38,"MT":510,"sideResp":1,"stimulus":"img/750/equaldotanddens/L/10_Ratio_750_L_4_R_3.png","xmouse":[750,747,738,735,732,724,715,680,656,633,604,575,550,548,547,546,545,542,540,537,534,533,528,525,521,513,499,487],"ymouse":[473,468,453,446,437,424,408,351,317,284,243,204,173,171,170,169,168,163,158,154,150,148,141,137,132,124,108,90],"timestamp_mouse":[10,38,50,70,90,109,129,149,170,189,209,229,249,268,288,308,328,348,369,388,408,428,448,468,488,508,528,548],"xSR":741.5,"ySR":469.95,"xT1":424.9,"yT1":0,"xT2":1058.1,"yT2":0,"toosoon":0,"cond_shown":"equaldotanddens","ratio_trial":750,"smaller_num":"3","larger_num":"4","correct_side":1,"subjID":"santiagovaldesgomez3","gender":"0","age":"10","school":"6"},{"start_time":1551795020293,"click_time":1551795021647,"finger_time":1551795020968,"fix_duration":1443.639352826566,"trial":49,"RT":675,"MT":679,"sideResp":2,"stimulus":"img/750/randomdotsizeEA/R/11_Ratio_750_L_12_R_16.png","xmouse":[773,773,773,773,773,773,773,773,773,773,773,773,773,773,773,773,773,773,773,773,773,773,773,773,773,773,773,773,773,779,791,807,819,832,834,837,840,844,851,857,869,882,895,911,918,929,952,967,1000,1019,1034,1046,1056,1067,1067,1067,1067,1067,1067,1067,1067,1067,1067,1065,1065,1064,1062,1062],"ymouse":[517,517,517,517,517,517,517,517,517,517,517,517,517,517,517,517,517,517,517,517,517,517,517,517,517,517,517,517,517,513,498,483,470,452,445,440,433,424,407,393,377,361,345,317,303,289,272,261,238,224,210,197,184,168,165,163,160,156,147,144,140,137,133,124,119,112,105,98],"timestamp_mouse":[16,44,55,76,95,116,134,154,175,195,215,235,256,276,296,315,335,356,375,395,416,436,455,476,496,515,536,555,576,595,615,636,655,675,695,715,734,756,775,795,815,835,856,875,895,915,936,955,976,995,1014,1035,1054,1075,1096,1115,1136,1156,1175,1195,1216,1235,1255,1275,1295,1315,1335,1354],"xSR":741.5,"ySR":469.95,"xT1":424.9,"yT1":0,"xT2":1058.1,"yT2":0,"toosoon":0,"cond_shown":"randomdotsizeEA","ratio_trial":750,"smaller_num":"12","larger_num":"16","correct_side":2,"subjID":"santiagovaldesgomez3","gender":"0","age":"10","school":"6"},{"start_time":1551795024367,"click_time":1551795025668,"finger_time":1551795024988,"fix_duration":598.7175243533604,"trial":50,"RT":621,"MT":680,"sideResp":1,"stimulus":"img/900/equaldotanddens/L/1_Ratio_900_L_10_R_9.png","xmouse":[793,793,793,793,793,793,793,793,793,793,793,793,793,793,793,793,793,793,793,793,793,793,793,797,801,818,820,820,820,820,819,804,774,722,644,457,373,295,242,217,217,217,217,217,217,217,217,217,217,217,217,217,217,217,217,217,217,217,319,337,362,390,402,415,424,433],"ymouse":[541,541,541,541,541,541,541,541,541,541,541,541,541,541,541,541,541,541,541,541,541,541,541,529,521,497,495,495,492,490,480,465,444,407,353,252,194,125,61,7,7,7,7,7,7,7,7,7,7,7,7,7,7,7,7,7,7,7,1,3,9,21,30,38,44,48],"timestamp_mouse":[10,35,40,62,82,101,121,141,162,180,201,221,242,262,282,301,322,341,361,380,401,421,442,461,482,501,521,542,561,581,601,621,641,662,681,701,721,741,761,782,801,821,840,862,881,901,922,941,961,981,1001,1020,1041,1062,1081,1101,1121,1141,1161,1180,1202,1221,1240,1261,1281,1300],"xSR":741.5,"ySR":469.95,"xT1":424.9,"yT1":0,"xT2":1058.1,"yT2":0,"toosoon":0,"cond_shown":"equaldotanddens","ratio_trial":900,"smaller_num":"9","larger_num":"10","correct_side":1,"subjID":"santiagovaldesgomez3","gender":"0","age":"10","school":"6"},{"start_time":1551795031263,"click_time":1551795032447,"finger_time":1551795031688,"fix_duration":1451.5063870962906,"trial":51,"RT":425,"MT":759,"sideResp":2,"stimulus":"img/750/randomdotsizeEA/L/10_Ratio_750_L_4_R_3.png","xmouse":[832,832,832,832,832,832,832,832,832,832,832,832,832,832,832,832,832,832,830,821,792,670,589,566,561,562,594,647,736,850,982,1241,1350,1406,1408,1408,1404,1403,1402,1402,1400,1389,1378,1365,1355,1344,1328,1314,1292,1265,1240,1203,1195,1194,1194,1194,1191,1182,1170,1156],"ymouse":[525,525,525,525,525,525,525,525,525,525,525,525,525,525,525,525,525,525,523,519,511,476,447,433,426,420,401,391,378,362,326,227,176,124,108,95,85,83,82,81,81,75,71,68,66,64,60,54,46,37,30,21,18,18,18,18,19,30,46,62],"timestamp_mouse":[14,41,46,64,85,105,124,145,166,185,206,225,245,266,284,305,326,346,364,385,406,425,445,465,485,505,526,545,565,586,605,625,645,665,685,706,724,745,765,784,805,825,845,865,886,906,925,945,965,985,1006,1026,1044,1065,1085,1106,1124,1144,1164,1184],"xSR":741.5,"ySR":469.95,"xT1":424.9,"yT1":0,"xT2":1058.1,"yT2":0,"toosoon":0,"cond_shown":"randomdotsizeEA","ratio_trial":750,"smaller_num":"3","larger_num":"4","correct_side":1,"subjID":"santiagovaldesgomez3","gender":"0","age":"10","school":"6"},{"start_time":1551795034581,"click_time":1551795035290,"finger_time":1551795035108,"fix_duration":732.073739200027,"trial":52,"RT":527,"MT":182,"sideResp":2,"stimulus":"img/250/equaldotanddens/R/10_Ratio_250_L_4_R_16.png","xmouse":[816,816,816,816,817,818,818,819,819,819,819,819,819,818,817,816,813,811,809,807,806,805,805,805,807,822,840,856,875,891,925,944,964,985,1009,1128],"ymouse":[549,549,549,549,546,541,540,540,540,539,534,532,531,529,528,525,522,517,512,509,505,503,503,500,492,472,456,442,427,408,366,341,315,291,261,84],"timestamp_mouse":[9,35,47,66,87,108,128,148,168,187,208,227,247,268,287,308,326,347,367,387,406,428,447,467,488,507,527,547,568,587,608,627,646,668,687,709],"xSR":741.5,"ySR":469.95,"xT1":424.9,"yT1":0,"xT2":1058.1,"yT2":0,"toosoon":0,"cond_shown":"equaldotanddens","ratio_trial":250,"smaller_num":"4","larger_num":"16","correct_side":2,"subjID":"santiagovaldesgomez3","gender":"0","age":"10","school":"6"},{"start_time":1551795036720,"click_time":1551795037788,"finger_time":1551795037208,"fix_duration":449.26943436389166,"trial":53,"RT":488,"MT":580,"sideResp":1,"stimulus":"img/500/equaldotsize/L/5_Ratio_500_L_4_R_2.png","xmouse":[811,811,811,811,811,811,811,811,811,811,811,811,811,811,811,811,811,813,818,828,831,835,838,840,842,842,842,842,839,831,822,810,788,758,696,673,652,634,598,587,579,573,568,566,559,556,549,543,537,528,524,521,521,519],"ymouse":[517,517,517,517,517,517,517,517,517,517,517,517,517,517,517,517,518,515,506,495,492,487,483,480,473,470,468,466,460,448,436,419,389,343,276,259,245,232,207,199,191,186,182,180,169,163,152,143,132,115,108,104,102,98],"timestamp_mouse":[12,37,49,69,89,108,128,148,169,189,207,228,248,269,288,308,328,348,368,389,408,429,448,468,488,508,528,549,568,588,608,627,649,667,688,708,728,748,770,789,808,827,849,868,888,908,927,949,968,988,1008,1028,1047,1067],"xSR":741.5,"ySR":469.95,"xT1":424.9,"yT1":0,"xT2":1058.1,"yT2":0,"toosoon":0,"cond_shown":"equaldotsize","ratio_trial":500,"smaller_num":"2","larger_num":"4","correct_side":1,"subjID":"santiagovaldesgomez3","gender":"0","age":"10","school":"6"},{"start_time":1551795040128,"click_time":1551795041368,"finger_time":1551795040628,"fix_duration":1456.9496128110518,"trial":54,"RT":500,"MT":740,"sideResp":2,"stimulus":"img/500/equaldotsize/R/9_Ratio_500_L_2_R_4.png","xmouse":[759,759,759,759,759,759,759,759,759,759,759,759,759,759,759,759,759,759,759,759,759,760,766,783,807,843,848,853,859,875,887,904,924,948,998,1016,1026,1027,1027,1027,1027,1027,1027,1027,1027,1027,1027,1028,1029,1030,1030,1032,1035,1037,1040,1041,1041,1042,1045,1060,1070,1079,1088],"ymouse":[546,546,546,546,546,546,546,546,546,546,546,546,546,546,546,546,546,546,546,546,546,545,540,528,515,485,477,469,459,437,425,411,397,380,347,336,326,323,319,308,299,288,275,261,236,222,214,204,194,166,152,139,126,119,112,112,111,111,110,106,103,101,98],"timestamp_mouse":[10,21,42,61,80,101,121,140,160,181,201,221,241,259,281,300,320,340,361,380,400,421,441,460,480,500,520,541,560,580,600,620,639,660,681,701,720,740,759,780,800,820,840,859,880,900,920,940,960,980,999,1019,1039,1059,1080,1100,1120,1140,1160,1180,1200,1220,1240],"xSR":741.5,"ySR":469.95,"xT1":424.9,"yT1":0,"xT2":1058.1,"yT2":0,"toosoon":0,"cond_shown":"equaldotsize","ratio_trial":500,"smaller_num":"2","larger_num":"4","correct_side":2,"subjID":"santiagovaldesgomez3","gender":"0","age":"10","school":"6"},{"start_time":1551795046585,"click_time":1551795047768,"finger_time":1551795047187,"fix_duration":1074.8480200103177,"trial":55,"RT":602,"MT":581,"sideResp":1,"stimulus":"img/750/equaldotsize/R/7_Ratio_750_L_3_R_4.png","xmouse":[800,800,800,800,800,799,798,798,798,798,798,798,798,798,798,798,798,798,798,798,798,798,798,798,798,798,797,800,806,809,814,816,820,820,818,813,806,789,774,765,742,730,710,702,690,671,649,582,543,510,487,484,483,482,480,480,479,478,478,484],"ymouse":[534,534,534,534,534,534,534,534,534,534,534,534,534,534,534,534,534,534,534,534,534,534,534,534,534,534,530,516,495,487,461,441,404,386,369,355,339,316,302,296,280,271,252,244,235,226,216,187,173,160,149,146,143,141,137,133,130,124,107,84],"timestamp_mouse":[20,38,43,63,82,103,123,144,163,183,203,224,242,264,283,303,323,343,363,384,402,423,444,462,484,503,523,543,563,583,602,624,643,663,682,703,723,743,762,784,803,823,842,863,882,903,924,943,963,983,1003,1022,1042,1063,1082,1103,1124,1142,1163,1183],"xSR":741.5,"ySR":469.95,"xT1":424.9,"yT1":0,"xT2":1058.1,"yT2":0,"toosoon":0,"cond_shown":"equaldotsize","ratio_trial":750,"smaller_num":"3","larger_num":"4","correct_side":2,"subjID":"santiagovaldesgomez3","gender":"0","age":"10","school":"6"},{"start_time":1551795051430,"click_time":1551795052648,"finger_time":1551795051848,"fix_duration":1279.0592957569452,"trial":56,"RT":418,"MT":800,"sideResp":1,"stimulus":"img/500/equaldotanddens/L/8_Ratio_500_L_8_R_4.png","xmouse":[798,798,798,798,798,798,798,798,798,798,798,798,798,798,798,798,798,798,805,822,942,1004,1056,1080,1091,1091,1084,1073,1059,1020,989,949,910,872,844,798,788,783,776,762,752,742,734,727,724,717,714,712,709,703,686,674,661,649,640,628,625,625,619,600,501],"ymouse":[528,528,528,528,528,528,528,528,528,528,528,528,528,528,528,528,528,528,530,532,549,549,549,549,546,541,532,524,514,488,470,446,424,403,387,339,317,296,276,233,211,192,173,158,149,132,127,124,120,116,105,101,98,96,96,96,96,96,96,96,96],"timestamp_mouse":[18,39,58,79,98,119,139,158,177,199,218,237,259,279,298,317,338,359,378,399,418,438,457,478,498,518,538,558,578,599,618,639,658,679,698,717,738,758,778,799,818,838,858,877,898,918,939,957,977,997,1017,1038,1058,1078,1099,1119,1138,1159,1178,1199,1218],"xSR":741.5,"ySR":469.95,"xT1":424.9,"yT1":0,"xT2":1058.1,"yT2":0,"toosoon":0,"cond_shown":"equaldotanddens","ratio_trial":500,"smaller_num":"4","larger_num":"8","correct_side":1,"subjID":"santiagovaldesgomez3","gender":"0","age":"10","school":"6"},{"start_time":1551795055747,"click_time":1551795057288,"finger_time":1551795056508,"fix_duration":1258.7657696791425,"trial":57,"RT":761,"MT":780,"sideResp":2,"stimulus":"img/250/randomdotsizeEA/R/4_Ratio_250_L_3_R_12.png","xmouse":[764,764,764,764,764,764,764,764,764,764,764,764,764,764,764,764,764,764,764,764,764,764,764,764,764,764,764,764,764,764,764,764,764,764,766,781,798,820,857,902,991,1026,1056,1079,1105,1139,1174,1198,1226,1260,1297,1297,1297,1297,1297,1297,1297,1297,1297,1297,1297,1297,1297,1297,1297,1297,1297,1232,1232,1232,1230,1227,1221,1209,1199,1175,1164,1156],"ymouse":[539,539,539,539,539,539,539,539,539,539,539,539,539,539,539,539,539,539,539,539,539,539,539,539,539,539,539,539,539,539,539,539,539,539,539,540,540,536,526,518,494,481,466,451,430,385,322,258,193,115,8,8,8,8,8,8,8,8,8,8,8,8,8,8,8,8,8,0,0,0,1,3,9,17,23,37,42,45],"timestamp_mouse":[9,36,41,60,81,102,122,142,160,181,200,221,241,261,281,301,321,342,361,382,401,420,441,461,481,501,522,541,560,581,602,622,641,661,681,701,720,741,761,781,800,821,840,860,881,901,922,940,961,982,1001,1021,1042,1062,1081,1101,1121,1140,1162,1181,1201,1222,1241,1262,1282,1302,1321,1342,1361,1381,1401,1421,1441,1461,1481,1501,1521,1541],"xSR":741.5,"ySR":469.95,"xT1":424.9,"yT1":0,"xT2":1058.1,"yT2":0,"toosoon":0,"cond_shown":"randomdotsizeEA","ratio_trial":250,"smaller_num":"3","larger_num":"12","correct_side":2,"subjID":"santiagovaldesgomez3","gender":"0","age":"10","school":"6"},{"start_time":1551795058975,"click_time":1551795060188,"finger_time":1551795059668,"fix_duration":904.4368724148223,"trial":58,"RT":693,"MT":520,"sideResp":1,"stimulus":"img/500/randomdotsizeEA/L/11_Ratio_500_L_12_R_6.png","xmouse":[786,786,786,786,786,786,786,786,786,786,786,786,786,786,786,786,786,786,786,786,786,786,786,786,786,786,786,786,786,786,786,786,786,785,775,766,751,731,693,675,659,647,636,621,614,609,606,603,601,601,601,601,601,598,594,589,584,578,555,540,524],"ymouse":[532,532,532,532,532,532,532,532,532,532,532,532,532,532,532,532,532,532,532,532,532,532,532,532,531,531,529,528,526,524,521,516,511,493,467,453,434,410,367,348,337,327,316,285,267,248,228,207,192,173,166,155,139,117,107,97,89,84,76,71,68],"timestamp_mouse":[13,37,53,73,93,114,134,154,173,192,214,232,252,274,294,313,334,353,373,393,413,434,454,473,493,513,532,553,573,593,612,633,654,673,693,713,733,753,774,792,813,833,852,874,892,913,932,952,973,992,1012,1033,1053,1073,1093,1112,1132,1152,1174,1192,1213],"xSR":741.5,"ySR":469.95,"xT1":424.9,"yT1":0,"xT2":1058.1,"yT2":0,"toosoon":0,"cond_shown":"randomdotsizeEA","ratio_trial":500,"smaller_num":"6","larger_num":"12","correct_side":1,"subjID":"santiagovaldesgomez3","gender":"0","age":"10","school":"6"},{"start_time":1551795061499,"click_time":1551795063088,"finger_time":1551795062308,"fix_duration":250,"trial":59,"RT":809,"MT":780,"sideResp":2,"stimulus":"img/750/randomdotsizeEA/L/8_Ratio_750_L_4_R_3.png","xmouse":[782,782,782,782,782,782,781,781,781,781,781,780,780,780,779,779,779,779,779,780,781,783,785,788,791,794,797,799,800,801,801,801,801,801,801,801,801,801,800,797,795,790,781,777,772,768,767,766,766,766,766,766,770,790,813,848,898,962,1018,1050,1078,1109,1131,1173,1189,1202,1216,1221,1225,1225,1225,1225,1225,1225,1225,1224,1224,1195,1174,1151],"ymouse":[544,544,544,544,544,544,544,544,544,544,544,544,544,544,544,543,543,543,542,539,538,537,535,532,530,528,525,523,521,520,520,518,517,516,513,511,507,500,487,478,465,449,415,394,375,363,358,355,354,354,354,354,350,339,325,303,264,216,186,172,158,140,128,105,97,85,72,66,59,58,53,51,50,48,48,48,48,48,50,53],"timestamp_mouse":[17,45,49,68,88,109,129,149,169,188,208,229,249,268,290,309,329,348,368,388,409,428,448,468,489,508,528,548,568,590,608,628,649,668,689,709,729,749,768,788,809,828,849,869,888,908,930,949,968,989,1010,1028,1049,1068,1088,1108,1128,1148,1169,1188,1208,1230,1249,1268,1289,1309,1328,1348,1369,1389,1409,1429,1448,1469,1489,1509,1529,1550,1568,1589],"xSR":741.5,"ySR":469.95,"xT1":424.9,"yT1":0,"xT2":1058.1,"yT2":0,"toosoon":0,"cond_shown":"randomdotsizeEA","ratio_trial":750,"smaller_num":"3","larger_num":"4","correct_side":1,"subjID":"santiagovaldesgomez3","gender":"0","age":"10","school":"6"},{"start_time":1551795065360,"click_time":1551795066667,"finger_time":1551795065927,"fix_duration":1191.0468946558756,"trial":60,"RT":567,"MT":740,"sideResp":1,"stimulus":"img/500/randomdotsizeEA/L/4_Ratio_500_L_18_R_9.png","xmouse":[778,777,777,777,777,777,777,777,777,777,777,777,777,777,777,777,777,777,777,777,777,777,777,777,777,777,777,775,773,771,769,768,768,768,768,768,768,768,766,763,755,751,744,732,725,711,706,702,699,697,695,690,687,683,679,668,659,644,622,602,561,548,535,530,526,517],"ymouse":[475,476,476,476,476,476,476,476,476,476,476,476,476,476,476,476,476,476,476,476,476,476,476,476,476,476,476,472,466,460,449,439,433,426,418,403,395,384,371,355,320,295,271,233,209,167,153,144,138,133,126,117,112,109,105,100,98,96,93,90,83,82,82,82,84,89],"timestamp_mouse":[15,33,47,68,87,109,128,147,168,188,207,227,249,268,287,307,327,348,367,388,407,428,449,468,487,507,527,548,567,588,607,627,647,668,687,707,727,747,767,787,808,828,848,868,887,907,927,947,967,988,1007,1028,1048,1067,1087,1108,1127,1148,1168,1188,1208,1227,1247,1267,1287,1307],"xSR":741.5,"ySR":469.95,"xT1":424.9,"yT1":0,"xT2":1058.1,"yT2":0,"toosoon":0,"cond_shown":"randomdotsizeEA","ratio_trial":500,"smaller_num":"9","larger_num":"18","correct_side":1,"subjID":"santiagovaldesgomez3","gender":"0","age":"10","school":"6"},{"start_time":1551795071872,"click_time":1551795072608,"finger_time":1551795071987,"fix_duration":1062.6734573267981,"trial":61,"RT":115,"MT":621,"sideResp":2,"stimulus":"img/750/equaldotsize/L/8_Ratio_750_L_4_R_3.png","xmouse":[818,829,834,841,855,857,859,859,859,859,859,860,863,867,888,908,933,964,987,1024,1039,1053,1084,1109,1147,1157,1163,1168,1169,1168,1164,1162,1153,1145,1128,1118],"ymouse":[514,510,507,505,500,500,499,499,499,499,499,498,496,492,471,453,432,409,392,360,346,330,298,272,238,222,206,195,184,171,164,162,150,138,113,99],"timestamp_mouse":[38,55,76,96,115,135,155,175,196,215,237,255,275,295,315,335,355,376,395,415,435,456,476,495,515,535,556,575,595,616,635,656,675,695,715,735],"xSR":741.5,"ySR":469.95,"xT1":424.9,"yT1":0,"xT2":1058.1,"yT2":0,"toosoon":0,"cond_shown":"equaldotsize","ratio_trial":750,"smaller_num":"3","larger_num":"4","correct_side":1,"subjID":"santiagovaldesgomez3","gender":"0","age":"10","school":"6"},{"start_time":1551795086392,"click_time":1551795087708,"finger_time":1551795086488,"fix_duration":582.5058633239352,"trial":62,"RT":96,"MT":1220,"sideResp":1,"stimulus":"img/750/equaldotanddens/L/10_Ratio_750_L_4_R_3.png","xmouse":[782,786,787,787,787,787,787,787,787,787,787,787,787,787,787,786,776,773,771,767,762,762,762,762,762,762,762,762,762,762,762,762,755,738,699,531,419,316,246,211,207,207,206,202,200,195,195,195,195,203,215,261,296,329,353,364,368,368,368,369,370,386,395,405,415,426],"ymouse":[524,508,487,478,469,465,464,464,464,464,464,464,464,464,464,464,466,468,469,473,480,481,481,481,481,481,481,481,481,481,481,481,478,459,414,271,206,156,127,107,98,88,72,58,49,35,34,33,32,32,32,53,68,82,92,96,98,98,98,98,98,83,80,77,74,71],"timestamp_mouse":[15,39,55,75,96,115,135,156,176,195,216,235,255,275,295,315,335,356,377,396,416,436,457,476,496,516,536,555,577,596,616,636,655,675,695,717,736,756,776,796,817,835,855,877,896,916,935,955,975,995,1015,1035,1056,1077,1095,1115,1136,1155,1175,1195,1215,1235,1255,1275,1296,1316],"xSR":741.5,"ySR":469.95,"xT1":424.9,"yT1":0,"xT2":1058.1,"yT2":0,"toosoon":0,"cond_shown":"equaldotanddens","ratio_trial":750,"smaller_num":"3","larger_num":"4","correct_side":1,"subjID":"santiagovaldesgomez3","gender":"0","age":"10","school":"6"},{"start_time":1551795089973,"click_time":1551795092487,"finger_time":1551795091027,"fix_duration":1224.2479131939122,"trial":63,"RT":1054,"MT":1460,"sideResp":1,"stimulus":"img/750/equaldotsize/L/13_Ratio_750_L_8_R_6.png","xmouse":[742,742,742,742,742,743,743,744,744,744,744,744,744,744,744,744,744,744,744,744,744,745,746,747,747,747,750,755,757,757,757,757,757,757,757,756,756,753,752,751,750,750,750,750,749,749,749,749,749,749,747,746,741,738,736,735,733,730,729,727,726,725,724,724,724,724,724,722,722,722,722,722,722,722,722,722,722,722,722,722,722,722,722,722,722,722,722,723,724,726,728,731,734,734,735,737,738,744,750,761,764,761,710,663,601,532,459,309,242,193,182,176,171,171,171,175,190,258,317,390,412,412,412,412,412,460],"ymouse":[552,552,552,552,552,549,548,546,546,546,546,546,546,546,546,546,546,546,546,546,545,545,545,544,544,544,544,543,542,542,542,542,542,542,544,545,546,548,548,548,548,548,548,548,547,547,547,547,547,547,547,547,546,545,543,543,541,541,541,540,540,539,538,538,538,538,538,537,537,537,537,537,537,537,537,537,537,537,537,537,537,537,537,537,537,537,537,537,537,537,537,538,538,538,538,538,538,538,538,523,502,476,422,408,393,377,356,311,283,260,250,243,228,217,208,193,174,115,75,21,3,3,3,3,3,3],"timestamp_mouse":[26,45,54,76,94,114,135,156,174,194,215,234,254,275,295,314,336,355,374,394,414,434,455,474,494,514,534,554,575,595,614,634,656,674,694,714,734,754,775,794,814,835,856,876,895,915,934,954,974,994,1015,1036,1054,1074,1095,1115,1135,1154,1175,1194,1214,1235,1254,1275,1295,1314,1335,1354,1375,1395,1414,1434,1454,1474,1494,1515,1535,1555,1575,1596,1615,1635,1654,1675,1694,1714,1735,1754,1774,1794,1814,1834,1854,1874,1894,1914,1935,1955,1974,1994,2014,2034,2054,2074,2094,2114,2134,2154,2174,2194,2215,2234,2255,2274,2294,2314,2335,2354,2374,2395,2414,2436,2455,2475,2494,2514],"xSR":741.5,"ySR":469.95,"xT1":424.9,"yT1":0,"xT2":1058.1,"yT2":0,"toosoon":0,"cond_shown":"equaldotsize","ratio_trial":750,"smaller_num":"6","larger_num":"8","correct_side":1,"subjID":"santiagovaldesgomez3","gender":"0","age":"10","school":"6"},{"start_time":1551795094959,"click_time":1551795096588,"finger_time":1551795095668,"fix_duration":310.2991888315134,"trial":64,"RT":709,"MT":920,"sideResp":2,"stimulus":"img/750/equaldotanddens/R/2_Ratio_750_L_6_R_8.png","xmouse":[822,822,822,822,822,822,822,822,822,822,822,822,822,822,822,822,822,822,822,822,822,822,822,823,822,820,818,817,811,809,808,807,807,811,817,827,846,869,900,942,963,978,990,1002,1032,1040,1047,1051,1054,1054,1055,1058,1060,1069,1074,1077,1079,1079,1079,1082,1082,1082,1082,1082,1082,1082,1082,1082,1082,1082,1082,1082,1082,1084,1086,1086,1086,1086,1086,1086,1086,1089],"ymouse":[535,535,535,535,535,535,535,535,535,535,535,535,535,535,535,535,535,535,535,535,535,535,535,535,532,528,525,523,515,510,508,507,504,494,483,468,449,423,383,321,293,275,258,242,200,184,172,164,160,160,158,152,146,128,120,114,112,111,111,107,107,107,107,107,107,107,107,107,107,107,107,107,107,104,102,102,102,102,102,102,102,98],"timestamp_mouse":[12,33,49,69,90,108,128,148,169,188,208,229,248,268,289,308,329,349,368,389,410,428,448,469,488,508,529,548,569,589,608,629,648,669,688,709,728,748,768,788,809,828,848,869,888,909,928,949,969,988,1009,1028,1048,1070,1088,1109,1128,1148,1169,1188,1209,1229,1249,1269,1289,1309,1328,1348,1369,1388,1409,1429,1449,1470,1488,1508,1529,1548,1569,1588,1608,1629],"xSR":741.5,"ySR":469.95,"xT1":424.9,"yT1":0,"xT2":1058.1,"yT2":0,"toosoon":0,"cond_shown":"equaldotanddens","ratio_trial":750,"smaller_num":"6","larger_num":"8","correct_side":2,"subjID":"santiagovaldesgomez3","gender":"0","age":"10","school":"6"},{"start_time":1551795098338,"click_time":1551795099307,"finger_time":1551795098867,"fix_duration":1048.4484504233671,"trial":65,"RT":529,"MT":440,"sideResp":2,"stimulus":"img/500/equaldotsize/R/3_Ratio_500_L_10_R_20.png","xmouse":[823,823,823,823,823,823,823,823,823,823,823,823,823,823,823,823,823,823,823,823,823,823,823,823,823,833,847,876,900,923,957,971,983,993,1004,1028,1046,1065,1089,1101,1111,1114,1118,1124,1129,1134,1135,1135,1135],"ymouse":[504,504,504,504,504,504,504,504,504,504,504,504,504,504,504,504,504,504,504,504,504,504,504,504,503,488,474,449,429,405,366,350,336,322,306,274,252,231,200,181,161,152,141,130,120,108,103,101,95],"timestamp_mouse":[9,40,49,70,89,110,129,150,170,190,209,230,250,270,289,309,331,350,369,389,409,429,450,470,490,509,529,549,569,589,610,629,649,669,690,709,731,750,770,789,810,829,850,870,890,909,929,949,969],"xSR":741.5,"ySR":469.95,"xT1":424.9,"yT1":0,"xT2":1058.1,"yT2":0,"toosoon":0,"cond_shown":"equaldotsize","ratio_trial":500,"smaller_num":"10","larger_num":"20","correct_side":2,"subjID":"santiagovaldesgomez3","gender":"0","age":"10","school":"6"},{"