[{"start_time":1551794750311,"click_time":1551794751186,"finger_time":1551794750845,"fix_duration":781.5976636669848,"trial":0,"RT":534,"MT":341,"sideResp":2,"stimulus":"img/250/equaldotsize/R/11_Ratio_250_L_3_R_12.png","xmouse":[803,803,803,803,803,803,803,803,803,803,803,803,803,803,803,803,803,803,803,803,803,803,803,803,806,825,862,892,926,953,987,995,998,999,999,999,999,999,999,999,1013,1027,1042,1061],"ymouse":[552,552,552,552,552,552,552,552,552,552,552,552,552,552,552,552,552,552,552,552,552,552,552,552,548,504,402,337,271,224,163,153,150,149,148,148,148,148,148,147,135,121,107,92],"timestamp_mouse":[14,36,53,74,94,113,133,153,173,194,213,233,253,274,294,315,333,354,373,395,413,434,454,473,494,513,534,554,574,593,615,634,653,674,693,714,733,753,774,793,814,833,853,875],"xSR":741.5,"ySR":501.8,"xT1":424.9,"yT1":0,"xT2":1058.1,"yT2":0,"toosoon":0,"cond_shown":"equaldotsize","ratio_trial":250,"smaller_num":"3","larger_num":"12","correct_side":2,"subjID":"SaraCastañedaPinzón27","gender":"1","age":"11","school":"6","test":{"fix_dur":[250,1500],"timestim":300,"targets_dim":[100,100],"targets_relative_coord":[0.3,0.7],"size_stim":[880,420],"start_dim":[100,100],"size_start":[300,300],"size_fix":60,"samplingrate":20,"img_types":["equaldotsize","equaldotanddens","randomdotsizeEA"],"ratios":[250,500,750,900],"rep_conds":9,"nTrials":120,"trials_to_rest":500,"Trials_order":[96,67,29,7,110,40,94,37,46,79,11,97,4,68,117,17,45,115,98,47,85,54,83,25,27,50,99,24,105,8,28,108,39,38,19,3,114,23,73,36,1,104,26,66,76,59,16,84,6,22,53,72,61,55,51,69,20,112,71,87,101,15,113,82,2,80,62,48,111,64,57,86,10,119,49,90,81,18,107,93,91,60,95,33,14,44,52,42,116,56,43,70,63,21,58,103,65,89,30,102,74,12,92,34,0,5,9,77,35,78,100,13,75,109,88,32,31,106,118,41],"cond_shown":["equaldotsize","equaldotanddens","randomdotsizeEA","equaldotanddens","randomdotsizeEA","equaldotanddens","equaldotanddens","equaldotanddens","equaldotanddens","equaldotanddens","randomdotsizeEA","equaldotanddens","equaldotanddens","randomdotsizeEA","equaldotsize","randomdotsizeEA","equaldotsize","equaldotanddens","randomdotsizeEA","randomdotsizeEA","equaldotanddens","equaldotsize","randomdotsizeEA","equaldotanddens","equaldotsize","randomdotsizeEA","equaldotsize","equaldotsize","equaldotsize","randomdotsizeEA","equaldotanddens","equaldotsize","equaldotsize","randomdotsizeEA","equaldotanddens","equaldotsize","equaldotsize","randomdotsizeEA","equaldotanddens","equaldotsize","equaldotanddens","randomdotsizeEA","randomdotsizeEA","equaldotsize","equaldotanddens","randomdotsizeEA","equaldotanddens","equaldotsize","equaldotsize","equaldotanddens","randomdotsizeEA","equaldotsize","equaldotanddens","equaldotanddens","equaldotsize","equaldotsize","randomdotsizeEA","equaldotanddens","randomdotsizeEA","equaldotsize","randomdotsizeEA","equaldotsize","randomdotsizeEA","equaldotanddens","randomdotsizeEA","randomdotsizeEA","randomdotsizeEA","equaldotsize","equaldotsize","equaldotanddens","equaldotsize","randomdotsizeEA","equaldotanddens","randomdotsizeEA","equaldotanddens","equaldotsize","equaldotsize","equaldotsize","randomdotsizeEA","equaldotsize","equaldotanddens","equaldotsize","randomdotsizeEA","equaldotsize","randomdotsizeEA","randomdotsizeEA","equaldotanddens","equaldotsize","randomdotsizeEA","randomdotsizeEA","equaldotanddens","equaldotanddens","equaldotsize","equaldotsize","equaldotanddens","equaldotanddens","randomdotsizeEA","randomdotsizeEA","equaldotsize","equaldotsize","randomdotsizeEA","equaldotsize","randomdotsizeEA","equaldotanddens","equaldotsize","randomdotsizeEA","equaldotsize","randomdotsizeEA","randomdotsizeEA","equaldotsize","equaldotanddens","equaldotanddens","equaldotsize","equaldotanddens","equaldotanddens","randomdotsizeEA","equaldotanddens","equaldotanddens","equaldotanddens","randomdotsizeEA"],"ratio_trial":[250,750,500,750,250,500,900,250,900,750,900,250,500,750,900,500,900,750,250,900,250,750,900,250,500,250,500,250,900,750,500,250,500,250,750,500,750,900,250,250,250,750,250,750,500,900,500,250,750,900,500,250,250,750,500,900,750,500,900,500,500,500,500,900,250,750,250,250,500,500,900,250,900,900,250,750,900,750,900,900,750,250,900,900,250,750,500,750,750,750,750,900,500,900,900,750,500,500,750,750,250,250,750,900,250,500,900,500,900,750,500,250,500,250,500,750,750,900,900,500],"smaller_num":["3","15","10","3","3","1","9","3","18","15","18","2","6","6","9","1","18","6","6","9","4","3","9","3","5","3","5","3","18","15","9","3","5","3","3","2","18","18","5","2","5","3","4","3","9","18","2","5","6","18","9","6","4","15","5","18","12","2","18","9","10","2","1","18","2","3","2","2","2","2","18","2","9","18","3","15","18","3","18","9","6","2","18","18","3","3","6","6","6","15","3","18","2","18","9","3","2","4","9","3","2","3","3","18","2","9","18","2","18","15","5","2","5","1","6","9","6","18","18","3"],"larger_num":["12","20","20","4","12","2","10","12","20","20","20","8","12","8","10","2","20","8","24","10","16","4","10","12","10","12","10","12","20","20","18","12","10","12","4","4","24","20","20","8","20","4","16","4","18","20","4","20","8","20","18","24","16","20","10","20","16","4","20","18","20","4","2","20","8","4","8","8","4","4","20","8","10","20","12","20","20","4","20","10","8","8","20","20","12","4","12","8","8","20","4","20","4","20","10","4","4","8","12","4","8","12","4","20","8","18","20","4","20","20","10","8","10","4","12","12","8","20","20","6"],"correct_side":[2,1,2,2,1,2,1,1,1,2,1,1,1,1,2,2,1,1,1,2,2,1,2,2,2,1,2,1,2,2,2,2,1,2,1,1,1,2,2,1,2,1,1,1,2,2,2,2,1,2,1,1,2,1,1,1,2,1,1,2,2,1,2,1,1,2,1,1,2,1,2,1,2,2,2,2,2,2,1,1,2,1,2,2,1,2,1,1,1,1,1,2,1,1,1,2,1,1,2,1,2,2,2,1,1,1,2,1,1,2,1,1,2,2,1,2,1,1,1,2],"img_shown":["img/250/equaldotsize/R/11_Ratio_250_L_3_R_12.png","img/750/equaldotanddens/L/1_Ratio_750_L_20_R_15.png","img/500/randomdotsizeEA/R/3_Ratio_500_L_10_R_20.png","img/750/equaldotanddens/R/7_Ratio_750_L_3_R_4.png","img/250/randomdotsizeEA/L/14_Ratio_250_L_12_R_3.png","img/500/equaldotanddens/R/12_Ratio_500_L_1_R_2.png","img/900/equaldotanddens/L/1_Ratio_900_L_10_R_9.png","img/250/equaldotanddens/L/14_Ratio_250_L_12_R_3.png","img/900/equaldotanddens/L/10_Ratio_900_L_20_R_18.png","img/750/equaldotanddens/R/4_Ratio_750_L_15_R_20.png","img/900/randomdotsizeEA/L/8_Ratio_900_L_20_R_18.png","img/250/equaldotanddens/L/3_Ratio_250_L_8_R_2.png","img/500/equaldotanddens/L/13_Ratio_500_L_12_R_6.png","img/750/randomdotsizeEA/L/14_Ratio_750_L_8_R_6.png","img/900/equaldotsize/R/5_Ratio_900_L_9_R_10.png","img/500/randomdotsizeEA/R/12_Ratio_500_L_1_R_2.png","img/900/equaldotsize/L/10_Ratio_900_L_20_R_18.png","img/750/equaldotanddens/L/14_Ratio_750_L_8_R_6.png","img/250/randomdotsizeEA/L/5_Ratio_250_L_24_R_6.png","img/900/randomdotsizeEA/R/15_Ratio_900_L_9_R_10.png","img/250/equaldotanddens/R/10_Ratio_250_L_4_R_16.png","img/750/equaldotsize/L/8_Ratio_750_L_4_R_3.png","img/900/randomdotsizeEA/R/7_Ratio_900_L_9_R_10.png","img/250/equaldotanddens/R/9_Ratio_250_L_3_R_12.png","img/500/equaldotsize/R/14_Ratio_500_L_5_R_10.png","img/250/randomdotsizeEA/L/15_Ratio_250_L_12_R_3.png","img/500/equaldotsize/R/14_Ratio_500_L_5_R_10.png","img/250/equaldotsize/L/15_Ratio_250_L_12_R_3.png","img/900/equaldotsize/R/14_Ratio_900_L_18_R_20.png","img/750/randomdotsizeEA/R/5_Ratio_750_L_15_R_20.png","img/500/equaldotanddens/R/1_Ratio_500_L_9_R_18.png","img/250/equaldotsize/R/4_Ratio_250_L_3_R_12.png","img/500/equaldotsize/L/7_Ratio_500_L_10_R_5.png","img/250/randomdotsizeEA/R/9_Ratio_250_L_3_R_12.png","img/750/equaldotanddens/L/10_Ratio_750_L_4_R_3.png","img/500/equaldotsize/L/10_Ratio_500_L_4_R_2.png","img/750/equaldotsize/L/6_Ratio_750_L_24_R_18.png","img/900/randomdotsizeEA/R/9_Ratio_900_L_18_R_20.png","img/250/equaldotanddens/R/12_Ratio_250_L_5_R_20.png","img/250/equaldotsize/L/7_Ratio_250_L_8_R_2.png","img/250/equaldotanddens/R/12_Ratio_250_L_5_R_20.png","img/750/randomdotsizeEA/L/9_Ratio_750_L_4_R_3.png","img/250/randomdotsizeEA/L/2_Ratio_250_L_16_R_4.png","img/750/equaldotsize/L/8_Ratio_750_L_4_R_3.png","img/500/equaldotanddens/R/6_Ratio_500_L_9_R_18.png","img/900/randomdotsizeEA/R/11_Ratio_900_L_18_R_20.png","img/500/equaldotanddens/R/9_Ratio_500_L_2_R_4.png","img/250/equaldotsize/R/12_Ratio_250_L_5_R_20.png","img/750/equaldotsize/L/14_Ratio_750_L_8_R_6.png","img/900/equaldotanddens/R/9_Ratio_900_L_18_R_20.png","img/500/randomdotsizeEA/L/4_Ratio_500_L_18_R_9.png","img/250/equaldotsize/L/5_Ratio_250_L_24_R_6.png","img/250/equaldotanddens/R/10_Ratio_250_L_4_R_16.png","img/750/equaldotanddens/L/1_Ratio_750_L_20_R_15.png","img/500/equaldotsize/L/7_Ratio_500_L_10_R_5.png","img/900/equaldotsize/L/8_Ratio_900_L_20_R_18.png","img/750/randomdotsizeEA/R/11_Ratio_750_L_12_R_16.png","img/500/equaldotanddens/L/10_Ratio_500_L_4_R_2.png","img/900/randomdotsizeEA/L/8_Ratio_900_L_20_R_18.png","img/500/equaldotsize/R/1_Ratio_500_L_9_R_18.png","img/500/randomdotsizeEA/R/3_Ratio_500_L_10_R_20.png","img/500/equaldotsize/L/5_Ratio_500_L_4_R_2.png","img/500/randomdotsizeEA/R/12_Ratio_500_L_1_R_2.png","img/900/equaldotanddens/L/10_Ratio_900_L_20_R_18.png","img/250/randomdotsizeEA/L/3_Ratio_250_L_8_R_2.png","img/750/randomdotsizeEA/R/12_Ratio_750_L_3_R_4.png","img/250/randomdotsizeEA/L/7_Ratio_250_L_8_R_2.png","img/250/equaldotsize/L/3_Ratio_250_L_8_R_2.png","img/500/equaldotsize/R/9_Ratio_500_L_2_R_4.png","img/500/equaldotanddens/L/5_Ratio_500_L_4_R_2.png","img/900/equaldotsize/R/12_Ratio_900_L_18_R_20.png","img/250/randomdotsizeEA/L/1_Ratio_250_L_8_R_2.png","img/900/equaldotanddens/R/6_Ratio_900_L_9_R_10.png","img/900/randomdotsizeEA/R/11_Ratio_900_L_18_R_20.png","img/250/equaldotanddens/R/9_Ratio_250_L_3_R_12.png","img/750/equaldotsize/R/3_Ratio_750_L_15_R_20.png","img/900/equaldotsize/R/11_Ratio_900_L_18_R_20.png","img/750/equaldotsize/R/7_Ratio_750_L_3_R_4.png","img/900/randomdotsizeEA/L/2_Ratio_900_L_20_R_18.png","img/900/equaldotsize/L/1_Ratio_900_L_10_R_9.png","img/750/equaldotanddens/R/2_Ratio_750_L_6_R_8.png","img/250/equaldotsize/L/3_Ratio_250_L_8_R_2.png","img/900/randomdotsizeEA/R/11_Ratio_900_L_18_R_20.png","img/900/equaldotsize/R/11_Ratio_900_L_18_R_20.png","img/250/randomdotsizeEA/L/14_Ratio_250_L_12_R_3.png","img/750/randomdotsizeEA/R/7_Ratio_750_L_3_R_4.png","img/500/equaldotanddens/L/13_Ratio_500_L_12_R_6.png","img/750/equaldotsize/L/14_Ratio_750_L_8_R_6.png","img/750/randomdotsizeEA/L/13_Ratio_750_L_8_R_6.png","img/750/randomdotsizeEA/L/1_Ratio_750_L_20_R_15.png","img/750/equaldotanddens/L/10_Ratio_750_L_4_R_3.png","img/900/equaldotanddens/R/14_Ratio_900_L_18_R_20.png","img/500/equaldotsize/L/10_Ratio_500_L_4_R_2.png","img/900/equaldotsize/L/8_Ratio_900_L_20_R_18.png","img/900/equaldotanddens/L/1_Ratio_900_L_10_R_9.png","img/750/equaldotanddens/R/7_Ratio_750_L_3_R_4.png","img/500/randomdotsizeEA/L/5_Ratio_500_L_4_R_2.png","img/500/randomdotsizeEA/L/8_Ratio_500_L_8_R_4.png","img/750/equaldotsize/R/15_Ratio_750_L_9_R_12.png","img/750/equaldotsize/L/9_Ratio_750_L_4_R_3.png","img/250/randomdotsizeEA/R/13_Ratio_250_L_2_R_8.png","img/250/equaldotsize/R/11_Ratio_250_L_3_R_12.png","img/750/randomdotsizeEA/R/12_Ratio_750_L_3_R_4.png","img/900/equaldotanddens/L/4_Ratio_900_L_20_R_18.png","img/250/equaldotsize/L/3_Ratio_250_L_8_R_2.png","img/500/randomdotsizeEA/L/4_Ratio_500_L_18_R_9.png","img/900/equaldotsize/R/11_Ratio_900_L_18_R_20.png","img/500/randomdotsizeEA/L/5_Ratio_500_L_4_R_2.png","img/900/randomdotsizeEA/L/2_Ratio_900_L_20_R_18.png","img/750/equaldotsize/R/5_Ratio_750_L_15_R_20.png","img/500/equaldotanddens/L/7_Ratio_500_L_10_R_5.png","img/250/equaldotanddens/L/3_Ratio_250_L_8_R_2.png","img/500/equaldotsize/R/14_Ratio_500_L_5_R_10.png","img/250/equaldotanddens/R/8_Ratio_250_L_1_R_4.png","img/500/equaldotanddens/L/11_Ratio_500_L_12_R_6.png","img/750/randomdotsizeEA/R/15_Ratio_750_L_9_R_12.png","img/750/equaldotanddens/L/13_Ratio_750_L_8_R_6.png","img/900/equaldotanddens/L/8_Ratio_900_L_20_R_18.png","img/900/equaldotanddens/L/8_Ratio_900_L_20_R_18.png","img/500/randomdotsizeEA/R/2_Ratio_500_L_3_R_6.png"],"Rat0":[["12_Ratio_0_L_9_R_0.png","13_Ratio_0_L_6_R_0.png","5_Ratio_0_L_2_R_0.png","6_Ratio_0_L_4_R_0.png","8_Ratio_0_L_6_R_0.png"],["1_Ratio_0_L_0_R_17.png","10_Ratio_0_L_0_R_22.png","11_Ratio_0_L_0_R_1.png","14_Ratio_0_L_0_R_24.png","15_Ratio_0_L_0_R_4.png","2_Ratio_0_L_0_R_5.png","3_Ratio_0_L_0_R_17.png","4_Ratio_0_L_0_R_7.png","7_Ratio_0_L_0_R_19.png","9_Ratio_0_L_0_R_15.png"]],"Rat250":[["1_Ratio_250_L_8_R_2.png","14_Ratio_250_L_12_R_3.png","15_Ratio_250_L_12_R_3.png","2_Ratio_250_L_16_R_4.png","3_Ratio_250_L_8_R_2.png","5_Ratio_250_L_24_R_6.png","7_Ratio_250_L_8_R_2.png"],["10_Ratio_250_L_4_R_16.png","11_Ratio_250_L_3_R_12.png","12_Ratio_250_L_5_R_20.png","13_Ratio_250_L_2_R_8.png","4_Ratio_250_L_3_R_12.png","6_Ratio_250_L_6_R_24.png","8_Ratio_250_L_1_R_4.png","9_Ratio_250_L_3_R_12.png"]],"Rat500":[["10_Ratio_500_L_4_R_2.png","11_Ratio_500_L_12_R_6.png","13_Ratio_500_L_12_R_6.png","4_Ratio_500_L_18_R_9.png","5_Ratio_500_L_4_R_2.png","7_Ratio_500_L_10_R_5.png","8_Ratio_500_L_8_R_4.png"],["1_Ratio_500_L_9_R_18.png","12_Ratio_500_L_1_R_2.png","14_Ratio_500_L_5_R_10.png","15_Ratio_500_L_1_R_2.png","2_Ratio_500_L_3_R_6.png","3_Ratio_500_L_10_R_20.png","6_Ratio_500_L_9_R_18.png","9_Ratio_500_L_2_R_4.png"]],"Rat750":[["1_Ratio_750_L_20_R_15.png","10_Ratio_750_L_4_R_3.png","13_Ratio_750_L_8_R_6.png","14_Ratio_750_L_8_R_6.png","6_Ratio_750_L_24_R_18.png","8_Ratio_750_L_4_R_3.png","9_Ratio_750_L_4_R_3.png"],["11_Ratio_750_L_12_R_16.png","12_Ratio_750_L_3_R_4.png","15_Ratio_750_L_9_R_12.png","2_Ratio_750_L_6_R_8.png","3_Ratio_750_L_15_R_20.png","4_Ratio_750_L_15_R_20.png","5_Ratio_750_L_15_R_20.png","7_Ratio_750_L_3_R_4.png"]],"Rat900":[["1_Ratio_900_L_10_R_9.png","10_Ratio_900_L_20_R_18.png","2_Ratio_900_L_20_R_18.png","4_Ratio_900_L_20_R_18.png","8_Ratio_900_L_20_R_18.png"],["11_Ratio_900_L_18_R_20.png","12_Ratio_900_L_18_R_20.png","13_Ratio_900_L_18_R_20.png","14_Ratio_900_L_18_R_20.png","15_Ratio_900_L_9_R_10.png","3_Ratio_900_L_9_R_10.png","5_Ratio_900_L_9_R_10.png","6_Ratio_900_L_9_R_10.png","7_Ratio_900_L_9_R_10.png","9_Ratio_900_L_18_R_20.png"]],"Rat1000":[["10_Ratio_1000_L_16_R_16.png","11_Ratio_1000_L_6_R_6.png","12_Ratio_1000_L_14_R_14.png","13_Ratio_1000_L_20_R_20.png","15_Ratio_1000_L_15_R_15.png","2_Ratio_1000_L_17_R_17.png","4_Ratio_1000_L_9_R_9.png","5_Ratio_1000_L_6_R_6.png","6_Ratio_1000_L_19_R_19.png","8_Ratio_1000_L_14_R_14.png","9_Ratio_1000_L_25_R_25.png"],["1_Ratio_1000_L_1_R_1.png","14_Ratio_1000_L_17_R_17.png","3_Ratio_1000_L_17_R_17.png","7_Ratio_1000_L_6_R_6.png"]]}},{"start_time":1551794752737,"click_time":1551794753564,"finger_time":1551794753325,"fix_duration":891.3846985735631,"trial":1,"RT":588,"MT":239,"sideResp":1,"stimulus":"img/750/equaldotanddens/L/1_Ratio_750_L_20_R_15.png","xmouse":[806,806,806,806,806,806,806,806,806,806,806,806,806,806,806,806,806,806,806,806,806,806,806,806,806,806,804,797,786,744,697,652,619,599,568,555,533,521,513,507,506,505],"ymouse":[503,503,503,503,503,503,503,503,503,503,503,503,503,503,503,503,503,503,503,503,503,503,503,503,503,503,502,492,478,424,370,323,293,276,239,219,179,155,135,108,103,97],"timestamp_mouse":[9,33,47,67,87,108,128,147,167,189,207,228,248,268,287,307,329,348,368,388,407,428,448,469,488,509,527,548,569,588,607,627,647,668,688,709,728,748,769,789,807,827],"xSR":741.5,"ySR":469.95,"xT1":424.9,"yT1":0,"xT2":1058.1,"yT2":0,"toosoon":0,"cond_shown":"equaldotanddens","ratio_trial":750,"smaller_num":"15","larger_num":"20","correct_side":1,"subjID":"SaraCastañedaPinzón27","gender":"1","age":"11","school":"6"},{"start_time":1551794755040,"click_time":1551794755964,"finger_time":1551794755644,"fix_duration":735.6802901228579,"trial":2,"RT":604,"MT":320,"sideResp":2,"stimulus":"img/500/randomdotsizeEA/R/3_Ratio_500_L_10_R_20.png","xmouse":[805,805,805,805,805,805,805,805,805,805,805,805,805,805,805,805,805,805,805,805,805,805,805,805,805,805,804,810,821,838,941,991,1035,1064,1083,1085,1086,1085,1083,1081,1077,1073,1072,1071,1071,1072,1074],"ymouse":[524,524,524,524,524,524,524,524,524,524,524,524,524,524,524,524,524,524,524,524,524,524,524,524,524,524,522,512,498,472,327,279,247,229,213,210,204,199,192,179,165,153,143,131,109,102,96],"timestamp_mouse":[20,35,44,64,84,105,124,144,164,185,204,226,245,264,284,304,324,345,364,385,404,424,444,465,484,505,525,545,564,585,604,624,644,664,685,705,724,745,765,786,804,825,846,866,885,904,924],"xSR":741.5,"ySR":469.95,"xT1":424.9,"yT1":0,"xT2":1058.1,"yT2":0,"toosoon":0,"cond_shown":"randomdotsizeEA","ratio_trial":500,"smaller_num":"10","larger_num":"20","correct_side":2,"subjID":"SaraCastañedaPinzón27","gender":"1","age":"11","school":"6"},{"start_time":1551794756937,"click_time":1551794759725,"finger_time":1551794758226,"fix_duration":250,"trial":3,"RT":1289,"MT":1499,"sideResp":2,"stimulus":"img/750/equaldotanddens/R/7_Ratio_750_L_3_R_4.png","xmouse":[769,769,769,769,769,769,769,773,774,775,778,779,779,779,779,779,779,779,779,779,779,779,779,779,779,779,779,779,779,779,779,779,779,779,779,779,779,779,779,779,779,779,780,781,781,781,781,781,781,781,781,781,781,781,781,781,781,781,781,781,782,783,784,788,805,814,826,833,836,837,835,833,831,829,826,826,826,826,826,826,827,831,836,837,835,829,826,821,818,816,812,811,810,808,800,794,793,793,793,793,793,793,793,793,793,793,793,793,793,793,793,793,793,793,793,793,793,793,793,793,793,802,820,858,936,1057,1132,1188,1210,1214,1214,1216,1216,1218,1218,1213,1205,1191,1165,1123],"ymouse":[497,497,497,497,497,497,497,499,501,502,505,506,506,506,506,506,506,506,506,506,506,506,506,506,506,506,506,506,506,506,506,506,506,506,506,506,506,506,506,506,506,506,506,506,505,505,505,505,505,505,505,505,505,505,505,505,505,505,505,505,503,499,492,479,420,382,324,275,238,207,173,162,147,132,121,116,116,116,116,119,128,144,173,209,272,309,339,370,392,409,430,436,445,456,471,478,481,481,483,483,485,488,492,494,494,494,494,494,494,494,494,494,494,494,494,494,494,494,494,494,494,485,464,417,281,183,140,117,110,108,108,107,106,102,91,87,85,80,72,67],"timestamp_mouse":[7,33,48,67,88,109,128,149,167,187,208,228,247,268,288,308,327,348,367,387,407,427,448,468,488,508,528,547,568,587,608,629,648,668,689,708,727,749,767,788,808,828,847,868,888,907,927,948,969,988,1008,1027,1049,1067,1088,1108,1127,1148,1169,1187,1207,1229,1247,1268,1288,1307,1327,1347,1367,1388,1407,1427,1447,1467,1488,1508,1527,1548,1568,1588,1608,1628,1648,1668,1687,1707,1727,1748,1768,1788,1808,1828,1848,1867,1887,1908,1928,1947,1967,1988,2008,2028,2049,2068,2087,2108,2127,2148,2168,2187,2208,2228,2248,2268,2288,2307,2327,2348,2367,2387,2408,2427,2447,2467,2487,2507,2528,2547,2567,2588,2608,2628,2648,2668,2688,2707,2727,2748,2768,2788],"xSR":741.5,"ySR":469.95,"xT1":424.9,"yT1":0,"xT2":1058.1,"yT2":0,"toosoon":0,"cond_shown":"equaldotanddens","ratio_trial":750,"smaller_num":"3","larger_num":"4","correct_side":2,"subjID":"SaraCastañedaPinzón27","gender":"1","age":"11","school":"6"},{"start_time":1551794761771,"click_time":1551794762504,"finger_time":1551794762425,"fix_duration":1203.406455217483,"trial":4,"RT":654,"MT":79,"sideResp":1,"stimulus":"img/250/randomdotsizeEA/L/14_Ratio_250_L_12_R_3.png","xmouse":[776,776,776,776,776,776,776,776,776,776,776,776,776,776,776,776,776,776,776,776,776,776,776,776,776,776,776,776,776,776,773,760,743,670,590,536,499],"ymouse":[549,549,549,549,549,549,549,549,549,549,549,549,549,549,549,549,549,549,549,549,549,549,549,549,549,549,549,549,549,540,516,472,412,270,156,96,57],"timestamp_mouse":[13,34,54,74,94,114,135,154,173,193,213,234,253,273,293,313,334,354,373,393,413,434,454,474,494,513,533,554,573,593,614,634,654,674,693,714,733],"xSR":741.5,"ySR":469.95,"xT1":424.9,"yT1":0,"xT2":1058.1,"yT2":0,"toosoon":0,"cond_shown":"randomdotsizeEA","ratio_trial":250,"smaller_num":"3","larger_num":"12","correct_side":1,"subjID":"SaraCastañedaPinzón27","gender":"1","age":"11","school":"6"},{"start_time":1551794763592,"click_time":1551794764564,"finger_time":1551794764385,"fix_duration":405.17871062440094,"trial":5,"RT":793,"MT":179,"sideResp":2,"stimulus":"img/500/equaldotanddens/R/12_Ratio_500_L_1_R_2.png","xmouse":[793,793,793,793,793,793,793,793,793,793,793,793,793,793,793,793,793,793,793,793,793,793,793,793,793,793,793,793,793,793,793,793,793,793,793,793,794,796,804,813,831,878,901,913,926,942,1014,1046,1068],"ymouse":[512,512,512,512,512,512,512,512,512,512,512,512,512,512,512,512,512,512,512,512,512,512,512,512,512,512,512,512,512,512,512,512,512,512,512,512,512,508,490,468,433,344,294,263,236,203,113,86,68],"timestamp_mouse":[13,32,53,72,92,112,132,152,173,192,212,233,254,272,292,314,333,353,373,392,413,432,453,474,493,512,532,552,572,592,612,633,653,672,692,713,733,753,773,793,814,833,852,873,893,913,933,952,972],"xSR":741.5,"ySR":469.95,"xT1":424.9,"yT1":0,"xT2":1058.1,"yT2":0,"toosoon":0,"cond_shown":"equaldotanddens","ratio_trial":500,"smaller_num":"1","larger_num":"2","correct_side":2,"subjID":"SaraCastañedaPinzón27","gender":"1","age":"11","school":"6"},{"start_time":1551794765962,"click_time":1551794767884,"finger_time":1551794767444,"fix_duration":715.8366942931411,"trial":6,"RT":1482,"MT":440,"sideResp":1,"stimulus":"img/900/equaldotanddens/L/1_Ratio_900_L_10_R_9.png","xmouse":[776,776,776,776,776,776,776,776,776,776,776,776,776,776,776,776,776,776,776,776,776,776,776,776,776,776,776,776,776,776,776,776,776,776,776,776,776,776,776,776,776,776,776,776,776,776,776,776,776,776,776,776,776,776,776,776,776,776,776,776,776,776,776,776,776,776,776,776,776,776,776,776,775,770,733,633,570,540,519,514,510,506,501,499,499,499,499,499,499,499,499,499,499,500,500,501,501],"ymouse":[523,523,523,523,523,523,523,523,523,523,523,523,523,523,523,523,523,523,523,523,523,523,523,523,523,523,523,523,523,523,523,523,523,523,523,523,523,523,523,523,523,523,523,523,523,523,523,523,523,523,523,523,523,523,523,523,523,523,523,523,523,523,523,523,523,523,523,523,523,523,523,523,520,508,443,319,246,209,170,156,143,133,120,112,112,112,112,112,112,111,110,110,110,109,107,100,87],"timestamp_mouse":[8,28,42,62,82,103,123,142,162,183,203,222,242,262,282,302,322,343,362,382,402,422,443,462,482,503,522,543,563,583,602,622,642,662,682,702,723,742,762,784,802,822,842,862,883,902,922,942,962,983,1004,1022,1042,1063,1082,1102,1122,1143,1164,1182,1202,1223,1242,1262,1283,1304,1323,1342,1362,1383,1402,1422,1443,1462,1482,1503,1524,1542,1563,1583,1603,1623,1643,1663,1682,1702,1722,1742,1763,1783,1803,1822,1842,1864,1882,1902,1922],"xSR":741.5,"ySR":469.95,"xT1":424.9,"yT1":0,"xT2":1058.1,"yT2":0,"toosoon":0,"cond_shown":"equaldotanddens","ratio_trial":900,"smaller_num":"9","larger_num":"10","correct_side":1,"subjID":"SaraCastañedaPinzón27","gender":"1","age":"11","school":"6"},{"start_time":1551794769166,"click_time":1551794769904,"finger_time":1551794769744,"fix_duration":540.0701857633929,"trial":7,"RT":578,"MT":160,"sideResp":1,"stimulus":"img/250/equaldotanddens/L/14_Ratio_250_L_12_R_3.png","xmouse":[771,771,771,771,771,771,771,771,771,771,771,771,771,771,771,771,771,771,771,771,771,771,771,771,771,771,771,769,755,728,689,643,575,547,536,528,519],"ymouse":[482,482,482,482,482,482,482,482,482,482,482,482,482,482,482,482,482,482,482,482,482,482,482,482,482,482,482,482,460,413,351,283,187,135,108,88,69],"timestamp_mouse":[18,38,60,79,99,119,139,158,178,198,218,239,258,278,299,319,339,358,380,398,418,439,459,480,499,519,539,558,578,599,619,638,659,678,698,719,738],"xSR":741.5,"ySR":469.95,"xT1":424.9,"yT1":0,"xT2":1058.1,"yT2":0,"toosoon":0,"cond_shown":"equaldotanddens","ratio_trial":250,"smaller_num":"3","larger_num":"12","correct_side":1,"subjID":"SaraCastañedaPinzón27","gender":"1","age":"11","school":"6"},{"start_time":1551794771369,"click_time":1551794773665,"finger_time":1551794773325,"fix_duration":843.2469362818016,"trial":8,"RT":1956,"MT":340,"sideResp":2,"stimulus":"img/900/equaldotanddens/L/10_Ratio_900_L_20_R_18.png","xmouse":[816,816,816,816,816,816,816,816,816,816,816,816,816,816,816,816,816,816,816,816,816,816,816,816,816,816,816,816,816,816,816,816,816,816,816,816,816,816,816,816,816,816,816,816,816,816,816,816,816,816,816,816,816,816,816,816,816,816,816,816,816,816,816,816,816,816,816,816,816,816,816,816,816,816,816,816,816,816,816,816,816,816,816,816,816,816,816,816,816,816,816,816,816,816,816,816,824,864,906,956,1003,1041,1079,1081,1081,1081,1081,1087,1095,1104,1114,1119,1125,1127,1127],"ymouse":[513,513,513,513,513,513,513,513,513,513,513,513,513,513,513,513,513,513,513,513,513,513,513,513,513,513,513,513,513,513,513,513,513,513,513,513,513,513,513,513,513,513,513,513,513,513,513,513,513,513,513,513,513,513,513,513,513,513,513,513,513,513,513,513,513,513,513,513,513,513,513,513,513,513,513,513,513,513,513,513,513,513,513,513,513,513,513,513,513,513,513,513,513,513,513,513,497,442,394,335,271,224,164,153,152,152,151,147,143,139,133,129,118,108,92],"timestamp_mouse":[16,36,56,75,95,117,136,155,176,195,215,235,255,276,297,316,335,356,375,395,415,436,455,475,496,515,535,555,576,595,615,637,655,675,695,716,735,755,775,795,815,836,856,875,895,916,935,957,975,995,1016,1036,1057,1076,1096,1117,1135,1155,1175,1195,1215,1236,1256,1275,1296,1315,1335,1355,1375,1395,1415,1435,1455,1476,1495,1515,1536,1555,1575,1595,1616,1635,1656,1676,1696,1716,1735,1755,1775,1796,1815,1836,1857,1875,1896,1916,1936,1956,1975,1995,2016,2037,2056,2075,2096,2116,2137,2156,2175,2195,2216,2237,2256,2275,2296],"xSR":741.5,"ySR":469.95,"xT1":424.9,"yT1":0,"xT2":1058.1,"yT2":0,"toosoon":0,"cond_shown":"equaldotanddens","ratio_trial":900,"smaller_num":"18","larger_num":"20","correct_side":1,"subjID":"SaraCastañedaPinzón27","gender":"1","age":"11","school":"6"},{"start_time":1551794776932,"click_time":1551794777845,"finger_time":1551794777485,"fix_duration":726.7214095352908,"trial":9,"RT":553,"MT":360,"sideResp":2,"stimulus":"img/750/equaldotanddens/R/4_Ratio_750_L_15_R_20.png","xmouse":[765,765,765,765,765,765,765,765,765,765,765,765,765,765,765,765,765,765,765,765,765,765,765,765,765,765,778,794,826,925,970,1000,1014,1018,1019,1020,1022,1024,1026,1028,1028,1031,1038,1049,1058,1072],"ymouse":[506,506,506,506,506,506,506,506,506,506,506,506,506,506,506,506,506,506,506,506,506,506,506,506,506,503,486,457,403,281,232,199,179,168,159,154,149,143,135,124,119,116,106,90,77,52],"timestamp_mouse":[14,37,53,73,92,114,133,153,173,193,212,232,252,273,293,312,332,354,373,392,413,433,452,472,494,512,533,553,573,593,613,632,652,672,693,712,732,752,773,793,813,832,853,872,893,913],"xSR":741.5,"ySR":469.95,"xT1":424.9,"yT1":0,"xT2":1058.1,"yT2":0,"toosoon":0,"cond_shown":"equaldotanddens","ratio_trial":750,"smaller_num":"15","larger_num":"20","correct_side":2,"subjID":"SaraCastañedaPinzón27","gender":"1","age":"11","school":"6"},{"start_time":1551794781899,"click_time":1551794783244,"finger_time":1551794783024,"fix_duration":1454.8963341994875,"trial":10,"RT":1125,"MT":220,"sideResp":1,"stimulus":"img/900/randomdotsizeEA/L/8_Ratio_900_L_20_R_18.png","xmouse":[794,794,794,794,794,794,794,794,794,794,794,794,794,794,794,794,794,794,794,794,794,794,794,794,794,794,794,794,794,794,794,794,794,794,794,794,794,794,794,794,794,794,794,789,788,787,785,785,785,785,785,785,784,781,776,768,755,714,693,659,620,573,549,526,512,505,498,497],"ymouse":[534,534,534,534,534,534,534,534,534,534,534,534,534,534,534,534,534,534,534,534,534,534,534,534,534,534,534,534,534,534,534,534,534,534,534,534,534,534,534,534,534,534,534,524,522,517,511,511,511,511,511,510,504,498,486,471,449,393,367,329,290,234,196,165,145,129,105,94],"timestamp_mouse":[10,26,46,66,86,105,126,146,165,185,205,226,246,266,286,305,326,346,367,386,405,425,445,466,487,505,525,547,565,585,606,625,646,666,685,707,725,747,765,786,805,827,845,865,886,905,925,945,965,985,1007,1026,1046,1065,1086,1107,1125,1146,1166,1186,1206,1226,1245,1266,1285,1306,1327,1345],"xSR":741.5,"ySR":469.95,"xT1":424.9,"yT1":0,"xT2":1058.1,"yT2":0,"toosoon":0,"cond_shown":"randomdotsizeEA","ratio_trial":900,"smaller_num":"18","larger_num":"20","correct_side":1,"subjID":"SaraCastañedaPinzón27","gender":"1","age":"11","school":"6"},{"start_time":1551794784366,"click_time":1551794785244,"finger_time":1551794784925,"fix_duration":478.3455422988777,"trial":11,"RT":559,"MT":319,"sideResp":1,"stimulus":"img/250/equaldotanddens/L/3_Ratio_250_L_8_R_2.png","xmouse":[799,799,799,799,799,799,799,799,799,799,799,799,799,799,799,799,799,799,799,799,799,799,799,799,799,797,793,765,719,656,604,571,531,516,511,508,505,502,501,501,501,504,508,507],"ymouse":[509,509,509,509,509,509,509,509,509,509,509,509,509,509,509,509,509,509,509,509,509,509,509,509,509,508,504,469,420,361,313,275,225,197,185,176,171,162,158,151,141,130,106,93],"timestamp_mouse":[19,38,59,79,99,120,139,160,179,198,219,239,260,279,299,318,339,359,379,398,418,439,460,479,498,519,540,559,578,598,619,638,659,678,699,719,738,759,778,798,819,838,858,878],"xSR":741.5,"ySR":469.95,"xT1":424.9,"yT1":0,"xT2":1058.1,"yT2":0,"toosoon":0,"cond_shown":"equaldotanddens","ratio_trial":250,"smaller_num":"2","larger_num":"8","correct_side":1,"subjID":"SaraCastañedaPinzón27","gender":"1","age":"11","school":"6"},{"start_time":1551794789712,"click_time":1551794790664,"finger_time":1551794790425,"fix_duration":1206.1139703498043,"trial":12,"RT":713,"MT":239,"sideResp":1,"stimulus":"img/500/equaldotanddens/L/13_Ratio_500_L_12_R_6.png","xmouse":[809,809,809,809,809,809,809,809,809,809,809,809,809,809,809,809,809,809,809,809,809,809,809,809,809,809,809,809,808,808,808,806,806,806,798,742,662,617,580,550,522,514,507,496,486,481,477,478],"ymouse":[525,525,525,525,525,525,525,525,525,525,525,525,525,525,525,525,525,525,525,525,525,525,525,525,525,525,525,525,524,523,523,521,517,511,495,412,319,273,227,190,158,145,134,122,115,110,101,98],"timestamp_mouse":[14,36,53,73,92,112,132,154,174,192,212,233,252,272,293,313,334,354,372,393,412,433,452,472,492,512,532,553,574,593,613,633,653,672,692,713,732,753,773,792,813,832,852,872,892,913,932,952],"xSR":741.5,"ySR":469.95,"xT1":424.9,"yT1":0,"xT2":1058.1,"yT2":0,"toosoon":0,"cond_shown":"equaldotanddens","ratio_trial":500,"smaller_num":"6","larger_num":"12","correct_side":1,"subjID":"SaraCastañedaPinzón27","gender":"1","age":"11","school":"6"},{"start_time":1551794791769,"click_time":1551794793025,"finger_time":1551794792644,"fix_duration":323.2157233453581,"trial":13,"RT":875,"MT":381,"sideResp":1,"stimulus":"img/750/randomdotsizeEA/L/14_Ratio_750_L_8_R_6.png","xmouse":[805,805,805,805,805,805,805,805,805,805,805,805,805,805,805,805,805,805,805,805,805,805,805,805,805,805,805,805,805,805,805,805,805,805,805,805,805,805,805,805,805,805,799,756,674,611,557,488,465,442,427,414,393,390,389,389,389,390,393,397,404,412,428],"ymouse":[536,536,536,536,536,536,536,536,536,536,536,536,536,536,536,536,536,536,536,536,536,536,536,536,536,536,536,536,536,536,536,536,536,536,536,536,536,536,536,536,536,531,521,448,345,286,241,184,159,131,110,92,64,58,52,50,49,46,46,45,45,45,45],"timestamp_mouse":[16,35,55,76,95,117,135,156,176,196,216,235,257,276,297,317,336,356,377,396,416,437,455,476,497,516,535,555,576,597,615,635,656,675,696,715,735,756,776,795,815,837,855,875,896,916,936,956,975,995,1016,1035,1056,1075,1095,1115,1136,1156,1175,1195,1215,1235,1256],"xSR":741.5,"ySR":469.95,"xT1":424.9,"yT1":0,"xT2":1058.1,"yT2":0,"toosoon":0,"cond_shown":"randomdotsizeEA","ratio_trial":750,"smaller_num":"6","larger_num":"8","correct_side":1,"subjID":"SaraCastañedaPinzón27","gender":"1","age":"11","school":"6"},{"start_time":1551794794961,"click_time":1551794795844,"finger_time":1551794795726,"fix_duration":894.6186990809167,"trial":14,"RT":765,"MT":118,"sideResp":1,"stimulus":"img/900/equaldotsize/R/5_Ratio_900_L_9_R_10.png","xmouse":[771,771,771,771,771,771,771,771,771,771,771,771,771,771,771,771,771,771,771,771,771,771,771,771,771,771,771,771,771,771,771,771,771,771,771,771,771,768,746,714,679,637,591,517,491],"ymouse":[483,483,483,483,483,483,483,483,483,483,483,483,483,483,483,483,483,483,483,483,483,483,483,483,483,483,483,483,483,483,483,483,483,483,483,483,483,477,442,389,328,265,200,112,82],"timestamp_mouse":[9,28,44,63,83,104,124,145,163,184,203,223,243,263,284,304,324,343,363,383,405,423,444,463,484,504,523,543,564,584,603,624,643,663,684,703,723,744,765,784,803,825,843,864,883],"xSR":741.5,"ySR":469.95,"xT1":424.9,"yT1":0,"xT2":1058.1,"yT2":0,"toosoon":0,"cond_shown":"equaldotsize","ratio_trial":900,"smaller_num":"9","larger_num":"10","correct_side":2,"subjID":"SaraCastañedaPinzón27","gender":"1","age":"11","school":"6"},{"start_time":1551794797394,"click_time":1551794798365,"finger_time":1551794798125,"fix_duration":769.9926809405306,"trial":15,"RT":731,"MT":240,"sideResp":2,"stimulus":"img/500/randomdotsizeEA/R/12_Ratio_500_L_1_R_2.png","xmouse":[768,768,768,768,768,768,768,768,768,768,768,768,768,768,768,768,768,768,768,768,768,768,768,768,768,768,768,768,768,768,768,768,768,768,772,780,824,850,873,885,889,901,920,945,975,1001,1038,1052,1068],"ymouse":[496,496,496,496,496,496,496,496,496,496,496,496,496,496,496,496,496,496,496,496,496,496,496,496,496,496,496,496,496,496,496,496,496,496,491,479,414,378,350,335,327,309,274,239,197,156,104,84,63],"timestamp_mouse":[10,31,50,72,92,111,130,150,171,191,210,230,251,270,290,311,330,350,370,390,412,430,451,470,490,511,531,551,570,590,610,630,650,671,690,712,731,750,772,792,811,831,850,870,891,911,931,951,971],"xSR":741.5,"ySR":469.95,"xT1":424.9,"yT1":0,"xT2":1058.1,"yT2":0,"toosoon":0,"cond_shown":"randomdotsizeEA","ratio_trial":500,"smaller_num":"1","larger_num":"2","correct_side":2,"subjID":"SaraCastañedaPinzón27","gender":"1","age":"11","school":"6"},{"start_time":1551794800560,"click_time":1551794801764,"finger_time":1551794801246,"fix_duration":1133.212540274381,"trial":16,"RT":686,"MT":518,"sideResp":2,"stimulus":"img/900/equaldotsize/L/10_Ratio_900_L_20_R_18.png","xmouse":[787,787,787,787,787,787,787,787,787,787,787,787,787,787,787,787,787,787,787,787,787,787,787,787,787,787,787,787,787,787,787,786,784,767,746,732,716,700,655,634,609,595,588,582,582,582,582,582,582,583,594,611,642,681,762,806,838,893,1040,1092,1131],"ymouse":[499,499,499,499,499,499,499,499,499,499,499,499,499,499,499,499,499,499,499,499,499,499,499,499,499,499,499,499,499,499,499,499,499,480,459,441,417,388,320,283,243,219,207,195,194,194,194,194,194,194,201,213,229,248,271,272,269,250,166,127,99],"timestamp_mouse":[14,33,44,65,85,104,126,144,165,185,204,224,245,265,285,305,326,344,364,384,406,424,445,464,484,505,524,544,564,585,606,625,645,664,686,704,725,745,765,784,804,825,845,865,884,905,924,944,964,985,1004,1025,1045,1065,1085,1104,1125,1144,1166,1184,1204],"xSR":741.5,"ySR":469.95,"xT1":424.9,"yT1":0,"xT2":1058.1,"yT2":0,"toosoon":0,"cond_shown":"equaldotsize","ratio_trial":900,"smaller_num":"18","larger_num":"20","correct_side":1,"subjID":"SaraCastañedaPinzón27","gender":"1","age":"11","school":"6"},{"start_time":1551794803356,"click_time":1551794804444,"finger_time":1551794804004,"fix_duration":250,"trial":17,"RT":648,"MT":440,"sideResp":1,"stimulus":"img/750/equaldotanddens/L/14_Ratio_750_L_8_R_6.png","xmouse":[822,822,822,822,822,822,822,822,822,822,821,821,821,821,821,821,821,821,821,821,821,821,821,821,821,821,821,821,814,807,800,791,779,739,659,588,512,434,363,316,316,316,316,316,316,316,316,316,316,316,316,316,316,417,441],"ymouse":[509,509,509,509,509,509,509,509,509,509,509,509,509,509,509,509,509,509,509,509,509,509,509,509,509,509,509,509,501,493,484,475,464,417,332,265,192,122,57,1,1,1,1,1,1,1,1,1,1,1,1,1,1,16,33],"timestamp_mouse":[8,36,48,69,89,108,129,149,169,190,209,228,248,268,288,308,328,348,369,389,409,428,449,469,489,508,529,549,569,589,608,628,648,668,688,708,729,748,769,788,808,828,848,869,888,909,928,950,969,989,1008,1029,1050,1069,1088],"xSR":741.5,"ySR":469.95,"xT1":424.9,"yT1":0,"xT2":1058.1,"yT2":0,"toosoon":0,"cond_shown":"equaldotanddens","ratio_trial":750,"smaller_num":"6","larger_num":"8","correct_side":1,"subjID":"SaraCastañedaPinzón27","gender":"1","age":"11","school":"6"},{"start_time":1551794806354,"click_time":1551794807184,"finger_time":1551794807024,"fix_duration":1107.7110768499874,"trial":18,"RT":670,"MT":160,"sideResp":1,"stimulus":"img/250/randomdotsizeEA/L/5_Ratio_250_L_24_R_6.png","xmouse":[770,770,770,770,770,770,770,770,770,770,770,770,770,770,770,770,770,770,770,770,770,770,770,770,770,770,770,770,770,770,770,770,758,725,614,554,540,531,519,516,511,503],"ymouse":[532,532,532,532,532,532,532,532,532,532,532,532,532,532,532,532,532,532,532,532,532,532,532,532,532,532,532,532,532,532,529,518,471,398,260,201,184,166,136,122,108,93],"timestamp_mouse":[12,35,50,71,91,112,130,150,171,190,212,230,250,270,290,311,330,351,371,391,412,430,451,472,491,510,530,550,571,590,610,631,650,670,691,711,731,752,771,790,810,830],"xSR":741.5,"ySR":469.95,"xT1":424.9,"yT1":0,"xT2":1058.1,"yT2":0,"toosoon":0,"cond_shown":"randomdotsizeEA","ratio_trial":250,"smaller_num":"6","larger_num":"24","correct_side":1,"subjID":"SaraCastañedaPinzón27","gender":"1","age":"11","school":"6"},{"start_time":1551794810631,"click_time":1551794811726,"finger_time":1551794811367,"fix_duration":1324.4776310826755,"trial":19,"RT":736,"MT":359,"sideResp":2,"stimulus":"img/900/randomdotsizeEA/R/15_Ratio_900_L_9_R_10.png","xmouse":[780,780,780,780,780,780,780,780,780,780,780,780,780,780,780,780,780,780,780,780,780,780,780,780,780,780,780,780,780,780,780,780,780,780,792,802,810,820,834,878,899,924,936,945,961,971,985,1000,1020,1044,1050,1050,1051,1055,1060],"ymouse":[504,504,504,504,504,504,504,504,504,504,504,504,504,504,504,504,504,504,504,504,504,504,504,504,504,504,504,504,504,504,504,504,504,502,488,480,469,454,429,346,302,253,228,207,171,155,139,122,104,83,77,77,75,71,66],"timestamp_mouse":[15,35,54,74,95,115,134,154,174,195,214,235,256,275,294,314,334,354,374,394,415,436,454,474,494,515,535,554,575,594,615,634,654,674,694,714,736,755,775,795,815,834,854,875,894,914,934,954,974,995,1014,1034,1054,1074,1095],"xSR":741.5,"ySR":469.95,"xT1":424.9,"yT1":0,"xT2":1058.1,"yT2":0,"toosoon":0,"cond_shown":"randomdotsizeEA","ratio_trial":900,"smaller_num":"9","larger_num":"10","correct_side":2,"subjID":"SaraCastañedaPinzón27","gender":"1","age":"11","school":"6"},{"start_time":1551794813474,"click_time":1551794814207,"finger_time":1551794814105,"fix_duration":1026.0098363895008,"trial":20,"RT":631,"MT":102,"sideResp":2,"stimulus":"img/250/equaldotanddens/R/10_Ratio_250_L_4_R_16.png","xmouse":[769,769,769,769,769,769,769,769,769,769,769,769,769,769,769,769,769,769,769,769,769,769,769,769,769,769,769,769,769,771,785,816,928,992,1045,1079,1089],"ymouse":[506,506,506,506,506,506,506,506,506,506,506,506,506,506,506,506,506,506,506,506,506,506,506,506,506,506,506,506,506,505,493,461,327,249,173,120,94],"timestamp_mouse":[12,35,51,72,91,112,132,151,172,192,212,232,251,272,292,312,332,351,371,391,412,432,451,472,492,511,532,551,572,591,612,631,652,671,691,712,732],"xSR":741.5,"ySR":469.95,"xT1":424.9,"yT1":0,"xT2":1058.1,"yT2":0,"toosoon":0,"cond_shown":"equaldotanddens","ratio_trial":250,"smaller_num":"4","larger_num":"16","correct_side":2,"subjID":"SaraCastañedaPinzón27","gender":"1","age":"11","school":"6"},{"start_time":1551794816443,"click_time":1551794823685,"finger_time":1551794818846,"fix_duration":1275.8332266976563,"trial":21,"RT":2403,"MT":4839,"sideResp":1,"stimulus":"img/750/equaldotsize/L/8_Ratio_750_L_4_R_3.png","xmouse":[798,798,798,798,798,798,798,798,798,798,798,798,798,798,798,798,798,798,798,798,798,798,798,798,798,798,798,798,798,798,798,798,798,798,798,798,798,798,798,798,798,798,798,798,798,798,798,798,798,798,798,798,798,798,798,798,798,798,798,798,798,798,798,798,798,798,798,798,798,798,798,798,798,798,798,798,798,798,798,798,798,798,798,798,798,798,798,798,798,798,798,798,798,798,798,798,798,798,798,798,798,798,798,798,798,798,798,798,798,798,798,798,798,798,798,798,797,797,797,797,797,796,792,786,775,768,764,761,760,760,760,764,765,765,765,765,765,765,765,765,765,765,765,765,765,765,765,765,765,765,765,765,765,765,765,765,765,765,765,765,765,765,765,765,765,765,765,765,765,765,765,765,765,765,765,765,765,765,765,765,765,765,765,765,765,765,765,765,765,765,765,765,765,765,765,668,682,694,707,721,734,786,808,824,831,835,836,836,836,836,834,834,834,832,830,822,799,794,792,792,792,792,792,792,792,792,792,792,792,792,792,792,792,792,792,792,792,792,792,792,792,792,792,792,792,792,792,792,792,792,792,792,792,792,792,792,792,792,792,792,792,792,792,792,792,792,792,792,792,792,792,792,792,792,793,797,813,864,953,1042,1175,1214,1222,1222,1222,1222,1222,1212,1188,1141,983,873,834,812,803,801,801,800,799,798,797,794,793,791,790,788,787,787,787,787,787,787,787,787,787,787,787,787,787,787,787,787,785,784,781,775,749,724,690,654,588,568,532,511],"ymouse":[494,494,494,494,494,494,494,494,494,494,494,494,494,494,494,494,494,494,494,494,494,494,494,494,494,494,494,494,494,494,494,494,494,494,494,494,494,494,494,494,494,494,494,494,494,494,494,494,494,494,494,494,494,494,494,494,494,494,494,494,494,494,494,494,494,494,494,494,494,494,494,494,494,494,494,494,494,494,494,494,494,494,494,494,494,494,494,494,494,494,494,494,494,494,494,494,494,494,494,494,494,494,494,494,494,494,494,494,494,494,494,494,494,494,494,494,494,492,491,479,449,427,405,382,340,318,295,267,236,170,110,61,22,6,6,6,6,6,6,6,6,6,6,6,6,6,6,6,6,6,6,6,6,6,6,6,6,6,6,6,6,6,6,6,6,6,6,6,6,6,6,6,6,6,6,6,6,6,6,6,6,6,6,6,6,6,6,6,6,6,6,6,6,6,6,10,32,53,74,95,119,219,268,305,337,375,458,496,524,540,548,548,548,548,548,546,530,522,520,520,520,520,520,520,520,520,520,520,520,520,520,520,520,520,520,520,520,520,520,520,520,520,520,520,520,520,520,520,520,520,520,520,520,520,520,520,520,520,520,520,520,520,520,520,520,520,520,520,520,520,520,520,520,519,518,516,514,506,495,485,477,475,475,475,475,475,475,475,479,490,513,529,536,539,541,541,541,542,542,542,543,544,545,545,546,547,547,547,547,547,547,547,547,547,547,547,547,547,547,547,547,547,547,545,541,534,500,466,421,355,207,141,54,17],"timestamp_mouse":[8,29,42,62,83,102,122,143,162,183,202,222,242,262,282,302,323,343,362,383,403,423,442,462,483,503,523,542,563,582,602,622,643,662,682,702,723,742,762,782,803,822,843,862,883,903,923,942,962,982,1002,1022,1043,1063,1083,1102,1122,1143,1162,1182,1203,1222,1242,1262,1283,1302,1322,1342,1362,1382,1403,1424,1442,1462,1483,1502,1522,1542,1562,1583,1603,1622,1643,1662,1683,1703,1723,1742,1762,1782,1802,1822,1842,1862,1882,1904,1923,1942,1962,1983,2002,2022,2043,2062,2083,2103,2122,2143,2162,2182,2202,2223,2242,2262,2282,2302,2323,2342,2362,2382,2403,2422,2442,2462,2482,2502,2522,2542,2562,2583,2602,2622,2642,2663,2682,2703,2722,2742,2762,2782,2802,2822,2843,2862,2883,2902,2922,2943,2963,2983,3002,3023,3043,3063,3082,3102,3122,3142,3163,3182,3203,3222,3243,3262,3282,3302,3916,3922,3942,3962,3983,4002,4022,4042,4063,4082,4103,4122,4142,4162,4182,4202,4223,4243,4263,4283,4302,4322,4342,4363,4383,4403,4424,4442,4462,4482,4502,4522,4542,4563,4582,4602,4622,4643,4663,4683,4702,4722,4743,4763,4783,4802,4822,4842,4864,4882,4902,4922,4943,4964,4983,5002,5022,5042,5062,5082,5102,5123,5142,5162,5182,5203,5223,5242,5263,5283,5303,5322,5344,5363,5383,5402,5423,5443,5463,5482,5503,5523,5544,5563,5582,5603,5622,5643,5663,5682,5703,5722,5743,5763,5783,5803,5822,5842,5863,5887,5902,5923,5943,5963,5982,6003,6023,6043,6062,6082,6102,6122,6143,6162,6183,6203,6223,6242,6262,6283,6302,6323,6343,6363,6382,6403,6422,6442,6463,6483,6502,6523,6542,6562,6583,6603,6622,6642,6662,6682,6702,6722,6742,6762,6783,6803,6822,6842,6862,6882,6902,6923,6942,6962,6983,7002,7022,7043,7064,7083,7102,7122,7142,7163,7183,7202,7222,7242],"xSR":741.5,"ySR":469.95,"xT1":424.9,"yT1":0,"xT2":1058.1,"yT2":0,"toosoon":0,"cond_shown":"equaldotsize","ratio_trial":750,"smaller_num":"3","larger_num":"4","correct_side":1,"subjID":"SaraCastañedaPinzón27","gender":"1","age":"11","school":"6"},{"start_time":1551794826494,"click_time":1551794827645,"finger_time":1551794827345,"fix_duration":648.1386592295255,"trial":22,"RT":851,"MT":300,"sideResp":2,"stimulus":"img/900/randomdotsizeEA/R/7_Ratio_900_L_9_R_10.png","xmouse":[814,814,814,814,814,814,814,814,814,814,814,814,814,814,814,814,814,814,814,814,814,814,814,814,814,814,814,814,814,814,814,814,814,814,814,814,814,814,814,814,814,822,889,943,979,1008,1022,1022,1021,1021,1023,1028,1029,1033,1037,1039,1048,1064],"ymouse":[521,521,521,521,521,521,521,521,521,521,521,521,521,521,521,521,521,521,521,521,521,521,521,521,521,521,521,521,521,521,521,521,521,521,521,521,521,521,521,521,521,515,444,379,318,272,227,205,196,185,177,164,157,147,136,124,92,61],"timestamp_mouse":[11,31,61,71,91,111,131,151,171,191,212,231,251,271,291,311,331,351,371,391,412,431,451,471,492,511,531,552,571,591,611,632,651,672,692,711,731,752,771,791,811,831,851,871,891,911,931,951,971,991,1011,1032,1051,1071,1091,1111,1132,1150],"xSR":741.5,"ySR":469.95,"xT1":424.9,"yT1":0,"xT2":1058.1,"yT2":0,"toosoon":0,"cond_shown":"randomdotsizeEA","ratio_trial":900,"smaller_num":"9","larger_num":"10","correct_side":2,"subjID":"SaraCastañedaPinzón27","gender":"1","age":"11","school":"6"},{"start_time":1551794830011,"click_time":1551794830825,"finger_time":1551794830525,"fix_duration":1484.1948671492582,"trial":23,"RT":514,"MT":300,"sideResp":2,"stimulus":"img/250/equaldotanddens/R/9_Ratio_250_L_3_R_12.png","xmouse":[790,790,790,790,790,790,790,790,790,790,790,790,790,790,790,790,790,790,790,790,790,790,793,801,809,831,902,945,971,979,980,982,987,992,997,1004,1011,1016,1028,1045,1105],"ymouse":[527,527,527,527,527,527,527,527,527,527,527,527,527,527,527,527,527,527,527,527,527,526,522,509,484,428,271,194,142,117,91,78,67,56,47,39,32,31,31,31,29],"timestamp_mouse":[14,34,54,74,94,114,134,155,174,194,214,234,254,275,294,314,335,355,375,395,414,435,454,475,495,514,534,554,575,595,615,635,654,674,695,715,734,754,774,794,814],"xSR":741.5,"ySR":469.95,"xT1":424.9,"yT1":0,"xT2":1058.1,"yT2":0,"toosoon":0,"cond_shown":"equaldotanddens","ratio_trial":250,"smaller_num":"3","larger_num":"12","correct_side":2,"subjID":"SaraCastañedaPinzón27","gender":"1","age":"11","school":"6"},{"start_time":1551794833080,"click_time":1551794833986,"finger_time":1551794833705,"fix_duration":1372.0217006998485,"trial":24,"RT":625,"MT":281,"sideResp":2,"stimulus":"img/500/equaldotsize/R/14_Ratio_500_L_5_R_10.png","xmouse":[800,800,800,800,800,800,800,800,800,800,800,800,800,800,800,800,800,800,800,800,800,800,800,800,800,800,800,800,800,800,807,829,857,916,946,966,978,983,991,999,1013,1027,1041,1045,1054,1066],"ymouse":[539,539,539,539,539,539,539,539,539,539,539,539,539,539,539,539,539,539,539,539,539,539,539,539,539,539,539,539,535,529,510,457,370,192,130,97,79,67,58,54,47,41,32,31,31,31],"timestamp_mouse":[13,32,45,65,85,106,126,145,166,185,205,226,246,266,286,306,326,345,365,385,406,426,446,465,485,506,525,546,566,585,605,625,646,665,685,705,726,745,765,785,806,825,845,865,885,906],"xSR":741.5,"ySR":469.95,"xT1":424.9,"yT1":0,"xT2":1058.1,"yT2":0,"toosoon":0,"cond_shown":"equaldotsize","ratio_trial":500,"smaller_num":"5","larger_num":"10","correct_side":2,"subjID":"SaraCastañedaPinzón27","gender":"1","age":"11","school":"6"},{"start_time":1551794837062,"click_time":1551794837826,"finger_time":1551794837745,"fix_duration":676.3259551459646,"trial":25,"RT":683,"MT":81,"sideResp":1,"stimulus":"img/250/randomdotsizeEA/L/15_Ratio_250_L_12_R_3.png","xmouse":[782,782,782,782,782,782,782,782,782,782,782,782,782,783,783,783,783,783,783,783,783,783,783,783,783,783,783,783,783,783,783,783,783,783,718,657,589,530,472],"ymouse":[511,511,511,511,511,511,511,511,511,511,511,511,511,510,510,510,510,510,510,510,510,510,510,510,510,510,510,510,510,510,510,510,509,504,362,265,175,103,34],"timestamp_mouse":[7,34,43,64,83,103,123,143,163,183,203,224,244,264,283,303,325,344,364,384,403,423,443,463,483,503,524,543,564,584,603,623,643,663,683,703,724,744,763],"xSR":741.5,"ySR":469.95,"xT1":424.9,"yT1":0,"xT2":1058.1,"yT2":0,"toosoon":0,"cond_shown":"randomdotsizeEA","ratio_trial":250,"smaller_num":"3","larger_num":"12","correct_side":1,"subjID":"SaraCastañedaPinzón27","gender":"1","age":"11","school":"6"},{"start_time":1551794840100,"click_time":1551794841245,"finger_time":1551794840945,"fix_duration":1353.699611826859,"trial":26,"RT":845,"MT":300,"sideResp":2,"stimulus":"img/500/equaldotsize/R/14_Ratio_500_L_5_R_10.png","xmouse":[778,778,778,778,778,778,778,778,778,778,778,778,778,778,778,778,778,778,778,778,778,778,778,778,778,778,778,778,778,778,778,778,778,778,778,778,778,778,778,781,782,818,875,929,980,1027,1051,1066,1084,1098,1119,1141,1166,1170,1171,1171,1148,1135],"ymouse":[521,521,521,521,521,521,521,521,521,521,521,521,521,521,521,521,521,521,521,521,521,521,521,521,521,521,521,521,521,521,521,521,521,521,521,521,521,521,521,519,518,477,415,343,282,237,220,205,197,191,185,178,164,156,149,142,103,85],"timestamp_mouse":[10,26,45,65,86,106,127,146,165,186,205,225,245,265,285,305,325,345,365,386,406,426,446,466,486,506,526,545,565,585,605,626,646,665,685,705,725,745,765,785,805,825,845,865,886,905,925,945,965,985,1005,1026,1045,1065,1086,1105,1127,1145],"xSR":741.5,"ySR":469.95,"xT1":424.9,"yT1":0,"xT2":1058.1,"yT2":0,"toosoon":0,"cond_shown":"equaldotsize","ratio_trial":500,"smaller_num":"5","larger_num":"10","correct_side":2,"subjID":"SaraCastañedaPinzón27","gender":"1","age":"11","school":"6"},{"start_time":1551794843456,"click_time":1551794844305,"finger_time":1551794844225,"fix_duration":1330.1561712743282,"trial":27,"RT":769,"MT":80,"sideResp":1,"stimulus":"img/250/equaldotsize/L/15_Ratio_250_L_12_R_3.png","xmouse":[811,811,811,811,811,811,811,811,811,811,811,811,811,811,811,811,811,811,811,811,811,811,811,811,811,811,811,811,811,811,811,811,811,811,811,811,811,811,802,679,609,549,516],"ymouse":[483,483,483,483,483,483,482,482,482,482,482,482,482,482,482,482,482,482,482,482,482,482,482,482,482,482,482,482,482,482,482,482,482,482,482,482,478,476,462,256,168,103,65],"timestamp_mouse":[10,33,49,69,89,109,130,150,170,189,209,230,249,270,289,309,329,349,369,390,409,429,449,470,489,509,529,549,570,589,610,629,649,669,689,710,729,749,769,789,809,830,849],"xSR":741.5,"ySR":469.95,"xT1":424.9,"yT1":0,"xT2":1058.1,"yT2":0,"toosoon":0,"cond_shown":"equaldotsize","ratio_trial":250,"smaller_num":"3","larger_num":"12","correct_side":1,"subjID":"SaraCastañedaPinzón27","gender":"1","age":"11","school":"6"},{"start_time":1551794846179,"click_time":1551794847065,"finger_time":1551794846765,"fix_duration":990.9881966911091,"trial":28,"RT":586,"MT":300,"sideResp":2,"stimulus":"img/900/equaldotsize/R/14_Ratio_900_L_18_R_20.png","xmouse":[785,785,785,785,786,786,786,786,786,786,786,786,787,787,787,787,787,787,787,787,787,787,787,787,787,787,787,794,813,854,915,979,1115,1164,1174,1176,1177,1180,1182,1183,1183,1182,1180,1167,1151],"ymouse":[543,543,543,542,541,541,541,540,540,540,540,539,538,538,538,538,537,537,537,537,537,537,537,537,537,537,537,529,510,457,382,319,211,172,161,157,154,141,134,126,120,111,105,84,60],"timestamp_mouse":[7,26,47,67,87,106,127,147,166,187,206,227,246,267,286,306,326,347,367,387,406,426,446,466,487,506,527,547,566,586,607,626,646,666,686,706,726,746,766,786,806,826,847,866,886],"xSR":741.5,"ySR":469.95,"xT1":424.9,"yT1":0,"xT2":1058.1,"yT2":0,"toosoon":0,"cond_shown":"equaldotsize","ratio_trial":900,"smaller_num":"18","larger_num":"20","correct_side":2,"subjID":"SaraCastañedaPinzón27","gender":"1","age":"11","school":"6"},{"start_time":1551794848307,"click_time":1551794849385,"finger_time":1551794849166,"fix_duration":460.2951440098533,"trial":29,"RT":859,"MT":219,"sideResp":1,"stimulus":"img/750/randomdotsizeEA/R/5_Ratio_750_L_15_R_20.png","xmouse":[795,795,795,795,795,795,795,795,795,795,795,795,795,795,795,795,795,795,795,795,795,795,795,795,795,795,795,795,795,795,795,795,795,795,795,795,795,795,795,795,795,796,791,776,755,700,661,640,622,608,578,560,540,522],"ymouse":[527,527,527,527,527,527,527,527,527,527,527,527,527,527,527,527,527,527,527,527,527,527,527,527,527,527,527,527,527,527,527,527,527,527,527,527,527,527,527,526,523,473,430,376,322,236,189,169,155,144,123,110,101,94],"timestamp_mouse":[31,39,58,78,98,118,138,158,178,198,219,238,258,278,298,319,338,358,378,399,418,438,458,478,498,518,538,558,578,599,618,638,658,678,698,718,738,758,779,798,818,838,859,878,899,919,939,958,979,998,1019,1038,1058,1078],"xSR":741.5,"ySR":469.95,"xT1":424.9,"yT1":0,"xT2":1058.1,"yT2":0,"toosoon":0,"cond_shown":"randomdotsizeEA","ratio_trial":750,"smaller_num":"15","larger_num":"20","correct_side":2,"subjID":"SaraCastañedaPinzón27","gender":"1","age":"11","school":"6"},{"start_time":1551794851009,"click_time":1551794855505,"finger_time":1551794855325,"fix_duration":863.0165678253242,"trial":30,"RT":4316,"MT":180,"sideResp":2,"stimulus":"img/500/equaldotanddens/R/1_Ratio_500_L_9_R_18.png","xmouse":[798,798,798,798,798,798,798,798,798,798,798,798,798,798,798,798,798,798,798,798,798,798,798,798,798,798,798,798,798,798,798,798,798,798,798,798,798,798,798,798,798,798,798,798,798,798,798,798,798,798,798,798,798,798,798,798,798,798,798,798,798,798,798,798,798,798,798,798,798,798,798,798,798,798,798,798,798,798,798,798,798,798,798,798,798,798,798,798,798,798,798,798,798,798,798,798,798,798,798,798,798,798,798,798,798,798,798,798,798,798,798,798,798,798,798,798,798,798,798,798,798,798,798,798,798,798,798,798,798,798,798,798,798,798,798,798,798,798,798,798,798,798,798,798,798,798,798,798,798,798,798,798,798,798,798,798,798,798,798,798,798,798,798,798,798,798,798,798,798,798,798,798,798,798,798,798,798,798,798,798,798,798,798,798,798,798,798,798,798,798,798,798,798,798,798,798,798,798,798,798,798,798,798,798,798,798,798,798,798,798,798,798,799,808,821,853,879,913,943,973,1008,1041,1065,1083,1097],"ymouse":[507,507,507,507,507,507,507,507,507,507,507,507,507,507,507,507,507,507,507,507,507,507,507,507,507,507,507,507,507,507,507,507,507,507,507,507,507,507,507,507,507,507,507,507,507,507,507,507,507,507,507,507,507,507,507,507,507,507,507,507,507,507,507,507,507,507,507,507,507,507,507,507,507,507,507,507,507,507,507,507,507,507,507,507,507,507,507,507,507,507,507,507,507,507,507,507,507,507,507,507,507,507,507,507,507,507,507,507,507,507,507,507,507,507,507,507,507,507,507,507,507,507,507,507,507,507,507,507,507,507,507,507,507,507,507,507,507,507,507,507,507,507,507,507,507,507,507,507,507,507,507,507,507,507,507,507,507,507,507,507,507,507,507,507,507,507,507,507,507,507,507,507,507,507,507,507,507,507,507,507,507,507,507,507,507,507,507,507,507,507,507,507,507,507,507,507,507,507,507,507,507,507,507,507,507,507,507,507,507,507,507,507,507,498,475,386,329,282,241,208,165,133,115,102,93],"timestamp_mouse":[28,36,56,76,97,117,136,156,176,196,216,236,256,276,296,317,336,357,376,396,417,436,457,476,496,516,536,557,576,596,616,637,657,676,697,717,737,757,777,797,816,837,857,876,897,916,938,957,977,996,1016,1037,1056,1076,1097,1117,1137,1157,1177,1197,1217,1237,1257,1277,1296,1316,1337,1356,1377,1397,1417,1437,1457,1477,1496,1516,1536,1557,1577,1596,1616,1637,1656,1677,1696,1717,1736,1757,1776,1797,1817,1837,1857,1876,1896,1917,1936,1957,1976,1997,2016,2037,2057,2077,2097,2116,2137,2157,2177,2196,2216,2237,2257,2278,2297,2317,2336,2356,2377,2396,2417,2436,2458,2477,2496,2517,2536,2556,2577,2597,2616,2636,2658,2677,2697,2716,2737,2757,2776,2797,2817,2836,2858,2876,2897,2917,2936,2957,2977,2996,3017,3036,3056,3076,3096,3117,3137,3156,3176,3196,3216,3236,3257,3277,3296,3316,3337,3357,3376,3396,3416,3436,3456,3476,3497,3517,3537,3556,3576,3596,3616,3637,3656,3676,3696,3716,3737,3756,3776,3797,3816,3836,3856,3877,3896,3916,3936,3957,3977,3997,4016,4036,4057,4077,4096,4116,4137,4156,4176,4196,4217,4236,4256,4276,4296,4316,4336,4356,4377,4396,4416,4436,4456,4476,4496],"xSR":741.5,"ySR":469.95,"xT1":424.9,"yT1":0,"xT2":1058.1,"yT2":0,"toosoon":0,"cond_shown":"equaldotanddens","ratio_trial":500,"smaller_num":"9","larger_num":"18","correct_side":2,"subjID":"SaraCastañedaPinzón27","gender":"1","age":"11","school":"6"},{"start_time":1551794856658,"click_time":1551794857386,"finger_time":1551794857245,"fix_duration":250,"trial":31,"RT":587,"MT":141,"sideResp":2,"stimulus":"img/250/equaldotsize/R/4_Ratio_250_L_3_R_12.png","xmouse":[801,801,801,801,801,801,801,801,801,801,801,801,801,801,801,801,801,801,801,801,801,801,801,801,801,801,801,804,810,919,964,1004,1042,1072,1082,1082,1080],"ymouse":[517,517,517,517,517,517,517,517,517,517,517,517,517,517,517,517,517,517,517,517,517,517,517,517,517,517,517,514,506,371,309,249,192,150,114,106,96],"timestamp_mouse":[7,36,47,67,87,107,127,148,168,188,208,228,247,267,288,308,327,347,367,388,407,428,447,467,489,508,527,548,567,587,607,627,647,667,687,707,728],"xSR":741.5,"ySR":469.95,"xT1":424.9,"yT1":0,"xT2":1058.1,"yT2":0,"toosoon":0,"cond_shown":"equaldotsize","ratio_trial":250,"smaller_num":"3","larger_num":"12","correct_side":2,"subjID":"SaraCastañedaPinzón27","gender":"1","age":"11","school":"6"},{"start_time":1551794859835,"click_time":1551794860505,"finger_time":1551794860385,"fix_duration":1407.8542098842872,"trial":32,"RT":550,"MT":120,"sideResp":1,"stimulus":"img/500/equaldotsize/L/7_Ratio_500_L_10_R_5.png","xmouse":[758,758,758,758,758,758,758,758,758,758,758,758,758,758,758,758,758,758,758,758,758,758,758,759,759,759,754,730,688,589,549,537,529,523],"ymouse":[519,519,518,518,518,518,518,518,518,518,518,518,518,518,518,518,518,518,518,518,518,518,518,517,517,512,491,429,345,189,131,108,94,84],"timestamp_mouse":[10,35,50,71,91,111,131,151,171,190,211,230,250,271,291,310,330,350,371,390,410,430,451,470,491,510,531,550,571,590,610,630,651,670],"xSR":741.5,"ySR":469.95,"xT1":424.9,"yT1":0,"xT2":1058.1,"yT2":0,"toosoon":0,"cond_shown":"equaldotsize","ratio_trial":500,"smaller_num":"5","larger_num":"10","correct_side":1,"subjID":"SaraCastañedaPinzón27","gender":"1","age":"11","school":"6"},{"start_time":1551794861559,"click_time":1551794862526,"finger_time":1551794862386,"fix_duration":250,"trial":33,"RT":827,"MT":140,"sideResp":2,"stimulus":"img/250/randomdotsizeEA/R/9_Ratio_250_L_3_R_12.png","xmouse":[795,795,795,795,795,795,795,795,795,795,795,795,795,795,795,795,795,795,795,795,795,795,795,795,795,795,795,795,795,795,795,795,795,795,795,795,795,795,798,807,827,854,893,975,1027,1048,1056,1058,1062],"ymouse":[551,551,551,551,551,551,551,551,551,551,551,551,551,551,551,551,551,551,551,551,551,551,551,551,551,551,551,551,551,551,551,551,551,551,551,551,551,551,544,524,478,416,339,195,102,61,40,33,23],"timestamp_mouse":[9,29,46,67,87,106,128,146,166,187,206,226,246,266,287,306,326,347,366,386,406,426,446,466,486,506,527,546,566,586,606,626,646,666,687,706,726,746,766,786,806,827,847,867,886,906,927,947,967],"xSR":741.5,"ySR":469.95,"xT1":424.9,"yT1":0,"xT2":1058.1,"yT2":0,"toosoon":0,"cond_shown":"randomdotsizeEA","ratio_trial":250,"smaller_num":"3","larger_num":"12","correct_side":2,"subjID":"SaraCastañedaPinzón27","gender":"1","age":"11","school":"6"},{"start_time":1551794906035,"click_time":1551794907247,"finger_time":1551794906967,"fix_duration":666.397227426212,"trial":34,"RT":932,"MT":280,"sideResp":1,"stimulus":"img/750/equaldotanddens/L/10_Ratio_750_L_4_R_3.png","xmouse":[773,773,773,773,773,773,773,773,773,773,773,773,773,773,773,773,773,773,773,773,773,773,773,773,773,773,773,773,773,773,773,773,773,773,773,773,773,773,773,773,773,773,773,773,773,768,741,695,639,546,529,525,524,524,522,520,520,520,520,517,496],"ymouse":[495,495,495,495,495,495,495,495,495,495,495,495,495,495,495,495,495,495,495,495,495,495,495,495,495,495,495,495,495,495,495,495,495,495,495,495,495,495,495,495,495,495,495,495,495,479,428,361,282,148,125,121,120,119,118,118,118,118,118,116,92],"timestamp_mouse":[12,37,52,72,92,113,132,151,172,192,213,231,253,272,292,313,332,352,371,392,412,431,453,472,492,512,532,552,571,591,612,632,653,673,691,712,732,751,771,792,813,832,851,871,892,912,932,951,972,992,1012,1032,1051,1072,1092,1111,1132,1151,1171,1192,1212],"xSR":741.5,"ySR":469.95,"xT1":424.9,"yT1":0,"xT2":1058.1,"yT2":0,"toosoon":0,"cond_shown":"equaldotanddens","ratio_trial":750,"smaller_num":"3","larger_num":"4","correct_side":1,"subjID":"SaraCastañedaPinzón27","gender":"1","age":"11","school":"6"},{"start_time":1551794908817,"click_time":1551794909428,"finger_time":1551794909267,"fix_duration":1009.7792455595618,"trial":35,"RT":450,"MT":161,"sideResp":1,"stimulus":"img/500/equaldotsize/L/10_Ratio_500_L_4_R_2.png","xmouse":[810,810,810,810,810,810,810,810,810,810,810,810,810,810,810,810,810,810,810,805,800,757,718,664,626,598,580,566,550,541,522],"ymouse":[531,531,531,531,531,531,531,531,531,531,531,531,531,531,531,531,531,531,531,527,523,478,432,370,313,218,161,106,73,55,33],"timestamp_mouse":[9,30,50,69,90,109,129,150,170,189,210,231,250,270,290,310,331,351,370,390,410,429,450,470,490,510,529,550,571,590,611],"xSR":741.5,"ySR":469.95,"xT1":424.9,"yT1":0,"xT2":1058.1,"yT2":0,"toosoon":0,"cond_shown":"equaldotsize","ratio_trial":500,"smaller_num":"2","larger_num":"4","correct_side":1,"subjID":"SaraCastañedaPinzón27","gender":"1","age":"11","school":"6"},{"start_time":1551794910440,"click_time":1551794911307,"finger_time":1551794911047,"fix_duration":250,"trial":36,"RT":607,"MT":260,"sideResp":1,"stimulus":"img/750/equaldotsize/L/6_Ratio_750_L_24_R_18.png","xmouse":[790,790,790,790,790,790,790,790,790,790,790,790,790,790,790,790,790,790,790,790,790,790,790,790,790,789,787,783,781,776,762,756,747,735,685,643,602,570,553,531,519,508,500,492],"ymouse":[503,503,503,503,503,503,503,503,503,503,503,503,503,503,502,500,499,498,497,495,495,495,494,494,494,492,489,485,482,478,460,450,436,414,349,294,245,208,184,147,128,116,107,99],"timestamp_mouse":[6,33,47,67,88,106,128,148,168,186,207,228,246,268,287,307,327,347,367,387,407,427,448,468,487,507,527,546,567,586,607,627,647,666,687,707,727,747,767,788,807,827,846,867],"xSR":741.5,"ySR":469.95,"xT1":424.9,"yT1":0,"xT2":1058.1,"yT2":0,"toosoon":0,"cond_shown":"equaldotsize","ratio_trial":750,"smaller_num":"18","larger_num":"24","correct_side":1,"subjID":"SaraCastañedaPinzón27","gender":"1","age":"11","school":"6"},{"start_time":1551794912538,"click_time":1551794913628,"finger_time":1551794913487,"fix_duration":589.4917560004087,"trial":37,"RT":949,"MT":141,"sideResp":1,"stimulus":"img/900/randomdotsizeEA/R/9_Ratio_900_L_18_R_20.png","xmouse":[788,788,788,788,788,788,788,788,788,788,788,788,788,788,788,788,788,788,788,788,788,788,788,788,788,788,788,788,788,788,788,788,788,788,788,788,788,788,788,788,788,788,788,788,788,783,759,740,715,636,587,551,532,512,467],"ymouse":[531,531,531,531,531,531,531,531,531,531,531,531,531,531,531,531,531,531,531,531,531,531,531,531,531,531,531,530,530,530,530,530,530,530,530,530,530,530,530,530,530,530,530,530,530,520,486,452,408,296,241,203,173,140,94],"timestamp_mouse":[9,37,50,69,88,109,129,149,170,189,210,229,249,270,288,310,330,349,369,389,410,430,450,470,489,510,528,549,569,588,610,630,649,668,689,708,729,749,768,789,810,830,848,869,888,909,929,949,969,990,1009,1029,1050,1069,1090],"xSR":741.5,"ySR":469.95,"xT1":424.9,"yT1":0,"xT2":1058.1,"yT2":0,"toosoon":0,"cond_shown":"randomdotsizeEA","ratio_trial":900,"smaller_num":"18","larger_num":"20","correct_side":2,"subjID":"SaraCastañedaPinzón27","gender":"1","age":"11","school":"6"},{"start_time":1551794915398,"click_time":1551794916187,"finger_time":1551794915886,"fix_duration":1028.2348088418753,"trial":38,"RT":488,"MT":301,"sideResp":2,"stimulus":"img/250/equaldotanddens/R/12_Ratio_250_L_5_R_20.png","xmouse":[806,806,806,806,806,806,806,806,806,806,806,806,806,806,806,806,806,806,806,806,806,806,809,824,864,922,1062,1117,1164,1191,1200,1201,1200,1197,1193,1185,1168,1164,1160,1155],"ymouse":[542,542,542,542,542,542,542,542,542,542,542,542,542,542,542,542,542,542,542,542,542,542,532,505,450,380,259,206,154,120,99,80,79,75,69,61,44,43,42,41],"timestamp_mouse":[16,30,49,69,90,110,129,150,170,188,208,230,250,269,289,309,329,349,370,389,409,429,449,469,488,509,529,549,569,589,608,630,649,669,690,710,729,749,768,789],"xSR":741.5,"ySR":469.95,"xT1":424.9,"yT1":0,"xT2":1058.1,"yT2":0,"toosoon":0,"cond_shown":"equaldotanddens","ratio_trial":250,"smaller_num":"5","larger_num":"20","correct_side":2,"subjID":"SaraCastañedaPinzón27","gender":"1","age":"11","school":"6"},{"start_time":1551794918484,"click_time":1551794931207,"finger_time":1551794930287,"fix_duration":1355.881185620662,"trial":39,"RT":11803,"MT":920,"sideResp":1,"stimulus":"img/250/equaldotsize/L/7_Ratio_250_L_8_R_2.png","xmouse":[784,784,784,784,784,784,784,784,784,784,784,784,784,784,784,784,784,784,784,784,784,784,784,784,784,784,784,784,784,784,784,784,784,784,784,784,784,784,784,784,784,784,784,784,784,784,784,784,784,784,784,784,784,784,784,784,784,784,784,784,784,784,784,784,784,784,784,784,784,784,784,784,784,784,784,784,784,784,784,784,784,784,784,784,784,784,784,784,784,784,784,784,784,784,784,784,784,784,784,784,784,784,784,784,784,784,784,784,784,784,784,784,784,784,784,784,784,784,784,784,784,784,784,784,784,784,784,784,784,784,784,784,784,784,784,784,784,784,784,784,784,784,784,784,784,784,784,784,784,784,784,784,784,784,784,784,784,784,784,784,784,784,784,784,784,784,784,784,784,784,784,784,784,784,784,784,784,784,784,784,784,784,784,784,784,784,784,784,784,784,784,784,784,784,784,784,784,784,784,784,784,784,784,784,784,784,784,784,784,784,784,784,784,784,784,784,784,784,784,784,784,784,784,784,784,784,784,784,784,784,784,784,784,784,784,784,784,784,784,784,784,784,784,784,784,784,784,784,784,784,784,784,784,784,784,784,784,784,784,784,784,784,784,784,784,784,784,784,784,784,784,784,784,784,784,784,784,784,784,784,784,784,784,784,784,784,784,784,784,784,784,784,784,784,784,784,784,784,784,784,784,784,784,784,784,784,784,784,784,784,784,784,784,784,784,784,784,784,784,784,784,784,784,784,784,784,784,784,784,784,784,784,784,784,784,784,784,784,784,784,784,784,784,784,784,784,784,784,784,784,784,784,784,784,784,784,784,784,784,784,784,784,784,784,784,784,784,784,784,784,784,784,784,784,784,784,784,784,784,784,784,784,784,784,784,784,784,784,784,784,784,784,784,784,784,784,784,784,784,784,784,784,784,784,784,784,784,784,784,784,784,784,784,784,784,784,784,784,784,784,784,784,784,784,784,784,784,784,784,784,784,784,784,784,784,784,784,784,784,784,784,784,784,784,784,784,784,784,784,784,784,784,784,784,784,784,784,784,784,784,784,784,784,784,784,784,784,784,784,784,784,784,784,784,784,784,784,784,784,784,784,784,784,784,784,784,784,784,784,784,784,784,784,784,784,784,784,784,784,784,784,784,784,784,784,784,784,784,784,784,784,784,784,784,784,784,784,784,784,784,784,784,784,784,784,784,784,784,784,784,784,784,784,784,784,784,784,784,784,784,784,784,784,784,784,784,784,784,784,784,784,784,784,784,784,784,784,784,784,784,784,784,784,784,784,784,784,784,784,784,784,784,784,784,784,784,784,784,784,784,784,784,784,784,784,784,784,784,784,795,845,933,1086,1107,1120,1129,1135,1141,1141,1141,1141,1137,1106,1082,1049,1016,985,937,913,908,903,900,890,885,881,878,871,841,817,785,752,731,725,724,721,708,689,594,570,507,463,439,428,433,444,449,454],"ymouse":[508,508,508,508,508,508,508,508,508,508,508,508,508,508,508,508,508,508,508,508,508,508,508,508,508,508,508,508,508,508,508,508,508,508,508,508,508,508,508,508,508,508,508,508,508,508,508,508,508,508,508,508,508,508,508,508,508,508,508,508,508,508,508,508,508,508,508,508,508,508,508,508,508,508,508,508,508,508,508,508,508,508,508,508,508,508,508,508,508,508,508,508,508,508,508,508,508,508,508,508,508,508,508,508,508,508,508,508,508,508,508,508,508,508,508,508,508,508,508,508,508,508,508,508,508,508,508,508,508,508,508,508,508,508,508,508,508,508,508,508,508,508,508,508,508,508,508,508,508,508,508,508,508,508,508,508,508,508,508,508,508,508,508,508,508,508,508,508,508,508,508,508,508,508,508,508,508,508,508,508,508,508,508,508,508,508,508,508,508,508,508,508,508,508,508,508,508,508,508,508,508,508,508,508,508,508,508,508,508,508,508,508,508,508,508,508,508,508,508,508,508,508,508,508,508,508,508,508,508,508,508,508,508,508,508,508,508,508,508,508,508,508,508,508,508,508,508,508,508,508,508,508,508,508,508,508,508,508,508,508,508,508,508,508,508,508,508,508,508,508,508,508,508,508,508,508,508,508,508,508,508,508,508,508,508,508,508,508,508,508,508,508,508,508,508,508,508,508,508,508,508,508,508,508,508,508,508,508,508,508,508,508,508,508,508,508,508,508,508,508,508,508,508,508,508,508,508,508,508,508,508,508,508,508,508,508,508,508,508,508,508,508,508,508,508,508,508,508,508,508,508,508,508,508,508,508,508,508,508,508,508,508,508,508,508,508,508,508,508,508,508,508,508,508,508,508,508,508,508,508,508,508,508,508,508,508,508,508,508,508,508,508,508,508,508,508,508,508,508,508,508,508,508,508,508,508,508,508,508,508,508,508,508,508,508,508,508,508,508,508,508,508,508,508,508,508,508,508,508,508,508,508,508,508,508,508,508,508,508,508,508,508,508,508,508,508,508,508,508,508,508,508,508,508,508,508,508,508,508,508,508,508,508,508,508,508,508,508,508,508,508,508,508,508,508,508,508,508,508,508,508,508,508,508,508,508,508,508,508,508,508,508,508,508,508,508,508,508,508,508,508,508,508,508,508,508,508,508,508,508,508,508,508,508,508,508,508,508,508,508,508,508,508,508,508,508,508,508,508,508,508,508,508,508,508,508,508,508,508,508,508,508,508,508,508,508,508,508,508,508,508,508,508,508,508,508,508,508,508,508,508,508,508,508,508,508,508,508,508,508,508,508,508,508,508,508,508,508,508,508,508,508,508,508,508,508,508,508,508,508,503,488,442,426,412,399,390,384,384,386,394,407,430,441,456,464,473,482,483,483,483,482,481,480,478,477,476,484,496,509,520,526,525,523,514,496,466,325,299,231,200,181,167,132,109,103,93],"timestamp_mouse":[8,24,43,62,84,104,124,143,163,183,204,222,244,263,284,302,323,343,362,384,403,424,443,464,484,503,524,542,564,584,603,623,643,663,682,703,724,743,764,783,802,823,844,863,883,903,923,944,963,983,1003,1022,1043,1064,1084,1102,1124,1143,1162,1184,1203,1222,1243,1263,1284,1304,1324,1342,1364,1383,1404,1423,1443,1463,1484,1502,1524,1544,1564,1584,1604,1622,1643,1664,1683,1704,1722,1743,1763,1784,1803,1824,1844,1864,1883,1904,1924,1944,1964,1983,2004,2023,2043,2064,2082,2103,2124,2144,2163,2182,2203,2223,2243,2262,2284,2304,2323,2343,2364,2384,2404,2422,2443,2464,2484,2503,2523,2544,2563,2582,2604,2623,2643,2664,2684,2704,2723,2743,2764,2783,2804,2824,2844,2863,2884,2903,2922,2944,2964,2983,3004,3024,3043,3063,3083,3103,3124,3144,3164,3183,3202,3223,3244,3263,3283,3304,3322,3344,3364,3384,3403,3424,3442,3463,3482,3503,3523,3542,3564,3582,3604,3622,3643,3664,3682,3703,3724,3742,3764,3783,3804,3823,3842,3864,3884,3903,3922,3944,3963,3984,4004,4024,4043,4063,4084,4104,4124,4143,4164,4183,4203,4222,4243,4262,4283,4302,4324,4342,4364,4384,4404,4424,4443,4463,4484,4504,4524,4544,4564,4583,4604,4624,4644,4664,4683,4702,4724,4742,4764,4783,4802,4823,4843,4864,4882,4903,4923,4943,4964,4983,5002,5022,5044,5064,5084,5102,5122,5143,5164,5182,5203,5223,5242,5263,5284,5303,5323,5342,5364,5384,5404,5424,5444,5463,5483,5504,5523,5544,5564,5584,5603,5623,5643,5663,5684,5704,5722,5744,5764,5784,5804,5823,5844,5863,5882,5904,5923,5943,5964,5983,6004,6024,6042,6064,6084,6103,6123,6143,6163,6184,6202,6222,6243,6264,6282,6303,6324,6344,6363,6384,6403,6424,6442,6462,6482,6504,6523,6543,6564,6584,6603,6624,6644,6662,6684,6703,6724,6744,6764,6782,6804,6823,6842,6863,6884,6903,6924,6944,6964,6984,7003,7022,7042,7064,7082,7103,7123,7144,7164,7184,7203,7223,7244,7262,7283,7303,7324,7343,7363,7384,7404,7423,7444,7463,7483,7504,7524,7542,7564,7584,7603,7624,7643,7663,7683,7703,7723,7743,7764,7784,7804,7824,7844,7864,7884,7903,7924,7944,7964,7983,8002,8023,8044,8064,8082,8103,8124,8143,8164,8183,8204,8224,8244,8263,8283,8303,8324,8343,8363,8384,8403,8424,8443,8464,8484,8504,8523,8544,8562,8583,8603,8624,8643,8663,8683,8703,8723,8743,8764,8784,8802,8824,8844,8863,8882,8903,8923,8943,8964,8984,9004,9023,9042,9064,9084,9103,9122,9144,9164,9184,9202,9224,9244,9263,9283,9303,9323,9344,9364,9382,9403,9424,9444,9464,9482,9503,9523,9544,9564,9582,9603,9623,9643,9662,9683,9704,9724,9743,9764,9784,9804,9822,9844,9863,9884,9902,9923,9942,9964,9984,10004,10022,10044,10064,10083,10103,10123,10144,10163,10183,10204,10224,10244,10263,10283,10303,10324,10342,10364,10384,10404,10423,10444,10464,10483,10503,10523,10543,10564,10583,10604,10624,10644,10664,10683,10704,10724,10744,10764,10784,10802,10823,10844,10863,10882,10903,10923,10942,10964,10984,11002,11023,11044,11064,11082,11104,11122,11144,11164,11182,11204,11223,11242,11264,11282,11304,11323,11344,11364,11382,11403,11423,11444,11462,11484,11504,11524,11542,11564,11583,11604,11623,11644,11664,11684,11703,11724,11743,11763,11783,11803,11823,11842,11863,11883,11903,11924,11943,11963,11983,12003,12024,12043,12063,12082,12103,12124,12143,12163,12183,12203,12222,12243,12263,12284,12303,12324,12344,12363,12383,12403,12423,12443,12462,12483,12503,12523,12544,12563,12583,12603,12622,12643,12663,12683,12703,12723],"xSR":741.5,"ySR":469.95,"xT1":424.9,"yT1":0,"xT2":1058.1,"yT2":0,"toosoon":0,"cond_shown":"equaldotsize","ratio_trial":250,"smaller_num":"2","larger_num":"8","correct_side":1,"subjID":"SaraCastañedaPinzón27","gender":"1","age":"11","school":"6"},{"start_time":1551794932667,"click_time":1551794933327,"finger_time":1551794933067,"fix_duration":697.2075544062021,"trial":40,"RT":400,"MT":260,"sideResp":2,"stimulus":"img/250/equaldotanddens/R/12_Ratio_250_L_5_R_20.png","xmouse":[787,787,787,787,787,787,787,787,787,787,787,787,787,787,787,787,787,787,788,809,846,904,981,1061,1161,1175,1175,1175,1175,1175,1175,1175,1173,1154],"ymouse":[502,502,502,502,502,502,502,502,502,502,502,502,502,502,502,502,502,502,502,489,452,383,291,180,33,22,22,21,19,16,16,15,13,9],"timestamp_mouse":[8,20,39,60,81,99,119,140,160,179,200,220,240,260,280,299,319,340,360,379,400,420,440,461,480,500,520,540,559,580,600,621,640,659],"xSR":741.5,"ySR":469.95,"xT1":424.9,"yT1":0,"xT2":1058.1,"yT2":0,"toosoon":0,"cond_shown":"equaldotanddens","ratio_trial":250,"smaller_num":"5","larger_num":"20","correct_side":2,"subjID":"SaraCastañedaPinzón27","gender":"1","age":"11","school":"6"},{"start_time":1551794936323,"click_time":1551794937206,"finger_time":1551794936887,"fix_duration":414.07123293203364,"trial":41,"RT":564,"MT":319,"sideResp":1,"stimulus":"img/750/randomdotsizeEA/L/9_Ratio_750_L_4_R_3.png","xmouse":[796,796,796,796,796,796,796,796,796,796,796,796,796,796,796,796,796,796,796,796,796,796,796,796,796,796,782,762,728,690,600,570,541,526,513,490,479,469,465,465,465,465,465,465,465],"ymouse":[521,521,521,521,521,521,521,521,521,521,521,521,521,521,521,521,521,521,521,521,521,521,521,521,521,520,499,471,424,374,267,234,204,187,173,147,138,131,128,128,127,124,119,111,99],"timestamp_mouse":[13,34,44,64,85,104,124,145,164,185,204,225,245,264,285,304,324,345,364,384,403,425,444,464,484,504,524,544,564,584,604,624,643,665,685,705,723,744,763,785,804,824,844,864,883],"xSR":741.5,"ySR":469.95,"xT1":424.9,"yT1":0,"xT2":1058.1,"yT2":0,"toosoon":0,"cond_shown":"randomdotsizeEA","ratio_trial":750,"smaller_num":"3","larger_num":"4","correct_side":1,"subjID":"SaraCastañedaPinzón27","gender":"1","age":"11","school":"6"},{"start_time":1551794939461,"click_time":1551794942947,"finger_time":1551794940547,"fix_duration":1431.86950584912,"trial":42,"RT":1086,"MT":2400,"sideResp":1,"stimulus":"img/250/randomdotsizeEA/L/2_Ratio_250_L_16_R_4.png","xmouse":[806,806,806,806,806,806,806,806,806,806,806,806,806,806,806,806,807,807,807,807,807,807,807,807,807,807,807,807,807,807,807,807,807,807,807,807,807,807,807,807,807,807,806,803,800,799,799,799,799,799,799,796,794,784,764,761,761,769,784,786,786,786,786,786,786,786,786,786,786,786,786,786,786,786,788,789,790,791,793,793,796,799,804,822,834,842,848,852,852,852,846,842,839,838,838,838,837,836,836,836,836,836,836,836,836,836,835,833,828,808,796,787,777,761,754,745,735,724,706,690,683,677,675,669,669,667,666,665,663,659,654,647,644,641,640,640,640,640,640,640,640,640,640,640,640,641,643,646,648,648,648,648,648,648,648,648,645,624,548,534,529,529,535,537,533,520,511,506,495,493,492,490,484,471,471],"ymouse":[512,512,512,512,512,512,512,512,512,512,512,512,512,512,512,512,511,510,510,510,510,510,510,510,510,510,510,510,510,510,510,510,510,510,510,510,510,510,510,510,510,509,509,514,517,518,519,519,519,519,519,519,519,510,435,363,279,198,92,57,40,26,23,18,16,15,15,15,15,15,14,14,14,14,15,15,17,18,20,20,22,26,34,64,84,106,140,175,235,267,285,299,310,323,329,335,340,343,343,343,343,344,345,345,345,345,344,342,332,302,281,267,253,238,234,228,224,220,215,214,214,213,213,210,210,210,209,208,196,177,168,161,157,152,151,151,151,151,151,151,151,151,151,151,151,151,150,149,147,147,147,147,147,147,147,147,147,147,164,174,181,190,197,197,194,174,157,151,140,138,136,134,127,109,99],"timestamp_mouse":[7,27,46,66,86,106,127,146,166,186,205,227,246,266,287,306,326,346,366,386,406,427,446,467,486,505,525,547,566,587,605,627,646,665,686,707,727,745,765,786,807,826,846,866,886,906,926,945,967,986,1006,1026,1046,1066,1086,1106,1126,1147,1166,1186,1206,1226,1246,1266,1286,1306,1326,1346,1367,1386,1406,1425,1447,1467,1486,1506,1526,1546,1566,1586,1606,1626,1646,1666,1686,1706,1726,1746,1766,1785,1806,1827,1845,1866,1886,1906,1927,1946,1966,1985,2006,2026,2047,2066,2087,2105,2126,2147,2166,2186,2206,2227,2246,2266,2286,2306,2325,2347,2366,2386,2406,2425,2445,2466,2485,2506,2527,2546,2567,2586,2606,2627,2646,2666,2686,2706,2727,2747,2767,2786,2806,2825,2847,2867,2886,2906,2926,2945,2966,2986,3005,3026,3046,3067,3086,3105,3126,3146,3167,3185,3206,3227,3246,3267,3286,3306,3327,3345,3367,3385,3406,3426,3445,3466,3486],"xSR":741.5,"ySR":469.95,"xT1":424.9,"yT1":0,"xT2":1058.1,"yT2":0,"toosoon":0,"cond_shown":"randomdotsizeEA","ratio_trial":250,"smaller_num":"4","larger_num":"16","correct_side":1,"subjID":"SaraCastañedaPinzón27","gender":"1","age":"11","school":"6"},{"start_time":1551794944318,"click_time":1551794944947,"finger_time":1551794944807,"fix_duration":250,"trial":43,"RT":489,"MT":140,"sideResp":1,"stimulus":"img/750/equaldotsize/L/8_Ratio_750_L_4_R_3.png","xmouse":[793,793,793,793,793,793,793,793,793,793,793,793,793,793,793,793,793,793,793,793,791,789,784,774,746,664,625,604,587,573,540,522],"ymouse":[505,505,505,505,505,505,505,505,505,505,505,505,505,505,505,505,505,505,505,505,503,502,498,481,435,284,196,159,130,112,90,78],"timestamp_mouse":[9,38,49,68,88,110,135,149,169,189,208,229,250,270,288,309,328,350,369,388,409,429,448,470,489,510,529,549,570,589,609,628],"xSR":741.5,"ySR":469.95,"xT1":424.9,"yT1":0,"xT2":1058.1,"yT2":0,"toosoon":0,"cond_shown":"equaldotsize","ratio_trial":750,"smaller_num":"3","larger_num":"4","correct_side":1,"subjID":"SaraCastañedaPinzón27","gender":"1","age":"11","school":"6"},{"start_time":1551794946449,"click_time":1551794946987,"finger_time":1551794946907,"fix_duration":821.7026871747674,"trial":44,"RT":458,"MT":80,"sideResp":2,"stimulus":"img/500/equaldotanddens/R/6_Ratio_500_L_9_R_18.png","xmouse":[778,778,778,778,778,778,778,778,778,778,778,778,778,778,778,778,778,778,778,778,778,782,811,946,1030,1103,1152],"ymouse":[502,502,502,502,502,502,502,502,502,502,502,502,502,502,502,502,502,502,502,502,502,489,438,253,175,112,68],"timestamp_mouse":[17,37,59,78,99,117,138,158,177,199,219,237,257,278,298,318,337,357,378,398,418,438,458,478,497,518,537],"xSR":741.5,"ySR":469.95,"xT1":424.9,"yT1":0,"xT2":1058.1,"yT2":0,"toosoon":0,"cond_shown":"equaldotanddens","ratio_trial":500,"smaller_num":"9","larger_num":"18","correct_side":2,"subjID":"SaraCastañedaPinzón27","gender":"1","age":"11","school":"6"},{"start_time":1551794954223,"click_time":1551794955048,"finger_time":1551794954706,"fix_duration":1495.8964817271271,"trial":45,"RT":483,"MT":342,"sideResp":2,"stimulus":"img/900/randomdotsizeEA/R/11_Ratio_900_L_18_R_20.png","xmouse":[777,777,777,777,777,777,777,777,777,777,777,777,777,777,777,777,777,777,777,777,777,778,790,806,829,901,932,965,993,1004,1012,1021,1023,1025,1027,1030,1031,1031,1031,1031,1036,1091],"ymouse":[500,500,500,500,500,500,500,500,500,500,500,500,500,500,500,500,500,500,500,500,500,500,491,475,455,346,295,244,194,168,149,130,124,121,116,110,109,109,109,108,105,90],"timestamp_mouse":[8,24,50,64,84,103,124,144,163,183,205,225,243,264,284,304,324,344,364,385,404,425,444,465,483,504,523,544,564,585,603,624,644,664,684,703,723,745,764,785,804,825],"xSR":741.5,"ySR":469.95,"xT1":424.9,"yT1":0,"xT2":1058.1,"yT2":0,"toosoon":0,"cond_shown":"randomdotsizeEA","ratio_trial":900,"smaller_num":"18","larger_num":"20","correct_side":2,"subjID":"SaraCastañedaPinzón27","gender":"1","age":"11","school":"6"},{"start_time":1551794961291,"click_time":1551794964328,"finger_time":1551794964148,"fix_duration":363.87335700944976,"trial":46,"RT":2857,"MT":180,"sideResp":1,"stimulus":"img/500/equaldotanddens/R/9_Ratio_500_L_2_R_4.png","xmouse":[766,766,766,766,766,766,766,766,766,766,766,766,766,766,766,766,766,766,766,766,766,766,766,766,766,766,766,766,766,766,766,766,766,766,766,766,766,766,766,766,766,766,766,766,766,766,766,766,766,766,766,766,766,766,766,766,765,765,765,765,765,765,765,765,765,765,765,765,765,765,765,765,765,765,765,765,765,765,765,765,765,765,765,765,765,765,765,765,765,765,765,765,765,767,768,771,774,775,775,775,775,775,775,775,775,775,775,775,775,775,775,775,775,775,775,775,775,775,775,778,778,783,784,785,786,787,787,787,787,787,787,787,787,787,787,787,787,787,787,787,787,787,763,717,650,585,489,457,451,448,447,443],"ymouse":[554,554,554,554,554,554,554,554,554,554,554,554,554,554,554,554,554,554,554,554,554,554,554,554,554,554,554,554,554,554,554,554,554,554,554,554,554,554,554,554,554,554,554,554,554,554,554,554,554,554,554,554,554,554,554,554,554,556,556,557,557,557,557,557,557,557,557,557,557,557,557,557,557,557,557,557,557,557,557,557,557,557,557,557,557,557,557,557,557,557,557,557,557,559,560,561,562,563,563,563,563,563,563,563,563,563,563,563,563,563,563,563,563,563,563,563,563,563,563,555,534,502,496,489,487,486,486,486,486,486,486,486,486,486,486,486,486,486,486,486,486,474,426,365,301,237,158,125,115,108,104,99],"timestamp_mouse":[19,36,56,76,96,116,136,155,177,197,217,235,255,276,295,316,336,357,377,395,416,437,455,477,497,515,536,555,575,596,617,636,655,677,696,716,735,757,776,795,817,836,857,877,895,917,936,957,975,996,1016,1036,1057,1076,1096,1115,1136,1156,1176,1196,1215,1236,1257,1276,1297,1316,1337,1356,1375,1397,1415,1437,1456,1476,1497,1517,1537,1555,1575,1596,1616,1638,1657,1677,1699,1718,1738,1758,1778,1798,1817,1837,1858,1877,1897,1918,1937,1957,1978,1998,2018,2037,2057,2077,2098,2118,2138,2158,2178,2198,2217,2237,2258,2277,2297,2317,2337,2358,2377,2398,2417,2437,2457,2477,2497,2517,2537,2557,2578,2598,2618,2637,2657,2678,2698,2718,2738,2758,2778,2798,2817,2838,2857,2877,2897,2917,2938,2958,2977,2997,3018,3037],"xSR":741.5,"ySR":469.95,"xT1":424.9,"yT1":0,"xT2":1058.1,"yT2":0,"toosoon":0,"cond_shown":"equaldotanddens","ratio_trial":500,"smaller_num":"2","larger_num":"4","correct_side":2,"subjID":"SaraCastañedaPinzón27","gender":"1","age":"11","school":"6"},{"start_time":1551794965567,"click_time":1551794966169,"finger_time":1551794966009,"fix_duration":378.1733227943158,"trial":47,"RT":442,"MT":160,"sideResp":2,"stimulus":"img/250/equaldotsize/R/12_Ratio_250_L_5_R_20.png","xmouse":[789,789,789,789,789,789,789,789,789,789,789,789,789,789,789,789,789,789,789,789,798,814,860,946,977,982,990,1001,1020,1054,1070],"ymouse":[541,541,541,541,541,541,541,541,541,541,541,541,541,541,541,541,541,541,541,541,532,504,421,237,124,88,67,53,41,25,16],"timestamp_mouse":[8,29,41,61,82,101,121,141,161,182,202,222,242,261,282,301,321,341,362,381,402,422,442,462,481,501,521,541,561,581,601],"xSR":741.5,"ySR":469.95,"xT1":424.9,"yT1":0,"xT2":1058.1,"yT2":0,"toosoon":0,"cond_shown":"equaldotsize","ratio_trial":250,"smaller_num":"5","larger_num":"20","correct_side":2,"subjID":"SaraCastañedaPinzón27","gender":"1","age":"11","school":"6"},{"start_time":1551794967196,"click_time":1551794967728,"finger_time":1551794967648,"fix_duration":366.7517155542326,"trial":48,"RT":452,"MT":80,"sideResp":1,"stimulus":"img/750/equaldotsize/L/14_Ratio_750_L_8_R_6.png","xmouse":[828,828,828,828,828,828,828,828,828,828,828,828,828,828,828,828,828,828,828,828,827,815,762,691,600,519,451],"ymouse":[509,509,509,509,509,509,509,509,509,509,509,509,509,509,509,509,509,509,509,509,509,500,419,323,228,155,81],"timestamp_mouse":[13,32,53,73,93,112,132,152,172,192,213,232,252,272,292,312,332,353,372,393,412,432,452,472,492,512,532],"xSR":741.5,"ySR":469.95,"xT1":424.9,"yT1":0,"xT2":1058.1,"yT2":0,"toosoon":0,"cond_shown":"equaldotsize","ratio_trial":750,"smaller_num":"6","larger_num":"8","correct_side":1,"subjID":"SaraCastañedaPinzón27","gender":"1","age":"11","school":"6"},{"start_time":1551794969533,"click_time":1551794970828,"finger_time":1551794970189,"fix_duration":1023.5688355824925,"trial":49,"RT":656,"MT":639,"sideResp":1,"stimulus":"img/900/equaldotanddens/R/9_Ratio_900_L_18_R_20.png","xmouse":[775,775,775,775,775,775,775,775,775,775,775,775,775,775,775,775,775,775,775,775,775,775,775,775,775,775,775,775,775,775,775,777,811,861,966,990,993,993,993,993,993,994,994,994,994,992,983,966,942,813,743,685,652,633,611,596,589,578,565,556,549,544,535,526,515],"ymouse":[505,505,505,505,505,505,505,505,505,505,505,505,505,505,505,505,505,505,505,505,505,505,505,505,505,505,505,505,505,505,503,486,435,364,243,214,210,210,210,210,210,209,209,209,209,208,205,201,197,176,168,158,149,141,126,113,108,103,99,96,92,91,89,87,86],"timestamp_mouse":[15,35,58,75,95,115,135,155,175,195,215,236,255,275,295,316,335,355,376,395,416,436,456,475,495,515,535,557,576,596,615,635,656,675,695,715,735,756,775,795,816,835,856,876,896,916,935,956,975,996,1015,1035,1055,1076,1096,1115,1135,1157,1175,1195,1215,1235,1255,1275,1295],"xSR":741.5,"ySR":469.95,"xT1":424.9,"yT1":0,"xT2":1058.1,"yT2":0,"toosoon":0,"cond_shown":"equaldotanddens","ratio_trial":900,"smaller_num":"18","larger_num":"20","correct_side":2,"subjID":"SaraCastañedaPinzón27","gender":"1","age":"11","school":"6"},{"start_time":1551794973017,"click_time":1551794973848,"finger_time":1551794973529,"fix_duration":1407.2167352215797,"trial":50,"RT":512,"MT":319,"sideResp":1,"stimulus":"img/500/randomdotsizeEA/L/4_Ratio_500_L_18_R_9.png","xmouse":[815,815,815,815,815,815,815,815,815,815,815,815,815,815,815,814,814,818,820,820,821,821,817,809,795,728,677,624,586,569,552,547,547,546,546,546,546,546,546,545,536,524],"ymouse":[519,519,519,519,519,519,519,519,519,519,519,519,519,519,519,519,516,504,498,496,495,493,492,485,475,401,313,222,158,126,97,89,89,89,89,89,89,89,88,87,87,82],"timestamp_mouse":[12,35,52,73,91,112,131,152,172,191,211,231,252,271,292,311,331,351,371,391,412,432,451,471,491,512,531,551,571,591,612,631,651,671,691,712,731,751,771,791,811,831],"xSR":741.5,"ySR":469.95,"xT1":424.9,"yT1":0,"xT2":1058.1,"yT2":0,"toosoon":0,"cond_shown":"randomdotsizeEA","ratio_trial":500,"smaller_num":"9","larger_num":"18","correct_side":1,"subjID":"SaraCastañedaPinzón27","gender":"1","age":"11","school":"6"},{"start_time":1551794975799,"click_time":1551794976348,"finger_time":1551794976129,"fix_duration":1370.8099215853351,"trial":51,"RT":330,"MT":219,"sideResp":1,"stimulus":"img/250/equaldotsize/L/5_Ratio_250_L_24_R_6.png","xmouse":[759,759,759,759,759,759,759,759,759,759,759,759,759,759,761,763,784,792,795,795,795,769,695,643,589,547,489,474],"ymouse":[524,524,524,524,524,524,524,524,524,524,524,524,524,524,523,517,468,444,434,430,428,405,354,317,270,210,119,97],"timestamp_mouse":[11,43,49,70,89,109,129,150,169,190,210,229,250,270,289,309,330,349,369,390,409,430,449,469,489,510,529,549],"xSR":741.5,"ySR":469.95,"xT1":424.9,"yT1":0,"xT2":1058.1,"yT2":0,"toosoon":0,"cond_shown":"equaldotsize","ratio_trial":250,"smaller_num":"6","larger_num":"24","correct_side":1,"subjID":"SaraCastañedaPinzón27","gender":"1","age":"11","school":"6"},{"start_time":1551794978066,"click_time":1551794978668,"finger_time":1551794978548,"fix_duration":637.7701980560271,"trial":52,"RT":482,"MT":120,"sideResp":2,"stimulus":"img/250/equaldotanddens/R/10_Ratio_250_L_4_R_16.png","xmouse":[760,760,760,760,760,760,760,760,760,760,760,760,760,760,760,760,760,760,760,760,760,760,762,787,816,849,879,909,989,1041,1063],"ymouse":[530,530,530,530,530,530,530,530,530,530,530,530,530,530,530,530,530,530,530,530,530,527,523,489,448,399,346,288,173,117,92],"timestamp_mouse":[9,26,42,62,84,103,123,142,162,183,202,222,242,263,282,302,323,342,363,383,402,422,442,462,482,502,522,543,563,582,602],"xSR":741.5,"ySR":469.95,"xT1":424.9,"yT1":0,"xT2":1058.1,"yT2":0,"toosoon":0,"cond_shown":"equaldotanddens","ratio_trial":250,"smaller_num":"4","larger_num":"16","correct_side":2,"subjID":"SaraCastañedaPinzón27","gender":"1","age":"11","school":"6"},{"start_time":1551794980614,"click_time":1551794981168,"finger_time":1551794981028,"fix_duration":844.7354582612454,"trial":53,"RT":414,"MT":140,"sideResp":1,"stimulus":"img/750/equaldotanddens/L/1_Ratio_750_L_20_R_15.png","xmouse":[786,786,786,786,786,786,786,786,786,786,786,786,786,786,786,786,786,783,780,779,774,761,744,710,661,563,529,513],"ymouse":[502,502,502,502,502,502,502,502,502,502,502,502,502,502,502,502,502,494,482,475,457,429,394,331,253,135,102,86],"timestamp_mouse":[28,34,55,75,94,114,134,154,174,194,214,235,254,274,294,314,334,354,374,396,414,434,454,475,494,514,534,554],"xSR":741.5,"ySR":469.95,"xT1":424.9,"yT1":0,"xT2":1058.1,"yT2":0,"toosoon":0,"cond_shown":"equaldotanddens","ratio_trial":750,"smaller_num":"15","larger_num":"20","correct_side":1,"subjID":"SaraCastañedaPinzón27","gender":"1","age":"11","school":"6"},{"start_time":1551794982896,"click_time":1551794983948,"finger_time":1551794983629,"fix_duration":1066.8025539854898,"trial":54,"RT":733,"MT":319,"sideResp":1,"stimulus":"img/500/equaldotsize/L/7_Ratio_500_L_10_R_5.png","xmouse":[796,796,796,796,796,796,796,796,796,796,796,796,796,796,796,796,796,796,796,796,796,796,796,796,796,796,796,796,796,796,796,796,796,796,796,796,751,704,647,603,573,553,545,541,538,536,532,521,519,518,517,515,506],"ymouse":[507,507,507,507,507,507,507,507,507,507,507,507,507,507,507,507,507,507,507,507,507,507,507,507,507,507,507,507,507,507,507,507,507,507,507,506,428,362,290,230,188,153,143,136,133,131,126,111,109,108,106,104,89],"timestamp_mouse":[12,32,53,72,92,113,133,152,172,193,212,232,252,272,293,313,334,353,374,393,413,432,453,473,494,513,532,552,573,592,613,633,653,672,693,712,733,752,772,793,812,832,852,872,892,913,932,953,972,992,1012,1033,1052],"xSR":741.5,"ySR":469.95,"xT1":424.9,"yT1":0,"xT2":1058.1,"yT2":0,"toosoon":0,"cond_shown":"equaldotsize","ratio_trial":500,"smaller_num":"5","larger_num":"10","correct_side":1,"subjID":"SaraCastañedaPinzón27","gender":"1","age":"11","school":"6"},{"start_time":1551794993392,"click_time":1551794994129,"finger_time":1551794993908,"fix_duration":843.8745817963658,"trial":55,"RT":516,"MT":221,"sideResp":2,"stimulus":"img/900/equaldotsize/L/8_Ratio_900_L_20_R_18.png","xmouse":[796,796,796,796,796,796,796,796,796,796,796,796,796,796,796,796,796,796,797,797,797,800,809,815,826,845,923,977,1029,1072,1096,1117,1123,1126,1127,1127,1127],"ymouse":[535,535,535,535,535,535,535,535,535,535,535,535,535,535,535,535,535,535,534,533,531,520,503,491,477,451,346,284,234,199,183,158,139,126,118,109,95],"timestamp_mouse":[16,38,56,77,96,117,136,156,176,196,217,236,256,276,297,317,337,357,376,396,416,436,456,476,497,516,537,556,576,596,616,637,657,676,696,716,737],"xSR":741.5,"ySR":469.95,"xT1":424.9,"yT1":0,"xT2":1058.1,"yT2":0,"toosoon":0,"cond_shown":"equaldotsize","ratio_trial":900,"smaller_num":"18","larger_num":"20","correct_side":1,"subjID":"SaraCastañedaPinzón27","gender":"1","age":"11","school":"6"},{"start_time":1551794996254,"click_time":1551794997229,"finger_time":1551794997008,"fix_duration":1282.9670884283057,"trial":56,"RT":754,"MT":221,"sideResp":2,"stimulus":"img/750/randomdotsizeEA/R/11_Ratio_750_L_12_R_16.png","xmouse":[791,791,791,791,791,791,791,791,791,791,791,791,791,791,791,791,791,791,791,791,791,791,791,791,791,791,791,791,791,791,791,791,791,791,791,792,799,822,910,949,965,990,1027,1083,1101,1111,1119,1123,1129],"ymouse":[516,516,516,516,516,516,516,516,516,516,516,516,516,516,516,516,516,516,516,516,516,516,516,516,516,516,516,516,516,503,493,487,484,482,482,480,473,453,363,297,255,217,178,143,134,126,119,112,92],"timestamp_mouse":[14,36,54,74,94,114,135,154,174,195,214,234,255,275,295,314,335,355,374,394,414,435,455,474,496,515,534,555,574,594,614,636,654,675,695,715,735,754,774,795,814,834,854,875,894,914,935,954,975],"xSR":741.5,"ySR":469.95,"xT1":424.9,"yT1":0,"xT2":1058.1,"yT2":0,"toosoon":0,"cond_shown":"randomdotsizeEA","ratio_trial":750,"smaller_num":"12","larger_num":"16","correct_side":2,"subjID":"SaraCastañedaPinzón27","gender":"1","age":"11","school":"6"},{"start_time":1551794999259,"click_time":1551795000128,"finger_time":1551794999809,"fix_duration":1229.5097004286245,"trial":57,"RT":550,"MT":319,"sideResp":1,"stimulus":"img/500/equaldotanddens/L/10_Ratio_500_L_4_R_2.png","xmouse":[778,778,778,778,778,778,778,778,778,778,778,778,778,778,778,778,778,778,778,778,778,778,778,778,778,769,759,721,639,606,603,600,597,591,590,588,585,580,562,553,545,535,525,509],"ymouse":[526,526,526,526,526,526,526,526,526,526,526,526,526,526,526,526,526,526,526,526,526,526,526,526,526,518,504,450,296,217,197,178,163,137,131,126,120,113,98,93,88,82,78,68],"timestamp_mouse":[11,32,50,69,90,109,129,149,169,190,210,229,249,269,289,309,329,350,371,390,410,429,450,470,489,509,529,550,569,589,609,629,650,669,689,710,729,749,770,789,809,829,849,869],"xSR":741.5,"ySR":469.95,"xT1":424.9,"yT1":0,"xT2":1058.1,"yT2":0,"toosoon":0,"cond_shown":"equaldotanddens","ratio_trial":500,"smaller_num":"2","larger_num":"4","correct_side":1,"subjID":"SaraCastañedaPinzón27","gender":"1","age":"11","school":"6"},{"start_time":1551795001630,"click_time":1551795002648,"finger_time":1551795002368,"fix_duration":800.7106507543086,"trial":58,"RT":738,"MT":280,"sideResp":1,"stimulus":"img/900/randomdotsizeEA/L/8_Ratio_900_L_20_R_18.png","xmouse":[807,807,807,807,807,807,807,807,807,807,807,807,807,807,807,807,807,807,807,807,807,807,807,807,807,807,807,807,807,807,807,807,807,807,807,805,798,789,778,757,745,714,687,663,640,585,566,548,533,517,515],"ymouse":[541,541,541,541,541,541,541,541,541,541,541,541,541,541,541,541,541,541,541,541,541,541,541,541,541,541,541,541,541,541,541,541,541,531,498,471,444,420,398,358,331,286,258,237,220,177,161,145,127,102,98],"timestamp_mouse":[27,39,58,78,99,118,138,159,179,199,219,239,259,278,299,319,339,358,378,398,419,438,459,479,499,519,539,558,578,598,618,638,658,678,698,718,738,759,778,798,818,838,859,878,898,918,938,958,979,999,1018],"xSR":741.5,"ySR":469.95,"xT1":424.9,"yT1":0,"xT2":1058.1,"yT2":0,"toosoon":0,"cond_shown":"randomdotsizeEA","ratio_trial":900,"smaller_num":"18","larger_num":"20","correct_side":1,"subjID":"SaraCastañedaPinzón27","gender":"1","age":"11","school":"6"},{"start_time":1551795005168,"click_time":1551795006028,"finger_time":1551795005648,"fix_duration":279.2513605805854,"trial":59,"RT":480,"MT":380,"sideResp":2,"stimulus":"img/500/equaldotsize/R/1_Ratio_500_L_9_R_18.png","xmouse":[767,767,767,767,767,767,767,767,767,767,767,767,767,767,767,767,767,767,767,767,767,767,770,785,818,862,914,959,990,996,998,1004,1009,1016,1017,1018,1019,1022,1033,1042,1048,1053,1056,1064],"ymouse":[518,518,518,518,518,518,518,518,518,518,518,518,518,518,518,518,518,518,518,518,518,518,516,478,415,337,257,194,137,122,112,102,95,87,87,86,85,84,77,74,71,69,68,65],"timestamp_mouse":[10,20,41,61,80,100,120,141,160,180,200,221,240,260,280,301,321,340,360,381,400,420,440,460,480,500,520,541,560,580,600,621,641,661,681,700,720,741,760,780,800,820,840,860],"xSR":741.5,"ySR":469.95,"xT1":424.9,"yT1":0,"xT2":1058.1,"yT2":0,"toosoon":0,"cond_shown":"equaldotsize","ratio_trial":500,"smaller_num":"9","larger_num":"18","correct_side":2,"subjID":"SaraCastañedaPinzón27","gender":"1","age":"11","school":"6"},{"start_time":1551795007631,"click_time":1551795008529,"finger_time":1551795008248,"fix_duration":841.064714453844,"trial":60,"RT":617,"MT":281,"sideResp":2,"stimulus":"img/500/randomdotsizeEA/R/3_Ratio_500_L_10_R_20.png","xmouse":[773,773,773,773,773,773,773,773,773,773,773,773,773,773,773,773,773,773,773,773,773,773,773,773,773,773,773,773,773,781,792,800,807,814,818,818,816,813,808,804,809,829,869,937,1082],"ymouse":[534,534,534,534,534,534,534,534,534,534,534,534,534,534,534,534,534,534,534,534,534,532,531,530,529,529,528,526,520,483,454,433,413,391,319,295,280,268,258,242,226,207,184,154,92],"timestamp_mouse":[28,37,58,78,97,117,138,157,177,197,217,237,257,277,297,317,337,357,378,397,417,437,458,478,497,517,538,558,578,597,617,637,658,678,697,717,737,757,778,797,818,837,857,878,898],"xSR":741.5,"ySR":469.95,"xT1":424.9,"yT1":0,"xT2":1058.1,"yT2":0,"toosoon":0,"cond_shown":"randomdotsizeEA","ratio_trial":500,"smaller_num":"10","larger_num":"20","correct_side":2,"subjID":"SaraCastañedaPinzón27","gender":"1","age":"11","school":"6"},{"start_time":1551795012233,"click_time":1551795012810,"finger_time":1551795012668,"fix_duration":1444.437157145408,"trial":61,"RT":435,"MT":142,"sideResp":1,"stimulus":"img/500/equaldotsize/L/5_Ratio_500_L_4_R_2.png","xmouse":[796,796,796,796,796,796,796,796,796,796,796,796,796,796,796,796,796,796,796,796,787,765,728,677,571,527,498,472,449],"ymouse":[516,516,516,516,516,516,516,516,516,516,516,516,516,516,516,516,516,516,516,516,495,456,401,340,229,187,152,116,91],"timestamp_mouse":[20,42,55,76,96,115,135,155,175,196,215,235,255,275,295,315,335,355,375,396,416,435,456,476,495,515,535,555,576],"xSR":741.5,"ySR":469.95,"xT1":424.9,"yT1":0,"xT2":1058.1,"yT2":0,"toosoon":0,"cond_shown":"equaldotsize","ratio_trial":500,"smaller_num":"2","larger_num":"4","correct_side":1,"subjID":"SaraCastañedaPinzón27","gender":"1","age":"11","school":"6"},{"start_time":1551795013836,"click_time":1551795015068,"finger_time":1551795014849,"fix_duration":387.2231409243774,"trial":62,"RT":1013,"MT":219,"sideResp":2,"stimulus":"img/500/randomdotsizeEA/R/12_Ratio_500_L_1_R_2.png","xmouse":[809,809,809,809,809,809,809,809,809,809,809,809,809,809,809,809,809,809,809,809,809,809,809,809,809,809,809,809,809,809,809,809,809,809,809,809,809,809,809,809,809,809,809,809,809,809,809,809,811,826,854,883,918,957,1035,1063,1076,1081,1081,1081,1081,1081],"ymouse":[515,515,515,515,515,515,515,515,515,515,515,515,515,515,515,515,515,515,515,515,515,515,515,515,515,515,515,515,515,515,515,515,515,515,515,515,515,515,515,515,515,515,515,515,515,515,515,515,508,482,435,384,335,282,197,173,153,139,125,110,102,93],"timestamp_mouse":[22,32,53,72,93,112,133,152,173,193,213,232,253,272,292,312,332,352,373,393,413,433,452,472,492,512,532,553,573,592,613,632,653,673,694,713,733,753,773,792,812,833,854,873,893,913,933,952,973,992,1013,1032,1052,1073,1092,1112,1132,1152,1173,1192,1212,1232],"xSR":741.5,"ySR":469.95,"xT1":424.9,"yT1":0,"xT2":1058.1,"yT2":0,"toosoon":0,"cond_shown":"randomdotsizeEA","ratio_trial":500,"smaller_num":"1","larger_num":"2","correct_side":2,"subjID":"SaraCastañedaPinzón27","gender":"1","age":"11","school":"6"},{"start_time":1551795017091,"click_time":1551795017888,"finger_time":1551795017648,"fix_duration":1142.940664396276,"trial":63,"RT":557,"MT":240,"sideResp":1,"stimulus":"img/900/equaldotanddens/L/10_Ratio_900_L_20_R_18.png","xmouse":[798,798,798,798,798,798,798,798,798,798,798,798,798,798,798,798,798,798,798,798,798,798,798,797,786,776,764,740,727,715,700,655,639,621,602,580,546,533,526,519],"ymouse":[533,533,533,533,533,533,533,533,533,533,533,533,533,533,533,533,533,533,533,533,533,533,533,526,512,496,479,429,406,384,350,259,226,190,156,119,70,47,36,29],"timestamp_mouse":[17,37,57,77,97,117,137,157,177,197,217,238,257,278,297,318,337,357,378,397,417,438,457,478,497,517,537,557,577,597,617,638,657,677,698,718,738,757,777,797],"xSR":741.5,"ySR":469.95,"xT1":424.9,"yT1":0,"xT2":1058.1,"yT2":0,"toosoon":0,"cond_shown":"equaldotanddens","ratio_trial":900,"smaller_num":"18","larger_num":"20","correct_side":1,"subjID":"SaraCastañedaPinzón27","gender":"1","age":"11","school":"6"},{"start_time":1551795019391,"click_time":1551795020048,"finger_time":15