[{"start_time":1551793952366,"click_time":1551793954313,"finger_time":1551793953872,"fix_duration":1289.8044168016227,"trial":0,"RT":1506,"MT":441,"sideResp":1,"stimulus":[],"xmouse":[777,777,777,777,777,777,777,777,777,777,777,777,777,777,777,777,777,777,777,777,777,777,777,777,777,777,777,777,777,777,777,777,777,777,777,777,777,777,777,777,777,777,777,777,777,777,777,777,777,777,777,777,777,777,777,777,777,777,777,777,777,777,777,777,777,777,777,777,777,777,777,777,768,761,749,736,650,605,570,553,532,529,525,525,525,545,556,563,564,564,558,538,532,527,520,499,495,494],"ymouse":[559,559,559,559,559,559,559,559,559,559,559,559,559,559,559,559,559,559,559,559,559,559,559,559,559,559,559,559,559,559,559,559,559,559,559,559,559,559,559,559,559,559,559,559,559,559,559,559,559,559,559,559,559,559,559,559,559,559,559,559,559,559,559,559,559,559,559,559,559,559,559,559,554,548,534,514,420,382,355,342,326,319,310,300,287,247,226,207,192,178,158,131,127,124,117,103,100,98],"timestamp_mouse":[11,46,46,66,88,106,127,148,168,188,207,227,248,266,287,307,326,347,368,387,407,428,447,467,488,507,527,547,566,588,606,628,647,667,688,707,727,748,768,788,807,828,848,866,887,907,927,946,968,988,1008,1027,1047,1067,1088,1107,1127,1148,1166,1188,1208,1227,1248,1268,1286,1308,1326,1346,1367,1388,1406,1427,1447,1467,1486,1506,1527,1547,1567,1586,1607,1628,1646,1666,1687,1706,1726,1747,1766,1786,1806,1826,1847,1866,1887,1907,1927,1947],"xSR":741.5,"ySR":501.8,"xT1":424.9,"yT1":0,"xT2":1058.1,"yT2":0,"toosoon":0,"cond_shown":"Incongruent","ratio_trial":300,"L_num":13,"L_den":26,"R_num":12,"R_den":15,"correct_side":2,"subjID":"SaraCastañedaPinzón27","gender":"1","age":"11","school":"6","test":{"fix_dur":[250,1500],"timestim":1000,"targets_dim":[100,100],"targets_relative_coord":[0.3,0.7],"size_stim":[880,420],"start_dim":[100,100],"size_start":[300,300],"size_fix":60,"samplingrate":20,"img_types":["Congruent","Incongruent"],"ratios":[100,200,300],"rep_conds":19,"nTrials":120,"trials_to_rest":500,"Trials_order":[71,32,51,6,40,74,20,114,13,31,113,58,88,59,117,22,1,48,30,11,27,94,81,87,5,77,3,61,79,2,38,112,95,45,42,49,9,110,47,84,109,115,43,60,75,98,7,62,103,23,99,78,66,63,25,108,73,93,53,72,69,35,65,105,17,83,82,57,104,16,54,76,37,64,44,67,36,33,97,68,10,29,39,0,96,92,111,28,19,41,50,107,26,12,24,86,106,46,89,56,119,52,70,55,91,100,90,85,116,34,8,18,4,118,102,14,21,15,80,101],"cond_shown":["Incongruent","Congruent","Incongruent","Congruent","Congruent","Congruent","Congruent","Congruent","Incongruent","Incongruent","Incongruent","Congruent","Congruent","Incongruent","Incongruent","Congruent","Incongruent","Congruent","Congruent","Incongruent","Incongruent","Congruent","Incongruent","Incongruent","Incongruent","Incongruent","Incongruent","Incongruent","Incongruent","Congruent","Congruent","Congruent","Incongruent","Incongruent","Congruent","Incongruent","Incongruent","Congruent","Incongruent","Congruent","Incongruent","Incongruent","Incongruent","Congruent","Incongruent","Congruent","Incongruent","Congruent","Incongruent","Incongruent","Incongruent","Congruent","Congruent","Incongruent","Incongruent","Congruent","Incongruent","Incongruent","Incongruent","Congruent","Incongruent","Incongruent","Incongruent","Incongruent","Incongruent","Incongruent","Congruent","Incongruent","Congruent","Congruent","Congruent","Congruent","Incongruent","Congruent","Congruent","Incongruent","Congruent","Incongruent","Incongruent","Congruent","Congruent","Incongruent","Incongruent","Congruent","Congruent","Congruent","Incongruent","Congruent","Incongruent","Incongruent","Congruent","Incongruent","Congruent","Congruent","Congruent","Congruent","Congruent","Congruent","Incongruent","Congruent","Incongruent","Congruent","Congruent","Incongruent","Incongruent","Congruent","Congruent","Incongruent","Congruent","Congruent","Congruent","Congruent","Congruent","Congruent","Congruent","Congruent","Incongruent","Incongruent","Congruent","Incongruent"],"ratio_trial":[300,200,200,100,300,200,200,100,100,100,300,300,300,300,200,300,100,100,100,300,200,300,200,200,300,300,200,100,100,200,200,300,300,200,100,100,200,200,300,100,100,100,100,100,200,200,100,200,100,300,200,100,100,200,100,100,100,200,300,100,200,300,300,200,300,300,300,200,200,300,100,300,100,300,200,100,100,200,100,200,300,300,200,100,100,200,200,300,100,300,200,300,200,100,100,200,300,300,300,200,300,300,300,100,100,300,100,100,200,300,200,100,300,300,100,200,200,200,200,300],"left_num":[13,14,4,11,1,3,12,12,6,10,1,2,11,13,14,5,12,2,3,4,7,2,4,14,13,7,14,10,11,8,16,3,8,7,6,13,4,7,13,3,17,3,10,3,14,20,9,16,6,4,14,12,15,3,8,15,3,7,4,12,4,1,4,14,13,13,3,7,7,3,15,20,9,8,8,2,15,11,13,12,24,8,3,7,3,12,7,1,17,8,4,13,4,8,11,12,7,4,4,1,8,20,3,8,4,1,3,3,21,3,4,2,11,11,7,9,4,7,12,2],"right_num":[12,6,14,6,11,14,6,13,3,8,3,12,4,12,12,6,2,11,2,2,12,12,1,12,12,8,6,8,9,3,12,11,9,12,5,12,6,2,12,2,10,4,9,2,12,9,20,9,7,6,12,13,13,1,6,13,7,14,2,13,6,3,6,12,12,12,11,4,18,4,13,13,20,10,7,8,13,3,12,6,8,14,11,9,2,6,12,19,10,14,3,12,3,2,4,6,20,2,8,21,14,9,2,1,8,8,4,8,2,2,3,6,2,2,15,13,14,8,6,6],"left_den":[26,28,6,22,5,10,15,30,12,25,2,10,22,26,30,25,30,5,6,20,10,10,30,30,26,10,30,25,22,15,20,12,10,10,20,26,5,21,26,6,30,6,25,6,30,25,10,30,10,5,30,30,25,10,16,25,9,10,20,30,5,2,5,30,26,26,12,15,15,6,25,25,10,15,15,4,25,20,26,15,30,10,4,14,6,20,10,3,30,10,8,26,8,16,22,20,14,5,5,2,10,25,6,20,8,30,20,5,30,6,8,5,22,22,14,30,6,10,15,4],"right_den":[15,20,30,15,22,28,10,26,5,16,15,24,20,15,18,12,4,22,5,4,24,24,3,18,15,20,9,16,15,9,20,20,18,24,25,20,10,15,15,5,15,10,18,5,18,15,25,27,14,12,18,26,26,2,10,26,30,28,4,26,10,15,12,18,15,15,20,6,27,5,26,26,25,12,21,20,26,4,20,10,16,28,20,15,5,15,24,30,15,28,10,15,10,5,10,15,25,4,16,30,28,18,10,2,20,24,16,16,4,10,10,12,10,10,25,26,30,16,10,30],"correct_side":[2,1,1,1,2,2,1,2,2,2,1,2,1,2,2,2,2,2,1,2,1,2,2,2,2,1,2,2,2,1,1,2,1,1,1,2,1,1,2,1,2,1,2,1,2,1,1,1,1,1,2,2,1,2,2,1,1,1,2,2,1,1,1,2,2,2,2,2,2,2,1,1,1,2,1,1,1,2,2,1,1,1,1,2,1,1,1,2,2,1,1,2,1,1,1,1,2,1,1,2,1,1,1,2,1,2,2,1,1,1,1,2,1,1,2,2,1,1,1,1],"img_shown":["img2/300/Incongruent/R/I_Dist_300_LN_13_LD_26_RN_12_RD_15_1.png","img2/200/Congruent/L/C_Dist_200_LN_14_LD_28_RN_6_RD_20_0.png","img2/200/Incongruent/L/I_Dist_200_LN_4_LD_6_RN_14_RD_30_0.png","img2/100/Congruent/L/C_Dist_100_LN_11_LD_22_RN_6_RD_15_0.png","img2/300/Congruent/R/C_Dist_300_LN_1_LD_5_RN_11_RD_22_1.png","img2/200/Congruent/R/C_Dist_200_LN_3_LD_10_RN_14_RD_28_1.png","img2/200/Congruent/L/C_Dist_200_LN_12_LD_15_RN_6_RD_10_0.png","img2/100/Congruent/R/C_Dist_100_LN_12_LD_30_RN_13_RD_26_1.png","img2/100/Incongruent/R/I_Dist_100_LN_6_LD_12_RN_3_RD_5_1.png","img2/100/Incongruent/R/I_Dist_100_LN_10_LD_25_RN_8_RD_16_1.png","img2/300/Incongruent/L/I_Dist_300_LN_1_LD_2_RN_3_RD_15_0.png","img2/300/Congruent/R/C_Dist_300_LN_2_LD_10_RN_12_RD_24_1.png","img2/300/Congruent/L/C_Dist_300_LN_11_LD_22_RN_4_RD_20_0.png","img2/300/Incongruent/R/I_Dist_300_LN_13_LD_26_RN_12_RD_15_1.png","img2/200/Incongruent/R/I_Dist_200_LN_14_LD_30_RN_12_RD_18_1.png","img2/300/Congruent/R/C_Dist_300_LN_5_LD_25_RN_6_RD_12_1.png","img2/100/Incongruent/R/I_Dist_100_LN_12_LD_30_RN_2_RD_4_1.png","img2/100/Congruent/R/C_Dist_100_LN_2_LD_5_RN_11_RD_22_1.png","img2/100/Congruent/L/C_Dist_100_LN_3_LD_6_RN_2_RD_5_0.png","img2/300/Incongruent/R/I_Dist_300_LN_4_LD_20_RN_2_RD_4_1.png","img2/200/Incongruent/L/I_Dist_200_LN_7_LD_10_RN_12_RD_24_0.png","img2/300/Congruent/R/C_Dist_300_LN_2_LD_10_RN_12_RD_24_1.png","img2/200/Incongruent/R/I_Dist_200_LN_4_LD_30_RN_1_RD_3_1.png","img2/200/Incongruent/R/I_Dist_200_LN_14_LD_30_RN_12_RD_18_1.png","img2/300/Incongruent/R/I_Dist_300_LN_13_LD_26_RN_12_RD_15_1.png","img2/300/Incongruent/L/I_Dist_300_LN_7_LD_10_RN_8_RD_20_0.png","img2/200/Incongruent/R/I_Dist_200_LN_14_LD_30_RN_6_RD_9_1.png","img2/100/Incongruent/R/I_Dist_100_LN_10_LD_25_RN_8_RD_16_1.png","img2/100/Incongruent/R/I_Dist_100_LN_11_LD_22_RN_9_RD_15_1.png","img2/200/Congruent/L/C_Dist_200_LN_8_LD_15_RN_3_RD_9_0.png","img2/200/Congruent/L/C_Dist_200_LN_16_LD_20_RN_12_RD_20_0.png","img2/300/Congruent/R/C_Dist_300_LN_3_LD_12_RN_11_RD_20_1.png","img2/300/Incongruent/L/I_Dist_300_LN_8_LD_10_RN_9_RD_18_0.png","img2/200/Incongruent/L/I_Dist_200_LN_7_LD_10_RN_12_RD_24_0.png","img2/100/Congruent/L/C_Dist_100_LN_6_LD_20_RN_5_RD_25_0.png","img2/100/Incongruent/R/I_Dist_100_LN_13_LD_26_RN_12_RD_20_1.png","img2/200/Incongruent/L/I_Dist_200_LN_4_LD_5_RN_6_RD_10_0.png","img2/200/Congruent/L/C_Dist_200_LN_7_LD_21_RN_2_RD_15_0.png","img2/300/Incongruent/R/I_Dist_300_LN_13_LD_26_RN_12_RD_15_1.png","img2/100/Congruent/L/C_Dist_100_LN_3_LD_6_RN_2_RD_5_0.png","img2/100/Incongruent/R/I_Dist_100_LN_17_LD_30_RN_10_RD_15_1.png","img2/100/Incongruent/L/I_Dist_100_LN_3_LD_6_RN_4_RD_10_0.png","img2/100/Incongruent/R/I_Dist_100_LN_10_LD_25_RN_9_RD_18_1.png","img2/100/Congruent/L/C_Dist_100_LN_3_LD_6_RN_2_RD_5_0.png","img2/200/Incongruent/R/I_Dist_200_LN_14_LD_30_RN_12_RD_18_1.png","img2/200/Congruent/L/C_Dist_200_LN_20_LD_25_RN_9_RD_15_0.png","img2/100/Incongruent/L/I_Dist_100_LN_9_LD_10_RN_20_RD_25_0.png","img2/200/Congruent/L/C_Dist_200_LN_16_LD_30_RN_9_RD_27_0.png","img2/100/Incongruent/L/I_Dist_100_LN_6_LD_10_RN_7_RD_14_0.png","img2/300/Incongruent/L/I_Dist_300_LN_4_LD_5_RN_6_RD_12_0.png","img2/200/Incongruent/R/I_Dist_200_LN_14_LD_30_RN_12_RD_18_1.png","img2/100/Congruent/R/C_Dist_100_LN_12_LD_30_RN_13_RD_26_1.png","img2/100/Congruent/L/C_Dist_100_LN_15_LD_25_RN_13_RD_26_0.png","img2/200/Incongruent/R/I_Dist_200_LN_3_LD_10_RN_1_RD_2_1.png","img2/100/Incongruent/R/I_Dist_100_LN_8_LD_16_RN_6_RD_10_1.png","img2/100/Congruent/L/C_Dist_100_LN_15_LD_25_RN_13_RD_26_0.png","img2/100/Incongruent/L/I_Dist_100_LN_3_LD_9_RN_7_RD_30_0.png","img2/200/Incongruent/L/I_Dist_200_LN_7_LD_10_RN_14_RD_28_0.png","img2/300/Incongruent/R/I_Dist_300_LN_4_LD_20_RN_2_RD_4_1.png","img2/100/Congruent/R/C_Dist_100_LN_12_LD_30_RN_13_RD_26_1.png","img2/200/Incongruent/L/I_Dist_200_LN_4_LD_5_RN_6_RD_10_0.png","img2/300/Incongruent/L/I_Dist_300_LN_1_LD_2_RN_3_RD_15_0.png","img2/300/Incongruent/L/I_Dist_300_LN_4_LD_5_RN_6_RD_12_0.png","img2/200/Incongruent/R/I_Dist_200_LN_14_LD_30_RN_12_RD_18_1.png","img2/300/Incongruent/R/I_Dist_300_LN_13_LD_26_RN_12_RD_15_1.png","img2/300/Incongruent/R/I_Dist_300_LN_13_LD_26_RN_12_RD_15_1.png","img2/300/Congruent/R/C_Dist_300_LN_3_LD_12_RN_11_RD_20_1.png","img2/200/Incongruent/R/I_Dist_200_LN_7_LD_15_RN_4_RD_6_1.png","img2/200/Congruent/R/C_Dist_200_LN_7_LD_15_RN_18_RD_27_1.png","img2/300/Congruent/R/C_Dist_300_LN_3_LD_6_RN_4_RD_5_1.png","img2/100/Congruent/L/C_Dist_100_LN_15_LD_25_RN_13_RD_26_0.png","img2/300/Congruent/L/C_Dist_300_LN_20_LD_25_RN_13_RD_26_0.png","img2/100/Incongruent/L/I_Dist_100_LN_9_LD_10_RN_20_RD_25_0.png","img2/300/Congruent/R/C_Dist_300_LN_8_LD_15_RN_10_RD_12_1.png","img2/200/Congruent/L/C_Dist_200_LN_8_LD_15_RN_7_RD_21_0.png","img2/100/Incongruent/L/I_Dist_100_LN_2_LD_4_RN_8_RD_20_0.png","img2/100/Congruent/L/C_Dist_100_LN_15_LD_25_RN_13_RD_26_0.png","img2/200/Incongruent/R/I_Dist_200_LN_11_LD_20_RN_3_RD_4_1.png","img2/100/Incongruent/R/I_Dist_100_LN_13_LD_26_RN_12_RD_20_1.png","img2/200/Congruent/L/C_Dist_200_LN_12_LD_15_RN_6_RD_10_0.png","img2/300/Congruent/L/C_Dist_300_LN_24_LD_30_RN_8_RD_16_0.png","img2/300/Incongruent/L/I_Dist_300_LN_8_LD_10_RN_14_RD_28_0.png","img2/200/Incongruent/L/I_Dist_200_LN_3_LD_4_RN_11_RD_20_0.png","img2/100/Congruent/R/C_Dist_100_LN_7_LD_14_RN_9_RD_15_1.png","img2/100/Congruent/L/C_Dist_100_LN_3_LD_6_RN_2_RD_5_0.png","img2/200/Congruent/L/C_Dist_200_LN_12_LD_20_RN_6_RD_15_0.png","img2/200/Incongruent/L/I_Dist_200_LN_7_LD_10_RN_12_RD_24_0.png","img2/300/Congruent/R/C_Dist_300_LN_1_LD_3_RN_19_RD_30_1.png","img2/100/Incongruent/R/I_Dist_100_LN_17_LD_30_RN_10_RD_15_1.png","img2/300/Incongruent/L/I_Dist_300_LN_8_LD_10_RN_14_RD_28_0.png","img2/200/Congruent/L/C_Dist_200_LN_4_LD_8_RN_3_RD_10_0.png","img2/300/Incongruent/R/I_Dist_300_LN_13_LD_26_RN_12_RD_15_1.png","img2/200/Congruent/L/C_Dist_200_LN_4_LD_8_RN_3_RD_10_0.png","img2/100/Congruent/L/C_Dist_100_LN_8_LD_16_RN_2_RD_5_0.png","img2/100/Congruent/L/C_Dist_100_LN_11_LD_22_RN_4_RD_10_0.png","img2/200/Congruent/L/C_Dist_200_LN_12_LD_20_RN_6_RD_15_0.png","img2/300/Congruent/R/C_Dist_300_LN_7_LD_14_RN_20_RD_25_1.png","img2/300/Congruent/L/C_Dist_300_LN_4_LD_5_RN_2_RD_4_0.png","img2/300/Incongruent/L/I_Dist_300_LN_4_LD_5_RN_8_RD_16_0.png","img2/200/Congruent/R/C_Dist_200_LN_1_LD_2_RN_21_RD_30_1.png","img2/300/Incongruent/L/I_Dist_300_LN_8_LD_10_RN_14_RD_28_0.png","img2/300/Congruent/L/C_Dist_300_LN_20_LD_25_RN_9_RD_18_0.png","img2/300/Congruent/L/C_Dist_300_LN_3_LD_6_RN_2_RD_10_0.png","img2/100/Incongruent/R/I_Dist_100_LN_8_LD_20_RN_1_RD_2_1.png","img2/100/Incongruent/L/I_Dist_100_LN_4_LD_8_RN_8_RD_20_0.png","img2/300/Congruent/R/C_Dist_300_LN_1_LD_30_RN_8_RD_24_1.png","img2/100/Congruent/R/C_Dist_100_LN_3_LD_20_RN_4_RD_16_1.png","img2/100/Incongruent/L/I_Dist_100_LN_3_LD_5_RN_8_RD_16_0.png","img2/200/Congruent/L/C_Dist_200_LN_21_LD_30_RN_2_RD_4_0.png","img2/300/Congruent/L/C_Dist_300_LN_3_LD_6_RN_2_RD_10_0.png","img2/200/Congruent/L/C_Dist_200_LN_4_LD_8_RN_3_RD_10_0.png","img2/100/Congruent/R/C_Dist_100_LN_2_LD_5_RN_6_RD_12_1.png","img2/300/Congruent/L/C_Dist_300_LN_11_LD_22_RN_2_RD_10_0.png","img2/300/Congruent/L/C_Dist_300_LN_11_LD_22_RN_2_RD_10_0.png","img2/100/Congruent/R/C_Dist_100_LN_7_LD_14_RN_15_RD_25_1.png","img2/200/Congruent/R/C_Dist_200_LN_9_LD_30_RN_13_RD_26_1.png","img2/200/Incongruent/L/I_Dist_200_LN_4_LD_6_RN_14_RD_30_0.png","img2/200/Incongruent/L/I_Dist_200_LN_7_LD_10_RN_8_RD_16_0.png","img2/200/Congruent/L/C_Dist_200_LN_12_LD_15_RN_6_RD_10_0.png","img2/300/Incongruent/L/I_Dist_300_LN_2_LD_4_RN_6_RD_30_0.png"],"dist100_C":[["C_Dist_100_LN_10_LD_25_RN_3_RD_10_0.png","C_Dist_100_LN_11_LD_22_RN_4_RD_10_0.png","C_Dist_100_LN_11_LD_22_RN_6_RD_15_0.png","C_Dist_100_LN_15_LD_25_RN_13_RD_26_0.png","C_Dist_100_LN_3_LD_6_RN_2_RD_5_0.png","C_Dist_100_LN_6_LD_20_RN_5_RD_25_0.png","C_Dist_100_LN_8_LD_16_RN_2_RD_5_0.png","C_Dist_100_LN_9_LD_15_RN_8_RD_16_0.png"],["C_Dist_100_LN_1_LD_2_RN_18_RD_30_1.png","C_Dist_100_LN_1_LD_2_RN_3_RD_5_1.png","C_Dist_100_LN_12_LD_30_RN_13_RD_26_1.png","C_Dist_100_LN_2_LD_5_RN_11_RD_22_1.png","C_Dist_100_LN_2_LD_5_RN_6_RD_12_1.png","C_Dist_100_LN_3_LD_20_RN_4_RD_16_1.png","C_Dist_100_LN_4_LD_10_RN_15_RD_30_1.png","C_Dist_100_LN_4_LD_8_RN_6_RD_10_1.png","C_Dist_100_LN_6_LD_12_RN_15_RD_25_1.png","C_Dist_100_LN_7_LD_14_RN_15_RD_25_1.png","C_Dist_100_LN_7_LD_14_RN_9_RD_15_1.png"]],"dist100_I":[["I_Dist_100_LN_1_LD_2_RN_8_RD_20_0.png","I_Dist_100_LN_2_LD_4_RN_6_RD_15_0.png","I_Dist_100_LN_2_LD_4_RN_8_RD_20_0.png","I_Dist_100_LN_3_LD_5_RN_11_RD_22_0.png","I_Dist_100_LN_3_LD_5_RN_8_RD_16_0.png","I_Dist_100_LN_3_LD_6_RN_4_RD_10_0.png","I_Dist_100_LN_3_LD_9_RN_7_RD_30_0.png","I_Dist_100_LN_4_LD_8_RN_8_RD_20_0.png","I_Dist_100_LN_6_LD_10_RN_11_RD_22_0.png","I_Dist_100_LN_6_LD_10_RN_13_RD_26_0.png","I_Dist_100_LN_6_LD_10_RN_7_RD_14_0.png","I_Dist_100_LN_9_LD_10_RN_20_RD_25_0.png","I_Dist_100_LN_9_LD_15_RN_13_RD_26_0.png","I_Dist_100_LN_9_LD_15_RN_14_RD_28_0.png"],["I_Dist_100_LN_10_LD_25_RN_8_RD_16_1.png","I_Dist_100_LN_10_LD_25_RN_9_RD_18_1.png","I_Dist_100_LN_11_LD_22_RN_9_RD_15_1.png","I_Dist_100_LN_12_LD_24_RN_9_RD_15_1.png","I_Dist_100_LN_12_LD_30_RN_2_RD_4_1.png","I_Dist_100_LN_13_LD_26_RN_12_RD_20_1.png","I_Dist_100_LN_13_LD_26_RN_6_RD_10_1.png","I_Dist_100_LN_17_LD_30_RN_10_RD_15_1.png","I_Dist_100_LN_6_LD_12_RN_3_RD_5_1.png","I_Dist_100_LN_8_LD_16_RN_6_RD_10_1.png","I_Dist_100_LN_8_LD_20_RN_1_RD_2_1.png","I_Dist_100_LN_9_LD_18_RN_6_RD_10_1.png"]],"dist100_S":[["E_Dist_100_LN_2_LD_12_RN_2_RD_30_0.png","E_Dist_100_LN_6_LD_10_RN_6_RD_12_0.png"],["E_Dist_100_LN_6_LD_12_RN_6_RD_10_1.png"]],"dist200_C":[["C_Dist_200_LN_11_LD_22_RN_3_RD_10_0.png","C_Dist_200_LN_12_LD_15_RN_6_RD_10_0.png","C_Dist_200_LN_12_LD_20_RN_6_RD_15_0.png","C_Dist_200_LN_14_LD_28_RN_6_RD_20_0.png","C_Dist_200_LN_15_LD_25_RN_4_RD_10_0.png","C_Dist_200_LN_16_LD_20_RN_12_RD_20_0.png","C_Dist_200_LN_16_LD_30_RN_9_RD_27_0.png","C_Dist_200_LN_20_LD_25_RN_9_RD_15_0.png","C_Dist_200_LN_21_LD_30_RN_2_RD_4_0.png","C_Dist_200_LN_4_LD_10_RN_3_RD_15_0.png","C_Dist_200_LN_4_LD_8_RN_3_RD_10_0.png","C_Dist_200_LN_6_LD_15_RN_3_RD_15_0.png","C_Dist_200_LN_7_LD_21_RN_2_RD_15_0.png","C_Dist_200_LN_8_LD_15_RN_2_RD_6_0.png","C_Dist_200_LN_8_LD_15_RN_3_RD_9_0.png","C_Dist_200_LN_8_LD_15_RN_7_RD_21_0.png","C_Dist_200_LN_9_LD_20_RN_4_RD_16_0.png"],["C_Dist_200_LN_1_LD_2_RN_21_RD_30_1.png","C_Dist_200_LN_13_LD_26_RN_14_RD_20_1.png","C_Dist_200_LN_3_LD_10_RN_11_RD_22_1.png","C_Dist_200_LN_3_LD_10_RN_14_RD_28_1.png","C_Dist_200_LN_3_LD_10_RN_7_RD_14_1.png","C_Dist_200_LN_3_LD_12_RN_9_RD_20_1.png","C_Dist_200_LN_3_LD_6_RN_14_RD_20_1.png","C_Dist_200_LN_5_LD_10_RN_14_RD_20_1.png","C_Dist_200_LN_6_LD_12_RN_7_RD_10_1.png","C_Dist_200_LN_6_LD_20_RN_11_RD_22_1.png","C_Dist_200_LN_7_LD_15_RN_18_RD_27_1.png","C_Dist_200_LN_9_LD_30_RN_13_RD_26_1.png"]],"dist200_I":[["I_Dist_200_LN_1_LD_2_RN_3_RD_10_0.png","I_Dist_200_LN_1_LD_3_RN_2_RD_15_0.png","I_Dist_200_LN_3_LD_4_RN_11_RD_20_0.png","I_Dist_200_LN_4_LD_5_RN_6_RD_10_0.png","I_Dist_200_LN_4_LD_6_RN_14_RD_30_0.png","I_Dist_200_LN_7_LD_10_RN_12_RD_24_0.png","I_Dist_200_LN_7_LD_10_RN_14_RD_28_0.png","I_Dist_200_LN_7_LD_10_RN_8_RD_16_0.png"],["I_Dist_200_LN_11_LD_20_RN_3_RD_4_1.png","I_Dist_200_LN_14_LD_30_RN_12_RD_18_1.png","I_Dist_200_LN_14_LD_30_RN_6_RD_9_1.png","I_Dist_200_LN_3_LD_10_RN_1_RD_2_1.png","I_Dist_200_LN_4_LD_30_RN_1_RD_3_1.png","I_Dist_200_LN_6_LD_20_RN_3_RD_6_1.png","I_Dist_200_LN_7_LD_15_RN_4_RD_6_1.png","I_Dist_200_LN_7_LD_15_RN_6_RD_9_1.png","I_Dist_200_LN_9_LD_15_RN_8_RD_10_1.png"]],"dist200_S":[["E_Dist_200_LN_3_LD_6_RN_3_RD_10_0.png"],["E_Dist_200_LN_3_LD_10_RN_3_RD_6_1.png"]],"dist300_C":[["C_Dist_300_LN_11_LD_22_RN_1_RD_5_0.png","C_Dist_300_LN_11_LD_22_RN_2_RD_10_0.png","C_Dist_300_LN_11_LD_22_RN_4_RD_20_0.png","C_Dist_300_LN_12_LD_24_RN_2_RD_10_0.png","C_Dist_300_LN_18_LD_20_RN_9_RD_15_0.png","C_Dist_300_LN_20_LD_25_RN_13_RD_26_0.png","C_Dist_300_LN_20_LD_25_RN_14_RD_28_0.png","C_Dist_300_LN_20_LD_25_RN_5_RD_10_0.png","C_Dist_300_LN_20_LD_25_RN_8_RD_16_0.png","C_Dist_300_LN_20_LD_25_RN_9_RD_18_0.png","C_Dist_300_LN_24_LD_30_RN_2_RD_4_0.png","C_Dist_300_LN_24_LD_30_RN_8_RD_16_0.png","C_Dist_300_LN_3_LD_6_RN_2_RD_10_0.png","C_Dist_300_LN_4_LD_10_RN_1_RD_10_0.png","C_Dist_300_LN_4_LD_5_RN_2_RD_4_0.png","C_Dist_300_LN_8_LD_16_RN_1_RD_5_0.png","C_Dist_300_LN_9_LD_10_RN_3_RD_5_0.png"],["C_Dist_300_LN_1_LD_20_RN_7_RD_20_1.png","C_Dist_300_LN_1_LD_3_RN_19_RD_30_1.png","C_Dist_300_LN_1_LD_30_RN_8_RD_24_1.png","C_Dist_300_LN_1_LD_5_RN_11_RD_22_1.png","C_Dist_300_LN_1_LD_5_RN_3_RD_6_1.png","C_Dist_300_LN_1_LD_5_RN_6_RD_12_1.png","C_Dist_300_LN_2_LD_10_RN_12_RD_24_1.png","C_Dist_300_LN_2_LD_20_RN_10_RD_25_1.png","C_Dist_300_LN_3_LD_12_RN_11_RD_20_1.png","C_Dist_300_LN_3_LD_6_RN_4_RD_5_1.png","C_Dist_300_LN_4_LD_20_RN_13_RD_26_1.png","C_Dist_300_LN_5_LD_25_RN_6_RD_12_1.png","C_Dist_300_LN_5_LD_25_RN_7_RD_14_1.png","C_Dist_300_LN_7_LD_14_RN_20_RD_25_1.png","C_Dist_300_LN_8_LD_15_RN_10_RD_12_1.png"]],"dist300_I":[["I_Dist_300_LN_1_LD_2_RN_2_RD_10_0.png","I_Dist_300_LN_1_LD_2_RN_3_RD_15_0.png","I_Dist_300_LN_2_LD_4_RN_6_RD_30_0.png","I_Dist_300_LN_3_LD_6_RN_4_RD_20_0.png","I_Dist_300_LN_4_LD_5_RN_6_RD_12_0.png","I_Dist_300_LN_4_LD_5_RN_8_RD_16_0.png","I_Dist_300_LN_7_LD_10_RN_8_RD_20_0.png","I_Dist_300_LN_8_LD_10_RN_14_RD_28_0.png","I_Dist_300_LN_8_LD_10_RN_9_RD_18_0.png"],["I_Dist_300_LN_13_LD_26_RN_12_RD_15_1.png","I_Dist_300_LN_4_LD_20_RN_2_RD_4_1.png"]],"dist300_S":[["E_Dist_300_LN_9_LD_12_RN_9_RD_20_0.png"],["E_Dist_300_LN_18_LD_30_RN_18_RD_20_1.png","E_Dist_300_LN_3_LD_10_RN_3_RD_5_1.png","E_Dist_300_LN_9_LD_20_RN_9_RD_12_1.png"]],"dist500_C":[["C_Dist_500_LN_10_LD_13_RN_7_RD_26_0.png","C_Dist_500_LN_10_LD_15_RN_4_RD_24_0.png","C_Dist_500_LN_12_LD_16_RN_3_RD_12_0.png","C_Dist_500_LN_12_LD_18_RN_4_RD_24_0.png","C_Dist_500_LN_15_LD_18_RN_5_RD_15_0.png","C_Dist_500_LN_15_LD_20_RN_1_RD_4_0.png","C_Dist_500_LN_18_LD_27_RN_1_RD_6_0.png","C_Dist_500_LN_20_LD_24_RN_1_RD_3_0.png","C_Dist_500_LN_20_LD_24_RN_3_RD_9_0.png","C_Dist_500_LN_20_LD_24_RN_7_RD_21_0.png","C_Dist_500_LN_20_LD_28_RN_3_RD_14_0.png","C_Dist_500_LN_21_LD_28_RN_6_RD_24_0.png","C_Dist_500_LN_22_LD_28_RN_2_RD_7_0.png","C_Dist_500_LN_25_LD_30_RN_9_RD_27_0.png","C_Dist_500_LN_4_LD_6_RN_1_RD_6_0.png","C_Dist_500_LN_5_LD_6_RN_2_RD_6_0.png","C_Dist_500_LN_6_LD_9_RN_1_RD_6_0.png","C_Dist_500_LN_7_LD_10_RN_1_RD_5_0.png","C_Dist_500_LN_8_LD_12_RN_1_RD_6_0.png","C_Dist_500_LN_8_LD_12_RN_4_RD_24_0.png"],["C_Dist_500_LN_1_LD_4_RN_12_RD_16_1.png","C_Dist_500_LN_1_LD_4_RN_9_RD_12_1.png","C_Dist_500_LN_1_LD_9_RN_11_RD_18_1.png","C_Dist_500_LN_10_LD_24_RN_22_RD_24_1.png","C_Dist_500_LN_2_LD_12_RN_10_RD_15_1.png","C_Dist_500_LN_2_LD_12_RN_12_RD_18_1.png","C_Dist_500_LN_2_LD_12_RN_4_RD_6_1.png","C_Dist_500_LN_2_LD_24_RN_7_RD_12_1.png","C_Dist_500_LN_2_LD_5_RN_18_RD_20_1.png","C_Dist_500_LN_2_LD_5_RN_9_RD_10_1.png","C_Dist_500_LN_2_LD_8_RN_12_RD_16_1.png","C_Dist_500_LN_2_LD_8_RN_21_RD_28_1.png","C_Dist_500_LN_3_LD_10_RN_4_RD_5_1.png","C_Dist_500_LN_3_LD_12_RN_15_RD_20_1.png","C_Dist_500_LN_3_LD_30_RN_6_RD_10_1.png","C_Dist_500_LN_3_LD_8_RN_14_RD_16_1.png","C_Dist_500_LN_4_LD_16_RN_15_RD_20_1.png","C_Dist_500_LN_4_LD_24_RN_12_RD_18_1.png","C_Dist_500_LN_5_LD_14_RN_6_RD_7_1.png","C_Dist_500_LN_7_LD_21_RN_20_RD_24_1.png","C_Dist_500_LN_7_LD_28_RN_12_RD_16_1.png","C_Dist_500_LN_7_LD_28_RN_9_RD_12_1.png","C_Dist_500_LN_9_LD_27_RN_20_RD_24_1.png"]],"dist500_I":[["I_Dist_500_LN_2_LD_3_RN_4_RD_24_0.png","I_Dist_500_LN_5_LD_6_RN_6_RD_18_0.png","I_Dist_500_LN_7_LD_8_RN_9_RD_24_0.png"],["I_Dist_500_LN_7_LD_21_RN_5_RD_6_1.png"]],"dist500_S":[["E_Dist_500_LN_6_LD_8_RN_6_RD_24_0.png"],["E_Dist_500_LN_2_LD_12_RN_2_RD_3_1.png","E_Dist_500_LN_6_LD_24_RN_6_RD_8_1.png"]]}},{"start_time":1551793957504,"click_time":1551793959273,"finger_time":1551793958973,"fix_duration":250,"trial":1,"RT":1469,"MT":300,"sideResp":1,"stimulus":[],"xmouse":[789,789,789,789,789,789,789,789,789,789,789,789,789,789,789,789,789,789,789,789,789,789,789,789,789,789,789,789,789,789,789,789,789,789,789,789,789,789,789,789,789,789,789,789,789,789,789,789,789,789,789,789,789,789,789,789,789,789,789,789,789,789,789,789,789,789,789,789,789,789,789,781,765,631,567,488,430,378,362,360,360,360,362,378,389,400,411,424,462],"ymouse":[515,515,515,515,515,515,515,515,515,515,515,515,515,515,515,515,515,515,515,515,515,515,515,515,515,515,515,515,515,515,515,515,515,515,515,515,515,515,515,515,515,515,515,515,515,515,515,515,515,515,515,515,515,515,515,515,515,515,515,515,515,515,515,515,515,515,515,515,515,515,515,514,514,432,357,279,224,164,123,111,100,92,85,70,64,61,60,58,52],"timestamp_mouse":[8,31,48,70,89,109,130,148,169,190,209,229,250,268,289,309,329,350,369,388,410,428,448,470,489,510,529,549,569,588,610,628,650,670,689,710,730,750,769,788,808,829,848,870,890,909,928,948,968,989,1010,1030,1048,1068,1089,1109,1129,1150,1168,1189,1209,1229,1249,1269,1288,1309,1329,1348,1369,1390,1409,1428,1449,1469,1488,1508,1528,1549,1569,1589,1608,1629,1650,1669,1688,1708,1729,1748,1769],"xSR":741.5,"ySR":469.95,"xT1":424.9,"yT1":0,"xT2":1058.1,"yT2":0,"toosoon":0,"cond_shown":"Congruent","ratio_trial":200,"L_num":14,"L_den":28,"R_num":6,"R_den":20,"correct_side":1,"subjID":"SaraCastañedaPinzón27","gender":"1","school":"6","age":"11"},{"start_time":1551793963991,"click_time":1551793965493,"finger_time":1551793965093,"fix_duration":1196.683287968401,"trial":2,"RT":1102,"MT":400,"sideResp":2,"stimulus":[],"xmouse":[807,807,807,807,807,807,807,807,807,807,807,807,807,807,807,807,807,807,807,807,807,807,807,807,807,807,807,807,807,807,807,807,807,807,807,807,807,807,807,807,807,807,807,807,807,807,807,807,807,807,806,806,808,810,817,822,828,835,845,869,884,901,914,928,965,975,981,991,998,1016,1024,1032,1035,1037,1048,1060],"ymouse":[506,506,506,506,506,506,506,506,506,506,506,506,506,506,506,506,506,506,506,506,506,506,506,506,506,506,506,506,506,506,506,506,506,506,506,506,506,506,506,506,506,506,506,506,506,506,506,506,506,506,506,506,500,498,479,466,452,435,418,375,349,318,288,255,183,166,149,133,122,94,83,74,71,70,67,64],"timestamp_mouse":[12,35,42,61,82,102,123,143,161,183,201,221,242,263,281,303,323,343,361,382,401,421,443,461,483,503,522,543,563,582,602,621,642,662,683,702,722,743,763,782,803,823,842,863,882,902,922,943,962,982,1002,1022,1043,1062,1082,1102,1122,1141,1162,1181,1203,1221,1242,1263,1281,1301,1322,1341,1363,1382,1402,1421,1443,1462,1482,1502],"xSR":741.5,"ySR":469.95,"xT1":424.9,"yT1":0,"xT2":1058.1,"yT2":0,"toosoon":0,"cond_shown":"Incongruent","ratio_trial":200,"L_num":4,"L_den":6,"R_num":14,"R_den":30,"correct_side":1,"subjID":"SaraCastañedaPinzón27","gender":"1","school":"6","age":"11"},{"start_time":1551793969736,"click_time":1551793972454,"finger_time":1551793972013,"fix_duration":542.2234839052677,"trial":3,"RT":2277,"MT":441,"sideResp":1,"stimulus":[],"xmouse":[805,805,805,805,805,805,805,805,805,805,805,805,805,805,805,805,805,805,805,805,805,805,805,805,805,805,805,805,805,805,805,805,805,805,805,805,805,805,805,805,805,805,805,805,805,805,805,805,805,805,805,805,805,805,805,805,805,805,805,805,805,805,805,805,805,805,805,805,805,805,805,805,805,805,805,805,805,805,805,805,805,805,805,805,805,805,805,805,805,805,805,805,805,805,805,805,805,805,805,805,805,805,805,805,805,805,805,805,805,805,805,805,802,795,781,756,682,656,634,616,607,591,583,576,568,560,539,532,529,527,527,526,526,525,525,523],"ymouse":[497,497,497,497,497,497,497,497,497,497,497,497,497,497,497,497,497,497,497,497,497,497,497,497,497,497,497,497,497,497,497,497,497,497,497,497,497,497,497,497,497,497,497,497,497,497,497,497,497,497,497,497,497,497,497,497,497,497,497,497,497,497,497,497,497,497,497,497,497,497,497,497,497,497,497,497,497,497,497,497,497,497,497,497,497,497,497,497,497,497,497,497,497,497,497,497,497,497,497,497,497,497,497,497,497,497,497,497,497,497,497,497,488,467,434,377,247,202,162,132,115,88,77,70,62,56,42,40,38,38,38,38,38,38,38,38],"timestamp_mouse":[16,45,58,78,98,118,136,158,177,196,218,236,256,278,297,316,337,357,377,396,418,436,456,477,496,518,537,557,577,597,618,637,656,677,696,718,736,757,778,797,817,837,858,878,896,918,938,957,977,997,1017,1036,1058,1077,1097,1116,1137,1157,1178,1196,1217,1237,1258,1277,1296,1317,1336,1357,1378,1398,1416,1436,1458,1478,1497,1518,1537,1557,1578,1598,1616,1637,1657,1677,1697,1718,1737,1756,1778,1798,1818,1837,1858,1878,1897,1918,1938,1958,1977,1998,2016,2036,2058,2078,2096,2118,2137,2157,2178,2198,2218,2237,2256,2276,2298,2317,2337,2356,2377,2397,2417,2436,2457,2477,2496,2516,2537,2557,2577,2597,2616,2637,2657,2677,2697,2718],"xSR":741.5,"ySR":469.95,"xT1":424.9,"yT1":0,"xT2":1058.1,"yT2":0,"toosoon":0,"cond_shown":"Congruent","ratio_trial":100,"L_num":11,"L_den":22,"R_num":6,"R_den":15,"correct_side":1,"subjID":"SaraCastañedaPinzón27","gender":"1","school":"6","age":"11"},{"start_time":1551793975932,"click_time":1551793977373,"finger_time":1551793977173,"fix_duration":1257.1934356187642,"trial":4,"RT":1241,"MT":200,"sideResp":2,"stimulus":[],"xmouse":[787,787,787,787,787,787,787,787,787,787,787,787,787,787,787,787,787,787,787,787,787,787,787,787,787,787,787,787,787,787,787,787,787,787,787,787,787,787,787,787,787,787,787,787,787,787,787,787,787,787,787,787,787,787,787,787,787,792,796,801,805,809,825,845,868,888,910,969,992,1013,1029,1043,1064],"ymouse":[524,524,524,524,524,524,524,524,524,524,524,524,524,524,524,524,524,524,524,524,524,524,524,524,524,524,524,524,524,524,524,524,524,524,524,524,524,524,524,524,524,524,524,524,524,524,524,524,524,524,524,524,524,524,524,524,523,517,509,500,490,475,430,389,347,308,279,216,188,160,133,113,84],"timestamp_mouse":[7,22,42,62,82,100,120,141,162,180,201,220,242,260,281,301,322,340,361,382,400,421,440,461,480,502,521,542,560,580,600,622,641,662,681,702,720,740,760,782,802,820,841,862,882,901,920,941,962,982,1001,1022,1041,1062,1081,1100,1120,1141,1162,1182,1200,1221,1241,1260,1281,1301,1322,1340,1361,1380,1401,1422,1441],"xSR":741.5,"ySR":469.95,"xT1":424.9,"yT1":0,"xT2":1058.1,"yT2":0,"toosoon":0,"cond_shown":"Congruent","ratio_trial":300,"L_num":1,"L_den":5,"R_num":11,"R_den":22,"correct_side":2,"subjID":"SaraCastañedaPinzón27","gender":"1","school":"6","age":"11"},{"start_time":1551793984147,"click_time":1551793985593,"finger_time":1551793985212,"fix_duration":1272.3928078551703,"trial":5,"RT":1065,"MT":381,"sideResp":2,"stimulus":[],"xmouse":[769,769,769,769,769,769,769,769,769,769,769,769,769,769,769,769,769,769,769,769,769,769,769,769,769,769,769,769,769,769,769,769,769,769,769,769,769,769,769,769,769,769,769,769,769,769,769,769,769,769,769,770,785,811,828,844,873,883,894,904,915,942,954,965,976,982,1000,1010,1019,1029,1039,1053,1059],"ymouse":[518,518,518,518,518,518,518,518,518,518,518,518,518,518,518,518,518,518,518,518,518,518,518,518,518,518,518,518,518,518,518,518,518,518,518,518,518,518,518,518,518,518,518,518,518,518,518,518,518,518,518,510,491,463,442,417,356,334,313,296,277,238,219,199,185,175,152,140,131,122,114,102,97],"timestamp_mouse":[8,38,46,66,86,105,126,146,166,186,206,226,246,267,286,307,325,347,366,386,405,427,447,466,487,505,526,546,565,586,606,626,646,666,685,707,726,745,766,786,805,826,845,867,887,906,926,947,966,987,1006,1025,1045,1065,1086,1106,1126,1146,1166,1186,1205,1227,1247,1266,1285,1305,1326,1346,1366,1385,1407,1427,1446],"xSR":741.5,"ySR":469.95,"xT1":424.9,"yT1":0,"xT2":1058.1,"yT2":0,"toosoon":0,"cond_shown":"Congruent","ratio_trial":200,"L_num":3,"L_den":10,"R_num":14,"R_den":28,"correct_side":2,"subjID":"SaraCastañedaPinzón27","gender":"1","school":"6","age":"11"},{"start_time":1551793989524,"click_time":1551793990873,"finger_time":1551793990652,"fix_duration":250,"trial":6,"RT":1128,"MT":221,"sideResp":1,"stimulus":[],"xmouse":[783,783,783,783,783,783,783,783,783,783,783,783,783,783,783,783,783,783,783,783,783,783,783,783,783,783,783,783,783,782,782,782,782,782,782,782,782,782,782,782,782,782,782,782,782,782,782,782,782,782,782,782,773,765,758,748,735,716,704,685,666,653,630,612,589,564,546,518],"ymouse":[513,513,513,513,513,513,513,513,513,513,513,513,513,513,513,513,513,513,513,513,513,513,513,513,513,513,513,513,513,513,513,512,512,512,512,512,512,512,512,512,512,512,512,512,512,512,512,512,512,512,512,510,505,502,497,492,483,466,443,417,385,357,310,271,227,184,146,84],"timestamp_mouse":[10,29,60,69,88,108,129,149,169,188,210,228,248,269,290,309,329,350,368,389,410,430,449,470,490,510,529,549,568,589,609,629,649,669,690,710,730,748,769,790,810,830,849,870,890,909,929,950,969,988,1009,1029,1048,1069,1089,1109,1128,1149,1169,1189,1209,1229,1248,1268,1290,1310,1330,1348],"xSR":741.5,"ySR":469.95,"xT1":424.9,"yT1":0,"xT2":1058.1,"yT2":0,"toosoon":0,"cond_shown":"Congruent","ratio_trial":200,"L_num":12,"L_den":15,"R_num":6,"R_den":10,"correct_side":1,"subjID":"SaraCastañedaPinzón27","gender":"1","school":"6","age":"11"},{"start_time":1551793993577,"click_time":1551793995694,"finger_time":1551793995473,"fix_duration":1103.7469631003676,"trial":7,"RT":1896,"MT":221,"sideResp":1,"stimulus":[],"xmouse":[808,808,808,808,808,808,808,808,808,808,808,808,808,808,808,808,808,808,808,808,808,808,808,808,808,808,808,808,808,808,808,808,808,808,808,808,808,808,808,808,808,808,808,808,808,808,808,808,808,808,808,808,808,808,808,808,808,808,808,808,808,808,808,808,808,808,808,808,808,808,808,808,808,808,808,808,808,808,808,808,808,808,808,808,808,808,808,808,808,808,808,808,807,804,740,691,656,636,624,611,607,599,583,563,530,524],"ymouse":[513,513,513,513,513,513,513,513,513,513,513,513,513,513,513,513,513,513,513,513,513,513,513,513,513,513,513,513,513,513,513,513,513,513,513,513,513,513,513,513,513,513,513,513,513,513,513,513,513,513,513,513,513,513,513,513,513,513,513,513,513,512,512,512,512,512,512,512,512,512,512,512,512,512,512,512,512,512,512,512,512,512,512,512,512,512,512,512,512,512,512,512,511,507,354,264,203,175,162,149,146,142,132,119,93,88],"timestamp_mouse":[16,38,56,75,97,116,136,155,177,196,216,237,255,277,296,315,335,356,376,397,415,437,456,476,496,515,536,555,575,595,615,637,657,675,695,716,737,756,776,796,816,835,856,876,895,916,937,957,975,997,1016,1037,1056,1076,1096,1117,1136,1156,1177,1196,1216,1236,1255,1276,1295,1317,1336,1356,1375,1396,1417,1437,1456,1476,1496,1516,1536,1556,1575,1595,1616,1637,1655,1675,1697,1717,1736,1756,1777,1796,1816,1836,1857,1877,1896,1917,1935,1956,1977,1996,2016,2036,2056,2076,2096,2117],"xSR":741.5,"ySR":469.95,"xT1":424.9,"yT1":0,"xT2":1058.1,"yT2":0,"toosoon":0,"cond_shown":"Congruent","ratio_trial":100,"L_num":12,"L_den":30,"R_num":13,"R_den":26,"correct_side":2,"subjID":"SaraCastañedaPinzón27","gender":"1","school":"6","age":"11"},{"start_time":1551793997776,"click_time":1551793999013,"finger_time":1551793998854,"fix_duration":741.812959697666,"trial":8,"RT":1078,"MT":159,"sideResp":1,"stimulus":[],"xmouse":[811,811,811,811,811,811,811,811,811,811,811,811,811,811,811,811,811,811,811,811,811,811,811,811,811,811,811,811,811,811,811,811,811,811,811,811,811,811,811,811,811,811,811,811,811,811,811,811,811,811,811,805,794,762,665,618,581,558,545,523,510,499],"ymouse":[505,505,505,505,505,505,505,505,505,505,505,505,505,505,505,505,505,505,505,505,505,505,505,505,505,505,505,505,505,505,505,505,505,505,505,505,505,505,505,505,505,505,505,505,505,505,505,505,505,505,503,494,476,429,297,241,198,168,151,119,102,87],"timestamp_mouse":[30,38,56,76,98,118,136,157,178,197,218,237,257,277,298,317,336,358,378,397,417,436,457,480,497,517,538,556,578,597,618,637,658,676,698,716,736,756,778,797,817,838,858,877,896,917,938,957,977,997,1016,1038,1058,1078,1096,1116,1137,1156,1177,1197,1216,1237],"xSR":741.5,"ySR":469.95,"xT1":424.9,"yT1":0,"xT2":1058.1,"yT2":0,"toosoon":0,"cond_shown":"Incongruent","ratio_trial":100,"L_num":6,"L_den":12,"R_num":3,"R_den":5,"correct_side":2,"subjID":"SaraCastañedaPinzón27","gender":"1","school":"6","age":"11"},{"start_time":1551794001044,"click_time":1551794002633,"finger_time":1551794002493,"fix_duration":889.8717163382336,"trial":9,"RT":1449,"MT":140,"sideResp":2,"stimulus":[],"xmouse":[825,825,825,825,825,825,825,825,824,824,824,824,824,824,824,824,824,824,824,824,824,824,824,824,824,824,824,824,824,824,824,824,824,824,824,824,824,824,824,824,824,824,824,824,824,824,824,824,824,824,824,824,824,824,824,824,824,824,824,824,824,824,824,824,824,824,824,824,824,824,824,840,873,921,966,1011,1052,1057,1058,1061],"ymouse":[515,515,515,515,515,515,515,515,515,515,515,515,515,515,514,514,514,514,514,514,514,514,514,514,514,514,514,514,514,514,514,514,514,514,514,514,514,514,514,514,514,514,514,514,514,514,514,514,514,514,514,514,514,514,514,514,514,514,514,514,514,514,514,514,514,514,514,514,514,514,514,488,428,330,223,133,64,57,53,49],"timestamp_mouse":[8,29,49,69,90,108,128,149,170,190,208,229,250,269,289,308,329,348,369,389,408,429,449,470,490,509,530,549,569,590,608,629,650,669,690,710,730,749,768,789,810,828,848,868,888,908,928,948,968,989,1008,1029,1048,1068,1090,1108,1130,1150,1170,1190,1209,1230,1248,1269,1289,1309,1329,1349,1369,1389,1409,1429,1449,1468,1489,1509,1529,1548,1568,1589],"xSR":741.5,"ySR":469.95,"xT1":424.9,"yT1":0,"xT2":1058.1,"yT2":0,"toosoon":0,"cond_shown":"Incongruent","ratio_trial":100,"L_num":10,"L_den":25,"R_num":8,"R_den":16,"correct_side":2,"subjID":"SaraCastañedaPinzón27","gender":"1","school":"6","age":"11"},{"start_time":1551794005160,"click_time":1551794006153,"finger_time":1551794005973,"fix_duration":985.6390814149999,"trial":10,"RT":813,"MT":180,"sideResp":2,"stimulus":[],"xmouse":[790,790,790,790,790,790,790,790,790,790,790,790,790,790,790,790,790,790,790,790,790,790,790,790,790,790,790,790,790,790,790,790,790,790,790,790,790,790,802,816,899,945,989,1020,1042,1055,1057,1057,1058,1059],"ymouse":[508,508,508,508,508,508,508,508,508,508,508,508,508,508,508,508,508,508,508,508,508,508,508,508,508,508,508,508,508,508,508,508,508,508,508,508,508,508,501,486,372,305,235,186,146,114,105,99,94,89],"timestamp_mouse":[14,34,53,74,94,114,132,154,172,194,213,234,254,273,293,312,334,354,373,393,413,434,453,473,493,513,534,553,573,593,613,633,652,673,694,713,733,754,774,794,813,833,853,872,893,913,932,953,973,993],"xSR":741.5,"ySR":469.95,"xT1":424.9,"yT1":0,"xT2":1058.1,"yT2":0,"toosoon":0,"cond_shown":"Incongruent","ratio_trial":300,"L_num":1,"L_den":2,"R_num":3,"R_den":15,"correct_side":1,"subjID":"SaraCastañedaPinzón27","gender":"1","school":"6","age":"11"},{"start_time":1551794008105,"click_time":1551794009073,"finger_time":1551794008972,"fix_duration":651.9061294366677,"trial":11,"RT":867,"MT":101,"sideResp":2,"stimulus":[],"xmouse":[781,781,781,781,781,781,781,781,781,781,781,781,781,781,781,781,781,781,781,781,781,781,781,781,781,781,781,781,781,781,781,781,781,781,781,781,781,781,781,781,782,785,796,866,917,965,1002,1037,1088],"ymouse":[539,539,539,539,539,539,539,539,539,539,539,539,539,539,539,539,539,539,539,539,539,539,539,539,539,539,539,539,539,539,539,539,539,539,539,539,539,539,539,539,539,535,515,407,334,266,213,164,93],"timestamp_mouse":[11,30,49,69,88,109,128,147,168,187,209,228,248,269,289,308,329,348,367,389,408,429,448,468,488,509,529,549,568,588,607,629,648,668,689,708,729,749,769,788,808,829,848,867,888,908,929,948,967],"xSR":741.5,"ySR":469.95,"xT1":424.9,"yT1":0,"xT2":1058.1,"yT2":0,"toosoon":0,"cond_shown":"Congruent","ratio_trial":300,"L_num":2,"L_den":10,"R_num":12,"R_den":24,"correct_side":2,"subjID":"SaraCastañedaPinzón27","gender":"1","school":"6","age":"11"},{"start_time":1551794010525,"click_time":1551794012473,"finger_time":1551794012333,"fix_duration":250,"trial":12,"RT":1808,"MT":140,"sideResp":1,"stimulus":[],"xmouse":[764,764,764,764,764,764,764,764,764,764,764,764,764,764,764,764,764,764,764,764,764,764,764,764,764,764,764,764,764,764,764,764,764,764,764,764,764,764,764,764,764,764,764,764,764,764,764,764,764,764,764,764,764,764,764,764,764,764,764,764,764,764,764,764,764,764,764,764,764,764,764,764,764,764,764,764,764,764,764,764,764,764,764,764,764,764,764,760,756,749,739,721,658,619,582,545,519,479],"ymouse":[528,528,528,528,528,528,528,528,528,528,528,528,528,528,528,528,528,528,528,528,528,528,528,528,528,528,528,528,528,528,528,528,528,528,528,528,528,528,528,528,528,528,528,528,528,528,528,528,528,528,528,528,528,528,528,528,528,528,528,528,528,528,528,528,528,528,528,528,528,528,528,528,528,528,528,528,528,528,528,528,528,528,522,519,518,517,516,504,493,477,458,427,339,284,232,180,139,76],"timestamp_mouse":[8,35,48,69,89,108,128,148,169,189,208,227,248,268,289,308,329,348,368,388,408,429,449,467,489,509,529,547,568,589,608,627,647,669,689,707,729,748,768,789,808,829,848,868,889,909,928,948,969,989,1008,1028,1048,1067,1089,1108,1129,1149,1168,1187,1209,1228,1249,1268,1289,1309,1329,1349,1369,1388,1409,1428,1448,1469,1488,1508,1529,1548,1568,1588,1609,1629,1649,1668,1688,1708,1728,1748,1768,1788,1808,1829,1847,1867,1888,1908,1928,1948],"xSR":741.5,"ySR":469.95,"xT1":424.9,"yT1":0,"xT2":1058.1,"yT2":0,"toosoon":0,"cond_shown":"Congruent","ratio_trial":300,"L_num":11,"L_den":22,"R_num":4,"R_den":20,"correct_side":1,"subjID":"SaraCastañedaPinzón27","gender":"1","school":"6","age":"11"},{"start_time":1551794013800,"click_time":1551794016113,"finger_time":1551794015834,"fix_duration":366.4080544992998,"trial":13,"RT":2034,"MT":279,"sideResp":2,"stimulus":[],"xmouse":[796,796,796,796,796,796,796,796,796,796,796,796,796,796,796,796,796,796,796,796,796,796,796,796,796,796,796,796,796,796,796,796,796,796,796,796,796,796,796,796,796,796,796,796,796,796,796,796,796,796,796,796,796,796,796,796,796,796,796,796,796,796,796,796,796,796,796,796,796,796,796,796,796,796,796,796,796,796,796,796,796,796,796,796,796,796,796,796,796,796,796,796,796,796,796,796,796,796,797,812,838,872,909,1005,1025,1033,1037,1040,1045,1047,1049,1051,1054,1061,1066,1069],"ymouse":[522,522,522,522,522,522,522,522,522,522,522,522,522,522,522,522,522,522,522,522,522,522,522,522,522,522,522,522,522,522,522,522,522,522,522,522,522,522,522,522,522,522,522,522,522,522,522,522,522,522,522,522,522,522,522,522,522,522,522,522,522,522,522,522,522,522,522,522,522,522,522,522,522,522,522,522,522,522,522,522,522,522,522,522,522,522,522,522,522,522,522,522,522,522,522,522,522,522,520,507,476,427,375,245,215,198,185,176,162,156,152,147,139,115,102,94],"timestamp_mouse":[13,36,53,74,92,113,134,152,172,193,214,234,253,272,293,312,333,354,372,393,414,433,453,473,494,513,534,553,573,594,614,633,653,673,694,714,734,752,773,794,812,832,854,873,894,914,933,953,974,993,1012,1033,1053,1074,1092,1113,1134,1154,1174,1193,1214,1233,1253,1274,1292,1313,1333,1354,1373,1394,1413,1433,1452,1474,1493,1514,1533,1553,1574,1593,1612,1633,1653,1672,1694,1714,1734,1753,1773,1794,1814,1832,1853,1873,1892,1912,1934,1952,1973,1993,2013,2034,2054,2074,2094,2113,2134,2154,2172,2193,2213,2233,2253,2273,2294,2313],"xSR":741.5,"ySR":469.95,"xT1":424.9,"yT1":0,"xT2":1058.1,"yT2":0,"toosoon":0,"cond_shown":"Incongruent","ratio_trial":300,"L_num":13,"L_den":26,"R_num":12,"R_den":15,"correct_side":2,"subjID":"SaraCastañedaPinzón27","gender":"1","school":"6","age":"11"},{"start_time":1551794017966,"click_time":1551794020373,"finger_time":1551794019893,"fix_duration":991.5201574034112,"trial":14,"RT":1927,"MT":480,"sideResp":2,"stimulus":[],"xmouse":[768,768,768,768,768,768,768,768,768,768,768,768,768,768,768,768,768,768,768,768,768,768,768,768,768,768,768,768,768,768,768,768,768,768,768,768,768,768,768,768,768,768,768,768,768,768,768,768,768,768,768,768,768,768,768,768,768,768,768,768,768,768,768,768,768,768,768,768,768,768,768,768,768,768,768,768,768,768,768,768,768,768,768,768,768,768,768,768,768,768,768,768,768,769,775,820,852,890,906,918,950,963,968,971,973,978,981,984,989,995,1010,1021,1031,1039,1043,1051,1057,1065,1077,1092,1108],"ymouse":[524,524,524,524,524,524,524,524,524,524,524,524,524,524,524,524,524,524,524,524,524,524,524,524,524,524,524,524,524,524,524,524,524,524,524,524,524,524,524,524,524,524,524,524,524,524,524,524,524,524,524,524,524,524,524,524,524,524,524,524,524,524,524,524,524,524,524,524,524,524,524,524,524,524,524,524,524,524,524,524,524,524,524,524,524,524,524,524,524,524,524,524,524,523,518,484,458,426,405,380,303,275,257,246,235,206,198,190,178,168,151,140,132,128,126,122,117,113,107,100,90],"timestamp_mouse":[8,38,55,68,89,106,126,148,167,187,207,226,247,268,287,307,328,347,366,388,408,427,448,468,486,507,526,548,568,587,607,627,647,667,688,707,727,747,768,787,807,827,847,866,888,907,927,948,967,986,1006,1028,1047,1067,1086,1107,1126,1148,1167,1186,1206,1226,1247,1266,1287,1307,1327,1347,1368,1386,1407,1427,1448,1467,1486,1507,1527,1547,1568,1587,1607,1627,1647,1667,1687,1706,1727,1748,1767,1787,1807,1826,1848,1867,1888,1906,1927,1947,1967,1987,2007,2027,2047,2068,2087,2106,2126,2147,2167,2187,2207,2227,2247,2267,2287,2307,2327,2347,2368,2388,2406],"xSR":741.5,"ySR":469.95,"xT1":424.9,"yT1":0,"xT2":1058.1,"yT2":0,"toosoon":0,"cond_shown":"Incongruent","ratio_trial":200,"L_num":14,"L_den":30,"R_num":12,"R_den":18,"correct_side":2,"subjID":"SaraCastañedaPinzón27","gender":"1","school":"6","age":"11"},{"start_time":1551794021725,"click_time":1551794023854,"finger_time":1551794023373,"fix_duration":250,"trial":15,"RT":1648,"MT":481,"sideResp":2,"stimulus":[],"xmouse":[781,781,781,781,781,781,781,781,781,781,781,781,781,781,781,781,781,781,781,781,781,781,781,781,781,781,781,781,781,781,781,781,781,781,781,781,781,781,781,781,781,781,781,781,781,781,781,781,781,781,781,781,781,781,781,781,781,781,781,781,781,781,781,781,781,781,781,781,781,781,781,781,781,781,781,781,781,781,781,781,781,787,859,905,933,954,975,985,986,989,992,998,1018,1026,1032,1034,1036,1040,1044,1048,1051,1053,1055,1055,1056,1056,1059],"ymouse":[553,553,553,553,553,553,553,553,553,553,553,553,553,553,553,553,553,553,553,553,553,553,553,553,553,553,553,553,553,553,553,553,553,553,553,553,553,553,553,553,553,553,553,553,553,553,553,553,553,553,553,553,553,553,553,553,553,553,553,553,553,553,553,553,553,553,553,553,553,553,553,553,553,553,553,553,553,553,553,553,553,549,508,471,416,342,241,205,199,189,182,173,147,136,126,120,117,110,105,100,98,96,93,93,92,91,89],"timestamp_mouse":[8,28,47,68,88,108,128,148,168,187,207,228,249,268,288,308,329,348,369,388,409,428,448,467,488,508,528,547,568,589,609,627,648,668,688,707,729,747,768,788,810,828,848,868,888,909,928,948,968,988,1008,1028,1049,1069,1088,1107,1129,1148,1169,1188,1208,1229,1248,1267,1289,1308,1329,1348,1368,1389,1409,1427,1449,1468,1489,1509,1529,1548,1569,1589,1609,1629,1648,1669,1688,1709,1727,1748,1769,1788,1808,1829,1847,1868,1888,1908,1929,1947,1967,1989,2008,2029,2048,2069,2087,2108,2129],"xSR":741.5,"ySR":469.95,"xT1":424.9,"yT1":0,"xT2":1058.1,"yT2":0,"toosoon":0,"cond_shown":"Congruent","ratio_trial":300,"L_num":5,"L_den":25,"R_num":6,"R_den":12,"correct_side":2,"subjID":"SaraCastañedaPinzón27","gender":"1","school":"6","age":"11"},{"start_time":1551794025742,"click_time":1551794026994,"finger_time":1551794026713,"fix_duration":748.5082980796166,"trial":16,"RT":971,"MT":281,"sideResp":1,"stimulus":[],"xmouse":[807,807,807,807,807,807,807,807,807,807,807,807,807,807,807,807,807,807,807,807,807,807,807,807,807,807,807,807,807,807,807,807,807,807,807,807,807,807,807,807,807,807,807,807,807,807,807,798,766,728,689,649,606,599,591,576,557,551,545,541,536,525,517],"ymouse":[485,485,485,485,485,485,485,485,485,485,485,485,485,485,485,485,485,485,485,485,485,485,485,485,485,485,485,485,485,485,485,485,485,485,485,485,485,485,485,485,485,485,485,485,485,485,485,475,419,353,286,221,158,141,124,94,68,62,56,53,50,47,47],"timestamp_mouse":[12,44,51,72,91,112,132,150,172,192,211,231,251,271,291,311,332,351,370,392,411,432,451,472,490,511,532,552,570,592,610,632,650,671,691,710,731,751,772,792,812,831,852,871,890,912,931,951,971,991,1010,1031,1051,1071,1091,1112,1130,1151,1171,1191,1212,1231,1252],"xSR":741.5,"ySR":469.95,"xT1":424.9,"yT1":0,"xT2":1058.1,"yT2":0,"toosoon":0,"cond_shown":"Incongruent","ratio_trial":100,"L_num":12,"L_den":30,"R_num":2,"R_den":4,"correct_side":2,"subjID":"SaraCastañedaPinzón27","gender":"1","school":"6","age":"11"},{"start_time":1551794033715,"click_time":1551794035452,"finger_time":1551794035133,"fix_duration":641.0234626561244,"trial":17,"RT":1418,"MT":319,"sideResp":2,"stimulus":[],"xmouse":[794,794,794,794,794,794,794,794,794,794,794,794,794,794,794,794,794,794,794,794,794,794,794,794,794,794,794,794,794,794,794,794,794,794,794,794,794,794,794,794,794,794,794,794,794,794,794,794,794,794,794,794,794,794,794,794,794,794,794,794,794,794,794,794,794,794,794,794,794,795,819,857,919,960,996,1021,1031,1050,1057,1066,1075,1081,1092,1098,1103,1105,1108],"ymouse":[480,480,480,480,480,480,480,480,480,480,480,480,480,480,480,480,480,480,480,480,480,480,480,480,480,480,480,480,480,480,480,480,480,480,480,480,480,480,480,480,480,480,480,480,480,480,480,480,480,480,480,480,480,480,480,480,480,480,480,480,480,480,480,480,480,480,480,480,480,479,468,451,413,377,341,303,279,238,220,201,182,168,142,129,116,106,98],"timestamp_mouse":[18,38,58,79,97,119,139,158,179,199,219,239,258,278,299,318,337,359,379,398,417,438,458,477,498,519,538,558,579,599,619,638,658,679,699,719,738,759,779,799,817,839,858,879,899,918,939,958,978,998,1018,1039,1059,1079,1099,1119,1139,1157,1177,1199,1219,1238,1259,1279,1297,1319,1339,1358,1378,1397,1418,1439,1458,1479,1498,1519,1537,1558,1578,1597,1617,1638,1659,1679,1698,1718,1737],"xSR":741.5,"ySR":469.95,"xT1":424.9,"yT1":0,"xT2":1058.1,"yT2":0,"toosoon":0,"cond_shown":"Congruent","ratio_trial":100,"L_num":2,"L_den":5,"R_num":11,"R_den":22,"correct_side":2,"subjID":"SaraCastañedaPinzón27","gender":"1","school":"6","age":"11"},{"start_time":1551794037132,"click_time":1551794038873,"finger_time":1551794038693,"fix_duration":458.18037324255823,"trial":18,"RT":1561,"MT":180,"sideResp":1,"stimulus":[],"xmouse":[784,784,784,784,784,784,784,784,784,784,784,784,784,784,784,784,784,784,784,784,784,784,784,784,784,784,784,784,784,784,784,784,784,784,784,784,784,784,784,784,784,784,784,784,784,784,784,784,784,784,784,784,784,784,784,784,784,784,784,784,784,784,784,784,784,784,784,784,784,784,784,784,784,784,784,784,785,784,767,742,712,686,613,585,563,546,527,496],"ymouse":[522,522,522,522,522,522,522,522,522,522,522,522,522,522,522,522,522,522,522,522,522,522,522,522,522,522,522,522,522,522,522,522,522,522,522,522,522,522,522,522,522,522,522,522,522,522,522,522,522,522,522,522,522,522,522,522,522,522,522,522,522,522,522,522,522,522,522,522,522,522,522,522,522,522,522,522,521,494,457,412,366,325,224,185,154,134,115,92],"timestamp_mouse":[8,22,41,61,81,102,121,142,161,181,202,221,242,261,282,301,321,341,360,382,402,420,441,461,481,501,520,541,561,582,600,621,641,661,682,701,721,740,761,781,801,820,842,860,882,902,921,942,961,981,1001,1021,1041,1061,1082,1101,1121,1140,1160,1181,1202,1220,1241,1260,1281,1301,1321,1340,1361,1381,1400,1422,1441,1461,1482,1501,1522,1541,1561,1581,1602,1622,1642,1662,1681,1701,1721,1741],"xSR":741.5,"ySR":469.95,"xT1":424.9,"yT1":0,"xT2":1058.1,"yT2":0,"toosoon":0,"cond_shown":"Congruent","ratio_trial":100,"L_num":3,"L_den":6,"R_num":2,"R_den":5,"correct_side":1,"subjID":"SaraCastañedaPinzón27","gender":"1","school":"6","age":"11"},{"start_time":1551794041136,"click_time":1551794042333,"finger_time":1551794042073,"fix_duration":1301.3482670986489,"trial":19,"RT":937,"MT":260,"sideResp":1,"stimulus":[],"xmouse":[797,797,797,797,797,797,797,797,797,797,797,797,797,797,797,797,797,797,797,797,797,797,797,797,797,797,797,797,797,797,797,797,797,797,797,797,797,797,797,797,797,796,791,784,774,754,721,704,689,673,654,618,595,569,535,498,467,457,450,444],"ymouse":[528,528,528,528,528,528,528,528,528,528,528,528,528,528,528,528,528,528,528,528,528,528,528,528,528,528,528,528,528,528,528,528,528,528,528,528,528,528,528,528,528,526,519,510,497,477,446,429,410,391,369,326,299,267,220,176,133,116,100,86],"timestamp_mouse":[17,37,58,78,97,117,137,156,177,198,217,237,257,277,296,318,337,357,377,397,417,437,456,478,498,517,537,556,576,598,617,637,658,678,697,718,737,756,778,798,817,837,858,878,896,918,937,956,977,997,1017,1037,1057,1078,1097,1116,1137,1157,1177,1197],"xSR":741.5,"ySR":469.95,"xT1":424.9,"yT1":0,"xT2":1058.1,"yT2":0,"toosoon":0,"cond_shown":"Incongruent","ratio_trial":300,"L_num":4,"L_den":20,"R_num":2,"R_den":4,"correct_side":2,"subjID":"SaraCastañedaPinzón27","gender":"1","school":"6","age":"11"},{"start_time":1551794046825,"click_time":1551794048553,"finger_time":1551794048353,"fix_duration":250,"trial":20,"RT":1528,"MT":200,"sideResp":2,"stimulus":[],"xmouse":[764,764,764,764,764,764,764,764,764,764,764,764,764,764,764,764,764,764,764,764,764,764,764,764,764,764,764,764,764,764,764,764,764,764,764,764,764,764,764,764,764,764,764,764,764,764,764,764,764,764,764,764,764,764,764,764,764,764,764,764,764,764,764,764,764,764,764,764,764,764,764,764,764,764,770,792,817,885,922,942,959,969,1006,1024,1040,1053,1061],"ymouse":[502,502,502,502,502,502,502,502,502,502,502,502,502,502,502,502,502,502,502,502,502,502,502,502,502,502,502,502,502,502,502,502,502,502,502,502,502,502,502,502,502,502,502,502,502,502,502,502,502,502,502,502,502,502,502,502,502,502,502,502,502,502,502,502,502,502,502,502,502,502,502,502,502,502,502,486,460,350,286,240,202,179,131,118,107,96,91],"timestamp_mouse":[19,35,48,67,88,109,128,149,169,188,208,229,248,267,287,308,328,348,369,387,408,427,448,469,488,508,528,548,567,588,607,629,649,668,688,709,728,749,769,787,809,827,848,869,887,909,929,948,969,987,1008,1028,1049,1068,1089,1109,1128,1147,1169,1189,1207,1229,1248,1268,1288,1308,1329,1348,1369,1389,1409,1429,1448,1469,1488,1509,1528,1547,1568,1587,1609,1629,1648,1668,1687,1708,1728],"xSR":741.5,"ySR":469.95,"xT1":424.9,"yT1":0,"xT2":1058.1,"yT2":0,"toosoon":0,"cond_shown":"Incongruent","ratio_trial":200,"L_num":7,"L_den":10,"R_num":12,"R_den":24,"correct_side":1,"subjID":"SaraCastañedaPinzón27","gender":"1","school":"6","age":"11"},{"start_time":1551794050309,"click_time":1551794051073,"finger_time":1551794050993,"fix_duration":734.6174674687105,"trial":21,"RT":684,"MT":80,"sideResp":2,"stimulus":[],"xmouse":[786,786,786,786,786,786,786,786,786,786,786,786,786,786,786,786,786,786,786,786,786,786,786,786,786,786,786,786,786,786,786,786,788,817,857,905,987,1039,1117],"ymouse":[520,520,520,520,520,520,520,520,520,520,520,520,520,520,520,520,520,520,520,520,520,520,520,520,520,520,520,520,520,520,520,520,515,472,402,322,208,141,56],"timestamp_mouse":[9,28,44,64,84,104,123,144,165,185,203,224,245,263,284,304,324,345,364,384,404,424,445,465,484,504,525,543,563,585,603,624,644,663,684,704,724,745,764],"xSR":741.5,"ySR":469.95,"xT1":424.9,"yT1":0,"xT2":1058.1,"yT2":0,"toosoon":0,"cond_shown":"Congruent","ratio_trial":300,"L_num":2,"L_den":10,"R_num":12,"R_den":24,"correct_side":2,"subjID":"SaraCastañedaPinzón27","gender":"1","school":"6","age":"11"},{"start_time":1551794052385,"click_time":1551794053254,"finger_time":1551794053112,"fix_duration":250,"trial":22,"RT":727,"MT":142,"sideResp":1,"stimulus":[],"xmouse":[766,766,766,766,766,766,766,766,766,766,766,766,766,766,766,766,766,766,766,766,766,766,766,766,766,766,766,766,766,766,766,766,766,766,763,744,707,643,569,477,454,442,438,435],"ymouse":[534,534,534,534,534,534,534,534,534,534,534,534,534,534,534,534,534,534,534,534,534,534,534,534,534,534,534,534,534,534,534,534,534,534,524,482,420,342,254,151,131,116,107,98],"timestamp_mouse":[8,35,49,68,89,108,128,147,169,188,208,227,249,268,287,307,329,347,368,389,407,428,448,468,488,508,528,548,568,588,608,629,649,668,688,707,727,747,768,788,809,827,849,869],"xSR":741.5,"ySR":469.95,"xT1":424.9,"yT1":0,"xT2":1058.1,"yT2":0,"toosoon":0,"cond_shown":"Incongruent","ratio_trial":200,"L_num":4,"L_den":30,"R_num":1,"R_den":3,"correct_side":2,"subjID":"SaraCastañedaPinzón27","gender":"1","school":"6","age":"11"},{"start_time":1551794055174,"click_time":1551794056773,"finger_time":1551794056633,"fix_duration":718.1461013141496,"trial":23,"RT":1459,"MT":140,"sideResp":2,"stimulus":[],"xmouse":[793,793,793,793,793,793,793,793,793,793,793,793,793,793,793,793,793,793,793,793,793,793,793,793,793,793,793,793,793,793,793,793,793,793,793,793,793,793,793,793,793,793,793,793,793,793,793,793,793,793,793,793,793,793,793,793,793,793,793,793,793,793,793,793,793,793,793,793,793,793,809,823,867,956,1029,1041,1044,1046,1048,1059],"ymouse":[525,525,525,525,525,525,525,525,525,525,525,525,525,525,525,525,525,525,525,525,525,525,525,525,525,525,525,525,525,525,525,525,525,525,525,525,525,525,525,525,525,525,525,525,525,525,525,525,525,524,524,524,524,524,524,524,524,524,524,524,524,524,524,524,524,524,524,524,524,524,510,495,431,284,129,96,73,56,49,33],"timestamp_mouse":[27,38,59,80,98,120,139,159,180,200,218,239,260,278,299,320,340,360,380,399,419,440,459,479,499,520,540,558,580,599,618,639,660,678,700,719,740,760,780,799,819,840,859,879,899,919,939,960,979,999,1019,1038,1060,1080,1099,1119,1139,1160,1178,1199,1219,1240,1259,1279,1299,1319,1338,1360,1378,1400,1419,1439,1459,1479,1499,1519,1539,1558,1580,1599],"xSR":741.5,"ySR":469.95,"xT1":424.9,"yT1":0,"xT2":1058.1,"yT2":0,"toosoon":0,"cond_shown":"Incongruent","ratio_trial":200,"L_num":14,"L_den":30,"R_num":12,"R_den":18,"correct_side":2,"subjID":"SaraCastañedaPinzón27","gender":"1","school":"6","age":"11"},{"start_time":1551794058642,"click_time":1551794060313,"finger_time":1551794059912,"fix_duration":888.7320734181491,"trial":24,"RT":1270,"MT":401,"sideResp":2,"stimulus":[],"xmouse":[814,814,814,814,814,814,814,814,814,814,814,814,814,814,814,814,814,814,814,814,814,814,814,814,814,814,814,814,814,814,814,814,814,814,814,814,814,814,814,814,814,814,814,814,814,814,814,814,814,814,814,814,814,814,814,814,814,814,814,814,814,814,820,893,977,1037,1074,1080,1084,1091,1098,1105,1118,1122,1123,1123,1121,1119,1115,1112,1110,1107,1104,1100],"ymouse":[520,520,520,520,520,520,520,520,520,520,520,520,520,520,520,520,520,520,520,520,520,520,520,520,520,520,520,520,520,520,520,520,520,520,520,520,520,520,520,520,520,520,520,520,520,520,520,520,520,520,520,520,520,520,520,520,520,520,520,520,520,520,516,495,471,455,426,396,353,314,260,236,202,193,188,183,170,159,146,137,130,120,110,99],"timestamp_mouse":[12,32,51,71,91,111,130,152,172,191,211,231,252,271,290,311,331,350,371,392,411,431,451,471,492,512,531,550,572,592,611,632,651,671,690,712,731,751,771,792,810,832,851,872,890,912,931,952,970,991,1012,1031,1050,1072,1092,1112,1131,1151,1172,1191,1210,1232,1252,1270,1291,1312,1331,1352,1371,1392,1411,1431,1452,1471,1492,1511,1531,1551,1571,1591,1610,1630,1652,1671],"xSR":741.5,"ySR":469.95,"xT1":424.9,"yT1":0,"xT2":1058.1,"yT2":0,"toosoon":0,"cond_shown":"Incongruent","ratio_trial":300,"L_num":13,"L_den":26,"R_num":12,"R_den":15,"correct_side":2,"subjID":"SaraCastañedaPinzón27","gender":"1","school":"6","age":"11"},{"start_time":1551794067603,"click_time":1551794069575,"finger_time":1551794069315,"fix_duration":286.45459365602267,"trial":25,"RT":1712,"MT":260,"sideResp":2,"stimulus":[],"xmouse":[789,789,789,789,789,789,789,789,789,789,789,789,789,789,789,789,789,789,789,789,789,789,789,789,789,789,789,789,789,789,789,789,789,789,789,789,789,789,789,789,789,789,789,789,789,789,789,789,789,789,789,789,789,789,789,789,789,789,789,789,789,789,789,789,789,789,789,789,789,789,789,789,789,789,789,789,789,789,789,789,789,789,789,795,835,866,879,899,942,962,981,993,1002,1012,1017,1023,1031,1043,1066],"ymouse":[513,513,513,513,513,513,513,513,513,513,513,513,513,513,513,513,513,513,513,513,513,513,513,513,513,513,513,513,513,513,513,513,513,513,513,513,513,513,513,513,513,513,513,513,513,513,513,513,513,513,513,513,513,513,513,513,513,513,513,513,513,513,513,513,513,513,513,513,513,513,513,513,513,513,513,513,513,513,513,513,513,513,513,513,497,475,444,376,227,164,129,112,99,86,79,74,70,66,59],"timestamp_mouse":[11,35,52,72,91,111,132,152,171,192,211,231,253,273,292,312,331,353,372,391,412,431,451,472,492,511,532,551,571,591,613,631,651,673,691,712,733,751,772,791,812,833,851,872,892,911,933,951,972,991,1012,1031,1051,1071,1093,1112,1132,1152,1173,1191,1212,1233,1251,1272,1293,1312,1332,1353,1373,1391,1411,1432,1451,1471,1492,1512,1532,1551,1573,1591,1611,1631,1651,1671,1693,1712,1732,1752,1772,1791,1811,1832,1852,1872,1891,1912,1932,1952,1972],"xSR":741.5,"ySR":469.95,"xT1":424.9,"yT1":0,"xT2":1058.1,"yT2":0,"toosoon":0,"cond_shown":"Incongruent","ratio_trial":300,"L_num":7,"L_den":10,"R_num":8,"R_den":20,"correct_side":1,"subjID":"SaraCastañedaPinzón27","gender":"1","school":"6","age":"11"},{"start_time":1551794071822,"click_time":1551794072596,"finger_time":1551794072434,"fix_duration":1346.8637920121778,"trial":26,"RT":612,"MT":162,"sideResp":1,"stimulus":[],"xmouse":[783,783,783,783,783,783,783,783,783,783,783,783,784,784,784,784,784,784,784,784,784,784,783,783,782,782,781,779,767,749,730,717,682,603,564,545,531,491,471],"ymouse":[528,528,528,528,528,528,528,528,528,528,528,528,527,527,525,525,525,525,525,525,525,525,524,524,524,524,524,524,522,511,497,475,418,308,256,221,191,104,67],"timestamp_mouse":[12,39,53,74,92,113,133,153,174,192,212,233,253,272,292,314,334,353,372,392,413,432,452,472,492,512,532,552,573,592,612,632,652,672,692,712,732,752,774],"xSR":741.5,"ySR":469.95,"xT1":424.9,"yT1":0,"xT2":1058.1,"yT2":0,"toosoon":0,"cond_shown":"Incongruent","ratio_trial":200,"L_num":14,"L_den":30,"R_num":6,"R_den":9,"correct_side":2,"subjID":"SaraCastañedaPinzón27","gender":"1","school":"6","age":"11"},{"start_time":1551794074932,"click_time":1551794076555,"finger_time":1551794076415,"fix_duration":1236.8468685256632,"trial":27,"RT":1483,"MT":140,"sideResp":2,"stimulus":[],"xmouse":[795,795,795,795,795,795,795,795,795,795,795,795,795,795,795,795,795,795,795,795,795,795,795,795,795,795,795,795,795,795,795,795,795,795,795,795,795,795,795,795,795,795,795,795,795,795,795,795,795,795,795,795,795,795,795,795,795,795,795,795,795,795,795,795,795,795,795,795,795,795,795,795,806,826,850,868,887,961,999,1040,1069,1085],"ymouse":[527,527,527,527,527,527,527,527,527,527,527,527,527,527,527,527,527,527,527,527,527,527,527,527,527,527,527,527,527,527,527,527,527,527,527,527,527,527,527,527,527,527,527,527,527,527,527,527,527,527,527,527,527,527,527,527,527,527,527,527,527,527,527,527,527,527,526,526,526,525,525,524,515,508,502,492,475,321,245,165,117,94],"timestamp_mouse":[9,22,44,63,83,104,122,142,162,182,204,222,243,263,282,303,322,342,362,382,402,422,442,462,483,502,522,543,563,582,604,622,643,662,683,704,723,742,763,784,804,823,843,863,883,902,923,943,963,984,1003,1022,1042,1063,1084,1102,1123,1143,1164,1183,1202,1222,1242,1264,1282,1302,1322,1342,1363,1383,1402,1422,1442,1464,1483,1503,1524,1544,1563,1583,1603,1622],"xSR":741.5,"ySR":469.95,"xT1":424.9,"yT1":0,"xT2":1058.1,"yT2":0,"toosoon":0,"cond_shown":"Incongruent","ratio_trial":100,"L_num":10,"L_den":25,"R_num":8,"R_den":16,"correct_side":2,"subjID":"SaraCastañedaPinzón27","gender":"1","school":"6","age":"11"},{"start_time":1551794078633,"click_time":1551794079754,"finger_time":1551794079374,"fix_duration":816.799475120177,"trial":28,"RT":741,"MT":380,"sideResp":2,"stimulus":[],"xmouse":[804,804,804,804,804,804,804,804,804,804,804,804,804,804,804,804,804,804,804,804,804,804,804,804,804,804,804,804,804,804,804,804,804,804,804,807,817,857,866,873,881,886,898,908,922,934,946,966,974,978,982,992,1022,1040,1053,1065,1075],"ymouse":[545,545,545,545,545,545,545,545,545,545,545,545,545,545,545,545,545,545,545,545,545,545,545,545,545,545,545,545,545,545,545,545,545,545,545,540,533,496,477,452,418,387,317,295,271,250,230,197,184,178,174,166,143,131,118,106,93],"timestamp_mouse":[11,21,41,62,81,102,123,141,162,182,202,222,242,263,281,301,322,341,361,382,401,423,441,461,481,501,523,542,562,583,601,622,642,662,681,702,721,741,762,782,802,822,842,861,881,901,923,941,962,981,1003,1023,1041,1062,1081,1102,1121],"xSR":741.5,"ySR":469.95,"xT1":424.9,"yT1":0,"xT2":1058.1,"yT2":0,"toosoon":0,"cond_shown":"Incongruent","ratio_trial":100,"L_num":11,"L_den":22,"R_num":9,"R_den":15,"correct_side":2,"subjID":"SaraCastañedaPinzón27","gender":"1","school":"6","age":"11"},{"start_time":1551794080825,"click_time":1551794082736,"finger_time":1551794082414,"fix_duration":250,"trial":29,"RT":1589,"MT":322,"sideResp":1,"stimulus":[],"xmouse":[794,794,794,794,794,794,794,794,794,794,794,794,794,794,794,794,794,794,794,794,794,794,794,794,794,794,794,794,794,794,794,794,794,794,794,794,794,794,794,794,794,794,794,794,794,794,794,794,794,794,794,794,794,794,794,794,794,794,794,794,794,794,794,794,794,794,794,794,794,794,794,794,794,794,794,794,794,794,770,670,600,575,542,539,535,526,516,508,507,506,504,502,486,479,474,473],"ymouse":[514,514,514,514,514,514,514,514,514,514,514,514,514,514,514,514,514,514,514,514,514,514,514,514,514,514,514,514,514,514,514,514,514,514,514,514,514,514,514,514,514,514,514,514,514,514,514,514,514,514,514,514,514,514,514,514,514,514,514,514,514,514,514,514,514,514,514,514,514,514,514,514,514,514,514,514,514,514,508,479,427,384,302,278,259,238,223,206,200,193,182,168,125,113,103,93],"timestamp_mouse":[10,33,50,71,89,109,130,151,171,189,210,230,250,270,291,310,330,350,370,391,409,430,450,469,490,510,530,551,569,589,611,629,649,669,691,710,730,751,770,789,809,829,850,870,890,911,930,949,970,990,1010,1029,1049,1071,1089,1111,1131,1149,1169,1189,1210,1230,1250,1270,1291,1309,1329,1350,1370,1391,1409,1429,1449,1470,1490,1510,1529,1549,1570,1589,1610,1629,1649,1669,1690,1709,1729,1750,1771,1790,1809,1831,1849,1869,1890,1910],"xSR":741.5,"ySR":469.95,"xT1":424.9,"yT1":0,"xT2":1058.1,"yT2":0,"toosoon":0,"cond_shown":"Congruent","ratio_trial":200,"L_num":8,"L_den":15,"R_num":3,"R_den":9,"correct_side":1,"subjID":"SaraCastañedaPinzón27","gender":"1","school":"6","age":"11"},{"start_time":1551794083808,"click_time":1551794085294,"finger_time":1551794084996,"fix_duration":250,"trial":30,"RT":1188,"MT":298,"sideResp":2,"stimulus":[],"xmouse":[800,800,800,800,800,800,800,800,800,800,800,800,800,800,800,800,800,800,800,800,800,800,800,800,800,800,800,800,800,800,800,800,800,800,800,800,800,800,800,800,800,800,800,800,800,800,800,800,800,800,800,800,800,800,800,800,800,800,812,844,872,894,921,998,1014,1021,1026,1029,1036,1042,1048,1053,1055,1057,1061],"ymouse":[518,518,518,518,518,518,518,518,518,518,518,518,518,518,518,518,518,518,518,518,518,518,518,518,518,518,518,518,518,518,518,518,518,518,518,518,518,518,518,518,518,518,518,518,518,518,518,518,518,518,518,518,518,518,518,518,518,516,500,456,401,352,302,198,177,161,148,139,117,104,90,81,77,74,70],"timestamp_mouse":[7,39,47,66,86,108,127,146,167,186,207,227,246,267,286,307,328,346,366,388,406,427,447,468,486,506,526,546,566,586,607,626,646,667,687,707,727,746,766,788,806,827,848,867,886,908,927,947,967,987,1006,1028,1046,1066,1087,1108,1128,1146,1166,1188,1206,1227,1246,1266,1287,1307,1327,1347,1367,1388,1407,1426,1447,1466,1486],"xSR":741.5,"ySR":469.95,"xT1":424.9,"yT1":0,"xT2":1058.1,"yT2":0,"toosoon":0,"cond_shown":"Congruent","ratio_trial":200,"L_num":16,"L_den":20,"R_num":12,"R_den":20,"correct_side":1,"subjID":"SaraCastañedaPinzón27","gender":"1","school":"6","age":"11"},{"start_time":1551794095052,"click_time":1551794095795,"finger_time":1551794095735,"fix_duration":777.2587168239,"trial":31,"RT":683,"MT":60,"sideResp":2,"stimulus":[],"xmouse":[793,793,793,793,793,793,793,793,793,793,793,793,793,793,793,793,793,793,793,793,793,793,793,793,793,793,793,793,793,793,793,793,793,796,802,838,988,1066],"ymouse":[491,491,491,491,491,491,491,491,491,491,491,491,491,491,491,491,491,491,491,491,491,491,491,491,491,491,491,491,491,491,491,491,491,484,468,387,130,16],"timestamp_mouse":[8,33,44,64,83,102,122,143,163,184,204,223,242,262,284,303,322,343,362,384,402,422,444,463,482,504,523,543,563,582,602,622,642,662,683,702,724,742],"xSR":741.5,"ySR":469.95,"xT1":424.9,"yT1":0,"xT2":1058.1,"yT2":0,"toosoon":0,"cond_shown":"Congruent","ratio_trial":300,"L_num":3,"L_den":12,"R_num":11,"R_den":20,"correct_side":2,"subjID":"SaraCastañedaPinzón27","gender":"1","school":"6","age":"11"},{"start_time":1551794097166,"click_time":1551794099275,"finger_time":1551794098714,"fix_duration":250,"trial":32,"RT":1548,"MT":561,"sideResp":2,"stimulus":[],"xmouse":[791,791,791,791,791,791,791,791,791,791,791,791,791,791,791,791,791,791,791,791,791,791,791,791,791,791,791,791,791,791,791,791,791,791,791,791,791,791,791,791,791,791,791,791,791,791,791,791,791,791,791,791,791,791,791,791,791,791,791,791,791,791,791,791,791,791,791,791,791,791,791,791,791,791,791,791,795,809,840,878,955,985,1003,1014,1023,1039,1044,1046,1048,1051,1051,1051,1051,1051,1051,1051,1051,1052,1054,1054,1055,1056,1056,1058,1058,1059],"ymouse":[489,489,489,489,489,489,489,489,489,489,489,489,489,489,489,489,489,489,489,489,489,489,489,489,489,489,489,489,489,489,489,489,489,489,489,489,489,489,489,489,489,489,489,489,489,489,489,489,489,489,489,489,489,489,489,489,489,489,489,489,489,489,489,489,489,489,489,489,489,489,489,489,489,489,489,489,485,465,422,353,210,157,121,96,80,61,56,52,49,46,45,45,45,45,45,45,45,45,45,45,45,45,45,45,45,45],"timestamp_mouse":[9,39,49,70,88,109,129,150,168,190,208,228,250,270,288,308,328,348,370,389,408,430,449,468,488,508,529,548,570,588,608,628,649,668,689,708,728,748,769,788,810,828,849,869,888,908,930,949,968,988,1008,1029,1048,1069,1089,1109,1128,1149,1168,1189,1209,1230,1248,1270,1288,1309,1328,1349,1369,1388,1409,1428,1448,1468,1488,1510,1529,1548,1570,1588,1608,1629,1650,1669,1688,1708,1729,1748,1768,1789,1809,1828,1850,1869,1888,1909,1930,1948,1968,1989,2008,2028,2048,2069,2090,2109],"xSR":741.5,"ySR":469.95,"xT1":424.9,"yT1":0,"xT2":1058.1,"yT2":0,"toosoon":0,"cond_shown":"Incongruent","ratio_trial":300,"L_num":8,"L_den":10,"R_num":9,"R_den":18,"correct_side":1,"subjID":"SaraCastañedaPinzón27","gender":"1","school":"6","age":"11"},{"start_time":1551794100918,"click_time":1551794101774,"finger_time":1551794101674,"fix_duration":502.69188877431213,"trial":33,"RT":756,"MT":100,"sideResp":2,"stimulus":[],"xmouse":[793,793,793,793,793,793,793,793,793,793,793,793,793,793,793,793,793,793,793,793,793,793,793,793,793,793,793,793,793,793,793,793,793,793,793,793,797,860,909,971,1026,1058,1075],"ymouse":[507,507,507,507,507,507,507,507,507,507,507,507,507,507,507,507,507,507,507,507,507,507,507,507,507,507,507,507,507,507,507,507,507,507,507,508,500,393,307,213,141,106,92],"timestamp_mouse":[21,36,57,77,98,118,137,156,178,196,216,236,257,276,298,316,336,356,377,398,418,436,457,477,496,516,536,557,576,597,617,636,656,678,696,716,738,756,778,796,816,836,856],"xSR":741.5,"ySR":469.95,"xT1":424.9,"yT1":0,"xT2":1058.1,"yT2":0,"toosoon":0,"cond_shown":"Incongruent","ratio_trial":200,"L_num":7,"L_den":10,"R_num":12,"R_den":24,"correct_side":1,"subjID":"SaraCastañedaPinzón27","gender":"1","school":"6","age":"11"},{"start_time":1551794103067,"click_time":1551794103975,"finger_time":1551794103875,"fix_duration":250,"trial":34,"RT":808,"MT":100,"sideResp":1,"stimulus":[],"xmouse":[799,799,799,799,799,799,799,799,799,799,799,799,799,799,799,799,799,799,799,799,799,799,799,799,799,799,799,799,799,799,799,799,799,799,799,799,799,795,780,766,668,627,599,578,557,523],"ymouse":[530,530,530,530,530,530,528,527,526,526,526,526,526,526,526,526,526,526,526,526,526,526,526,526,526,526,526,526,526,526,526,526,526,526,526,526,526,519,497,476,315,255,212,172,138,84],"timestamp_mouse":[7,38,48,68,87,109,127,147,168,188,207,227,247,268,288,308,328,349,367,387,408,428,448,468,487,507,528,548,569,587,608,627,648,667,687,707,728,749,767,787,808,827,847,868,888,908],"xSR":741.5,"ySR":469.95,"xT1":424.9,"yT1":0,"xT2":1058.1,"yT2":0,"toosoon":0,"cond_shown":"Congruent","ratio_trial":100,"L_num":6,"L_den":20,"R_num":5,"R_den":25,"correct_side":1,"subjID":"SaraCastañedaPinzón27","gender":"1","school":"6","age":"11"},{"start_time":1551794105367,"click_time":1551794106455,"finger_time":1551794106375,"fix_duration":471.8880260460073,"trial":35,"RT":1008,"MT":80,"sideResp":2,"stimulus":[],"xmouse":[810,810,810,810,810,810,810,810,810,810,810,810,810,810,810,810,810,810,810,810,810,810,810,810,810,810,810,810,810,810,810,810,810,810,810,810,810,810,810,810,810,810,810,810,810,810,810,810,812,813,858,924,1009,1092,1145],"ymouse":[502,502,502,502,502,502,502,502,502,502,502,502,502,502,502,502,502,502,502,502,502,502,502,502,502,502,502,502,502,502,502,502,502,502,502,502,502,502,502,502,502,502,502,502,502,502,502,502,495,490,419,334,235,130,54],"timestamp_mouse":[8,36,49,69,88,109,128,148,169,188,207,227,248,267,288,309,329,347,368,388,407,427,448,469,488,507,527,547,567,588,607,627,648,668,688,707,729,748,768,788,808,828,849,867,889,908,928,947,968,988,1008,1027,1047,1067,1087],"xSR":741.5,"ySR":469.95,"xT1":424.9,"yT1":0,"xT2":1058.1,"yT2":0,"toosoon":0,"cond_shown":"Incongruent","ratio_trial":100,"L_num":13,"L_den":26,"R_num":12,"R_den":20,"correct_side":2,"subjID":"SaraCastañedaPinzón27","gender":"1","school":"6","age":"11"},{"start_time":1551794107765,"click_time":1551794109635,"finger_time":1551794109255,"fix_duration":250,"trial":36,"RT":1490,"MT":380,"sideResp":2,"stimulus":[],"xmouse":[791,791,791,791,791,791,791,791,791,791,791,791,791,791,791,791,791,791,791,791,791,791,791,791,791,791,791,791,791,791,791,791,791,791,791,791,791,791,791,791,791,791,791,791,791,791,791,791,791,791,791,791,791,791,791,791,791,791,791,791,791,791,791,791,791,791,791,791,791,791,791,793,793,797,815,880,922,960,988,1003,1013,1013,1017,1023,1030,1044,1047,1047,1049,1051,1058,1061,1066,1070],"ymouse":[490,490,490,490,490,490,490,490,490,490,490,490,490,490,490,490,490,490,490,490,490,490,490,490,490,490,490,490,490,490,490,490,490,490,490,490,490,490,490,490,490,490,490,490,490,490,490,490,490,490,490,490,490,490,490,490,490,490,490,490,490,490,490,490,490,490,490,490,490,490,490,488,484,471,421,316,268,231,210,201,194,194,190,183,176,154,150,148,146,140,125,116,103,90],"timestamp_mouse":[9,29,49,70,90,110,129,150,170,190,209,231,251,270,289,309,329,350,370,389,409,429,449,470,489,510,529,551,570,589,610,629,650,669,690,710,731,749,771,790,809,830,851,871,890,910,929,949,970,990,1009,1030,1049,1070,1091,1110,1130,1149,1171,1189,1210,1231,1250,1271,1290,1309,1330,1350,1370,1389,1409,1429,1450,1470,1490,1510,1530,1549,1569,1590,1609,1629,1650,1669,1689,1709,1730,1749,1769,1791,1810,1829,1849,1869],"xSR":741.5,"ySR":469.95,"xT1":424.9,"yT1":0,"xT2":1058.1,"yT2":0,"toosoon":0,"cond_shown":"Incongruent","ratio_trial":200,"L_num":4,"L_den":5,"R_num":6,"R_den":10,"correct_side":1,"subjID":"SaraCastañedaPinzón27","gender":"1","school":"6","age":"11"},{"start_time":1551794111455,"click_time":1551794112815,"finger_time":1551794112495,"fix_duration":1057.5016634452504,"trial":37,"RT":1040,"MT":320,"sideResp":1,"stimulus":[],"xmouse":[774,774,774,774,774,774,774,774,774,774,774,774,774,774,774,774,774,774,774,774,774,774,774,774,774,774,774,774,774,774,774,774,774,774,774,774,774,774,774,774,774,774,774,774,774,774,774,774,774,774,774,749,685,597,500,413,287,271,271,277,277,277,277,277,277,277,277,494,519],"ymouse":[523,523,523,523,523,523,523,523,523,523,523,523,523,523,523,523,523,523,523,523,523,523,523,523,523,523,523,523,523,523,523,523,523,523,523,523,523,523,523,523,523,523,523,523,523,523,523,523,523,523,523,503,449,379,293,208,83,41,20,1,1,1,1,1,1,1,1,0,10],"timestamp_mouse":[1,31,40,59,79,99,120,140,160,179,200,219,240,259,279,299,319,341,359,379,401,420,440,461,480,499,520,541,559,579,601,620,639,661,679,699,720,740,761,779,800,820,840,859,880,900,920,939,960,979,1000,1020,1040,1059,1080,1099,1120,1139,1160,1180,1200,1220,1240,1259,1280,1299,1319,1339,1360],"xSR":741.5,"ySR":469.95,"xT1":424.9,"yT1":0,"xT2":1058.1,"yT2":0,"toosoon":0,"cond_shown":"Congruent","ratio_trial":200,"L_num":7,"L_den":21,"R_num":2,"R_den":15,"correct_side":1,"subjID":"SaraCastañedaPinzón27","gender":"1","school":"6","age":"11"},{"start_time":1551794115006,"click_time":1551794115815,"finger_time":1551794115634,"fix_duration":910.7464365925812,"trial":38,"RT":628,"MT":181,"sideResp":1,"stimulus":[],"xmouse":[820,820,820,820,820,820,820,820,820,820,820,820,820,820,820,820,820,820,821,821,821,821,821,821,821,821,821,821,821,816,798,761,685,569,552,542,534,532,531,524,517],"ymouse":[533,533,533,533,533,533,533,533,533,533,533,533,533,533,533,533,533,533,533,531,530,530,530,530,530,530,530,529,522,508,482,443,394,299,272,249,226,205,150,110,81],"timestamp_mouse":[9,33,48,69,90,108,128,148,169,189,208,228,249,269,289,309,330,350,369,388,409,430,448,468,489,509,529,548,568,588,609,628,648,669,690,708,729,748,768,789,809],"xSR":741.5,"ySR":469.95,"xT1":424.9,"yT1":0,"xT2":1058.1,"yT2":0,"toosoon":0,"cond_shown":"Incongruent","ratio_trial":300,"L_num":13,"L_den":26,"R_num":12,"R_den":15,"correct_side":2,"subjID":"SaraCastañedaPinzón27","gender":"1","school":"6","age":"11"},{"start_time":1551794117938,"click_time":1551794119655,"finger_time":1551794119556,"fix_duration":981.7629814572849,"trial":39,"RT":1618,"MT":99,"sideResp":1,"stimulus":[],"xmouse":[781,781,781,781,781,781,781,781,781,781,781,781,781,781,781,781,781,781,781,781,781,781,781,781,781,781,781,781,781,781,781,781,781,781,781,781,781,781,781,781,781,781,781,781,781,781,781,781,781,781,781,781,781,781,781,781,781,781,781,781,781,781,781,781,781,781,781,781,781,781,781,781,781,781,781,781,781,781,781,781,778,745,710,658,591,495],"ymouse":[477,477,477,477,477,477,477,477,477,477,477,477,477,477,477,477,477,477,477,477,477,477,477,477,477,477,477,477,477,477,477,477,477,477,477,477,477,477,477,477,477,477,477,477,477,477,477,477,477,477,477,477,477,477,477,477,477,477,477,477,477,477,477,477,477,477,477,477,477,477,477,477,477,477,477,477,477,477,477,477,469,424,374,303,210,84],"timestamp_mouse":[16,36,58,76,97,116,138,157,177,196,216,237,256,277,296,316,337,358,377,398,416,437,457,478,496,517,537,558,578,597,616,637,657,677,697,717,736,757,777,797,818,836,856,877,896,916,936,958,976,997,1017,1036,1057,1076,1097,1117,1136,1157,1177,1198,1217,1236,1256,1276,1297,1316,1336,1357,1377,1397,1417,1436,1456,1476,1496,1516,1536,1557,1576,1597,1618,1636,1657,1676,1697,1717],"xSR":741.5,"ySR":469.95,"xT1":424.9,"yT1":0,"xT2":1058.1,"yT2":0,"toosoon":0,"cond_shown":"Congruent","ratio_trial":100,"L_num":3,"L_den":6,"R_num":2,"R_den":5,"correct_side":1,"subjID":"SaraCastañedaPinzón27","gender":"1","school":"6","age":"11"},{"start_time":1551794121285,"click_time":1551794124194,"finger_time":1551794123735,"fix_duration":429.6187984456361,"trial":40,"RT":2450,"MT":459,"sideResp":1,"stimulus":[],"xmouse":[788,788,788,788,788,788,788,788,788,788,788,788,788,788,788,788,788,788,788,788,788,788,788,788,788,788,788,788,788,788,788,788,788,788,788,788,788,788,788,788,788,788,788,788,788,788,788,788,788,788,788,788,788,788,788,788,788,788,788,788,788,788,788,788,788,788,788,788,788,788,788,788,788,788,788,788,788,788,788,788,788,788,788,788,788,788,788,788,788,788,788,788,788,787,786,784,784,783,782,782,782,782,782,782,782,782,782,782,782,782,782,782,782,781,780,780,780,780,779,778,775,769,758,735,689,671,657,641,625,589,572,554,541,536,535,535,533,531,530,527,527,527,527,526,526,523],"ymouse":[517,517,517,517,517,517,517,517,517,517,517,517,517,517,517,517,517,517,517,517,517,517,517,517,517,517,517,517,517,517,517,517,517,517,517,517,517,517,517,517,517,517,517,517,517,517,517,517,517,517,517,517,517,517,517,517,517,517,517,517,517,517,517,517,517,517,517,517,517,517,517,517,517,517,517,517,517,517,517,517,517,517,517,517,517,517,517,517,517,517,517,517,517,517,516,515,514,513,513,513,513,513,513,513,513,513,513,513,513,513,513,513,513,513,513,513,513,513,513,507,499,484,455,398,309,280,254,221,194,140,122,107,98,95,94,94,94,94,94,94,94,94,94,94,94,92],"timestamp_mouse":[11,37,49,70,89,111,129,151,170,190,210,229,249,269,290,311,329,349,370,390,410,430,450,470,491,511,529,550,571,589,610,629,650,670,689,710,730,750,769,790,809,831,850,870,890,910,929,949,970,990,1009,1029,1049,1070,1090,1111,1131,1149,1171,1189,1211,1230,1251,1270,1290,1310,1330,1349,1371,1390,1410,1430,1451,1470,1490,1509,1530,1550,1570,1590,1610,1631,1650,1670,1690,1710,1731,1750,1769,1790,1810,1831,1851,1870,1889,1910,1930,1950,1970,1990,2010,2029,2050,2070,2089,2110,2130,2151,2170,2189,2210,2231,2250,2270,2289,2311,2329,2350,2370,2389,2409,2430,2450,2469,2490,2510,2529,2549,2570,2589,2610,2629,2650,2671,2690,2709,2730,2750,2769,2789,2810,2830,2849,2869,2889,2909],"xSR":741.5,"ySR":469.95,"xT1":424.9,"yT1":0,"xT2":1058.1,"yT2":0,"toosoon":0,"cond_shown":"Incongruent","ratio_trial":100,"L_num":17,"L_den":30,"R_num":10,"R_den":15,"correct_side":2,"subjID":"SaraCastañedaPinzón27","gender":"1","school":"6","age":"11"},{"start_time":1551794126188,"click_time":1551794128535,"finger_time":1551794128275,"fix_duration":572.4512744409963,"trial":41,"RT":2087,"MT":260,"sideResp":1,"stimulus":[],"xmouse":[810,810,810,810,810,810,810,810,810,810,810,810,810,810,811,812,812,812,812,812,812,812,812,812,812,812,812,812,812,812,812,812,812,812,812,812,812,812,812,812,812,812,812,812,812,812,812,812,812,812,812,812,812,812,812,812,812,812,812,812,812,812,812,812,812,812,812,812,812,812,812,812,813,813,813,813,813,813,813,813,813,813,813,813,814,814,815,816,817,818,820,820,821,821,821,821,821,821,821,821,819,812,794,770,719,706,704,701,697,662,634,606,575,558,541,534,526,521],"ymouse":[511,511,511,511,511,511,511,511,511,511,511,511,511,511,511,510,510,510,510,510,509,509,509,509,509,509,509,509,509,509,509,509,509,509,509,509,509,509,509,509,509,509,509,509,509,509,509,509,509,509,509,508,508,508,508,508,508,508,508,508,508,508,508,508,508,508,508,508,508,508,508,508,507,507,507,507,506,506,506,505,505,505,504,503,501,499,498,497,494,491,489,488,487,487,487,487,487,487,487,487,486,486,487,487,486,484,484,481,473,392,325,260,199,164,123,107,93,86],"timestamp_mouse":[8,31,48,66,86,106,126,146,167,195,207,228,246,267,287,306,327,346,366,388,406,426,446,467,487,507,527,548,567,587,607,628,646,666,687,706,727,748,766,786,808,827,847,868,887,907,928,947,967,987,1007,1027,1047,1067,1087,1108,1127,1147,1168,1187,1208,1228,1247,1267,1287,1308,1328,1348,1367,1388,1408,1428,1447,1468,1487,1508,1528,1547,1567,1587,1608,1627,1647,1668,1687,1707,1727,1747,1768,1786,1807,1827,1847,1867,1887,1907,1928,1947,1969,1987,2007,2027,2048,2067,2087,2107,2127,2147,2167,2188,2208,2228,2247,2268,2288,2308,2327,2347],"xSR":741.5,"ySR":469.95,"xT1":424.9,"yT1":0,"xT2":1058.1,"yT2":0,"toosoon":0,"cond_shown":"Incongruent","ratio_trial":100,"L_num":3,"L_den":6,"R_num":4,"R_den":10,"correct_side":1,"subjID":"SaraCastañedaPinzón27","gender":"1","school":"6","age":"11"},{"start_time":1551794129865,"click_time":1551794135536,"finger_time":1551794133575,"fix_duration":250,"trial":42,"RT":3710,"MT":1961,"sideResp":1,"stimulus":[],"xmouse":[812,812,812,812,812,812,811,811,811,811,811,811,810,810,810,810,809,809,808,808,807,807,807,807,807,807,807,807,807,807,807,807,807,807,807,807,807,807,807,807,807,807,807,807,807,807,807,807,807,807,807,807,807,807,807,807,807,807,807,807,807,807,807,807,807,807,807,807,807,807,807,807,807,807,807,807,807,807,807,807,807,807,807,807,807,807,807,807,807,807,807,807,807,807,807,807,807,807,807,807,807,807,807,807,807,807,807,807,807,807,807,807,807,807,807,807,807,807,807,807,807,807,807,807,807,807,807,807,807,807,807,807,807,807,807,807,807,807,807,807,807,807,807,807,807,807,807,807,807,807,807,807,807,807,807,807,807,807,807,807,807,807,807,807,807,807,807,807,807,807,807,807,807,807,807,807,807,807,807,807,807,807,805,802,793,774,769,768,768,768,769,770,772,779,791,853,896,942,971,1000,1020,1022,1022,1022,1022,1022,1022,1022,1024,1025,1022,1010,990,962,922,831,831,831,831,831,831,831,831,831,831,831,831,831,831,831,831,831,831,831,831,831,831,831,831,831,831,831,831,831,831,831,831,831,831,831,831,831,491],"ymouse":[515,515,515,515,515,515,515,515,515,515,515,515,514,513,512,511,510,510,509,508,506,506,506,506,506,506,506,506,506,506,506,506,506,506,506,506,506,506,506,506,506,506,506,506,506,506,506,506,506,506,506,506,506,506,506,506,506,506,506,506,506,506,506,506,506,506,506,506,506,506,506,506,506,506,506,506,506,506,506,506,506,506,506,506,506,506,506,506,506,506,506,506,506,506,506,506,506,506,506,506,506,506,506,506,506,506,506,506,506,506,506,506,506,506,506,506,506,506,506,506,506,506,506,506,506,506,506,506,506,506,506,506,506,506,506,506,506,506,506,506,506,506,506,506,506,506,506,506,506,506,506,506,506,506,506,506,506,506,506,506,506,506,506,506,506,506,506,506,506,506,506,506,506,506,506,506,506,506,506,506,506,506,507,512,535,590,609,615,619,621,626,627,627,627,627,587,548,505,467,433,406,401,395,391,389,385,382,379,371,356,287,246,203,150,102,4,4,4,4,4,4,4,4,4,4,4,4,4,4,4,4,4,4,4,4,4,4,4,4,4,4,4,4,4,4,4,4,4,4,4,4,4,14],"timestamp_mouse":[14,30,50,70,90,110,130,150,170,191,210,230,250,270,290,310,331,350,370,390,410,431,451,470,491,511,530,552,570,591,610,631,650,670,690,711,731,750,770,790,810,830,850,871,890,911,930,950,971,991,1010,1030,1052,1071,1090,1110,1130,1150,1170,1191,1210,1231,1250,1270,1291,1310,1331,1350,1370,1390,1411,1430,1451,1470,1490,1510,1530,1551,1571,1590,1610,1630,1651,1671,1690,1710,1730,1750,1771,1791,1810,1831,1851,1871,1890,1911,1931,1950,1971,1991,2011,2031,2050,2070,2091,2110,2130,2151,2171,2190,2210,2231,2250,2271,2290,2310,2330,2350,2371,2391,2410,2430,2450,2471,2490,2511,2531,2550,2570,2592,2610,2631,2651,2670,2690,2710,2731,2750,2770,2790,2810,2831,2851,2870,2890,2910,2931,2951,2970,2990,3010,3030,3051,3070,3091,3110,3131,3151,3170,3190,3210,3230,3251,3270,3291,3310,3331,3350,3370,3391,3410,3431,3450,3471,3490,3510,3531,3551,3571,3590,3610,3630,3651,3671,3690,3710,3730,3750,3771,3791,3810,3830,3850,3870,3890,3911,3930,3951,3970,3990,4010,4031,4050,4070,4090,4110,4130,4150,4171,4191,4210,4230,4250,4270,4291,4310,4330,4350,4371,4390,4410,4431,4451,4470,4490,4510,4531,4551,4571,4590,4610,4631,4650,4670,4691,4710,4730,4750,4770,4791,4810,4830,5486,5490,5510,5530,5550,5570,5591,5610,5631,5651,5671],"xSR":741.5,"ySR":469.95,"xT1":424.9,"yT1":0,"xT2":1058.1,"yT2":0,"toosoon":0,"cond_shown":"Incongruent","ratio_trial":100,"L_num":10,"L_den":25,"R_num":9,"R_den":18,"correct_side":2,"subjID":"SaraCastañedaPinzón27","gender":"1","school":"6","age":"11"},{"start_time":1551794136560,"click_time":1551794141916,"finger_time":1551794138856,"fix_duration":303.7720288097978,"trial":43,"RT":2296,"MT":3060,"sideResp":1,"stimulus":[],"xmouse":[775,775,775,775,775,775,775,775,775,775,775,775,775,775,775,775,775,775,775,775,775,775,775,775,775,775,775,775,775,775,775,775,775,775,775,775,775,775,775,776,776,776,776,776,776,776,776,776,776,776,776,776,776,776,776,776,776,776,776,776,776,776,776,776,776,776,776,776,776,776,776,776,776,776,776,776,776,776,776,776,776,776,776,776,776,776,776,776,776,776,776,776,776,776,776,776,776,776,776,776,776,776,776,776,776,776,776,776,776,776,776,779,781,785,791,813,813,813,799,790,790,790,790,790,790,790,790,790,790,790,790,790,790,790,790,790,790,790,790,790,790,790,790,790,790,790,790,790,790,790,790,790,790,790,790,790,790,790,790,790,790,790,790,790,790,790,790,790,790,790,790,790,790,790,790,790,790,790,790,790,790,790,790,615,627,676,700,730,763,788,813,838,841,842,842,842,842,840,832,817,791,790,789,789,789,789,789,789,789,789,789,789,789,789,789,789,789,789,789,789,789,789,789,789,789,789,789,789,789,789,789,789,789,789,789,789,789,789,789,789,789,789,789,789,789,789,789,789,789,789,781,770,751,722,690,621,597,581,568,560,549,545,540,536,535,531,528,524],"ymouse":[507,507,507,507,507,507,507,507,507,507,507,507,507,507,507,507,507,507,507,507,507,507,507,507,507,507,507,507,507,507,507,507,507,507,507,507,507,507,507,507,507,507,506,506,506,506,506,506,506,506,506,506,506,506,506,506,506,506,506,506,506,506,506,506,506,506,506,506,506,506,506,506,506,506,506,506,506,506,506,506,506,506,506,506,506,506,506,506,506,506,506,506,506,506,506,506,506,506,506,506,506,506,506,506,506,506,506,506,505,504,500,495,489,477,454,309,225,138,51,13,13,13,13,13,13,13,13,13,13,13,13,13,13,13,13,13,13,13,13,13,13,13,13,13,13,13,13,13,13,13,13,13,13,13,13,13,13,13,13,13,13,13,13,13,13,13,13,13,13,13,13,13,13,13,13,13,13,13,13,13,13,13,13,34,80,251,332,402,461,501,535,564,568,569,569,569,569,568,561,545,513,509,508,508,508,508,508,508,508,508,508,508,508,508,508,508,508,508,508,508,508,508,508,508,508,508,508,508,508,508,508,508,508,508,508,508,508,508,508,508,508,508,508,508,508,508,508,507,505,499,470,439,405,360,320,242,221,204,191,180,161,153,145,134,129,115,105,95],"timestamp_mouse":[26,35,55,75,95,115,136,155,175,195,215,235,256,275,296,315,335,356,376,395,416,435,455,475,496,516,535,556,575,595,615,635,655,675,695,715,735,755,776,795,815,835,855,875,895,915,935,956,976,995,1016,1035,1055,1075,1096,1115,1135,1155,1175,1195,1216,1235,1255,1275,1295,1315,1335,1355,1376,1396,1416,1436,1455,1476,1496,1515,1536,1556,1576,1595,1616,1636,1656,1675,1696,1715,1735,1755,1775,1796,1816,1835,1856,1876,1895,1916,1936,1955,1975,1996,2015,2036,2056,2076,2095,2115,2136,2156,2175,2196,2215,2236,2255,2275,2296,2315,2335,2355,2375,2395,2416,2436,2456,2475,2495,2515,2535,2555,2576,2596,2615,2636,2656,2676,2695,2716,2735,2756,2775,2796,2815,2835,2855,2875,2895,2915,2935,2955,2975,2995,3015,3035,3055,3075,3095,3115,3135,3156,3175,3196,3216,3235,3255,3276,3296,3316,3335,3356,3375,3396,3415,3436,3456,3476,3495,3515,3536,3556,3575,3595,3615,3635,3655,3676,3696,3715,3735,3755,3775,3796,3815,3835,3856,3875,3895,3916,3935,3956,3975,3996,4015,4036,4055,4074,4095,4115,4136,4155,4175,4195,4215,4236,4256,4275,4295,4315,4335,4356,4376,4396,4415,4435,4455,4475,4496,4515,4535,4555,4576,4595,4616,4635,4655,4676,4696,4715,4735,4756,4775,4795,4816,4836,4855,4875,4895,4915,4936,4955,4976,4995,5015,5036,5055,5076,5095,5115,5135,5155,5175,5195,5215,5235,5255,5275,5295,5315,5335,5356],"xSR":741.5,"ySR":469.95,"xT1":424.9,"yT1":0,"xT2":1058.1,"yT2":0,"toosoon":0,"cond_shown":"Congruent","ratio_trial":100,"L_num":3,"L_den":6,"R_num":2,"R_den":5,"correct_side":1,"subjID":"SaraCastañedaPinzón27","gender":"1","school":"6","age":"11"},{"start_time":1551794143774,"click_time":1551794145536,"finger_time":1551794145175,"fix_duration":898.2958779207584,"trial":44,"RT":1401,"MT":361,"sideResp":2,"stimulus":[],"xmouse":[799,799,799,799,799,799,799,799,799,799,799,799,799,799,799,799,799,799,799,799,799,799,799,799,799,799,799,799,799,799,799,799,799,799,799,799,799,799,799,799,799,799,799,799,799,799,799,799,799,799,799,799,799,799,799,799,799,799,799,799,799,799,799,799,799,799,799,799,802,811,849,878,918,958,993,1009,1013,1017,1023,1027,1034,1035,1036,1037,1037,1039,1047,1058,1067],"ymouse":[507,507,507,507,507,507,507,507,507,507,507,507,507,507,507,507,507,507,507,507,507,507,507,507,507,507,507,507,507,507,507,507,507,507,507,507,507,507,507,507,507,507,507,507,507,507,507,507,507,507,507,507,507,507,507,507,507,507,507,507,507,507,507,507,507,507,507,507,507,500,466,422,355,283,220,182,172,163,151,143,132,127,126,125,125,122,113,102,93],"timestamp_mouse":[8,31,42,61,81,101,121,141,161,181,201,221,241,262,282,301,322,341,361,381,401,421,441,461,481,501,521,541,561,581,601,621,641,661,681,701,722,741,761,781,801,821,841,862,881,901,921,942,961,981,1002,1022,1041,1061,1081,1101,1120,1142,1161,1181,1201,1221,1240,1262,1281,1302,1321,1341,1361,1382,1401,1422,1441,1461,1481,1501,1521,1541,1562,1581,1601,1621,1641,1661,1682,1701,1721,1741,1762],"xSR":741.5,"ySR":469.95,"xT1":424.9,"yT1":0,"xT2":1058.1,"yT2":0,"toosoon":0,"cond_shown":"Incongruent","ratio_trial":200,"L_num":14,"L_den":30,"R_num":12,"R_den":18,"correct_side":2,"subjID":"SaraCastañedaPinzón27","gender":"1","school":"6","age":"11"},{"start_time":1551794147379,"click_time":1551794148496,"finger_time":1551794148116,"fix_duration":802.6364090095318,"trial":45,"RT":737,"MT":380,"sideResp":1,"stimulus":[],"xmouse":[773,773,773,773,773,773,773,773,773,773,773,773,773,773,773,773,773,773,773,773,773,773,773,773,773,773,773,773,773,773,773,773,773,773,773,764,736,702,662,587,570,564,563,563,559,555,551,550,550,550,550,550,550,548,535,524],"ymouse":[505,505,505,505,505,505,505,505,505,505,505,505,505,505,505,505,505,505,505,505,505,505,505,505,505,505,505,505,505,505,505,505,505,505,505,492,459,419,368,262,221,195,175,157,117,106,97,95,94,94,94,94,93,91,84,78],"timestamp_mouse":[17,36,56,76,97,117,136,156,177,196,216,236,256,276,297,316,336,356,376,396,416,436,457,476,496,516,536,557,576,596,616,637,656,677,696,717,737,757,776,797,816,836,856,876,896,917,936,957,976,996,1016,1036,1056,1077,1096,1117],"xSR":741.5,"ySR":469.95,"xT1":424.9,"yT1":0,"xT2":1058.1,"yT2":0,"toosoon":0,"cond_shown":"Congruent","ratio_trial":200,"L_num":20,"L_den":25,"R_num":9,"R_den":15,"correct_side":1,"subjID":"SaraCastañedaPinzón27","gender":"1","school":"6","age":"11"},{"start_time":1551794149526,"click_time":1551794150596,"finger_time":1551794150236,"fix_duration":250,"trial":46,"RT":710,"MT":360,"sideResp":2,"stimulus":[],"xmouse":[777,777,777,777,777,777,777,777,777,777,777,777,777,777,777,777,777,777,777,777,777,777,777,777,777,777,777,777,777,777,777,777,777,781,791,815,881,1006,1066,1110,1139,1164,1190,1191,1191,1191,1188,1184,1183,1182,1180,1176,1163,1152],"ymouse":[519,519,519,519,519,519,519,519,519,519,519,519,519,519,519,519,519,519,519,519,519,519,519,519,519,519,519,519,519,519,519,519,519,519,505,463,370,241,185,141,112,83,44,39,33,31,27,23,22,22,22,22,23,24],"timestamp_mouse":[9,30,49,70,90,110,130,149,169,190,210,229,249,270,290,310,329,349,369,390,410,429,449,470,489,510,529,549,569,590,610,629,649,669,690,710,729,749,769,789,810,829,849,870,889,909,930,949,969,989,1009,1029,1049,1070],"xSR":741.5,"ySR":469.95,"xT1":424.9,"yT1":0,"xT2":1058.1,"yT2":0,"toosoon":0,"cond_shown":"Incongruent","ratio_trial":100,"L_num":9,"L_den":10,"R_num":20,"R_den":25,"correct_side":1,"subjID":"SaraCastañedaPinzón27","gender":"1","school":"6","age":"11"},{"start_time":1551794153201,"click_time":1551794154635,"finger_time":1551794154375,"fix_duration":1223.75201065195,"trial":47,"RT":1174,"MT":260,"sideResp":1,"stimulus":[],"xmouse":[781,781,781,781,781,781,781,781,781,781,781,781,781,781,781,781,781,781,780,780,780,780,780,780,780,780,780,780,780,780,780,780,780,780,780,780,780,780,780,780,780,780,780,780,780,780,780,780,780,780,780,780,780,780,780,780,779,777,765,757,753,748,740,685,658,632,612,597,570,556,535,517],"ymouse":[502,502,502,502,502,502,502,502,502,502,502,502,502,502,502,502,502,502,501,501,501,501,501,501,501,501,501,501,501,501,501,501,501,501,501,501,501,501,501,501,501,501,501,501,501,501,501,501,501,501,501,501,501,501,501,500,494,480,439,418,401,386,368,284,250,216,190,169,129,109,80,60],"timestamp_mouse":[17,34,55,74,95,115,135,154,174,194,215,234,254,274,294,314,334,354,374,394,415,434,455,474,495,514,535,554,574,595,615,635,654,674,695,714,734,754,774,794,814,835,854,874,895,915,935,954,974,995,1014,1034,1054,1074,1094,1114,1135,1154,1174,1194,1215,1234,1254,1274,1295,1314,1334,1354,1374,1395,1415,1434],"xSR":741.5,"ySR":469.95,"xT1":424.9,"yT1":0,"xT2":1058.1,"yT2":0,"toosoon":0,"cond_shown":"Congruent","ratio_trial":200,"L_num":16,"L_den":30,"R_num":9,"R_den":27,"correct_side":1,"subjID":"SaraCastañedaPinzón27","gender":"1","school":"6","age":"11"},{"start_time":1551794156843,"click_time":1551794158956,"finger_time":1551794158456,"fix_duration":1146.8966702061157,"trial":48,"RT":1613,"MT":500,"sideResp":2,"stimulus":[],"xmouse":[827,827,827,827,827,827,827,827,827,827,827,827,827,827,827,827,827,827,827,827,827,827,827,827,827,827,827,827,827,827,827,827,827,827,827,827,827,827,827,827,827,827,827,827,827,827,827,827,827,827,827,827,827,827,827,827,827,827,827,827,827,827,827,827,827,827,827,827,827,827,827,827,827,827,827,827,826,819,801,774,711,638,617,597,583,580,582,585,588,595,606,623,630,652,705,781,935,971,987,997,1003,1018,1030,1042,1056,1063],"ymouse":[515,515,515,515,515,515,515,515,515,515,515,515,515,515,515,515,515,515,515,515,515,515,515,515,515,515,515,515,515,515,515,515,515,515,515,515,515,515,515,515,515,515,515,515,515,515,515,515,515,515,515,515,515,515,515,515,515,515,515,515,515,515,515,515,515,515,515,515,515,515,515,515,515,515,515,515,515,513,505,496,470,386,330,272,226,211,205,201,198,195,191,185,184,183,183,181,174,169,164,158,151,117,102,90,80,77],"timestamp_mouse":[13,32,52,72,92,112,133,153,172,192,213,232,252,273,291,313,334,353,373,392,412,432,452,472,492,512,532,552,572,592,612,632,653,672,693,713,732,752,772,792,812,832,852,872,893,912,932,952,973,993,1012,1033,1052,1072,1092,1113,1132,1153,1172,1193,1212,1232,1253,1272,1292,1313,1332,1352,1372,1392,1414,1432,1452,1472,1492,1512,1532,1552,1572,1592,1613,1631,1652,1672,1693,1713,1732,1753,1772,1793,1812,1832,1853,1872,1893,1913,1933,1953,1973,1993,2012,2032,2052,2072,2093,2112],"xSR":741.5,"ySR":469.95,"xT1":424.9,"yT1":0,"xT2":1058.1,"yT2":0,"toosoon":0,"cond_shown":"Incongruent","ratio_trial":100,"L_num":6,"L_den":10,"R_num":7,"R_den":14,"correct_side":1,"subjID":"SaraCastañedaPinzón27","gender":"1","school":"6","age":"11"},{"start_time":1551794161597,"click_time":1551794164075,"finger_time":1551794163475,"fix_duration":1379.1453784049304,"trial":49,"RT":1878,"MT":600,"sideResp":1,"stimulus":[],"xmouse":[762,762,762,762,762,762,762,762,762,762,762,762,762,762,762,762,762,762,762,762,762,762,762,762,762,762,762,762,762,762,762,762,762,762,762,762,762,762,762,762,762,762,762,762,762,762,762,762,762,762,762,762,762,762,762,762,762,762,762,762,762,762,762,762,762,762,762,762,762,762,762,762,762,762,762,762,762,762,762,762,762,762,762,762,762,762,762,762,762,762,762,762,763,765,781,791,801,807,811,814,814,814,810,808,804,804,803,803,803,803,803,803,803,803,795,788,780,774,770,752,730,695,635,611,522],"ymouse":[486,486,486,486,486,486,486,486,486,486,486,486,486,486,486,486,486,486,486,486,486,486,486,486,486,486,486,486,486,486,486,486,486,486,486,486,486,486,486,486,486,486,486,486,486,486,486,486,486,486,486,486,486,486,486,486,486,486,486,486,486,486,486,486,486,486,486,486,486,486,486,486,486,486,486,486,486,486,486,486,486,486,486,486,486,486,486,486,486,486,486,486,485,483,463,446,420,393,358,303,278,260,234,229,213,211,210,210,210,210,210,210,216,224,258,269,278,282,282,276,258,229,180,164,95],"timestamp_mouse":[1,19,38,59,79,99,118,138,158,178,199,219,239,258,279,298,319,341,358,378,399,419,438,458,478,498,518,539,559,578,598,618,638,659,678,699,718,738,758,778,798,819,839,858,878,898,919,938,959,978,998,1018,1039,1059,1078,1099,1118,1139,1158,1178,1199,1219,1239,1259,1278,1298,1318,1338,1358,1379,1399,1419,1439,1458,1478,1498,1519,1538,1559,1578,1598,1618,1639,1658,1678,1698,1719,1739,1759,1778,1799,1818,1838,1858,1878,1899,1919,1939,1958,1978,1998,2019,2039,2059,2078,2098,2118,2139,2159,2178,2198,2219,2238,2258,2278,2297,2318,2338,2359,2378,2399,2418,2438,2459,2478],"xSR":741.5,"ySR":469.95,"xT1":424.9,"yT1":0,"xT2":1058.1,"yT2":0,"toosoon":0,"cond_shown":"Incongruent","ratio_trial":300,"L_num":4,"L_den":5,"R_num":6,"R_den":12,"correct_side":1,"subjID":"SaraCastañedaPinzón27","gender":"1","school":"6","age":"11"},{"start_time":1551794165446,"click_time":1551794166296,"finger_time":1551794166175,"fix_duration":250,"trial":50,"RT":729,"MT":121,"sideResp":1,"stimulus":[],"xmouse":[800,800,800,800,800,800,800,800,800,800,800,800,800,800,800,800,800,800,800,800,800,800,800,800,800,800,800,800,800,800,800,800,800,801,801,801,782,749,710,664,599,530,513],"ymouse":[541,541,541,541,541,541,541,541,541,541,541,541,541,541,541,541,541,541,541,541,541,541,541,541,541,541,541,541,541,541,541,541,541,541,532,507,393,315,238,173,99,52,41],"timestamp_mouse":[10,30,49,70,89,110,129,150,170,190,209,229,250,269,290,310,330,349,370,390,409,429,449,469,489,509,530,549,569,589,609,629,649,669,689,709,729,750,769,790,809,829,850],"xSR":741.5,"ySR":469.95,"xT1":424.9,"yT1":0,"xT2":1058.1,"yT2":0,"toosoon":0,"cond_shown":"Incongruent","ratio_trial":200,"L_num":14,"L_den":30,"R_num":12,"R_den":18,"correct_side":2,"subjID":"SaraCastañedaPinzón27","gender":"1","school":"6","age":"11"},{"start_time":1551794168407,"click_time":1551794169196,"finger_time":1551794169136,"fix_duration":1110.8861168689307,"trial":51,"RT":729,"MT":60,"sideResp":2,"stimulus":[],"xmouse":[802,802,802,802,802,802,802,802,802,802,802,802,802,802,802,802,802,802,802,802,802,802,802,802,802,802,802,802,802,802,802,802,802,803,814,833,852,886,955,1077],"ymouse":[549,549,549,549,549,549,549,549,549,549,549,549,549,549,549,549,549,549,549,549,549,549,549,549,549,549,549,549,549,549,549,549,549,547,527,481,416,335,228,80],"timestamp_mouse":[8,30,49,69,88,109,129,148,168,189,209,228,249,269,288,309,329,348,368,388,409,429,448,468,489,508,529,548,569,589,608,628,649,668,689,708,729,748,768,789],"xSR":741.5,"ySR":469.95,"xT1":424.9,"yT1":0,"xT2":1058.1,"yT2":0,"toosoon":0,"cond_shown":"Congruent","ratio_trial":100,"L_num":12,"L_den":30,"R_num":13,"R_den":26,"correct_side":2,"subjID":"SaraCastañedaPinzón27","gender":"1","school":"6","age":"11"},{"start_time":1551794170984,"click_time":1551794172916,"finger_time":1551794172595,"fix_duration":987.321709768245,"trial":52,"RT":1611,"MT":321,"sideResp":1,"stimulus":[],"xmouse":[804,804,804,804,804,804,804,804,804,804,804,804,804,804,804,804,804,804,804,804,804,804,804,804,804,804,804,804,804,804,804,804,804,804,804,804,804,804,804,804,804,804,804,804,804,804,804,804,804,804,804,804,804,804,804,804,804,804,804,804,804,804,804,804,804,804,804,804,804,804,804,804,804,804,804,804,804,804,804,804,796,783,754,713,607,576,562,557,552,545,541,537,536,536,533,529,522],"ymouse":[478,478,478,478,478,478,478,478,478,478,478,478,478,478,478,478,478,478,478,478,478,478,478,478,478,478,478,478,478,478,478,478,478,478,478,478,478,478,478,478,478,478,478,478,478,478,478,478,478,478,478,478,478,478,478,478,478,478,478,478,478,478,478,478,478,478,478,478,478,478,478,478,478,478,478,478,478,478,478,478,452,416,339,247,91,60,46,38,29,21,19,19,18,18,18,21,25],"timestamp_mouse":[11,39,52,71,92,111,132,151,171,192,212,231,251,272,291,312,332,351,372,391,411,432,451,471,491,512,531,551,571,591,612,631,651,671,6