[{"start_time":1551789942476,"click_time":1551789947225,"finger_time":1551789942496,"fix_duration":250,"trial":0,"RT":20,"MT":4729,"sideResp":1,"stimulus":[],"xmouse":[866,866,859,858,857,854,840,830,820,814,810,808,805,804,804,804,804,804,803,800,798,797,797,797,797,797,797,797,797,799,800,800,800,800,800,800,800,801,802,802,802,802,802,802,802,802,802,801,800,798,795,794,793,793,793,791,789,787,786,786,786,786,786,786,786,786,786,789,790,793,798,803,805,805,805,805,805,805,805,805,805,804,803,802,802,802,802,802,801,800,799,796,796,795,793,791,781,770,752,726,624,526,464,411,363,317,272,265,264,264,264,264,264,265,271,280,282,284,285,286,287,291,293,295,298,306,325,339,350,360,383,401,413,424,439,470,490,512,530,550,583,610,625,638,648,654,656,656,656,656,656,656,656,656,656,660,668,681,694,706,722,726,733,737,739,740,744,746,746,747,747,747,747,746,746,744,739,737,737,737,736,735,733,726,719,716,719,730,746,757,763,772,775,776,778,780,781,781,782,783,783,783,783,783,783,783,783,782,779,776,761,748,740,728,710,684,616,582,555,536,518,515,515,515,515,515,517,519,519,519,517,507,497,492,487,485,482,482],"ymouse":[582,582,576,575,573,572,566,559,552,547,543,538,536,536,536,536,536,536,536,535,535,535,535,535,535,535,535,535,535,534,534,534,534,534,534,534,534,534,534,534,534,534,534,534,533,533,532,530,530,529,527,527,527,527,527,526,526,526,526,526,526,526,526,526,526,526,526,526,526,526,527,527,528,528,528,528,528,528,528,528,528,528,528,528,528,528,528,525,522,518,515,510,509,506,504,501,489,477,460,437,348,267,216,172,132,93,47,34,28,25,24,24,24,24,24,26,28,28,29,30,30,34,38,43,51,62,85,99,111,123,151,166,176,186,198,221,233,245,256,267,288,305,313,320,325,327,328,328,328,328,328,328,328,328,328,338,350,365,380,393,418,429,446,455,462,468,478,481,482,483,485,488,490,492,493,494,494,494,494,494,494,493,493,493,493,493,506,519,528,535,537,539,539,538,536,534,531,529,529,528,528,528,528,528,528,528,526,524,520,514,488,464,443,418,392,360,292,265,243,226,200,191,188,187,186,185,182,181,178,174,164,151,141,132,124,117,101,95],"timestamp_mouse":[20,29,49,69,89,109,128,149,169,189,209,229,250,269,288,309,329,348,369,390,410,428,448,469,489,509,529,550,568,589,609,629,650,669,690,710,728,749,770,789,809,830,850,869,890,910,929,949,969,988,1010,1029,1049,1070,1088,1109,1130,1149,1169,1188,1208,1230,1250,1269,1288,1309,1329,1350,1369,1389,1409,1430,1448,1469,1489,1508,1528,1549,1569,1588,1609,1630,1649,1668,1690,1709,1729,1749,1770,1789,1809,1829,1849,1870,1889,1909,1928,1948,1969,1989,2009,2029,2050,2070,2088,2108,2129,2149,2170,2189,2209,2229,2248,2269,2289,2310,2328,2349,2369,2388,2409,2430,2449,2469,2490,2508,2529,2549,2569,2588,2609,2630,2649,2669,2689,2709,2730,2749,2769,2789,2809,2829,2849,2868,2889,2910,2929,2949,2968,2989,3010,3029,3049,3069,3090,3109,3129,3149,3169,3190,3210,3229,3250,3269,3288,3309,3329,3349,3369,3390,3408,3428,3448,3469,3489,3509,3529,3548,3569,3590,3610,3629,3649,3669,3689,3709,3729,3749,3769,3789,3808,3829,3849,3869,3889,3910,3930,3949,3970,3989,4009,4028,4050,4069,4089,4110,4129,4149,4169,4189,4209,4230,4249,4268,4289,4308,4330,4349,4368,4389,4410,4429,4449,4469,4490,4509,4529,4548,4569,4589,4610,4629,4649,4670,4689,4708,4728,4749],"xSR":741.5,"ySR":469.95,"xT1":424.9,"yT1":0,"xT2":1058.1,"yT2":0,"toosoon":0,"cond_shown":"Congruent","ratio_trial":200,"L_num":3,"L_den":12,"R_num":9,"R_den":20,"correct_side":2,"subjID":"SaraElianaGuevaraFino20","gender":"1","age":"11","school":"6","test":{"fix_dur":[250,1500],"timestim":1000,"targets_dim":[100,100],"targets_relative_coord":[0.3,0.7],"size_stim":[880,420],"start_dim":[100,100],"size_start":[300,300],"size_fix":60,"samplingrate":20,"img_types":["Congruent","Incongruent"],"ratios":[100,200,300],"rep_conds":19,"nTrials":120,"trials_to_rest":500,"Trials_order":[104,47,93,3,118,117,73,10,27,31,49,64,29,42,61,85,98,21,96,63,14,80,0,83,25,68,7,43,54,40,116,30,48,89,60,95,58,69,53,75,16,77,102,55,92,26,32,62,65,1,51,45,18,39,13,103,78,101,9,46,38,52,37,12,112,6,82,15,113,34,74,119,100,50,91,99,66,70,109,76,86,71,79,56,110,111,57,97,2,36,8,23,88,94,33,22,4,11,41,107,19,5,90,67,81,114,28,84,72,44,105,87,115,20,24,108,59,106,35,17],"cond_shown":["Congruent","Incongruent","Incongruent","Incongruent","Congruent","Incongruent","Incongruent","Congruent","Incongruent","Incongruent","Incongruent","Congruent","Incongruent","Congruent","Incongruent","Incongruent","Congruent","Incongruent","Congruent","Incongruent","Congruent","Congruent","Congruent","Incongruent","Incongruent","Congruent","Incongruent","Incongruent","Congruent","Congruent","Congruent","Congruent","Congruent","Incongruent","Congruent","Incongruent","Congruent","Incongruent","Incongruent","Incongruent","Congruent","Incongruent","Congruent","Incongruent","Congruent","Congruent","Congruent","Congruent","Incongruent","Incongruent","Incongruent","Incongruent","Congruent","Incongruent","Incongruent","Incongruent","Congruent","Incongruent","Incongruent","Congruent","Congruent","Congruent","Incongruent","Congruent","Congruent","Congruent","Congruent","Incongruent","Incongruent","Congruent","Congruent","Incongruent","Congruent","Congruent","Incongruent","Incongruent","Congruent","Congruent","Incongruent","Congruent","Congruent","Incongruent","Incongruent","Congruent","Congruent","Incongruent","Incongruent","Incongruent","Congruent","Congruent","Congruent","Incongruent","Congruent","Congruent","Incongruent","Congruent","Congruent","Incongruent","Incongruent","Incongruent","Incongruent","Incongruent","Congruent","Incongruent","Incongruent","Congruent","Congruent","Congruent","Congruent","Congruent","Incongruent","Incongruent","Incongruent","Congruent","Congruent","Congruent","Incongruent","Congruent","Incongruent","Incongruent"],"ratio_trial":[200,300,200,200,300,200,100,300,200,100,100,300,300,100,100,100,200,200,100,200,200,200,100,300,100,200,100,100,100,300,200,100,100,300,100,300,300,200,300,200,300,300,100,100,200,200,200,200,300,100,200,200,100,200,100,100,100,300,200,300,200,300,100,100,300,100,300,200,300,300,200,300,300,200,100,200,100,300,100,300,200,300,100,200,200,200,200,100,200,100,200,300,300,300,200,300,300,300,300,300,100,300,100,100,200,100,300,100,100,200,200,200,100,200,100,100,300,300,300,300],"left_num":[3,13,7,1,4,7,6,11,7,6,3,20,13,4,3,3,9,7,11,7,8,16,9,1,3,14,8,11,9,4,6,11,6,4,12,3,20,4,4,14,1,4,1,12,13,6,3,4,4,12,14,14,7,1,9,6,3,4,7,5,3,12,6,11,7,15,3,4,8,1,3,1,11,8,6,7,1,1,12,4,5,8,8,3,8,1,4,9,8,15,21,8,3,3,3,2,1,4,8,4,3,13,6,10,7,11,1,2,8,13,7,3,12,3,6,7,3,11,8,4],"right_num":[9,12,14,3,13,14,7,2,12,3,11,13,12,15,7,4,4,8,6,14,2,9,8,2,7,6,6,9,8,13,11,4,15,6,13,4,13,14,2,6,7,2,18,2,14,7,14,3,2,9,12,6,9,2,13,11,2,2,12,7,14,2,7,6,20,13,2,6,9,7,14,2,2,3,3,14,3,6,9,2,14,9,1,14,2,2,14,13,3,13,2,9,4,11,11,10,19,2,9,2,8,12,15,9,12,6,11,6,2,14,14,11,2,14,15,9,4,4,9,2],"left_den":[12,26,10,2,20,10,10,22,10,12,5,25,26,10,9,6,20,10,22,10,15,30,15,2,9,28,16,22,15,20,20,22,12,5,30,6,25,6,20,30,20,20,2,30,26,12,6,8,20,24,30,30,14,3,15,10,6,20,10,25,10,24,10,22,14,25,6,5,10,20,6,2,22,15,12,10,2,5,24,5,10,10,20,6,15,3,6,15,15,25,30,10,6,12,4,20,3,20,10,20,5,26,12,25,10,22,5,5,16,26,10,4,30,10,12,14,6,22,10,20],"right_den":[20,15,28,10,26,28,14,10,24,5,22,26,15,30,30,10,16,16,15,28,6,27,16,10,30,20,10,15,16,26,22,10,25,12,26,20,26,30,4,9,20,4,30,4,20,10,20,10,4,15,18,9,15,15,26,22,5,4,24,14,28,10,14,15,25,26,10,10,18,20,20,10,10,9,5,28,5,12,15,4,20,18,2,20,6,15,30,26,9,26,4,18,5,20,20,25,30,4,18,4,16,15,25,18,24,15,22,12,5,20,28,20,4,28,25,15,20,20,18,4],"correct_side":[2,2,1,1,2,1,1,1,1,2,1,1,2,2,1,1,1,1,1,1,1,1,1,1,1,1,2,2,1,2,2,1,2,1,2,1,1,1,2,2,2,2,2,2,2,2,2,1,2,2,2,2,2,1,1,1,1,2,1,2,2,1,1,1,2,1,1,1,1,2,2,1,1,1,2,1,2,2,2,1,2,1,2,2,1,1,1,1,1,1,1,1,2,2,1,2,2,2,1,2,1,2,2,2,1,1,2,2,1,2,1,1,2,2,2,2,1,1,1,2],"img_shown":["img2/200/Congruent/R/C_Dist_200_LN_3_LD_12_RN_9_RD_20_1.png","img2/300/Incongruent/R/I_Dist_300_LN_13_LD_26_RN_12_RD_15_1.png","img2/200/Incongruent/L/I_Dist_200_LN_7_LD_10_RN_14_RD_28_0.png","img2/200/Incongruent/L/I_Dist_200_LN_1_LD_2_RN_3_RD_10_0.png","img2/300/Congruent/R/C_Dist_300_LN_4_LD_20_RN_13_RD_26_1.png","img2/200/Incongruent/L/I_Dist_200_LN_7_LD_10_RN_14_RD_28_0.png","img2/100/Incongruent/L/I_Dist_100_LN_6_LD_10_RN_7_RD_14_0.png","img2/300/Congruent/L/C_Dist_300_LN_11_LD_22_RN_2_RD_10_0.png","img2/200/Incongruent/L/I_Dist_200_LN_7_LD_10_RN_12_RD_24_0.png","img2/100/Incongruent/R/I_Dist_100_LN_6_LD_12_RN_3_RD_5_1.png","img2/100/Incongruent/L/I_Dist_100_LN_3_LD_5_RN_11_RD_22_0.png","img2/300/Congruent/L/C_Dist_300_LN_20_LD_25_RN_13_RD_26_0.png","img2/300/Incongruent/R/I_Dist_300_LN_13_LD_26_RN_12_RD_15_1.png","img2/100/Congruent/R/C_Dist_100_LN_4_LD_10_RN_15_RD_30_1.png","img2/100/Incongruent/L/I_Dist_100_LN_3_LD_9_RN_7_RD_30_0.png","img2/100/Incongruent/L/I_Dist_100_LN_3_LD_6_RN_4_RD_10_0.png","img2/200/Congruent/L/C_Dist_200_LN_9_LD_20_RN_4_RD_16_0.png","img2/200/Incongruent/L/I_Dist_200_LN_7_LD_10_RN_8_RD_16_0.png","img2/100/Congruent/L/C_Dist_100_LN_11_LD_22_RN_6_RD_15_0.png","img2/200/Incongruent/L/I_Dist_200_LN_7_LD_10_RN_14_RD_28_0.png","img2/200/Congruent/L/C_Dist_200_LN_8_LD_15_RN_2_RD_6_0.png","img2/200/Congruent/L/C_Dist_200_LN_16_LD_30_RN_9_RD_27_0.png","img2/100/Congruent/L/C_Dist_100_LN_9_LD_15_RN_8_RD_16_0.png","img2/300/Incongruent/L/I_Dist_300_LN_1_LD_2_RN_2_RD_10_0.png","img2/100/Incongruent/L/I_Dist_100_LN_3_LD_9_RN_7_RD_30_0.png","img2/200/Congruent/L/C_Dist_200_LN_14_LD_28_RN_6_RD_20_0.png","img2/100/Incongruent/R/I_Dist_100_LN_8_LD_16_RN_6_RD_10_1.png","img2/100/Incongruent/R/I_Dist_100_LN_11_LD_22_RN_9_RD_15_1.png","img2/100/Congruent/L/C_Dist_100_LN_9_LD_15_RN_8_RD_16_0.png","img2/300/Congruent/R/C_Dist_300_LN_4_LD_20_RN_13_RD_26_1.png","img2/200/Congruent/R/C_Dist_200_LN_6_LD_20_RN_11_RD_22_1.png","img2/100/Congruent/L/C_Dist_100_LN_11_LD_22_RN_4_RD_10_0.png","img2/100/Congruent/R/C_Dist_100_LN_6_LD_12_RN_15_RD_25_1.png","img2/300/Incongruent/L/I_Dist_300_LN_4_LD_5_RN_6_RD_12_0.png","img2/100/Congruent/R/C_Dist_100_LN_12_LD_30_RN_13_RD_26_1.png","img2/300/Incongruent/L/I_Dist_300_LN_3_LD_6_RN_4_RD_20_0.png","img2/300/Congruent/L/C_Dist_300_LN_20_LD_25_RN_13_RD_26_0.png","img2/200/Incongruent/L/I_Dist_200_LN_4_LD_6_RN_14_RD_30_0.png","img2/300/Incongruent/R/I_Dist_300_LN_4_LD_20_RN_2_RD_4_1.png","img2/200/Incongruent/R/I_Dist_200_LN_14_LD_30_RN_6_RD_9_1.png","img2/300/Congruent/R/C_Dist_300_LN_1_LD_20_RN_7_RD_20_1.png","img2/300/Incongruent/R/I_Dist_300_LN_4_LD_20_RN_2_RD_4_1.png","img2/100/Congruent/R/C_Dist_100_LN_1_LD_2_RN_18_RD_30_1.png","img2/100/Incongruent/R/I_Dist_100_LN_12_LD_30_RN_2_RD_4_1.png","img2/200/Congruent/R/C_Dist_200_LN_13_LD_26_RN_14_RD_20_1.png","img2/200/Congruent/R/C_Dist_200_LN_6_LD_12_RN_7_RD_10_1.png","img2/200/Congruent/R/C_Dist_200_LN_3_LD_6_RN_14_RD_20_1.png","img2/200/Congruent/L/C_Dist_200_LN_4_LD_8_RN_3_RD_10_0.png","img2/300/Incongruent/R/I_Dist_300_LN_4_LD_20_RN_2_RD_4_1.png","img2/100/Incongruent/R/I_Dist_100_LN_12_LD_24_RN_9_RD_15_1.png","img2/200/Incongruent/R/I_Dist_200_LN_14_LD_30_RN_12_RD_18_1.png","img2/200/Incongruent/R/I_Dist_200_LN_14_LD_30_RN_6_RD_9_1.png","img2/100/Congruent/R/C_Dist_100_LN_7_LD_14_RN_9_RD_15_1.png","img2/200/Incongruent/L/I_Dist_200_LN_1_LD_3_RN_2_RD_15_0.png","img2/100/Incongruent/L/I_Dist_100_LN_9_LD_15_RN_13_RD_26_0.png","img2/100/Incongruent/L/I_Dist_100_LN_6_LD_10_RN_11_RD_22_0.png","img2/100/Congruent/L/C_Dist_100_LN_3_LD_6_RN_2_RD_5_0.png","img2/300/Incongruent/R/I_Dist_300_LN_4_LD_20_RN_2_RD_4_1.png","img2/200/Incongruent/L/I_Dist_200_LN_7_LD_10_RN_12_RD_24_0.png","img2/300/Congruent/R/C_Dist_300_LN_5_LD_25_RN_7_RD_14_1.png","img2/200/Congruent/R/C_Dist_200_LN_3_LD_10_RN_14_RD_28_1.png","img2/300/Congruent/L/C_Dist_300_LN_12_LD_24_RN_2_RD_10_0.png","img2/100/Incongruent/L/I_Dist_100_LN_6_LD_10_RN_7_RD_14_0.png","img2/100/Congruent/L/C_Dist_100_LN_11_LD_22_RN_6_RD_15_0.png","img2/300/Congruent/R/C_Dist_300_LN_7_LD_14_RN_20_RD_25_1.png","img2/100/Congruent/L/C_Dist_100_LN_15_LD_25_RN_13_RD_26_0.png","img2/300/Congruent/L/C_Dist_300_LN_3_LD_6_RN_2_RD_10_0.png","img2/200/Incongruent/L/I_Dist_200_LN_4_LD_5_RN_6_RD_10_0.png","img2/300/Incongruent/L/I_Dist_300_LN_8_LD_10_RN_9_RD_18_0.png","img2/300/Congruent/R/C_Dist_300_LN_1_LD_20_RN_7_RD_20_1.png","img2/200/Congruent/R/C_Dist_200_LN_3_LD_6_RN_14_RD_20_1.png","img2/300/Incongruent/L/I_Dist_300_LN_1_LD_2_RN_2_RD_10_0.png","img2/300/Congruent/L/C_Dist_300_LN_11_LD_22_RN_2_RD_10_0.png","img2/200/Congruent/L/C_Dist_200_LN_8_LD_15_RN_3_RD_9_0.png","img2/100/Incongruent/R/I_Dist_100_LN_6_LD_12_RN_3_RD_5_1.png","img2/200/Incongruent/L/I_Dist_200_LN_7_LD_10_RN_14_RD_28_0.png","img2/100/Congruent/R/C_Dist_100_LN_1_LD_2_RN_3_RD_5_1.png","img2/300/Congruent/R/C_Dist_300_LN_1_LD_5_RN_6_RD_12_1.png","img2/100/Incongruent/R/I_Dist_100_LN_12_LD_24_RN_9_RD_15_1.png","img2/300/Congruent/L/C_Dist_300_LN_4_LD_5_RN_2_RD_4_0.png","img2/200/Congruent/R/C_Dist_200_LN_5_LD_10_RN_14_RD_20_1.png","img2/300/Incongruent/L/I_Dist_300_LN_8_LD_10_RN_9_RD_18_0.png","img2/100/Incongruent/R/I_Dist_100_LN_8_LD_20_RN_1_RD_2_1.png","img2/200/Congruent/R/C_Dist_200_LN_3_LD_6_RN_14_RD_20_1.png","img2/200/Congruent/L/C_Dist_200_LN_8_LD_15_RN_2_RD_6_0.png","img2/200/Incongruent/L/I_Dist_200_LN_1_LD_3_RN_2_RD_15_0.png","img2/200/Incongruent/L/I_Dist_200_LN_4_LD_6_RN_14_RD_30_0.png","img2/100/Incongruent/L/I_Dist_100_LN_9_LD_15_RN_13_RD_26_0.png","img2/200/Congruent/L/C_Dist_200_LN_8_LD_15_RN_3_RD_9_0.png","img2/100/Congruent/L/C_Dist_100_LN_15_LD_25_RN_13_RD_26_0.png","img2/200/Congruent/L/C_Dist_200_LN_21_LD_30_RN_2_RD_4_0.png","img2/300/Incongruent/L/I_Dist_300_LN_8_LD_10_RN_9_RD_18_0.png","img2/300/Congruent/R/C_Dist_300_LN_3_LD_6_RN_4_RD_5_1.png","img2/300/Congruent/R/C_Dist_300_LN_3_LD_12_RN_11_RD_20_1.png","img2/200/Incongruent/L/I_Dist_200_LN_3_LD_4_RN_11_RD_20_0.png","img2/300/Congruent/R/C_Dist_300_LN_2_LD_20_RN_10_RD_25_1.png","img2/300/Congruent/R/C_Dist_300_LN_1_LD_3_RN_19_RD_30_1.png","img2/300/Incongruent/R/I_Dist_300_LN_4_LD_20_RN_2_RD_4_1.png","img2/300/Incongruent/L/I_Dist_300_LN_8_LD_10_RN_9_RD_18_0.png","img2/300/Incongruent/R/I_Dist_300_LN_4_LD_20_RN_2_RD_4_1.png","img2/100/Incongruent/L/I_Dist_100_LN_3_LD_5_RN_8_RD_16_0.png","img2/300/Incongruent/R/I_Dist_300_LN_13_LD_26_RN_12_RD_15_1.png","img2/100/Congruent/R/C_Dist_100_LN_6_LD_12_RN_15_RD_25_1.png","img2/100/Incongruent/R/I_Dist_100_LN_10_LD_25_RN_9_RD_18_1.png","img2/200/Incongruent/L/I_Dist_200_LN_7_LD_10_RN_12_RD_24_0.png","img2/100/Congruent/L/C_Dist_100_LN_11_LD_22_RN_6_RD_15_0.png","img2/300/Congruent/R/C_Dist_300_LN_1_LD_5_RN_11_RD_22_1.png","img2/100/Congruent/R/C_Dist_100_LN_2_LD_5_RN_6_RD_12_1.png","img2/100/Congruent/L/C_Dist_100_LN_8_LD_16_RN_2_RD_5_0.png","img2/200/Congruent/R/C_Dist_200_LN_13_LD_26_RN_14_RD_20_1.png","img2/200/Incongruent/L/I_Dist_200_LN_7_LD_10_RN_14_RD_28_0.png","img2/200/Incongruent/L/I_Dist_200_LN_3_LD_4_RN_11_RD_20_0.png","img2/100/Incongruent/R/I_Dist_100_LN_12_LD_30_RN_2_RD_4_1.png","img2/200/Congruent/R/C_Dist_200_LN_3_LD_10_RN_14_RD_28_1.png","img2/100/Congruent/R/C_Dist_100_LN_6_LD_12_RN_15_RD_25_1.png","img2/100/Congruent/R/C_Dist_100_LN_7_LD_14_RN_9_RD_15_1.png","img2/300/Incongruent/L/I_Dist_300_LN_3_LD_6_RN_4_RD_20_0.png","img2/300/Congruent/L/C_Dist_300_LN_11_LD_22_RN_4_RD_20_0.png","img2/300/Incongruent/L/I_Dist_300_LN_8_LD_10_RN_9_RD_18_0.png","img2/300/Incongruent/R/I_Dist_300_LN_4_LD_20_RN_2_RD_4_1.png"],"dist100_C":[["C_Dist_100_LN_10_LD_25_RN_3_RD_10_0.png","C_Dist_100_LN_11_LD_22_RN_4_RD_10_0.png","C_Dist_100_LN_11_LD_22_RN_6_RD_15_0.png","C_Dist_100_LN_15_LD_25_RN_13_RD_26_0.png","C_Dist_100_LN_3_LD_6_RN_2_RD_5_0.png","C_Dist_100_LN_6_LD_20_RN_5_RD_25_0.png","C_Dist_100_LN_8_LD_16_RN_2_RD_5_0.png","C_Dist_100_LN_9_LD_15_RN_8_RD_16_0.png"],["C_Dist_100_LN_1_LD_2_RN_18_RD_30_1.png","C_Dist_100_LN_1_LD_2_RN_3_RD_5_1.png","C_Dist_100_LN_12_LD_30_RN_13_RD_26_1.png","C_Dist_100_LN_2_LD_5_RN_11_RD_22_1.png","C_Dist_100_LN_2_LD_5_RN_6_RD_12_1.png","C_Dist_100_LN_3_LD_20_RN_4_RD_16_1.png","C_Dist_100_LN_4_LD_10_RN_15_RD_30_1.png","C_Dist_100_LN_4_LD_8_RN_6_RD_10_1.png","C_Dist_100_LN_6_LD_12_RN_15_RD_25_1.png","C_Dist_100_LN_7_LD_14_RN_15_RD_25_1.png","C_Dist_100_LN_7_LD_14_RN_9_RD_15_1.png"]],"dist100_I":[["I_Dist_100_LN_1_LD_2_RN_8_RD_20_0.png","I_Dist_100_LN_2_LD_4_RN_6_RD_15_0.png","I_Dist_100_LN_2_LD_4_RN_8_RD_20_0.png","I_Dist_100_LN_3_LD_5_RN_11_RD_22_0.png","I_Dist_100_LN_3_LD_5_RN_8_RD_16_0.png","I_Dist_100_LN_3_LD_6_RN_4_RD_10_0.png","I_Dist_100_LN_3_LD_9_RN_7_RD_30_0.png","I_Dist_100_LN_4_LD_8_RN_8_RD_20_0.png","I_Dist_100_LN_6_LD_10_RN_11_RD_22_0.png","I_Dist_100_LN_6_LD_10_RN_13_RD_26_0.png","I_Dist_100_LN_6_LD_10_RN_7_RD_14_0.png","I_Dist_100_LN_9_LD_10_RN_20_RD_25_0.png","I_Dist_100_LN_9_LD_15_RN_13_RD_26_0.png","I_Dist_100_LN_9_LD_15_RN_14_RD_28_0.png"],["I_Dist_100_LN_10_LD_25_RN_8_RD_16_1.png","I_Dist_100_LN_10_LD_25_RN_9_RD_18_1.png","I_Dist_100_LN_11_LD_22_RN_9_RD_15_1.png","I_Dist_100_LN_12_LD_24_RN_9_RD_15_1.png","I_Dist_100_LN_12_LD_30_RN_2_RD_4_1.png","I_Dist_100_LN_13_LD_26_RN_12_RD_20_1.png","I_Dist_100_LN_13_LD_26_RN_6_RD_10_1.png","I_Dist_100_LN_17_LD_30_RN_10_RD_15_1.png","I_Dist_100_LN_6_LD_12_RN_3_RD_5_1.png","I_Dist_100_LN_8_LD_16_RN_6_RD_10_1.png","I_Dist_100_LN_8_LD_20_RN_1_RD_2_1.png","I_Dist_100_LN_9_LD_18_RN_6_RD_10_1.png"]],"dist100_S":[["E_Dist_100_LN_2_LD_12_RN_2_RD_30_0.png","E_Dist_100_LN_6_LD_10_RN_6_RD_12_0.png"],["E_Dist_100_LN_6_LD_12_RN_6_RD_10_1.png"]],"dist200_C":[["C_Dist_200_LN_11_LD_22_RN_3_RD_10_0.png","C_Dist_200_LN_12_LD_15_RN_6_RD_10_0.png","C_Dist_200_LN_12_LD_20_RN_6_RD_15_0.png","C_Dist_200_LN_14_LD_28_RN_6_RD_20_0.png","C_Dist_200_LN_15_LD_25_RN_4_RD_10_0.png","C_Dist_200_LN_16_LD_20_RN_12_RD_20_0.png","C_Dist_200_LN_16_LD_30_RN_9_RD_27_0.png","C_Dist_200_LN_20_LD_25_RN_9_RD_15_0.png","C_Dist_200_LN_21_LD_30_RN_2_RD_4_0.png","C_Dist_200_LN_4_LD_10_RN_3_RD_15_0.png","C_Dist_200_LN_4_LD_8_RN_3_RD_10_0.png","C_Dist_200_LN_6_LD_15_RN_3_RD_15_0.png","C_Dist_200_LN_7_LD_21_RN_2_RD_15_0.png","C_Dist_200_LN_8_LD_15_RN_2_RD_6_0.png","C_Dist_200_LN_8_LD_15_RN_3_RD_9_0.png","C_Dist_200_LN_8_LD_15_RN_7_RD_21_0.png","C_Dist_200_LN_9_LD_20_RN_4_RD_16_0.png"],["C_Dist_200_LN_1_LD_2_RN_21_RD_30_1.png","C_Dist_200_LN_13_LD_26_RN_14_RD_20_1.png","C_Dist_200_LN_3_LD_10_RN_11_RD_22_1.png","C_Dist_200_LN_3_LD_10_RN_14_RD_28_1.png","C_Dist_200_LN_3_LD_10_RN_7_RD_14_1.png","C_Dist_200_LN_3_LD_12_RN_9_RD_20_1.png","C_Dist_200_LN_3_LD_6_RN_14_RD_20_1.png","C_Dist_200_LN_5_LD_10_RN_14_RD_20_1.png","C_Dist_200_LN_6_LD_12_RN_7_RD_10_1.png","C_Dist_200_LN_6_LD_20_RN_11_RD_22_1.png","C_Dist_200_LN_7_LD_15_RN_18_RD_27_1.png","C_Dist_200_LN_9_LD_30_RN_13_RD_26_1.png"]],"dist200_I":[["I_Dist_200_LN_1_LD_2_RN_3_RD_10_0.png","I_Dist_200_LN_1_LD_3_RN_2_RD_15_0.png","I_Dist_200_LN_3_LD_4_RN_11_RD_20_0.png","I_Dist_200_LN_4_LD_5_RN_6_RD_10_0.png","I_Dist_200_LN_4_LD_6_RN_14_RD_30_0.png","I_Dist_200_LN_7_LD_10_RN_12_RD_24_0.png","I_Dist_200_LN_7_LD_10_RN_14_RD_28_0.png","I_Dist_200_LN_7_LD_10_RN_8_RD_16_0.png"],["I_Dist_200_LN_11_LD_20_RN_3_RD_4_1.png","I_Dist_200_LN_14_LD_30_RN_12_RD_18_1.png","I_Dist_200_LN_14_LD_30_RN_6_RD_9_1.png","I_Dist_200_LN_3_LD_10_RN_1_RD_2_1.png","I_Dist_200_LN_4_LD_30_RN_1_RD_3_1.png","I_Dist_200_LN_6_LD_20_RN_3_RD_6_1.png","I_Dist_200_LN_7_LD_15_RN_4_RD_6_1.png","I_Dist_200_LN_7_LD_15_RN_6_RD_9_1.png","I_Dist_200_LN_9_LD_15_RN_8_RD_10_1.png"]],"dist200_S":[["E_Dist_200_LN_3_LD_6_RN_3_RD_10_0.png"],["E_Dist_200_LN_3_LD_10_RN_3_RD_6_1.png"]],"dist300_C":[["C_Dist_300_LN_11_LD_22_RN_1_RD_5_0.png","C_Dist_300_LN_11_LD_22_RN_2_RD_10_0.png","C_Dist_300_LN_11_LD_22_RN_4_RD_20_0.png","C_Dist_300_LN_12_LD_24_RN_2_RD_10_0.png","C_Dist_300_LN_18_LD_20_RN_9_RD_15_0.png","C_Dist_300_LN_20_LD_25_RN_13_RD_26_0.png","C_Dist_300_LN_20_LD_25_RN_14_RD_28_0.png","C_Dist_300_LN_20_LD_25_RN_5_RD_10_0.png","C_Dist_300_LN_20_LD_25_RN_8_RD_16_0.png","C_Dist_300_LN_20_LD_25_RN_9_RD_18_0.png","C_Dist_300_LN_24_LD_30_RN_2_RD_4_0.png","C_Dist_300_LN_24_LD_30_RN_8_RD_16_0.png","C_Dist_300_LN_3_LD_6_RN_2_RD_10_0.png","C_Dist_300_LN_4_LD_10_RN_1_RD_10_0.png","C_Dist_300_LN_4_LD_5_RN_2_RD_4_0.png","C_Dist_300_LN_8_LD_16_RN_1_RD_5_0.png","C_Dist_300_LN_9_LD_10_RN_3_RD_5_0.png"],["C_Dist_300_LN_1_LD_20_RN_7_RD_20_1.png","C_Dist_300_LN_1_LD_3_RN_19_RD_30_1.png","C_Dist_300_LN_1_LD_30_RN_8_RD_24_1.png","C_Dist_300_LN_1_LD_5_RN_11_RD_22_1.png","C_Dist_300_LN_1_LD_5_RN_3_RD_6_1.png","C_Dist_300_LN_1_LD_5_RN_6_RD_12_1.png","C_Dist_300_LN_2_LD_10_RN_12_RD_24_1.png","C_Dist_300_LN_2_LD_20_RN_10_RD_25_1.png","C_Dist_300_LN_3_LD_12_RN_11_RD_20_1.png","C_Dist_300_LN_3_LD_6_RN_4_RD_5_1.png","C_Dist_300_LN_4_LD_20_RN_13_RD_26_1.png","C_Dist_300_LN_5_LD_25_RN_6_RD_12_1.png","C_Dist_300_LN_5_LD_25_RN_7_RD_14_1.png","C_Dist_300_LN_7_LD_14_RN_20_RD_25_1.png","C_Dist_300_LN_8_LD_15_RN_10_RD_12_1.png"]],"dist300_I":[["I_Dist_300_LN_1_LD_2_RN_2_RD_10_0.png","I_Dist_300_LN_1_LD_2_RN_3_RD_15_0.png","I_Dist_300_LN_2_LD_4_RN_6_RD_30_0.png","I_Dist_300_LN_3_LD_6_RN_4_RD_20_0.png","I_Dist_300_LN_4_LD_5_RN_6_RD_12_0.png","I_Dist_300_LN_4_LD_5_RN_8_RD_16_0.png","I_Dist_300_LN_7_LD_10_RN_8_RD_20_0.png","I_Dist_300_LN_8_LD_10_RN_14_RD_28_0.png","I_Dist_300_LN_8_LD_10_RN_9_RD_18_0.png"],["I_Dist_300_LN_13_LD_26_RN_12_RD_15_1.png","I_Dist_300_LN_4_LD_20_RN_2_RD_4_1.png"]],"dist300_S":[["E_Dist_300_LN_9_LD_12_RN_9_RD_20_0.png"],["E_Dist_300_LN_18_LD_30_RN_18_RD_20_1.png","E_Dist_300_LN_3_LD_10_RN_3_RD_5_1.png","E_Dist_300_LN_9_LD_20_RN_9_RD_12_1.png"]],"dist500_C":[["C_Dist_500_LN_10_LD_13_RN_7_RD_26_0.png","C_Dist_500_LN_10_LD_15_RN_4_RD_24_0.png","C_Dist_500_LN_12_LD_16_RN_3_RD_12_0.png","C_Dist_500_LN_12_LD_18_RN_4_RD_24_0.png","C_Dist_500_LN_15_LD_18_RN_5_RD_15_0.png","C_Dist_500_LN_15_LD_20_RN_1_RD_4_0.png","C_Dist_500_LN_18_LD_27_RN_1_RD_6_0.png","C_Dist_500_LN_20_LD_24_RN_1_RD_3_0.png","C_Dist_500_LN_20_LD_24_RN_3_RD_9_0.png","C_Dist_500_LN_20_LD_24_RN_7_RD_21_0.png","C_Dist_500_LN_20_LD_28_RN_3_RD_14_0.png","C_Dist_500_LN_21_LD_28_RN_6_RD_24_0.png","C_Dist_500_LN_22_LD_28_RN_2_RD_7_0.png","C_Dist_500_LN_25_LD_30_RN_9_RD_27_0.png","C_Dist_500_LN_4_LD_6_RN_1_RD_6_0.png","C_Dist_500_LN_5_LD_6_RN_2_RD_6_0.png","C_Dist_500_LN_6_LD_9_RN_1_RD_6_0.png","C_Dist_500_LN_7_LD_10_RN_1_RD_5_0.png","C_Dist_500_LN_8_LD_12_RN_1_RD_6_0.png","C_Dist_500_LN_8_LD_12_RN_4_RD_24_0.png"],["C_Dist_500_LN_1_LD_4_RN_12_RD_16_1.png","C_Dist_500_LN_1_LD_4_RN_9_RD_12_1.png","C_Dist_500_LN_1_LD_9_RN_11_RD_18_1.png","C_Dist_500_LN_10_LD_24_RN_22_RD_24_1.png","C_Dist_500_LN_2_LD_12_RN_10_RD_15_1.png","C_Dist_500_LN_2_LD_12_RN_12_RD_18_1.png","C_Dist_500_LN_2_LD_12_RN_4_RD_6_1.png","C_Dist_500_LN_2_LD_24_RN_7_RD_12_1.png","C_Dist_500_LN_2_LD_5_RN_18_RD_20_1.png","C_Dist_500_LN_2_LD_5_RN_9_RD_10_1.png","C_Dist_500_LN_2_LD_8_RN_12_RD_16_1.png","C_Dist_500_LN_2_LD_8_RN_21_RD_28_1.png","C_Dist_500_LN_3_LD_10_RN_4_RD_5_1.png","C_Dist_500_LN_3_LD_12_RN_15_RD_20_1.png","C_Dist_500_LN_3_LD_30_RN_6_RD_10_1.png","C_Dist_500_LN_3_LD_8_RN_14_RD_16_1.png","C_Dist_500_LN_4_LD_16_RN_15_RD_20_1.png","C_Dist_500_LN_4_LD_24_RN_12_RD_18_1.png","C_Dist_500_LN_5_LD_14_RN_6_RD_7_1.png","C_Dist_500_LN_7_LD_21_RN_20_RD_24_1.png","C_Dist_500_LN_7_LD_28_RN_12_RD_16_1.png","C_Dist_500_LN_7_LD_28_RN_9_RD_12_1.png","C_Dist_500_LN_9_LD_27_RN_20_RD_24_1.png"]],"dist500_I":[["I_Dist_500_LN_2_LD_3_RN_4_RD_24_0.png","I_Dist_500_LN_5_LD_6_RN_6_RD_18_0.png","I_Dist_500_LN_7_LD_8_RN_9_RD_24_0.png"],["I_Dist_500_LN_7_LD_21_RN_5_RD_6_1.png"]],"dist500_S":[["E_Dist_500_LN_6_LD_8_RN_6_RD_24_0.png"],["E_Dist_500_LN_2_LD_12_RN_2_RD_3_1.png","E_Dist_500_LN_6_LD_24_RN_6_RD_8_1.png"]]}},{"start_time":1551789949659,"click_time":1551789951785,"finger_time":1551789951006,"fix_duration":1452.1628671026856,"trial":1,"RT":1347,"MT":779,"sideResp":2,"stimulus":[],"xmouse":[799,799,799,799,799,799,798,798,798,798,798,798,798,798,798,798,798,798,798,798,798,798,798,798,798,798,798,798,798,798,798,798,798,798,798,798,798,798,798,798,798,798,798,798,798,798,798,798,798,798,798,798,798,798,798,798,798,798,798,798,798,798,798,800,802,810,817,842,855,871,887,907,953,965,970,974,976,976,976,976,976,975,975,975,974,974,974,974,973,973,973,977,991,1004,1011,1020,1031,1033,1034,1036,1036,1038,1048,1049,1052,1055,1059],"ymouse":[521,521,521,521,521,521,521,521,520,520,520,520,520,520,520,520,520,520,520,520,520,520,520,520,520,520,520,520,520,520,520,520,520,520,520,520,520,520,520,520,520,520,520,520,520,520,520,520,520,520,520,520,520,520,520,520,520,520,520,520,520,520,520,518,515,508,500,471,455,437,418,397,346,329,318,311,308,307,307,307,307,307,307,307,307,307,307,307,306,302,294,279,235,195,170,147,108,95,86,81,79,77,72,71,70,70,70],"timestamp_mouse":[5,26,46,67,87,107,126,145,166,187,207,226,246,266,285,307,325,347,367,385,405,427,447,465,486,506,527,547,566,585,606,625,645,665,687,705,727,747,767,787,807,826,847,866,885,906,927,945,966,987,1005,1026,1047,1066,1087,1106,1127,1146,1167,1187,1207,1225,1247,1267,1287,1306,1326,1347,1366,1386,1406,1426,1446,1466,1486,1506,1526,1546,1566,1586,1607,1625,1646,1665,1687,1706,1727,1747,1766,1786,1805,1825,1847,1865,1886,1906,1927,1946,1966,1986,2007,2026,2046,2066,2086,2107,2126],"xSR":741.5,"ySR":469.95,"xT1":424.9,"yT1":0,"xT2":1058.1,"yT2":0,"toosoon":0,"cond_shown":"Incongruent","ratio_trial":300,"L_num":13,"L_den":26,"R_num":12,"R_den":15,"correct_side":2,"subjID":"SaraElianaGuevaraFino20","gender":"1","school":"6","age":"11"},{"start_time":1551789953796,"click_time":1551789955745,"finger_time":1551789955584,"fix_duration":930.0726829063374,"trial":2,"RT":1788,"MT":161,"sideResp":2,"stimulus":[],"xmouse":[793,793,793,793,793,793,793,793,794,794,794,794,794,794,794,794,794,794,794,795,795,795,795,795,795,795,795,795,795,795,795,795,795,795,795,795,795,795,795,795,795,795,795,795,795,795,795,795,797,797,797,797,797,797,797,797,797,797,797,797,798,798,798,798,798,798,798,798,799,799,799,799,799,799,799,799,799,799,799,799,799,799,799,799,799,801,803,808,817,824,869,914,974,1037,1082,1138,1144,1153],"ymouse":[523,523,523,523,523,523,523,523,522,522,522,522,522,522,521,521,521,521,521,521,521,521,521,520,520,520,520,520,520,520,520,520,520,520,520,520,520,520,520,520,520,520,520,520,520,520,520,520,520,520,520,520,520,520,520,520,520,520,520,519,519,519,518,518,518,518,518,518,517,516,515,515,515,515,515,515,515,515,515,515,515,515,515,515,515,513,507,494,476,455,374,330,283,242,207,131,111,94],"timestamp_mouse":[14,29,49,69,88,109,130,148,170,189,210,229,250,269,289,309,330,349,369,389,408,430,449,469,490,508,529,549,569,590,608,628,650,670,689,710,729,750,770,788,810,829,848,868,889,910,928,949,969,990,1008,1029,1050,1069,1089,1109,1128,1148,1170,1188,1210,1229,1249,1269,1289,1308,1329,1349,1370,1389,1409,1429,1449,1468,1489,1509,1529,1549,1569,1589,1608,1629,1649,1668,1688,1710,1730,1749,1769,1788,1810,1829,1849,1869,1890,1910,1928,1949],"xSR":741.5,"ySR":469.95,"xT1":424.9,"yT1":0,"xT2":1058.1,"yT2":0,"toosoon":0,"cond_shown":"Incongruent","ratio_trial":200,"L_num":7,"L_den":10,"R_num":14,"R_den":28,"correct_side":1,"subjID":"SaraElianaGuevaraFino20","gender":"1","school":"6","age":"11"},{"start_time":1551789957259,"click_time":1551789958986,"finger_time":1551789958585,"fix_duration":352.9735803543269,"trial":3,"RT":1326,"MT":401,"sideResp":2,"stimulus":[],"xmouse":[812,812,812,812,812,812,812,812,812,811,810,810,810,810,810,810,810,810,810,810,810,810,810,810,810,810,810,810,810,810,810,810,810,810,810,810,810,810,810,810,810,810,810,810,810,810,810,810,810,810,810,810,810,810,810,810,810,810,810,810,810,810,813,819,827,840,859,931,972,1009,1048,1084,1157,1187,1196,1199,1200,1200,1200,1199,1199,1197,1180,1173,1168,1164,1157],"ymouse":[529,529,529,529,529,529,529,529,529,528,528,528,528,528,528,528,528,528,528,528,528,528,528,528,528,528,528,528,528,528,528,528,528,528,528,528,528,528,528,528,528,528,528,528,528,528,528,528,528,528,528,528,528,528,528,528,528,528,528,528,528,527,525,522,517,508,493,427,383,338,295,258,192,151,132,116,106,93,92,91,90,89,86,85,85,85,84],"timestamp_mouse":[6,26,46,66,87,105,127,145,165,187,206,226,246,266,286,306,327,347,366,386,407,426,445,466,485,507,526,546,567,585,605,626,647,665,686,706,725,745,765,787,805,827,847,866,885,907,927,946,967,985,1005,1027,1047,1066,1085,1105,1127,1147,1166,1185,1207,1226,1247,1267,1287,1307,1326,1346,1367,1386,1406,1427,1446,1467,1486,1507,1526,1546,1566,1586,1606,1626,1646,1667,1686,1706,1727],"xSR":741.5,"ySR":469.95,"xT1":424.9,"yT1":0,"xT2":1058.1,"yT2":0,"toosoon":0,"cond_shown":"Incongruent","ratio_trial":200,"L_num":1,"L_den":2,"R_num":3,"R_den":10,"correct_side":1,"subjID":"SaraElianaGuevaraFino20","gender":"1","school":"6","age":"11"},{"start_time":1551789960517,"click_time":1551789962305,"finger_time":1551789961886,"fix_duration":250,"trial":4,"RT":1369,"MT":419,"sideResp":2,"stimulus":[],"xmouse":[798,798,798,798,798,798,798,798,798,798,798,798,798,798,798,798,798,798,798,798,798,798,798,798,798,798,798,798,798,798,798,798,798,798,798,798,798,798,798,798,798,798,798,798,798,798,798,798,798,798,798,798,798,798,798,798,798,798,798,798,798,798,798,798,798,802,805,813,834,857,873,895,919,966,981,992,998,1002,1013,1031,1043,1049,1052,1054,1057,1064,1071,1077,1082,1086],"ymouse":[517,517,517,517,517,517,517,517,517,517,517,517,517,517,517,517,517,517,517,517,517,517,517,517,517,517,517,517,517,517,517,517,517,517,517,517,517,517,517,517,517,517,517,517,517,517,517,517,517,517,517,517,517,517,517,517,517,517,517,517,517,517,517,517,517,515,510,497,465,440,418,386,350,282,257,235,217,199,172,158,150,144,140,136,134,130,126,121,110,99],"timestamp_mouse":[8,28,48,68,89,107,128,149,169,187,208,228,248,269,288,308,328,348,367,388,408,428,449,469,489,509,528,548,568,588,608,628,649,668,689,707,729,749,768,788,808,827,848,869,889,907,929,949,967,989,1008,1029,1047,1069,1087,1109,1129,1147,1167,1189,1209,1227,1248,1268,1289,1307,1328,1348,1369,1388,1407,1428,1449,1468,1488,1509,1528,1548,1569,1589,1607,1628,1649,1668,1688,1708,1729,1748,1769,1788],"xSR":741.5,"ySR":469.95,"xT1":424.9,"yT1":0,"xT2":1058.1,"yT2":0,"toosoon":0,"cond_shown":"Congruent","ratio_trial":300,"L_num":4,"L_den":20,"R_num":13,"R_den":26,"correct_side":2,"subjID":"SaraElianaGuevaraFino20","gender":"1","school":"6","age":"11"},{"start_time":1551789964233,"click_time":1551789965765,"finger_time":1551789965145,"fix_duration":1127.656983003348,"trial":5,"RT":912,"MT":620,"sideResp":2,"stimulus":[],"xmouse":[792,792,792,792,792,792,792,792,792,792,792,792,792,792,792,792,792,792,792,792,792,792,792,792,792,792,792,792,792,792,792,792,792,792,792,792,792,792,792,792,795,800,809,815,820,827,832,837,841,841,841,841,844,848,859,867,875,883,906,920,937,957,981,1035,1054,1067,1076,1080,1083,1085,1087,1092,1095,1096,1096,1100,1104],"ymouse":[551,551,551,551,551,551,551,551,551,551,551,551,551,551,551,551,551,551,551,551,551,551,551,551,551,551,551,551,551,551,551,551,551,551,551,551,551,551,551,548,542,536,511,485,471,454,441,429,416,413,412,410,403,398,385,374,359,344,310,291,271,251,232,194,183,175,168,162,155,151,149,146,142,123,112,101,91],"timestamp_mouse":[12,33,53,72,92,113,131,153,172,192,212,233,252,273,292,312,332,352,373,391,411,433,451,472,493,512,532,552,571,592,611,631,653,672,692,711,733,752,772,792,812,832,852,873,891,912,933,953,973,992,1013,1033,1052,1073,1093,1113,1132,1152,1172,1192,1212,1232,1253,1273,1293,1311,1331,1351,1373,1393,1413,1432,1453,1472,1492,1511,1532],"xSR":741.5,"ySR":469.95,"xT1":424.9,"yT1":0,"xT2":1058.1,"yT2":0,"toosoon":0,"cond_shown":"Incongruent","ratio_trial":200,"L_num":7,"L_den":10,"R_num":14,"R_den":28,"correct_side":1,"subjID":"SaraElianaGuevaraFino20","gender":"1","school":"6","age":"11"},{"start_time":1551789966916,"click_time":1551789968924,"finger_time":1551789968506,"fix_duration":250,"trial":6,"RT":1590,"MT":418,"sideResp":1,"stimulus":[],"xmouse":[792,796,799,800,800,800,800,800,800,800,800,800,800,800,800,800,801,801,801,801,801,801,801,801,801,801,801,801,801,801,801,801,801,801,801,801,801,801,801,801,801,801,801,801,801,801,801,801,801,801,801,801,801,801,801,801,801,801,801,801,801,801,801,801,801,801,801,801,801,801,801,801,801,796,792,788,783,772,761,723,687,655,632,614,594,594,595,597,597,593,591,589,585,578,554,539,523,508,493,479,473],"ymouse":[532,529,525,524,524,524,524,524,524,524,524,524,524,524,524,524,523,523,522,522,522,522,522,522,522,522,522,522,522,522,522,522,522,522,522,522,522,522,522,522,522,522,522,522,522,522,522,522,522,522,522,522,522,522,522,522,522,522,522,522,522,522,522,522,522,522,522,522,522,522,522,522,522,522,521,521,516,506,489,437,387,349,318,293,259,251,245,242,238,232,229,226,220,213,192,180,166,153,138,107,83],"timestamp_mouse":[9,29,49,69,89,109,129,149,170,190,209,230,249,269,289,309,330,349,369,390,409,428,449,469,489,509,529,549,568,589,610,629,649,670,689,709,728,748,769,790,808,830,849,869,889,909,928,948,969,989,1009,1028,1049,1069,1089,1110,1129,1149,1169,1189,1209,1228,1249,1269,1289,1309,1329,1350,1369,1389,1410,1429,1449,1469,1488,1509,1529,1549,1569,1590,1609,1629,1648,1669,1689,1709,1729,1749,1769,1790,1809,1829,1850,1869,1890,1909,1929,1949,1970,1989,2008],"xSR":741.5,"ySR":469.95,"xT1":424.9,"yT1":0,"xT2":1058.1,"yT2":0,"toosoon":0,"cond_shown":"Incongruent","ratio_trial":100,"L_num":6,"L_den":10,"R_num":7,"R_den":14,"correct_side":1,"subjID":"SaraElianaGuevaraFino20","gender":"1","school":"6","age":"11"},{"start_time":1551789970637,"click_time":1551789972905,"finger_time":1551789972065,"fix_duration":250,"trial":7,"RT":1428,"MT":840,"sideResp":2,"stimulus":[],"xmouse":[787,787,787,787,787,787,787,787,787,787,787,787,787,787,787,787,787,787,787,787,787,787,787,787,787,787,787,787,787,787,787,787,787,787,787,787,787,787,787,787,787,787,787,787,787,787,787,787,787,787,787,787,787,787,787,787,787,787,787,787,787,787,787,787,787,788,788,785,778,776,772,768,759,716,687,657,638,622,595,579,570,565,565,565,565,565,563,561,560,560,560,560,563,578,584,590,594,600,607,612,622,639,658,702,738,768,805,840,909,938,967,990,1039,1061],"ymouse":[509,509,509,509,509,509,509,509,509,509,509,509,509,509,509,509,509,509,509,509,509,509,509,509,509,509,509,509,509,509,509,509,509,509,509,509,509,509,509,509,509,509,509,509,509,509,509,509,509,509,509,509,509,509,509,509,509,509,509,509,509,509,509,509,509,506,505,498,485,480,473,468,460,427,404,377,349,320,273,251,237,228,223,218,213,208,205,201,201,201,201,201,201,202,203,204,204,205,207,207,209,210,210,210,207,202,194,186,166,156,145,135,114,98],"timestamp_mouse":[8,28,49,67,88,108,129,149,168,188,209,228,249,268,287,308,328,348,369,388,408,428,448,468,488,508,529,547,568,588,608,629,648,668,688,708,729,747,769,787,807,828,848,869,888,908,928,947,967,988,1008,1029,1047,1068,1088,1107,1129,1148,1168,1188,1208,1229,1248,1268,1289,1308,1328,1348,1367,1387,1408,1428,1448,1468,1488,1508,1528,1547,1567,1588,1608,1628,1649,1668,1689,1708,1728,1748,1768,1787,1808,1828,1848,1868,1889,1908,1928,1948,1968,1989,2009,2028,2047,2069,2089,2108,2128,2147,2168,2188,2208,2228,2249,2268],"xSR":741.5,"ySR":469.95,"xT1":424.9,"yT1":0,"xT2":1058.1,"yT2":0,"toosoon":0,"cond_shown":"Congruent","ratio_trial":300,"L_num":11,"L_den":22,"R_num":2,"R_den":10,"correct_side":1,"subjID":"SaraElianaGuevaraFino20","gender":"1","school":"6","age":"11"},{"start_time":1551789975124,"click_time":1551789977705,"finger_time":1551789977045,"fix_duration":978.3844996630538,"trial":8,"RT":1921,"MT":660,"sideResp":1,"stimulus":[],"xmouse":[793,793,793,793,792,792,792,792,792,792,792,792,795,795,796,796,796,796,796,796,796,796,796,796,796,796,796,796,796,796,796,796,796,796,796,796,796,796,796,796,796,796,796,796,796,796,796,796,796,796,796,796,796,796,796,796,796,796,796,796,796,796,796,796,796,796,796,796,796,796,796,796,796,796,796,796,796,796,796,796,796,796,796,796,796,796,796,796,796,794,793,792,791,791,788,787,787,787,790,791,792,793,793,793,793,793,794,794,794,792,781,772,763,757,749,745,741,736,718,691,658,614,571,546,514,496,482,474,471,471],"ymouse":[522,522,522,522,523,523,523,523,523,523,521,516,508,505,502,502,502,502,502,502,502,503,504,507,508,508,508,508,508,508,508,508,508,508,508,509,509,509,509,509,509,509,509,509,509,509,509,509,509,509,509,509,509,509,509,509,509,509,509,509,509,509,509,509,509,509,509,509,509,509,509,509,509,509,509,509,509,509,509,509,509,509,509,509,509,509,509,509,509,509,508,504,499,494,483,475,467,461,450,443,441,439,438,438,438,438,438,434,422,411,392,379,367,360,347,342,335,326,303,281,261,240,222,211,194,179,163,144,127,98],"timestamp_mouse":[1,21,41,61,82,100,120,142,162,182,201,222,241,261,282,300,321,340,360,382,401,422,441,461,481,501,521,541,561,581,601,621,642,662,680,701,722,741,760,782,801,821,842,861,881,901,921,942,961,982,1000,1021,1041,1061,1082,1100,1121,1141,1161,1180,1201,1221,1242,1260,1281,1301,1321,1340,1362,1381,1402,1421,1440,1461,1481,1502,1521,1542,1562,1582,1600,1622,1642,1662,1682,1702,1721,1741,1762,1782,1800,1821,1841,1861,1882,1902,1921,1941,1961,1981,2001,2021,2042,2062,2081,2101,2122,2141,2162,2181,2201,2222,2240,2261,2281,2301,2321,2342,2362,2382,2401,2421,2440,2461,2481,2501,2521,2541,2561,2581],"xSR":741.5,"ySR":469.95,"xT1":424.9,"yT1":0,"xT2":1058.1,"yT2":0,"toosoon":0,"cond_shown":"Incongruent","ratio_trial":200,"L_num":7,"L_den":10,"R_num":12,"R_den":24,"correct_side":1,"subjID":"SaraElianaGuevaraFino20","gender":"1","school":"6","age":"11"},{"start_time":1551789979625,"click_time":1551789981346,"finger_time":1551789980904,"fix_duration":918.0470448020575,"trial":9,"RT":1279,"MT":442,"sideResp":1,"stimulus":[],"xmouse":[797,797,797,797,797,797,797,797,797,797,797,797,797,797,797,797,797,797,797,797,797,797,797,797,797,797,797,797,797,797,797,797,797,797,797,797,797,797,797,797,797,797,797,797,797,797,797,797,797,797,797,797,797,797,797,797,797,797,797,798,797,792,782,751,717,678,626,582,547,543,543,543,543,541,541,541,541,541,541,540,538,535,531,510,490,476],"ymouse":[517,517,517,517,517,517,517,517,517,517,517,517,517,517,517,517,517,517,517,517,517,517,517,517,517,517,517,517,517,517,517,517,517,517,517,517,517,517,517,517,517,517,517,517,517,517,517,517,517,517,517,517,517,517,517,517,517,517,517,516,513,505,492,458,426,398,361,329,299,293,293,293,292,290,287,283,278,274,260,249,236,220,202,153,114,91],"timestamp_mouse":[21,41,60,81,100,120,140,160,181,199,220,240,260,281,299,321,340,360,379,401,420,440,460,480,500,519,540,560,580,599,619,641,660,681,701,720,739,761,781,801,820,841,861,879,900,921,940,960,981,1000,1021,1040,1060,1079,1101,1121,1140,1160,1181,1200,1220,1240,1260,1279,1301,1320,1340,1360,1380,1400,1420,1440,1459,1481,1501,1520,1541,1560,1580,1601,1621,1639,1660,1681,1701,1721],"xSR":741.5,"ySR":469.95,"xT1":424.9,"yT1":0,"xT2":1058.1,"yT2":0,"toosoon":0,"cond_shown":"Incongruent","ratio_trial":100,"L_num":6,"L_den":12,"R_num":3,"R_den":5,"correct_side":2,"subjID":"SaraElianaGuevaraFino20","gender":"1","school":"6","age":"11"},{"start_time":1551789986560,"click_time":1551789988206,"finger_time":1551789987765,"fix_duration":713.9173663153441,"trial":10,"RT":1205,"MT":441,"sideResp":2,"stimulus":[],"xmouse":[777,777,777,777,777,777,777,777,777,777,777,777,777,777,777,777,777,777,777,777,777,777,777,777,777,777,777,777,777,777,777,777,777,777,777,777,777,777,777,777,777,777,777,777,777,777,777,777,777,777,777,777,777,779,780,783,786,789,792,796,805,816,850,870,887,903,918,942,961,974,985,996,1018,1027,1038,1047,1065,1081,1088,1094,1099,1104,1116],"ymouse":[505,506,506,506,507,507,507,507,507,507,507,507,507,507,507,507,507,507,507,507,507,507,507,507,507,507,507,507,507,507,507,507,507,507,507,507,507,507,507,507,507,507,507,507,507,507,507,507,507,507,507,507,507,503,502,496,493,485,480,472,460,448,415,390,366,342,322,286,264,250,238,229,212,205,196,188,174,161,152,142,129,117,96],"timestamp_mouse":[5,25,45,66,85,105,125,145,165,185,204,225,245,266,285,306,324,344,366,386,404,425,444,465,485,505,526,544,566,585,605,625,645,666,685,704,725,745,766,785,804,826,844,866,884,905,924,945,965,986,1004,1025,1044,1066,1085,1105,1125,1145,1164,1185,1205,1224,1246,1265,1284,1304,1325,1345,1365,1386,1405,1425,1445,1464,1484,1505,1525,1545,1566,1584,1604,1625,1645],"xSR":741.5,"ySR":469.95,"xT1":424.9,"yT1":0,"xT2":1058.1,"yT2":0,"toosoon":0,"cond_shown":"Incongruent","ratio_trial":100,"L_num":3,"L_den":5,"R_num":11,"R_den":22,"correct_side":1,"subjID":"SaraElianaGuevaraFino20","gender":"1","school":"6","age":"11"},{"start_time":1551789992181,"click_time":1551789994045,"finger_time":1551789993566,"fix_duration":1255.207304844513,"trial":11,"RT":1385,"MT":479,"sideResp":1,"stimulus":[],"xmouse":[788,788,788,788,788,788,788,788,788,788,788,788,788,788,788,788,788,788,788,788,788,788,788,788,788,788,788,788,788,788,788,788,788,788,788,788,788,788,788,788,788,788,788,788,788,788,788,788,788,788,788,788,788,788,788,788,788,788,788,788,788,788,788,788,788,788,788,788,780,767,719,685,638,581,519,398,349,322,317,317,317,317,317,317,317,317,317,317,371,380,398,407,416,428],"ymouse":[507,507,507,507,507,507,507,507,507,507,507,507,507,507,507,507,507,507,507,507,507,507,507,507,507,507,507,507,507,507,507,507,507,507,507,507,507,507,507,507,507,507,507,507,507,507,507,507,507,507,507,507,507,507,507,507,507,507,507,507,507,507,507,507,507,506,500,493,478,461,404,358,301,241,182,78,38,7,0,0,0,0,0,0,0,0,0,0,7,16,36,48,60,73],"timestamp_mouse":[4,23,43,65,84,104,125,143,165,184,204,225,244,264,283,305,324,344,365,384,405,425,443,464,484,503,525,544,563,585,604,623,644,664,685,703,724,745,763,784,804,824,844,863,885,904,925,943,965,984,1005,1024,1044,1064,1085,1104,1124,1144,1163,1183,1205,1225,1244,1265,1285,1305,1325,1344,1363,1385,1405,1424,1444,1464,1484,1505,1524,1543,1564,1583,1605,1625,1644,1664,1684,1705,1724,1745,1764,1784,1805,1824,1843,1864],"xSR":741.5,"ySR":469.95,"xT1":424.9,"yT1":0,"xT2":1058.1,"yT2":0,"toosoon":0,"cond_shown":"Congruent","ratio_trial":300,"L_num":20,"L_den":25,"R_num":13,"R_den":26,"correct_side":1,"subjID":"SaraElianaGuevaraFino20","gender":"1","school":"6","age":"11"},{"start_time":1551789995642,"click_time":1551789997685,"finger_time":1551789997206,"fix_duration":455.1412222116137,"trial":12,"RT":1564,"MT":479,"sideResp":2,"stimulus":[],"xmouse":[813,813,813,813,813,813,813,813,813,813,813,813,813,813,813,813,813,813,813,813,813,813,813,813,813,813,813,813,813,813,813,813,813,813,813,813,813,813,813,813,813,813,813,813,813,813,813,813,813,813,813,813,813,813,813,813,813,813,813,813,813,813,813,813,813,813,813,813,813,813,813,813,813,816,821,828,836,841,845,845,845,842,839,838,838,845,856,892,917,947,981,1011,1057,1069,1072,1072,1072,1072,1073,1074,1074,1074,1074],"ymouse":[508,508,508,508,508,508,508,508,508,508,508,508,508,508,508,508,508,508,508,508,508,508,508,508,508,508,508,508,508,508,508,508,508,508,508,508,508,508,508,508,508,508,508,508,508,508,508,508,508,508,508,508,508,508,508,508,508,508,508,508,508,508,508,508,508,508,508,508,508,508,508,508,508,507,504,497,490,484,475,473,472,469,468,462,457,446,430,384,350,311,273,231,168,144,134,128,123,115,113,109,106,102,99],"timestamp_mouse":[3,22,42,64,83,103,123,144,163,182,202,224,244,264,283,304,323,343,364,382,402,422,443,463,483,504,524,543,563,582,604,623,642,664,683,704,722,743,764,783,802,824,844,864,884,904,923,944,962,984,1003,1022,1043,1064,1084,1103,1122,1144,1164,1183,1202,1223,1244,1264,1282,1302,1324,1343,1363,1384,1403,1423,1444,1462,1483,1503,1523,1543,1564,1583,1604,1623,1644,1664,1682,1703,1723,1743,1764,1783,1802,1823,1844,1863,1882,1903,1923,1944,1963,1983,2002,2022,2043],"xSR":741.5,"ySR":469.95,"xT1":424.9,"yT1":0,"xT2":1058.1,"yT2":0,"toosoon":0,"cond_shown":"Incongruent","ratio_trial":300,"L_num":13,"L_den":26,"R_num":12,"R_den":15,"correct_side":2,"subjID":"SaraElianaGuevaraFino20","gender":"1","school":"6","age":"11"},{"start_time":1551789999055,"click_time":1551790001025,"finger_time":1551790000385,"fix_duration":250,"trial":13,"RT":1330,"MT":640,"sideResp":2,"stimulus":[],"xmouse":[796,796,796,796,796,795,795,795,795,795,795,795,795,795,795,795,795,795,795,795,795,795,795,795,795,795,795,795,795,795,795,795,795,795,795,795,795,795,795,795,795,795,795,795,795,795,795,795,795,795,795,795,795,795,795,795,795,795,794,794,794,794,795,802,814,827,867,888,912,927,938,946,955,962,967,972,974,978,980,985,990,1011,1028,1055,1071,1085,1100,1121,1125,1127,1129,1130,1130,1130,1130,1129,1125,1123,1121],"ymouse":[516,516,516,516,516,516,516,516,516,516,516,516,516,516,516,516,516,516,516,516,516,516,516,516,516,516,516,516,516,516,516,516,516,516,516,516,516,516,516,516,516,516,516,516,516,516,516,516,516,516,516,516,516,516,516,516,516,516,516,516,516,516,514,510,502,491,460,443,422,403,383,363,329,302,289,278,271,257,250,241,230,198,182,161,149,141,135,125,124,122,122,120,119,117,115,113,105,100,95],"timestamp_mouse":[10,30,51,70,90,109,131,151,170,191,211,230,250,270,290,311,329,349,370,390,410,429,449,470,490,509,530,550,569,590,610,630,649,671,690,711,729,751,770,790,809,830,851,869,889,910,930,949,970,991,1010,1029,1051,1071,1090,1110,1130,1149,1170,1191,1211,1230,1251,1271,1289,1311,1330,1350,1370,1390,1411,1429,1451,1471,1490,1510,1530,1551,1570,1591,1610,1631,1649,1671,1690,1710,1730,1751,1770,1791,1810,1831,1850,1870,1889,1910,1931,1950,1970],"xSR":741.5,"ySR":469.95,"xT1":424.9,"yT1":0,"xT2":1058.1,"yT2":0,"toosoon":0,"cond_shown":"Congruent","ratio_trial":100,"L_num":4,"L_den":10,"R_num":15,"R_den":30,"correct_side":2,"subjID":"SaraElianaGuevaraFino20","gender":"1","school":"6","age":"11"},{"start_time":1551790002457,"click_time":1551790005366,"finger_time":1551790004025,"fix_duration":250,"trial":14,"RT":1568,"MT":1341,"sideResp":1,"stimulus":[],"xmouse":[806,806,806,806,806,806,806,806,806,806,806,806,806,806,806,806,806,806,806,806,806,806,806,806,806,806,806,806,806,806,806,806,806,806,806,806,806,806,806,806,806,806,806,806,806,806,806,806,806,806,806,806,806,806,806,806,806,806,806,806,806,806,806,806,806,806,806,806,806,806,806,806,806,805,805,805,819,831,842,851,855,857,858,858,858,858,858,858,858,858,859,862,864,866,869,874,897,915,935,949,957,975,995,1004,1009,1010,1010,1010,1009,1007,1004,1000,986,970,957,944,930,903,887,869,849,802,764,740,720,702,677,670,664,660,657,652,630,611,585,560,540,517,515,515,516,516,517,517,519,519],"ymouse":[525,525,525,525,525,525,525,525,525,525,525,525,525,525,525,525,525,525,525,525,525,525,525,525,525,525,525,525,525,525,525,525,525,525,525,525,525,525,525,525,525,525,525,525,525,525,525,525,525,525,525,525,525,525,525,525,525,525,525,525,525,525,525,525,525,525,525,525,525,525,525,525,525,525,525,521,498,486,474,465,460,458,456,456,456,456,456,456,455,455,454,448,442,437,427,415,371,338,301,271,242,193,162,150,143,141,141,141,141,141,141,141,145,150,151,152,153,153,153,153,153,149,143,141,140,137,134,132,131,131,130,129,126,124,120,116,114,108,107,107,106,106,103,102,100,98],"timestamp_mouse":[8,30,49,68,89,108,129,148,168,188,208,229,249,268,289,309,328,349,368,390,409,429,448,468,489,509,529,549,568,588,608,629,650,668,688,710,729,748,768,788,808,828,848,869,888,908,929,948,969,989,1008,1028,1048,1069,1090,1108,1128,1149,1170,1188,1209,1228,1248,1269,1289,1309,1329,1349,1369,1390,1409,1429,1450,1468,1489,1509,1529,1550,1568,1588,1608,1630,1648,1669,1688,1709,1729,1748,1770,1789,1808,1830,1849,1868,1888,1908,1929,1948,1969,1988,2008,2029,2049,2069,2089,2109,2128,2150,2169,2189,2209,2229,2249,2269,2288,2308,2328,2349,2368,2388,2409,2430,2449,2469,2488,2508,2529,2548,2569,2588,2609,2628,2649,2669,2689,2709,2728,2749,2768,2788,2809,2828,2849,2868,2888,2909],"xSR":741.5,"ySR":469.95,"xT1":424.9,"yT1":0,"xT2":1058.1,"yT2":0,"toosoon":0,"cond_shown":"Incongruent","ratio_trial":100,"L_num":3,"L_den":9,"R_num":7,"R_den":30,"correct_side":1,"subjID":"SaraElianaGuevaraFino20","gender":"1","school":"6","age":"11"},{"start_time":1551790006516,"click_time":1551790009445,"finger_time":1551790008065,"fix_duration":250,"trial":15,"RT":1549,"MT":1380,"sideResp":1,"stimulus":[],"xmouse":[795,795,795,795,795,795,795,795,795,795,795,795,795,795,795,795,795,795,795,795,795,795,795,795,795,795,795,795,795,795,795,795,795,795,795,795,795,795,795,795,795,795,795,795,795,795,795,795,795,795,795,795,795,795,795,795,795,795,795,795,795,795,795,795,795,795,795,795,793,791,785,782,778,775,765,758,750,745,744,744,744,744,744,744,744,744,744,744,744,744,744,744,744,744,745,746,747,752,756,762,763,763,763,763,763,763,764,764,768,779,789,790,790,790,790,790,790,790,789,784,784,784,784,783,782,776,762,746,725,690,672,659,649,645,645,645,645,645,645,655,656,655,640,613,555,531,518],"ymouse":[530,530,530,530,530,530,530,530,530,530,530,530,530,530,530,530,530,530,530,530,530,530,530,530,530,530,530,530,530,530,530,530,530,530,530,530,530,530,530,530,530,530,530,530,530,530,530,530,530,530,530,530,530,530,530,530,530,530,530,530,530,530,530,530,530,530,530,530,529,527,519,514,509,505,493,484,473,465,461,460,460,460,460,460,460,460,460,460,460,460,460,460,461,463,465,467,469,472,475,477,478,479,480,480,480,480,481,482,483,487,488,488,488,488,488,488,488,488,487,484,484,484,484,484,483,478,469,456,440,405,379,364,354,352,352,352,352,351,350,339,323,298,264,214,118,75,43],"timestamp_mouse":[9,30,49,69,90,110,131,149,169,189,210,230,251,269,289,310,329,349,369,389,409,429,449,470,489,510,530,549,569,589,609,630,650,669,690,709,730,749,769,790,809,829,850,869,889,909,929,949,971,989,1009,1029,1050,1069,1090,1109,1129,1149,1169,1190,1211,1229,1249,1271,1289,1310,1330,1350,1370,1389,1409,1429,1449,1469,1489,1510,1529,1549,1570,1591,1609,1629,1650,1669,1689,1711,1729,1749,1770,1790,1810,1830,1849,1871,1890,1909,1930,1950,1969,1989,2009,2031,2049,2069,2089,2110,2129,2149,2169,2189,2209,2229,2251,2270,2290,2309,2329,2349,2370,2389,2409,2431,2449,2469,2490,2509,2529,2549,2569,2589,2609,2629,2650,2671,2689,2710,2729,2749,2769,2790,2810,2829,2849,2870,2889,2910,2929],"xSR":741.5,"ySR":469.95,"xT1":424.9,"yT1":0,"xT2":1058.1,"yT2":0,"toosoon":0,"cond_shown":"Incongruent","ratio_trial":100,"L_num":3,"L_den":6,"R_num":4,"R_den":10,"correct_side":1,"subjID":"SaraElianaGuevaraFino20","gender":"1","school":"6","age":"11"},{"start_time":1551790011556,"click_time":1551790013306,"finger_time":1551790012926,"fix_duration":709.5723830769427,"trial":16,"RT":1370,"MT":380,"sideResp":1,"stimulus":[],"xmouse":[794,794,794,794,794,794,794,794,794,794,794,794,794,794,794,794,794,794,794,794,794,794,794,794,794,794,794,794,794,794,794,794,794,794,794,794,794,794,794,794,794,794,794,794,794,794,794,794,794,794,794,794,794,794,794,794,794,794,794,794,794,794,794,794,794,792,791,762,736,695,651,611,554,535,528,526,526,526,526,526,526,526,526,526,526,521,515,481],"ymouse":[533,533,533,533,533,533,533,533,533,533,533,533,533,533,533,533,533,533,533,533,533,533,533,533,533,533,533,533,533,533,533,533,533,533,533,533,533,533,533,533,533,533,533,533,533,533,533,533,533,533,533,533,533,533,533,533,533,533,533,533,533,533,533,533,533,532,527,473,427,367,307,259,181,154,135,124,114,111,111,111,111,111,111,111,109,105,100,78],"timestamp_mouse":[9,30,49,69,90,110,130,149,169,190,209,231,251,269,289,309,330,351,369,390,409,430,449,469,491,509,529,551,569,589,611,629,650,671,690,709,729,751,770,789,810,830,849,869,891,910,930,950,969,989,1010,1029,1049,1071,1090,1109,1130,1150,1170,1190,1211,1229,1250,1270,1290,1310,1330,1349,1370,1389,1409,1429,1450,1469,1490,1509,1530,1550,1569,1589,1610,1630,1650,1671,1690,1710,1729,1750],"xSR":741.5,"ySR":469.95,"xT1":424.9,"yT1":0,"xT2":1058.1,"yT2":0,"toosoon":0,"cond_shown":"Congruent","ratio_trial":200,"L_num":9,"L_den":20,"R_num":4,"R_den":16,"correct_side":1,"subjID":"SaraElianaGuevaraFino20","gender":"1","school":"6","age":"11"},{"start_time":1551790015702,"click_time":1551790017386,"finger_time":1551790017046,"fix_duration":1476.0249081004145,"trial":17,"RT":1344,"MT":340,"sideResp":2,"stimulus":[],"xmouse":[800,800,800,800,800,800,801,801,801,802,802,802,802,802,802,802,802,802,802,802,802,802,802,802,802,802,802,802,802,802,802,802,802,802,802,802,802,802,802,802,802,802,802,802,802,802,802,802,802,802,802,802,802,802,802,802,804,804,806,806,807,807,807,807,809,818,830,845,862,887,935,980,1008,1029,1049,1074,1081,1085,1087,1089,1095,1096,1098,1099,1100],"ymouse":[516,516,516,516,516,516,516,516,516,515,515,515,515,515,515,515,515,515,515,515,515,515,515,515,515,515,515,515,515,515,515,515,515,515,515,515,515,515,515,515,515,515,515,515,515,515,515,515,515,515,515,515,515,515,515,515,514,513,513,513,513,513,513,513,509,501,488,468,444,413,344,285,248,218,192,162,153,147,145,143,131,124,115,108,96],"timestamp_mouse":[4,25,44,63,83,103,123,144,163,183,203,223,244,263,285,304,323,343,363,384,403,423,443,463,483,503,523,545,564,583,603,624,643,664,683,703,724,743,763,783,803,823,845,863,883,903,923,943,963,984,1004,1023,1043,1063,1083,1104,1123,1144,1164,1185,1205,1224,1244,1264,1284,1303,1324,1344,1364,1384,1404,1423,1443,1464,1483,1503,1523,1543,1563,1583,1603,1624,1643,1663,1684],"xSR":741.5,"ySR":469.95,"xT1":424.9,"yT1":0,"xT2":1058.1,"yT2":0,"toosoon":0,"cond_shown":"Incongruent","ratio_trial":200,"L_num":7,"L_den":10,"R_num":8,"R_den":16,"correct_side":1,"subjID":"SaraElianaGuevaraFino20","gender":"1","school":"6","age":"11"},{"start_time":1551790018937,"click_time":1551790020845,"finger_time":1551790020345,"fix_duration":410.49806938015644,"trial":18,"RT":1408,"MT":500,"sideResp":1,"stimulus":[],"xmouse":[817,817,817,817,817,817,817,817,817,817,817,817,817,816,815,815,815,815,815,815,815,815,815,815,815,815,815,815,815,815,815,815,815,815,815,815,815,815,815,815,815,815,815,815,815,815,815,815,815,815,815,815,815,815,815,815,815,815,815,815,815,815,815,815,815,815,815,815,813,804,790,767,728,635,594,560,545,542,553,575,582,582,582,573,565,562,560,559,550,543,539,534,532,529,526,523],"ymouse":[496,496,496,496,496,496,496,496,496,496,496,496,496,497,497,497,497,497,497,497,497,497,497,497,497,497,497,497,497,497,497,497,497,497,497,497,497,497,497,497,497,497,497,497,497,497,497,497,497,497,497,497,497,497,497,497,497,497,497,497,497,497,497,497,497,497,497,497,496,480,460,428,382,272,224,186,161,139,130,124,122,122,122,121,116,113,110,105,89,83,78,74,70,61,57,57],"timestamp_mouse":[9,28,50,68,88,108,128,148,169,189,208,228,248,269,288,309,328,349,370,388,408,428,448,469,488,508,529,548,569,588,608,628,649,668,689,708,728,748,768,788,808,828,848,869,890,908,928,949,968,990,1010,1028,1048,1069,1090,1109,1128,1150,1168,1189,1209,1230,1249,1268,1288,1309,1328,1349,1368,1389,1408,1429,1448,1468,1488,1509,1529,1550,1568,1588,1608,1628,1649,1669,1688,1708,1728,1748,1768,1789,1808,1829,1848,1868,1889,1908],"xSR":741.5,"ySR":469.95,"xT1":424.9,"yT1":0,"xT2":1058.1,"yT2":0,"toosoon":0,"cond_shown":"Congruent","ratio_trial":100,"L_num":11,"L_den":22,"R_num":6,"R_den":15,"correct_side":1,"subjID":"SaraElianaGuevaraFino20","gender":"1","school":"6","age":"11"},{"start_time":1551790022849,"click_time":1551790024125,"finger_time":1551790023586,"fix_duration":1144.496079568619,"trial":19,"RT":737,"MT":539,"sideResp":2,"stimulus":[],"xmouse":[793,793,793,793,793,793,793,793,793,793,793,793,793,793,793,793,793,793,793,793,793,793,793,793,793,793,793,793,793,793,793,793,793,795,807,823,842,888,912,935,963,999,1011,1016,1020,1025,1031,1035,1035,1035,1035,1032,1031,1031,1030,1029,1029,1029,1030,1035,1039,1044,1058,1064],"ymouse":[519,519,519,519,519,519,519,519,519,519,519,519,519,519,519,519,519,519,519,519,519,519,519,519,519,519,519,519,519,519,519,519,519,518,508,496,480,444,429,415,396,360,328,305,281,259,239,201,181,163,147,119,105,99,93,91,90,90,89,89,89,89,89,89],"timestamp_mouse":[16,36,57,77,97,117,136,157,177,196,216,237,256,276,296,317,337,356,376,397,417,436,457,478,496,516,537,557,576,597,616,637,657,677,696,717,737,756,777,796,816,837,856,876,896,916,936,957,976,996,1017,1037,1056,1077,1097,1116,1137,1157,1177,1196,1216,1237,1257,1276],"xSR":741.5,"ySR":469.95,"xT1":424.9,"yT1":0,"xT2":1058.1,"yT2":0,"toosoon":0,"cond_shown":"Incongruent","ratio_trial":200,"L_num":7,"L_den":10,"R_num":14,"R_den":28,"correct_side":1,"subjID":"SaraElianaGuevaraFino20","gender":"1","school":"6","age":"11"},{"start_time":1551790026589,"click_time":1551790028146,"finger_time":1551790027766,"fix_duration":1382.8526279157377,"trial":20,"RT":1177,"MT":380,"sideResp":1,"stimulus":[],"xmouse":[793,793,793,793,793,793,793,793,793,793,793,793,793,793,793,793,793,793,793,793,793,793,793,793,793,793,793,793,793,793,793,793,793,793,793,793,793,793,793,793,793,793,793,793,793,793,793,793,793,793,793,793,793,792,789,782,774,766,758,748,718,692,663,632,590,577,572,571,570,567,555,550,548,546,541,534,523,505],"ymouse":[524,523,522,522,522,521,521,521,521,521,521,521,521,521,521,521,521,521,521,521,521,521,521,521,521,521,521,521,521,521,521,521,521,521,521,521,521,521,521,521,521,521,521,521,521,521,521,521,521,521,521,521,521,517,512,503,492,480,466,450,410,383,359,336,301,282,272,262,254,246,222,210,200,188,155,126,107,85],"timestamp_mouse":[19,37,57,76,96,117,136,156,177,198,216,236,258,276,297,317,337,357,377,398,416,436,456,476,498,516,537,557,576,597,617,636,656,677,696,717,738,757,777,796,816,836,856,877,897,916,936,957,977,996,1017,1037,1057,1077,1097,1118,1136,1157,1177,1196,1217,1236,1256,1277,1298,1317,1336,1356,1376,1396,1417,1438,1456,1477,1497,1516,1537,1557],"xSR":741.5,"ySR":469.95,"xT1":424.9,"yT1":0,"xT2":1058.1,"yT2":0,"toosoon":0,"cond_shown":"Congruent","ratio_trial":200,"L_num":8,"L_den":15,"R_num":2,"R_den":6,"correct_side":1,"subjID":"SaraElianaGuevaraFino20","gender":"1","school":"6","age":"11"},{"start_time":1551790029507,"click_time":1551790031945,"finger_time":1551790031485,"fix_duration":341.77352466476583,"trial":21,"RT":1978,"MT":460,"sideResp":1,"stimulus":[],"xmouse":[801,801,801,801,801,801,801,801,801,801,801,801,801,801,801,801,801,801,801,801,801,801,801,801,801,801,802,802,802,802,802,802,802,802,802,802,802,802,802,802,802,802,802,802,802,802,802,802,802,802,802,802,802,802,802,802,802,802,802,802,802,802,802,802,802,802,802,802,802,802,802,802,802,802,802,802,802,802,799,787,785,785,785,785,784,784,783,782,782,781,781,781,781,781,779,773,764,748,725,637,557,504,455,426,407,404,403,403,403,406,411,420,430,438,446,448,448,450,452,457,459,460],"ymouse":[519,518,518,518,518,518,518,518,518,518,518,518,518,518,518,518,518,518,518,518,518,518,518,518,518,518,518,518,518,517,517,517,517,517,517,517,517,517,517,517,517,517,517,517,517,517,517,517,517,517,517,517,517,517,517,517,517,517,517,517,517,517,517,517,517,517,517,517,517,517,517,517,517,517,516,516,515,513,509,504,504,504,504,504,504,504,504,505,506,507,507,507,507,507,506,501,492,480,464,403,345,302,257,226,188,177,168,162,155,150,147,144,141,138,135,133,129,125,119,105,100,94],"timestamp_mouse":[19,40,58,79,99,118,139,159,179,199,219,238,258,278,298,318,340,358,379,400,418,438,459,479,499,519,539,560,579,599,618,639,658,678,699,719,738,759,778,799,818,838,858,878,899,920,938,958,978,999,1020,1038,1059,1079,1100,1118,1138,1158,1179,1198,1219,1239,1258,1279,1298,1318,1340,1358,1379,1399,1419,1439,1458,1479,1498,1519,1539,1558,1578,1598,1619,1640,1658,1678,1698,1719,1739,1758,1778,1800,1819,1838,1859,1880,1898,1918,1939,1958,1978,1998,2019,2038,2059,2078,2099,2119,2138,2158,2179,2199,2219,2239,2260,2278,2298,2319,2338,2359,2378,2398,2419,2438],"xSR":741.5,"ySR":469.95,"xT1":424.9,"yT1":0,"xT2":1058.1,"yT2":0,"toosoon":0,"cond_shown":"Congruent","ratio_trial":200,"L_num":16,"L_den":30,"R_num":9,"R_den":27,"correct_side":1,"subjID":"SaraElianaGuevaraFino20","gender":"1","school":"6","age":"11"},{"start_time":1551790033878,"click_time":1551790035645,"finger_time":1551790035287,"fix_duration":970.5373858776258,"trial":22,"RT":1409,"MT":358,"sideResp":1,"stimulus":[],"xmouse":[779,779,779,779,779,780,780,780,780,780,780,780,780,780,780,780,780,780,780,780,780,780,780,780,780,781,781,781,781,781,781,781,781,781,781,781,781,781,781,782,782,783,783,783,783,783,783,783,783,783,783,783,783,783,783,783,783,783,783,783,783,783,783,783,783,784,784,784,775,759,737,665,608,583,567,548,541,535,529,521,516,513,513,511,509,505,496,494,494],"ymouse":[519,519,519,519,519,519,518,518,518,518,518,518,518,518,518,518,518,518,518,518,518,518,518,518,518,518,518,518,518,517,517,517,517,517,517,517,517,517,517,516,516,516,516,516,516,516,516,516,515,515,514,514,514,514,514,514,514,514,514,514,514,514,514,514,514,512,509,502,488,472,450,390,336,305,278,242,229,219,211,204,198,191,181,171,158,143,113,103,97],"timestamp_mouse":[7,27,48,67,87,108,128,147,167,187,207,229,247,267,287,307,327,347,368,387,407,427,449,468,488,507,528,547,568,587,607,627,648,668,688,708,727,747,769,788,808,829,847,867,888,909,927,947,967,987,1009,1027,1048,1068,1088,1107,1128,1149,1167,1187,1208,1229,1248,1268,1289,1308,1327,1348,1367,1388,1409,1428,1448,1467,1488,1509,1527,1547,1567,1588,1607,1627,1648,1668,1688,1707,1728,1747,1767],"xSR":741.5,"ySR":469.95,"xT1":424.9,"yT1":0,"xT2":1058.1,"yT2":0,"toosoon":0,"cond_shown":"Congruent","ratio_trial":100,"L_num":9,"L_den":15,"R_num":8,"R_den":16,"correct_side":1,"subjID":"SaraElianaGuevaraFino20","gender":"1","school":"6","age":"11"},{"start_time":1551790039354,"click_time":1551790040885,"finger_time":1551790040706,"fix_duration":1348.2156985677761,"trial":23,"RT":1352,"MT":179,"sideResp":2,"stimulus":[],"xmouse":[795,795,795,795,795,795,795,795,795,795,795,795,795,795,795,795,795,795,795,795,795,795,795,795,795,795,795,795,795,795,795,795,795,795,795,795,795,795,795,795,795,795,795,795,795,795,795,795,795,795,795,795,795,795,795,795,795,795,795,795,795,795,795,795,795,795,798,820,830,850,874,904,972,1009,1040,1056,1062],"ymouse":[511,511,511,511,511,511,511,511,511,511,511,511,511,511,511,511,511,511,511,511,511,511,511,511,511,511,511,511,511,511,511,511,511,511,511,511,511,511,511,511,511,511,511,511,511,511,511,511,511,511,511,511,511,511,511,511,511,511,511,511,511,511,511,511,508,506,497,450,421,384,344,298,202,152,117,101,96],"timestamp_mouse":[12,32,52,72,91,112,132,151,172,192,211,231,251,271,291,313,332,352,373,392,411,431,452,472,492,512,532,551,571,591,612,631,652,672,692,711,732,751,771,791,812,831,852,873,891,912,933,951,971,992,1013,1031,1052,1072,1091,1112,1132,1153,1171,1191,1211,1231,1251,1272,1291,1311,1332,1352,1372,1391,1411,1431,1451,1471,1492,1512,1531],"xSR":741.5,"ySR":469.95,"xT1":424.9,"yT1":0,"xT2":1058.1,"yT2":0,"toosoon":0,"cond_shown":"Incongruent","ratio_trial":300,"L_num":1,"L_den":2,"R_num":2,"R_den":10,"correct_side":1,"subjID":"SaraElianaGuevaraFino20","gender":"1","school":"6","age":"11"},{"start_time":1551790043736,"click_time":1551790045526,"finger_time":1551790045106,"fix_duration":250,"trial":24,"RT":1370,"MT":420,"sideResp":2,"stimulus":[],"xmouse":[807,801,798,798,798,798,798,798,798,798,798,798,798,798,798,798,798,798,798,798,798,798,798,798,798,798,798,798,798,798,798,798,798,798,798,798,798,798,798,798,798,798,798,798,798,798,798,798,798,798,798,798,798,798,798,798,798,798,798,798,798,798,798,798,800,804,814,830,879,894,907,919,928,942,948,952,955,964,983,995,1011,1029,1055,1056,1056,1056,1056,1057,1062,1064],"ymouse":[523,522,522,522,522,522,522,522,522,522,522,522,522,522,522,522,522,522,522,522,522,522,522,522,522,522,522,522,522,522,522,522,522,522,522,522,522,522,522,522,522,522,522,522,522,522,522,522,522,522,522,522,522,522,522,522,522,522,522,522,522,522,522,522,520,516,504,484,420,394,372,351,335,315,307,303,298,289,265,256,243,230,202,185,170,155,142,131,102,90],"timestamp_mouse":[9,29,50,70,89,110,129,149,169,189,210,229,250,269,289,309,329,350,369,389,411,429,449,470,489,509,530,549,569,590,609,630,649,670,689,710,730,750,769,790,811,829,850,870,889,910,930,950,969,989,1009,1030,1050,1070,1089,1110,1129,1150,1169,1191,1209,1229,1250,1270,1290,1310,1329,1349,1370,1390,1409,1429,1449,1469,1490,1510,1530,1549,1570,1590,1609,1630,1651,1669,1689,1709,1729,1749,1770,1790],"xSR":741.5,"ySR":469.95,"xT1":424.9,"yT1":0,"xT2":1058.1,"yT2":0,"toosoon":0,"cond_shown":"Incongruent","ratio_trial":100,"L_num":3,"L_den":9,"R_num":7,"R_den":30,"correct_side":1,"subjID":"SaraElianaGuevaraFino20","gender":"1","school":"6","age":"11"},{"start_time":1551790047351,"click_time":1551790048726,"finger_time":1551790048226,"fix_duration":264.6734217135991,"trial":25,"RT":875,"MT":500,"sideResp":1,"stimulus":[],"xmouse":[776,776,776,776,776,776,776,776,776,776,776,776,776,776,776,776,776,777,777,777,777,777,777,777,777,777,777,777,777,777,777,777,777,777,777,777,777,777,777,777,777,770,753,733,712,695,674,659,649,636,621,602,578,577,577,577,577,576,573,569,563,556,535,529,525,524,521,517,516],"ymouse":[513,513,513,513,513,513,513,513,513,513,513,513,513,513,513,513,513,513,513,513,513,513,513,513,513,513,513,513,513,513,513,513,513,513,513,513,513,513,513,513,513,504,490,469,432,401,354,326,309,289,267,243,209,204,204,204,204,204,201,195,187,179,157,147,138,131,122,104,94],"timestamp_mouse":[15,34,55,74,94,114,135,155,174,194,214,234,256,274,295,315,334,354,374,395,415,435,455,475,495,515,535,555,574,595,616,634,654,674,696,716,735,755,774,794,814,834,855,875,895,914,935,954,974,994,1015,1034,1054,1075,1094,1115,1135,1155,1174,1194,1215,1234,1255,1274,1295,1315,1334,1354,1375],"xSR":741.5,"ySR":469.95,"xT1":424.9,"yT1":0,"xT2":1058.1,"yT2":0,"toosoon":0,"cond_shown":"Congruent","ratio_trial":200,"L_num":14,"L_den":28,"R_num":6,"R_den":20,"correct_side":1,"subjID":"SaraElianaGuevaraFino20","gender":"1","school":"6","age":"11"},{"start_time":1551790049956,"click_time":1551790052847,"finger_time":1551790052546,"fix_duration":250,"trial":26,"RT":2590,"MT":301,"sideResp":1,"stimulus":[],"xmouse":[790,790,790,791,791,791,791,791,791,791,791,791,791,791,791,791,791,791,791,791,791,791,791,791,791,791,791,791,791,791,791,791,791,791,791,791,791,791,791,791,791,791,791,791,791,791,791,791,791,791,791,791,791,791,791,791,791,791,791,791,791,791,791,791,791,791,791,791,791,791,791,791,791,791,791,791,791,791,791,791,791,791,791,791,791,791,791,791,791,791,791,791,791,791,791,791,791,791,791,791,791,791,791,791,791,791,791,791,789,782,780,780,780,780,780,780,780,780,780,780,780,780,780,780,775,775,775,776,777,777,777,762,750,727,694,650,610,578,574,572,570,552,535,525,518],"ymouse":[517,517,517,517,517,517,517,517,517,517,517,517,517,517,517,517,517,517,517,517,517,517,517,517,517,517,517,517,517,517,517,517,517,517,517,517,517,517,517,517,517,517,517,517,517,517,517,517,517,517,517,517,517,517,517,517,517,517,517,517,517,517,517,517,517,517,517,517,517,517,517,517,517,517,517,517,517,517,517,517,517,517,517,517,517,517,517,517,517,517,517,517,517,517,517,517,517,517,517,517,517,517,517,517,517,517,517,517,516,513,513,513,513,513,513,513,513,513,513,513,513,513,513,513,508,507,499,491,476,461,440,389,350,296,238,175,117,65,49,45,43,42,42,42,43],"timestamp_mouse":[10,30,50,69,89,110,129,149,170,189,210,229,250,269,290,310,330,349,369,390,410,429,450,469,491,509,529,550,570,590,610,630,649,669,689,710,731,749,769,791,810,830,849,869,890,909,929,951,970,990,1009,1030,1050,1070,1089,1110,1129,1151,1169,1190,1209,1230,1251,1269,1289,1309,1329,1350,1369,1390,1409,1429,1449,1469,1490,1511,1529,1550,1570,1589,1610,1631,1649,1670,1689,1709,1730,1750,1770,1789,1809,1831,1849,1869,1890,1909,1930,1949,1970,1989,2010,2029,2050,2070,2091,2110,2130,2150,2169,2190,2210,2231,2250,2269,2290,2309,2330,2349,2370,2389,2409,2429,2450,2469,2490,2509,2530,2551,2569,2590,2609,2630,2649,2669,2690,2709,2729,2749,2770,2789,2809,2829,2849,2869,2890],"xSR":741.5,"ySR":469.95,"xT1":424.9,"yT1":0,"xT2":1058.1,"yT2":0,"toosoon":0,"cond_shown":"Incongruent","ratio_trial":100,"L_num":8,"L_den":16,"R_num":6,"R_den":10,"correct_side":2,"subjID":"SaraElianaGuevaraFino20","gender":"1","school":"6","age":"11"},{"start_time":1551790055230,"click_time":1551790057165,"finger_time":1551790056845,"fix_duration":1324.1479024700068,"trial":27,"RT":1615,"MT":320,"sideResp":1,"stimulus":[],"xmouse":[794,794,794,794,794,794,795,795,795,796,796,796,796,796,796,796,796,796,796,796,796,796,796,796,796,796,796,796,796,796,796,796,796,796,796,796,796,796,796,796,796,796,796,796,796,796,796,796,796,796,796,796,796,796,796,796,796,796,796,796,796,796,796,796,796,796,796,796,796,796,796,796,796,794,786,779,774,771,766,759,742,708,580,510,491,482,474,465,432,410,394,392,392,399,411,422,431],"ymouse":[514,514,514,514,514,514,513,513,513,512,512,512,512,512,512,512,512,512,512,512,512,512,512,512,512,512,512,512,512,512,512,512,512,512,512,512,512,512,512,512,512,512,512,512,512,512,512,512,512,512,512,512,512,512,512,512,512,512,512,512,512,512,512,512,512,512,512,512,512,512,512,512,508,502,489,482,478,478,477,475,466,443,343,270,231,196,170,145,106,91,83,81,77,67,61,57,54],"timestamp_mouse":[16,35,55,75,95,116,135,157,176,195,216,235,255,275,295,315,335,355,375,395,416,435,457,475,495,517,535,555,576,596,617,637,655,675,696,716,735,755,775,796,816,836,856,875,895,915,936,957,975,995,1015,1035,1055,1075,1096,1115,1136,1155,1175,1195,1216,1237,1255,1275,1295,1315,1336,1356,1375,1397,1416,1436,1455,1475,1495,1516,1535,1556,1576,1595,1615,1635,1656,1675,1696,1715,1735,1755,1775,1795,1816,1835,1856,1876,1896,1916,1935],"xSR":741.5,"ySR":469.95,"xT1":424.9,"yT1":0,"xT2":1058.1,"yT2":0,"toosoon":0,"cond_shown":"Incongruent","ratio_trial":100,"L_num":11,"L_den":22,"R_num":9,"R_den":15,"correct_side":2,"subjID":"SaraElianaGuevaraFino20","gender":"1","school":"6","age":"11"},{"start_time":1551790061703,"click_time":1551790104066,"finger_time":1551790063326,"fix_duration":436.66660954196004,"trial":28,"RT":1623,"MT":40740,"sideResp":1,"stimulus":[],"xmouse":[748,748,748,748,748,748,748,748,748,748,748,748,748,748,748,748,748,748,748,748,748,748,748,748,748,748,748,748,748,748,748,748,748,748,748,748,748,748,748,748,748,748,748,748,748,748,748,748,748,748,748,748,748,748,748,748,748,748,748,748,748,748,748,748,748,748,748,748,748,748,748,748,748,748,748,748,748,748,748,748,747,741,724,707,699,678,656,637,619,607,598,598,598,598,596,588,582,573,561,549,535,533,533,534,534,535,535,535,534,529,528,527,527,527,527,527,527,527,527,527,526,524,524,524,524,509,494,478,461,442,438,438,438,438,436,436,435,435,435,435,435,435,435,435,435,435,435,435,435,435,435,435,435,435,435,435,435,435,435,435,435,435,435,435,435,435,435,435,435,435,435,435,435,435,435,435,435,435,435,435,435,435,435,435,435,435,435,435,435,435,435,435,435,435,435,435,435,435,435,435,435,435,435,435,435,435,435,435,435,435,435,435,435,435,435,435,435,435,435,435,435,435,435,435,435,435,435,435,435,435,435,435,435,435,435,435,435,435,435,435,435,435,435,435,435,435,435,435,435,435,435,435,435,435,435,435,435,435,435,435,435,435,435,435,435,435,435,435,435,435,435,435,435,435,435,435,435,435,435,435,435,435,435,435,435,435,435,435,435,435,435,435,435,435,435,435,435,435,435,435,435,435,435,435,435,435,435,435,435,435,435,435,435,435,435,435,435,435,435,435,435,435,435,435,435,435,435,435,435,435,435,435,435,435,435,435,435,435,435,435,435,435,435,435,435,435,435,435,435,435,435,435,435,435,435,435,435,435,435,435,435,435,435,435,435,435,435,435,435,435,435,435,435,435,435,435,435,435,435,435,435,435,435,435,435,435,435,435,435,435,435,435,435,435,435,435,435,435,435,435,435,435,435,435,435,435,435,435,435,435,435,435,435,435,435,435,435,435,435,435,435,435,435,435,435,435,435,435,435,435,435,435,435,435,435,435,435,435,435,435,435,435,435,435,435,435,435,435,435,435,435,435,435,435,435,435,435,435,435,435,435,435,435,435,435,435,435,435,435,435,435,435,435,435,435,435,435,435,435,435,435,435,435,435,435,435,435,435,435,435,435,435,435,435,435,435,435,435,435,435,435,435,435,435,435,435,435,435,435,435,435,435,435,435,435,435,435,435,435,435,435,435,435,435,435,435,435,435,435,435,435,435,435,435,435,435,435,435,435,435,435,435,435,435,435,435,435,435,435,435,435,435,435,435,435,435,435,435,435,435,435,435,435,435,435,435,435,435,435,435,435,435,435,435,435,435,435,435,435,435,435,435,435,435,435,435,435,435,435,435,435,435,435,435,435,435,435,435,435,435,435,435,435,435,435,435,435,435,435,435,435,435,435,435,435,435,435,435,435,435,435,435,435,435,435,435,435,435,435,435,435,435,435,435,435,435,435,435,435,435,435,435,435,435,435,435,435,435,435,435,435,435,435,435,435,435,435,435,435,435,435,435,435,435,435,435,435,435,435,435,435,435,435,435,435,435,435,435,435,435,435,435,435,435,435,435,435,435,435,435,435,435,435,435,435,435,435,435,435,435,435,435,435,435,435,435,435,435,435,435,435,435,435,435,435,435,435,435,435,435,435,435,435,435,435,435,435,435,435,435,435,435,435,435,435,435,435,435,435,435,435,435,435,435,435,435,435,435,435,435,435,435,435,435,435,435,435,435,435,435,435,435,435,435,435,435,435,435,435,435,435,435,435,435,435,435,435,435,435,435,435,435,435,435,435,435,435,435,435,435,435,435,435,435,435,435,435,435,435,435,435,435,435,435,435,435,435,435,435,435,435,435,435,435,435,435,435,435,435,435,435,435,435,435,435,435,435,435,435,435,435,435,435,435,435,435,435,435,435,435,435,435,435,435,435,435,435,435,435,435,435,435,435,435,435,435,435,435,435,435,435,435,435,435,435,435,435,435,435,435,435,435,435,435,435,435,435,435,435,435,435,435,435,435,435,435,435,435,435,435,435,435,435,435,435,435,435,435,435,435,435,435,435,435,435,435,435,435,435,435,435,435,435,435,435,435,435,435,435,435,435,435,435,435,435,435,435,435,435,435,435,435,435,435,435,435,435,435,435,435,435,435,435,435,435,435,435,435,435,435,435,435,435,435,435,435,435,435,435,435,435,435,435,435,435,435,435,435,435,435,435,435,435,435,435,435,435,435,435,435,435,435,435,435,435,435,439,445,448,452,453,453,453,452,448,444,443,439,437,433,432,431,431,431,429,429,429,429,429,429,429,429,429,429,429,429,429,429,429,429,429,429,429,429,429,429,429,429,429,429,429,429,429,429,429,429,429,429,429,429,429,429,429,429,429,429,429,429,429,429,429,429,429,429,429,429,429,429,429,429,429,429,429,429,429,429,429,429,429,429,429,429,429,429,429,429,429,429,429,429,429,429,429,429,429,429,429,429,429,429,429,429,429,429,429,429,429,429,429,429,429,429,429,429,429,429,429,429,429,429,429,429,429,429,429,429,429,429,429,429,429,429,429,429,429,429,429,429,429,429,429,429,429,429,429,429,429,429,429,429,429,429,429,429,429,429,429,429,429,429,429,429,429,429,429,429,429,429,429,429,429,429,429,429,429,429,429,429,429,429,429,429,429,429,429,429,429,429,429,429,429,429,429,429,429,429,429,429,429,429,429,429,429,429,429,429,429,429,429,429,429,429,429,429,429,429,429,429,429,429,429,429,429,429,429,429,429,429,429,429,429,429,429,429,429,429,429,429,429,429,429,429,429,429,429,429,429,429,429,429,429,429,429,429,429,429,429,429,429,429,429,429,429,429,429,429,429,429,429,429,429,429,429,429,429,429,429,429,429,429,429,429,429,429,429,429,429,429,429,429,429,429,429,429,429,429,429,429,429,429,429,429,429,429,429,429,429,429,429,429,429,429,429,429,429,429,429,429,429,429,429,429,429,429,429,429,429,429,429,429,429,429,429,429,429,429,429,429,429,429,429,429,429,429,429,429,429,429,429,429,429,429,429,429,429,429,429,429,429,429,429,429,429,429,429,429,429,429,429,429,429,429,429,429,429,429,429,429,429,429,429,429,429,429,429,429,429,429,429,429,429,429,429,429,429,429,429,429,429,429,429,429,429,429,429,429,429,429,429,429,429,429,429,429,429,429,429,429,429,429,429,429,429,429,429,429,429,429,429,429,429,429,429,429,429,429,429,429,429,429,429,429,429,429,429,429,429,429,429,429,429,429,429,429,429,429,429,429,429,429,429,429,429,429,429,429,429,429,429,429,429,429,429,429,429,429,429,429,429,429,429,429,429,429,429,429,429,429,429,429,429,429,429,429,429,429,429,429,429,429,429,429,429,429,429,429,429,429,429,429,429,429,429,429,429,429,429,429,429,429,429,429,429,429,429,429,429,429,429,429,429,429,429,429,429,429,429,429,429,429,429,429,429,429,429,429,429,429,429,429,429,429,429,429,429,429,429,429,429,429,430,444,460,478,527,547,566,578,588,597,597,597,597,597,597,597,597,597,597,597,597,597,597,597,597,597,598,599,599,599,599,600,600,600,600,600,600,600,600,600,600,600,599,598,598,596,596,595,595,595,595,595,595,595,595,595,595,595,595,598,599,599,599,599,599,599,599,599,599,599,599,599,599,599,599,599,599,599,599,599,599,599,599,599,599,599,599,599,599,599,599,599,599,599,599,599,599,599,599,599,599,599,599,599,600,600,600,600,600,600,600,600,600,600,600,600,600,600,600,600,600,600,600,600,600,600,600,600,600,604,605,607,607,607,607,607,607,607,607,607,607,607,607,607,607,607,607,607,607,607,607,607,607,607,607,607,607,607,607,607,607,607,607,607,607,607,607,607,607,607,607,607,607,607,608,609,610,611,612,613,615,615,615,615,615,615,615,615,615,615,615,615,615,615,615,615,615,615,615,616,616,617,617,616,613,612,611,608,608,608,608,608,607,607,607,607,607,607,607,607,607,607,607,607,607,607,607,607,607,607,607,607,607,607,607,607,607,607,607,607,607,607,607,607,607,607,607,607,607,607,607,607,607,607,607,607,607,607,607,607,607,607,607,607,607,607,607,607,607,607,607,607,607,607,607,607,607,607,607,607,607,607,607,607,607,607,607,607,603,603,595,608,624,633,634,637,640,644,648,652,655,656,658,660,667,670,673,677,680,685,689,694,696,698,698,698,698,698,698,698,698,698,698,698,698,698,698,697,697,697,702,707,711,714,716,716,716,716,716,717,719,721,725,728,736,739,743,748,754,762,771,774,776,777,779,779,779,781,783,787,787,788,788,788,788,788,789,789,789,789,789,789,789,789,789,789,789,789,789,789,789,789,789,789,789,789,789,789,789,789,789,789,789,789,789,789,789,789,789,789,789,789,789,790,790,790,789,787,784,782,781,781,782,782,784,784,785,786,786,786,786,786,786,786,786,786,786,786,786,786,786,786,786,786,786,786,789,790,793,798,800,803,804,804,804,804,804,804,804,804,804,804,804,804,803,801,799,797,796,796,794,793,792,790,790,790,790,790,790,790,790,790,790,790,790,790,790,790,790,790,790,790,790,790,790,790,790,790,790,790,790,790,790,790,790,790,790,790,790,790,790,790,790,790,790,790,790,790,790,790,790,790,790,790,790,790,790,790,790,790,790,789,789,789,788,788,788,787,787,787,787,787,787,787,787,787,787,787,787,787,787,787,785,780,765,689,621,558,504,462,417,411,410,410,410,407,406,406,408,429,439,443,448,453,463,468,471,474,474],"ymouse":[497,497,497,497,497,497,497,497,497,497,497,497,497,497,497,497,497,497,497,497,497,497,497,497,497,497,497,497,497,497,497,497,497,497,497,497,497,497,497,497,497,497,497,497,497,497,497,497,497,497,497,497,497,497,497,497,497,497,497,497,497,497,497,497,497,497,497,497,497,497,497,497,497,497,497,497,497,497,497,497,498,498,498,490,473,415,376,346,326,319,315,315,315,315,314,306,294,281,267,255,240,237,236,235,231,228,226,223,218,210,208,207,206,206,206,206,206,206,206,206,206,206,206,206,206,206,206,206,206,206,206,206,206,206,206,206,206,206,206,206,206,206,206,206,206,206,206,206,206,206,206,206,206,206,206,206,206,206,206,206,206,206,206,206,206,206,206,206,206,206,206,206,206,206,206,206,206,206,206,206,206,206,206,206,206,206,206,206,206,206,206,206,206,206,206,206,206,206,206,206,206,206,206,206,206,206,206,206,206,206,206,206,206,206,206,206,206,206,206,206,206,206,206,206,206,206,206,206,206,206,206,206,206,206,206,206,206,206,206,206,206,206,206,206,206,206,206,206,206,206,206,206,206,206,206,206,206,206,206,206,206,206,206,206,206,206,206,206,206,206,206,206,206,206,206,206,206,206,206,206,206,206,206,206,206,206,206,206,206,206,206,206,206,206,206,206,206,206,206,206,206,206,206,206,206,206,206,206,206,206,206,206,206,206,206,206,206,206,206,206,206,206,206,206,206,206,206,206,206,206,206,206,206,206,206,206,206,206,206,206,206,206,206,206,206,206,206,206,206,206,206,206,206,206,206,206,206,206,206,206,206,206,206,206,206,206,206,206,206,206,206,206,206,206,206,206,206,206,206,206,206,206,206,206,206,206,206,206,206,206,206,206,206,206,206,206,206,206,206,206,206,206,206,206,206,206,206,206,206,206,206,206,206,206,206,206,206,206,206,206,206,206,206,206,206,206,206,206,206,206,206,206,206,206,206,206,206,206,206,206,206,206,206,206,206,206,206,206,206,206,206,206,206,206,206,206,206,206,206,206,206,206,206,206,206,206,206,206,206,206,206,206,206,206,206,206,206,206,206,206,206,206,206,206,206,206,206,206,206,206,206,206,206,206,206,206,206,206,206,206,206,206,206,206,206,206,206,206,206,206,206,206,206,206,206,206,206,206,206,206,206,206,206,206,206,206,206,206,206,206,206,206,206,206,206,206,206,206,206,206,206,206,206,206,206,206,206,206,206,206,206,206,206,206,206,206,206,206,206,206,206,206,206,206,206,206,206,206,206,206,206,206,206,206,206,206,206,206,206,206,206,206,206,206,206,206,206,206,206,206,206,206,206,206,206,206,206,206,206,206,206,206,206,206,206,206,206,206,206,206,206,206,206,206,206,206,206,206,206,206,206,206,206,206,206,206,206,206,206,206,206,206,206,206,206,206,206,206,206,206,206,206,206,206,206,206,206,206,206,206,206,206,206,206,206,206,206,206,206,206,206,206,206,206,206,206,206,206,206,206,206,206,206,206,206,206,206,206,206,206,206,206,206,206,206,206,206,206,206,206,206,206,206,206,206,206,206,206,206,206,206,206,206,206,206,206,206,206,206,206,206,206,206,206,206,206,206,206,206,206,206,206,206,206,206,206,206,206,206,206,206,206,206,206,206,206,206,206,206,206,206,206,206,206,206,206,206,206,206,206,206,206,206,206,206,206,206,206,206,206,206,206,206,206,206,206,206,206,206,206,206,206,206,206,206,206,206,206,206,206,206,206,206,206,206,206,206,206,206,206,206,206,206,206,206,206,206,206,206,206,206,206,206,206,206,206,206,206,206,206,206,206,206,206,206,206,206,206,206,206,206,206,206,206,206,206,206,206,206,206,206,206,206,206,206,206,206,206,206,206,206,206,206,206,206,206,206,206,206,206,206,206,206,206,206,206,206,206,206,206,206,206,206,206,206,206,206,206,206,206,206,206,206,206,206,206,206,206,206,206,206,206,206,206,206,206,206,206,206,206,206,206,206,206,206,206,206,206,206,206,206,206,206,206,206,206,206,206,206,206,206,206,206,206,206,206,206,206,206,206,206,206,206,206,206,206,206,206,206,206,206,206,206,206,206,206,206,206,206,206,206,206,206,206,206,206,206,206,206,206,206,206,206,206,206,206,206,206,206,206,206,206,206,206,206,206,206,206,206,206,206,206,206,206,206,206,206,206,206,206,206,206,206,206,206,208,214,220,224,229,232,236,239,244,259,268,277,286,293,306,313,314,316,318,319,320,320,320,320,320,320,320,320,320,320,320,320,320,320,320,320,320,320,320,320,320,320,320,320,320,320,320,320,320,320,320,320,320,320,320,320,320,320,320,320,320,320,320,320,320,320,320,320,320,320,320,320,320,320,320,320,320,320,320,320,320,320,320,320,320,320,320,320,320,320,320,320,320,320,320,320,320,320,320,320,320,320,320,320,320,320,320,320,320,320,320,320,320,320,320,320,320,320,320,320,320,320,320,320,320,320,320,320,320,320,320,320,320,320,320,320,320,320,320,320,320,320,320,320,320,320,320,320,320,320,320,320,320,320,320,320,320,320,320,320,320,320,320,320,320,320,320,320,320,320,320,320,320,320,320,320,320,320,320,320,320,320,320,320,320,320,320,320,320,320,320,320,320,320,320,320,320,320,320,320,320,320,320,320,320,320,320,320,320,320,320,320,320,320,320,320,320,320,320,320,320,320,320,320,320,320,320,320,320,320,320,320,320,320,320,320,320,320,320,320,320,320,320,320,320,320,320,320,320,320,320,320,320,320,320,320,320,320,320,320,320,320,320,320,320,320,320,320,320,320,320,320,320,320,320,320,320,320,320,320,320,320,320,320,320,320,320,320,320,320,320,320,320,320,320,320,320,320,320,320,320,320,320,320,320,320,320,320,320,320,320,320,320,320,320,320,320,320,320,320,320,320,320,320,320,320,320,320,320,320,320,320,320,320,320,320,320,320,320,320,320,320,320,320,320,320,320,320,320,320,320,320,320,320,320,320,320,320,320,320,320,320,320,320,320,320,320,320,320,320,320,320,320,320,320,320,320,320,320,320,320,320,320,320,320,320,320,320,320,320,320,320,320,320,320,320,320,320,320,320,320,320,320,320,320,320,320,320,320,320,320,320,320,320,320,320,320,320,320,320,320,320,320,320,320,320,320,320,320,320,320,320,320,320,320,320,320,320,320,320,320,320,320,320,320,320,320,320,320,320,320,320,320,320,320,320,320,320,320,320,320,320,320,320,320,320,320,320,320,320,320,320,320,320,320,320,320,320,320,320,320,320,320,320,320,320,320,320,320,320,320,320,320,320,320,320,320,320,320,320,320,320,320,320,320,320,320,320,320,320,320,320,320,320,320,320,320,320,320,320,320,320,320,320,320,320,320,320,320,320,320,320,320,320,320,320,320,320,320,320,320,320,320,320,320,320,320,320,320,320,320,320,320,320,320,320,320,320,320,320,320,320,320,320,320,325,336,348,362,391,403,414,421,427,431,431,431,431,431,431,431,431,431,431,431,431,431,431,431,431,431,431,432,435,437,444,447,448,448,448,448,448,448,448,449,450,453,456,457,459,460,461,463,465,465,465,465,465,465,465,465,465,465,465,464,464,464,464,464,464,464,464,464,464,464,464,464,464,464,464,464,464,464,464,464,464,464,464,464,464,464,464,464,464,464,464,464,464,464,464,464,464,464,464,464,464,464,464,464,464,464,464,464,464,464,464,464,464,464,464,464,464,464,464,464,464,464,464,464,464,464,464,464,463,462,461,460,460,460,460,460,460,460,460,460,460,460,460,460,460,460,460,460,460,460,460,460,460,460,460,460,460,460,460,460,460,460,460,460,460,460,460,460,460,460,460,460,460,460,460,460,460,459,459,458,458,458,458,458,458,458,458,458,458,458,458,458,458,458,458,458,458,458,458,458,458,458,458,460,464,466,467,469,469,469,469,469,469,469,469,469,469,469,469,469,469,469,469,469,469,469,469,469,469,469,469,469,469,469,469,469,469,469,469,469,469,469,469,469,469,469,469,469,469,469,469,469,469,469,469,469,469,469,469,469,469,469,469,469,469,469,469,469,469,469,469,469,469,469,469,469,469,469,469,469,469,469,469,469,469,469,469,469,472,472,481,481,481,482,483,486,491,498,502,503,503,503,501,500,496,495,495,493,493,491,491,490,489,488,488,488,488,488,488,488,488,488,488,488,488,488,489,492,496,500,507,512,517,524,533,534,534,534,534,534,534,534,534,534,535,535,535,537,537,537,538,538,538,538,538,538,538,538,538,538,538,538,538,538,537,534,532,530,528,526,522,522,521,521,521,521,519,519,519,519,519,519,518,516,515,511,510,509,508,507,507,507,507,507,507,507,507,507,507,507,507,507,507,505,505,505,505,505,506,507,512,513,516,519,520,521,523,524,524,524,524,524,524,524,524,524,524,524,524,524,524,524,524,524,524,524,523,522,520,517,515,512,511,511,511,511,511,511,511,511,511,511,511,511,511,511,511,511,511,511,511,511,511,511,513,514,514,515,515,515,515,515,515,515,515,515,515,515,515,515,515,515,515,515,515,515,515,515,515,515,515,515,515,515,515,515,515,515,515,515,515,515,515,515,515,515,515,515,515,515,515,515,516,516,516,516,516,516,517,517,518,518,519,521,522,525,526,526,526,526,526,526,526,526,526,526,526,526,526,526,526,526,523,517,501,433,383,336,293,257,217,210,207,202,195,180,175,169,165,158,155,152,149,144,132,119,106,103,98],"timestamp_mouse":[3,23,42,62,82,102,123,142,162,184,202,223,243,262,283,303,324,344,362,382,403,424,442,463,483,503,523,542,563,584,603,623,643,664,682,702,722,744,763,783,802,822,842,864,882,903,923,942,964,982,1004,1023,1043,1063,1084,1103,1122,1142,1164,1183,1204,1223,1242,1263,1283,1303,1322,1342,1362,1382,1403,1423,1442,1464,1482,1504,1523,1543,1563,1582,1603,1623,1643,1662,1682,1704,1722,1742,1763,1783,1804,1823,1842,1862,1882,1904,1924,1942,1962,1982,2002,2023,2043,2063,2084,2103,2123,2142,2163,2184,2202,2224,2243,2263,2282,2303,2324,2343,2363,2383,2403,2423,2443,2463,2483,2503,2523,2542,2562,2583,2603,2624,2642,2662,2683,2703,2723,2742,2762,2782,2802,2823,2843,2864,2884,2903,2923,2943,2962,2984,3004,3023,3042,3064,3083,3103,3124,3142,3162,3183,3203,3223,3243,3264,3284,3303,3323,3344,3363,3383,3403,3423,3443,3464,3483,3503,3524,3542,3562,3582,3604,3623,3642,3662,3682,3702,3723,3743,3763,3784,3804,3822,3844,3863,3884,3902,3923,3943,3962,3982,4004,4023,4043,4063,4083,4104,4124,4143,4162,4182,4203,4223,4243,4263,4282,4302,4324,4343,4362,4384,4403,4424,4443,4464,4483,4502,4524,4543,4563,4582,4604,4623,4643,4664,4683,4704,4723,4744,4763,4784,4803,4822,4843,4863,4884,4903,4924,4944,4963,4982,5004,5023,5042,5062,5084,5103,5123,5142,5162,5182,5202,5223,5243,5263,5282,5304,5322,5342,5363,5382,5403,5423,5443,5463,5483,5503,5522,5544,5564,5584,5604,5623,5644,5662,5682,5702,5723,5743,5763,5782,5803,5824,5844,5863,5884,5903,5922,5943,5963,5983,6003,6022,6042,6063,6084,6102,6123,6143,6164,6184,6204,6222,6243,6263,6282,6303,6324,6343,6363,6382,6402,6423,6443,6462,6482,6502,6522,6542,6563,6584,6604,6624,6642,6662,6684,6703,6723,6743,6762,6782,6804,6822,6842,6863,6882,6904,6923,6943,6964,6983,7004,7024,7042,7062,7082,7103,7124,7144,7163,7184,7204,7222,7243,7263,7284,7303,7323,7343,7363,7384,7403,7423,7443,7462,7482,7504,7522,7543,7563,7583,7603,7623,7644,7663,7684,7704,7723,7743,7763,7782,7804,7823,7843,7864,7882,7902,7923,7943,7962,7982,8003,8023,8043,8064,8082,8102,8124,8142,8162,8184,8203,8222,8243,8264,8284,8303,8322,8343,8363,8382,8402,8422,8443,8463,8484,8502,8523,8544,8564,8582,8602,8622,8642,8662,8683,8702,8723,8743,8764,8782,8803,8823,8844,8862,8882,8904,8922,8944,8963,8983,9003,9024,9043,9063,9082,9102,9122,9143,9163,9184,9202,9223,9243,9264,9284,9302,9324,9344,9363,9384,9404,9423,9444,9463,9482,9504,9523,9543,9563,9583,9603,9623,9644,9662,9682,9703,9723,9743,9763,9782,9803,9823,9842,9862,9882,9902,9923,9943,9963,9984,10002,10023,10043,10062,10082,10102,10123,10143,10163,10184,10204,10224,10243,10262,10282,10302,10323,10344,10363,10384,10404,10423,10442,10463,10482,10503,10522,10542,10562,10584,10604,10624,10643,10663,10684,10702,10723,10743,10763,10784,10802,10822,10843,10864,10883,10903,10923,10943,10964,10984,11002,11023,11044,11062,11084,11103,11122,11144,11163,11183,11204,11223,11243,11262,11283,11302,11323,11344,11362,11383,11403,11424,11443,11463,11482,11503,11523,11543,11564,11583,11603,11623,11642,11663,11684,11704,11723,11743,11763,11784,11804,11823,11843,11862,11884,11903,11923,11943,11963,11982,12002,12022,12044,12063,12084,12103,12123,12144,12162,12183,12203,12223,12243,12262,12283,12302,12322,12342,12363,12383,12403,12424,12442,12464,12483,12503,12522,12543,12564,12584,12602,12623,12643,12663,12682,12703,12722,12743,12763,12784,12804,12823,12842,12863,12884,12903,12923,12943,12963,12982,13002,13022,13042,13063,13082,13102,13123,13143,13164,13184,13203,13224,13242,13262,13283,13303,13323,13344,13363,13384,13404,13422,13442,13463,13484,13504,13522,13543,13563,13583,13603,13623,13643,13663,13684,13703,13724,13743,13763,13784,13803,13822,13842,13862,13882,13902,13923,13944,13963,13983,14004,14023,14043,14062,14082,14103,14123,14143,14164,14183,14203,14223,14243,14264,14283,14303,14323,14344,14363,14383,14403,14422,14443,14463,14483,14503,14524,14543,14563,14582,14603,14622,14642,14662,14684,14703,14724,14743,14763,14782,14803,14822,14842,14862,14882,14902,14923,14942,14962,14982,15004,15023,15043,15063,15082,15103,15123,15142,15163,15184,15203,15223,15243,15262,15283,15304,15322,15343,15362,15382,15404,15424,15442,15462,15482,15504,15522,15543,15563,15583,15604,15623,15642,15663,15683,15703,15723,15743,15764,15783,15802,15822,15842,15863,15884,15903,15923,15944,15963,15983,16003,16023,16044,16063,16082,16103,16124,16143,16162,16184,16203,16224,16243,16263,16284,16304,16324,16342,16364,16384,16403,16423,16442,16463,16482,16503,16524,16544,16564,16584,16604,16624,16643,16664,16684,16703,16723,16743,16762,16782,16803,16823,16843,16863,16883,16902,16923,16944,16963,16984,17003,17022,17043,17064,17083,17103,17123,17142,17162,17183,17204,17223,17244,17262,17284,17303,17322,17342,17363,17384,17403,17422,17443,17463,17483,17502,17523,17543,17563,17584,17602,17622,17643,17663,17684,17703,17722,17742,17763,17783,17802,17823,17843,17863,17882,17903,17922,17942,17963,17984,18003,18024,18042,18063,18083,18102,18123,18143,18164,18184,18203,18223,18243,18264,18282,18304,18323,18343,18363,18384,18402,18422,18444,18463,18484,18503,18522,18542,18563,18584,18603,18623,18642,18664,18683,18703,18723,18742,18763,18784,18804,18822,18842,18862,18882,18903,18923,18942,18962,18984,19003,19023,19043,19063,19084,19102,19122,19144,19162,19184,19203,19224,19243,19262,19282,19303,19323,19343,19363,19383,19404,19423,19443,19463,19484,19503,19523,19542,19563,19582,19603,19623,19643,19663,19684,19702,19722,19743,19763,19783,19803,19823,19842,19863,19884,19902,19922,19942,19963,19984,20003,20022,20043,20063,20083,20104,20122,20142,20163,20184,20202,20222,20243,20264,20282,20302,20324,20343,20364,20383,20403,20424,20442,20462,20483,20502,20524,20543,20563,20584,20603,20622,20644,20662,20683,20702,20722,20742,20762,20782,20803,20823,20842,20862,20884,20903,20923,20942,20963,20984,21002,21022,21043,21062,21084,21102,21122,21144,21163,21184,21203,21224,21242,21263,21284,21303,21324,21343,21362,21384,21404,21423,21443,21462,21482,21504,21523,21542,21563,21583,21604,21623,21643,21664,21682,21702,21723,21743,21763,21783,21803,21822,21844,21863,21883,21902,21923,21943,21962,21982,22003,22024,22042,22064,22084,22103,22124,22144,22164,22184,22203,22222,22244,22263,22284,22303,22323,22342,22362,22382,22404,22423,22442,22464,22482,22502,22524,22542,22562,22584,22603,22623,22642,22663,22683,22703,22723,22743,22763,22783,22803,22823,22843,22862,22882,22902,22923,22943,22963,22982,23002,23023,23044,23063,23083,23103,23123,23143,23162,23182,23203,23224,23244,23263,23284,23304,23322,23344,23364,23384,23404,23424,23442,23462,23484,23503,23523,23544,23562,23583,23603,23624,23644,23663,23684,23704,23722,23743,23763,23784,23803,23824,23843,23862,23882,23902,23922,23943,23963,23984,24002,24022,24043,24064,24084,24103,24123,24142,24163,24184,24204,24223,24243,24262,24282,24303,24324,24342,24363,24383,24404,24423,24442,24462,24483,24504,24524,24542,24563,24582,24604,24623,24643,24663,24684,24704,24724,24744,24763,24782,24802,24823,24843,24864,24883,24903,24924,24943,24963,24984,25003,25022,25042,25064,25084,25104,25123,25143,25163,25184,25202,25223,25243,25264,25284,25303,25322,25343,25363,25384,25403,25423,25443,25464,25483,25502,25523,25543,25562,25582,25603,25623,25643,25663,25683,25703,25723,25742,25764,25783,25802,25822,25842,25863,25884,25903,25924,25943,25963,25983,26003,26023,26042,26063,26082,26103,26123,26142,26162,26184,26203,26222,26243,26263,26284,26303,26323,26343,26362,26384,26404,26423,26442,26463,26482,26503,26523,26543,26562,26582,26603,26624,26644,26663,26683,26703,26724,26742,26763,26783,26803,26823,26843,26864,26883,26904,26923,26943,26963,26982,27004,27023,27043,27064,27082,27103,27124,27144,27163,27184,27203,27224,27242,27263,27284,27303,27323,27342,27362,27384,27403,27424,27443,27462,27482,27502,27522,27543,27564,27582,27603,27624,27642,27662,27684,27704,27722,27742,27763,27782,27802,27823,27843,27863,27884,27903,27924,27943,27962,27984,28004,28023,28042,28063,28084,28103,28124,28143,28163,28184,28204,28223,28242,28262,28282,28303,28323,28344,28362,28382,28403,28423,28443,28464,28483,28503,28524,28543,28563,28584,28603,28622,28643,28664,28684,28703,28722,28742,28763,28784,28804,28822,28842,28863,28884,28902,28922,28943,28963,28984,29003,29023,29043,29063,29084,29104,29123,29142,29163,29184,29202,29223,29243,29263,29284,29304,29324,29343,29363,29384,29403,29423,29442,29463,29482,29503,29523,29544,29564,29583,29602,29623,29643,29664,29684,29703,29722,29742,29763,29784,29804,29823,29843,29864,29883,29902,29924,29943,29963,29982,30002,30022,30043,30062,30083,30102,30122,30143,30163,30184,30203,30223,30243,30263,30283,30303,30323,30343,30362,30382,30403,30424,30444,30462,30483,30504,30523,30543,30562,30584,30603,30624,30642,30663,30682,30703,30724,30742,30762,30784,30803,30822,30843,30864,30883,30903,30923,30943,30962,30984,31002,31023,31044,31063,31083,31103,31122,31143,31163,31183,31203,31223,31244,31263,31283,31303,31323,31343,31362,31384,31403,31424,31443,31462,31482,31503,31522,31544,31563,31582,31602,31623,31643,31663,31683,31702,31722,31743,31763,31782,31802,31823,31843,31862,31883,31903,31923,31943,31963,31984,32003,32023,32043,32063,32084,32103,32122,32143,32163,32184,32203,32223,32242,32262,32284,32303,32323,32342,32364,32384,32404,32423,32442,32463,32484,32504,32523,32542,32563,32584,32604,32623,32642,32664,32683,32703,32723,32743,32763,32784,32804,32824,32842,32862,32883,32903,32923,32942,32962,32982,33004,33023,33042,33064,33082,33102,33122,33142,33164,33183,33204,33224,33243,33264,33284,33304,33322,33344,33364,33383,33403,33423,33443,33464,33483,33502,33522,33543,33563,33584,33602,33624,33643,33663,33683,33702,33723,33743,33763,33784,33803,33824,33843,33863,33884,33902,33923,33942,33964,33983,34003,34023,34042,34063,34083,34104,34122,34143,34164,34184,34203,34222,34242,34263,34282,34303,34323,34343,34363,34384,34404,34423,34443,34464,34484,34504,34523,34542,34562,34582,34602,34622,34643,34663,34682,34703,34722,34742,34763,34784,34803,34824,34843,34862,34884,34903,34923,34944,34963,34982,35003,35022,35042,35063,35084,35103,35122,35142,35162,35184,35203,35222,35243,35263,35284,35303,35323,35343,35362,35382,35403,35424,35443,35464,35483,35504,35524,35544,35562,35584,35603,35624,35642,35662,35684,35703,35723,35743,35764,35784,35802,35823,35843,35864,35883,35903,35924,35943,35962,35983,36003,36023,36043,36062,36082,36102,36123,36143,36163,36184,36202,36223,36244,36262,36283,36303,36324,36342,36362,36384,36403,36424,36443,36464,36484,36502,36523,36544,36562,36584,36604,36622,36643,36663,36684,36703,36722,36744,36762,36782,36803,36823,36843,36863,36882,36902,36923,36943,36962,36982,37003,37023,37043,37062,37083,37103,37123,37142,37162,37183,37202,37222,37242,37263,37284,37303,37323,37342,37364,37384,37403,37424,37444,37463,37483,37504,37523,37543,37563,37582,37602,37623,37642,37663,37684,37703,37723,37742,37762,37783,37803,37824,37842,37862,37883,37903,37922,37943,37964,37982,38004,38022,38043,38063,38083,38104,38123,38143,38163,38183,38204,38223,38243,38262,38282,38303,38322,38343,38363,38382,38403,38423,38443,38463,38483,38502,38523,38543,38563,38582,38602,38624,38643,38664,38684,38702,38723,38743,38762,38784,38803,38823,38843,38862,38882,38902,38924,38943,38963,38982,39004,39022,39044,39064,39082,39104,39124,39142,39163,39183,39203,39222,39242,39263,39283,39304,39324,39343,39364,39383,39404,39422,39444,39464,39484,39502,39524,39543,39562,39583,39604,39622,39644,39664,39683,39702,39722,39742,39763,39783,39804,39822,39843,39862,39882,39902,39922,39943,39962,39984,40004,40022,40043,40063,40084,40103,40122,40143,40164,40182,40203,40223,40244,40262,40283,40304,40323,40342,40362,40383,40403,40423,40442,40463,40483,40503,40523,40543,40564,40583,40603,40622,40642,40662,40684,40704,40723,40742,40763,40782,40803,40822,40842,40862,40884,40902,40923,40943,40962,40984,41003,41023,41043,41062,41083,41104,41123,41143,41162,41184,41202,41222,41243,41263,41283,41303,41322,41343,41364,41383,41404,41422,41442,41463,41482,41503,41522,41542,41563,41584,41602,41624,41644,41662,41684,41704,41723,41743,41763,41783,41804,41824,41843,41863,41882,41904,41923,41942,41962,41983,42003,42023,42042,42062,42082,42102,42123,42144,42162,42184,42203,42223,42242,42263,42283,42302,42323,42344,42363],"xSR":741.5,"ySR":469.95,"xT1":424.9,"yT1":0,"xT2":1058.1,"yT2":0,"toosoon":0,"cond_shown":"Congruent","ratio_trial":100,"L_num":9,"L_den":15,"R_num":8,"R_den":16,"correct_side":1,"subjID":"SaraElianaGuevaraFino20","gender":"1","school":"6","age":"11"},{"start_time":1551790108035,"click_time":1551790110666,"finger_time":1551790110006,"fix_duration":1249.9886232855974,"trial":29,"RT":1971,"MT":660,"sideResp":1,"stimulus":[],"xmouse":[790,790,790,790,790,790,790,790,790,790,790,790,790,790,790,790,790,790,790,790,790,790,790,790,790,790,790,790,790,790,790,790,790,790,790,790,790,790,790,790,790,790,790,790,790,790,790,790,790,790,790,790,790,790,790,790,791,791,791,791,792,792,792,792,792,793,794,796,798,800,801,801,801,801,801,801,801,801,801,801,801,801,801,801,801,801,801,801,801,805,809,816,822,822,822,822,822,822,821,814,808,799,771,743,725,711,702,686,676,663,649,633,621,599,582,569,556,540,523,521,516,510,498,492,490,489,488,484,481,480,479,476],"ymouse":[501,501,501,501,501,501,501,501,503,503,503,503,503,503,503,503,503,503,503,503,503,503,503,503,503,503,503,503,503,503,503,503,503,503,503,503,503,503,503,503,503,503,503,503,503,503,503,503,503,503,503,503,503,503,503,503,503,503,503,503,503,503,503,503,503,503,503,503,502,500,499,499,499,499,499,499,499,499,499,499,499,499,499,499,499,499,499,499,499,499,499,499,497,497,497,496,493,489,466,445,422,399,357,331,319,311,306,294,288,281,273,264,25