[{"start_time":1551790685995,"click_time":1551790689309,"finger_time":1551790686011,"fix_duration":565.0587730371195,"trial":0,"RT":16,"MT":3298,"sideResp":2,"stimulus":"img/900/equaldotanddens/L/2_Ratio_900_L_20_R_18.png","xmouse":[930,932,934,940,941,942,942,942,942,940,940,939,939,939,939,939,939,937,921,914,914,914,914,913,912,889,866,845,808,794,789,787,782,780,780,784,790,797,799,799,799,799,799,799,799,799,797,797,796,796,796,795,795,795,795,795,795,795,795,794,793,792,792,792,792,792,792,792,792,792,792,792,793,795,795,796,796,796,796,796,796,796,796,796,796,796,796,796,796,796,796,796,796,796,796,796,796,796,796,796,796,796,796,796,796,796,796,796,796,796,796,796,796,796,796,796,796,796,796,796,796,796,796,797,799,800,804,811,844,867,888,907,921,953,977,991,1004,1014,1023,1030,1031,1035,1040,1053,1057,1058,1058,1058,1060,1068,1072,1076,1078,1088,1092,1096,1099,1102,1107,1109,1111,1111,1111,1111,1111,1112],"ymouse":[548,536,527,513,510,507,507,507,507,508,508,508,508,508,508,508,508,508,512,512,512,512,512,510,509,504,498,491,481,479,479,479,479,483,488,491,494,495,497,497,497,497,497,497,498,501,503,506,512,514,516,517,517,517,517,517,518,518,519,521,522,523,524,524,524,524,525,525,525,526,526,526,526,526,525,525,525,525,525,525,524,524,524,523,523,522,522,522,521,520,520,520,520,520,520,520,520,520,520,518,518,517,516,516,516,516,516,516,516,516,516,516,516,516,516,516,516,516,516,516,516,516,516,515,514,513,512,510,494,481,466,451,433,397,370,355,338,325,310,287,276,265,253,230,216,205,188,179,172,164,162,159,157,149,143,137,133,128,122,118,116,113,111,104,100,93],"timestamp_mouse":[16,33,54,74,93,113,133,154,175,194,215,234,253,274,293,313,335,353,373,393,414,434,455,474,493,513,534,554,573,593,613,633,653,674,694,713,734,754,773,794,814,833,853,873,894,913,935,953,973,993,1013,1035,1054,1073,1095,1114,1134,1154,1173,1193,1214,1233,1254,1273,1294,1314,1334,1355,1373,1393,1413,1433,1454,1473,1493,1513,1535,1554,1573,1594,1615,1634,1653,1673,1693,1713,1733,1754,1774,1794,1815,1833,1854,1873,1894,1913,1933,1955,1974,1994,2015,2034,2053,2073,2093,2114,2133,2153,2173,2193,2214,2234,2254,2273,2294,2314,2333,2353,2374,2394,2414,2433,2454,2474,2494,2513,2534,2553,2574,2593,2613,2634,2653,2673,2694,2714,2734,2754,2773,2793,2813,2834,2854,2873,2893,2913,2934,2953,2973,2993,3015,3033,3053,3073,3094,3114,3134,3153,3173,3193,3213,3233,3254,3273,3293,3313],"xSR":741.5,"ySR":469.95,"xT1":424.9,"yT1":0,"xT2":1058.1,"yT2":0,"toosoon":0,"cond_shown":"equaldotanddens","ratio_trial":900,"smaller_num":"18","larger_num":"20","correct_side":1,"subjID":"SaraElianaGuevaraFino20","gender":"1","age":"11","school":"6","test":{"fix_dur":[250,1500],"timestim":300,"targets_dim":[100,100],"targets_relative_coord":[0.3,0.7],"size_stim":[880,420],"start_dim":[100,100],"size_start":[300,300],"size_fix":60,"samplingrate":20,"img_types":["equaldotsize","equaldotanddens","randomdotsizeEA"],"ratios":[250,500,750,900],"rep_conds":9,"nTrials":120,"trials_to_rest":500,"Trials_order":[70,9,95,0,107,66,4,79,105,42,106,11,15,103,94,26,7,35,76,71,116,60,117,37,41,59,47,3,87,43,50,112,72,28,104,8,90,97,36,110,92,10,1,52,30,38,82,27,119,18,108,40,73,101,109,49,99,48,64,29,62,12,51,88,33,75,84,19,77,39,113,111,34,96,93,102,85,22,83,57,16,46,44,24,54,118,74,23,31,53,69,17,55,86,2,14,5,25,63,56,80,61,6,20,78,65,81,13,98,21,89,100,58,68,45,115,67,32,91,114],"cond_shown":["equaldotanddens","equaldotsize","randomdotsizeEA","equaldotsize","randomdotsizeEA","equaldotsize","equaldotanddens","equaldotanddens","equaldotsize","equaldotsize","equaldotanddens","randomdotsizeEA","equaldotsize","equaldotanddens","equaldotanddens","randomdotsizeEA","equaldotanddens","randomdotsizeEA","equaldotanddens","randomdotsizeEA","randomdotsizeEA","equaldotsize","equaldotsize","equaldotanddens","randomdotsizeEA","randomdotsizeEA","randomdotsizeEA","equaldotsize","equaldotsize","equaldotanddens","randomdotsizeEA","equaldotanddens","equaldotsize","equaldotanddens","randomdotsizeEA","randomdotsizeEA","equaldotsize","equaldotanddens","equaldotsize","randomdotsizeEA","randomdotsizeEA","equaldotanddens","equaldotanddens","equaldotanddens","equaldotsize","randomdotsizeEA","equaldotanddens","equaldotsize","randomdotsizeEA","equaldotsize","equaldotsize","equaldotanddens","equaldotanddens","randomdotsizeEA","equaldotanddens","equaldotanddens","equaldotsize","equaldotsize","equaldotanddens","randomdotsizeEA","randomdotsizeEA","equaldotsize","equaldotsize","equaldotanddens","equaldotsize","equaldotsize","equaldotsize","equaldotanddens","randomdotsizeEA","equaldotsize","randomdotsizeEA","equaldotsize","equaldotanddens","equaldotsize","equaldotsize","equaldotsize","equaldotanddens","equaldotanddens","randomdotsizeEA","equaldotsize","equaldotanddens","equaldotanddens","randomdotsizeEA","equaldotsize","equaldotsize","equaldotanddens","randomdotsizeEA","randomdotsizeEA","equaldotanddens","randomdotsizeEA","equaldotsize","randomdotsizeEA","equaldotanddens","randomdotsizeEA","randomdotsizeEA","randomdotsizeEA","randomdotsizeEA","equaldotanddens","equaldotsize","randomdotsizeEA","randomdotsizeEA","equaldotanddens","equaldotsize","randomdotsizeEA","equaldotsize","randomdotsizeEA","equaldotsize","equaldotanddens","randomdotsizeEA","equaldotsize","randomdotsizeEA","equaldotanddens","equaldotanddens","randomdotsizeEA","equaldotsize","equaldotanddens","equaldotanddens","randomdotsizeEA","equaldotanddens","equaldotsize"],"ratio_trial":[900,900,900,250,900,750,500,750,900,750,900,900,500,750,900,250,750,900,500,900,750,250,900,250,500,900,900,500,500,750,250,500,250,500,750,750,750,250,250,250,750,900,250,500,750,250,900,500,900,750,250,500,250,500,250,250,500,250,500,500,250,250,500,500,900,500,250,750,500,500,500,500,900,250,900,750,250,900,900,900,500,900,750,250,750,900,250,900,750,500,900,500,750,250,250,250,500,250,500,750,750,250,750,750,750,500,900,250,250,900,500,500,900,750,900,750,750,750,750,750],"smaller_num":["18","18","9","2","9","15","1","12","18","15","18","18","6","6","9","2","3","18","9","18","9","3","18","3","3","18","18","9","9","3","5","9","4","6","18","6","9","1","3","3","6","9","6","3","12","2","18","6","18","6","3","9","5","4","5","3","10","2","6","5","5","6","1","5","18","6","3","9","2","9","5","4","9","4","18","6","5","9","9","18","2","18","3","5","9","9","4","18","15","9","18","3","6","2","1","3","10","3","6","6","3","5","6","3","3","6","18","3","5","18","6","5","18","6","18","9","3","15","3","3"],"larger_num":["20","20","10","8","10","20","2","16","20","20","20","20","12","8","10","8","4","20","18","20","12","12","20","12","6","20","20","18","18","4","20","18","16","12","24","8","12","4","12","12","8","10","24","6","16","8","20","12","20","8","12","18","20","8","20","12","20","8","12","10","20","24","2","10","20","12","12","12","4","18","10","8","10","16","20","8","20","10","10","20","4","20","4","20","12","10","16","20","20","18","20","6","8","8","4","12","20","12","12","8","4","20","8","4","4","12","20","12","20","20","12","10","20","8","20","12","4","20","4","4"],"correct_side":[1,1,2,1,2,2,2,2,2,2,1,1,1,1,2,1,1,1,2,2,2,2,2,2,2,2,1,2,1,1,2,2,2,1,1,1,2,2,2,2,2,2,1,2,2,1,1,1,1,2,1,1,2,1,2,2,2,1,1,2,2,1,2,2,2,1,2,2,1,2,2,1,2,2,1,1,2,2,1,1,1,1,1,2,2,2,2,2,2,1,1,2,1,2,2,1,2,2,1,2,2,2,1,2,2,1,1,2,2,2,1,2,2,1,2,2,1,1,1,1],"img_shown":["img/900/equaldotanddens/L/2_Ratio_900_L_20_R_18.png","img/900/equaldotsize/L/8_Ratio_900_L_20_R_18.png","img/900/randomdotsizeEA/R/15_Ratio_900_L_9_R_10.png","img/250/equaldotsize/L/7_Ratio_250_L_8_R_2.png","img/900/randomdotsizeEA/R/6_Ratio_900_L_9_R_10.png","img/750/equaldotsize/R/4_Ratio_750_L_15_R_20.png","img/500/equaldotanddens/R/15_Ratio_500_L_1_R_2.png","img/750/equaldotanddens/R/11_Ratio_750_L_12_R_16.png","img/900/equaldotsize/R/12_Ratio_900_L_18_R_20.png","img/750/equaldotsize/R/5_Ratio_750_L_15_R_20.png","img/900/equaldotanddens/L/8_Ratio_900_L_20_R_18.png","img/900/randomdotsizeEA/L/4_Ratio_900_L_20_R_18.png","img/500/equaldotsize/L/13_Ratio_500_L_12_R_6.png","img/750/equaldotanddens/L/14_Ratio_750_L_8_R_6.png","img/900/equaldotanddens/R/5_Ratio_900_L_9_R_10.png","img/250/randomdotsizeEA/L/7_Ratio_250_L_8_R_2.png","img/750/equaldotanddens/L/9_Ratio_750_L_4_R_3.png","img/900/randomdotsizeEA/L/2_Ratio_900_L_20_R_18.png","img/500/equaldotanddens/R/6_Ratio_500_L_9_R_18.png","img/900/randomdotsizeEA/R/9_Ratio_900_L_18_R_20.png","img/750/randomdotsizeEA/R/15_Ratio_750_L_9_R_12.png","img/250/equaldotsize/R/9_Ratio_250_L_3_R_12.png","img/900/equaldotsize/R/14_Ratio_900_L_18_R_20.png","img/250/equaldotanddens/R/4_Ratio_250_L_3_R_12.png","img/500/randomdotsizeEA/R/2_Ratio_500_L_3_R_6.png","img/900/randomdotsizeEA/R/9_Ratio_900_L_18_R_20.png","img/900/randomdotsizeEA/L/4_Ratio_900_L_20_R_18.png","img/500/equaldotsize/R/1_Ratio_500_L_9_R_18.png","img/500/equaldotsize/L/4_Ratio_500_L_18_R_9.png","img/750/equaldotanddens/L/9_Ratio_750_L_4_R_3.png","img/250/randomdotsizeEA/R/12_Ratio_250_L_5_R_20.png","img/500/equaldotanddens/R/1_Ratio_500_L_9_R_18.png","img/250/equaldotsize/R/10_Ratio_250_L_4_R_16.png","img/500/equaldotanddens/L/13_Ratio_500_L_12_R_6.png","img/750/randomdotsizeEA/L/6_Ratio_750_L_24_R_18.png","img/750/randomdotsizeEA/L/13_Ratio_750_L_8_R_6.png","img/750/equaldotsize/R/15_Ratio_750_L_9_R_12.png","img/250/equaldotanddens/R/8_Ratio_250_L_1_R_4.png","img/250/equaldotsize/R/4_Ratio_250_L_3_R_12.png","img/250/randomdotsizeEA/R/11_Ratio_250_L_3_R_12.png","img/750/randomdotsizeEA/R/2_Ratio_750_L_6_R_8.png","img/900/equaldotanddens/R/3_Ratio_900_L_9_R_10.png","img/250/equaldotanddens/L/5_Ratio_250_L_24_R_6.png","img/500/equaldotanddens/R/2_Ratio_500_L_3_R_6.png","img/750/equaldotsize/R/11_Ratio_750_L_12_R_16.png","img/250/randomdotsizeEA/L/7_Ratio_250_L_8_R_2.png","img/900/equaldotanddens/L/10_Ratio_900_L_20_R_18.png","img/500/equaldotsize/L/11_Ratio_500_L_12_R_6.png","img/900/randomdotsizeEA/L/4_Ratio_900_L_20_R_18.png","img/750/equaldotsize/R/2_Ratio_750_L_6_R_8.png","img/250/equaldotsize/L/14_Ratio_250_L_12_R_3.png","img/500/equaldotanddens/L/4_Ratio_500_L_18_R_9.png","img/250/equaldotanddens/R/12_Ratio_250_L_5_R_20.png","img/500/randomdotsizeEA/L/8_Ratio_500_L_8_R_4.png","img/250/equaldotanddens/R/12_Ratio_250_L_5_R_20.png","img/250/equaldotanddens/R/11_Ratio_250_L_3_R_12.png","img/500/equaldotsize/R/3_Ratio_500_L_10_R_20.png","img/250/equaldotsize/L/3_Ratio_250_L_8_R_2.png","img/500/equaldotanddens/L/13_Ratio_500_L_12_R_6.png","img/500/randomdotsizeEA/R/14_Ratio_500_L_5_R_10.png","img/250/randomdotsizeEA/R/12_Ratio_250_L_5_R_20.png","img/250/equaldotsize/L/5_Ratio_250_L_24_R_6.png","img/500/equaldotsize/R/15_Ratio_500_L_1_R_2.png","img/500/equaldotanddens/R/14_Ratio_500_L_5_R_10.png","img/900/equaldotsize/R/12_Ratio_900_L_18_R_20.png","img/500/equaldotsize/L/11_Ratio_500_L_12_R_6.png","img/250/equaldotsize/R/11_Ratio_250_L_3_R_12.png","img/750/equaldotanddens/R/15_Ratio_750_L_9_R_12.png","img/500/randomdotsizeEA/L/10_Ratio_500_L_4_R_2.png","img/500/equaldotsize/R/6_Ratio_500_L_9_R_18.png","img/500/randomdotsizeEA/R/14_Ratio_500_L_5_R_10.png","img/500/equaldotsize/L/8_Ratio_500_L_8_R_4.png","img/900/equaldotanddens/R/7_Ratio_900_L_9_R_10.png","img/250/equaldotsize/R/10_Ratio_250_L_4_R_16.png","img/900/equaldotsize/L/4_Ratio_900_L_20_R_18.png","img/750/equaldotsize/L/13_Ratio_750_L_8_R_6.png","img/250/equaldotanddens/R/12_Ratio_250_L_5_R_20.png","img/900/equaldotanddens/R/6_Ratio_900_L_9_R_10.png","img/900/randomdotsizeEA/L/1_Ratio_900_L_10_R_9.png","img/900/equaldotsize/L/10_Ratio_900_L_20_R_18.png","img/500/equaldotanddens/L/10_Ratio_500_L_4_R_2.png","img/900/equaldotanddens/L/4_Ratio_900_L_20_R_18.png","img/750/randomdotsizeEA/L/10_Ratio_750_L_4_R_3.png","img/250/equaldotsize/R/12_Ratio_250_L_5_R_20.png","img/750/equaldotsize/R/15_Ratio_750_L_9_R_12.png","img/900/equaldotanddens/R/3_Ratio_900_L_9_R_10.png","img/250/randomdotsizeEA/R/10_Ratio_250_L_4_R_16.png","img/900/randomdotsizeEA/R/13_Ratio_900_L_18_R_20.png","img/750/equaldotanddens/R/5_Ratio_750_L_15_R_20.png","img/500/randomdotsizeEA/L/4_Ratio_500_L_18_R_9.png","img/900/equaldotsize/L/8_Ratio_900_L_20_R_18.png","img/500/randomdotsizeEA/R/2_Ratio_500_L_3_R_6.png","img/750/equaldotanddens/L/13_Ratio_750_L_8_R_6.png","img/250/randomdotsizeEA/R/13_Ratio_250_L_2_R_8.png","img/250/randomdotsizeEA/R/8_Ratio_250_L_1_R_4.png","img/250/randomdotsizeEA/L/14_Ratio_250_L_12_R_3.png","img/500/randomdotsizeEA/R/3_Ratio_500_L_10_R_20.png","img/250/equaldotanddens/R/11_Ratio_250_L_3_R_12.png","img/500/equaldotsize/L/11_Ratio_500_L_12_R_6.png","img/750/randomdotsizeEA/R/2_Ratio_750_L_6_R_8.png","img/750/randomdotsizeEA/R/12_Ratio_750_L_3_R_4.png","img/250/equaldotanddens/R/12_Ratio_250_L_5_R_20.png","img/750/equaldotsize/L/14_Ratio_750_L_8_R_6.png","img/750/randomdotsizeEA/R/12_Ratio_750_L_3_R_4.png","img/750/equaldotsize/R/12_Ratio_750_L_3_R_4.png","img/500/randomdotsizeEA/L/11_Ratio_500_L_12_R_6.png","img/900/equaldotsize/L/2_Ratio_900_L_20_R_18.png","img/250/equaldotanddens/R/4_Ratio_250_L_3_R_12.png","img/250/randomdotsizeEA/R/12_Ratio_250_L_5_R_20.png","img/900/equaldotsize/R/12_Ratio_900_L_18_R_20.png","img/500/randomdotsizeEA/L/13_Ratio_500_L_12_R_6.png","img/500/equaldotanddens/R/14_Ratio_500_L_5_R_10.png","img/900/equaldotanddens/R/14_Ratio_900_L_18_R_20.png","img/750/randomdotsizeEA/L/13_Ratio_750_L_8_R_6.png","img/900/equaldotsize/R/14_Ratio_900_L_18_R_20.png","img/750/equaldotanddens/R/15_Ratio_750_L_9_R_12.png","img/750/equaldotanddens/L/9_Ratio_750_L_4_R_3.png","img/750/randomdotsizeEA/L/1_Ratio_750_L_20_R_15.png","img/750/equaldotanddens/L/9_Ratio_750_L_4_R_3.png","img/750/equaldotsize/L/8_Ratio_750_L_4_R_3.png"],"Rat0":[["12_Ratio_0_L_9_R_0.png","13_Ratio_0_L_6_R_0.png","5_Ratio_0_L_2_R_0.png","6_Ratio_0_L_4_R_0.png","8_Ratio_0_L_6_R_0.png"],["1_Ratio_0_L_0_R_17.png","10_Ratio_0_L_0_R_22.png","11_Ratio_0_L_0_R_1.png","14_Ratio_0_L_0_R_24.png","15_Ratio_0_L_0_R_4.png","2_Ratio_0_L_0_R_5.png","3_Ratio_0_L_0_R_17.png","4_Ratio_0_L_0_R_7.png","7_Ratio_0_L_0_R_19.png","9_Ratio_0_L_0_R_15.png"]],"Rat250":[["1_Ratio_250_L_8_R_2.png","14_Ratio_250_L_12_R_3.png","15_Ratio_250_L_12_R_3.png","2_Ratio_250_L_16_R_4.png","3_Ratio_250_L_8_R_2.png","5_Ratio_250_L_24_R_6.png","7_Ratio_250_L_8_R_2.png"],["10_Ratio_250_L_4_R_16.png","11_Ratio_250_L_3_R_12.png","12_Ratio_250_L_5_R_20.png","13_Ratio_250_L_2_R_8.png","4_Ratio_250_L_3_R_12.png","6_Ratio_250_L_6_R_24.png","8_Ratio_250_L_1_R_4.png","9_Ratio_250_L_3_R_12.png"]],"Rat500":[["10_Ratio_500_L_4_R_2.png","11_Ratio_500_L_12_R_6.png","13_Ratio_500_L_12_R_6.png","4_Ratio_500_L_18_R_9.png","5_Ratio_500_L_4_R_2.png","7_Ratio_500_L_10_R_5.png","8_Ratio_500_L_8_R_4.png"],["1_Ratio_500_L_9_R_18.png","12_Ratio_500_L_1_R_2.png","14_Ratio_500_L_5_R_10.png","15_Ratio_500_L_1_R_2.png","2_Ratio_500_L_3_R_6.png","3_Ratio_500_L_10_R_20.png","6_Ratio_500_L_9_R_18.png","9_Ratio_500_L_2_R_4.png"]],"Rat750":[["1_Ratio_750_L_20_R_15.png","10_Ratio_750_L_4_R_3.png","13_Ratio_750_L_8_R_6.png","14_Ratio_750_L_8_R_6.png","6_Ratio_750_L_24_R_18.png","8_Ratio_750_L_4_R_3.png","9_Ratio_750_L_4_R_3.png"],["11_Ratio_750_L_12_R_16.png","12_Ratio_750_L_3_R_4.png","15_Ratio_750_L_9_R_12.png","2_Ratio_750_L_6_R_8.png","3_Ratio_750_L_15_R_20.png","4_Ratio_750_L_15_R_20.png","5_Ratio_750_L_15_R_20.png","7_Ratio_750_L_3_R_4.png"]],"Rat900":[["1_Ratio_900_L_10_R_9.png","10_Ratio_900_L_20_R_18.png","2_Ratio_900_L_20_R_18.png","4_Ratio_900_L_20_R_18.png","8_Ratio_900_L_20_R_18.png"],["11_Ratio_900_L_18_R_20.png","12_Ratio_900_L_18_R_20.png","13_Ratio_900_L_18_R_20.png","14_Ratio_900_L_18_R_20.png","15_Ratio_900_L_9_R_10.png","3_Ratio_900_L_9_R_10.png","5_Ratio_900_L_9_R_10.png","6_Ratio_900_L_9_R_10.png","7_Ratio_900_L_9_R_10.png","9_Ratio_900_L_18_R_20.png"]],"Rat1000":[["10_Ratio_1000_L_16_R_16.png","11_Ratio_1000_L_6_R_6.png","12_Ratio_1000_L_14_R_14.png","13_Ratio_1000_L_20_R_20.png","15_Ratio_1000_L_15_R_15.png","2_Ratio_1000_L_17_R_17.png","4_Ratio_1000_L_9_R_9.png","5_Ratio_1000_L_6_R_6.png","6_Ratio_1000_L_19_R_19.png","8_Ratio_1000_L_14_R_14.png","9_Ratio_1000_L_25_R_25.png"],["1_Ratio_1000_L_1_R_1.png","14_Ratio_1000_L_17_R_17.png","3_Ratio_1000_L_17_R_17.png","7_Ratio_1000_L_6_R_6.png"]]}},{"start_time":1551790691813,"click_time":1551790695088,"finger_time":1551790694168,"fix_duration":1304.177189438227,"trial":1,"RT":2355,"MT":920,"sideResp":2,"stimulus":"img/900/equaldotsize/L/8_Ratio_900_L_20_R_18.png","xmouse":[802,802,802,802,802,802,802,802,802,802,802,802,802,802,802,802,802,802,802,802,802,802,802,802,802,802,802,802,802,802,802,802,802,802,802,802,802,802,802,802,802,802,802,802,802,802,802,802,802,802,802,802,802,802,802,802,802,802,802,802,802,802,802,802,802,802,802,802,802,802,802,802,802,802,802,802,802,802,802,802,802,802,802,802,802,802,802,802,802,802,802,802,802,802,802,802,802,802,802,802,800,799,790,786,785,784,784,782,780,778,775,774,766,759,754,753,752,751,750,749,749,749,753,753,754,754,755,763,766,772,779,794,835,855,871,880,889,926,958,988,1030,1067,1107,1122,1139,1147,1153,1162,1167,1171,1175,1177,1177,1177,1177,1177,1177,1177,1176,1173,1171,1169,1159,1157],"ymouse":[525,525,525,525,525,525,525,525,525,525,525,525,525,525,525,525,525,525,525,525,525,525,525,525,525,525,525,525,525,525,525,525,525,525,525,525,525,525,525,525,525,525,525,525,525,525,525,525,525,525,525,525,525,525,525,525,525,525,525,525,525,525,525,525,525,525,525,525,525,525,525,525,525,525,525,525,525,525,525,525,525,525,525,525,525,525,525,525,525,525,525,525,525,525,525,525,525,525,525,525,524,524,521,520,519,518,516,516,514,512,509,505,489,480,473,471,470,469,469,469,468,467,463,463,462,460,458,441,437,431,425,414,388,377,367,362,356,344,334,325,309,287,254,239,221,209,197,176,163,150,138,125,103,91,79,72,68,65,65,64,63,63,62,62],"timestamp_mouse":[17,37,56,76,96,117,135,156,176,196,216,236,256,276,297,317,335,356,376,397,415,436,457,475,495,517,537,556,576,597,617,635,656,675,696,715,735,756,777,795,816,836,855,876,896,915,935,955,976,996,1015,1036,1055,1076,1096,1115,1137,1155,1175,1195,1216,1236,1256,1275,1296,1315,1336,1356,1375,1397,1416,1437,1455,1475,1496,1517,1536,1556,1576,1596,1615,1637,1657,1675,1696,1716,1735,1755,1775,1795,1816,1836,1855,1876,1897,1915,1935,1956,1976,1997,2015,2036,2055,2077,2095,2115,2136,2156,2175,2196,2215,2235,2255,2275,2295,2317,2335,2355,2375,2395,2416,2435,2455,2475,2495,2516,2535,2555,2575,2595,2615,2635,2655,2675,2695,2715,2735,2755,2775,2795,2815,2836,2855,2876,2896,2916,2936,2955,2975,2996,3016,3035,3055,3076,3095,3116,3135,3155,3175,3195,3216,3237,3255,3275],"xSR":741.5,"ySR":469.95,"xT1":424.9,"yT1":0,"xT2":1058.1,"yT2":0,"toosoon":0,"cond_shown":"equaldotsize","ratio_trial":900,"smaller_num":"18","larger_num":"20","correct_side":1,"subjID":"SaraElianaGuevaraFino20","gender":"1","age":"11","school":"6"},{"start_time":1551790696985,"click_time":1551790700609,"finger_time":1551790699209,"fix_duration":716.9270696780854,"trial":2,"RT":2224,"MT":1400,"sideResp":2,"stimulus":"img/900/randomdotsizeEA/R/15_Ratio_900_L_9_R_10.png","xmouse":[785,785,785,785,785,785,784,784,784,784,784,784,784,784,784,784,784,784,784,784,784,784,784,784,784,784,784,784,784,784,784,784,784,784,784,784,784,784,784,784,784,784,784,784,784,784,784,784,784,784,784,784,784,784,784,784,784,784,784,784,784,784,784,784,784,784,784,784,784,784,784,784,784,784,784,784,784,784,784,784,784,784,784,784,784,784,784,784,784,784,784,784,784,784,784,785,785,785,785,785,785,785,785,785,785,785,785,785,785,785,786,786,786,786,787,787,787,787,787,787,787,787,787,787,787,787,787,787,787,787,787,787,787,787,787,787,787,786,786,786,786,786,786,786,786,786,786,786,786,786,786,786,786,786,786,786,786,787,790,806,816,829,846,868,953,1023,1053,1065,1070,1072,1072,1072,1073,1074,1078,1078,1080,1080,1081,1082,1084,1085],"ymouse":[512,512,512,512,512,512,512,512,512,512,512,512,512,512,512,512,512,512,512,512,512,512,512,512,512,512,512,512,512,512,512,512,512,512,512,512,512,512,512,512,512,512,512,512,512,512,512,512,512,512,512,512,512,512,512,512,512,512,512,512,512,512,512,512,512,512,512,512,511,511,511,511,510,510,510,510,510,510,510,510,509,509,508,508,506,506,506,506,506,506,504,503,501,500,495,491,489,487,486,484,483,481,480,479,477,476,475,474,473,472,470,469,469,467,464,463,460,459,458,456,456,455,455,454,450,449,448,448,448,448,448,449,450,454,471,479,493,500,504,507,509,509,511,511,512,514,515,516,517,517,517,517,517,517,517,517,517,517,513,485,468,451,432,405,317,253,218,194,178,158,153,148,143,135,116,113,106,105,103,102,100,98],"timestamp_mouse":[4,24,44,63,83,104,125,143,163,183,203,223,243,264,284,303,323,345,363,383,404,423,444,463,483,504,524,544,563,583,604,623,643,663,684,704,723,744,764,783,803,823,845,864,883,904,925,944,963,984,1004,1024,1043,1063,1083,1104,1124,1144,1163,1183,1205,1223,1243,1264,1284,1303,1323,1345,1364,1383,1405,1424,1443,1464,1483,1503,1525,1543,1563,1583,1603,1623,1643,1664,1683,1704,1723,1744,1763,1784,1803,1825,1843,1864,1883,1903,1924,1945,1964,1984,2003,2023,2043,2063,2083,2103,2123,2145,2163,2183,2203,2224,2243,2264,2283,2303,2323,2343,2364,2383,2403,2424,2444,2464,2483,2503,2524,2543,2564,2584,2604,2623,2643,2664,2683,2703,2724,2743,2763,2783,2803,2824,2843,2864,2883,2903,2923,2944,2963,2984,3004,3023,3044,3065,3083,3103,3124,3145,3163,3184,3203,3225,3244,3263,3283,3304,3324,3344,3363,3383,3403,3424,3444,3464,3483,3503,3523,3544,3563,3583,3603,3624],"xSR":741.5,"ySR":469.95,"xT1":424.9,"yT1":0,"xT2":1058.1,"yT2":0,"toosoon":0,"cond_shown":"randomdotsizeEA","ratio_trial":900,"smaller_num":"9","larger_num":"10","correct_side":2,"subjID":"SaraElianaGuevaraFino20","gender":"1","age":"11","school":"6"},{"start_time":1551790702372,"click_time":1551790703188,"finger_time":1551790703088,"fix_duration":762.9120026117628,"trial":3,"RT":716,"MT":100,"sideResp":1,"stimulus":"img/250/equaldotsize/L/7_Ratio_250_L_8_R_2.png","xmouse":[805,805,805,805,805,805,805,805,805,805,805,805,805,805,805,805,805,805,805,805,805,805,805,805,805,805,805,805,805,805,805,805,804,802,790,776,719,675,633,548,519],"ymouse":[524,524,524,524,524,524,524,524,524,524,524,524,524,524,524,524,524,524,524,524,524,524,524,524,524,524,524,524,524,524,524,524,524,517,484,451,360,290,221,100,59],"timestamp_mouse":[16,36,56,76,97,117,137,157,176,197,216,237,258,276,296,318,336,357,377,396,416,437,458,477,496,517,536,557,578,597,616,638,656,676,697,716,736,757,777,796,816],"xSR":741.5,"ySR":469.95,"xT1":424.9,"yT1":0,"xT2":1058.1,"yT2":0,"toosoon":0,"cond_shown":"equaldotsize","ratio_trial":250,"smaller_num":"2","larger_num":"8","correct_side":1,"subjID":"SaraElianaGuevaraFino20","gender":"1","age":"11","school":"6"},{"start_time":1551790704767,"click_time":1551790707728,"finger_time":1551790707728,"fix_duration":438.8822968112367,"trial":4,"RT":2961,"MT":0,"sideResp":1,"stimulus":"img/900/randomdotsizeEA/R/6_Ratio_900_L_9_R_10.png","xmouse":[800,800,800,800,800,800,800,800,800,800,800,800,800,800,800,800,800,800,800,800,800,800,800,800,800,800,800,800,800,800,800,800,800,800,800,800,800,800,800,800,800,800,800,800,800,800,800,800,800,800,800,800,800,800,800,800,800,800,800,800,800,800,800,800,800,800,800,800,800,800,800,800,800,800,800,800,800,800,800,800,800,800,800,800,800,800,800,800,800,800,800,800,800,800,800,800,800,800,800,800,800,800,800,800,800,800,800,800,800,800,800,800,800,800,800,800,800,800,800,800,800,800,800,800,800,800,800,800,800,800,800,800,800,800,800,800,800,800,800,800,800,800,800,800,800,800,800,800,473],"ymouse":[515,515,515,515,515,515,515,515,515,515,515,515,515,515,515,515,515,515,515,515,515,515,515,515,515,515,515,515,515,515,515,515,515,515,515,515,515,515,515,515,515,515,515,515,515,515,515,515,515,515,515,515,515,515,515,515,515,515,515,515,515,515,515,515,515,515,515,515,515,515,515,515,515,515,515,515,515,515,515,515,515,515,515,515,515,515,515,515,515,515,515,515,515,515,515,515,515,515,515,515,515,515,515,515,515,515,515,515,515,515,515,515,515,515,515,515,515,515,515,515,515,515,515,515,515,515,515,515,515,515,515,515,515,515,515,515,515,515,515,515,515,515,515,515,515,515,515,515,54],"timestamp_mouse":[3,22,42,63,81,101,123,141,162,182,201,221,243,261,281,301,322,342,362,383,401,421,441,463,481,501,521,542,561,581,602,623,642,662,682,701,723,742,762,781,801,821,842,861,881,901,921,941,961,981,1002,1021,1041,1061,1082,1101,1121,1142,1161,1181,1201,1221,1243,1262,1282,1301,1321,1341,1361,1381,1402,1422,1441,1461,1481,1501,1522,1542,1562,1581,1601,1621,1641,1661,1681,1702,1722,1741,1762,1781,1801,1821,1842,1861,1882,1902,1922,1941,1962,1981,2002,2023,2041,2062,2083,2101,2121,2141,2161,2181,2201,2221,2243,2262,2281,2302,2321,2343,2361,2382,2401,2422,2443,2461,2481,2502,2522,2541,2563,2582,2602,2621,2641,2661,2681,2702,2721,2742,2761,2781,2801,2821,2841,2861,2881,2901,2921,2942,2961],"xSR":741.5,"ySR":469.95,"xT1":424.9,"yT1":0,"xT2":1058.1,"yT2":0,"toosoon":0,"cond_shown":"randomdotsizeEA","ratio_trial":900,"smaller_num":"9","larger_num":"10","correct_side":2,"subjID":"SaraElianaGuevaraFino20","gender":"1","age":"11","school":"6"},{"start_time":1551790708800,"click_time":1551790709849,"finger_time":1551790709468,"fix_duration":250,"trial":5,"RT":668,"MT":381,"sideResp":2,"stimulus":"img/750/equaldotsize/R/4_Ratio_750_L_15_R_20.png","xmouse":[811,809,809,809,808,804,802,800,799,799,799,799,799,799,799,799,799,799,799,799,799,799,799,799,799,799,799,799,799,799,803,805,813,824,841,855,880,917,983,1000,1012,1020,1024,1026,1028,1033,1037,1041,1046,1048,1053,1055,1060],"ymouse":[524,524,524,524,524,523,523,523,522,522,522,522,522,522,522,522,522,522,522,522,522,522,522,522,522,522,522,522,522,522,518,516,503,468,415,375,319,257,175,156,146,137,131,121,115,105,97,91,83,82,80,79,76],"timestamp_mouse":[8,29,48,69,88,109,129,148,168,189,208,228,248,268,289,308,328,350,368,389,408,428,448,468,489,508,529,548,568,590,609,628,649,668,689,709,729,748,768,788,809,828,849,868,888,908,929,949,968,989,1009,1029,1049],"xSR":741.5,"ySR":469.95,"xT1":424.9,"yT1":0,"xT2":1058.1,"yT2":0,"toosoon":0,"cond_shown":"equaldotsize","ratio_trial":750,"smaller_num":"15","larger_num":"20","correct_side":2,"subjID":"SaraElianaGuevaraFino20","gender":"1","age":"11","school":"6"},{"start_time":1551790711429,"click_time":1551790712709,"finger_time":1551790712368,"fix_duration":738.2523064237496,"trial":6,"RT":939,"MT":341,"sideResp":2,"stimulus":"img/500/equaldotanddens/R/15_Ratio_500_L_1_R_2.png","xmouse":[803,803,803,803,803,803,803,803,803,803,803,803,803,803,803,803,803,803,803,803,803,803,803,803,803,803,803,803,803,803,803,803,803,803,803,803,803,803,803,803,803,803,804,805,807,810,816,827,842,868,910,958,1018,1030,1032,1033,1035,1040,1046,1050,1052,1054,1054,1057,1066],"ymouse":[527,527,527,527,527,527,527,527,527,527,527,527,527,527,527,527,527,527,527,527,527,527,527,527,527,527,527,527,527,527,527,527,527,527,527,527,527,527,527,527,527,527,526,524,520,514,502,459,404,345,275,207,124,101,95,86,77,64,56,51,48,47,46,46,44],"timestamp_mouse":[1,21,40,59,80,99,119,139,160,179,201,219,239,259,280,299,319,340,359,379,401,419,439,460,479,500,520,539,561,579,600,619,639,660,679,701,719,739,761,779,800,820,839,859,880,901,919,939,959,980,999,1019,1039,1060,1079,1101,1120,1139,1160,1181,1199,1220,1239,1259,1280],"xSR":741.5,"ySR":469.95,"xT1":424.9,"yT1":0,"xT2":1058.1,"yT2":0,"toosoon":0,"cond_shown":"equaldotanddens","ratio_trial":500,"smaller_num":"1","larger_num":"2","correct_side":2,"subjID":"SaraElianaGuevaraFino20","gender":"1","age":"11","school":"6"},{"start_time":1551790715148,"click_time":1551790715968,"finger_time":1551790715868,"fix_duration":1479.8860396547175,"trial":7,"RT":720,"MT":100,"sideResp":2,"stimulus":"img/750/equaldotanddens/R/11_Ratio_750_L_12_R_16.png","xmouse":[797,797,797,797,797,797,797,797,797,797,797,797,797,797,797,797,797,797,798,798,798,798,798,798,798,798,798,798,798,798,798,798,799,799,802,806,815,870,938,1016,1079,1143],"ymouse":[525,525,525,525,525,525,525,525,525,525,525,525,525,525,525,525,525,525,525,525,525,525,525,525,525,525,525,525,525,525,525,525,522,520,509,494,445,328,250,181,134,87],"timestamp_mouse":[3,24,41,62,82,101,120,141,160,181,202,220,240,262,280,300,321,341,360,380,401,420,441,460,480,500,521,541,560,580,601,620,640,660,680,701,720,741,761,781,800,820],"xSR":741.5,"ySR":469.95,"xT1":424.9,"yT1":0,"xT2":1058.1,"yT2":0,"toosoon":0,"cond_shown":"equaldotanddens","ratio_trial":750,"smaller_num":"12","larger_num":"16","correct_side":2,"subjID":"SaraElianaGuevaraFino20","gender":"1","age":"11","school":"6"},{"start_time":1551790717697,"click_time":1551790718809,"finger_time":1551790718348,"fix_duration":428.5461513556872,"trial":8,"RT":651,"MT":461,"sideResp":2,"stimulus":"img/900/equaldotsize/R/12_Ratio_900_L_18_R_20.png","xmouse":[794,794,794,795,796,797,797,797,797,797,797,797,798,798,798,798,798,798,798,798,798,798,798,798,798,798,798,798,798,799,813,830,844,858,861,869,877,886,910,917,928,943,959,981,986,989,993,1000,1019,1028,1035,1041,1048,1060,1067,1075],"ymouse":[492,492,492,492,493,493,493,493,493,493,493,493,494,494,494,494,494,494,494,494,494,494,494,494,494,494,494,494,494,493,485,475,462,441,432,417,403,386,344,324,293,269,248,212,197,189,181,171,156,148,138,133,127,118,110,98],"timestamp_mouse":[12,31,51,72,91,112,131,151,171,191,211,232,251,271,291,312,332,352,371,391,411,433,451,472,492,511,532,552,571,591,611,632,651,672,691,713,731,752,771,791,811,831,851,871,891,912,932,953,971,991,1012,1032,1052,1071,1091,1112],"xSR":741.5,"ySR":469.95,"xT1":424.9,"yT1":0,"xT2":1058.1,"yT2":0,"toosoon":0,"cond_shown":"equaldotsize","ratio_trial":900,"smaller_num":"18","larger_num":"20","correct_side":2,"subjID":"SaraElianaGuevaraFino20","gender":"1","age":"11","school":"6"},{"start_time":1551790721162,"click_time":1551790722168,"finger_time":1551790721889,"fix_duration":1432.7297070165941,"trial":9,"RT":727,"MT":279,"sideResp":2,"stimulus":"img/750/equaldotsize/R/5_Ratio_750_L_15_R_20.png","xmouse":[808,808,808,808,808,808,808,808,808,808,808,808,808,808,808,808,808,808,808,808,808,808,808,808,808,808,808,808,808,808,808,810,814,817,821,829,836,879,933,991,1062,1068,1069,1069,1069,1074,1080,1085,1088,1089,1092],"ymouse":[518,518,518,518,518,518,518,518,518,518,518,518,518,518,518,518,518,518,518,518,518,518,518,518,518,518,518,518,518,518,516,511,505,497,489,471,452,363,282,212,157,153,153,153,152,142,128,119,111,107,99],"timestamp_mouse":[11,28,47,66,87,107,127,146,167,187,207,226,246,267,286,307,326,347,368,386,406,428,447,467,487,506,527,547,567,587,606,626,648,666,686,707,727,747,767,787,806,826,847,867,886,906,926,946,966,986,1006],"xSR":741.5,"ySR":469.95,"xT1":424.9,"yT1":0,"xT2":1058.1,"yT2":0,"toosoon":0,"cond_shown":"equaldotsize","ratio_trial":750,"smaller_num":"15","larger_num":"20","correct_side":2,"subjID":"SaraElianaGuevaraFino20","gender":"1","age":"11","school":"6"},{"start_time":1551790723265,"click_time":1551790724210,"finger_time":1551790723968,"fix_duration":276.29302244354125,"trial":10,"RT":703,"MT":242,"sideResp":1,"stimulus":"img/900/equaldotanddens/L/8_Ratio_900_L_20_R_18.png","xmouse":[806,806,806,806,806,806,806,806,806,806,806,806,806,806,806,806,806,806,806,806,806,806,806,806,806,806,806,806,806,806,806,806,806,805,798,749,701,649,602,561,524,518,514,514,514,516,517,518],"ymouse":[531,531,531,531,531,531,531,531,531,531,531,531,531,531,531,531,531,531,531,531,531,531,531,531,531,531,531,531,531,531,531,531,526,512,494,417,355,296,242,199,153,141,130,125,121,110,103,96],"timestamp_mouse":[4,24,43,63,83,104,123,143,163,185,203,224,245,263,284,304,323,344,365,384,403,424,445,463,483,503,523,543,563,583,603,624,643,664,684,703,723,743,763,785,803,824,843,863,884,903,923,945],"xSR":741.5,"ySR":469.95,"xT1":424.9,"yT1":0,"xT2":1058.1,"yT2":0,"toosoon":0,"cond_shown":"equaldotanddens","ratio_trial":900,"smaller_num":"18","larger_num":"20","correct_side":1,"subjID":"SaraElianaGuevaraFino20","gender":"1","age":"11","school":"6"},{"start_time":1551790725955,"click_time":1551790727128,"finger_time":1551790726669,"fix_duration":806.5742827134718,"trial":11,"RT":714,"MT":459,"sideResp":1,"stimulus":"img/900/randomdotsizeEA/L/4_Ratio_900_L_20_R_18.png","xmouse":[804,804,804,804,804,804,804,804,804,804,804,804,804,804,804,804,804,804,804,804,804,804,804,804,804,804,804,804,804,804,804,802,798,786,765,659,566,508,455,424,410,409,409,409,409,407,407,407,407,407,408,410,413,413,414,418,420,424,426],"ymouse":[512,512,512,512,512,512,512,512,512,512,512,512,512,512,512,512,512,512,512,512,512,512,512,512,512,512,512,512,512,512,512,510,507,495,474,367,263,193,132,94,69,69,68,66,63,50,45,44,44,44,43,43,43,43,43,43,43,43,46],"timestamp_mouse":[16,33,53,74,94,114,133,154,174,193,214,233,255,273,294,313,335,354,373,394,413,434,453,473,495,513,534,554,574,593,613,633,654,673,693,714,734,753,774,793,813,833,854,873,893,913,933,953,973,993,1013,1033,1053,1073,1093,1113,1133,1153,1173],"xSR":741.5,"ySR":469.95,"xT1":424.9,"yT1":0,"xT2":1058.1,"yT2":0,"toosoon":0,"cond_shown":"randomdotsizeEA","ratio_trial":900,"smaller_num":"18","larger_num":"20","correct_side":1,"subjID":"SaraElianaGuevaraFino20","gender":"1","age":"11","school":"6"},{"start_time":1551790729521,"click_time":1551790730588,"finger_time":1551790730229,"fix_duration":1492.864133988636,"trial":12,"RT":708,"MT":359,"sideResp":1,"stimulus":"img/500/equaldotsize/L/13_Ratio_500_L_12_R_6.png","xmouse":[803,803,803,803,803,803,803,803,803,803,803,803,803,803,803,803,803,803,803,803,803,803,805,805,806,806,806,806,807,807,808,808,808,806,800,791,779,724,663,623,595,580,572,570,568,565,561,552,548,543,538,535,526,521],"ymouse":[506,506,506,506,506,506,506,506,506,506,506,506,506,506,506,506,506,506,506,506,506,506,505,505,504,504,504,504,504,503,503,503,498,491,480,462,439,360,289,248,209,186,155,141,129,115,102,84,79,75,74,73,73,73],"timestamp_mouse":[9,27,49,67,87,107,128,147,168,188,207,228,248,267,287,307,327,347,367,388,409,427,447,468,487,507,528,547,568,588,608,627,648,667,687,708,728,747,767,788,809,828,847,867,887,907,928,947,967,987,1007,1027,1047,1067],"xSR":741.5,"ySR":469.95,"xT1":424.9,"yT1":0,"xT2":1058.1,"yT2":0,"toosoon":0,"cond_shown":"equaldotsize","ratio_trial":500,"smaller_num":"6","larger_num":"12","correct_side":1,"subjID":"SaraElianaGuevaraFino20","gender":"1","age":"11","school":"6"},{"start_time":1551790732857,"click_time":1551790734288,"finger_time":1551790733689,"fix_duration":1208.7660532962898,"trial":13,"RT":832,"MT":599,"sideResp":1,"stimulus":"img/750/equaldotanddens/L/14_Ratio_750_L_8_R_6.png","xmouse":[799,799,799,799,799,799,799,799,799,799,799,799,799,799,799,799,799,799,799,799,799,799,799,799,799,799,799,799,799,799,799,799,799,799,799,799,799,797,796,794,775,730,695,667,654,655,656,656,655,649,621,599,570,560,557,556,554,553,551,551,547,543,538,535,533,530,528,522,515,509,508,507],"ymouse":[511,511,511,511,511,511,511,511,511,511,511,511,511,511,511,511,511,511,511,511,511,511,511,511,511,511,511,511,511,511,511,511,511,511,511,511,511,511,509,504,476,424,379,336,302,271,266,263,260,254,229,210,187,179,174,172,170,169,164,161,142,133,125,119,115,109,107,106,104,102,100,96],"timestamp_mouse":[14,32,51,71,92,112,133,151,172,191,212,231,251,271,291,312,332,351,371,391,411,432,451,472,492,511,531,551,573,592,611,632,653,671,691,711,731,752,771,791,812,832,851,871,891,912,931,951,971,991,1011,1032,1051,1071,1091,1111,1131,1152,1172,1192,1211,1231,1251,1271,1292,1311,1331,1351,1371,1392,1411,1431],"xSR":741.5,"ySR":469.95,"xT1":424.9,"yT1":0,"xT2":1058.1,"yT2":0,"toosoon":0,"cond_shown":"equaldotanddens","ratio_trial":750,"smaller_num":"6","larger_num":"8","correct_side":1,"subjID":"SaraElianaGuevaraFino20","gender":"1","age":"11","school":"6"},{"start_time":1551790735459,"click_time":1551790736568,"finger_time":1551790736088,"fix_duration":250,"trial":14,"RT":629,"MT":480,"sideResp":2,"stimulus":"img/900/equaldotanddens/R/5_Ratio_900_L_9_R_10.png","xmouse":[778,778,778,778,778,778,778,778,778,778,778,778,778,778,778,778,778,778,778,778,778,778,778,778,778,778,778,780,781,785,807,826,856,884,915,968,990,1010,1022,1027,1027,1025,1024,1024,1024,1023,1022,1022,1022,1022,1028,1036,1041,1049,1056,1068],"ymouse":[514,514,514,514,514,514,514,514,514,514,514,514,514,514,514,514,514,514,514,514,514,514,514,514,514,514,514,513,511,506,482,464,430,391,345,245,210,186,171,166,160,155,142,134,124,113,110,108,107,106,105,104,103,101,99,95],"timestamp_mouse":[15,30,50,71,89,109,129,150,169,189,210,229,249,270,290,309,330,349,369,389,410,430,450,469,489,510,529,549,569,590,610,629,649,669,690,710,729,749,769,789,809,829,849,870,889,909,929,950,969,990,1009,1029,1049,1069,1089,1109],"xSR":741.5,"ySR":469.95,"xT1":424.9,"yT1":0,"xT2":1058.1,"yT2":0,"toosoon":0,"cond_shown":"equaldotanddens","ratio_trial":900,"smaller_num":"9","larger_num":"10","correct_side":2,"subjID":"SaraElianaGuevaraFino20","gender":"1","age":"11","school":"6"},{"start_time":1551790738530,"click_time":1551790739529,"finger_time":1551790739428,"fix_duration":860.8310740631614,"trial":15,"RT":898,"MT":101,"sideResp":1,"stimulus":"img/250/randomdotsizeEA/L/7_Ratio_250_L_8_R_2.png","xmouse":[795,795,795,795,795,795,795,795,795,795,795,795,795,795,795,795,795,795,795,795,795,795,795,795,795,795,795,795,795,795,795,795,795,795,795,795,795,795,795,795,795,795,795,786,772,742,662,585,539,504],"ymouse":[512,512,512,512,513,513,513,513,513,513,513,513,513,513,513,513,513,513,513,513,513,513,513,513,513,513,513,513,513,513,513,513,513,513,513,513,513,513,513,513,513,513,505,489,464,409,273,173,122,86],"timestamp_mouse":[19,39,58,78,99,119,139,160,178,198,218,239,258,278,300,318,338,359,378,399,418,438,458,478,498,519,538,559,578,599,618,639,658,679,699,719,738,758,779,800,818,838,859,878,898,918,938,958,978,999],"xSR":741.5,"ySR":469.95,"xT1":424.9,"yT1":0,"xT2":1058.1,"yT2":0,"toosoon":0,"cond_shown":"randomdotsizeEA","ratio_trial":250,"smaller_num":"2","larger_num":"8","correct_side":1,"subjID":"SaraElianaGuevaraFino20","gender":"1","age":"11","school":"6"},{"start_time":1551790741411,"click_time":1551790742748,"finger_time":1551790742329,"fix_duration":1142.1894327886148,"trial":16,"RT":918,"MT":419,"sideResp":1,"stimulus":"img/750/equaldotanddens/L/9_Ratio_750_L_4_R_3.png","xmouse":[796,796,796,796,796,796,796,796,796,796,796,796,796,796,796,796,796,796,796,796,796,796,796,796,796,796,796,796,796,796,796,796,796,796,796,796,796,796,796,796,796,796,796,793,776,760,735,680,651,634,624,621,616,606,593,577,560,533,524,518,513,511,510,510,510,511,511],"ymouse":[503,503,503,503,503,503,503,503,503,503,503,503,503,503,503,503,503,503,503,503,503,503,503,503,503,503,503,503,503,503,503,503,503,503,503,503,503,503,503,503,503,503,501,498,478,457,423,352,323,305,296,293,282,264,244,224,203,164,147,134,121,116,112,111,107,101,96],"timestamp_mouse":[18,38,58,77,97,117,137,158,177,198,219,237,257,277,298,319,338,357,378,398,417,437,457,478,497,519,537,558,577,598,618,637,658,677,698,719,737,757,777,797,818,838,857,877,897,918,937,957,977,998,1017,1037,1057,1078,1098,1117,1137,1157,1177,1198,1218,1237,1258,1277,1297,1317,1337],"xSR":741.5,"ySR":469.95,"xT1":424.9,"yT1":0,"xT2":1058.1,"yT2":0,"toosoon":0,"cond_shown":"equaldotanddens","ratio_trial":750,"smaller_num":"3","larger_num":"4","correct_side":1,"subjID":"SaraElianaGuevaraFino20","gender":"1","age":"11","school":"6"},{"start_time":1551790745831,"click_time":1551790747228,"finger_time":1551790746928,"fix_duration":821.250544625751,"trial":17,"RT":1097,"MT":300,"sideResp":1,"stimulus":"img/900/randomdotsizeEA/L/2_Ratio_900_L_20_R_18.png","xmouse":[818,818,818,818,818,817,815,814,813,812,812,812,812,812,812,812,812,812,812,812,812,812,812,812,812,812,812,812,812,812,812,812,812,812,812,812,812,810,808,808,806,806,806,806,806,806,806,806,806,806,806,803,796,779,755,721,658,637,619,611,607,602,599,597,594,589,565,549,535,522],"ymouse":[521,521,521,521,521,520,520,520,520,520,520,520,520,520,520,520,520,520,520,520,520,520,520,520,520,520,520,520,520,520,520,520,520,520,520,520,520,518,516,514,512,510,510,510,510,510,510,510,510,510,510,506,499,480,454,414,330,296,262,240,222,197,182,172,162,150,122,108,96,86],"timestamp_mouse":[18,38,59,77,99,117,138,158,179,199,217,238,257,279,299,318,337,357,378,397,417,438,458,477,499,519,537,559,578,598,617,638,658,677,698,717,737,757,779,798,818,837,857,879,897,918,937,957,978,997,1018,1037,1058,1078,1097,1117,1137,1157,1177,1197,1217,1237,1258,1277,1298,1318,1337,1357,1378,1397],"xSR":741.5,"ySR":469.95,"xT1":424.9,"yT1":0,"xT2":1058.1,"yT2":0,"toosoon":0,"cond_shown":"randomdotsizeEA","ratio_trial":900,"smaller_num":"18","larger_num":"20","correct_side":1,"subjID":"SaraElianaGuevaraFino20","gender":"1","age":"11","school":"6"},{"start_time":1551790748763,"click_time":1551790749968,"finger_time":1551790749448,"fix_duration":512.5110401348452,"trial":18,"RT":685,"MT":520,"sideResp":2,"stimulus":"img/500/equaldotanddens/R/6_Ratio_500_L_9_R_18.png","xmouse":[796,796,796,796,796,796,796,796,796,796,794,792,792,792,792,792,792,792,792,792,792,792,792,792,792,792,792,792,792,792,792,792,795,804,820,846,858,863,868,873,894,908,919,928,938,952,970,984,995,1007,1022,1026,1031,1035,1039,1041,1041,1042,1047,1058,1073],"ymouse":[499,499,499,499,499,499,499,499,499,499,499,499,499,499,499,499,499,499,499,499,499,499,499,499,499,499,499,499,499,499,499,495,490,474,455,427,414,409,403,397,378,367,357,348,338,316,285,260,235,208,157,137,119,106,98,96,95,95,95,93,89],"timestamp_mouse":[13,26,46,67,85,106,126,145,165,186,206,227,245,265,286,305,325,346,365,385,406,426,445,466,486,506,525,545,566,586,605,625,646,666,685,705,726,745,765,785,805,825,845,866,887,905,925,945,966,985,1005,1025,1046,1065,1087,1105,1125,1145,1166,1185,1205],"xSR":741.5,"ySR":469.95,"xT1":424.9,"yT1":0,"xT2":1058.1,"yT2":0,"toosoon":0,"cond_shown":"equaldotanddens","ratio_trial":500,"smaller_num":"9","larger_num":"18","correct_side":2,"subjID":"SaraElianaGuevaraFino20","gender":"1","age":"11","school":"6"},{"start_time":1551790750919,"click_time":1551790752388,"finger_time":1551790751848,"fix_duration":250,"trial":19,"RT":929,"MT":540,"sideResp":1,"stimulus":"img/900/randomdotsizeEA/R/9_Ratio_900_L_18_R_20.png","xmouse":[796,796,796,796,796,796,796,796,796,796,796,796,796,796,796,796,796,796,796,796,796,796,796,796,796,796,796,796,796,796,796,796,796,796,796,796,796,796,796,796,796,796,794,785,772,754,735,684,659,629,614,602,586,584,581,581,580,579,579,579,579,576,569,565,563,563,560,555,552,547,542,537,525,519],"ymouse":[533,533,533,533,533,533,533,533,533,533,533,533,533,533,533,533,533,533,533,533,533,533,533,533,533,533,533,533,533,533,533,533,533,533,533,533,533,533,533,533,533,533,525,512,494,474,454,415,398,373,357,339,309,298,287,277,267,254,244,237,227,213,187,176,169,163,157,151,147,137,128,116,96,88],"timestamp_mouse":[10,31,50,69,89,111,130,150,170,189,211,230,250,270,289,310,330,350,370,389,410,430,450,469,490,510,529,549,570,590,610,629,649,670,689,710,730,749,769,791,809,830,849,870,890,910,929,949,969,989,1010,1030,1049,1070,1089,1109,1130,1149,1170,1189,1209,1230,1249,1270,1291,1309,1329,1349,1369,1390,1411,1430,1449,1469],"xSR":741.5,"ySR":469.95,"xT1":424.9,"yT1":0,"xT2":1058.1,"yT2":0,"toosoon":0,"cond_shown":"randomdotsizeEA","ratio_trial":900,"smaller_num":"18","larger_num":"20","correct_side":2,"subjID":"SaraElianaGuevaraFino20","gender":"1","age":"11","school":"6"},{"start_time":1551790754680,"click_time":1551790756810,"finger_time":1551790756028,"fix_duration":1109.9374230390063,"trial":20,"RT":1348,"MT":782,"sideResp":2,"stimulus":"img/750/randomdotsizeEA/R/15_Ratio_750_L_9_R_12.png","xmouse":[803,803,803,803,803,803,803,803,803,803,803,803,803,803,803,803,803,803,803,803,803,803,803,803,803,803,803,803,803,803,803,803,803,803,803,803,803,803,803,803,803,803,803,803,804,810,810,810,810,810,810,810,810,810,810,810,810,810,810,810,810,810,811,811,817,822,829,843,854,857,857,857,857,858,858,858,858,858,860,875,908,944,968,986,1020,1032,1038,1040,1040,1038,1037,1034,1032,1031,1030,1031,1036,1044,1055,1081,1083,1083,1083,1082,1074,1072,1069],"ymouse":[514,514,514,514,515,515,515,516,516,516,516,516,516,516,516,516,516,516,516,516,516,516,516,516,516,516,516,516,516,516,516,516,516,516,516,516,516,516,516,516,516,516,516,516,516,516,516,516,516,516,516,516,516,516,516,516,516,516,516,516,516,516,516,515,492,484,474,457,433,427,427,426,424,419,416,416,416,415,412,405,401,394,383,373,349,337,331,326,320,299,289,278,273,268,255,244,236,225,214,184,171,157,144,129,110,105,98],"timestamp_mouse":[9,30,49,68,89,109,129,149,169,189,208,230,250,269,289,309,328,348,369,389,409,430,449,468,489,509,530,548,570,590,608,629,650,670,688,709,730,748,769,789,810,829,850,870,889,908,929,949,968,988,1009,1028,1049,1068,1088,1110,1128,1148,1169,1189,1208,1230,1250,1269,1288,1308,1329,1348,1369,1389,1410,1428,1448,1468,1489,1510,1529,1548,1568,1588,1609,1629,1649,1668,1689,1708,1729,1748,1769,1788,1809,1829,1848,1868,1888,1909,1928,1949,1969,1988,2010,2028,2049,2068,2088,2108,2130],"xSR":741.5,"ySR":469.95,"xT1":424.9,"yT1":0,"xT2":1058.1,"yT2":0,"toosoon":0,"cond_shown":"randomdotsizeEA","ratio_trial":750,"smaller_num":"9","larger_num":"12","correct_side":2,"subjID":"SaraElianaGuevaraFino20","gender":"1","age":"11","school":"6"},{"start_time":1551790758980,"click_time":1551790760168,"finger_time":1551790759669,"fix_duration":1290.5122322769498,"trial":21,"RT":689,"MT":499,"sideResp":2,"stimulus":"img/250/equaldotsize/R/9_Ratio_250_L_3_R_12.png","xmouse":[784,784,784,785,785,785,785,785,785,785,785,785,785,785,785,785,785,785,785,785,785,785,785,785,785,785,785,785,785,785,785,788,789,800,872,917,958,970,981,1001,1015,1027,1038,1045,1055,1058,1060,1063,1066,1071,1073,1075,1076,1078,1081,1082,1082,1084,1084,1088],"ymouse":[529,529,529,529,529,529,529,529,529,529,529,529,529,529,529,529,529,529,529,529,529,529,529,529,529,529,529,529,529,529,529,528,527,514,438,391,342,320,300,268,251,234,215,200,168,148,143,137,134,129,126,122,119,116,109,107,104,103,101,94],"timestamp_mouse":[11,29,49,70,89,109,128,148,168,190,209,228,249,269,288,309,328,350,369,388,408,428,449,469,489,508,529,549,569,588,608,628,648,670,689,708,728,749,768,789,808,828,849,869,888,909,928,949,968,989,1008,1029,1049,1070,1088,1108,1128,1149,1168,1188],"xSR":741.5,"ySR":469.95,"xT1":424.9,"yT1":0,"xT2":1058.1,"yT2":0,"toosoon":0,"cond_shown":"equaldotsize","ratio_trial":250,"smaller_num":"3","larger_num":"12","correct_side":2,"subjID":"SaraElianaGuevaraFino20","gender":"1","age":"11","school":"6"},{"start_time":1551790762349,"click_time":1551790763610,"finger_time":1551790763369,"fix_duration":1298.6494748074576,"trial":22,"RT":1020,"MT":241,"sideResp":2,"stimulus":"img/900/equaldotsize/R/14_Ratio_900_L_18_R_20.png","xmouse":[794,794,794,794,794,794,794,794,794,794,794,794,794,794,794,794,794,794,794,794,794,794,794,794,794,794,794,794,794,794,794,794,794,794,794,794,794,794,794,794,794,794,794,794,794,794,794,794,794,796,805,887,939,981,1011,1027,1039,1043,1046,1049,1055,1065,1068,1073],"ymouse":[520,520,520,520,520,520,520,520,520,520,520,520,520,520,520,520,520,520,520,520,520,520,520,520,520,520,520,520,520,520,520,520,520,520,520,520,520,520,520,520,520,520,520,520,520,520,520,520,520,512,502,435,385,336,290,254,203,179,168,159,149,120,109,97],"timestamp_mouse":[1,24,39,59,80,99,120,139,159,180,199,219,240,259,281,299,319,339,360,379,401,420,439,459,480,499,520,539,561,580,599,620,641,660,680,700,720,741,760,780,800,819,840,859,881,900,919,939,960,980,999,1020,1039,1059,1080,1100,1119,1140,1160,1180,1199,1220,1240,1261],"xSR":741.5,"ySR":469.95,"xT1":424.9,"yT1":0,"xT2":1058.1,"yT2":0,"toosoon":0,"cond_shown":"equaldotsize","ratio_trial":900,"smaller_num":"18","larger_num":"20","correct_side":2,"subjID":"SaraElianaGuevaraFino20","gender":"1","age":"11","school":"6"},{"start_time":1551790764740,"click_time":1551790765668,"finger_time":1551790765388,"fix_duration":330.11285138397693,"trial":23,"RT":648,"MT":280,"sideResp":2,"stimulus":"img/250/equaldotanddens/R/4_Ratio_250_L_3_R_12.png","xmouse":[783,783,783,783,783,783,783,783,783,783,783,783,783,783,783,783,783,783,783,783,783,783,783,783,783,783,783,783,783,783,784,812,849,891,940,977,1024,1035,1051,1063,1072,1083,1087,1089,1091,1093,1098],"ymouse":[544,544,544,544,544,544,544,544,544,544,544,544,544,544,544,544,544,544,544,544,544,544,544,544,544,544,544,544,544,544,542,503,451,384,313,247,162,147,137,132,127,120,116,113,108,105,99],"timestamp_mouse":[8,29,49,69,89,109,128,148,169,189,209,229,248,269,288,308,329,350,370,388,408,429,450,469,489,508,529,549,568,589,609,629,648,669,689,708,728,750,768,788,808,829,849,868,889,910,928],"xSR":741.5,"ySR":469.95,"xT1":424.9,"yT1":0,"xT2":1058.1,"yT2":0,"toosoon":0,"cond_shown":"equaldotanddens","ratio_trial":250,"smaller_num":"3","larger_num":"12","correct_side":2,"subjID":"SaraElianaGuevaraFino20","gender":"1","age":"11","school":"6"},{"start_time":1551790767210,"click_time":1551790768749,"finger_time":1551790768250,"fix_duration":841.6908529975431,"trial":24,"RT":1040,"MT":499,"sideResp":2,"stimulus":"img/500/randomdotsizeEA/R/2_Ratio_500_L_3_R_6.png","xmouse":[802,802,802,802,802,802,802,802,802,802,802,802,802,802,802,802,802,802,802,802,802,802,802,802,802,802,802,802,802,802,802,802,802,802,802,802,802,802,802,802,802,802,802,802,802,802,802,802,802,802,818,863,1055,1214,1279,1311,1324,1333,1338,1347,1355,1360,1362,1362,1354,1338,1316,1282,1264,1250,1237,1225,1200,1187,1172,1165,1157],"ymouse":[524,524,524,524,524,524,524,524,524,524,524,524,524,524,524,524,524,524,524,524,524,524,524,524,524,524,524,524,524,524,524,524,524,524,524,524,524,524,524,524,524,524,524,524,524,524,524,524,522,520,497,443,290,215,194,185,180,172,164,152,135,117,93,86,79,73,67,62,59,57,57,57,57,57,57,57,57],"timestamp_mouse":[19,38,60,80,100,119,139,159,178,200,219,238,259,278,300,320,340,359,378,399,419,439,459,478,499,520,538,559,579,600,618,638,659,678,699,718,739,758,779,799,818,839,859,880,899,918,940,959,979,998,1019,1040,1058,1079,1099,1118,1139,1159,1178,1198,1218,1238,1258,1280,1298,1319,1339,1359,1379,1398,1418,1439,1458,1478,1498,1519,1539],"xSR":741.5,"ySR":469.95,"xT1":424.9,"yT1":0,"xT2":1058.1,"yT2":0,"toosoon":0,"cond_shown":"randomdotsizeEA","ratio_trial":500,"smaller_num":"3","larger_num":"6","correct_side":2,"subjID":"SaraElianaGuevaraFino20","gender":"1","age":"11","school":"6"},{"start_time":1551790769799,"click_time":1551790771529,"finger_time":1551790771169,"fix_duration":250,"trial":25,"RT":1370,"MT":360,"sideResp":2,"stimulus":"img/900/randomdotsizeEA/R/9_Ratio_900_L_18_R_20.png","xmouse":[795,795,795,795,795,795,795,795,795,795,795,795,795,796,796,796,796,796,796,796,796,796,796,796,796,796,796,796,796,796,796,796,796,796,796,796,796,796,796,796,796,796,796,796,796,796,796,796,796,796,796,796,796,796,796,796,796,796,796,796,796,796,796,796,798,800,802,805,809,811,812,812,813,813,813,813,814,817,837,861,889,927,968,1009,1077,1109,1122],"ymouse":[547,547,547,547,547,547,547,547,547,547,547,546,545,544,544,544,544,543,543,543,543,543,543,543,543,543,543,543,543,543,543,543,543,543,543,543,543,543,543,543,543,543,543,543,543,543,543,543,543,543,543,543,543,543,543,543,543,543,543,543,543,543,541,534,517,500,484,472,457,452,450,447,446,445,445,444,443,436,408,378,341,291,236,192,131,106,94],"timestamp_mouse":[10,31,50,70,90,111,130,149,170,190,209,229,250,270,289,310,331,350,369,389,410,429,451,470,489,509,530,549,571,590,610,629,650,670,690,711,730,749,770,790,809,830,850,869,889,911,929,950,969,991,1010,1030,1049,1070,1091,1109,1131,1151,1169,1190,1211,1230,1250,1269,1290,1310,1330,1350,1370,1389,1409,1429,1450,1470,1490,1509,1529,1549,1569,1589,1610,1630,1650,1669,1690,1709,1730],"xSR":741.5,"ySR":469.95,"xT1":424.9,"yT1":0,"xT2":1058.1,"yT2":0,"toosoon":0,"cond_shown":"randomdotsizeEA","ratio_trial":900,"smaller_num":"18","larger_num":"20","correct_side":2,"subjID":"SaraElianaGuevaraFino20","gender":"1","age":"11","school":"6"},{"start_time":1551790776512,"click_time":1551790777869,"finger_time":1551790777369,"fix_duration":821.7005890422291,"trial":26,"RT":857,"MT":500,"sideResp":2,"stimulus":"img/900/randomdotsizeEA/L/4_Ratio_900_L_20_R_18.png","xmouse":[790,790,790,790,790,790,790,790,790,790,790,790,790,790,790,790,790,790,790,790,790,790,790,790,790,790,790,790,790,790,790,790,790,790,790,790,789,788,787,787,787,787,812,833,867,909,966,1084,1116,1135,1140,1143,1144,1144,1144,1144,1144,1142,1141,1140,1136,1134,1127,1125,1124,1123,1123,1123],"ymouse":[522,522,522,522,522,522,522,522,522,522,522,522,522,522,522,522,522,522,522,522,522,522,522,522,522,522,522,522,522,522,522,522,522,521,521,520,520,519,519,517,513,506,462,430,390,355,319,257,239,216,198,180,158,152,147,142,139,133,129,126,121,118,109,105,102,101,100,99],"timestamp_mouse":[17,37,57,77,97,116,136,156,176,197,217,237,257,276,297,316,337,357,376,397,417,437,456,478,496,516,537,557,577,597,617,636,657,676,696,717,737,756,776,796,817,836,857,876,897,917,937,956,976,996,1017,1036,1056,1076,1097,1117,1137,1156,1176,1197,1218,1237,1257,1276,1296,1317,1336,1357],"xSR":741.5,"ySR":469.95,"xT1":424.9,"yT1":0,"xT2":1058.1,"yT2":0,"toosoon":0,"cond_shown":"randomdotsizeEA","ratio_trial":900,"smaller_num":"18","larger_num":"20","correct_side":1,"subjID":"SaraElianaGuevaraFino20","gender":"1","age":"11","school":"6"},{"start_time":1551790779969,"click_time":1551790781029,"finger_time":1551790780669,"fix_duration":1099.2898967704155,"trial":27,"RT":700,"MT":360,"sideResp":2,"stimulus":"img/500/equaldotsize/R/1_Ratio_500_L_9_R_18.png","xmouse":[788,788,789,789,789,789,789,789,789,789,789,789,790,790,790,790,790,790,790,790,790,790,790,790,790,790,790,790,790,790,790,790,790,794,801,849,889,930,942,950,960,964,966,968,974,993,1006,1028,1042,1056,1072,1082,1089,1096],"ymouse":[533,532,531,530,530,529,529,529,529,529,529,528,528,528,528,528,528,528,528,528,527,527,526,526,526,526,526,526,526,526,526,526,526,520,511,444,387,299,267,249,222,209,200,191,180,150,136,120,115,111,107,105,102,99],"timestamp_mouse":[0,19,40,60,81,99,120,140,161,179,200,220,241,259,280,300,321,340,361,381,400,419,439,460,481,500,519,540,561,580,599,621,639,660,680,700,719,739,760,780,800,819,840,859,880,899,919,940,960,980,1000,1019,1041,1060],"xSR":741.5,"ySR":469.95,"xT1":424.9,"yT1":0,"xT2":1058.1,"yT2":0,"toosoon":0,"cond_shown":"equaldotsize","ratio_trial":500,"smaller_num":"9","larger_num":"18","correct_side":2,"subjID":"SaraElianaGuevaraFino20","gender":"1","age":"11","school":"6"},{"start_time":1551790782039,"click_time":1551790783130,"finger_time":1551790782748,"fix_duration":250,"trial":28,"RT":709,"MT":382,"sideResp":1,"stimulus":"img/500/equaldotsize/L/4_Ratio_500_L_18_R_9.png","xmouse":[803,803,803,803,803,803,803,803,803,803,803,803,803,803,803,803,803,803,803,803,803,803,803,803,803,803,803,803,803,803,803,803,799,791,769,733,662,642,629,622,615,597,587,577,568,563,557,556,555,552,547,529,517,494,478],"ymouse":[525,525,525,525,525,525,525,525,525,525,525,525,525,525,525,525,525,525,525,525,525,525,525,525,525,525,525,525,525,525,525,525,525,515,490,449,373,348,334,325,317,293,278,258,237,219,193,185,177,169,160,133,118,104,94],"timestamp_mouse":[11,30,50,69,90,109,129,149,170,189,209,230,250,269,291,311,330,349,371,391,410,430,449,470,490,510,530,551,571,590,610,630,650,670,689,709,729,749,770,790,811,829,850,869,889,909,930,949,969,990,1011,1029,1049,1069,1091],"xSR":741.5,"ySR":469.95,"xT1":424.9,"yT1":0,"xT2":1058.1,"yT2":0,"toosoon":0,"cond_shown":"equaldotsize","ratio_trial":500,"smaller_num":"9","larger_num":"18","correct_side":1,"subjID":"SaraElianaGuevaraFino20","gender":"1","age":"11","school":"6"},{"start_time":1551790784283,"click_time":1551790785968,"finger_time":1551790785628,"fix_duration":474.24921018031876,"trial":29,"RT":1345,"MT":340,"sideResp":1,"stimulus":"img/750/equaldotanddens/L/9_Ratio_750_L_4_R_3.png","xmouse":[808,808,808,808,808,808,808,808,808,808,808,808,808,808,808,808,808,808,808,808,808,808,808,808,808,808,808,808,808,808,808,808,808,808,808,808,808,808,808,808,808,808,808,808,808,808,808,808,808,808,808,808,808,808,808,808,808,808,808,808,808,808,806,804,789,776,761,745,727,680,662,638,624,611,579,560,536,516,502,492,491,489,489,489,494],"ymouse":[524,524,524,524,524,524,524,524,524,524,524,524,524,524,524,524,524,524,524,524,524,524,524,524,524,524,524,524,524,524,524,524,524,524,524,524,524,524,524,524,524,524,524,524,524,524,524,524,524,524,524,524,524,524,524,524,524,524,524,524,524,524,524,524,509,495,476,453,428,360,335,302,285,267,224,206,189,174,162,147,144,139,133,117,94],"timestamp_mouse":[6,26,46,66,86,107,126,146,166,186,205,227,246,266,285,306,325,345,366,386,406,425,445,466,486,505,525,546,566,586,606,626,645,665,685,706,725,746,766,786,806,826,845,865,886,906,926,945,966,985,1005,1025,1045,1066,1086,1105,1125,1146,1165,1187,1205,1225,1247,1266,1286,1306,1325,1345,1367,1385,1406,1425,1446,1465,1486,1506,1526,1547,1565,1585,1605,1626,1646,1665,1685],"xSR":741.5,"ySR":469.95,"xT1":424.9,"yT1":0,"xT2":1058.1,"yT2":0,"toosoon":0,"cond_shown":"equaldotanddens","ratio_trial":750,"smaller_num":"3","larger_num":"4","correct_side":1,"subjID":"SaraElianaGuevaraFino20","gender":"1","age":"11","school":"6"},{"start_time":1551790787820,"click_time":1551790789249,"finger_time":1551790788769,"fix_duration":871.1072584322502,"trial":30,"RT":949,"MT":480,"sideResp":2,"stimulus":"img/250/randomdotsizeEA/R/12_Ratio_250_L_5_R_20.png","xmouse":[811,811,811,811,811,811,811,811,811,811,811,811,811,811,811,811,811,811,811,811,811,811,811,811,811,811,811,811,811,811,811,811,811,811,811,811,811,811,811,811,811,811,811,810,814,822,830,858,880,916,960,1017,1138,1207,1235,1246,1249,1254,1256,1258,1259,1259,1256,1248,1242,1231,1221,1196,1185,1172,1161,1150],"ymouse":[523,523,523,523,523,523,523,523,523,523,523,523,523,523,523,523,523,523,523,523,523,523,523,523,523,523,523,523,523,523,523,523,523,523,523,523,523,523,523,523,523,523,523,521,513,496,475,415,378,338,302,268,213,184,172,166,163,158,154,148,139,133,121,117,115,113,110,104,104,102,100,99],"timestamp_mouse":[10,29,49,68,89,108,130,149,168,190,208,228,249,269,289,308,328,349,370,389,409,429,448,470,490,508,528,549,569,590,608,629,648,668,690,708,728,749,768,788,810,828,849,869,889,908,929,949,969,989,1009,1029,1048,1069,1089,1108,1129,1149,1168,1189,1209,1228,1248,1268,1289,1309,1328,1349,1368,1389,1408,1429],"xSR":741.5,"ySR":469.95,"xT1":424.9,"yT1":0,"xT2":1058.1,"yT2":0,"toosoon":0,"cond_shown":"randomdotsizeEA","ratio_trial":250,"smaller_num":"5","larger_num":"20","correct_side":2,"subjID":"SaraElianaGuevaraFino20","gender":"1","age":"11","school":"6"},{"start_time":1551790791238,"click_time":1551790792208,"finger_time":1551790791889,"fix_duration":1069.76767451598,"trial":31,"RT":651,"MT":319,"sideResp":2,"stimulus":"img/500/equaldotanddens/R/1_Ratio_500_L_9_R_18.png","xmouse":[789,789,789,789,789,789,789,789,789,789,789,789,789,789,789,789,789,789,789,789,789,789,789,789,789,789,789,789,792,794,799,835,906,964,1007,1034,1062,1069,1073,1076,1077,1076,1071,1064,1059,1057,1057,1058,1061],"ymouse":[510,510,510,510,510,510,510,510,510,510,510,510,510,510,510,510,510,510,510,510,510,510,510,510,510,510,510,510,510,510,507,475,415,371,337,313,288,280,274,268,253,213,175,152,134,120,96,86,76],"timestamp_mouse":[12,31,51,70,92,111,131,151,171,191,211,230,251,272,291,310,332,351,370,391,412,431,451,471,490,511,531,551,570,591,610,630,651,670,690,711,730,750,771,791,811,830,851,870,892,910,931,950,970],"xSR":741.5,"ySR":469.95,"xT1":424.9,"yT1":0,"xT2":1058.1,"yT2":0,"toosoon":0,"cond_shown":"equaldotanddens","ratio_trial":500,"smaller_num":"9","larger_num":"18","correct_side":2,"subjID":"SaraElianaGuevaraFino20","gender":"1","age":"11","school":"6"},{"start_time":1551790793369,"click_time":1551790794268,"finger_time":1551790793969,"fix_duration":360.75087612969435,"trial":32,"RT":600,"MT":299,"sideResp":2,"stimulus":"img/250/equaldotsize/R/10_Ratio_250_L_4_R_16.png","xmouse":[799,799,799,799,799,799,799,799,799,799,799,799,799,799,799,799,799,799,799,799,799,799,799,799,799,799,799,799,811,860,907,946,974,995,1010,1011,1015,1017,1021,1025,1026,1029,1037,1050,1073],"ymouse":[544,544,544,544,544,544,544,544,544,544,544,544,544,544,544,544,544,544,544,544,544,544,544,544,544,544,544,544,534,485,434,379,319,266,187,149,123,102,84,62,59,55,53,49,42],"timestamp_mouse":[19,39,60,79,100,119,141,160,180,200,219,239,260,279,301,321,340,360,379,399,419,439,460,480,500,519,539,560,580,600,620,639,659,680,699,719,740,760,779,800,819,840,859,880,899],"xSR":741.5,"ySR":469.95,"xT1":424.9,"yT1":0,"xT2":1058.1,"yT2":0,"toosoon":0,"cond_shown":"equaldotsize","ratio_trial":250,"smaller_num":"4","larger_num":"16","correct_side":2,"subjID":"SaraElianaGuevaraFino20","gender":"1","age":"11","school":"6"},{"start_time":1551790796239,"click_time":1551790797009,"finger_time":1551790796888,"fix_duration":1148.811097543491,"trial":33,"RT":649,"MT":121,"sideResp":1,"stimulus":"img/500/equaldotanddens/L/13_Ratio_500_L_12_R_6.png","xmouse":[807,807,807,807,807,807,807,807,807,807,807,806,806,806,807,808,810,810,810,810,810,810,810,810,810,810,810,810,810,810,811,802,781,719,670,628,555,527,502],"ymouse":[526,526,526,526,526,526,526,526,526,526,526,527,523,520,516,514,513,513,513,513,513,513,513,513,513,513,513,513,513,513,512,493,463,387,326,266,157,114,78],"timestamp_mouse":[11,30,50,70,90,110,129,149,170,190,210,230,249,269,291,310,330,349,369,391,411,429,450,470,489,510,531,551,569,590,611,630,649,670,690,710,730,749,770],"xSR":741.5,"ySR":469.95,"xT1":424.9,"yT1":0,"xT2":1058.1,"yT2":0,"toosoon":0,"cond_shown":"equaldotanddens","ratio_trial":500,"smaller_num":"6","larger_num":"12","correct_side":1,"subjID":"SaraElianaGuevaraFino20","gender":"1","age":"11","school":"6"},{"start_time":1551790798219,"click_time":1551790800389,"finger_time":1551790800069,"fix_duration":250,"trial":34,"RT":1850,"MT":320,"sideResp":1,"stimulus":"img/750/randomdotsizeEA/L/6_Ratio_750_L_24_R_18.png","xmouse":[782,782,782,782,782,782,782,782,782,782,782,782,782,782,782,782,782,782,782,782,782,782,782,782,782,782,782,782,782,782,782,782,782,782,782,782,782,782,782,782,782,782,782,782,782,782,782,782,782,782,782,782,782,782,782,782,782,782,782,782,782,782,782,782,782,782,782,782,782,782,782,782,782,782,782,782,782,782,782,782,782,782,782,782,782,782,782,782,782,782,779,768,717,669,599,578,569,551,542,533,523,515,503,501,500,499,495,485,481],"ymouse":[527,527,527,527,527,527,527,527,527,527,527,527,527,527,527,527,527,527,527,527,527,527,527,527,527,527,527,527,527,527,527,527,527,527,527,527,527,527,527,527,527,527,527,527,527,527,527,527,527,527,527,527,527,527,527,527,527,527,527,527,527,527,527,527,527,527,527,527,527,527,527,527,527,527,527,527,527,527,527,527,527,527,527,527,527,527,527,527,526,520,502,475,407,370,318,298,283,252,236,219,201,182,156,145,139,132,121,102,95],"timestamp_mouse":[9,29,49,69,89,110,129,149,169,189,211,229,249,271,290,310,329,350,369,390,410,430,449,470,491,509,531,550,569,589,610,630,651,669,690,710,729,749,769,791,811,830,849,869,890,910,930,950,969,989,1011,1030,1049,1069,1089,1109,1130,1150,1169,1189,1210,1230,1251,1270,1291,1310,1329,1349,1370,1389,1409,1429,1450,1470,1489,1511,1530,1550,1569,1589,1611,1629,1649,1669,1690,1711,1730,1749,1769,1789,1809,1831,1850,1869,1890,1910,1929,1950,1970,1989,2009,2029,2049,2071,2090,2110,2129,2150,2170],"xSR":741.5,"ySR":469.95,"xT1":424.9,"yT1":0,"xT2":1058.1,"yT2":0,"toosoon":0,"cond_shown":"randomdotsizeEA","ratio_trial":750,"smaller_num":"18","larger_num":"24","correct_side":1,"subjID":"SaraElianaGuevaraFino20","gender":"1","age":"11","school":"6"},{"start_time":1551790801299,"click_time":1551790802288,"finger_time":1551790802189,"fix_duration":250,"trial":35,"RT":890,"MT":99,"sideResp":1,"stimulus":"img/750/randomdotsizeEA/L/13_Ratio_750_L_8_R_6.png","xmouse":[789,789,789,789,789,789,789,789,789,789,789,789,789,789,789,789,789,789,789,789,789,789,789,789,789,789,789,789,789,789,789,789,789,789,789,789,789,789,789,789,790,791,791,774,744,694,636,574,450,440],"ymouse":[526,526,526,526,526,526,526,526,526,526,526,526,526,526,526,526,526,526,526,526,526,526,526,526,526,526,526,526,526,526,526,526,526,526,526,526,526,526,526,526,526,526,521,489,448,382,315,247,103,89],"timestamp_mouse":[9,31,50,70,90,110,130,150,171,189,211,230,250,269,291,311,329,351,370,389,410,430,450,469,491,510,529,549,570,589,610,630,650,669,691,711,729,751,770,790,809,833,849,870,890,909,930,950,969,989],"xSR":741.5,"ySR":469.95,"xT1":424.9,"yT1":0,"xT2":1058.1,"yT2":0,"toosoon":0,"cond_shown":"randomdotsizeEA","ratio_trial":750,"smaller_num":"6","larger_num":"8","correct_side":1,"subjID":"SaraElianaGuevaraFino20","gender":"1","age":"11","school":"6"},{"start_time":1551790805012,"click_time":1551790806070,"finger_time":1551790805670,"fix_duration":320.6350656775623,"trial":36,"RT":658,"MT":400,"sideResp":2,"stimulus":"img/750/equaldotsize/R/15_Ratio_750_L_9_R_12.png","xmouse":[810,810,810,810,810,810,810,810,810,810,810,810,810,810,810,810,810,810,810,810,810,810,810,810,810,810,810,810,810,810,810,811,852,910,941,960,975,990,995,999,1002,1005,1022,1039,1048,1057,1064,1068,1073,1079,1087,1101,1110],"ymouse":[524,524,524,524,524,524,524,524,524,524,524,524,524,524,524,524,524,524,524,524,524,524,524,524,524,524,524,524,524,524,524,522,462,358,285,239,214,190,181,175,169,161,141,128,121,115,113,111,111,109,106,101,96],"timestamp_mouse":[18,39,58,78,98,120,139,158,178,199,218,239,258,278,298,319,338,358,378,398,419,439,458,478,500,518,539,559,578,599,619,638,658,679,698,719,738,758,778,799,819,839,858,878,898,919,940,958,978,999,1018,1038,1058],"xSR":741.5,"ySR":469.95,"xT1":424.9,"yT1":0,"xT2":1058.1,"yT2":0,"toosoon":0,"cond_shown":"equaldotsize","ratio_trial":750,"smaller_num":"9","larger_num":"12","correct_side":2,"subjID":"SaraElianaGuevaraFino20","gender":"1","age":"11","school":"6"},{"start_time":1551790808208,"click_time":1551790809270,"finger_time":1551790808790,"fix_duration":1456.1025627711824,"trial":37,"RT":582,"MT":480,"sideResp":2,"stimulus":"img/250/equaldotanddens/R/8_Ratio_250_L_1_R_4.png","xmouse":[804,804,804,804,804,804,804,804,804,804,804,804,804,804,804,804,804,804,804,804,804,804,804,804,804,804,804,806,829,858,894,925,943,969,991,1002,1009,1013,1021,1021,1022,1023,1026,1038,1050,1061,1074,1084,1098,1105,1110,1114,1116,1119],"ymouse":[519,519,519,519,519,519,519,519,519,519,519,519,519,519,519,519,519,519,519,519,519,519,519,519,519,519,519,512,485,447,407,372,346,311,286,268,255,244,226,218,212,208,200,183,170,162,153,145,132,124,117,111,105,97],"timestamp_mouse":[4,22,42,63,83,103,122,142,162,184,203,224,242,262,282,302,322,342,362,382,403,424,443,462,482,503,522,542,563,582,602,622,642,662,683,702,722,742,763,782,802,822,842,862,882,902,922,942,963,982,1002,1022,1043,1062],"xSR":741.5,"ySR":469.95,"xT1":424.9,"yT1":0,"xT2":1058.1,"yT2":0,"toosoon":0,"cond_shown":"equaldotanddens","ratio_trial":250,"smaller_num":"1","larger_num":"4","correct_side":2,"subjID":"SaraElianaGuevaraFino20","gender":"1","age":"11","school":"6"},{"start_time":1551790810617,"click_time":1551790811570,"finger_time":1551790811251,"fix_duration":485.39142841118246,"trial":38,"RT":634,"MT":319,"sideResp":2,"stimulus":"img/250/equaldotsize/R/4_Ratio_250_L_3_R_12.png","xmouse":[801,801,801,801,801,801,801,801,801,801,801,801,801,801,801,801,801,801,801,801,801,801,801,801,801,801,799,800,806,819,841,883,993,1060,1127,1140,1143,1139,1137,1135,1135,1132,1129,1125,1120,1115,1112,1107],"ymouse":[526,526,526,526,526,526,526,526,526,526,526,526,526,526,526,526,526,526,526,526,526,526,526,526,526,526,523,514,504,489,470,439,354,300,230,206,186,159,150,145,140,135,127,120,113,106,102,94],"timestamp_mouse":[13,34,54,73,93,115,135,154,174,194,213,233,253,273,293,314,333,354,374,393,414,434,453,474,494,513,533,554,574,593,613,634,653,673,693,713,733,754,773,793,814,834,853,873,894,914,933,953],"xSR":741.5,"ySR":469.95,"xT1":424.9,"yT1":0,"xT2":1058.1,"yT2":0,"toosoon":0,"cond_shown":"equaldotsize","ratio_trial":250,"smaller_num":"3","larger_num":"12","correct_side":2,"subjID":"SaraElianaGuevaraFino20","gender":"1","age":"11","school":"6"},{"start_time":1551790813196,"click_time":1551790814291,"finger_time":1551790813970,"fix_duration":845.6896352634441,"trial":39,"RT":774,"MT":321,"sideResp":2,"stimulus":"img/250/randomdotsizeEA/R/11_Ratio_250_L_3_R_12.png","xmouse":[803,803,803,803,803,803,803,803,803,803,803,803,803,803,803,803,803,803,803,803,803,803,803,803,803,803,803,803,803,803,803,803,803,803,803,803,803,802,824,869,912,952,987,1018,1027,1036,1040,1043,1048,1049,1051,1051,1052,1053,1061],"ymouse":[496,496,496,496,496,496,496,496,496,496,496,496,496,496,496,496,496,496,496,496,496,496,496,496,496,496,496,496,496,496,496,496,496,496,496,496,496,496,467,413,351,291,241,182,160,137,126,117,99,94,91,88,87,84,79],"timestamp_mouse":[15,34,54,74,96,114,134,154,174,194,214,234,255,275,295,314,334,355,374,394,414,434,454,474,494,514,535,554,574,595,615,634,654,674,694,715,735,754,774,794,815,836,854,875,894,914,934,954,974,994,1016,1034,1055,1074,1095],"xSR":741.5,"ySR":469.95,"xT1":424.9,"yT1":0,"xT2":1058.1,"yT2":0,"toosoon":0,"cond_shown":"randomdotsizeEA","ratio_trial":250,"smaller_num":"3","larger_num":"12","correct_side":2,"subjID":"SaraElianaGuevaraFino20","gender":"1","age":"11","school":"6"},{"start_time":1551790817203,"click_time":1551790818870,"finger_time":1551790818310,"fix_duration":610.4805563887094,"trial":40,"RT":1107,"MT":560,"sideResp":2,"stimulus":"img/750/randomdotsizeEA/R/2_Ratio_750_L_6_R_8.png","xmouse":[802,801,801,801,801,801,801,801,801,801,801,801,801,801,801,801,801,801,801,801,801,801,801,801,801,801,801,801,801,801,801,801,801,801,801,801,801,802,810,816,821,823,823,824,824,824,824,824,824,824,824,824,824,824,826,842,869,905,983,1018,1048,1072,1094,1139,1158,1178,1182,1182,1181,1179,1175,1171,1165,1149,1145,1138,1132,1129,1126,1123,1121,1118,1115,1108],"ymouse":[528,528,528,528,528,528,528,528,528,528,528,528,528,528,528,528,528,528,528,528,528,528,528,528,528,528,528,528,528,528,528,528,528,528,528,528,528,526,515,508,502,499,499,499,499,499,499,499,499,499,499,499,499,499,497,462,415,358,292,275,263,254,241,211,196,176,167,160,150,146,141,136,130,121,118,114,111,109,106,104,103,102,100,98],"timestamp_mouse":[7,27,47,67,87,108,128,147,167,188,207,227,247,267,287,308,327,347,367,388,408,427,448,468,488,508,527,547,568,587,608,628,647,667,687,707,727,747,767,787,807,827,847,867,888,907,928,947,967,987,1007,1029,1047,1067,1088,1107,1127,1147,1168,1187,1208,1228,1247,1267,1287,1307,1327,1347,1368,1387,1407,1427,1448,1468,1488,1507,1528,1547,1567,1587,1607,1628,1647,1667],"xSR":741.5,"ySR":469.95,"xT1":424.9,"yT1":0,"xT2":1058.1,"yT2":0,"toosoon":0,"cond_shown":"randomdotsizeEA","ratio_trial":750,"smaller_num":"6","larger_num":"8","correct_side":2,"subjID":"SaraElianaGuevaraFino20","gender":"1","age":"11","school":"6"},{"start_time":1551790819941,"click_time":1551790821110,"finger_time":1551790820790,"fix_duration":250,"trial":41,"RT":849,"MT":320,"sideResp":2,"stimulus":"img/900/equaldotanddens/R/3_Ratio_900_L_9_R_10.png","xmouse":[817,817,817,817,817,817,817,817,817,817,817,817,817,817,817,817,817,817,817,817,817,817,817,817,817,817,817,817,817,817,817,817,817,817,817,817,817,817,817,817,818,822,827,838,846,851,866,884,896,906,915,939,954,970,988,1004,1037,1052,1075],"ymouse":[531,531,531,531,531,531,531,531,531,531,531,531,531,531,531,531,531,531,531,531,531,531,531,531,531,531,531,531,531,531,531,531,531,531,531,531,531,531,531,531,531,506,463,392,335,296,251,223,205,189,175,143,131,125,120,118,110,105,99],"timestamp_mouse":[10,30,50,70,89,109,129,149,169,189,209,230,249,269,290,311,329,349,370,389,409,430,450,471,490,511,529,550,569,589,609,629,650,669,689,709,729,749,769,789,809,829,849,869,889,910,929,949,969,990,1009,1030,1049,1069,1089,1110,1129,1149,1169],"xSR":741.5,"ySR":469.95,"xT1":424.9,"yT1":0,"xT2":1058.1,"yT2":0,"toosoon":0,"cond_shown":"equaldotanddens","ratio_trial":900,"smaller_num":"9","larger_num":"10","correct_side":2,"subjID":"SaraElianaGuevaraFino20","gender":"1","age":"11","school":"6"},{"start_time":1551790823104,"click_time":1551790824370,"finger_time":1551790824012,"fix_duration":1253.9471296275078,"trial":42,"RT":908,"MT":358,"sideResp":1,"stimulus":"img/250/equaldotanddens/L/5_Ratio_250_L_24_R_6.png","xmouse":[798,798,798,798,797,797,797,797,797,797,797,797,797,797,797,797,797,797,797,797,797,797,797,797,797,797,797,797,797,797,797,797,797,797,797,797,797,797,797,797,797,797,795,781,757,709,657,605,532,505,478,468,460,453,449,448,448,448,452,453,456,458,459,465],"ymouse":[537,537,536,534,532,531,531,531,531,531,531,531,531,531,531,531,531,531,531,531,531,531,531,531,531,531,531,531,531,531,531,531,531,531,531,531,531,531,531,531,531,531,529,518,501,461,415,362,279,245,207,191,178,156,143,132,123,116,106,105,102,102,100,96],"timestamp_mouse":[7,26,46,66,87,106,127,147,167,186,206,228,246,266,287,307,326,346,366,388,406,426,446,466,486,506,527,546,566,586,606,626,646,667,686,707,726,746,766,786,806,827,846,866,886,908,926,947,966,986,1006,1026,1047,1066,1086,1106,1126,1147,1167,1188,1206,1226,1246,1266],"xSR":741.5,"ySR":469.95,"xT1":424.9,"yT1":0,"xT2":1058.1,"yT2":0,"toosoon":0,"cond_shown":"equaldotanddens","ratio_trial":250,"smaller_num":"6","larger_num":"24","correct_side":1,"subjID":"SaraElianaGuevaraFino20","gender":"1","age":"11","school":"6"},{"start_time":1551790826174,"click_time":1551790827290,"finger_time":1551790826870,"fix_duration":863.4925607278102,"trial":43,"RT":696,"MT":420,"sideResp":2,"stimulus":"img/500/equaldotanddens/R/2_Ratio_500_L_3_R_6.png","xmouse":[779,779,779,779,779,779,779,779,779,779,779,779,779,779,779,779,779,779,779,779,779,779,779,779,779,779,779,779,779,779,783,787,800,815,842,858,869,884,899,935,951,966,974,981,996,1008,1029,1039,1044,1054,1059,1066,1075,1081,1094,1096],"ymouse":[529,529,529,529,529,529,529,529,529,529,529,529,529,529,529,529,529,529,529,529,529,529,529,529,529,529,529,529,529,529,521,515,500,487,462,437,419,399,376,337,322,313,306,302,294,290,284,282,279,271,266,255,232,208,114,94],"timestamp_mouse":[16,36,56,76,96,116,136,156,176,196,216,236,257,277,296,317,337,356,377,396,416,436,457,477,497,518,536,558,576,596,617,636,656,676,696,716,736,757,776,796,816,836,856,876,897,916,936,956,976,996,1016,1036,1056,1077,1096,1116],"xSR":741.5,"ySR":469.95,"xT1":424.9,"yT1":0,"xT2":1058.1,"yT2":0,"toosoon":0,"cond_shown":"equaldotanddens","ratio_trial":500,"smaller_num":"3","larger_num":"6","correct_side":2,"subjID":"SaraElianaGuevaraFino20","gender":"1","age":"11","school":"6"},{"start_time":1551790828641,"click_time":1551790830810,"finger_time":1551790830390,"fix_duration":250,"trial":44,"RT":1749,"MT":420,"sideResp":2,"stimulus":"img/750/equaldotsize/R/11_Ratio_750_L_12_R_16.png","xmouse":[797,797,797,797,797,797,797,797,797,797,797,797,797,797,797,797,797,797,797,797,797,797,797,797,797,797,797,797,797,797,797,797,797,797,797,797,797,797,797,797,797,797,797,797,797,797,797,797,797,797,797,797,797,797,797,797,797,797,797,797,797,797,798,800,800,801,801,801,801,801,801,801,801,801,801,801,801,801,801,801,801,803,804,807,811,816,830,840,851,864,883,939,971,983,988,991,999,1006,1013,1021,1026,1029,1031,1033,1036,1042,1055,1060,1068],"ymouse":[535,535,535,535,535,535,535,535,535,535,535,535,535,535,535,535,535,535,535,535,535,535,535,535,535,535,535,535,535,535,535,535,535,535,535,535,535,535,535,535,535,535,535,535,535,535,535,535,535,535,535,535,535,535,535,535,534,532,530,529,528,528,526,524,523,522,522,522,522,522,522,522,522,522,522,522,522,522,522,522,522,519,516,506,501,492,472,460,443,423,389,288,233,215,206,200,184,173,163,152,145,139,133,129,125,118,105,100,93],"timestamp_mouse":[9,29,49,69,90,109,130,149,169,189,209,229,249,269,289,309,329,349,369,390,409,429,449,470,490,509,529,550,569,589,609,629,650,670,689,709,729,749,769,789,810,830,849,870,889,910,929,949,970,989,1010,1029,1049,1070,1089,1110,1129,1149,1170,1190,1210,1229,1249,1270,1290,1310,1329,1349,1369,1390,1409,1429,1450,1470,1489,1509,1530,1549,1569,1589,1609,1629,1649,1669,1690,1709,1730,1749,1770,1789,1810,1829,1850,1869,1889,1909,1930,1950,1969,1989,2010,2029,2050,2069,2089,2109,2130,2149,2169],"xSR":741.5,"ySR":469.95,"xT1":424.9,"yT1":0,"xT2":1058.1,"yT2":0,"toosoon":0,"cond_shown":"equaldotsize","ratio_trial":750,"smaller_num":"12","larger_num":"16","correct_side":2,"subjID":"SaraElianaGuevaraFino20","gender":"1","age":"11","school":"6"},{"start_time":1551790832422,"click_time":1551790833470,"finger_time":1551790833151,"fix_duration":731.2001973351653,"trial":45,"RT":729,"MT":319,"sideResp":1,"stimulus":"img/250/randomdotsizeEA/L/7_Ratio_250_L_8_R_2.png","xmouse":[774,774,774,774,774,774,774,774,774,774,774,774,774,774,774,774,774,774,774,774,774,774,774,774,774,774,774,774,774,774,774,774,774,774,774,769,758,710,676,643,616,595,577,574,572,569,567,558,554,550,547,543,522],"ymouse":[501,501,501,501,501,501,501,501,501,501,501,501,501,501,501,501,501,501,501,501,501,501,501,501,501,501,501,501,501,501,501,501,501,501,497,483,458,370,312,253,208,171,139,127,116,105,94,75,70,66,65,63,56],"timestamp_mouse":[8,28,50,68,88,108,128,148,168,188,208,228,248,269,288,309,328,348,368,388,409,428,448,469,488,509,528,548,569,588,608,629,648,668,688,708,729,748,768,788,808,828,848,868,888,908,928,949,968,988,1009,1028,1048],"xSR":741.5,"ySR":469.95,"xT1":424.9,"yT1":0,"xT2":1058.1,"yT2":0,"toosoon":0,"cond_shown":"randomdotsizeEA","ratio_trial":250,"smaller_num":"2","larger_num":"8","correct_side":1,"subjID":"SaraElianaGuevaraFino20","gender":"1","age":"11","school":"6"},{"start_time":1551790834649,"click_time":1551790835510,"finger_time":1551790835331,"fix_duration":418.88866621184485,"trial":46,"RT":682,"MT":179,"sideResp":1,"stimulus":"img/900/equaldotanddens/L/10_Ratio_900_L_20_R_18.png","xmouse":[768,769,769,770,770,770,770,770,771,771,771,771,772,772,772,772,772,772,772,772,772,772,772,772,773,773,773,773,773,773,773,773,772,762,742,711,672,600,570,547,532,518,513,510],"ymouse":[513,514,514,514,514,514,514,514,514,514,514,514,514,514,514,514,514,514,514,514,514,514,514,514,515,515,516,516,516,516,516,517,516,482,434,373,323,248,222,201,179,130,109,87],"timestamp_mouse":[5,25,41,61,82,102,121,141,162,181,201,222,241,262,282,301,321,341,362,381,402,421,441,462,482,501,522,542,562,582,602,621,642,661,682,701,721,742,761,781,801,821,841,861],"xSR":741.5,"ySR":469.95,"xT1":424.9,"yT1":0,"xT2":1058.1,"yT2":0,"toosoon":0,"cond_shown":"equaldotanddens","ratio_trial":900,"smaller_num":"18","larger_num":"20","correct_side":1,"subjID":"SaraElianaGuevaraFino20","gender":"1","age":"11","school":"6"},{"start_time":1551790837383,"click_time":1551790838270,"finger_time":1551790838010,"fix_duration":872.1668753529302,"trial":47,"RT":627,"MT":260,"sideResp":1,"stimulus":"img/500/equaldotsize/L/11_Ratio_500_L_12_R_6.png","xmouse":[797,797,797,797,797,797,797,797,797,797,797,797,797,797,797,797,797,797,797,797,797,797,797,797,797,797,797,797,797,795,775,737,681,625,557,547,545,543,540,532,522,513,508,506,500],"ymouse":[513,513,513,513,513,513,513,513,513,513,513,513,513,513,513,513,513,513,513,513,513,513,513,513,513,513,513,513,513,510,497,469,428,380,289,251,233,221,207,175,154,133,118,110,93],"timestamp_mouse":[7,27,47,67,87,107,127,147,168,187,208,227,247,267,287,307,327,347,367,387,407,427,447,467,488,508,528,547,569,588,607,627,647,667,687,708,727,747,767,788,807,827,847,868,887],"xSR":741.5,"ySR":469.95,"xT1":424.9,"yT1":0,"xT2":1058.1,"yT2":0,"toosoon":0,"cond_shown":"equaldotsize","ratio_trial":500,"smaller_num":"6","larger_num":"12","correct_side":1,"subjID":"SaraElianaGuevaraFino20","gender":"1","age":"11","school":"6"},{"start_time":1551790839900,"click_time":1551790841011,"finger_time":1551790840750,"fix_duration":830.3488553995827,"trial":48,"RT":850,"MT":261,"sideResp":2,"stimulus":"img/900/randomdotsizeEA/L/4_Ratio_900_L_20_R_18.png","xmouse":[798,798,798,799,799,800,801,802,802,802,802,802,802,802,802,802,802,802,802,802,802,802,802,802,802,802,802,802,802,802,802,802,802,802,802,802,802,802,802,802,803,826,868,975,1003,1015,1020,1024,1035,1038,1043,1047,1050,1054,1057,1060],"ymouse":[536,536,536,536,535,534,534,533,533,533,533,533,533,533,533,533,533,533,533,533,533,533,533,533,533,533,533,533,533,533,533,533,533,533,533,533,533,533,533,533,532,513,462,319,276,248,226,209,159,151,130,117,108,95,91,87],"timestamp_mouse":[10,30,50,71,90,110,131,150,171,190,211,230,252,270,290,310,331,350,370,392,411,430,450,470,490,510,530,550,570,591,611,630,650,671,690,710,732,750,770,790,810,832,850,871,890,910,930,950,970,991,1010,1030,1050,1070,1090,1111],"xSR":741.5,"ySR":469.95,"xT1":424.9,"yT1":0,"xT2":1058.1,"yT2":0,"toosoon":0,"cond_shown":"randomdotsizeEA","ratio_trial":900,"smaller_num":"18","larger_num":"20","correct_side":1,"subjID":"SaraElianaGuevaraFino20","gender":"1","age":"11","school":"6"},{"start_time":1551790842102,"click_time":1551790843450,"finger_time":1551790843270,"fix_duration":250,"trial":49,"RT":1168,"MT":180,"sideResp":2,"stimulus":"img/750/equaldotsize/R/2_Ratio_750_L_6_R_8.png","xmouse":[803,803,803,803,803,803,803,803,803,803,803,803,803,803,803,803,803,803,803,803,803,803,803,803,803,803,803,803,803,803,803,803,803,803,803,803,803,803,803,803,803,803,803,803,803,803,803,803,803,803,803,803,803,803,803,803,817,825,855,864,869,872,879,906,935,976,1030,1076],"ymouse":[502,502,502,502,502,502,502,502,502,502,502,502,502,502,502,502,502,502,502,502,502,502,502,502,502,502,502,502,502,502,502,502,502,502,502,502,502,502,502,502,502,502,502,502,502,502,502,502,502,502,502,502,502,502,502,502,499,498,488,479,467,453,432,355,289,220,149,93],"timestamp_mouse":[9,29,49,68,89,110,128,148,168,189,208,229,249,268,288,308,328,348,368,390,408,428,449,468,489,509,530,549,568,589,609,628,648,668,689,709,728,748,769,789,808,829,849,869,888,908,928,949,968,989,1008,1029,1049,1068,1088,1109,1128,1149,1168,1188,1208,1228,1248,1269,1288,1308,1328,1348],"xSR":741.5,"ySR":469.95,"xT1":424.9,"yT1":0,"xT2":1058.1,"yT2":0,"toosoon":0,"cond_shown":"equaldotsize","ratio_trial":750,"smaller_num":"6","larger_num":"8","correct_side":2,"subjID":"SaraElianaGuevaraFino20","gender":"1","age":"11","school":"6"},{"start_time":1551790845461,"click_time":1551790846350,"finger_time":1551790846091,"fix_duration":690.423464882847,"trial":50,"RT":630,"MT":259,"sideResp":1,"stimulus":"img/250/equaldotsize/L/14_Ratio_250_L_12_R_3.png","xmouse":[799,799,799,799,799,799,799,799,799,799,799,799,799,799,799,799,799,799,799,799,799,799,799,799,799,799,799,799,799,799,788,748,700,642,596,563,562,562,562,562,560,550,539,526,513],"ymouse":[512,512,512,512,512,512,512,512,512,512,512,512,512,512,512,512,512,512,512,512,512,512,512,512,512,512,512,510,507,503,472,399,331,252,181,109,94,83,77,73,65,49,37,28,24],"timestamp_mouse":[14,30,49,69,89,110,130,149,169,189,209,229,249,270,289,310,329,349,369,390,409,429,450,470,489,509,529,549,569,589,609,630,649,670,689,709,730,749,769,789,809,829,849,869,889],"xSR":741.5,"ySR":469.95,"xT1":424.9,"yT1":0,"xT2":1058.1,"yT2":0,"toosoon":0,"cond_shown":"equaldotsize","ratio_trial":250,"smaller_num":"3","larger_num":"12","correct_side":1,"subjID":"SaraElianaGuevaraFino20","gender":"1","age":"11","school":"6"},{"start_time":1551790848412,"click_time":1551790849650,"finger_time":1551790849050,"fix_duration":1081.5616104377577,"trial":51,"RT":638,"MT":600,"sideResp":1,"stimulus":"img/500/equaldotanddens/L/4_Ratio_500_L_18_R_9.png","xmouse":[815,815,815,815,815,815,815,815,815,815,815,815,815,815,815,815,815,815,815,815,815,815,815,815,815,815,815,815,814,810,790,753,660,609,595,595,595,595,593,582,570,557,536,535,531,528,528,528,528,527,527,527,527,527,527,527,527,527,527,526,526,524],"ymouse":[507,507,507,507,507,507,507,507,507,507,507,507,507,507,507,507,507,507,507,507,507,507,507,507,507,507,507,507,504,498,470,405,213,108,84,80,79,78,70,56,42,31,22,22,22,23,27,42,51,55,58,59,59,59,59,59,59,59,59,60,61,61],"timestamp_mouse":[18,38,59,78,99,120,138,159,178,198,219,238,258,278,300,318,339,358,379,398,418,439,458,480,498,519,539,558,578,598,618,638,658,678,698,719,738,758,780,798,818,839,858,878,898,918,938,959,978,998,1018,1039,1058,1078,1098,1118,1139,1158,1178,1198,1218,1238],"xSR":741.5,"ySR":469.95,"xT1":424.9,"yT1":0,"xT2":1058.1,"yT2":0,"toosoon":0,"cond_shown":"equaldotanddens","ratio_trial":500,"smaller_num":"9","larger_num":"18","correct_side":1,"subjID":"SaraElianaGuevaraFino20","gender":"1","age":"11","school":"6"},{"start_time":1551790852314,"click_time":1551790853470,"finger_time":1551790852971,"fix_duration":1483.5854511082384,"trial":52,"RT":657,"MT":499,"sideResp":2,"stimulus":"img/250/equaldotanddens/R/12_Ratio_250_L_5_R_20.png","xmouse":[802,802,802,802,802,802,802,802,802,802,802,802,802,802,802,802,802,802,802,802,802,802,802,802,802,802,802,802,805,809,815,826,862,885,911,935,954,979,988,991,992,996,1003,1006,1008,1010,1011,1015,1016,1019,1023,1025,1036,1040,1045,1050,1057,1062],"ymouse":[516,516,516,516,516,516,516,516,516,516,516,516,516,516,516,516,516,516,516,516,516,516,516,516,516,516,516,516,512,508,502,496,468,448,421,388,351,285,243,217,193,170,124,102,84,71,61,49,48,44,44,44,42,42,41,41,41,41],"timestamp_mouse":[16,36,56,76,96,117,136,157,176,197,216,238,257,276,297,317,336,356,376,396,417,437,456,476,496,517,536,556,576,596,616,636,657,676,696,716,736,756,776,796,817,836,856,877,896,916,937,956,976,996,1017,1036,1056,1077,1096,1116,1137,1156],"xSR":741.5,"ySR":469.95,"xT1":424.9,"yT1":0,"xT2":1058.1,"yT2":0,"toosoon":0,"cond_shown":"equaldotanddens","ratio_trial":250,"smaller_num":"5","larger_num":"20","correct_side":2,"subjID":"SaraElianaGuevaraFino20","gender":"1","age":"11","school":"6"},{"start_time":1551790854970,"click_time":1551790855971,"finger_time":1551790855670,"fix_duration":498.13235969330236,"trial":53,"RT":700,"MT":301,"sideResp":1,"stimulus":"img/500/randomdotsizeEA/L/8_Ratio_500_L_8_R_4.png","xmouse":[792,792,792,792,792,792,792,792,792,792,792,792,792,792,792,792,792,792,792,792,792,792,792,792,792,792,792,792,792,792,792,792,790,786,771,686,636,588,553,531,519,519,521,522,522,521,512,505,497,492,484],"ymouse":[517,517,517,517,516,515,515,515,515,515,515,515,515,515,515,515,515,515,515,515,515,515,515,515,515,515,515,515,515,515,515,515,514,511,500,439,400,363,330,308,279,269,255,244,230,198,166,146,130,118,99],"timestamp_mouse":[0,20,40,60,81,100,120,140,160,181,200,221,241,261,280,300,321,340,361,381,400,421,441,460,481,500,521,540,560,581,600,622,640,660,680,700,720,740,761,780,801,820,840,861,880,900,920,940,960,980,1001],"xSR":741.5,"ySR":469.95,"xT1":424.9,"yT1":0,"xT2":1058.1,"yT2":0,"toosoon":0,"cond_shown":"randomdotsizeEA","ratio_trial":500,"smaller_num":"4","larger_num":"8","correct_side":1,"subjID":"SaraElianaGuevaraFino20","gender":"1","age":"11","school":"6"},{"start_time":1551790858381,"click_time":1551790859231,"finger_time":1551790859030,"fix_duration":250,"trial":54,"RT":649,"MT":201,"sideResp":2,"stimulus":"img/250/equaldotanddens/R/12_Ratio_250_L_5_R_20.png","xmouse":[786,786,786,786,786,786,786,786,786,786,786,786,786,786,786,786,786,786,786,786,786,786,786,786,786,786,786,786,786,786,786,795,827,921,1109,1146,1146,1145,1145,1145,1146,1148,1148],"ymouse":[497,497,497,497,497,497,497,497,497,497,497,497,497,497,497,497,497,497,497,497,497,497,497,497,497,497,497,497,497,497,497,482,450,368,202,156,148,145,143,127,114,102,94],"timestamp_mouse":[9,29,50,69,89,110,129,150,170,189,210,229,249,269,289,310,329,349,370,389,410,430,449,470,490,510,530,549,569,590,609,629,649,670,689,709,729,749,769,789,809,829,850],"xSR":741.5,"ySR":469.95,"xT1":424.9,"yT1":0,"xT2":1058.1,"yT2":0,"toosoon":0,"cond_shown":"equaldotanddens","ratio_trial":250,"smaller_num":"5","larger_num":"20","correct_side":2,"subjID":"SaraElianaGuevaraFino20","gender":"1","age":"11","school":"6"},{"start_time":1551790860401,"click_time":1551790861191,"finger_time":1551790860990,"fix_duration":250,"trial":55,"RT":589,"MT":201,"sideResp":2,"stimulus":"img/250/equaldotanddens/R/11_Ratio_250_L_3_R_12.png","xmouse":[784,784,784,784,784,784,784,784,784,784,784,784,784,784,784,784,784,784,784,784,784,784,784,784,784,784,784,783,828,882,926,958,981,1013,1024,1046,1070,1091,1117,1120],"ymouse":[518,518,518,518,518,518,518,518,518,518,518,518,518,518,518,518,518,518,518,518,518,518,518,518,518,518,518,517,502,487,474,461,451,425,407,360,298,233,121,98],"timestamp_mouse":[9,30,51,69,89,109,130,149,169,189,209,229,249,269,289,309,331,349,369,390,410,430,449,469,489,510,531,549,569,589,609,629,649,669,689,709,729,749,769,790],"xSR":741.5,"ySR":469.95,"xT1":424.9,"yT1":0,"xT2":1058.1,"yT2":0,"toosoon":0,"cond_shown":"equaldotanddens","ratio_trial":250,"smaller_num":"3","larger_num":"12","correct_side":2,"subjID":"SaraElianaGuevaraFino20","gender":"1","age":"11","school":"6"},{"start_time":1551790862421,"click_time":1551790863631,"finger_time":1551790863310,"fix_duration":250,"trial":56,"RT":889,"MT":321,"sideResp":2,"stimulus":"img/500/equaldotsize/R/3_Ratio_500_L_10_R_20.png","xmouse":[800,800,800,800,800,800,800,800,800,800,800,800,800,800,800,800,800,800,800,800,800,800,800,800,800,800,800,800,800,800,800,800,800,800,800,800,800,800,800,800,799,799,803,816,865,907,945,1000,1015,1023,1028,1030,1031,1034,1039,1043,1046,1050,1051,1054,1060],"ymouse":[507,507,507,507,507,507,507,507,507,507,507,507,507,507,507,507,507,507,507,507,507,507,507,507,507,507,507,507,507,507,507,507,507,507,507,507,507,507,507,507,507,506,495,475,404,337,275,193,174,163,157,154,150,146,137,127,122,116,113,105,98],"timestamp_mouse":[9,30,49,69,90,110,130,149,169,189,209,229,250,270,289,310,329,349,371,389,409,430,451,469,489,510,531,549,570,589,609,630,650,669,689,709,730,750,770,790,809,829,849,869,889,910,929,950,969,989,1009,1029,1049,1069,1089,1109,1129,1150,1169,1189,1210],"xSR":741.5,"ySR":469.95,"xT1":424.9,"yT1":0,"xT2":1058.1,"yT2":0,"toosoon":0,"cond_shown":"equaldotsize","ratio_trial":500,"smaller_num":"10","larger_num":"20","correct_side":2,"subjID":"SaraElianaGuevaraFino20","gender":"1","age":"11","school":"6"},{"start_time":1551790865836,"click_time":1551790866871,"finger_time":1551790866451,"fix_duration":1403.662339176104,"trial":57,"RT":615,"MT":420,"sideResp":1,"stimulus":"img/250/equaldotsize/L/3_Ratio_250_L_8_R_2.png","xmouse":[799,799,799,799,799,799,799,799,799,799,799,799,799,799,799,799,799,799,799,799,799,799,799,799,799,799,799,797,793,781,765,726,707,702,696,692,680,669,657,644,629,605,587,579,571,565,564,561,555,544,531,516],"ymouse":[516,516,516,516,516,516,516,516,516,516,516,516,516,516,516,516,516,516,516,516,516,516,516,516,516,516,516,515,504,484,458,391,353,335,317,304,260,230,208,185,165,133,117,109,105,103,103,102,102,100,94,88],"timestamp_mouse":[15,35,55,75,97,115,135,155,177,195,215,235,256,276,295,315,335,356,375,396,416,435,456,476,495,516,535,555,575,595,615,636,656,675,695,716,736,757,775,795,815,835,855,875,896,915,936,956,975,995,1015,1035],"xSR":741.5,"ySR":469.95,"xT1":424.9,"yT1":0,"xT2":1058.1,"yT2":0,"toosoon":0,"cond_shown":"equaldotsize","ratio_trial":250,"smaller_num":"2","larger_num":"8","correct_side":1,"subjID":"SaraElianaGuevaraFino20","gender":"1","age":"11","school":"6"},{"start_time":1551790868853,"click_time":1551790869991,"finger_time":1551790869471,"fix_duration":1081.3401567226783,"trial":58,"RT":618,"MT":520,"sideResp":1,"stimulus":"img/500/equaldotanddens/L/13_Ratio_500_L_12_R_6.png","xmouse":[828,828,828,828,828,828,828,828,828,828,828,828,828,828,828,828,828,828,828,828,828,828,828,828,828,828,828,828,827,824,778,722,695,674,663,646,637,628,617,607,597,595,590,583,569,549,542,541,537,532,528,528,528,528,528,525,523],"ymouse":[489,489,489,489,489,489,489,489,489,489,489,489,489,489,489,489,489,489,489,489,489,489,489,489,489,489,489,489,489,485,397,324,286,251,229,192,176,158,138,124,107,105,102,100,96,91,90,90,90,89,88,88,88,88,88,88,88],"timestamp_mouse":[22,39,59,78,98,119,140,158,178,199,219,238,259,278,298,319,339,358,378,398,418,438,458,478,499,518,538,558,578,598,618,638,658,678,699,718,738,759,778,799,818,838,858,878,898,919,939,958,978,998,1018,1038,1058,1078,1099,1119,1138],"xSR":741.5,"ySR":469.95,"xT1":424.9,"yT1":0,"xT2":1058.1,"yT2":0,"toosoon":0,"cond_shown":"equaldotanddens","ratio_trial":500,"smaller_num":"6","larger_num":"12","correct_side":1,"subjID":"SaraElianaGuevaraFino20","gender":"1","age":"11","school":"6"},{"start_time":1551790872182,"click_time":1551790873453,"finger_time":1551790873111,"fix_duration":1230.23370394849,"trial":59,"RT":929,"MT":342,"sideResp":2,"stimulus":"img/500/randomdotsizeEA/R/14_Ratio_500_L_5_R_10.png","xmouse":[805,805,805,805,805,805,805,805,805,805,805,805,805,805,805,805,805,805,805,805,805,805,805,805,805,805,805,805,805,805,805,805,805,805,805,805,805,805,805,805,805,805,805,804,810,826,856,875,887,911,921,931,942,952,968,980,988,994,1001,1020,1034,1045,1054,1059],"ymouse":[500,500,500,500,500,500,500,500,500,500,500,500,500,500,500,500,500,500,500,500,500,500,500,500,500,500,500,500,500,500,500,500,500,500,500,500,500,500,500,500,500,500,500,500,495,484,472,464,456,430,409,383,357,331,280,242,219,201,181,146,127,115,104,98],"timestamp_mouse":[9,30,50,70,89,110,129,149,169,190,210,230,249,270,289,309,329,351,369,390,409,430,450,469,489,509,531,550,570,590,609,629,650,671,689,709,729,749,769,789,810,829,849,869,891,909,929,949,971,989,1010,1031,1049,1071,1089,1109,1130,1150,1169,1190,1209,1229,1249,1270],"xSR":741.5,"ySR":469.95,"xT1":424.9,"yT1":0,"xT2":1058.1,"yT2":0,"toosoon":0,"cond_shown":"randomdotsizeEA","ratio_trial":500,"smaller_num":"5","larger_num":"10","correct_side":2,"subjID":"SaraElianaGuevaraFino20","gender":"1","age":"11","school":"6"},{"start_time":1551790876708,"click_time":1551790877671,"finger_time":1551790877371,"fix_duration":975.0051361001726,"trial":60,"RT":663,"MT":300,"sideResp":2,"stimulus":"img/250/randomdotsizeEA/R/12_Ratio_250_L_5_R_20.png","xmouse":[796,793,792,792,792,792,792,792,792,792,792,792,792,792,792,792,792,792,792,792,792,792,792,792,792,792,792,792,792,792,794,800,817,882,915,938,958,972,981,986,992,998,1002,1010,1018,1025,1036,1051,1078],"ymouse":[520,521,521,521,521,521,521,521,521,521,521,521,521,521,521,521,521,521,521,521,521,521,521,521,521,521,521,521,521,521,516,505,480,382,331,286,231,177,117,100,85,78,74,69,63,60,57,55,55],"timestamp_mouse":[4,23,43,65,83,104,123,144,164,183,203,223,245,263,283,304,325,344,363,383,405,423,444,463,484,505,523,543,564,584,603,623,643,663,683,703,724,744,764,783,803,823,843,863,883,903,923,944,963],"xSR":741.5,"ySR":469.95,"xT1":424.9,"yT1":0,"xT2":1058.1,"yT2":0,"toosoon":0,"cond_shown":"randomdotsizeEA","ratio_trial":250,"smaller_num":"5","larger_num":"20","correct_side":2,"subjID":"SaraElianaGuevaraFino20","gender":"1","age":"11","school":"6"},{"start_time":1551790878962,"click_time":1551790879971,"finger_time":1551790879612,"fix_duration":250,"trial":61,"RT":650,"MT":359,"sideResp":1,"stimulus":"img/250/equaldotsize/L/5_Ratio_250_L_24_R_6.png","xmouse":[805,805,805,805,805,805,805,805,805,805,805,805,805,805,805,805,805,805,805,805,805,805,805,805,805,805,805,805,805,802,777,746,708,669,634,573,548,536,525,518,510,508,507,505,504,498,491,486,481,480,479],"ymouse":[515,515,515,515,515,515,515,515,515,515,515,515,515,515,515,515,515,515,515,515,515,515,515,515,515,515,515,515,515,512,502,485,462,432,401,340,305,288,270,254,230,221,215,207,200,182,156,137,119,107,99],"timestamp_mouse":[13,29,50,69,89,109,129,151,169,190,209,229,250,269,289,310,329,350,371,389,409,429,449,471,490,509,529,551,569,589,609,629,650,670,690,710,729,749,769,789,810,830,849,869,890,910,929,949,970,990,1009],"xSR":741.5,"ySR":469.95,"xT1":424.9,"yT1":0,"xT2":1058.1,"yT2":0,"toosoon":0,"cond_shown":"equaldotsize","ratio_trial":250,"smaller_num":"6","larger_num":"24","correct_side":1,"subjID":"SaraElianaGuevaraFino20","gender":"1","age":"11","school":"6"},{"start_time":1551790880883,"click_time":1551790881872,"finger_time":1551790881531,"fix_duration":250,"trial":62,"RT":648,"MT":341,"sideResp":2,"stimulus":"img/500/equaldotsize/R/15_Ratio_500_L_1_R_2.png","xmouse":[798,798,798,798,798,798,798,798,798,798,798,798,798,798,798,798,798,798,798,798,798,798,798,798,798,798,798,798,798,798,802,820,848,879,923,940,955,964,969,980,992,1009,1028,1043,1056,1060,1064,1069,1077,1088],"ymouse":[534,534,534,534,534,534,534,534,534,534,534,534,534,534,534,534,534,534,534,534,534,534,534,534,534,534,534,534,534,534,526,507,483,461,430,418,409,404,400,375,360,345,331,320,296,280,257,224,172,54],"timestamp_mouse":[10,29,48,70,89,108,129,149,168,189,210,228,248,270,289,308,329,350,368,388,408,428,448,468,488,509,530,548,568,589,608,628,648,668,689,708,728,749,769,788,808,828,850,868,889,909,928,948,970,989],"xSR":741.5,"ySR":469.95,"xT1":424.9,"yT1":0,"xT2":1058.1,"yT2":0,"toosoon":0,"cond_shown":"equaldotsize","ratio_trial":500,"smaller_num":"1","larger_num":"2","correct_side":2,"subjID":"SaraElianaGuevaraFino20","gender":"1","age":"11","school":"6"},{"start_time":1551790883231,"click_time":1551790884571,"finger_time":1551790883971,"fix_duration":458.14569067814114,"trial":63,"RT":740,"MT":600,"sideResp":2,"stimulus":"img/500/equaldotanddens/R/14_Ratio_500_L_5_R_10.png","xmouse":[766,766,766,766,766,766,766,766,766,766,766,766,766,766,766,766,766,766,766,766,766,766,766,766,766,766,766,766,766,766,766,766,766,766,765,768,786,869,925,971,1003,1023,1052,1061,1073,1078,1083,1091,1093,1093,1093,1092,1088,1088,1088,1088,1088,1093,1096,1098,1098,1098,1098,1098,1098,1098,1099,1099],"ymouse":[505,505,505,505,505,505,505,505,505,505,505,505,505,505,505,505,505,505,505,505,505,505,505,505,505,505,505,505,505,505,505,505,505,505,504,500,480,389,342,301,274,257,235,227,216,210,203,182,172,164,157,150,137,126,122,119,118,113,111,109,108,107,104,104,104,103,101,99],"timestamp_mouse":[3,21,41,60,80,100,121,140,161,180,200,221,240,260,282,300,320,341,362,380,401,420,440,460,480,502,520,540,560,580,600,620,640,661,680,700,720,740,761,780,800,821,840,860,880,902,922,941,960,981,1000,1020,1041,1061,1080,1100,1121,1140,1161,1180,1200,1220,1240,1260,1280,1300,1320,1340],"xSR":741.5,"ySR":469.95,"xT1":424.9,"yT1":0,"xT2":1058.1,"yT2":0,"toosoon":0,"cond_shown":"equaldotanddens","ratio_trial":500,"smaller_num":"5","larger_num":"10","correct_side":2,"subjID":"SaraElianaGuevaraFino20","gender":"1","age":"11","school":"6"},{"start_time":1551790885775,"click_time":1551790889493,"finger_time":1551790887912,"fix_duration":323.1712036452513,"trial":64,"RT":2137,"MT":1581,"sideResp":1,"stimulus":"img/900/equaldotsize/R/12_Ratio_900_L_18_R_20.png","xmouse":[764,764,764,764,764,764,764,764,764,764,764,764,764,764,764,764,764,764,764,764,764,764,764,764,764,764,764,764,764,764,764,764,764,764,764,764,764,764,764,764,764,764,764,764,764,764,764,764,764,764,764,764,763,763,764,764,764,764,764,764,764,764,764,764,764,764,764,765,766,766,768,768,768,768,768,768,768,768,768,768,768,768,768,768,769,769,769,769,769,769,769,769,769,769,770,770,771,772,773,775,775,776,776,776,776,777,778,778,778,778,778,778,778,778,778,778,779,781,784,791,795,805,816,835,894,966,998,1017,1025,1032,1033,1036,1038,1039,1043,1044,1045,1046,1046,1046,1046,1046,1043,1040,1018,993,973,954,938,899,878,857,836,815,780,774,760,755,751,735,725,716,707,699,678,661,655,647,645,644,643,641,636,629,613,608,602,600,596,589,567,553,539,532,524,510],"ymouse":[479,479,479,479,479,479,479,479,479,479,479,479,479,479,479,479,479,479,479,479,479,479,479,479,479,479,479,479,479,479,479,479,479,479,479,479,479,479,479,479,479,479,479,479,479,479,479,479,479,479,479,479,479,480,480,480,480,480,480,480,480,480,480,480,480,480,480,480,481,481,481,481,481,481,481,481,481,481,481,481,481,481,482,482,482,482,482,482,482,482,482,482,482,482,482,482,481,480,479,478,477,475,474,473,472,470,469,469,468,468,468,467,467,466,465,465,464,461,458,450,447,440,433,423,393,362,348,338,334,327,323,316,313,309,302,301,298,296,296,292,289,286,284,281,274,270,268,266,262,252,247,241,235,228,219,217,212,209,207,199,196,192,191,18