[{"start_time":1551899763160,"click_time":1551899788901,"finger_time":1551899763169,"fix_duration":1277.8558689357012,"trial":0,"RT":9,"MT":25732,"sideResp":2,"stimulus":[],"xmouse":[791,791,791,791,791,791,791,791,791,791,791,791,791,791,791,791,791,791,791,791,791,791,791,791,791,791,791,791,791,791,791,791,791,791,791,791,791,791,791,791,791,791,791,791,791,791,791,791,791,791,791,791,791,791,791,791,791,791,791,791,791,791,791,791,791,791,791,791,791,791,791,791,791,791,791,791,791,791,791,791,791,791,791,791,791,791,792,793,799,801,803,805,807,810,811,812,812,812,812,812,812,812,812,812,812,812,812,812,812,812,812,812,812,812,812,812,812,812,812,812,812,812,812,812,812,812,812,812,812,812,812,812,812,812,812,812,812,812,812,812,812,812,812,812,812,812,812,812,812,812,812,812,812,812,812,812,812,812,812,812,812,812,812,812,812,812,812,812,812,812,812,812,812,812,812,812,812,812,812,812,812,812,812,812,812,812,812,812,812,812,812,812,812,812,812,812,812,812,812,812,812,812,812,812,812,812,812,812,812,812,812,812,812,812,812,812,812,812,818,830,842,847,849,849,849,849,849,849,849,849,849,849,849,849,849,849,849,849,849,849,849,849,849,849,849,849,849,849,849,849,849,849,849,849,849,849,849,849,849,849,849,849,849,849,849,849,849,849,849,849,849,849,849,849,849,849,849,849,849,849,850,851,852,853,854,854,854,854,854,854,854,854,854,854,854,854,854,854,854,854,854,855,855,857,858,860,860,861,861,861,861,861,861,861,861,861,861,861,861,861,861,861,861,861,861,861,861,861,861,861,861,861,861,861,861,861,861,861,861,861,861,861,861,861,861,861,861,861,861,861,861,861,861,861,861,861,861,861,861,861,861,861,861,861,861,861,861,861,861,861,861,861,861,861,861,861,861,861,861,861,861,861,861,861,861,861,861,861,861,861,861,861,861,861,861,861,861,861,861,861,861,861,861,861,861,861,861,861,861,861,861,861,861,861,861,861,861,861,861,861,861,861,861,861,861,861,861,861,861,861,861,861,861,861,861,861,861,861,861,861,861,861,861,861,861,861,861,861,861,861,861,861,861,861,861,861,861,861,861,861,861,861,861,861,861,861,861,861,861,861,861,861,861,861,861,861,861,861,861,861,861,861,861,861,861,861,861,861,861,861,861,861,861,861,861,861,861,861,861,861,861,861,861,861,861,861,861,861,861,861,861,861,861,861,861,861,861,861,861,861,861,861,861,861,861,861,861,861,861,861,861,861,861,861,861,861,861,861,861,861,861,861,861,861,861,861,861,861,861,861,861,861,861,861,861,861,861,861,861,861,861,861,861,861,861,861,861,861,861,861,861,861,861,861,861,861,861,861,861,861,861,861,861,861,861,861,861,861,861,861,861,861,861,861,861,861,861,861,861,861,861,861,861,861,861,861,861,861,861,861,861,861,861,861,861,861,861,861,861,861,861,861,861,861,861,861,861,861,861,861,861,861,861,861,861,861,861,861,861,861,861,861,861,861,861,861,861,861,861,861,861,861,861,861,861,861,861,861,861,861,861,861,861,861,861,854,839,831,825,824,822,818,811,810,809,808,808,808,808,809,812,812,811,810,808,808,807,807,807,807,807,807,807,807,807,807,807,807,808,808,808,808,808,808,808,808,808,808,808,808,808,808,808,808,808,808,808,808,808,808,808,809,809,809,809,809,809,809,809,809,809,809,809,809,809,809,809,809,809,798,781,764,749,749,749,749,749,749,749,749,749,749,749,749,749,749,749,753,757,762,766,769,769,769,769,769,769,769,769,769,769,769,769,769,770,772,782,789,790,790,790,790,790,793,798,808,811,822,825,831,841,856,958,1019,1071,1107,1143,1151,1154,1157,1157,1161,1165,1163,1147,1117,1052,1005,924,896,877,859,844,834,823,813,801,791,791,791,791,787,779,777,777,777,777,777,778,780,784,786,787,787,787,787,787,787,787,787,787,787,787,787,787,787,787,787,787,786,787,802,870,906,924,927,916,781,681,606,558,539,567,665,836,1051,1357,1497,1491,1457,1345,1127,657,499,462,467,615,1044,1194,1268,1270,1264,1105,1005,947,940,948,1086,1123,1126,1121,1054,786,694,673,685,711,993,1008,1008,993,949,897,894,894,894,894,894,894,889,879,868,846,839,837,833,827,822,822,822,822,822,822,822,822,822,822,822,822,822,822,822,822,822,822,822,820,819,819,820,829,837,851,852,852,852,856,856,836,811,769,725,686,677,675,692,763,901,952,976,981,981,942,916,887,862,851,848,848,848,848,849,852,852,852,840,811,742,733,733,732,742,781,784,785,785,783,783,783,783,783,783,783,783,783,783,783,783,783,783,783,783,783,783,783,783,783,783,783,783,783,783,783,783,783,783,783,783,783,783,783,783,783,783,783,783,783,783,783,783,783,783,783,783,783,783,783,783,783,783,783,783,783,783,783,784,785,785,785,785,788,788,788,788,788,788,788,788,788,788,788,788,788,788,788,788,790,813,819,819,818,795,685,668,668,674,715,823,842,843,843,843,843,841,836,833,825,812,806,801,798,797,792,791,791,791,791,791,791,791,791,791,791,791,791,791,791,790,790,790,790,790,790,790,790,790,790,790,790,790,790,790,790,803,830,881,981,1002,991,916,790,644,514,524,631,973,1182,1282,1272,1174,985,778,607,614,737,822,855,856,834,778,732,728,762,876,975,1004,999,803,689,661,661,697,855,863,863,851,760,728,728,762,865,967,1010,1004,975,924,894,894,937,979,989,989,945,885,851,848,848,851,856,860,866,875,878,878,878,878,878,878,879,879,878,878,878,878,878,877,877,877,877,877,877,877,877,880,884,901,908,910,909,904,892,881,856,841,829,822,822,822,822,822,823,823,823,823,823,823,823,822,812,800,789,784,783,783,783,783,782,777,777,786,787,787,787,787,787,787,782,748,725,711,709,697,645,636,636,636,636,1226,1396,1483,1491,1439,1188,904,831,758,779,1213,1454,1561,1562,1488,941,658,560,605,946,1091],"ymouse":[525,525,525,525,525,525,525,525,525,525,525,525,525,525,525,525,525,525,525,525,525,525,525,525,525,525,525,525,525,525,525,525,525,525,525,525,525,525,525,525,525,525,525,525,525,525,525,525,525,525,525,525,525,525,525,525,525,525,525,525,525,525,525,525,525,525,525,525,525,525,525,525,525,525,525,525,525,525,525,525,525,525,525,525,524,524,521,517,507,503,500,497,493,489,488,486,486,485,485,485,485,485,485,485,485,485,485,485,485,485,485,485,485,485,484,483,482,481,481,481,481,481,481,481,481,481,481,481,481,481,481,481,481,481,481,481,481,481,481,481,481,481,481,481,478,476,476,476,476,476,476,476,476,476,476,476,476,476,476,476,476,476,476,476,476,476,476,476,476,476,476,476,476,476,476,476,476,476,476,476,476,476,476,476,476,476,476,476,476,476,476,476,476,476,476,476,476,476,476,476,476,476,476,476,476,476,476,476,476,476,476,476,476,476,476,476,476,476,466,445,429,421,420,420,420,420,420,420,420,420,420,420,420,420,420,420,420,420,420,420,420,420,420,420,420,420,420,420,420,420,420,420,420,420,420,420,420,420,420,420,420,420,420,420,420,420,420,420,420,420,420,420,420,420,420,420,420,420,420,419,406,363,341,337,334,334,334,334,334,334,334,334,334,334,334,334,334,334,334,334,334,334,334,331,329,327,325,324,324,324,324,324,324,324,324,324,324,324,324,324,324,324,324,324,324,324,324,324,324,324,324,324,324,324,324,324,324,324,324,324,324,324,324,324,324,324,324,324,324,324,324,324,324,324,324,324,324,324,324,324,324,324,324,324,324,324,324,324,324,324,324,324,324,324,324,324,324,324,324,324,324,324,324,324,324,324,324,324,324,324,324,324,324,324,324,324,324,324,324,324,324,324,324,324,324,324,324,324,324,324,324,324,324,324,324,324,324,324,324,324,324,324,324,324,324,324,324,324,324,324,324,324,324,324,324,324,324,324,324,324,324,324,324,324,324,324,324,324,324,324,324,324,324,324,324,324,324,324,324,324,324,324,324,324,324,324,324,324,324,324,324,324,324,324,324,324,324,324,324,324,324,324,324,324,324,324,324,324,324,324,324,324,324,324,324,324,324,324,324,324,324,324,324,324,324,324,324,324,324,324,324,324,324,324,324,324,324,324,324,324,324,324,324,324,324,324,324,324,324,324,324,324,324,324,324,324,324,324,324,324,324,324,324,324,324,324,324,324,324,324,324,324,324,324,324,324,324,324,324,324,324,324,324,324,324,324,324,324,324,324,324,324,324,324,324,324,324,324,324,324,324,324,324,324,324,324,324,324,324,324,324,324,324,324,324,324,324,324,324,324,324,324,324,324,324,324,324,324,324,324,324,324,324,324,324,324,324,324,324,324,324,324,324,324,324,324,324,324,324,324,324,324,324,324,324,324,324,324,324,324,324,324,324,324,324,324,324,324,324,324,324,324,324,324,324,324,324,324,324,324,324,326,347,371,399,430,466,482,496,499,505,513,525,529,532,535,538,543,557,565,573,574,576,576,576,577,577,577,577,577,577,577,577,577,579,581,584,588,588,589,590,590,590,590,590,590,590,590,590,590,590,590,590,590,590,590,590,594,598,602,606,608,609,609,609,609,609,609,609,609,609,609,609,609,609,609,609,609,611,618,626,634,638,638,638,638,638,638,638,638,638,638,638,638,638,638,638,638,639,639,639,639,639,639,639,639,639,639,639,639,639,639,639,639,639,639,634,630,630,630,630,630,629,627,624,616,614,610,608,607,602,599,585,584,582,582,582,582,580,575,569,552,505,474,438,399,349,324,290,283,282,281,287,300,324,357,405,571,637,691,720,741,771,774,776,776,776,776,772,762,744,725,684,663,647,632,629,623,623,623,623,623,623,623,623,623,623,623,632,654,674,691,698,689,675,656,608,507,480,474,485,505,568,613,650,666,654,600,586,567,532,498,490,520,540,547,576,603,612,617,617,617,617,617,617,617,617,588,576,575,574,574,575,588,593,594,594,594,594,594,601,613,630,632,632,632,632,632,632,632,632,632,632,632,632,633,636,638,638,638,638,638,638,638,638,638,638,638,638,638,638,638,638,638,638,638,640,661,678,694,708,716,725,725,725,725,718,671,627,593,560,545,553,570,597,629,667,686,681,668,658,647,621,615,613,614,618,621,621,621,621,622,622,622,622,626,631,634,634,634,634,628,622,622,622,627,631,632,632,632,632,632,632,632,632,632,632,632,632,632,632,632,632,632,632,632,632,632,632,632,632,632,631,628,627,627,627,627,627,627,627,556,556,556,556,556,556,556,556,556,556,556,556,556,556,556,556,556,556,556,556,556,556,556,556,558,559,564,564,564,649,654,657,659,662,664,664,664,664,664,664,665,665,665,665,665,661,640,632,628,627,627,659,664,664,663,658,653,651,651,651,651,651,650,650,650,650,650,650,650,650,650,651,652,652,652,652,652,652,652,652,652,652,652,652,652,652,651,650,650,649,648,646,645,645,643,643,643,643,643,643,643,642,629,610,579,525,512,511,537,592,661,740,742,737,712,696,681,681,686,709,711,699,687,604,574,570,570,587,620,638,641,625,590,569,562,562,621,639,642,642,603,523,518,518,521,561,578,578,566,541,527,527,535,560,591,610,610,594,587,586,586,612,633,639,639,637,628,621,621,620,620,620,620,620,620,620,620,619,619,619,619,619,619,619,619,619,614,614,614,614,614,614,614,613,595,585,575,574,573,572,572,591,608,620,630,630,630,630,630,626,624,624,624,624,624,624,615,597,574,553,540,536,536,536,536,536,565,613,681,733,757,767,767,767,731,659,486,415,386,384,404,690,848,848,848,848,802,689,575,501,445,435,562,608,680,682,612,561,528,525,525,525,494,409,344,92,12],"timestamp_mouse":[8,21,40,60,79,99,119,139,160,180,200,220,240,259,281,300,320,340,359,380,400,420,439,460,481,499,519,539,560,580,599,620,640,660,679,699,719,739,761,780,800,820,840,859,880,901,919,939,959,980,999,1020,1039,1060,1079,1100,1120,1139,1159,1179,1200,1220,1240,1259,1280,1300,1319,1339,1361,1380,1399,1420,1440,1460,1480,1499,1519,1540,1560,1579,1599,1621,1640,1659,1680,1699,1720,1740,1760,1780,1799,1819,1839,1860,1879,1900,1920,1940,1960,1980,2000,2019,2039,2060,2079,2099,2119,2139,2159,2180,2200,2219,2239,2259,2279,2300,2320,2341,2360,2379,2399,2420,2440,2460,2479,2500,2520,2540,2559,2580,2600,2620,2639,2659,2681,2699,2720,2740,2759,2779,2799,2820,2839,2860,2879,2901,2920,2939,2959,2979,3000,3020,3039,3060,3080,3099,3119,3139,3159,3179,3200,3220,3239,3259,3280,3300,3320,3340,3360,3379,3400,3420,3440,3460,3479,3499,3519,3541,3560,3580,3599,3619,3639,3660,3680,3699,3719,3739,3760,3780,3799,3820,3840,3860,3880,3900,3920,3940,3960,3979,3999,4019,4040,4060,4079,4099,4119,4141,4160,4179,4200,4219,4240,4260,4280,4299,4319,4340,4360,4381,4400,4419,4439,4459,4479,4499,4519,4540,4559,4579,4599,4620,4639,4659,4679,4700,4720,4740,4759,4779,4801,4820,4839,4861,4880,4899,4919,4939,4959,4980,5000,5019,5039,5060,5079,5099,5119,5140,5160,5180,5199,5219,5239,5260,5279,5300,5319,5340,5359,5380,5399,5420,5439,5459,5480,5499,5519,5539,5559,5580,5600,5619,5639,5659,5679,5699,5719,5739,5759,5779,5800,5820,5839,5860,5880,5899,5921,5940,5960,5980,6000,6020,6039,6059,6079,6100,6121,6140,6160,6179,6200,6220,6240,6259,6280,6299,6319,6339,6360,6380,6400,6419,6439,6459,6479,6500,6520,6540,6559,6579,6600,6619,6639,6660,6680,6699,6720,6740,6760,6780,6800,6821,6840,6860,6880,6899,6919,6940,6960,6979,6999,7019,7039,7059,7080,7099,7120,7139,7160,7179,7200,7220,7240,7260,7280,7299,7320,7339,7359,7379,7400,7420,7440,7460,7480,7500,7519,7540,7560,7579,7599,7620,7639,7659,7680,7700,7721,7740,7760,7780,7800,7821,7840,7860,7880,7900,7919,7940,7959,7979,8001,8020,8040,8059,8080,8099,8119,8140,8159,8179,8200,8220,8239,8260,8280,8299,8320,8339,8359,8379,8399,8419,8439,8459,8480,8500,8520,8539,8559,8580,8599,8620,8639,8659,8680,8700,8720,8739,8760,8779,8799,8820,8840,8860,8880,8900,8920,8940,8959,8980,9000,9020,9039,9060,9079,9100,9119,9139,9160,9179,9199,9219,9240,9259,9281,9299,9320,9339,9360,9379,9399,9419,9440,9460,9480,9499,9521,9540,9559,9581,9599,9619,9639,9659,9681,9700,9720,9740,9759,9781,9800,9819,9840,9859,9879,9899,9919,9941,9960,9981,9999,10020,10039,10059,10080,10099,10119,10140,10159,10180,10200,10220,10240,10259,10280,10299,10319,10339,10359,10379,10399,10420,10439,10459,10481,10499,10521,10540,10560,10579,10599,10620,10640,10659,10679,10700,10721,10740,10760,10779,10799,10819,10839,10859,10879,10900,10921,10941,10960,10979,11000,11020,11039,11060,11080,11099,11120,11139,11160,11179,11199,11220,11239,11260,11280,11300,11319,11340,11360,11380,11399,11420,11439,11460,11480,11499,11520,11540,11559,11579,11600,11620,11640,11659,11679,11700,11719,11739,11761,11780,11799,11820,11839,11859,11880,11899,11921,11940,11960,11980,11999,12020,12040,12059,12080,12099,12119,12139,12161,12179,12199,12219,12239,12259,12281,12299,12319,12339,12359,12379,12400,12420,12440,12459,12480,12499,12520,12539,12559,12579,12600,12621,12639,12659,12679,12699,12721,12741,12760,12780,12799,12819,12840,12859,12880,12900,12920,12940,12960,12980,13000,13019,13040,13059,13079,13100,13120,13140,13159,13179,13199,13219,13239,13260,13279,13301,13319,13339,13359,13380,13400,13420,13439,13460,13481,13499,13520,13539,13559,13579,13599,13619,13640,13659,13680,13701,13720,13740,13761,13780,13799,13819,13840,13859,13880,13900,13919,13940,13959,13981,13999,14019,14039,14059,14081,14100,14120,14139,14160,14179,14199,14220,14239,14259,14280,14301,14319,14339,14360,14379,14400,14420,14440,14461,14480,14500,14519,14539,14560,14579,14601,14620,14639,14659,14680,14701,14721,14740,14760,14780,14799,14819,14840,14860,14880,14899,14919,14939,14959,14979,15000,15019,15040,15059,15081,15099,15121,15140,15159,15179,15199,15221,15240,15259,15280,15299,15319,15340,15360,15381,15399,15420,15440,15459,15480,15500,15520,15539,15560,15580,15599,15619,15639,15661,15679,15699,15719,15740,15760,15779,15800,15821,15839,15860,15879,15899,15919,15939,15959,15980,15999,16020,16040,16060,16080,16100,16119,16139,16159,16181,16199,16220,16239,16260,16281,16299,16320,16340,16360,16379,16400,16421,16439,16460,16480,16501,16520,16539,16560,16581,16599,16621,16639,16659,16681,16699,16719,16739,16760,16780,16801,16820,16840,16860,16879,16900,16919,16939,16960,16980,17001,17021,17039,17060,17079,17100,17120,17140,17160,17179,17199,17220,17239,17259,17279,17299,17319,17339,17359,17380,17399,17419,17439,17461,17481,17499,17519,17539,17559,17580,17600,17620,17639,17659,17679,17699,17719,17740,17759,17780,17800,17820,17839,17859,17880,17900,17919,17939,17960,17981,17999,18021,18040,18061,18079,18100,18119,18139,18159,18179,18201,18221,18239,18259,18280,18300,18320,18340,18359,18379,18399,18421,18439,18459,18481,18499,18519,18539,18559,18579,18600,18621,18639,18659,18679,18699,18720,18739,18760,18780,18801,18821,18839,18859,18880,18900,18919,18940,18959,18979,19001,19020,19039,19061,19081,19100,19120,19140,19159,19180,19200,19221,19240,19259,19279,19299,19321,19340,19359,19380,19399,19420,19439,19459,19479,19501,19519,19539,19560,19579,19599,19619,19639,19659,19679,19701,19719,19739,19760,19779,19801,19820,19841,19860,19879,19901,19920,19939,19959,19979,20000,20021,20041,20060,20079,20100,20120,20141,20159,20179,20201,20221,20240,20259,20279,20301,20319,20341,20361,20380,20399,20420,20440,20460,20479,20501,20520,20540,20560,20580,20599,20620,20640,20659,20679,20699,20719,20740,20760,20780,20800,20819,20840,20859,20879,20900,20919,20939,20960,20980,21000,21019,21039,21060,21080,21100,21121,21140,21159,21180,21199,21220,21240,21260,21279,21299,21319,21339,21359,21380,21400,21419,21440,21460,21479,21500,21519,21539,21560,21580,21599,21620,21641,21660,21680,21701,21721,21739,21760,21779,21801,21820,21839,21860,21879,21899,21919,21940,21959,21980,22000,22020,22039,22060,22080,22099,22119,22140,22159,22180,22201,22219,22239,22259,22279,22300,22320,22339,22361,22379,22400,22421,22440,22459,22481,22499,22520,22540,22560,22581,22599,22621,22639,22659,22680,22701,22720,22739,22759,22780,22799,22821,22839,22859,22880,22899,22919,22939,22959,22980,23000,23019,23040,23060,23079,23100,23119,23141,23161,23180,23200,23219,23239,23260,23280,23299,23320,23340,23360,23380,23400,23421,23439,23459,23480,23499,23520,23539,23559,23580,23600,23620,23639,23659,23679,23700,23720,23739,23760,23779,23800,23820,23840,23860,23879,23900,23920,23939,23959,23981,24000,24020,24040,24060,24079,24099,24121,24140,24159,24179,24200,24219,24239,24259,24279,24300,24320,24340,24360,24379,24399,24419,24440,24460,24479,24499,24520,24539,24559,24580,24600,24621,24639,24660,24680,24699,24719,24739,24760,24779,24800,24820,24839,24859,24880,24900,24921,24939,24960,24979,25000,25019,25040,25060,25079,25099,25120,25140,25160,25180,25199,25220,25240,25259,25280,25299,25319,25339,25360,25380,25400,25419,25439,25460,25479,25499,25520,25540,25559,25579,25599,25620,25639,25660,25679,25699,25719,25740],"xSR":741.5,"ySR":469.95,"xT1":424.9,"yT1":0,"xT2":1058.1,"yT2":0,"toosoon":0,"cond_shown":"Congruent","ratio_trial":300,"L_num":5,"L_den":25,"R_num":7,"R_den":14,"correct_side":2,"subjID":"AndresValdiviesoCadena32","gender":"0","age":"11","school":"6","test":{"fix_dur":[250,1500],"timestim":1000,"targets_dim":[100,100],"targets_relative_coord":[0.3,0.7],"size_stim":[880,420],"start_dim":[100,100],"size_start":[300,300],"size_fix":60,"samplingrate":20,"img_types":["Congruent","Incongruent"],"ratios":[100,200,300],"rep_conds":19,"nTrials":120,"trials_to_rest":500,"Trials_order":[10,74,35,83,98,19,24,84,113,115,118,106,12,36,41,30,3,58,63,43,57,34,39,45,15,80,112,104,52,93,59,8,103,62,72,25,11,79,33,82,101,75,0,92,7,111,46,17,67,108,76,95,90,38,51,23,5,81,110,68,69,49,107,2,18,9,117,14,21,54,29,89,61,99,4,60,102,53,77,37,48,28,20,88,31,64,114,47,96,40,85,87,44,26,91,94,86,42,50,65,32,105,1,55,78,116,22,27,119,6,109,66,73,70,100,71,56,13,16,97],"cond_shown":["Congruent","Congruent","Incongruent","Incongruent","Congruent","Incongruent","Congruent","Congruent","Incongruent","Incongruent","Congruent","Congruent","Congruent","Congruent","Incongruent","Congruent","Incongruent","Congruent","Incongruent","Incongruent","Incongruent","Congruent","Incongruent","Incongruent","Incongruent","Congruent","Congruent","Congruent","Congruent","Incongruent","Incongruent","Congruent","Incongruent","Congruent","Congruent","Incongruent","Incongruent","Incongruent","Incongruent","Congruent","Incongruent","Incongruent","Congruent","Congruent","Incongruent","Incongruent","Congruent","Incongruent","Incongruent","Congruent","Congruent","Incongruent","Congruent","Congruent","Incongruent","Incongruent","Incongruent","Incongruent","Congruent","Congruent","Incongruent","Incongruent","Incongruent","Congruent","Congruent","Incongruent","Incongruent","Congruent","Incongruent","Congruent","Incongruent","Incongruent","Incongruent","Incongruent","Congruent","Congruent","Congruent","Incongruent","Incongruent","Incongruent","Congruent","Congruent","Congruent","Congruent","Incongruent","Congruent","Congruent","Incongruent","Congruent","Congruent","Incongruent","Incongruent","Congruent","Congruent","Incongruent","Congruent","Congruent","Congruent","Congruent","Incongruent","Congruent","Incongruent","Incongruent","Incongruent","Congruent","Congruent","Congruent","Incongruent","Incongruent","Congruent","Incongruent","Congruent","Incongruent","Congruent","Congruent","Incongruent","Congruent","Incongruent","Congruent","Incongruent"],"ratio_trial":[300,200,300,300,200,100,100,100,300,100,300,300,100,100,300,100,200,300,200,100,200,300,200,200,200,200,300,200,300,200,300,200,100,200,100,100,300,100,200,300,300,200,100,200,100,200,300,300,100,100,300,300,100,200,200,300,300,200,200,200,200,100,300,200,100,200,200,200,200,100,300,300,100,200,300,100,100,300,300,100,100,300,200,300,100,300,100,300,100,300,100,200,200,200,100,300,200,100,200,300,200,200,100,100,100,200,300,200,300,100,100,100,100,300,300,300,200,100,300,100],"left_num":[5,14,8,4,7,4,9,10,1,6,2,24,4,3,1,10,7,1,14,13,4,20,4,7,14,7,2,3,4,3,8,3,17,1,7,6,1,12,14,1,13,6,11,16,2,14,20,4,9,7,11,2,1,15,6,4,8,9,3,3,9,4,4,15,7,4,4,3,1,12,4,1,2,6,24,3,1,8,13,13,6,20,11,4,9,8,7,13,8,24,2,4,16,6,11,2,21,9,11,13,3,3,9,6,3,6,1,3,4,4,8,10,3,7,3,4,3,13,1,2],"right_num":[7,6,14,2,18,8,8,3,3,13,10,8,6,4,3,3,14,6,6,12,1,5,6,8,12,18,10,7,13,1,9,9,10,21,9,11,3,2,6,8,12,3,6,12,8,6,9,2,6,9,4,6,3,4,3,2,14,8,9,14,8,8,2,4,9,1,6,14,2,13,8,2,6,3,8,2,18,14,12,12,15,14,3,2,13,10,9,12,2,2,6,1,12,11,9,10,2,8,3,12,7,1,6,3,2,11,6,1,2,15,1,3,11,20,11,2,11,6,6,6],"left_den":[25,28,10,20,15,8,15,25,2,10,20,30,8,20,2,25,10,5,30,26,30,25,5,10,30,15,20,10,20,10,10,12,30,2,14,10,2,30,30,30,26,20,22,20,4,30,25,20,18,14,22,4,2,25,20,20,10,15,12,6,15,8,20,25,14,30,5,10,3,30,5,2,4,20,30,6,2,10,26,26,12,25,22,5,15,15,14,26,16,30,4,30,20,20,22,20,30,15,22,26,10,10,18,12,6,20,5,10,20,10,20,25,5,14,12,20,10,26,5,4],"right_den":[14,20,28,4,27,20,16,10,15,26,25,16,10,16,15,10,28,12,9,20,3,10,10,16,18,27,25,14,26,2,18,20,15,30,15,22,15,4,9,24,15,6,15,20,20,9,18,4,10,15,20,30,5,10,6,4,28,10,20,20,10,20,4,10,15,3,10,28,15,26,16,10,15,6,16,5,30,28,15,20,25,28,10,4,26,12,15,15,5,4,15,3,20,22,15,25,4,16,10,15,14,2,10,5,5,22,12,2,4,30,2,10,22,25,20,4,22,10,12,15],"correct_side":[2,1,1,2,2,1,1,1,1,1,2,1,2,2,1,1,1,2,2,2,2,1,1,1,2,2,2,2,2,2,1,2,2,2,2,1,1,2,2,2,2,2,1,1,1,2,1,2,2,2,1,1,2,1,2,2,1,2,2,2,2,1,2,1,2,2,1,2,1,2,1,1,1,2,1,1,2,1,2,2,2,1,1,1,1,2,2,2,1,1,1,2,1,2,2,2,1,1,1,2,2,2,2,2,1,2,2,2,2,2,2,1,1,2,2,2,2,2,2,1],"img_shown":["img2/300/Congruent/R/C_Dist_300_LN_5_LD_25_RN_7_RD_14_1.png","img2/200/Congruent/L/C_Dist_200_LN_14_LD_28_RN_6_RD_20_0.png","img2/300/Incongruent/L/I_Dist_300_LN_8_LD_10_RN_14_RD_28_0.png","img2/300/Incongruent/R/I_Dist_300_LN_4_LD_20_RN_2_RD_4_1.png","img2/200/Congruent/R/C_Dist_200_LN_7_LD_15_RN_18_RD_27_1.png","img2/100/Incongruent/L/I_Dist_100_LN_4_LD_8_RN_8_RD_20_0.png","img2/100/Congruent/L/C_Dist_100_LN_9_LD_15_RN_8_RD_16_0.png","img2/100/Congruent/L/C_Dist_100_LN_10_LD_25_RN_3_RD_10_0.png","img2/300/Incongruent/L/I_Dist_300_LN_1_LD_2_RN_3_RD_15_0.png","img2/100/Incongruent/L/I_Dist_100_LN_6_LD_10_RN_13_RD_26_0.png","img2/300/Congruent/R/C_Dist_300_LN_2_LD_20_RN_10_RD_25_1.png","img2/300/Congruent/L/C_Dist_300_LN_24_LD_30_RN_8_RD_16_0.png","img2/100/Congruent/R/C_Dist_100_LN_4_LD_8_RN_6_RD_10_1.png","img2/100/Congruent/R/C_Dist_100_LN_3_LD_20_RN_4_RD_16_1.png","img2/300/Incongruent/L/I_Dist_300_LN_1_LD_2_RN_3_RD_15_0.png","img2/100/Congruent/L/C_Dist_100_LN_10_LD_25_RN_3_RD_10_0.png","img2/200/Incongruent/L/I_Dist_200_LN_7_LD_10_RN_14_RD_28_0.png","img2/300/Congruent/R/C_Dist_300_LN_1_LD_5_RN_6_RD_12_1.png","img2/200/Incongruent/R/I_Dist_200_LN_14_LD_30_RN_6_RD_9_1.png","img2/100/Incongruent/R/I_Dist_100_LN_13_LD_26_RN_12_RD_20_1.png","img2/200/Incongruent/R/I_Dist_200_LN_4_LD_30_RN_1_RD_3_1.png","img2/300/Congruent/L/C_Dist_300_LN_20_LD_25_RN_5_RD_10_0.png","img2/200/Incongruent/L/I_Dist_200_LN_4_LD_5_RN_6_RD_10_0.png","img2/200/Incongruent/L/I_Dist_200_LN_7_LD_10_RN_8_RD_16_0.png","img2/200/Incongruent/R/I_Dist_200_LN_14_LD_30_RN_12_RD_18_1.png","img2/200/Congruent/R/C_Dist_200_LN_7_LD_15_RN_18_RD_27_1.png","img2/300/Congruent/R/C_Dist_300_LN_2_LD_20_RN_10_RD_25_1.png","img2/200/Congruent/R/C_Dist_200_LN_3_LD_10_RN_7_RD_14_1.png","img2/300/Congruent/R/C_Dist_300_LN_4_LD_20_RN_13_RD_26_1.png","img2/200/Incongruent/R/I_Dist_200_LN_3_LD_10_RN_1_RD_2_1.png","img2/300/Incongruent/L/I_Dist_300_LN_8_LD_10_RN_9_RD_18_0.png","img2/200/Congruent/R/C_Dist_200_LN_3_LD_12_RN_9_RD_20_1.png","img2/100/Incongruent/R/I_Dist_100_LN_17_LD_30_RN_10_RD_15_1.png","img2/200/Congruent/R/C_Dist_200_LN_1_LD_2_RN_21_RD_30_1.png","img2/100/Congruent/R/C_Dist_100_LN_7_LD_14_RN_9_RD_15_1.png","img2/100/Incongruent/L/I_Dist_100_LN_6_LD_10_RN_11_RD_22_0.png","img2/300/Incongruent/L/I_Dist_300_LN_1_LD_2_RN_3_RD_15_0.png","img2/100/Incongruent/R/I_Dist_100_LN_12_LD_30_RN_2_RD_4_1.png","img2/200/Incongruent/R/I_Dist_200_LN_14_LD_30_RN_6_RD_9_1.png","img2/300/Congruent/R/C_Dist_300_LN_1_LD_30_RN_8_RD_24_1.png","img2/300/Incongruent/R/I_Dist_300_LN_13_LD_26_RN_12_RD_15_1.png","img2/200/Incongruent/R/I_Dist_200_LN_6_LD_20_RN_3_RD_6_1.png","img2/100/Congruent/L/C_Dist_100_LN_11_LD_22_RN_6_RD_15_0.png","img2/200/Congruent/L/C_Dist_200_LN_16_LD_20_RN_12_RD_20_0.png","img2/100/Incongruent/L/I_Dist_100_LN_2_LD_4_RN_8_RD_20_0.png","img2/200/Incongruent/R/I_Dist_200_LN_14_LD_30_RN_6_RD_9_1.png","img2/300/Congruent/L/C_Dist_300_LN_20_LD_25_RN_9_RD_18_0.png","img2/300/Incongruent/R/I_Dist_300_LN_4_LD_20_RN_2_RD_4_1.png","img2/100/Incongruent/R/I_Dist_100_LN_9_LD_18_RN_6_RD_10_1.png","img2/100/Congruent/R/C_Dist_100_LN_7_LD_14_RN_9_RD_15_1.png","img2/300/Congruent/L/C_Dist_300_LN_11_LD_22_RN_4_RD_20_0.png","img2/300/Incongruent/L/I_Dist_300_LN_2_LD_4_RN_6_RD_30_0.png","img2/100/Congruent/R/C_Dist_100_LN_1_LD_2_RN_3_RD_5_1.png","img2/200/Congruent/L/C_Dist_200_LN_15_LD_25_RN_4_RD_10_0.png","img2/200/Incongruent/R/I_Dist_200_LN_6_LD_20_RN_3_RD_6_1.png","img2/300/Incongruent/R/I_Dist_300_LN_4_LD_20_RN_2_RD_4_1.png","img2/300/Incongruent/L/I_Dist_300_LN_8_LD_10_RN_14_RD_28_0.png","img2/200/Incongruent/R/I_Dist_200_LN_9_LD_15_RN_8_RD_10_1.png","img2/200/Congruent/R/C_Dist_200_LN_3_LD_12_RN_9_RD_20_1.png","img2/200/Congruent/R/C_Dist_200_LN_3_LD_6_RN_14_RD_20_1.png","img2/200/Incongruent/R/I_Dist_200_LN_9_LD_15_RN_8_RD_10_1.png","img2/100/Incongruent/L/I_Dist_100_LN_4_LD_8_RN_8_RD_20_0.png","img2/300/Incongruent/R/I_Dist_300_LN_4_LD_20_RN_2_RD_4_1.png","img2/200/Congruent/L/C_Dist_200_LN_15_LD_25_RN_4_RD_10_0.png","img2/100/Congruent/R/C_Dist_100_LN_7_LD_14_RN_9_RD_15_1.png","img2/200/Incongruent/R/I_Dist_200_LN_4_LD_30_RN_1_RD_3_1.png","img2/200/Incongruent/L/I_Dist_200_LN_4_LD_5_RN_6_RD_10_0.png","img2/200/Congruent/R/C_Dist_200_LN_3_LD_10_RN_14_RD_28_1.png","img2/200/Incongruent/L/I_Dist_200_LN_1_LD_3_RN_2_RD_15_0.png","img2/100/Congruent/R/C_Dist_100_LN_12_LD_30_RN_13_RD_26_1.png","img2/300/Incongruent/L/I_Dist_300_LN_4_LD_5_RN_8_RD_16_0.png","img2/300/Incongruent/L/I_Dist_300_LN_1_LD_2_RN_2_RD_10_0.png","img2/100/Incongruent/L/I_Dist_100_LN_2_LD_4_RN_6_RD_15_0.png","img2/200/Incongruent/R/I_Dist_200_LN_6_LD_20_RN_3_RD_6_1.png","img2/300/Congruent/L/C_Dist_300_LN_24_LD_30_RN_8_RD_16_0.png","img2/100/Congruent/L/C_Dist_100_LN_3_LD_6_RN_2_RD_5_0.png","img2/100/Congruent/R/C_Dist_100_LN_1_LD_2_RN_18_RD_30_1.png","img2/300/Incongruent/L/I_Dist_300_LN_8_LD_10_RN_14_RD_28_0.png","img2/300/Incongruent/R/I_Dist_300_LN_13_LD_26_RN_12_RD_15_1.png","img2/100/Incongruent/R/I_Dist_100_LN_13_LD_26_RN_12_RD_20_1.png","img2/100/Congruent/R/C_Dist_100_LN_6_LD_12_RN_15_RD_25_1.png","img2/300/Congruent/L/C_Dist_300_LN_20_LD_25_RN_14_RD_28_0.png","img2/200/Congruent/L/C_Dist_200_LN_11_LD_22_RN_3_RD_10_0.png","img2/300/Congruent/L/C_Dist_300_LN_4_LD_5_RN_2_RD_4_0.png","img2/100/Incongruent/L/I_Dist_100_LN_9_LD_15_RN_13_RD_26_0.png","img2/300/Congruent/R/C_Dist_300_LN_8_LD_15_RN_10_RD_12_1.png","img2/100/Congruent/R/C_Dist_100_LN_7_LD_14_RN_9_RD_15_1.png","img2/300/Incongruent/R/I_Dist_300_LN_13_LD_26_RN_12_RD_15_1.png","img2/100/Congruent/L/C_Dist_100_LN_8_LD_16_RN_2_RD_5_0.png","img2/300/Congruent/L/C_Dist_300_LN_24_LD_30_RN_2_RD_4_0.png","img2/100/Incongruent/L/I_Dist_100_LN_2_LD_4_RN_6_RD_15_0.png","img2/200/Incongruent/R/I_Dist_200_LN_4_LD_30_RN_1_RD_3_1.png","img2/200/Congruent/L/C_Dist_200_LN_16_LD_20_RN_12_RD_20_0.png","img2/200/Congruent/R/C_Dist_200_LN_6_LD_20_RN_11_RD_22_1.png","img2/100/Incongruent/R/I_Dist_100_LN_11_LD_22_RN_9_RD_15_1.png","img2/300/Congruent/R/C_Dist_300_LN_2_LD_20_RN_10_RD_25_1.png","img2/200/Congruent/L/C_Dist_200_LN_21_LD_30_RN_2_RD_4_0.png","img2/100/Congruent/L/C_Dist_100_LN_9_LD_15_RN_8_RD_16_0.png","img2/200/Congruent/L/C_Dist_200_LN_11_LD_22_RN_3_RD_10_0.png","img2/300/Incongruent/R/I_Dist_300_LN_13_LD_26_RN_12_RD_15_1.png","img2/200/Congruent/R/C_Dist_200_LN_3_LD_10_RN_7_RD_14_1.png","img2/200/Incongruent/R/I_Dist_200_LN_3_LD_10_RN_1_RD_2_1.png","img2/100/Incongruent/R/I_Dist_100_LN_9_LD_18_RN_6_RD_10_1.png","img2/100/Incongruent/R/I_Dist_100_LN_6_LD_12_RN_3_RD_5_1.png","img2/100/Congruent/L/C_Dist_100_LN_3_LD_6_RN_2_RD_5_0.png","img2/200/Congruent/R/C_Dist_200_LN_6_LD_20_RN_11_RD_22_1.png","img2/300/Congruent/R/C_Dist_300_LN_1_LD_5_RN_6_RD_12_1.png","img2/200/Incongruent/R/I_Dist_200_LN_3_LD_10_RN_1_RD_2_1.png","img2/300/Incongruent/R/I_Dist_300_LN_4_LD_20_RN_2_RD_4_1.png","img2/100/Congruent/R/C_Dist_100_LN_4_LD_10_RN_15_RD_30_1.png","img2/100/Incongruent/R/I_Dist_100_LN_8_LD_20_RN_1_RD_2_1.png","img2/100/Congruent/L/C_Dist_100_LN_10_LD_25_RN_3_RD_10_0.png","img2/100/Incongruent/L/I_Dist_100_LN_3_LD_5_RN_11_RD_22_0.png","img2/300/Congruent/R/C_Dist_300_LN_7_LD_14_RN_20_RD_25_1.png","img2/300/Congruent/R/C_Dist_300_LN_3_LD_12_RN_11_RD_20_1.png","img2/300/Incongruent/R/I_Dist_300_LN_4_LD_20_RN_2_RD_4_1.png","img2/200/Congruent/R/C_Dist_200_LN_3_LD_10_RN_11_RD_22_1.png","img2/100/Incongruent/R/I_Dist_100_LN_13_LD_26_RN_6_RD_10_1.png","img2/300/Congruent/R/C_Dist_300_LN_1_LD_5_RN_6_RD_12_1.png","img2/100/Incongruent/L/I_Dist_100_LN_2_LD_4_RN_6_RD_15_0.png"],"dist100_C":[["C_Dist_100_LN_10_LD_25_RN_3_RD_10_0.png","C_Dist_100_LN_11_LD_22_RN_4_RD_10_0.png","C_Dist_100_LN_11_LD_22_RN_6_RD_15_0.png","C_Dist_100_LN_15_LD_25_RN_13_RD_26_0.png","C_Dist_100_LN_3_LD_6_RN_2_RD_5_0.png","C_Dist_100_LN_6_LD_20_RN_5_RD_25_0.png","C_Dist_100_LN_8_LD_16_RN_2_RD_5_0.png","C_Dist_100_LN_9_LD_15_RN_8_RD_16_0.png"],["C_Dist_100_LN_1_LD_2_RN_18_RD_30_1.png","C_Dist_100_LN_1_LD_2_RN_3_RD_5_1.png","C_Dist_100_LN_12_LD_30_RN_13_RD_26_1.png","C_Dist_100_LN_2_LD_5_RN_11_RD_22_1.png","C_Dist_100_LN_2_LD_5_RN_6_RD_12_1.png","C_Dist_100_LN_3_LD_20_RN_4_RD_16_1.png","C_Dist_100_LN_4_LD_10_RN_15_RD_30_1.png","C_Dist_100_LN_4_LD_8_RN_6_RD_10_1.png","C_Dist_100_LN_6_LD_12_RN_15_RD_25_1.png","C_Dist_100_LN_7_LD_14_RN_15_RD_25_1.png","C_Dist_100_LN_7_LD_14_RN_9_RD_15_1.png"]],"dist100_I":[["I_Dist_100_LN_1_LD_2_RN_8_RD_20_0.png","I_Dist_100_LN_2_LD_4_RN_6_RD_15_0.png","I_Dist_100_LN_2_LD_4_RN_8_RD_20_0.png","I_Dist_100_LN_3_LD_5_RN_11_RD_22_0.png","I_Dist_100_LN_3_LD_5_RN_8_RD_16_0.png","I_Dist_100_LN_3_LD_6_RN_4_RD_10_0.png","I_Dist_100_LN_3_LD_9_RN_7_RD_30_0.png","I_Dist_100_LN_4_LD_8_RN_8_RD_20_0.png","I_Dist_100_LN_6_LD_10_RN_11_RD_22_0.png","I_Dist_100_LN_6_LD_10_RN_13_RD_26_0.png","I_Dist_100_LN_6_LD_10_RN_7_RD_14_0.png","I_Dist_100_LN_9_LD_10_RN_20_RD_25_0.png","I_Dist_100_LN_9_LD_15_RN_13_RD_26_0.png","I_Dist_100_LN_9_LD_15_RN_14_RD_28_0.png"],["I_Dist_100_LN_10_LD_25_RN_8_RD_16_1.png","I_Dist_100_LN_10_LD_25_RN_9_RD_18_1.png","I_Dist_100_LN_11_LD_22_RN_9_RD_15_1.png","I_Dist_100_LN_12_LD_24_RN_9_RD_15_1.png","I_Dist_100_LN_12_LD_30_RN_2_RD_4_1.png","I_Dist_100_LN_13_LD_26_RN_12_RD_20_1.png","I_Dist_100_LN_13_LD_26_RN_6_RD_10_1.png","I_Dist_100_LN_17_LD_30_RN_10_RD_15_1.png","I_Dist_100_LN_6_LD_12_RN_3_RD_5_1.png","I_Dist_100_LN_8_LD_16_RN_6_RD_10_1.png","I_Dist_100_LN_8_LD_20_RN_1_RD_2_1.png","I_Dist_100_LN_9_LD_18_RN_6_RD_10_1.png"]],"dist100_S":[["E_Dist_100_LN_2_LD_12_RN_2_RD_30_0.png","E_Dist_100_LN_6_LD_10_RN_6_RD_12_0.png"],["E_Dist_100_LN_6_LD_12_RN_6_RD_10_1.png"]],"dist200_C":[["C_Dist_200_LN_11_LD_22_RN_3_RD_10_0.png","C_Dist_200_LN_12_LD_15_RN_6_RD_10_0.png","C_Dist_200_LN_12_LD_20_RN_6_RD_15_0.png","C_Dist_200_LN_14_LD_28_RN_6_RD_20_0.png","C_Dist_200_LN_15_LD_25_RN_4_RD_10_0.png","C_Dist_200_LN_16_LD_20_RN_12_RD_20_0.png","C_Dist_200_LN_16_LD_30_RN_9_RD_27_0.png","C_Dist_200_LN_20_LD_25_RN_9_RD_15_0.png","C_Dist_200_LN_21_LD_30_RN_2_RD_4_0.png","C_Dist_200_LN_4_LD_10_RN_3_RD_15_0.png","C_Dist_200_LN_4_LD_8_RN_3_RD_10_0.png","C_Dist_200_LN_6_LD_15_RN_3_RD_15_0.png","C_Dist_200_LN_7_LD_21_RN_2_RD_15_0.png","C_Dist_200_LN_8_LD_15_RN_2_RD_6_0.png","C_Dist_200_LN_8_LD_15_RN_3_RD_9_0.png","C_Dist_200_LN_8_LD_15_RN_7_RD_21_0.png","C_Dist_200_LN_9_LD_20_RN_4_RD_16_0.png"],["C_Dist_200_LN_1_LD_2_RN_21_RD_30_1.png","C_Dist_200_LN_13_LD_26_RN_14_RD_20_1.png","C_Dist_200_LN_3_LD_10_RN_11_RD_22_1.png","C_Dist_200_LN_3_LD_10_RN_14_RD_28_1.png","C_Dist_200_LN_3_LD_10_RN_7_RD_14_1.png","C_Dist_200_LN_3_LD_12_RN_9_RD_20_1.png","C_Dist_200_LN_3_LD_6_RN_14_RD_20_1.png","C_Dist_200_LN_5_LD_10_RN_14_RD_20_1.png","C_Dist_200_LN_6_LD_12_RN_7_RD_10_1.png","C_Dist_200_LN_6_LD_20_RN_11_RD_22_1.png","C_Dist_200_LN_7_LD_15_RN_18_RD_27_1.png","C_Dist_200_LN_9_LD_30_RN_13_RD_26_1.png"]],"dist200_I":[["I_Dist_200_LN_1_LD_2_RN_3_RD_10_0.png","I_Dist_200_LN_1_LD_3_RN_2_RD_15_0.png","I_Dist_200_LN_3_LD_4_RN_11_RD_20_0.png","I_Dist_200_LN_4_LD_5_RN_6_RD_10_0.png","I_Dist_200_LN_4_LD_6_RN_14_RD_30_0.png","I_Dist_200_LN_7_LD_10_RN_12_RD_24_0.png","I_Dist_200_LN_7_LD_10_RN_14_RD_28_0.png","I_Dist_200_LN_7_LD_10_RN_8_RD_16_0.png"],["I_Dist_200_LN_11_LD_20_RN_3_RD_4_1.png","I_Dist_200_LN_14_LD_30_RN_12_RD_18_1.png","I_Dist_200_LN_14_LD_30_RN_6_RD_9_1.png","I_Dist_200_LN_3_LD_10_RN_1_RD_2_1.png","I_Dist_200_LN_4_LD_30_RN_1_RD_3_1.png","I_Dist_200_LN_6_LD_20_RN_3_RD_6_1.png","I_Dist_200_LN_7_LD_15_RN_4_RD_6_1.png","I_Dist_200_LN_7_LD_15_RN_6_RD_9_1.png","I_Dist_200_LN_9_LD_15_RN_8_RD_10_1.png"]],"dist200_S":[["E_Dist_200_LN_3_LD_6_RN_3_RD_10_0.png"],["E_Dist_200_LN_3_LD_10_RN_3_RD_6_1.png"]],"dist300_C":[["C_Dist_300_LN_11_LD_22_RN_1_RD_5_0.png","C_Dist_300_LN_11_LD_22_RN_2_RD_10_0.png","C_Dist_300_LN_11_LD_22_RN_4_RD_20_0.png","C_Dist_300_LN_12_LD_24_RN_2_RD_10_0.png","C_Dist_300_LN_18_LD_20_RN_9_RD_15_0.png","C_Dist_300_LN_20_LD_25_RN_13_RD_26_0.png","C_Dist_300_LN_20_LD_25_RN_14_RD_28_0.png","C_Dist_300_LN_20_LD_25_RN_5_RD_10_0.png","C_Dist_300_LN_20_LD_25_RN_8_RD_16_0.png","C_Dist_300_LN_20_LD_25_RN_9_RD_18_0.png","C_Dist_300_LN_24_LD_30_RN_2_RD_4_0.png","C_Dist_300_LN_24_LD_30_RN_8_RD_16_0.png","C_Dist_300_LN_3_LD_6_RN_2_RD_10_0.png","C_Dist_300_LN_4_LD_10_RN_1_RD_10_0.png","C_Dist_300_LN_4_LD_5_RN_2_RD_4_0.png","C_Dist_300_LN_8_LD_16_RN_1_RD_5_0.png","C_Dist_300_LN_9_LD_10_RN_3_RD_5_0.png"],["C_Dist_300_LN_1_LD_20_RN_7_RD_20_1.png","C_Dist_300_LN_1_LD_3_RN_19_RD_30_1.png","C_Dist_300_LN_1_LD_30_RN_8_RD_24_1.png","C_Dist_300_LN_1_LD_5_RN_11_RD_22_1.png","C_Dist_300_LN_1_LD_5_RN_3_RD_6_1.png","C_Dist_300_LN_1_LD_5_RN_6_RD_12_1.png","C_Dist_300_LN_2_LD_10_RN_12_RD_24_1.png","C_Dist_300_LN_2_LD_20_RN_10_RD_25_1.png","C_Dist_300_LN_3_LD_12_RN_11_RD_20_1.png","C_Dist_300_LN_3_LD_6_RN_4_RD_5_1.png","C_Dist_300_LN_4_LD_20_RN_13_RD_26_1.png","C_Dist_300_LN_5_LD_25_RN_6_RD_12_1.png","C_Dist_300_LN_5_LD_25_RN_7_RD_14_1.png","C_Dist_300_LN_7_LD_14_RN_20_RD_25_1.png","C_Dist_300_LN_8_LD_15_RN_10_RD_12_1.png"]],"dist300_I":[["I_Dist_300_LN_1_LD_2_RN_2_RD_10_0.png","I_Dist_300_LN_1_LD_2_RN_3_RD_15_0.png","I_Dist_300_LN_2_LD_4_RN_6_RD_30_0.png","I_Dist_300_LN_3_LD_6_RN_4_RD_20_0.png","I_Dist_300_LN_4_LD_5_RN_6_RD_12_0.png","I_Dist_300_LN_4_LD_5_RN_8_RD_16_0.png","I_Dist_300_LN_7_LD_10_RN_8_RD_20_0.png","I_Dist_300_LN_8_LD_10_RN_14_RD_28_0.png","I_Dist_300_LN_8_LD_10_RN_9_RD_18_0.png"],["I_Dist_300_LN_13_LD_26_RN_12_RD_15_1.png","I_Dist_300_LN_4_LD_20_RN_2_RD_4_1.png"]],"dist300_S":[["E_Dist_300_LN_9_LD_12_RN_9_RD_20_0.png"],["E_Dist_300_LN_18_LD_30_RN_18_RD_20_1.png","E_Dist_300_LN_3_LD_10_RN_3_RD_5_1.png","E_Dist_300_LN_9_LD_20_RN_9_RD_12_1.png"]],"dist500_C":[["C_Dist_500_LN_10_LD_13_RN_7_RD_26_0.png","C_Dist_500_LN_10_LD_15_RN_4_RD_24_0.png","C_Dist_500_LN_12_LD_16_RN_3_RD_12_0.png","C_Dist_500_LN_12_LD_18_RN_4_RD_24_0.png","C_Dist_500_LN_15_LD_18_RN_5_RD_15_0.png","C_Dist_500_LN_15_LD_20_RN_1_RD_4_0.png","C_Dist_500_LN_18_LD_27_RN_1_RD_6_0.png","C_Dist_500_LN_20_LD_24_RN_1_RD_3_0.png","C_Dist_500_LN_20_LD_24_RN_3_RD_9_0.png","C_Dist_500_LN_20_LD_24_RN_7_RD_21_0.png","C_Dist_500_LN_20_LD_28_RN_3_RD_14_0.png","C_Dist_500_LN_21_LD_28_RN_6_RD_24_0.png","C_Dist_500_LN_22_LD_28_RN_2_RD_7_0.png","C_Dist_500_LN_25_LD_30_RN_9_RD_27_0.png","C_Dist_500_LN_4_LD_6_RN_1_RD_6_0.png","C_Dist_500_LN_5_LD_6_RN_2_RD_6_0.png","C_Dist_500_LN_6_LD_9_RN_1_RD_6_0.png","C_Dist_500_LN_7_LD_10_RN_1_RD_5_0.png","C_Dist_500_LN_8_LD_12_RN_1_RD_6_0.png","C_Dist_500_LN_8_LD_12_RN_4_RD_24_0.png"],["C_Dist_500_LN_1_LD_4_RN_12_RD_16_1.png","C_Dist_500_LN_1_LD_4_RN_9_RD_12_1.png","C_Dist_500_LN_1_LD_9_RN_11_RD_18_1.png","C_Dist_500_LN_10_LD_24_RN_22_RD_24_1.png","C_Dist_500_LN_2_LD_12_RN_10_RD_15_1.png","C_Dist_500_LN_2_LD_12_RN_12_RD_18_1.png","C_Dist_500_LN_2_LD_12_RN_4_RD_6_1.png","C_Dist_500_LN_2_LD_24_RN_7_RD_12_1.png","C_Dist_500_LN_2_LD_5_RN_18_RD_20_1.png","C_Dist_500_LN_2_LD_5_RN_9_RD_10_1.png","C_Dist_500_LN_2_LD_8_RN_12_RD_16_1.png","C_Dist_500_LN_2_LD_8_RN_21_RD_28_1.png","C_Dist_500_LN_3_LD_10_RN_4_RD_5_1.png","C_Dist_500_LN_3_LD_12_RN_15_RD_20_1.png","C_Dist_500_LN_3_LD_30_RN_6_RD_10_1.png","C_Dist_500_LN_3_LD_8_RN_14_RD_16_1.png","C_Dist_500_LN_4_LD_16_RN_15_RD_20_1.png","C_Dist_500_LN_4_LD_24_RN_12_RD_18_1.png","C_Dist_500_LN_5_LD_14_RN_6_RD_7_1.png","C_Dist_500_LN_7_LD_21_RN_20_RD_24_1.png","C_Dist_500_LN_7_LD_28_RN_12_RD_16_1.png","C_Dist_500_LN_7_LD_28_RN_9_RD_12_1.png","C_Dist_500_LN_9_LD_27_RN_20_RD_24_1.png"]],"dist500_I":[["I_Dist_500_LN_2_LD_3_RN_4_RD_24_0.png","I_Dist_500_LN_5_LD_6_RN_6_RD_18_0.png","I_Dist_500_LN_7_LD_8_RN_9_RD_24_0.png"],["I_Dist_500_LN_7_LD_21_RN_5_RD_6_1.png"]],"dist500_S":[["E_Dist_500_LN_6_LD_8_RN_6_RD_24_0.png"],["E_Dist_500_LN_2_LD_12_RN_2_RD_3_1.png","E_Dist_500_LN_6_LD_24_RN_6_RD_8_1.png"]]}},{"start_time":1551899792081,"click_time":1551899794600,"finger_time":1551899794039,"fix_duration":1181.9675441922773,"trial":1,"RT":1958,"MT":561,"sideResp":1,"stimulus":[],"xmouse":[799,799,799,799,799,799,799,799,799,799,799,799,799,799,798,798,798,798,798,798,798,798,798,798,798,798,798,798,798,798,798,798,798,798,798,798,798,798,798,798,798,798,798,798,798,798,798,798,798,798,798,798,798,798,798,798,798,798,798,798,798,798,798,798,798,798,798,798,798,798,798,798,798,798,798,798,798,798,798,798,798,798,798,798,798,798,798,798,798,798,798,798,798,798,797,784,774,763,745,728,696,676,647,622,605,591,577,577,579,583,574,566,559,555,544,505,491,484,473,472,471,470,470,473,481,501],"ymouse":[647,647,647,647,647,647,647,647,647,647,647,647,647,647,647,647,647,647,647,647,647,647,647,647,647,647,647,647,647,647,647,647,647,647,647,647,647,647,647,647,647,647,647,647,647,647,647,647,647,647,647,647,647,647,647,647,647,647,647,647,647,647,647,647,647,647,647,647,647,647,647,647,647,647,646,646,646,646,646,646,646,646,646,646,646,646,646,646,646,646,646,646,643,641,636,607,585,561,517,486,434,406,371,339,315,294,258,245,234,206,156,142,137,137,137,136,133,131,129,128,127,127,126,123,119,99],"timestamp_mouse":[18,52,58,78,98,119,139,158,179,198,219,238,259,278,298,319,338,358,379,400,419,440,458,478,498,519,540,558,580,599,619,640,658,680,700,718,740,759,779,798,818,838,859,878,899,920,939,960,980,999,1019,1039,1060,1078,1098,1119,1138,1159,1179,1200,1219,1239,1258,1278,1299,1320,1339,1358,1380,1398,1419,1440,1459,1479,1499,1518,1539,1558,1578,1598,1619,1640,1659,1679,1699,1719,1740,1759,1779,1798,1819,1840,1858,1880,1898,1920,1938,1958,1979,2000,2019,2038,2058,2079,2098,2118,2139,2159,2178,2199,2218,2239,2259,2279,2298,2319,2338,2360,2378,2399,2418,2438,2459,2480,2498,2518],"xSR":741.5,"ySR":573.95,"xT1":424.9,"yT1":0,"xT2":1058.1,"yT2":0,"toosoon":0,"cond_shown":"Congruent","ratio_trial":200,"L_num":14,"L_den":28,"R_num":6,"R_den":20,"correct_side":1,"subjID":"AndresValdiviesoCadena32","gender":"0","school":"6","age":"11"},{"start_time":1551899797160,"click_time":1551899798679,"finger_time":1551899798300,"fix_duration":1459.9921553234794,"trial":2,"RT":1140,"MT":379,"sideResp":1,"stimulus":[],"xmouse":[823,823,823,823,823,823,823,823,823,823,823,823,823,823,823,823,823,823,823,823,823,823,823,823,823,823,823,823,823,823,823,823,823,823,823,823,823,823,823,823,823,823,823,823,823,823,823,823,823,822,822,822,822,822,822,822,822,788,728,658,601,570,562,562,558,555,552,551,551,551,551,551,549,545,536,527,511],"ymouse":[639,639,639,639,639,639,639,639,639,639,639,639,639,639,639,639,639,639,639,639,639,639,639,639,639,639,639,639,639,639,639,639,639,639,639,639,639,639,639,639,639,639,639,639,639,639,639,639,639,639,639,638,638,638,638,637,634,552,441,295,129,0,0,0,0,0,0,0,0,0,0,0,0,0,1,4,8],"timestamp_mouse":[1,20,40,60,80,100,120,139,160,180,200,219,240,261,279,300,319,340,359,380,399,419,439,460,480,499,521,539,560,579,599,619,640,661,679,699,720,739,760,779,800,819,841,860,880,899,920,940,960,980,1000,1019,1039,1060,1079,1100,1119,1140,1159,1180,1199,1219,1239,1260,1279,1299,1321,1339,1359,1379,1399,1420,1440,1459,1480,1499,1519],"xSR":741.5,"ySR":573.95,"xT1":424.9,"yT1":0,"xT2":1058.1,"yT2":0,"toosoon":0,"cond_shown":"Incongruent","ratio_trial":300,"L_num":8,"L_den":10,"R_num":14,"R_den":28,"correct_side":1,"subjID":"AndresValdiviesoCadena32","gender":"0","school":"6","age":"11"},{"start_time":1551899800282,"click_time":1551899801780,"finger_time":1551899801379,"fix_duration":661.7031547794035,"trial":3,"RT":1097,"MT":401,"sideResp":2,"stimulus":[],"xmouse":[792,792,792,792,792,792,792,792,792,792,792,792,792,792,792,792,792,792,792,792,792,792,792,792,792,792,792,792,792,792,792,792,792,792,792,792,792,792,792,792,792,792,792,792,792,792,792,792,793,795,802,808,817,829,845,890,916,937,949,961,980,987,992,995,995,998,999,1002,1009,1019,1043,1064,1089,1123,1147],"ymouse":[617,617,617,617,617,617,617,617,617,617,617,617,617,617,617,617,617,617,617,617,617,617,617,617,617,617,617,617,617,617,617,617,617,617,617,617,617,617,617,617,617,617,617,617,617,617,617,617,617,617,618,618,617,612,604,584,570,551,528,466,330,275,243,212,196,187,181,176,167,154,138,129,120,107,96],"timestamp_mouse":[18,37,58,77,98,117,139,158,178,199,218,238,257,277,299,317,337,358,379,398,418,437,457,477,498,518,538,558,578,599,618,638,657,679,697,717,737,757,777,797,817,839,858,877,898,918,937,957,977,998,1017,1038,1058,1077,1097,1118,1139,1158,1178,1199,1218,1237,1258,1277,1298,1317,1339,1358,1377,1398,1417,1437,1458,1478,1497],"xSR":741.5,"ySR":573.95,"xT1":424.9,"yT1":0,"xT2":1058.1,"yT2":0,"toosoon":0,"cond_shown":"Incongruent","ratio_trial":300,"L_num":4,"L_den":20,"R_num":2,"R_den":4,"correct_side":2,"subjID":"AndresValdiviesoCadena32","gender":"0","school":"6","age":"11"},{"start_time":1551899803125,"click_time":1551899804800,"finger_time":1551899804460,"fix_duration":364.01219097913275,"trial":4,"RT":1335,"MT":340,"sideResp":2,"stimulus":[],"xmouse":[769,769,769,769,769,769,769,769,769,769,769,769,769,769,769,769,769,769,769,769,769,769,769,769,769,769,769,769,769,769,769,769,769,769,769,769,769,769,769,769,769,769,769,769,769,769,769,769,769,769,769,769,769,769,769,769,769,769,769,769,769,769,769,769,773,803,830,949,1026,1110,1120,1124,1127,1132,1135,1135,1135,1131,1126,1126,1126,1131,1133,1135],"ymouse":[608,608,608,608,608,608,608,608,608,608,608,608,608,608,608,608,608,608,608,608,608,608,608,608,608,608,608,608,608,608,608,608,608,608,608,608,608,608,608,608,608,608,608,608,608,608,608,608,608,608,608,608,608,608,608,608,608,608,608,608,608,608,608,608,602,586,565,470,395,301,280,267,257,241,229,220,205,192,170,160,144,123,102,59],"timestamp_mouse":[14,47,54,75,94,115,135,155,174,194,216,234,254,275,294,315,334,354,374,394,416,434,454,475,494,516,535,554,575,596,615,634,655,675,694,715,735,754,774,794,814,834,854,876,894,915,934,954,974,995,1015,1034,1055,1074,1094,1115,1135,1155,1174,1195,1215,1235,1254,1275,1295,1315,1335,1354,1374,1395,1414,1435,1455,1474,1494,1514,1534,1556,1574,1594,1614,1634,1655,1674],"xSR":741.5,"ySR":573.95,"xT1":424.9,"yT1":0,"xT2":1058.1,"yT2":0,"toosoon":0,"cond_shown":"Congruent","ratio_trial":200,"L_num":7,"L_den":15,"R_num":18,"R_den":27,"correct_side":2,"subjID":"AndresValdiviesoCadena32","gender":"0","school":"6","age":"11"},{"start_time":1551899806618,"click_time":1551899808459,"finger_time":1551899808040,"fix_duration":936.7750555298417,"trial":5,"RT":1422,"MT":419,"sideResp":1,"stimulus":[],"xmouse":[786,786,786,786,786,786,786,786,786,786,786,786,786,786,786,786,786,786,786,786,786,786,786,786,786,786,786,786,786,786,786,786,786,786,786,786,786,786,786,786,786,786,786,786,786,786,786,786,786,786,786,786,786,786,786,786,786,786,786,786,786,786,786,786,786,786,786,786,786,786,782,760,714,645,575,565,538,524,516,512,512,512,510,506,498,496,494,492,490,488,487,487,487],"ymouse":[612,612,612,612,612,612,612,612,612,612,612,612,612,612,612,612,612,612,612,612,612,612,612,612,612,612,612,612,612,612,612,612,612,612,612,612,612,612,612,612,612,612,612,612,612,612,612,612,612,612,612,612,612,612,612,612,612,612,612,612,612,612,612,612,612,612,612,612,612,612,601,549,449,286,71,26,0,0,0,0,0,0,0,0,0,0,0,0,0,0,0,0,1],"timestamp_mouse":[8,34,41,62,81,101,122,141,163,181,201,222,241,261,282,302,322,341,361,381,401,421,441,461,481,503,523,542,562,582,601,623,642,662,682,702,721,741,763,783,802,822,843,862,882,902,921,941,963,982,1002,1021,1041,1061,1081,1103,1121,1142,1163,1181,1202,1222,1243,1262,1281,1301,1322,1342,1362,1381,1401,1422,1442,1461,1481,1501,1521,1542,1561,1582,1603,1621,1641,1661,1682,1701,1721,1741,1762,1782,1801,1821,1841],"xSR":741.5,"ySR":573.95,"xT1":424.9,"yT1":0,"xT2":1058.1,"yT2":0,"toosoon":0,"cond_shown":"Incongruent","ratio_trial":100,"L_num":4,"L_den":8,"R_num":8,"R_den":20,"correct_side":1,"subjID":"AndresValdiviesoCadena32","gender":"0","school":"6","age":"11"},{"start_time":1551899812118,"click_time":1551899814059,"finger_time":1551899813639,"fix_duration":1297.6531660189419,"trial":6,"RT":1521,"MT":420,"sideResp":1,"stimulus":[],"xmouse":[769,769,769,769,769,769,769,769,769,769,769,769,769,769,769,769,769,769,769,769,769,769,769,769,769,769,769,769,769,769,769,769,769,769,769,769,769,769,769,769,769,769,769,769,769,769,769,769,769,769,769,769,769,769,769,769,769,769,769,769,769,769,769,769,769,769,769,769,769,769,769,769,769,769,770,757,716,664,579,470,435,411,401,395,394,391,387,385,385,385,385,393,403,406,414,419,424,433],"ymouse":[622,622,622,622,622,622,622,622,622,622,622,622,622,622,622,622,622,622,622,622,622,622,622,622,622,622,622,622,622,622,622,622,622,622,622,622,622,622,622,622,622,622,622,622,622,622,622,622,622,622,622,622,622,622,622,622,622,622,622,622,622,622,622,622,622,622,622,622,622,622,622,622,622,622,619,575,483,362,123,0,0,0,0,0,0,0,0,0,0,0,0,5,11,14,16,18,20,26],"timestamp_mouse":[9,31,42,61,82,103,122,141,162,182,202,221,241,261,281,303,321,342,362,382,402,422,442,462,482,501,521,542,562,583,603,622,642,663,682,702,722,743,762,782,801,821,841,862,882,902,922,941,962,981,1002,1022,1042,1062,1081,1102,1121,1141,1162,1183,1202,1221,1242,1261,1282,1302,1322,1343,1361,1381,1401,1423,1441,1463,1482,1502,1521,1541,1561,1581,1601,1621,1642,1663,1682,1702,1721,1741,1762,1783,1802,1822,1842,1862,1881,1901,1921,1941],"xSR":741.5,"ySR":573.95,"xT1":424.9,"yT1":0,"xT2":1058.1,"yT2":0,"toosoon":0,"cond_shown":"Congruent","ratio_trial":100,"L_num":9,"L_den":15,"R_num":8,"R_den":16,"correct_side":1,"subjID":"AndresValdiviesoCadena32","gender":"0","school":"6","age":"11"},{"start_time":1551899815192,"click_time":1551899818260,"finger_time":1551899818159,"fix_duration":250,"trial":7,"RT":2967,"MT":101,"sideResp":2,"stimulus":[],"xmouse":[767,767,767,767,767,767,767,767,767,767,767,768,768,768,769,769,769,769,769,769,769,769,769,769,769,769,769,769,769,769,769,769,769,769,769,769,769,769,769,769,769,769,769,769,769,769,769,769,769,769,769,769,769,769,769,769,769,769,769,769,769,769,769,769,769,769,769,769,769,769,769,769,769,769,769,769,769,769,769,769,769,769,769,769,769,769,769,769,769,769,769,769,769,769,769,769,769,769,769,769,769,769,769,769,769,769,769,769,769,769,769,769,769,769,769,769,769,769,769,769,769,769,769,769,769,769,769,769,769,769,769,769,769,769,769,769,769,769,769,769,769,769,769,769,769,769,775,784,816,937,993,1032,1063],"ymouse":[588,589,589,589,589,589,589,589,589,589,589,590,590,590,591,591,591,591,591,591,591,591,591,591,591,591,591,591,591,591,591,591,591,591,591,591,591,591,591,591,591,591,591,591,591,591,591,591,591,591,591,591,591,591,591,591,591,591,591,591,591,591,591,591,591,591,591,591,591,591,591,591,591,591,591,591,591,591,591,591,591,591,591,591,591,591,591,591,591,591,591,591,591,591,591,591,591,591,591,591,591,591,591,591,591,591,591,591,591,591,591,591,591,591,591,591,591,591,591,591,591,591,591,591,591,591,591,591,591,591,591,591,591,591,591,591,591,591,591,591,591,591,591,591,591,591,579,564,506,312,203,107,35],"timestamp_mouse":[29,48,67,88,108,127,148,169,188,207,227,248,268,288,308,328,348,367,387,408,427,448,468,488,508,529,547,568,588,608,628,648,668,689,708,727,748,767,787,808,828,848,868,888,908,928,949,968,988,1007,1027,1047,1068,1087,1108,1128,1147,1167,1187,1207,1227,1248,1268,1287,1308,1329,1347,1368,1391,1407,1427,1448,1469,1488,1508,1527,1547,1568,1589,1607,1627,1648,1667,1687,1708,1728,1749,1767,1788,1807,1827,1847,1868,1889,1908,1927,1948,1969,1987,2008,2027,2048,2068,2088,2108,2127,2147,2168,2187,2207,2227,2249,2267,2289,2308,2328,2348,2368,2388,2408,2428,2447,2467,2487,2509,2528,2547,2567,2587,2608,2628,2647,2667,2687,2707,2727,2748,2767,2789,2809,2827,2848,2868,2889,2908,2927,2947,2967,2989,3008,3027,3048,3068],"xSR":741.5,"ySR":573.95,"xT1":424.9,"yT1":0,"xT2":1058.1,"yT2":0,"toosoon":0,"cond_shown":"Congruent","ratio_trial":100,"L_num":10,"L_den":25,"R_num":3,"R_den":10,"correct_side":1,"subjID":"AndresValdiviesoCadena32","gender":"0","school":"6","age":"11"},{"start_time":1551899820990,"click_time":1551899822398,"finger_time":1551899822299,"fix_duration":849.2213988488396,"trial":8,"RT":1309,"MT":99,"sideResp":1,"stimulus":[],"xmouse":[758,758,758,758,758,758,758,758,758,758,758,758,758,758,758,758,758,758,758,758,758,758,758,758,758,758,758,758,758,758,758,758,758,758,758,758,758,758,758,758,758,758,758,758,758,758,758,758,758,758,758,758,758,758,758,758,758,758,758,758,758,758,757,756,747,681,626,570,519,492,482],"ymouse":[623,623,623,623,623,623,623,623,623,623,623,623,623,623,623,623,623,623,623,623,623,623,623,623,623,623,623,623,623,623,623,623,623,623,623,623,623,623,623,623,623,623,623,623,623,623,623,623,623,623,623,623,623,623,623,623,623,623,623,623,623,623,623,621,600,480,386,295,209,147,97],"timestamp_mouse":[9,39,49,69,89,108,128,149,169,188,210,229,249,268,289,310,329,349,369,390,409,428,449,468,489,510,528,550,568,589,609,628,649,668,689,708,729,748,769,788,810,828,849,868,889,909,929,949,968,990,1010,1028,1049,1070,1089,1108,1130,1149,1169,1188,1209,1230,1248,1269,1290,1309,1330,1349,1369,1389,1408],"xSR":741.5,"ySR":573.95,"xT1":424.9,"yT1":0,"xT2":1058.1,"yT2":0,"toosoon":0,"cond_shown":"Incongruent","ratio_trial":300,"L_num":1,"L_den":2,"R_num":3,"R_den":15,"correct_side":1,"subjID":"AndresValdiviesoCadena32","gender":"0","school":"6","age":"11"},{"start_time":1551899824083,"click_time":1551899827379,"finger_time":1551899825898,"fix_duration":741.0054612245449,"trial":9,"RT":1815,"MT":1481,"sideResp":2,"stimulus":[],"xmouse":[774,774,774,774,774,774,774,774,774,774,774,774,774,774,774,774,774,774,774,774,774,774,774,774,774,774,774,774,774,774,774,774,774,774,774,774,774,774,774,774,774,774,774,774,774,774,774,774,774,774,774,774,774,774,774,774,774,774,774,774,774,774,774,774,774,774,774,774,774,774,774,774,774,774,774,774,771,764,760,759,759,759,759,759,759,759,759,759,758,753,746,735,723,709,692,686,680,677,675,674,673,673,673,672,669,665,660,651,639,631,627,625,624,624,624,624,624,624,624,624,624,624,624,624,621,621,621,621,623,630,634,639,649,665,730,781,853,912,958,976,977,977,977,978,978,979,979,982,988,993,994,994,994,994,994,994,994,994,994,994,1028,1043,1053,1059],"ymouse":[597,597,597,597,597,597,597,597,597,597,597,597,597,597,597,597,597,597,597,597,597,597,597,597,597,597,597,597,597,597,597,597,597,597,597,597,597,597,597,597,597,597,597,597,597,597,597,597,597,597,597,597,597,597,597,597,597,597,597,597,597,597,597,597,597,597,597,597,597,597,597,597,597,597,597,597,596,589,584,582,582,582,582,582,582,582,582,582,580,564,550,530,508,486,445,431,417,410,404,402,397,394,390,382,361,349,336,321,297,269,259,251,246,244,242,242,242,241,241,236,232,226,219,210,177,159,133,126,106,87,80,74,68,62,45,32,18,4,0,0,0,0,0,0,0,0,0,0,0,0,0,0,0,0,0,0,0,0,0,0,16,24,29,31],"timestamp_mouse":[38,56,76,96,116,136,155,176,195,215,237,255,276,297,317,335,356,376,397,416,435,455,476,497,515,536,556,576,596,615,637,656,675,696,717,736,756,776,797,816,836,857,876,896,916,937,957,976,997,1016,1037,1056,1075,1097,1117,1137,1156,1177,1195,1217,1236,1256,1277,1295,1317,1335,1356,1377,1397,1417,1437,1455,1477,1495,1516,1537,1555,1577,1596,1615,1636,1657,1677,1695,1717,1736,1757,1777,1796,1815,1836,1856,1876,1896,1915,1935,1956,1976,1996,2015,2036,2055,2076,2096,2117,2136,2155,2176,2196,2215,2235,2256,2276,2297,2315,2337,2356,2375,2396,2416,2435,2457,2476,2496,2515,2537,2556,2576,2596,2615,2637,2656,2677,2696,2717,2736,2756,2776,2795,2815,2836,2857,2876,2897,2916,2936,2955,2976,2996,3017,3037,3056,3077,3097,3116,3137,3155,3176,3196,3215,3236,3256,3276,3296],"xSR":741.5,"ySR":573.95,"xT1":424.9,"yT1":0,"xT2":1058.1,"yT2":0,"toosoon":0,"cond_shown":"Incongruent","ratio_trial":100,"L_num":6,"L_den":10,"R_num":13,"R_den":26,"correct_side":1,"subjID":"AndresValdiviesoCadena32","gender":"0","school":"6","age":"11"},{"start_time":1551899830084,"click_time":1551899831699,"finger_time":1551899831079,"fix_duration":1323.5017169303876,"trial":10,"RT":995,"MT":620,"sideResp":2,"stimulus":[],"xmouse":[767,767,767,767,767,767,767,767,767,767,767,767,767,767,767,767,767,767,767,767,767,767,767,767,767,767,767,767,767,767,767,767,767,767,767,767,767,767,767,767,767,767,767,767,767,767,770,777,800,824,894,933,972,1010,1031,1058,1069,1075,1080,1083,1084,1084,1086,1096,1108,1122,1127,1128,1128,1128,1128,1128,1128,1128,1128,1128,1128,1128,1128,1129,1129],"ymouse":[662,662,662,662,662,662,662,662,662,662,662,662,662,662,662,662,662,662,662,662,662,662,662,662,662,662,662,662,662,662,662,662,662,662,662,662,662,662,662,662,662,662,662,662,662,662,656,645,595,536,370,278,189,103,35,0,0,0,0,0,0,0,0,0,0,0,0,0,0,0,0,0,0,0,0,0,0,0,0,0,8],"timestamp_mouse":[15,34,54,75,94,114,134,156,174,196,214,236,256,274,295,314,336,354,375,395,414,436,456,475,496,515,536,555,576,595,615,636,656,675,694,716,734,756,775,796,814,834,856,875,894,916,934,954,975,995,1015,1034,1054,1075,1095,1114,1134,1155,1174,1194,1214,1235,1255,1274,1296,1315,1335,1356,1376,1395,1414,1434,1455,1475,1496,1515,1535,1555,1575,1595,1615],"xSR":741.5,"ySR":573.95,"xT1":424.9,"yT1":0,"xT2":1058.1,"yT2":0,"toosoon":0,"cond_shown":"Congruent","ratio_trial":300,"L_num":2,"L_den":20,"R_num":10,"R_den":25,"correct_side":2,"subjID":"AndresValdiviesoCadena32","gender":"0","school":"6","age":"11"},{"start_time":1551899833448,"click_time":1551899834679,"finger_time":1551899834398,"fix_duration":767.1269980373988,"trial":11,"RT":950,"MT":281,"sideResp":1,"stimulus":[],"xmouse":[792,792,792,792,792,792,792,792,792,792,792,792,792,792,792,792,792,792,792,792,792,792,792,792,792,792,792,792,792,792,792,792,792,792,792,792,792,792,792,792,792,792,792,792,792,790,788,747,714,683,650,625,580,559,543,531,522,517,517,517,517,516],"ymouse":[647,647,647,647,647,647,647,647,647,647,647,647,647,647,647,647,647,647,647,647,647,647,647,647,647,647,647,647,647,647,647,647,647,647,647,647,647,647,647,647,647,647,647,647,646,641,632,522,424,308,148,56,0,0,0,0,0,0,0,0,0,1],"timestamp_mouse":[11,38,52,70,92,112,131,152,170,191,210,232,251,272,290,311,332,350,370,391,411,431,452,470,492,511,532,550,571,591,612,630,652,670,692,710,731,750,772,790,812,831,850,870,891,911,932,950,971,990,1010,1031,1050,1071,1091,1111,1132,1152,1170,1191,1210,1231],"xSR":741.5,"ySR":573.95,"xT1":424.9,"yT1":0,"xT2":1058.1,"yT2":0,"toosoon":0,"cond_shown":"Congruent","ratio_trial":300,"L_num":24,"L_den":30,"R_num":8,"R_den":16,"correct_side":1,"subjID":"AndresValdiviesoCadena32","gender":"0","school":"6","age":"11"},{"start_time":1551899836001,"click_time":1551899837679,"finger_time":1551899837419,"fix_duration":479.5246479464184,"trial":12,"RT":1418,"MT":260,"sideResp":2,"stimulus":[],"xmouse":[747,747,747,747,747,747,747,747,747,747,747,747,747,747,747,747,747,747,747,747,747,747,747,747,747,747,747,747,747,747,747,747,747,747,747,747,747,747,747,747,747,747,747,747,747,747,747,747,747,747,747,747,747,747,747,747,747,747,747,747,747,747,747,747,747,747,752,757,775,814,837,854,871,876,887,896,911,924,945,985,1005,1024,1048,1100],"ymouse":[639,639,639,639,639,639,639,639,639,639,639,639,639,639,639,639,639,639,639,639,639,639,639,639,639,639,639,639,639,639,639,639,639,639,639,639,639,639,639,639,639,639,639,639,639,639,639,639,639,639,639,639,639,639,639,639,639,639,639,639,639,639,639,639,639,639,635,630,616,588,572,562,551,548,534,521,501,478,437,323,260,192,131,31],"timestamp_mouse":[30,38,59,77,99,117,138,158,179,197,218,237,259,279,298,317,338,359,377,398,417,438,459,478,498,517,539,559,579,599,617,639,657,679,697,718,739,758,778,798,819,838,858,879,898,918,938,958,977,999,1019,1039,1057,1079,1099,1118,1137,1157,1178,1199,1217,1238,1257,1278,1299,1317,1339,1358,1379,1398,1418,1438,1459,1477,1497,1518,1538,1558,1578,1598,1618,1638,1657,1678],"xSR":741.5,"ySR":573.95,"xT1":424.9,"yT1":0,"xT2":1058.1,"yT2":0,"toosoon":0,"cond_shown":"Congruent","ratio_trial":100,"L_num":4,"L_den":8,"R_num":6,"R_den":10,"correct_side":2,"subjID":"AndresValdiviesoCadena32","gender":"0","school":"6","age":"11"},{"start_time":1551899840377,"click_time":1551899842560,"finger_time":1551899842180,"fix_duration":496.5080127991122,"trial":13,"RT":1803,"MT":380,"sideResp":2,"stimulus":[],"xmouse":[814,814,814,814,814,814,814,814,814,814,814,814,814,814,814,814,814,814,814,814,814,814,814,814,814,814,814,814,814,814,814,814,814,814,814,814,814,814,814,814,814,814,814,814,814,814,814,814,814,814,814,814,814,814,814,814,814,814,814,814,814,814,814,814,814,814,814,814,814,814,814,814,814,814,814,814,814,814,814,814,814,814,814,814,814,814,814,814,816,822,839,916,971,1029,1102,1142,1194,1200,1211,1216,1219,1221,1218,1214,1210,1202,1179,1167,1160,1152],"ymouse":[603,603,603,603,603,603,603,603,603,603,603,603,603,603,603,603,603,603,603,603,603,603,603,603,603,603,603,603,603,603,603,603,603,603,603,603,603,603,603,603,603,603,603,603,603,603,603,603,603,603,603,603,603,603,603,603,603,603,603,603,603,603,603,603,603,603,603,603,603,603,603,603,603,603,603,603,603,603,603,603,603,603,603,603,603,603,603,603,600,591,570,472,398,321,200,128,22,5,0,0,0,0,0,0,0,0,4,7,10,15],"timestamp_mouse":[8,22,50,62,82,102,122,141,162,182,202,221,242,262,282,303,323,341,362,383,401,421,441,463,482,503,522,542,563,583,601,622,642,662,683,701,722,743,763,783,803,822,841,863,881,902,922,943,962,982,1002,1022,1043,1061,1083,1103,1122,1143,1162,1182,1203,1222,1242,1263,1281,1303,1322,1342,1363,1383,1403,1422,1442,1462,1483,1501,1522,1543,1561,1583,1601,1622,1641,1661,1683,1701,1722,1741,1761,1782,1803,1823,1842,1862,1883,1903,1922,1941,1962,1983,2003,2022,2041,2063,2082,2103,2123,2142,2162,2183],"xSR":741.5,"ySR":573.95,"xT1":424.9,"yT1":0,"xT2":1058.1,"yT2":0,"toosoon":0,"cond_shown":"Congruent","ratio_trial":100,"L_num":3,"L_den":20,"R_num":4,"R_den":16,"correct_side":2,"subjID":"AndresValdiviesoCadena32","gender":"0","school":"6","age":"11"},{"start_time":1551899846930,"click_time":1551899848599,"finger_time":1551899848259,"fix_duration":1470.2886906497051,"trial":14,"RT":1329,"MT":340,"sideResp":1,"stimulus":[],"xmouse":[808,808,808,808,808,808,808,808,808,808,808,808,808,808,808,808,808,808,808,808,808,808,808,808,808,808,808,808,808,808,808,808,808,808,808,808,808,808,808,808,808,808,808,808,808,808,808,808,808,808,808,808,808,808,808,808,808,808,808,808,808,807,805,792,779,760,732,714,670,644,627,611,603,601,601,601,600,595,586,577,566,553,539,518],"ymouse":[631,631,631,631,631,631,631,631,631,631,631,631,631,631,631,631,631,631,631,631,631,631,631,631,631,631,631,631,631,631,631,631,631,631,631,631,631,631,631,631,631,631,631,631,631,631,631,631,631,631,631,631,631,631,631,631,631,631,631,631,631,629,628,624,618,608,584,561,467,403,341,286,234,172,153,141,130,121,106,97,91,83,77,69],"timestamp_mouse":[10,32,50,69,89,108,130,150,168,189,210,229,250,269,289,308,329,349,369,388,409,429,450,469,489,509,528,549,569,590,609,628,649,669,690,708,729,750,768,789,810,828,848,870,890,910,929,949,970,990,1009,1028,1050,1068,1090,1108,1129,1150,1168,1188,1209,1230,1249,1268,1289,1308,1329,1349,1368,1389,1409,1430,1450,1470,1488,1509,1529,1550,1569,1588,1609,1630,1649,1669],"xSR":741.5,"ySR":573.95,"xT1":424.9,"yT1":0,"xT2":1058.1,"yT2":0,"toosoon":0,"cond_shown":"Incongruent","ratio_trial":300,"L_num":1,"L_den":2,"R_num":3,"R_den":15,"correct_side":1,"subjID":"AndresValdiviesoCadena32","gender":"0","school":"6","age":"11"},{"start_time":1551899850941,"click_time":1551899852978,"finger_time":1551899852679,"fix_duration":1359.2203063286881,"trial":15,"RT":1738,"MT":299,"sideResp":1,"stimulus":[],"xmouse":[784,784,784,784,784,784,784,784,784,784,784,784,784,784,784,784,784,784,784,784,784,784,784,784,784,784,784,784,784,784,784,784,784,784,784,784,784,784,784,784,784,784,784,784,784,784,784,784,784,784,784,784,784,784,784,784,784,784,784,784,784,784,784,784,784,784,784,784,784,784,784,784,784,784,784,784,784,784,784,784,784,784,784,784,784,781,768,723,696,669,639,621,607,598,598,598,598,598,598,583,553,517],"ymouse":[609,609,609,609,609,609,609,609,609,609,609,609,609,609,609,609,609,609,609,609,609,609,609,609,609,609,609,609,609,609,609,609,609,609,609,609,609,609,609,609,609,609,609,609,609,609,609,609,609,609,609,609,609,609,609,609,609,609,609,609,609,609,609,609,609,609,609,609,609,609,609,609,609,609,609,609,609,609,609,609,609,609,609,605,602,593,565,477,405,308,203,78,0,0,0,0,0,0,0,9,31,57],"timestamp_mouse":[17,40,58,79,97,119,137,157,179,197,218,237,257,279,299,317,338,357,378,399,417,439,459,477,497,517,537,559,579,600,618,637,657,678,699,717,739,759,779,799,818,838,858,878,898,918,938,958,978,998,1018,1038,1058,1078,1097,1118,1139,1157,1177,1198,1218,1238,1259,1277,1297,1318,1338,1358,1378,1397,1418,1439,1457,1477,1499,1517,1537,1558,1577,1597,1619,1638,1657,1678,1699,1717,1738,1757,1778,1798,1818,1837,1858,1879,1898,1919,1939,1958,1979,1997,2018,2037],"xSR":741.5,"ySR":573.95,"xT1":424.9,"yT1":0,"xT2":1058.1,"yT2":0,"toosoon":0,"cond_shown":"Congruent","ratio_trial":100,"L_num":10,"L_den":25,"R_num":3,"R_den":10,"correct_side":1,"subjID":"AndresValdiviesoCadena32","gender":"0","school":"6","age":"11"},{"start_time":1551899855207,"click_time":1551899856899,"finger_time":1551899856498,"fix_duration":1406.282530924003,"trial":16,"RT":1291,"MT":401,"sideResp":1,"stimulus":[],"xmouse":[760,760,760,760,760,760,760,760,760,764,767,771,774,775,776,776,776,776,776,776,776,776,776,776,776,776,776,776,776,776,776,776,776,776,776,776,776,776,776,776,776,776,776,776,776,776,776,776,776,776,776,776,776,776,776,776,776,776,776,776,776,776,774,771,751,732,708,677,647,587,569,561,558,558,558,558,558,558,558,558,558,557,550,534,500],"ymouse":[623,623,623,623,623,623,623,623,623,623,623,623,623,623,623,623,623,623,623,623,623,623,623,623,623,623,623,623,623,623,623,623,623,623,623,623,623,623,623,623,623,623,623,623,623,623,623,623,623,623,623,623,623,623,623,623,623,622,622,622,622,621,617,608,570,536,496,435,370,217,142,88,63,52,52,52,52,52,52,52,52,51,51,51,51],"timestamp_mouse":[13,38,51,73,93,111,131,152,172,193,212,232,252,272,292,311,332,352,373,392,413,433,451,472,492,512,532,553,573,592,612,631,651,673,691,713,733,751,772,792,812,833,851,873,892,911,933,952,972,992,1011,1032,1052,1072,1092,1113,1133,1151,1172,1192,1213,1232,1252,1272,1291,1313,1332,1353,1373,1392,1412,1431,1452,1473,1493,1512,1533,1553,1573,1592,1611,1631,1652,1672,1692],"xSR":741.5,"ySR":573.95,"xT1":424.9,"yT1":0,"xT2":1058.1,"yT2":0,"toosoon":0,"cond_shown":"Incongruent","ratio_trial":200,"L_num":7,"L_den":10,"R_num":14,"R_den":28,"correct_side":1,"subjID":"AndresValdiviesoCadena32","gender":"0","school":"6","age":"11"},{"start_time":1551899859257,"click_time":1551899869939,"finger_time":1551899862059,"fix_duration":1417.2558007499424,"trial":17,"RT":2802,"MT":7880,"sideResp":1,"stimulus":[],"xmouse":[813,813,813,813,813,813,813,813,813,813,813,813,813,813,813,813,813,813,813,813,813,813,813,813,813,813,813,813,813,813,813,813,813,813,813,813,813,813,813,813,813,813,813,813,813,813,813,813,813,813,813,813,813,813,813,813,813,813,813,813,813,813,813,813,813,813,813,813,813,813,813,813,813,813,813,813,813,813,813,813,813,813,813,813,813,813,813,813,813,813,813,813,813,813,813,813,813,813,813,813,813,813,813,813,813,813,813,813,813,812,812,812,812,812,812,812,812,812,812,812,812,812,812,812,812,812,812,812,812,812,812,812,812,812,812,812,812,812,812,812,811,806,789,779,769,761,754,749,748,748,748,748,745,744,742,741,740,736,731,723,708,697,685,682,678,677,675,667,664,660,658,656,652,648,644,639,636,629,624,622,622,621,621,621,621,621,621,621,621,621,621,620,616,613,609,605,602,596,591,588,587,587,587,587,587,587,587,587,591,598,603,618,635,638,641,642,643,644,644,644,645,645,647,648,651,653,655,660,664,668,673,675,676,676,676,676,676,676,676,676,677,677,678,678,679,682,684,688,689,690,691,692,692,692,692,692,692,692,692,692,692,692,692,692,692,692,692,692,692,692,692,692,692,692,692,692,692,692,692,692,692,692,692,692,692,692,692,692,692,692,692,692,692,692,692,692,692,692,692,692,692,692,692,692,692,692,692,692,692,692,692,692,692,692,692,692,692,692,692,692,692,692,692,692,692,692,692,692,692,692,692,692,692,692,692,692,692,692,692,692,692,692,692,692,692,692,692,692,692,692,692,692,692,692,692,692,692,692,692,692,692,692,692,692,692,692,692,692,692,692,692,692,692,692,692,692,692,692,692,692,692,692,692,692,692,692,692,692,692,692,692,692,692,692,692,692,692,692,692,692,692,692,692,692,692,692,692,692,692,692,692,692,692,692,692,692,692,692,692,692,692,692,692,692,692,692,692,692,692,692,692,692,692,692,692,692,692,692,692,692,692,692,692,692,692,692,692,692,692,692,692,692,692,692,692,692,692,692,692,692,692,692,692,692,692,692,692,692,692,692,692,692,692,692,692,692,692,692,692,692,692,692,692,692,692,692,692,692,692,692,692,692,692,692,692,692,692,692,692,692,692,692,692,692,692,692,692,692,692,692,692,692,692,692,692,692,692,692,692,692,692,692,692,692,692,692,692,683,668,649,629,601,564,545,524],"ymouse":[627,627,627,627,627,627,627,627,627,627,627,627,627,627,627,627,627,627,627,627,627,627,627,627,627,627,627,627,627,627,627,627,627,627,627,627,627,627,627,627,627,627,627,627,627,627,627,627,627,627,627,627,627,627,627,627,627,627,627,627,627,627,627,627,627,627,627,627,627,627,627,627,627,627,627,627,627,627,627,627,627,627,627,627,627,627,627,627,627,627,627,627,627,627,627,627,627,627,627,627,627,627,627,627,627,627,627,627,627,625,621,604,585,581,580,580,580,580,580,580,580,580,580,580,580,580,580,580,580,580,580,580,580,580,580,580,580,579,579,575,562,536,431,366,305,248,209,171,165,161,161,161,158,154,152,149,147,143,139,135,127,119,108,104,101,100,98,96,95,93,93,92,92,90,89,87,87,85,84,82,82,82,82,82,82,82,82,82,82,82,81,81,80,79,77,76,74,74,73,72,72,72,72,72,72,72,72,72,72,72,72,72,72,72,72,72,72,72,72,72,72,72,72,72,72,72,72,72,72,72,72,72,72,72,72,72,72,72,72,72,72,72,72,72,72,72,73,73,73,73,73,74,74,74,75,76,77,77,77,77,77,77,77,77,77,77,77,77,77,77,77,77,77,77,77,78,78,78,78,78,78,78,78,78,78,78,78,78,78,78,78,78,78,78,78,78,78,78,78,78,78,78,78,78,78,78,78,78,78,78,78,78,78,78,78,78,78,78,78,78,78,78,78,78,78,78,78,78,78,78,78,78,78,78,78,78,78,78,78,78,78,78,78,78,78,78,78,78,78,78,78,78,78,78,78,78,78,78,78,78,78,78,78,78,78,78,78,78,78,78,78,78,78,78,78,78,78,78,78,78,78,78,78,78,78,78,78,78,78,78,78,78,78,78,78,78,78,78,78,78,78,78,78,78,78,78,78,78,78,78,78,78,78,78,78,78,78,78,78,78,78,78,78,78,78,78,78,78,78,78,78,78,78,78,78,78,78,78,78,78,78,78,78,78,78,78,78,78,78,78,78,78,78,78,78,78,78,78,78,78,78,78,78,78,78,78,78,78,78,78,78,78,78,78,78,78,78,78,78,78,78,78,78,78,78,78,78,78,78,78,78,78,78,78,78,78,78,78,78,78,78,78,78,78,78,78,78,78,78,78,78,78,78,78,78,78,78,78,78,78,78,78,78,78,78,78,79,79,79,76,72,68,64,62,60],"timestamp_mouse":[11,22,41,63,81,102,121,143,163,181,203,223,243,261,282,302,323,341,361,382,403,421,442,462,482,502,523,542,562,581,601,622,642,662,682,701,722,742,762,782,803,821,841,862,881,902,921,942,963,982,1001,1021,1042,1062,1082,1101,1123,1143,1162,1182,1201,1221,1242,1262,1282,1303,1321,1343,1362,1382,1402,1422,1441,1462,1483,1501,1522,1541,1563,1583,1601,1623,1643,1662,1682,1702,1722,1742,1762,1781,1802,1823,1841,1862,1882,1902,1921,1942,1962,1983,2001,2021,2043,2062,2082,2102,2121,2142,2162,2181,2202,2222,2241,2262,2282,2303,2322,2341,2361,2381,2402,2421,2441,2461,2482,2502,2521,2542,2561,2581,2601,2623,2643,2661,2681,2702,2722,2742,2761,2783,2802,2823,2842,2862,2882,2903,2921,2941,2961,2983,3003,3022,3041,3061,3082,3103,3122,3142,3162,3183,3202,3221,3241,3263,3281,3301,3322,3342,3363,3382,3403,3423,3442,3462,3481,3502,3521,3543,3562,3581,3601,3623,3642,3662,3682,3702,3723,3742,3763,3782,3802,3823,3842,3863,3882,3902,3923,3942,3961,3981,4001,4022,4041,4062,4081,4102,4122,4142,4163,4182,4201,4222,4241,4262,4282,4301,4323,4342,4362,4381,4402,4422,4442,4463,4482,4502,4522,4543,4562,4582,4601,4622,4641,4662,4683,4702,4721,4742,4761,4783,4802,4821,4841,4862,4882,4902,4921,4942,4963,4982,5002,5022,5043,5062,5082,5101,5122,5142,5162,5182,5201,5221,5241,5263,5282,5303,5321,5341,5361,5381,5402,5421,5442,5462,5482,5503,5523,5542,5562,5582,5603,5621,5642,5662,5683,5703,5722,5741,5761,5783,5802,5823,5841,5862,5882,5902,5922,5942,5963,5983,6002,6022,6043,6062,6083,6102,6121,6142,6162,6181,6203,6222,6242,6261,6281,6303,6321,6341,6362,6382,6402,6422,6442,6462,6481,6502,6523,6542,6562,6581,6602,6622,6641,6661,6682,6702,6723,6742,6763,6781,6802,6823,6843,6862,6881,6901,6923,6942,6962,6981,7003,7022,7043,7061,7081,7101,7123,7142,7162,7181,7203,7222,7241,7261,7282,7303,7322,7342,7362,7381,7402,7422,7443,7463,7481,7501,7521,7542,7563,7582,7602,7622,7641,7662,7683,7702,7721,7742,7762,7783,7802,7822,7841,7862,7883,7902,7921,7941,7962,7983,8002,8022,8041,8061,8082,8103,8122,8142,8161,8182,8202,8222,8241,8261,8281,8302,8321,8343,8362,8382,8402,8423,8442,8461,8483,8502,8523,8541,8561,8582,8602,8622,8641,8663,8682,8702,8721,8744,8761,8782,8801,8823,8842,8862,8882,8901,8923,8942,8961,8982,9001,9021,9042,9063,9082,9102,9121,9142,9163,9182,9201,9222,9242,9263,9281,9302,9322,9343,9362,9382,9402,9422,9441,9462,9482,9502,9522,9543,9561,9581,9602,9622,9641,9661,9682,9702,9721,9741,9762,9782,9802,9821,9841,9863,9881,9901,9923,9942,9961,9982,10002,10023,10042,10061,10081,10102,10121,10143,10161,10182,10202,10222,10242,10262,10282,10301,10322,10341,10362,10382,10402,10422,10442,10461,10483,10502,10521,10542,10563,10582,10601,10622,10642,10662,10682],"xSR":741.5,"ySR":573.95,"xT1":424.9,"yT1":0,"xT2":1058.1,"yT2":0,"toosoon":0,"cond_shown":"Congruent","ratio_trial":300,"L_num":1,"L_den":5,"R_num":6,"R_den":12,"correct_side":2,"subjID":"AndresValdiviesoCadena32","gender":"0","school":"6","age":"11"},{"start_time":1551899872428,"click_time":1551899874238,"finger_time":1551899874099,"fix_duration":987.0106570231222,"trial":18,"RT":1671,"MT":139,"sideResp":2,"stimulus":[],"xmouse":[794,794,794,794,794,794,794,794,794,794,794,794,794,794,794,794,794,794,794,794,794,794,794,794,794,794,794,794,794,794,794,794,794,794,794,794,794,794,794,794,794,794,794,794,794,794,794,794,794,794,794,794,794,794,794,794,794,794,794,794,794,794,794,794,794,794,794,794,794,794,794,794,794,794,794,794,794,794,794,794,794,795,801,832,860,900,939,987,1077,1110,1135],"ymouse":[601,601,601,601,601,601,601,601,601,601,601,601,601,601,601,601,601,601,601,601,601,601,601,601,601,601,601,601,601,601,601,601,601,601,601,601,601,601,601,601,601,601,601,601,601,601,601,601,601,601,601,601,601,601,601,601,601,601,601,601,601,601,601,601,601,601,601,601,601,601,601,601,601,601,601,601,601,601,601,601,601,601,598,561,529,481,416,351,215,152,95],"timestamp_mouse":[11,35,52,72,91,111,130,151,171,191,211,231,250,271,290,312,330,350,371,391,412,430,452,470,492,510,532,552,571,591,610,632,652,670,691,710,732,750,772,790,810,832,851,870,891,911,931,952,970,992,1012,1032,1051,1070,1092,1112,1131,1151,1172,1190,1212,1232,1251,1272,1291,1311,1332,1351,1371,1392,1410,1432,1451,1470,1492,1510,1530,1551,1570,1592,1611,1630,1652,1671,1690,1710,1731,1750,1770,1791,1810],"xSR":741.5,"ySR":573.95,"xT1":424.9,"yT1":0,"xT2":1058.1,"yT2":0,"toosoon":0,"cond_shown":"Incongruent","ratio_trial":200,"L_num":14,"L_den":30,"R_num":6,"R_den":9,"correct_side":2,"subjID":"AndresValdiviesoCadena32","gender":"0","school":"6","age":"11"},{"start_time":1551899877147,"click_time":1551899879019,"finger_time":1551899878699,"fix_duration":1306.56407066521,"trial":19,"RT":1552,"MT":320,"sideResp":2,"stimulus":[],"xmouse":[794,794,794,794,794,794,794,794,795,795,795,795,795,795,795,795,795,795,795,795,795,795,795,795,795,795,795,795,795,795,795,795,795,795,795,795,795,795,795,795,795,795,795,795,795,795,795,795,795,795,795,795,795,795,795,795,795,795,795,795,795,795,795,795,795,795,795,795,795,795,795,795,795,795,795,796,798,830,875,939,1001,1048,1075,1075,1075,1077,1080,1081,1081,1081,1081,1081,1082,1085],"ymouse":[622,622,622,622,622,622,621,619,618,618,618,618,618,618,618,618,618,618,618,618,618,618,618,618,618,618,618,618,618,618,618,618,618,618,618,618,618,618,618,618,618,618,618,618,618,618,618,618,618,618,618,618,618,618,618,618,618,618,618,618,618,618,618,618,618,618,618,618,618,618,616,616,616,616,615,611,601,519,432,325,215,105,0,0,0,0,0,0,0,0,0,0,0,2],"timestamp_mouse":[22,41,52,73,93,111,132,152,173,192,211,232,251,273,292,312,333,351,371,393,412,432,453,471,493,511,532,551,571,593,613,632,653,672,693,713,732,752,773,793,812,831,853,871,892,911,931,952,973,993,1012,1033,1052,1073,1092,1113,1131,1152,1172,1192,1213,1233,1253,1272,1291,1312,1333,1353,1372,1391,1412,1433,1452,1473,1491,1511,1533,1552,1571,1593,1612,1632,1651,1671,1692,1713,1731,1751,1771,1792,1811,1831,1852,1872],"xSR":741.5,"ySR":573.95,"xT1":424.9,"yT1":0,"xT2":1058.1,"yT2":0,"toosoon":0,"cond_shown":"Incongruent","ratio_trial":100,"L_num":13,"L_den":26,"R_num":12,"R_den":20,"correct_side":2,"subjID":"AndresValdiviesoCadena32","gender":"0","school":"6","age":"11"},{"start_time":1551899881130,"click_time":1551899883119,"finger_time":1551899882799,"fix_duration":1210.1373613794235,"trial":20,"RT":1669,"MT":320,"sideResp":2,"stimulus":[],"xmouse":[769,769,769,769,769,769,769,769,769,769,769,769,769,769,769,769,769,769,769,769,769,769,769,769,769,769,769,769,769,769,769,769,769,769,769,769,769,769,769,769,769,769,769,769,769,769,769,769,769,769,769,769,769,769,769,769,769,769,769,769,769,769,769,769,769,769,769,769,769,769,769,769,769,769,775,801,806,819,824,824,825,827,830,850,866,894,960,1021,1167,1207,1298,1327,1332,1332,1332,1327,1322,1287,1193,1149],"ymouse":[622,622,622,622,622,622,622,622,622,622,622,622,622,622,622,622,622,622,622,622,622,622,622,622,622,622,622,622,622,622,622,622,622,622,622,622,622,622,622,622,622,622,622,622,622,622,622,622,622,622,622,622,622,622,622,622,622,622,622,622,622,622,622,622,622,622,622,622,622,622,622,622,622,622,622,622,622,618,616,616,615,614,613,599,583,545,430,326,84,27,0,0,0,0,0,0,0,0,2,9],"timestamp_mouse":[9,30,50,69,89,108,129,150,169,189,210,228,250,270,288,310,329,349,370,390,410,429,449,470,489,510,529,549,570,590,608,629,650,668,690,710,730,749,769,789,809,828,850,870,889,909,930,949,970,990,1009,1029,1049,1069,1089,1109,1129,1150,1168,1189,1210,1230,1249,1270,1289,1309,1328,1348,1368,1388,1409,1429,1450,1469,1489,1509,1528,1549,1569,1590,1609,1628,1650,1669,1689,1708,1729,1749,1769,1790,1810,1829,1849,1869,1889,1909,1929,1950,1969,1989],"xSR":741.5,"ySR":573.95,"xT1":424.9,"yT1":0,"xT2":1058.1,"yT2":0,"toosoon":0,"cond_shown":"Incongruent","ratio_trial":200,"L_num":4,"L_den":30,"R_num":1,"R_den":3,"correct_side":2,"subjID":"AndresValdiviesoCadena32","gender":"0","school":"6","age":"11"},{"start_time":1551899884922,"click_time":1551899886839,"finger_time":1551899886439,"fix_duration":842.6291269973698,"trial":21,"RT":1517,"MT":400,"sideResp":1,"stimulus":[],"xmouse":[795,795,795,795,795,795,795,795,795,795,795,795,795,795,795,795,795,795,795,795,795,795,795,795,795,795,795,795,795,795,795,795,795,795,795,795,795,795,795,795,795,795,795,795,795,795,795,795,795,795,795,795,795,795,795,795,795,795,795,795,795,795,795,795,795,795,795,795,795,795,795,795,795,795,789,780,769,751,724,709,692,673,654,630,620,602,598,584,561,550,543,538,537,533,526,510],"ymouse":[640,640,640,638,637,633,632,630,629,629,629,629,629,629,629,629,629,629,629,629,629,629,629,629,629,629,629,629,629,629,629,629,629,629,629,629,629,629,629,629,629,629,629,629,629,629,629,629,629,629,629,629,629,629,629,629,629,629,629,629,629,629,629,629,629,629,629,629,629,629,629,629,629,622,594,534,458,337,207,162,128,105,91,78,75,72,72,69,66,63,62,61,61,61,61,61],"timestamp_mouse":[21,43,56,76,97,117,138,156,178,197,218,238,256,276,297,317,337,356,378,397,417,437,457,477,497,516,536,557,577,597,618,637,657,677,697,716,737,757,778,796,816,837,856,877,897,916,936,957,977,997,1018,1037,1058,1078,1096,1117,1138,1158,1178,1197,1218,1237,1258,1278,1296,1316,1337,1357,1378,1398,1417,1438,1458,1477,1498,1517,1538,1557,1577,1597,1616,1637,1657,1676,1698,1717,1737,1757,1777,1796,1816,1837,1857,1877,1898,1917],"xSR":741.5,"ySR":573.95,"xT1":424.9,"yT1":0,"xT2":1058.1,"yT2":0,"toosoon":0,"cond_shown":"Congruent","ratio_trial":300,"L_num":20,"L_den":25,"R_num":5,"R_den":10,"correct_side":1,"subjID":"AndresValdiviesoCadena32","gender":"0","school":"6","age":"11"},{"start_time":1551899888958,"click_time":1551899890659,"finger_time":1551899890360,"fix_duration":1077.914529533804,"trial":22,"RT":1402,"MT":299,"sideResp":1,"stimulus":[],"xmouse":[777,777,777,777,777,777,777,777,777,777,777,777,777,777,777,777,778,782,784,785,785,785,785,785,785,785,785,785,785,785,785,785,785,785,785,785,785,785,785,785,785,785,785,785,785,785,785,785,785,785,785,785,785,785,785,785,785,787,788,789,790,790,790,790,790,790,790,790,786,773,751,724,664,634,597,578,568,566,564,563,562,562,554,544,528,513],"ymouse":[615,615,615,615,615,615,615,615,615,615,615,615,615,615,615,615,613,610,608,607,607,607,607,607,607,607,607,607,607,607,607,607,607,607,607,607,607,607,607,607,607,608,608,608,608,608,608,608,608,608,608,609,610,612,613,615,616,620,623,624,625,626,626,626,626,626,626,623,608,582,542,495,386,328,226,163,108,55,44,39,37,37,30,24,21,18],"timestamp_mouse":[9,21,40,61,80,101,121,141,160,181,201,221,240,261,280,301,322,341,361,381,401,420,442,461,481,500,522,540,561,581,601,622,642,660,680,701,721,740,761,781,801,821,840,860,881,900,920,942,961,981,1001,1021,1042,1062,1081,1102,1122,1141,1162,1182,1201,1221,1240,1261,1280,1302,1322,1341,1361,1382,1402,1422,1441,1461,1480,1500,1522,1540,1561,1581,1601,1621,1642,1662,1680,1700],"xSR":741.5,"ySR":573.95,"xT1":424.9,"yT1":0,"xT2":1058.1,"yT2":0,"toosoon":0,"cond_shown":"Incongruent","ratio_trial":200,"L_num":4,"L_den":5,"R_num":6,"R_den":10,"correct_side":1,"subjID":"AndresValdiviesoCadena32","gender":"0","school":"6","age":"11"},{"start_time":1551899894118,"click_time":1551899896799,"finger_time":1551899895919,"fix_duration":1259.9331325562885,"trial":23,"RT":1801,"MT":880,"sideResp":1,"stimulus":[],"xmouse":[788,788,788,788,788,788,788,788,788,788,788,788,788,788,788,788,788,788,788,788,788,788,788,788,788,788,788,788,788,788,788,788,788,788,788,788,788,788,788,788,788,788,788,788,788,788,788,788,788,788,788,788,788,788,788,788,788,788,788,788,788,788,788,788,788,788,788,788,788,788,788,788,788,788,788,788,788,788,788,788,788,788,788,788,788,788,788,788,788,806,830,862,886,905,915,916,916,916,912,905,904,902,902,902,916,925,934,939,945,948,948,948,948,944,926,910,893,874,848,809,784,762,741,728,714,714,714,714,714,703,684,652,602,561,514],"ymouse":[635,635,635,635,635,635,635,635,635,635,635,635,635,635,635,635,635,635,635,635,635,635,635,635,635,635,635,635,635,635,635,635,635,635,635,635,635,635,635,635,635,635,635,635,635,635,635,635,635,635,635,635,635,635,635,635,635,635,635,635,635,635,635,635,635,635,635,635,635,635,635,635,635,635,635,635,635,635,635,635,635,635,635,635,635,635,635,635,633,599,557,501,454,416,386,383,383,383,379,368,360,346,333,318,280,262,245,232,213,194,185,179,176,173,168,163,156,147,134,120,114,110,106,105,102,102,102,102,102,100,96,91,76,64,47],"timestamp_mouse":[10,34,42,62,81,101,120,142,161,180,201,220,242,260,281,302,321,340,361,381,401,422,441,461,482,501,521,540,562,581,601,622,640,662,680,701,721,742,761,782,801,821,842,860,881,900,921,940,961,982,1001,1020,1041,1062,1080,1102,1121,1141,1162,1180,1202,1222,1241,1261,1281,1302,1321,1342,1362,1380,1402,1422,1440,1461,1481,1502,1522,1541,1562,1580,1601,1622,1641,1662,1682,1701,1720,1742,1762,1780,1801,1820,1841,1860,1882,1901,1921,1942,1962,1981,2002,2021,2042,2060,2081,2102,2122,2141,2161,2180,2201,2221,2241,2261,2282,2302,2320,2340,2361,2380,2402,2421,2442,2461,2481,2502,2521,2542,2560,2581,2601,2621,2642,2661,2680],"xSR":741.5,"ySR":573.95,"xT1":424.9,"yT1":0,"xT2":1058.1,"yT2":0,"toosoon":0,"cond_shown":"Incongruent","ratio_trial":200,"L_num":7,"L_den":10,"R_num":8,"R_den":16,"correct_side":1,"subjID":"AndresValdiviesoCadena32","gender":"0","school":"6","age":"11"},{"start_time":1551899897966,"click_time":1551899900058,"finger_time":1551899899698,"fix_duration":265.8876253369511,"trial":24,"RT":1732,"MT":360,"sideResp":2,"stimulus":[],"xmouse":[759,759,759,759,759,759,759,759,759,759,759,759,759,759,759,759,759,759,760,761,762,763,764,764,765,765,765,765,765,765,765,765,765,765,765,765,765,766,766,766,767,767,767,767,767,767,767,767,767,767,767,768,768,768,768,768,768,768,768,768,768,768,768,768,768,768,768,768,768,768,768,768,768,768,768,768,768,768,768,769,769,770,772,773,777,788,816,840,866,893,921,955,964,969,974,976,976,974,968,964,963,973,992,1031,1087],"ymouse":[661,661,661,661,661,661,661,661,661,661,661,661,661,661,661,661,661,661,661,660,659,658,657,657,656,656,656,656,656,655,655,655,655,655,655,655,654,654,653,653,653,653,653,653,653,653,653,653,653,653,653,652,652,652,652,652,652,652,652,652,652,652,652,652,652,652,652,652,652,652,652,652,652,652,652,652,652,652,651,650,649,648,645,643,637,623,561,500,430,361,299,227,206,192,179,169,159,150,138,126,115,90,73,51,21],"timestamp_mouse":[13,32,53,72,92,114,132,153,173,192,213,233,254,272,293,313,334,353,373,393,413,433,454,473,493,513,532,553,572,594,613,633,653,672,694,713,733,753,773,793,814,834,853,872,894,913,933,954,973,993,1013,1033,1053,1074,1094,1113,1134,1154,1173,1192,1214,1232,1253,1272,1293,1313,1333,1353,1373,1393,1413,1432,1453,1473,1492,1512,1532,1554,1572,1593,1614,1633,1653,1673,1692,1714,1732,1754,1773,1794,1813,1833,1853,1874,1892,1912,1933,1952,1973,1994,2013,2033,2053,2074,2092],"xSR":741.5,"ySR":573.95,"xT1":424.9,"yT1":0,"xT2":1058.1,"yT2":0,"toosoon":0,"cond_shown":"Incongruent","ratio_trial":200,"L_num":14,"L_den":30,"R_num":12,"R_den":18,"correct_side":2,"subjID":"AndresValdiviesoCadena32","gender":"0","school":"6","age":"11"},{"start_time":1551899901476,"click_time":1551899903299,"finger_time":1551899903099,"fix_duration":356.1583357054463,"trial":25,"RT":1623,"MT":200,"sideResp":2,"stimulus":[],"xmouse":[829,829,829,829,829,829,829,829,829,829,829,829,829,829,829,829,829,829,829,829,829,829,829,829,829,829,829,829,829,829,829,829,829,829,829,829,829,829,829,829,829,829,829,829,829,829,829,829,829,829,829,829,829,829,829,829,829,829,829,829,829,829,829,829,829,829,829,829,829,829,829,829,829,829,829,829,829,829,829,829,829,859,893,937,978,1006,1039,1046,1052,1054,1062,1078],"ymouse":[617,617,617,617,617,617,617,617,617,617,617,617,617,617,617,617,617,617,617,617,617,617,617,617,617,617,617,617,617,617,617,617,617,617,617,617,617,617,617,617,617,617,617,617,617,617,617,617,617,617,617,617,617,617,617,617,617,617,617,617,617,617,617,617,617,617,617,617,617,617,617,617,617,617,617,617,617,617,617,614,607,520,450,372,298,241,173,155,136,130,105,57],"timestamp_mouse":[11,40,42,63,83,103,123,143,162,183,202,224,243,264,283,302,323,343,364,382,404,423,443,464,483,502,523,543,562,584,603,623,643,663,684,702,722,743,763,784,804,822,843,863,882,903,923,942,964,982,1003,1023,1042,1063,1083,1103,1123,1143,1162,1183,1202,1223,1243,1263,1283,1303,1322,1342,1363,1383,1403,1423,1442,1463,1483,1504,1522,1542,1563,1582,1604,1623,1642,1664,1683,1702,1723,1743,1764,1783,1804,1823],"xSR":741.5,"ySR":573.95,"xT1":424.9,"yT1":0,"xT2":1058.1,"yT2":0,"toosoon":0,"cond_shown":"Congruent","ratio_trial":200,"L_num":7,"L_den":15,"R_num":18,"R_den":27,"correct_side":2,"subjID":"AndresValdiviesoCadena32","gender":"0","school":"6","age":"11"},{"start_time":1551899904271,"click_time":1551899906899,"finger_time":1551899905899,"fix_duration":250,"trial":26,"RT":1628,"MT":1000,"sideResp":2,"stimulus":[],"xmouse":[798,798,798,798,798,798,798,798,798,798,798,798,798,798,798,798,798,798,798,798,798,798,798,798,798,798,798,798,798,798,798,798,798,798,798,798,798,798,798,798,798,798,798,798,798,798,798,798,798,798,798,798,798,798,798,798,798,798,798,798,798,798,798,798,798,798,798,798,798,798,798,798,798,798,798,798,798,798,799,800,805,815,820,824,828,831,836,840,846,854,859,867,870,870,871,872,873,876,880,885,892,904,908,912,914,915,916,916,916,916,916,918,920,921,923,928,941,950,967,992,1004,1024,1033,1039,1043,1044,1048,1051,1056,1061,1066,1072],"ymouse":[588,588,588,588,588,588,588,588,588,588,588,588,588,592,594,596,598,599,599,599,599,599,599,599,599,599,599,599,599,599,599,599,599,599,599,599,599,599,599,599,599,599,599,599,599,599,599,599,599,599,599,599,599,599,599,599,599,599,599,599,599,599,599,599,599,599,599,599,599,599,599,599,599,599,599,599,599,599,596,593,580,558,547,538,528,521,504,493,480,461,448,429,422,419,416,415,411,404,392,385,366,335,321,306,296,287,275,270,265,263,255,242,233,222,208,192,147,116,78,22,0,0,0,0,0,0,0,0,0,0,0,2],"timestamp_mouse":[12,34,48,68,87,109,128,147,169,188,208,228,249,267,288,308,327,348,368,387,408,428,448,467,488,508,527,548,568,589,609,628,648,667,689,709,729,747,768,787,809,828,847,868,887,908,927,948,967,989,1009,1028,1048,1068,1087,1109,1129,1147,1169,1187,1208,1229,1248,1267,1287,1308,1328,1347,1367,1388,1409,1428,1448,1468,1488,1509,1528,1547,1569,1589,1608,1628,1648,1667,1688,1708,1728,1749,1769,1787,1808,1828,1849,1868,1888,1908,1928,1949,1968,1988,2008,2028,2048,2068,2088,2108,2129,2147,2168,2189,2207,2228,2248,2268,2289,2308,2328,2349,2368,2388,2408,2428,2448,2467,2489,2508,2528,2548,2568,2588,2608,2627],"xSR":741.5,"ySR":573.95,"xT1":424.9,"yT1":0,"xT2":1058.1,"yT2":0,"toosoon":0,"cond_shown":"Congruent","ratio_trial":300,"L_num":2,"L_den":20,"R_num":10,"R_den":25,"correct_side":2,"subjID":"AndresValdiviesoCadena32","gender":"0","school":"6","age":"11"},{"start_time":1551899910267,"click_time":1551899911819,"finger_time":1551899911719,"fix_duration":927.8796418222348,"trial":27,"RT":1452,"MT":100,"sideResp":2,"stimulus":[],"xmouse":[785,785,785,785,785,785,785,785,785,785,785,785,786,786,786,787,787,787,787,787,787,787,787,787,787,787,787,787,787,787,787,787,787,787,787,787,787,787,787,787,787,787,787,787,787,787,787,787,787,787,787,787,787,787,787,787,787,787,787,787,787,787,787,787,787,787,787,787,789,796,802,821,832,850,877,918,1032,1089],"ymouse":[651,651,651,651,651,651,651,651,651,651,650,648,646,645,644,643,643,643,643,643,643,643,643,643,643,643,643,643,643,643,643,643,643,643,643,643,643,643,643,643,643,643,643,643,643,643,643,643,643,643,643,643,643,643,643,643,643,643,643,643,643,643,643,643,643,643,643,641,636,624,611,575,549,507,450,371,185,96],"timestamp_mouse":[11,43,52,72,93,113,133,151,172,192,212,232,253,271,292,312,332,351,371,393,412,432,451,472,491,513,531,551,572,593,611,632,652,671,691,713,732,753,773,792,811,833,852,872,892,912,932,953,973,993,1012,1031,1052,1072,1091,1112,1131,1152,1172,1192,1211,1232,1252,1272,1292,1313,1331,1351,1371,1392,1411,1432,1452,1471,1492,1511,1532,1551],"xSR":741.5,"ySR":573.95,"xT1":424.9,"yT1":0,"xT2":1058.1,"yT2":0,"toosoon":0,"cond_shown":"Congruent","ratio_trial":200,"L_num":3,"L_den":10,"R_num":7,"R_den":14,"correct_side":2,"subjID":"AndresValdiviesoCadena32","gender":"0","school":"6","age":"11"},{"start_time":1551899914021,"click_time":1551899915640,"finger_time":1551899915299,"fix_duration":1021.8600708432374,"trial":28,"RT":1278,"MT":341,"sideResp":2,"stimulus":[],"xmouse":[763,763,763,763,763,763,763,763,763,763,763,763,764,767,770,771,772,772,772,774,774,774,774,775,775,775,776,776,777,778,780,780,781,782,782,782,782,782,782,782,782,782,782,783,784,784,784,784,784,784,784,784,784,784,784,784,784,784,784,785,786,790,794,807,817,828,838,848,861,865,870,871,875,887,896,911,931,959,1018,1043,1061],"ymouse":[622,622,622,622,622,622,622,622,622,622,622,622,622,622,622,621,621,621,621,620,620,620,620,620,620,620,620,619,619,618,618,618,618,617,617,617,617,617,617,617,617,617,617,617,617,617,617,617,617,617,617,617,617,617,617,617,617,617,617,616,615,605,594,547,507,454,413,365,306,292,276,271,254,223,202,178,151,119,69,51,39],"timestamp_mouse":[32,39,59,79,98,117,138,158,178,198,219,238,259,277,298,318,338,359,378,398,417,439,459,477,498,518,539,558,578,598,618,638,658,678,698,717,739,757,778,798,817,839,859,878,898,917,937,958,977,998,1018,1038,1058,1078,1098,1119,1137,1158,1178,1199,1217,1239,1258,1278,1299,1317,1338,1358,1377,1398,1418,1439,1458,1477,1497,1518,1538,1557,1578,1599,1619],"xSR":741.5,"ySR":573.95,"xT1":424.9,"yT1":0,"xT2":1058.1,"yT2":0,"toosoon":0,"cond_shown":"Congruent","ratio_trial":300,"L_num":4,"L_den":20,"R_num":13,"R_den":26,"correct_side":2,"subjID":"AndresValdiviesoCadena32","gender":"0","school":"6","age":"11"},{"start_time":1551899919714,"click_time":1551899921899,"finger_time":1551899921319,"fix_duration":1093.038326188762,"trial":29,"RT":1605,"MT":580,"sideResp":2,"stimulus":[],"xmouse":[784,784,784,784,784,784,784,784,784,784,784,784,784,784,784,784,784,784,784,784,784,784,784,784,784,784,784,785,785,785,785,785,785,785,785,785,785,785,785,785,785,785,785,785,785,785,785,785,785,785,785,785,785,785,785,785,785,785,785,785,785,785,785,785,785,785,785,785,785,785,787,790,793,797,801,802,802,802,802,803,803,805,808,813,839,872,910,953,1006,1050,1096,1116,1132,1137,1140,1140,1140,1140,1140,1140,1140,1140,1140,1140,1140,1140,1140,1140,1140,1143],"ymouse":[637,637,637,637,637,637,637,637,637,637,637,637,637,637,637,637,637,637,637,637,637,637,637,637,637,637,637,636,636,636,636,636,636,636,636,636,636,636,636,636,636,636,636,636,636,636,636,636,636,636,636,636,636,636,636,636,636,636,636,636,636,636,636,636,636,636,636,636,636,633,628,619,608,596,580,578,576,575,575,574,572,568,563,551,487,429,360,283,163,42,0,0,0,0,0,0,0,0,0,0,0,0,0,0,0,0,0,0,0,4],"timestamp_mouse":[22,39,45,65,85,105,124,145,166,186,205,226,245,265,286,305,326,344,366,385,405,426,444,464,485,504,526,545,564,585,606,625,645,665,685,706,724,745,765,786,805,826,846,865,885,905,925,945,964,985,1005,1025,1045,1066,1086,1105,1125,1146,1165,1185,1205,1224,1246,1266,1286,1305,1326,1344,1365,1385,1406,1425,1445,1464,1486,1505,1525,1545,1566,1585,1605,1625,1645,1666,1686,1705,1725,1745,1766,1785,1805,1824,1846,1865,1885,1906,1925,1944,1965,1986,2006,2025,2045,2065,2086,2106,2125,2145,2164,2185],"xSR":741.5,"ySR":573.95,"xT1":424.9,"yT1":0,"xT2":1058.1,"yT2":0,"toosoon":0,"cond_shown":"Incongruent","ratio_trial":200,"L_num":3,"L_den":10,"R_num":1,"R_den":2,"correct_side":2,"subjID":"AndresValdiviesoCadena32","gender":"0","school":"6","age":"11"},{"start_time":1551899963125,"click_time":1551899965501,"finger_time":1551899965260,"fix_duration":905.484332840244,"trial":30,"RT":2135,"MT":241,"sideResp":1,"stimulus":[],"xmouse":[783,783,783,783,783,783,783,783,783,783,783,783,783,783,783,783,783,783,783,783,783,783,783,783,783,783,783,783,783,783,783,784,785,785,785,785,785,785,785,785,785,785,785,785,785,785,785,785,785,785,785,785,785,785,785,785,785,785,785,785,785,785,785,785,785,785,785,785,785,785,785,785,785,785,788,788,788,788,788,788,788,788,788,788,788,788,788,788,788,788,788,788,788,788,788,788,788,788,788,788,788,788,788,788,790,788,774,668,628,606,588,570,552,531,529,529,529,526,504],"ymouse":[618,618,618,618,618,618,618,618,618,618,618,618,618,618,618,618,618,618,618,618,618,618,618,618,618,618,618,618,618,618,618,619,620,620,620,620,620,620,620,620,620,620,620,620,620,620,620,620,620,620,620,620,620,620,620,620,620,620,620,620,620,620,620,620,620,620,620,620,620,620,620,620,620,620,621,621,621,621,621,621,621,621,621,621,621,621,621,621,621,621,621,621,621,621,621,621,621,621,621,621,621,621,621,621,613,594,519,212,110,32,0,0,0,0,0,0,0,2,33],"timestamp_mouse":[14,37,55,74,94,114,134,154,174,194,215,234,254,275,294,314,335,355,375,394,415,434,455,474,494,514,535,554,574,594,615,635,654,674,694,714,734,755,775,794,815,834,854,874,895,914,934,955,975,994,1015,1034,1054,1074,1095,1115,1135,1154,1174,1195,1214,1235,1255,1275,1294,1314,1334,1355,1374,1394,1414,1435,1454,1474,1494,1514,1534,1555,1574,1594,1614,1634,1654,1675,1694,1715,1734,1755,1774,1795,1814,1834,1854,1875,1895,1915,1934,1955,1974,1994,2014,2035,2054,2074,2094,2114,2135,2155,2174,2194,2214,2235,2255,2275,2295,2316,2336,2355,2376],"xSR":741.5,"ySR":573.95,"xT1":424.9,"yT1":0,"xT2":1058.1,"yT2":0,"toosoon":0,"cond_shown":"Incongruent","ratio_trial":300,"L_num":8,"L_den":10,"R_num":9,"R_den":18,"correct_side":1,"subjID":"AndresValdiviesoCadena32","gender":"0","school":"6","age":"11"},{"start_time":1551899967634,"click_time":1551899969239,"finger_time":1551899968919,"fix_duration":513.6454345207677,"trial":31,"RT":1285,"MT":320,"sideResp":2,"stimulus":[],"xmouse":[769,769,769,769,769,769,769,769,769,769,769,769,769,769,769,769,769,769,769,769,769,769,769,769,769,769,769,769,769,771,771,771,773,777,779,779,779,779,779,779,779,779,779,779,779,779,779,779,779,780,781,781,781,783,784,784,784,784,784,784,784,784,785,824,865,905,941,966,986,986,985,985,985,990,1000,1005,1014,1022,1041,1051,1060],"ymouse":[623,623,623,623,623,623,623,623,623,623,623,623,623,623,623,623,623,623,623,623,624,624,624,624,624,624,624,624,624,624,624,624,624,625,626,626,626,626,626,626,626,626,626,626,626,626,626,626,626,627,627,628,630,642,646,646,646,646,646,646,646,646,646,586,512,443,389,341,261,225,178,115,79,22,0,0,0,0,0,0,1],"timestamp_mouse":[10,34,45,65,85,105,126,145,166,185,206,225,245,265,285,305,326,345,365,385,405,425,446,465,485,506,525,545,566,585,606,625,646,664,685,706,725,745,765,785,806,825,845,865,885,905,925,945,966,985,1005,1025,1047,1065,1086,1105,1125,1147,1166,1185,1205,1225,1245,1265,1285,1306,1326,1345,1366,1386,1406,1426,1445,1465,1485,1505,1525,1545,1565,1585,1605],"xSR":741.5,"ySR":573.95,"xT1":424.9,"yT1":0,"xT2":1058.1,"yT2":0,"toosoon":0,"cond_shown":"Congruent","ratio_trial":200,"L_num":3,"L_den":12,"R_num":9,"R_den":20,"correct_side":2,"subjID":"AndresValdiviesoCadena32","gender":"0","school":"6","age":"11"},{"start_time":1551899970954,"click_time":1551899972459,"finger_time":1551899972320,"fix_duration":453.4184040466057,"trial":32,"RT":1366,"MT":139,"sideResp":2,"stimulus":[],"xmouse":[799,799,799,799,799,799,799,799,799,799,799,799,799,799,799,799,799,799,799,799,799,799,799,799,799,799,799,799,799,799,799,799,799,798,798,798,798,798,798,798,798,798,798,798,798,798,798,798,798,798,798,798,798,798,798,798,798,798,798,798,798,798,798,798,798,798,798,808,823,845,875,903,962,999,1038,1074],"ymouse":[618,618,618,618,618,618,618,618,618,618,618,618,618,618,618,618,618,618,618,618,618,618,618,618,618,618,618,618,618,618,618,618,618,621,624,624,624,624,624,624,624,624,624,624,624,624,624,624,624,624,624,624,624,624,624,624,624,624,624,624,624,624,624,624,624,624,624,599,572,535,489,439,335,256,165,84],"timestamp_mouse":[8,26,58,65,85,105,125,145,165,186,205,225,245,266,285,305,326,345,365,385,406,426,446,465,485,506,526,545,565,585,605,627,645,666,685,705,725,745,766,786,805,826,845,865,886,905,925,945,966,985,1005,1025,1045,1066,1086,1106,1125,1145,1166,1185,1206,1226,1245,1265,1285,1306,1326,1345,1366,1385,1405,1425,1446,1466,1486,1505],"xSR":741.5,"ySR":573.95,"xT1":424.9,"yT1":0,"xT2":1058.1,"yT2":0,"toosoon":0,"cond_shown":"Incongruent","ratio_trial":100,"L_num":17,"L_den":30,"R_num":10,"R_den":15,"correct_side":2,"subjID":"AndresValdiviesoCadena32","gender":"0","school":"6","age":"11"},{"start_time":1551899974222,"click_time":1551899975399,"finger_time":1551899975099,"fix_duration":759.1618192560821,"trial":33,"RT":877,"MT":300,"sideResp":2,"stimulus":[],"xmouse":[784,784,784,784,784,784,784,784,784,784,784,784,784,784,784,784,784,784,784,784,784,784,784,784,784,784,784,784,784,784,784,784,784,784,784,784,784,784,784,784,784,785,786,795,802,814,841,878,965,1000,1025,1044,1050,1055,1056,1056,1056,1057,1061],"ymouse":[605,605,605,605,605,605,605,605,605,605,605,605,605,605,605,605,605,605,605,605,605,605,605,605,605,605,605,605,605,605,605,605,605,605,605,605,605,605,605,605,605,602,592,565,544,517,472,418,304,261,230,191,173,150,142,136,128,120,94],"timestamp_mouse":[17,43,57,77,97,117,137,157,177,197,217,238,257,277,298,318,337,357,378,397,417,437,457,477,497,518,537,558,577,597,617,637,657,677,697,717,737,758,778,797,817,838,857,877,897,917,937,958,977,998,1017,1037,1058,1077,1097,1118,1137,1158,1177],"xSR":741.5,"ySR":573.95,"xT1":424.9,"yT1":0,"xT2":1058.1,"yT2":0,"toosoon":0,"cond_shown":"Congruent","ratio_trial":200,"L_num":1,"L_den":2,"R_num":21,"R_den":30,"correct_side":2,"subjID":"AndresValdiviesoCadena32","gender":"0","school":"6","age":"11"},{"start_time":1551899977183,"click_time":1551899978799,"finger_time":1551899978520,"fix_duration":803.7027012404275,"trial":34,"RT":1337,"MT":279,"sideResp":2,"stimulus":[],"xmouse":[827,827,827,827,827,825,823,820,819,818,818,818,818,818,818,818,818,818,818,818,818,818,818,818,818,818,818,818,818,818,818,818,818,818,818,818,818,818,818,818,818,818,818,818,818,818,818,818,818,818,818,818,818,818,818,818,818,818,818,818,818,818,818,818,818,832,858,889,923,953,988,994,1000,1002,1005,1013,1022,1032,1041,1049,1061],"ymouse":[613,613,613,613,613,616,616,618,619,619,619,619,619,619,619,619,619,619,619,619,619,619,619,619,619,619,619,619,619,619,619,619,619,619,619,619,619,619,619,619,619,619,619,619,619,619,619,619,619,619,619,619,619,619,619,619,619,619,619,619,619,619,619,619,617,582,517,440,364,291,174,143,126,114,102,86,74,62,52,41,24],"timestamp_mouse":[16,40,56,76,96,116,136,156,176,197,216,236,256,276,296,316,336,356,376,397,417,436,456,477,496,516,536,557,577,597,617,636,656,677,696,716,736,756,777,796,816,836,856,877,896,916,936,956,976,997,1016,1036,1056,1077,1097,1116,1136,1156,1176,1196,1216,1236,1256,1276,1296,1316,1337,1356,1376,1396,1417,1436,1456,1477,1497,1516,1536,1557,1577,1597,1616],"xSR":741.5,"ySR":573.95,"xT1":424.9,"yT1":0,"xT2":1058.1,"yT2":0,"toosoon":0,"cond_shown":"Congruent","ratio_trial":100,"L_num":7,"L_den":14,"R_num":9,"R_den":15,"correct_side":2,"subjID":"AndresValdiviesoCadena32","gender":"0","school":"6","age":"11"},{"start_time":1551899981090,"click_time":1551899983000,"finger_time":1551899982640,"fix_duration":1389.5328456700117,"trial":35,"RT":1550,"MT":360,"sideResp":1,"stimulus":[],"xmouse":[775,775,775,775,775,775,775,775,775,775,775,775,775,775,775,775,775,775,775,775,775,775,775,775,775,775,775,775,775,775,775,775,775,775,775,775,775,775,775,775,775,775,775,775,775,775,775,775,775,775,775,775,775,775,775,775,775,775,775