[{"start_time":1551900531340,"click_time":1551900534443,"finger_time":1551900531349,"fix_duration":553.7807578581504,"trial":0,"RT":9,"MT":3094,"sideResp":2,"stimulus":"img/500/randomdotsizeEA/L/10_Ratio_500_L_4_R_2.png","xmouse":[809,809,809,809,809,809,809,809,809,809,809,809,809,809,809,809,809,809,809,809,809,809,809,809,809,809,809,809,809,809,809,809,809,809,809,809,809,809,809,809,809,809,809,809,809,809,809,809,809,809,809,809,809,809,809,809,809,809,809,809,809,809,809,809,809,809,809,809,809,809,810,810,810,811,811,811,811,811,811,812,813,813,813,814,817,820,823,825,826,826,826,826,826,826,826,827,829,834,836,836,838,841,849,851,854,857,864,875,881,891,903,920,952,957,957,957,954,934,932,932,932,932,931,938,945,946,947,949,949,949,945,945,945,945,945,945,945,945,945,945,945,945,945,945,945,945,945,955,985,993,1003,1019,1046,1060,1077,1116],"ymouse":[544,544,544,544,544,544,544,544,544,544,544,544,544,544,544,544,544,544,544,544,544,544,544,544,544,544,544,544,544,544,544,544,544,544,544,544,544,544,544,544,544,544,544,544,544,544,544,544,544,544,544,544,544,544,544,544,544,544,541,539,536,535,530,529,529,528,527,526,523,521,519,518,516,515,515,515,514,514,512,511,510,510,508,506,502,497,493,488,487,487,487,487,486,486,486,484,481,476,474,473,471,468,460,458,456,453,446,436,433,427,420,411,390,386,384,382,382,379,378,378,378,378,377,373,369,369,368,361,353,341,328,328,328,328,328,328,328,328,328,328,328,328,328,328,328,328,328,309,263,241,221,199,168,152,127,67],"timestamp_mouse":[8,21,42,62,82,102,122,143,162,182,202,222,242,261,283,302,323,342,362,383,403,423,443,462,482,502,523,542,561,582,602,622,643,662,682,702,723,742,763,782,801,822,843,862,882,903,922,942,962,981,1002,1022,1043,1063,1083,1103,1122,1142,1161,1182,1203,1223,1241,1262,1282,1303,1322,1343,1362,1383,1403,1423,1441,1462,1483,1502,1522,1542,1562,1583,1602,1623,1642,1663,1683,1701,1723,1741,1763,1782,1802,1822,1841,1863,1882,1901,1921,1942,1962,1983,2003,2022,2042,2062,2083,2103,2122,2141,2162,2182,2203,2221,2242,2262,2282,2302,2323,2341,2362,2383,2402,2423,2441,2462,2481,2502,2522,2543,2562,2582,2602,2623,2642,2661,2682,2703,2723,2742,2762,2782,2803,2822,2842,2862,2883,2902,2922,2943,2962,2981,3001,3023,3042,3062,3081,3102],"xSR":741.5,"ySR":469.95,"xT1":424.9,"yT1":0,"xT2":1058.1,"yT2":0,"toosoon":0,"cond_shown":"randomdotsizeEA","ratio_trial":500,"smaller_num":"2","larger_num":"4","correct_side":1,"subjID":"AndresValdiviesoCadena32","gender":"0","age":"11","school":"6","test":{"fix_dur":[250,1500],"timestim":300,"targets_dim":[100,100],"targets_relative_coord":[0.3,0.7],"size_stim":[880,420],"start_dim":[100,100],"size_start":[300,300],"size_fix":60,"samplingrate":20,"img_types":["equaldotsize","equaldotanddens","randomdotsizeEA"],"ratios":[250,500,750,900],"rep_conds":9,"nTrials":120,"trials_to_rest":500,"Trials_order":[29,86,71,41,113,30,107,22,1,43,97,100,68,9,58,55,64,45,72,17,91,88,87,109,62,79,60,26,105,0,82,7,98,106,42,51,103,83,35,2,12,89,25,111,119,20,5,8,99,85,36,37,92,48,49,59,75,116,118,16,80,47,11,44,90,34,117,53,69,57,28,50,76,24,3,6,77,94,67,108,70,23,110,81,104,78,15,13,74,66,54,63,18,101,10,115,32,61,4,14,114,73,84,39,102,93,52,95,40,19,96,112,21,56,46,65,27,38,31,33],"cond_shown":["randomdotsizeEA","randomdotsizeEA","randomdotsizeEA","randomdotsizeEA","randomdotsizeEA","equaldotsize","randomdotsizeEA","equaldotanddens","equaldotanddens","equaldotanddens","equaldotanddens","equaldotanddens","randomdotsizeEA","equaldotsize","equaldotanddens","equaldotanddens","equaldotanddens","equaldotsize","equaldotsize","randomdotsizeEA","equaldotanddens","equaldotanddens","equaldotsize","equaldotanddens","randomdotsizeEA","equaldotanddens","equaldotsize","randomdotsizeEA","equaldotsize","equaldotsize","equaldotanddens","equaldotanddens","randomdotsizeEA","equaldotanddens","equaldotsize","equaldotsize","equaldotanddens","randomdotsizeEA","randomdotsizeEA","randomdotsizeEA","equaldotsize","randomdotsizeEA","equaldotanddens","equaldotsize","randomdotsizeEA","randomdotsizeEA","randomdotsizeEA","randomdotsizeEA","equaldotsize","equaldotanddens","equaldotsize","equaldotanddens","randomdotsizeEA","equaldotsize","equaldotanddens","randomdotsizeEA","equaldotsize","randomdotsizeEA","equaldotanddens","equaldotanddens","randomdotsizeEA","randomdotsizeEA","randomdotsizeEA","randomdotsizeEA","equaldotsize","equaldotanddens","equaldotsize","randomdotsizeEA","equaldotsize","equaldotsize","equaldotanddens","randomdotsizeEA","equaldotanddens","equaldotsize","equaldotsize","equaldotsize","randomdotsizeEA","equaldotanddens","equaldotanddens","equaldotsize","equaldotanddens","randomdotsizeEA","randomdotsizeEA","equaldotsize","randomdotsizeEA","equaldotsize","equaldotsize","equaldotanddens","randomdotsizeEA","equaldotsize","equaldotsize","equaldotsize","equaldotsize","randomdotsizeEA","equaldotanddens","equaldotanddens","randomdotsizeEA","equaldotanddens","equaldotanddens","randomdotsizeEA","equaldotsize","equaldotanddens","equaldotsize","equaldotsize","equaldotsize","equaldotsize","equaldotanddens","randomdotsizeEA","equaldotanddens","equaldotanddens","equaldotsize","equaldotanddens","equaldotsize","randomdotsizeEA","equaldotanddens","randomdotsizeEA","equaldotsize","randomdotsizeEA","equaldotanddens","equaldotsize"],"ratio_trial":[500,250,900,500,500,750,900,900,250,750,250,500,750,900,900,750,500,900,250,500,750,500,500,250,250,750,250,250,900,250,900,750,250,900,750,500,750,900,900,250,250,500,250,500,900,750,500,750,500,250,250,250,750,250,250,900,500,750,900,500,750,900,900,750,750,900,900,500,900,900,500,250,500,250,500,750,500,900,750,250,900,900,250,900,750,750,500,250,250,750,750,500,750,500,900,750,750,250,500,250,750,250,250,500,750,900,500,900,500,750,250,500,900,750,900,500,500,250,750,900],"smaller_num":["2","3","18","10","3","3","18","9","3","3","6","9","3","18","18","6","5","18","6","3","15","5","5","3","1","6","3","2","18","2","9","18","3","9","6","3","12","18","9","3","6","2","4","3","18","6","9","18","6","3","3","2","6","4","3","18","1","6","9","9","15","9","18","6","3","18","9","5","18","18","5","3","4","3","9","6","1","9","3","2","18","18","6","18","3","6","1","5","2","18","3","6","15","1","18","6","15","4","6","3","6","6","3","2","15","18","6","18","1","15","3","9","18","3","18","9","2","3","3","9"],"larger_num":["4","12","20","20","6","4","20","10","12","4","24","18","4","20","20","8","10","20","24","6","20","10","10","12","4","8","12","8","20","8","10","24","12","10","8","6","16","20","10","12","24","4","16","6","20","8","18","24","12","12","12","8","8","16","12","20","2","8","10","18","20","10","20","8","4","20","10","10","20","20","10","12","8","12","18","8","2","10","4","8","20","20","24","20","4","8","2","20","8","24","4","12","20","2","20","8","20","16","12","12","8","24","12","4","20","20","12","20","2","20","12","18","20","4","20","18","4","12","4","10"],"correct_side":[1,1,2,2,2,1,1,2,2,1,1,2,1,1,2,1,1,1,1,2,2,2,1,2,2,2,2,1,2,1,2,1,1,1,2,2,2,2,2,1,2,2,2,2,1,1,1,1,1,1,2,1,2,2,1,1,2,1,1,1,2,2,1,1,1,2,2,1,1,1,1,2,1,2,2,2,2,2,2,2,1,2,1,2,2,1,2,2,1,1,1,1,2,2,1,1,2,1,1,1,1,2,1,1,2,1,1,2,2,2,2,1,1,2,1,1,1,1,2,1],"img_shown":["img/500/randomdotsizeEA/L/10_Ratio_500_L_4_R_2.png","img/250/randomdotsizeEA/L/15_Ratio_250_L_12_R_3.png","img/900/randomdotsizeEA/R/14_Ratio_900_L_18_R_20.png","img/500/randomdotsizeEA/R/3_Ratio_500_L_10_R_20.png","img/500/randomdotsizeEA/R/2_Ratio_500_L_3_R_6.png","img/750/equaldotsize/L/10_Ratio_750_L_4_R_3.png","img/900/randomdotsizeEA/L/10_Ratio_900_L_20_R_18.png","img/900/equaldotanddens/R/15_Ratio_900_L_9_R_10.png","img/250/equaldotanddens/R/11_Ratio_250_L_3_R_12.png","img/750/equaldotanddens/L/10_Ratio_750_L_4_R_3.png","img/250/equaldotanddens/L/5_Ratio_250_L_24_R_6.png","img/500/equaldotanddens/R/6_Ratio_500_L_9_R_18.png","img/750/randomdotsizeEA/L/10_Ratio_750_L_4_R_3.png","img/900/equaldotsize/L/8_Ratio_900_L_20_R_18.png","img/900/equaldotanddens/R/14_Ratio_900_L_18_R_20.png","img/750/equaldotanddens/L/14_Ratio_750_L_8_R_6.png","img/500/equaldotanddens/L/7_Ratio_500_L_10_R_5.png","img/900/equaldotsize/L/4_Ratio_900_L_20_R_18.png","img/250/equaldotsize/L/5_Ratio_250_L_24_R_6.png","img/500/randomdotsizeEA/R/2_Ratio_500_L_3_R_6.png","img/750/equaldotanddens/R/3_Ratio_750_L_15_R_20.png","img/500/equaldotanddens/R/14_Ratio_500_L_5_R_10.png","img/500/equaldotsize/L/7_Ratio_500_L_10_R_5.png","img/250/equaldotanddens/R/11_Ratio_250_L_3_R_12.png","img/250/randomdotsizeEA/R/8_Ratio_250_L_1_R_4.png","img/750/equaldotanddens/R/2_Ratio_750_L_6_R_8.png","img/250/equaldotsize/R/4_Ratio_250_L_3_R_12.png","img/250/randomdotsizeEA/L/7_Ratio_250_L_8_R_2.png","img/900/equaldotsize/R/14_Ratio_900_L_18_R_20.png","img/250/equaldotsize/L/7_Ratio_250_L_8_R_2.png","img/900/equaldotanddens/R/15_Ratio_900_L_9_R_10.png","img/750/equaldotanddens/L/6_Ratio_750_L_24_R_18.png","img/250/randomdotsizeEA/L/14_Ratio_250_L_12_R_3.png","img/900/equaldotanddens/L/1_Ratio_900_L_10_R_9.png","img/750/equaldotsize/R/2_Ratio_750_L_6_R_8.png","img/500/equaldotsize/R/2_Ratio_500_L_3_R_6.png","img/750/equaldotanddens/R/11_Ratio_750_L_12_R_16.png","img/900/randomdotsizeEA/R/14_Ratio_900_L_18_R_20.png","img/900/randomdotsizeEA/R/5_Ratio_900_L_9_R_10.png","img/250/randomdotsizeEA/L/15_Ratio_250_L_12_R_3.png","img/250/equaldotsize/R/6_Ratio_250_L_6_R_24.png","img/500/randomdotsizeEA/R/9_Ratio_500_L_2_R_4.png","img/250/equaldotanddens/R/10_Ratio_250_L_4_R_16.png","img/500/equaldotsize/R/2_Ratio_500_L_3_R_6.png","img/900/randomdotsizeEA/L/2_Ratio_900_L_20_R_18.png","img/750/randomdotsizeEA/L/13_Ratio_750_L_8_R_6.png","img/500/randomdotsizeEA/L/4_Ratio_500_L_18_R_9.png","img/750/randomdotsizeEA/L/6_Ratio_750_L_24_R_18.png","img/500/equaldotsize/L/13_Ratio_500_L_12_R_6.png","img/250/equaldotanddens/L/14_Ratio_250_L_12_R_3.png","img/250/equaldotsize/R/9_Ratio_250_L_3_R_12.png","img/250/equaldotanddens/L/1_Ratio_250_L_8_R_2.png","img/750/randomdotsizeEA/R/2_Ratio_750_L_6_R_8.png","img/250/equaldotsize/R/10_Ratio_250_L_4_R_16.png","img/250/equaldotanddens/L/14_Ratio_250_L_12_R_3.png","img/900/randomdotsizeEA/L/2_Ratio_900_L_20_R_18.png","img/500/equaldotsize/R/15_Ratio_500_L_1_R_2.png","img/750/randomdotsizeEA/L/13_Ratio_750_L_8_R_6.png","img/900/equaldotanddens/L/1_Ratio_900_L_10_R_9.png","img/500/equaldotanddens/L/4_Ratio_500_L_18_R_9.png","img/750/randomdotsizeEA/R/5_Ratio_750_L_15_R_20.png","img/900/randomdotsizeEA/R/7_Ratio_900_L_9_R_10.png","img/900/randomdotsizeEA/L/10_Ratio_900_L_20_R_18.png","img/750/randomdotsizeEA/L/14_Ratio_750_L_8_R_6.png","img/750/equaldotsize/L/9_Ratio_750_L_4_R_3.png","img/900/equaldotanddens/R/11_Ratio_900_L_18_R_20.png","img/900/equaldotsize/R/3_Ratio_900_L_9_R_10.png","img/500/randomdotsizeEA/L/7_Ratio_500_L_10_R_5.png","img/900/equaldotsize/L/4_Ratio_900_L_20_R_18.png","img/900/equaldotsize/L/4_Ratio_900_L_20_R_18.png","img/500/equaldotanddens/L/7_Ratio_500_L_10_R_5.png","img/250/randomdotsizeEA/R/4_Ratio_250_L_3_R_12.png","img/500/equaldotanddens/L/8_Ratio_500_L_8_R_4.png","img/250/equaldotsize/R/11_Ratio_250_L_3_R_12.png","img/500/equaldotsize/R/6_Ratio_500_L_9_R_18.png","img/750/equaldotsize/R/2_Ratio_750_L_6_R_8.png","img/500/randomdotsizeEA/R/15_Ratio_500_L_1_R_2.png","img/900/equaldotanddens/R/3_Ratio_900_L_9_R_10.png","img/750/equaldotanddens/R/7_Ratio_750_L_3_R_4.png","img/250/equaldotsize/R/13_Ratio_250_L_2_R_8.png","img/900/equaldotanddens/L/10_Ratio_900_L_20_R_18.png","img/900/randomdotsizeEA/R/12_Ratio_900_L_18_R_20.png","img/250/randomdotsizeEA/L/5_Ratio_250_L_24_R_6.png","img/900/equaldotsize/R/13_Ratio_900_L_18_R_20.png","img/750/randomdotsizeEA/R/12_Ratio_750_L_3_R_4.png","img/750/equaldotsize/L/13_Ratio_750_L_8_R_6.png","img/500/equaldotsize/R/12_Ratio_500_L_1_R_2.png","img/250/equaldotanddens/R/12_Ratio_250_L_5_R_20.png","img/250/randomdotsizeEA/L/1_Ratio_250_L_8_R_2.png","img/750/equaldotsize/L/6_Ratio_750_L_24_R_18.png","img/750/equaldotsize/L/10_Ratio_750_L_4_R_3.png","img/500/equaldotsize/L/11_Ratio_500_L_12_R_6.png","img/750/equaldotsize/R/4_Ratio_750_L_15_R_20.png","img/500/randomdotsizeEA/R/15_Ratio_500_L_1_R_2.png","img/900/equaldotanddens/L/10_Ratio_900_L_20_R_18.png","img/750/equaldotanddens/L/14_Ratio_750_L_8_R_6.png","img/750/randomdotsizeEA/R/3_Ratio_750_L_15_R_20.png","img/250/equaldotanddens/L/2_Ratio_250_L_16_R_4.png","img/500/equaldotanddens/L/13_Ratio_500_L_12_R_6.png","img/250/randomdotsizeEA/L/15_Ratio_250_L_12_R_3.png","img/750/equaldotsize/L/13_Ratio_750_L_8_R_6.png","img/250/equaldotanddens/R/6_Ratio_250_L_6_R_24.png","img/250/equaldotsize/L/14_Ratio_250_L_12_R_3.png","img/500/equaldotsize/L/5_Ratio_500_L_4_R_2.png","img/750/equaldotsize/R/5_Ratio_750_L_15_R_20.png","img/900/equaldotsize/L/8_Ratio_900_L_20_R_18.png","img/500/equaldotanddens/L/11_Ratio_500_L_12_R_6.png","img/900/randomdotsizeEA/R/9_Ratio_900_L_18_R_20.png","img/500/equaldotanddens/R/12_Ratio_500_L_1_R_2.png","img/750/equaldotanddens/R/3_Ratio_750_L_15_R_20.png","img/250/equaldotsize/R/11_Ratio_250_L_3_R_12.png","img/500/equaldotanddens/L/4_Ratio_500_L_18_R_9.png","img/900/equaldotsize/L/4_Ratio_900_L_20_R_18.png","img/750/randomdotsizeEA/R/12_Ratio_750_L_3_R_4.png","img/900/equaldotanddens/L/10_Ratio_900_L_20_R_18.png","img/500/randomdotsizeEA/L/4_Ratio_500_L_18_R_9.png","img/500/equaldotsize/L/10_Ratio_500_L_4_R_2.png","img/250/randomdotsizeEA/L/14_Ratio_250_L_12_R_3.png","img/750/equaldotanddens/R/12_Ratio_750_L_3_R_4.png","img/900/equaldotsize/L/1_Ratio_900_L_10_R_9.png"],"Rat0":[["12_Ratio_0_L_9_R_0.png","13_Ratio_0_L_6_R_0.png","5_Ratio_0_L_2_R_0.png","6_Ratio_0_L_4_R_0.png","8_Ratio_0_L_6_R_0.png"],["1_Ratio_0_L_0_R_17.png","10_Ratio_0_L_0_R_22.png","11_Ratio_0_L_0_R_1.png","14_Ratio_0_L_0_R_24.png","15_Ratio_0_L_0_R_4.png","2_Ratio_0_L_0_R_5.png","3_Ratio_0_L_0_R_17.png","4_Ratio_0_L_0_R_7.png","7_Ratio_0_L_0_R_19.png","9_Ratio_0_L_0_R_15.png"]],"Rat250":[["1_Ratio_250_L_8_R_2.png","14_Ratio_250_L_12_R_3.png","15_Ratio_250_L_12_R_3.png","2_Ratio_250_L_16_R_4.png","3_Ratio_250_L_8_R_2.png","5_Ratio_250_L_24_R_6.png","7_Ratio_250_L_8_R_2.png"],["10_Ratio_250_L_4_R_16.png","11_Ratio_250_L_3_R_12.png","12_Ratio_250_L_5_R_20.png","13_Ratio_250_L_2_R_8.png","4_Ratio_250_L_3_R_12.png","6_Ratio_250_L_6_R_24.png","8_Ratio_250_L_1_R_4.png","9_Ratio_250_L_3_R_12.png"]],"Rat500":[["10_Ratio_500_L_4_R_2.png","11_Ratio_500_L_12_R_6.png","13_Ratio_500_L_12_R_6.png","4_Ratio_500_L_18_R_9.png","5_Ratio_500_L_4_R_2.png","7_Ratio_500_L_10_R_5.png","8_Ratio_500_L_8_R_4.png"],["1_Ratio_500_L_9_R_18.png","12_Ratio_500_L_1_R_2.png","14_Ratio_500_L_5_R_10.png","15_Ratio_500_L_1_R_2.png","2_Ratio_500_L_3_R_6.png","3_Ratio_500_L_10_R_20.png","6_Ratio_500_L_9_R_18.png","9_Ratio_500_L_2_R_4.png"]],"Rat750":[["1_Ratio_750_L_20_R_15.png","10_Ratio_750_L_4_R_3.png","13_Ratio_750_L_8_R_6.png","14_Ratio_750_L_8_R_6.png","6_Ratio_750_L_24_R_18.png","8_Ratio_750_L_4_R_3.png","9_Ratio_750_L_4_R_3.png"],["11_Ratio_750_L_12_R_16.png","12_Ratio_750_L_3_R_4.png","15_Ratio_750_L_9_R_12.png","2_Ratio_750_L_6_R_8.png","3_Ratio_750_L_15_R_20.png","4_Ratio_750_L_15_R_20.png","5_Ratio_750_L_15_R_20.png","7_Ratio_750_L_3_R_4.png"]],"Rat900":[["1_Ratio_900_L_10_R_9.png","10_Ratio_900_L_20_R_18.png","2_Ratio_900_L_20_R_18.png","4_Ratio_900_L_20_R_18.png","8_Ratio_900_L_20_R_18.png"],["11_Ratio_900_L_18_R_20.png","12_Ratio_900_L_18_R_20.png","13_Ratio_900_L_18_R_20.png","14_Ratio_900_L_18_R_20.png","15_Ratio_900_L_9_R_10.png","3_Ratio_900_L_9_R_10.png","5_Ratio_900_L_9_R_10.png","6_Ratio_900_L_9_R_10.png","7_Ratio_900_L_9_R_10.png","9_Ratio_900_L_18_R_20.png"]],"Rat1000":[["10_Ratio_1000_L_16_R_16.png","11_Ratio_1000_L_6_R_6.png","12_Ratio_1000_L_14_R_14.png","13_Ratio_1000_L_20_R_20.png","15_Ratio_1000_L_15_R_15.png","2_Ratio_1000_L_17_R_17.png","4_Ratio_1000_L_9_R_9.png","5_Ratio_1000_L_6_R_6.png","6_Ratio_1000_L_19_R_19.png","8_Ratio_1000_L_14_R_14.png","9_Ratio_1000_L_25_R_25.png"],["1_Ratio_1000_L_1_R_1.png","14_Ratio_1000_L_17_R_17.png","3_Ratio_1000_L_17_R_17.png","7_Ratio_1000_L_6_R_6.png"]]}},{"start_time":1551900536628,"click_time":1551900537982,"finger_time":1551900537642,"fix_duration":405.3078993854178,"trial":1,"RT":1014,"MT":340,"sideResp":1,"stimulus":"img/250/randomdotsizeEA/L/15_Ratio_250_L_12_R_3.png","xmouse":[793,793,793,793,793,793,793,793,793,793,793,793,793,793,793,793,793,793,793,793,793,793,793,793,793,793,793,793,793,793,793,793,793,793,793,793,793,793,793,793,793,793,793,793,793,793,793,793,795,796,798,798,772,738,704,676,655,622,606,593,567,551,529,525,523,520,514,494],"ymouse":[630,630,630,630,630,630,630,630,630,630,630,630,630,630,630,630,630,630,630,630,630,630,630,630,630,630,630,630,630,630,630,630,630,630,630,630,630,630,630,630,630,630,630,630,630,630,630,630,629,621,566,493,327,266,228,203,191,178,171,164,149,140,128,124,120,113,101,71],"timestamp_mouse":[14,38,55,74,95,115,135,154,175,195,214,235,254,275,294,315,333,354,375,394,414,434,453,475,494,515,534,554,575,595,614,634,654,675,695,715,733,753,774,795,813,834,854,874,894,915,934,954,974,995,1014,1034,1053,1074,1094,1114,1134,1153,1174,1194,1215,1233,1254,1274,1294,1314,1334,1354],"xSR":741.5,"ySR":573.95,"xT1":424.9,"yT1":0,"xT2":1058.1,"yT2":0,"toosoon":0,"cond_shown":"randomdotsizeEA","ratio_trial":250,"smaller_num":"3","larger_num":"12","correct_side":1,"subjID":"AndresValdiviesoCadena32","gender":"0","age":"11","school":"6"},{"start_time":1551900539522,"click_time":1551900541262,"finger_time":1551900541142,"fix_duration":978.5254127471064,"trial":2,"RT":1620,"MT":120,"sideResp":2,"stimulus":"img/900/randomdotsizeEA/R/14_Ratio_900_L_18_R_20.png","xmouse":[823,823,823,823,823,823,823,823,823,823,823,823,823,823,823,823,823,823,823,823,823,823,823,823,823,824,824,824,824,824,824,824,824,824,824,824,824,824,824,824,824,824,824,824,824,824,824,824,824,824,824,824,824,824,824,824,824,824,824,824,824,824,824,824,824,824,824,824,824,824,824,824,824,824,824,824,824,824,824,827,837,852,883,966,1016,1055,1103,1136],"ymouse":[643,643,642,642,642,642,642,642,642,642,642,642,642,642,642,642,642,642,642,641,641,640,640,640,639,638,638,638,638,637,637,636,636,636,636,636,636,636,635,635,635,635,635,635,635,635,635,635,635,635,635,635,635,635,635,635,635,635,635,635,635,635,635,635,635,635,635,635,635,635,635,635,635,635,635,635,635,635,635,630,616,591,549,427,351,272,155,67],"timestamp_mouse":[8,20,40,61,80,100,120,140,160,179,200,220,240,261,280,301,320,340,360,380,400,421,441,460,480,501,521,540,560,581,601,620,640,660,680,701,720,740,760,779,801,820,841,861,880,901,919,940,960,980,1001,1021,1040,1059,1081,1101,1120,1141,1161,1179,1200,1220,1241,1261,1281,1301,1321,1341,1360,1380,1401,1421,1440,1461,1480,1499,1521,1540,1559,1580,1600,1620,1640,1660,1680,1700,1721,1740],"xSR":741.5,"ySR":573.95,"xT1":424.9,"yT1":0,"xT2":1058.1,"yT2":0,"toosoon":0,"cond_shown":"randomdotsizeEA","ratio_trial":900,"smaller_num":"18","larger_num":"20","correct_side":2,"subjID":"AndresValdiviesoCadena32","gender":"0","age":"11","school":"6"},{"start_time":1551900543333,"click_time":1551900544882,"finger_time":1551900544462,"fix_duration":1168.8253544314982,"trial":3,"RT":1129,"MT":420,"sideResp":2,"stimulus":"img/500/randomdotsizeEA/R/3_Ratio_500_L_10_R_20.png","xmouse":[800,800,800,800,800,800,800,800,800,800,800,800,800,800,800,800,800,800,800,800,800,800,800,800,800,800,800,800,800,800,800,800,800,800,800,800,800,800,800,800,800,800,800,800,800,800,800,800,800,800,800,800,800,800,800,807,842,917,953,990,1022,1050,1137,1177,1210,1218,1219,1219,1219,1219,1219,1219,1217,1215,1206,1187,1173,1146],"ymouse":[641,641,641,641,641,641,641,641,641,641,641,641,641,641,641,641,641,641,641,641,641,641,641,641,641,641,641,641,641,641,641,641,641,641,641,641,641,641,641,641,641,641,641,641,641,641,641,641,641,641,641,641,641,641,628,615,561,440,359,260,154,52,0,0,0,0,0,0,0,0,0,1,4,7,13,22,26,38],"timestamp_mouse":[10,33,50,69,89,109,129,149,170,188,210,230,248,269,289,310,329,348,370,389,409,429,448,470,488,509,529,549,570,590,609,630,649,668,690,710,729,749,769,790,810,829,849,869,889,909,928,949,968,990,1009,1029,1049,1069,1089,1108,1129,1149,1168,1189,1209,1229,1249,1270,1290,1309,1329,1350,1370,1390,1409,1429,1448,1468,1489,1510,1529,1549],"xSR":741.5,"ySR":573.95,"xT1":424.9,"yT1":0,"xT2":1058.1,"yT2":0,"toosoon":0,"cond_shown":"randomdotsizeEA","ratio_trial":500,"smaller_num":"10","larger_num":"20","correct_side":2,"subjID":"AndresValdiviesoCadena32","gender":"0","age":"11","school":"6"},{"start_time":1551900545932,"click_time":1551900547083,"finger_time":1551900546982,"fix_duration":250,"trial":4,"RT":1050,"MT":101,"sideResp":2,"stimulus":"img/500/randomdotsizeEA/R/2_Ratio_500_L_3_R_6.png","xmouse":[769,769,769,769,769,769,769,769,769,769,769,769,769,769,769,769,769,769,769,769,769,769,769,769,769,769,769,769,769,769,769,769,769,769,769,769,769,769,769,769,769,769,769,769,769,769,769,769,769,769,775,783,848,882,925,969,1005,1074],"ymouse":[615,615,615,615,615,615,615,615,615,615,615,615,615,615,615,615,615,615,615,615,615,615,615,615,615,615,615,615,615,615,615,615,615,615,615,615,615,615,615,615,615,615,615,615,615,615,615,615,615,615,605,592,494,440,375,289,220,64],"timestamp_mouse":[11,34,50,71,90,110,131,150,169,190,210,231,250,270,289,310,330,350,369,390,410,430,450,471,490,510,531,550,571,590,609,630,650,671,690,710,730,750,771,790,810,831,850,870,890,910,930,951,969,990,1010,1030,1050,1070,1089,1110,1130,1151],"xSR":741.5,"ySR":573.95,"xT1":424.9,"yT1":0,"xT2":1058.1,"yT2":0,"toosoon":0,"cond_shown":"randomdotsizeEA","ratio_trial":500,"smaller_num":"3","larger_num":"6","correct_side":2,"subjID":"AndresValdiviesoCadena32","gender":"0","age":"11","school":"6"},{"start_time":1551900548835,"click_time":1551900550482,"finger_time":1551900549982,"fix_duration":771.6571142756435,"trial":5,"RT":1147,"MT":500,"sideResp":1,"stimulus":"img/750/equaldotsize/L/10_Ratio_750_L_4_R_3.png","xmouse":[795,795,795,795,795,795,795,795,795,795,795,795,795,795,795,795,795,795,795,795,795,795,795,795,795,795,795,795,795,795,795,795,795,795,795,795,795,795,795,795,795,795,795,795,795,795,795,795,795,795,795,795,795,795,795,794,790,741,707,673,644,628,603,597,589,584,581,585,586,586,585,574,545,534,525,513,495,464,459,459,459,459,468],"ymouse":[583,583,583,583,583,583,583,583,583,583,583,583,583,583,583,583,583,583,583,583,583,583,583,583,583,583,583,583,583,583,583,583,583,583,583,583,583,583,583,583,583,583,583,583,583,583,583,583,583,583,583,583,583,583,583,585,581,515,472,434,394,374,340,325,309,294,276,242,224,198,188,168,148,142,138,136,134,130,129,124,120,109,81],"timestamp_mouse":[9,36,47,67,87,108,128,147,168,188,208,228,248,267,286,306,327,347,368,387,407,428,448,467,487,508,527,547,567,587,606,627,648,668,687,707,727,748,768,788,807,827,848,868,888,908,926,948,968,987,1006,1027,1048,1068,1087,1107,1127,1147,1167,1187,1207,1226,1246,1266,1287,1307,1327,1346,1368,1387,1407,1426,1446,1467,1486,1507,1526,1546,1567,1586,1607,1628,1646],"xSR":741.5,"ySR":573.95,"xT1":424.9,"yT1":0,"xT2":1058.1,"yT2":0,"toosoon":0,"cond_shown":"equaldotsize","ratio_trial":750,"smaller_num":"3","larger_num":"4","correct_side":1,"subjID":"AndresValdiviesoCadena32","gender":"0","age":"11","school":"6"},{"start_time":1551900552379,"click_time":1551900554663,"finger_time":1551900554483,"fix_duration":1095.6149927960419,"trial":6,"RT":2104,"MT":180,"sideResp":1,"stimulus":"img/900/randomdotsizeEA/L/10_Ratio_900_L_20_R_18.png","xmouse":[763,763,763,763,763,763,763,763,763,763,763,763,763,763,763,763,763,763,763,763,763,763,763,763,763,763,763,763,763,763,763,763,763,763,763,763,763,763,763,763,763,763,763,763,763,763,763,763,763,763,763,763,763,763,763,763,763,763,763,763,763,763,763,763,763,763,763,763,763,763,763,763,763,763,763,763,763,763,763,763,763,763,763,763,763,763,763,763,763,763,763,763,763,763,763,763,763,763,763,763,763,763,763,763,763,695,633,588,559,544,538,538,538,533,523],"ymouse":[616,616,616,616,616,616,616,616,616,616,616,616,616,616,616,616,616,616,616,616,616,616,616,616,616,616,616,616,616,616,616,616,616,616,616,616,616,616,616,616,616,616,616,616,616,616,616,616,616,616,616,616,616,616,616,616,616,616,616,616,616,616,616,616,616,616,616,616,616,616,616,616,616,616,616,616,616,616,616,616,616,616,616,616,616,616,616,616,616,616,616,616,616,616,616,616,616,616,616,616,616,616,616,616,616,545,465,390,330,276,181,139,104,68,19],"timestamp_mouse":[8,25,46,65,84,105,124,145,165,185,204,224,244,265,284,304,324,345,365,384,405,424,444,465,484,505,525,544,564,585,605,625,644,665,685,705,724,745,764,785,804,824,844,864,884,904,924,944,965,984,1004,1024,1044,1064,1084,1105,1125,1145,1164,1184,1206,1224,1245,1264,1285,1304,1324,1344,1364,1386,1405,1425,1445,1464,1484,1504,1526,1544,1564,1585,1604,1625,1645,1665,1686,1705,1725,1745,1766,1784,1804,1825,1845,1865,1885,1905,1925,1944,1965,1985,2005,2024,2044,2065,2084,2104,2124,2145,2164,2185,2204,2224,2244,2264,2284],"xSR":741.5,"ySR":573.95,"xT1":424.9,"yT1":0,"xT2":1058.1,"yT2":0,"toosoon":0,"cond_shown":"randomdotsizeEA","ratio_trial":900,"smaller_num":"18","larger_num":"20","correct_side":1,"subjID":"AndresValdiviesoCadena32","gender":"0","age":"11","school":"6"},{"start_time":1551900555835,"click_time":1551900556923,"finger_time":1551900556683,"fix_duration":250,"trial":7,"RT":848,"MT":240,"sideResp":2,"stimulus":"img/900/equaldotanddens/R/15_Ratio_900_L_9_R_10.png","xmouse":[752,752,753,753,753,753,754,754,754,754,754,754,754,754,754,754,754,754,754,754,754,754,754,754,754,754,754,754,754,754,754,754,754,754,754,754,754,754,754,754,769,806,969,1041,1085,1113,1127,1139,1141,1141,1141,1137,1126,1121,1117],"ymouse":[635,636,637,638,638,638,638,638,638,638,638,638,638,638,638,638,638,638,638,638,638,638,638,638,638,638,638,638,638,638,638,638,638,638,638,638,638,638,638,638,629,603,497,438,393,357,334,296,281,269,257,227,164,123,90],"timestamp_mouse":[9,37,48,68,88,108,129,149,170,189,208,229,248,268,288,308,328,349,369,388,408,428,448,468,488,508,528,548,568,588,608,628,648,668,688,709,728,749,768,788,808,828,848,868,888,909,928,948,968,988,1008,1028,1050,1069,1088],"xSR":741.5,"ySR":573.95,"xT1":424.9,"yT1":0,"xT2":1058.1,"yT2":0,"toosoon":0,"cond_shown":"equaldotanddens","ratio_trial":900,"smaller_num":"9","larger_num":"10","correct_side":2,"subjID":"AndresValdiviesoCadena32","gender":"0","age":"11","school":"6"},{"start_time":1551900557916,"click_time":1551900558883,"finger_time":1551900558603,"fix_duration":250,"trial":8,"RT":687,"MT":280,"sideResp":2,"stimulus":"img/250/equaldotanddens/R/11_Ratio_250_L_3_R_12.png","xmouse":[775,775,775,775,775,775,775,775,775,775,775,775,775,775,775,775,775,775,775,775,775,775,775,775,775,775,775,775,775,775,775,775,777,796,844,919,1020,1051,1067,1067,1065,1063,1063,1070,1079,1086,1096,1101,1114],"ymouse":[602,602,602,602,602,602,602,602,602,602,602,602,602,602,602,602,602,602,602,602,602,602,602,602,602,602,602,602,602,602,602,602,602,579,530,464,379,349,322,307,293,274,256,207,181,153,120,104,76],"timestamp_mouse":[7,32,48,67,88,108,128,148,167,187,207,227,247,268,287,307,327,347,368,387,408,428,447,468,488,508,527,548,568,588,607,627,648,667,687,707,727,748,767,787,807,827,847,867,887,908,927,948,967],"xSR":741.5,"ySR":573.95,"xT1":424.9,"yT1":0,"xT2":1058.1,"yT2":0,"toosoon":0,"cond_shown":"equaldotanddens","ratio_trial":250,"smaller_num":"3","larger_num":"12","correct_side":2,"subjID":"AndresValdiviesoCadena32","gender":"0","age":"11","school":"6"},{"start_time":1551900559896,"click_time":1551900560783,"finger_time":1551900560603,"fix_duration":250,"trial":9,"RT":707,"MT":180,"sideResp":1,"stimulus":"img/750/equaldotanddens/L/10_Ratio_750_L_4_R_3.png","xmouse":[804,804,804,804,804,804,804,804,804,804,804,804,804,804,804,804,804,804,804,804,804,804,804,804,804,804,804,804,804,804,804,804,804,804,804,801,782,737,702,625,586,550,517,492,437],"ymouse":[596,596,596,596,596,596,596,596,596,596,596,596,596,596,596,596,596,596,596,596,596,596,596,596,596,596,596,596,596,596,596,596,596,594,585,564,518,409,336,224,187,161,137,118,75],"timestamp_mouse":[7,34,47,67,87,108,129,148,168,187,207,227,247,267,287,307,327,347,367,388,409,427,448,467,488,507,527,548,567,588,607,627,647,668,687,707,727,747,768,788,807,827,848,867,887],"xSR":741.5,"ySR":573.95,"xT1":424.9,"yT1":0,"xT2":1058.1,"yT2":0,"toosoon":0,"cond_shown":"equaldotanddens","ratio_trial":750,"smaller_num":"3","larger_num":"4","correct_side":1,"subjID":"AndresValdiviesoCadena32","gender":"0","age":"11","school":"6"},{"start_time":1551900563415,"click_time":1551900564383,"finger_time":1551900564125,"fix_duration":510.66538082913036,"trial":10,"RT":710,"MT":258,"sideResp":1,"stimulus":"img/250/equaldotanddens/L/5_Ratio_250_L_24_R_6.png","xmouse":[799,799,799,799,799,799,799,799,799,799,799,799,799,799,799,799,799,799,799,799,799,799,799,799,799,799,799,799,799,799,799,799,799,798,794,789,783,775,738,704,683,664,650,616,601,588,574,553,515],"ymouse":[641,641,641,641,641,641,641,641,641,641,641,641,641,641,641,641,641,641,641,641,641,641,641,641,641,641,641,641,641,641,641,641,640,621,598,565,526,472,349,300,269,243,228,194,173,149,128,103,68],"timestamp_mouse":[9,31,49,68,89,109,130,148,168,189,208,229,249,268,289,308,328,349,368,389,408,428,450,469,488,508,529,548,569,588,609,628,648,668,689,710,728,749,768,788,808,829,848,869,888,908,929,948,968],"xSR":741.5,"ySR":573.95,"xT1":424.9,"yT1":0,"xT2":1058.1,"yT2":0,"toosoon":0,"cond_shown":"equaldotanddens","ratio_trial":250,"smaller_num":"6","larger_num":"24","correct_side":1,"subjID":"AndresValdiviesoCadena32","gender":"0","age":"11","school":"6"},{"start_time":1551900565809,"click_time":1551900566865,"finger_time":1551900566484,"fix_duration":604.4144716438693,"trial":11,"RT":675,"MT":381,"sideResp":2,"stimulus":"img/500/equaldotanddens/R/6_Ratio_500_L_9_R_18.png","xmouse":[764,764,764,764,764,764,764,764,764,764,764,764,764,764,764,764,764,764,764,764,764,764,764,764,764,764,764,764,764,764,764,765,783,841,877,911,939,956,984,995,1003,1011,1018,1051,1066,1073,1074,1074,1074,1074,1074,1075,1090],"ymouse":[618,618,618,618,618,618,618,618,618,618,618,618,618,618,618,618,618,618,618,618,618,618,618,618,618,618,618,618,618,618,618,618,610,563,522,475,434,407,365,341,315,278,253,187,156,136,125,120,120,118,117,113,93],"timestamp_mouse":[15,38,55,76,95,115,134,154,174,195,215,234,256,275,295,315,334,354,375,394,414,435,454,475,494,514,534,554,575,595,614,634,655,675,694,715,734,755,774,794,814,835,854,874,894,915,934,956,974,994,1014,1035,1056],"xSR":741.5,"ySR":573.95,"xT1":424.9,"yT1":0,"xT2":1058.1,"yT2":0,"toosoon":0,"cond_shown":"equaldotanddens","ratio_trial":500,"smaller_num":"9","larger_num":"18","correct_side":2,"subjID":"AndresValdiviesoCadena32","gender":"0","age":"11","school":"6"},{"start_time":1551900568633,"click_time":1551900569743,"finger_time":1551900569443,"fix_duration":808.1665145653815,"trial":12,"RT":810,"MT":300,"sideResp":2,"stimulus":"img/750/randomdotsizeEA/L/10_Ratio_750_L_4_R_3.png","xmouse":[757,757,757,757,757,757,757,757,757,757,757,757,757,757,757,757,757,757,757,757,757,757,757,757,757,757,757,757,757,757,757,757,757,757,757,757,757,757,758,765,785,865,876,881,884,887,892,906,921,943,974,1025,1064,1074,1080,1083],"ymouse":[606,606,606,606,606,606,606,606,606,606,606,606,606,606,606,606,606,606,606,606,606,606,606,606,606,606,606,606,606,606,606,606,606,606,606,606,606,606,606,600,572,454,440,433,427,422,414,387,366,334,292,218,148,124,105,90],"timestamp_mouse":[10,31,50,70,90,110,130,150,170,191,211,231,251,271,291,310,331,350,370,390,410,430,450,470,490,510,530,550,572,590,610,630,650,670,690,710,730,751,771,790,810,831,850,870,890,911,930,950,971,990,1011,1030,1051,1070,1090,1110],"xSR":741.5,"ySR":573.95,"xT1":424.9,"yT1":0,"xT2":1058.1,"yT2":0,"toosoon":0,"cond_shown":"randomdotsizeEA","ratio_trial":750,"smaller_num":"3","larger_num":"4","correct_side":1,"subjID":"AndresValdiviesoCadena32","gender":"0","age":"11","school":"6"},{"start_time":1551900571784,"click_time":1551900573284,"finger_time":1551900572983,"fix_duration":639.1077366536316,"trial":13,"RT":1199,"MT":301,"sideResp":2,"stimulus":"img/900/equaldotsize/L/8_Ratio_900_L_20_R_18.png","xmouse":[819,819,819,819,819,819,819,819,819,819,819,819,819,819,819,819,819,819,819,819,819,819,819,819,819,819,819,819,819,819,819,819,819,819,819,819,819,819,819,819,819,819,819,819,819,819,819,819,819,819,819,819,819,819,819,819,819,819,819,819,822,835,854,871,886,927,948,967,983,995,1010,1015,1019,1023,1034,1060],"ymouse":[578,578,578,578,578,578,578,578,578,578,578,578,578,578,578,578,578,578,578,578,578,578,578,578,578,578,578,578,578,578,578,578,578,578,578,578,578,578,578,578,578,578,578,578,578,578,578,578,578,578,578,578,578,578,578,578,578,578,578,578,569,543,505,467,425,326,279,229,193,167,128,116,108,98,75,36],"timestamp_mouse":[1,38,39,59,79,100,120,139,160,179,200,219,239,260,279,299,319,339,360,379,400,419,440,459,479,500,519,539,560,580,600,620,639,659,680,700,719,740,761,780,799,819,840,860,880,899,920,940,959,979,1000,1019,1040,1059,1080,1099,1120,1139,1159,1179,1199,1219,1239,1259,1280,1300,1319,1340,1359,1379,1399,1420,1439,1459,1480,1500],"xSR":741.5,"ySR":573.95,"xT1":424.9,"yT1":0,"xT2":1058.1,"yT2":0,"toosoon":0,"cond_shown":"equaldotsize","ratio_trial":900,"smaller_num":"18","larger_num":"20","correct_side":1,"subjID":"AndresValdiviesoCadena32","gender":"0","age":"11","school":"6"},{"start_time":1551900575825,"click_time":1551900577583,"finger_time":1551900576643,"fix_duration":1100.289590106442,"trial":14,"RT":818,"MT":940,"sideResp":2,"stimulus":"img/900/equaldotanddens/R/14_Ratio_900_L_18_R_20.png","xmouse":[802,802,802,802,802,802,802,802,802,802,802,802,802,802,802,802,802,802,802,802,802,802,802,802,802,802,802,802,802,802,802,802,802,802,802,802,802,802,802,800,796,793,789,788,787,787,787,786,786,786,785,784,782,782,782,782,788,801,806,808,809,809,809,809,809,809,811,820,836,869,908,977,1060,1093,1127,1151,1166,1176,1176,1176,1176,1180,1183,1183,1183,1179,1167,1136],"ymouse":[576,576,576,576,576,576,576,576,576,576,576,576,576,576,576,576,576,576,576,576,576,576,576,576,576,576,576,576,576,576,576,576,576,576,576,576,576,576,576,574,562,554,545,541,540,540,539,537,535,533,529,524,506,490,471,447,426,376,357,345,338,334,331,331,331,328,297,269,224,166,113,42,0,0,0,0,0,0,0,0,0,0,3,5,10,14,20,34],"timestamp_mouse":[19,38,58,79,98,119,138,158,178,199,218,238,259,278,298,318,338,358,378,398,418,439,458,478,498,519,539,559,579,599,619,639,658,679,698,720,738,758,779,798,818,839,858,878,898,918,939,958,978,999,1018,1039,1060,1078,1099,1118,1138,1158,1179,1198,1219,1238,1259,1279,1299,1318,1340,1358,1379,1398,1418,1438,1458,1478,1499,1519,1538,1558,1578,1599,1619,1639,1658,1679,1699,1719,1739,1758],"xSR":741.5,"ySR":573.95,"xT1":424.9,"yT1":0,"xT2":1058.1,"yT2":0,"toosoon":0,"cond_shown":"equaldotanddens","ratio_trial":900,"smaller_num":"18","larger_num":"20","correct_side":2,"subjID":"AndresValdiviesoCadena32","gender":"0","age":"11","school":"6"},{"start_time":1551900579342,"click_time":1551900583044,"finger_time":1551900582743,"fix_duration":1016.9408586820626,"trial":15,"RT":3401,"MT":301,"sideResp":1,"stimulus":"img/750/equaldotanddens/L/14_Ratio_750_L_8_R_6.png","xmouse":[774,774,774,774,774,774,774,774,774,774,774,774,774,774,774,774,774,774,774,774,774,774,774,774,774,774,774,774,774,774,774,774,774,774,774,774,774,774,774,774,774,774,774,774,774,774,774,774,774,774,774,774,774,774,774,774,774,774,774,774,774,774,774,774,774,774,774,774,774,774,774,774,774,774,774,774,774,774,774,774,774,774,774,774,774,774,774,774,774,774,774,774,774,774,774,774,774,774,774,774,774,774,774,774,774,774,774,774,774,774,774,774,774,774,774,774,774,774,774,774,774,774,774,774,774,774,774,774,774,774,774,774,774,774,774,774,774,774,774,774,774,774,774,774,774,774,774,774,774,774,774,774,774,774,774,774,774,774,774,774,774,774,774,774,774,774,774,785,793,793,764,662,619,588,564,538,492,452,445,442,442,442,442,442,441,441],"ymouse":[610,610,610,610,610,610,610,610,610,610,610,610,610,610,610,610,610,610,610,610,610,610,610,610,610,610,610,610,610,610,610,610,610,610,610,610,610,610,610,610,610,610,610,610,610,610,610,610,610,610,610,610,610,610,610,610,610,610,610,610,610,610,610,610,610,610,610,610,610,610,610,610,610,610,610,610,610,610,610,610,610,610,610,610,610,610,610,610,610,610,610,610,610,610,610,610,610,610,610,610,610,610,610,610,610,610,610,610,610,610,610,610,610,610,610,610,610,610,610,610,610,610,610,610,610,610,610,610,610,610,610,610,610,610,610,610,610,610,610,610,610,610,610,610,610,610,610,610,610,610,610,610,610,610,610,610,610,610,610,610,610,610,610,610,610,610,610,607,599,579,531,370,280,190,101,19,0,0,0,0,0,0,0,0,0,11],"timestamp_mouse":[11,22,42,62,81,101,121,142,161,182,202,221,241,262,281,301,321,342,361,381,401,421,441,462,481,502,521,541,561,582,601,621,641,662,681,701,721,741,761,781,801,821,841,862,881,901,922,941,962,981,1002,1021,1042,1061,1081,1101,1121,1141,1161,1181,1201,1221,1241,1261,1283,1302,1322,1341,1361,1381,1402,1422,1443,1461,1481,1501,1521,1542,1561,1581,1601,1621,1641,1662,1681,1702,1721,1741,1762,1782,1802,1822,1841,1861,1882,1901,1921,1942,1963,1981,2002,2021,2042,2063,2081,2101,2121,2141,2161,2181,2201,2221,2242,2262,2282,2301,2321,2341,2362,2382,2401,2421,2442,2461,2482,2501,2521,2541,2561,2583,2602,2621,2641,2662,2681,2702,2721,2742,2761,2782,2802,2823,2841,2861,2883,2902,2922,2941,2963,2982,3001,3021,3042,3061,3081,3102,3121,3141,3161,3183,3202,3222,3241,3261,3282,3302,3321,3342,3361,3382,3401,3422,3441,3461,3482,3502,3521,3541,3562,3582,3602,3621,3642,3662,3682,3702],"xSR":741.5,"ySR":573.95,"xT1":424.9,"yT1":0,"xT2":1058.1,"yT2":0,"toosoon":0,"cond_shown":"equaldotanddens","ratio_trial":750,"smaller_num":"6","larger_num":"8","correct_side":1,"subjID":"AndresValdiviesoCadena32","gender":"0","age":"11","school":"6"},{"start_time":1551900585526,"click_time":1551900586563,"finger_time":1551900586403,"fix_duration":1261.9156398159187,"trial":16,"RT":877,"MT":160,"sideResp":1,"stimulus":"img/500/equaldotanddens/L/7_Ratio_500_L_10_R_5.png","xmouse":[801,801,801,801,801,801,801,801,801,801,801,801,801,801,801,801,801,801,801,801,801,801,801,801,801,801,801,801,801,801,801,801,801,801,801,801,801,801,801,801,801,799,790,773,745,716,691,620,591,561,540,518],"ymouse":[599,599,599,599,599,599,599,599,599,599,599,599,599,599,599,599,599,599,599,599,599,599,599,599,599,599,599,599,599,599,599,599,599,599,599,599,599,599,599,599,599,598,577,534,472,400,323,162,124,94,76,55],"timestamp_mouse":[17,37,58,77,97,117,137,157,177,197,218,237,257,277,297,318,338,358,377,398,417,438,457,478,497,517,537,558,577,597,617,638,658,677,697,717,737,757,778,798,817,837,857,877,897,918,937,958,977,998,1017,1037],"xSR":741.5,"ySR":573.95,"xT1":424.9,"yT1":0,"xT2":1058.1,"yT2":0,"toosoon":0,"cond_shown":"equaldotanddens","ratio_trial":500,"smaller_num":"5","larger_num":"10","correct_side":1,"subjID":"AndresValdiviesoCadena32","gender":"0","age":"11","school":"6"},{"start_time":1551900588727,"click_time":1551900590123,"finger_time":1551900589783,"fix_duration":1363.705439328076,"trial":17,"RT":1056,"MT":340,"sideResp":1,"stimulus":"img/900/equaldotsize/L/4_Ratio_900_L_20_R_18.png","xmouse":[779,779,779,779,779,779,779,779,779,779,779,779,779,779,779,779,779,779,779,779,779,779,779,779,780,780,780,780,780,780,780,780,780,780,780,780,780,780,780,780,780,780,780,780,780,780,780,780,780,781,781,781,768,755,722,710,673,619,596,577,564,561,559,558,558,558,555,546,537,524],"ymouse":[622,622,622,622,622,622,622,622,622,622,622,622,622,622,622,622,622,622,622,622,622,622,622,622,622,622,622,622,622,622,622,622,622,622,622,622,622,622,622,622,622,622,622,622,622,622,622,622,622,617,608,582,499,455,393,378,338,301,289,278,268,264,249,241,228,213,186,138,108,67],"timestamp_mouse":[16,39,56,76,96,117,136,157,176,196,217,237,256,276,296,317,337,357,376,397,417,437,457,477,497,516,536,557,577,596,616,636,656,677,696,716,736,756,777,796,816,837,856,876,896,916,936,957,976,996,1017,1036,1056,1076,1096,1116,1137,1157,1177,1197,1217,1236,1256,1276,1297,1316,1337,1356,1376,1396],"xSR":741.5,"ySR":573.95,"xT1":424.9,"yT1":0,"xT2":1058.1,"yT2":0,"toosoon":0,"cond_shown":"equaldotsize","ratio_trial":900,"smaller_num":"18","larger_num":"20","correct_side":1,"subjID":"AndresValdiviesoCadena32","gender":"0","age":"11","school":"6"},{"start_time":1551900651758,"click_time":1551900653344,"finger_time":1551900651768,"fix_duration":1172.3636928662113,"trial":18,"RT":10,"MT":1576,"sideResp":1,"stimulus":"img/250/equaldotsize/L/5_Ratio_250_L_24_R_6.png","xmouse":[813,813,813,813,813,813,813,813,813,813,813,813,813,812,811,811,811,811,811,811,811,811,810,810,810,810,810,810,810,810,810,810,810,810,810,810,810,810,810,810,810,810,810,810,810,810,810,810,810,810,810,810,810,810,810,810,810,810,810,810,810,810,810,797,774,737,643,607,579,553,508,484,461,445,440,440,440,440,440,437],"ymouse":[595,595,595,595,595,595,595,595,595,595,595,596,599,601,603,604,605,605,605,605,606,606,607,607,607,607,607,607,607,607,607,607,607,607,607,607,607,607,607,607,607,607,607,607,607,607,607,607,607,607,607,607,607,607,607,607,607,607,607,607,607,607,608,616,622,632,642,642,641,632,597,568,532,480,437,387,265,197,134,76],"timestamp_mouse":[10,27,56,67,85,107,126,146,167,187,205,227,246,266,285,305,326,345,365,385,405,425,446,466,485,505,526,545,566,586,605,626,647,666,686,707,726,745,765,787,805,827,846,866,886,907,926,946,966,986,1007,1027,1046,1066,1087,1105,1126,1146,1165,1186,1206,1226,1245,1266,1286,1306,1327,1345,1366,1386,1407,1425,1446,1465,1486,1505,1526,1545,1566,1586],"xSR":741.5,"ySR":573.95,"xT1":424.9,"yT1":0,"xT2":1058.1,"yT2":0,"toosoon":0,"cond_shown":"equaldotsize","ratio_trial":250,"smaller_num":"6","larger_num":"24","correct_side":1,"subjID":"AndresValdiviesoCadena32","gender":"0","age":"11","school":"6"},{"start_time":1551900668157,"click_time":1551900669644,"finger_time":1551900669205,"fix_duration":250,"trial":19,"RT":1048,"MT":439,"sideResp":2,"stimulus":"img/500/randomdotsizeEA/R/2_Ratio_500_L_3_R_6.png","xmouse":[780,780,780,780,780,780,780,780,780,780,780,780,780,780,780,780,780,780,780,780,780,780,780,780,780,780,780,780,780,780,780,780,780,780,780,780,780,780,780,780,780,780,780,780,780,780,780,780,780,780,780,785,794,809,834,848,864,872,880,890,924,943,962,982,1006,1019,1032,1034,1035,1036,1036,1036,1037,1041,1060],"ymouse":[486,486,486,486,486,486,486,486,486,486,486,486,486,486,486,486,486,486,486,486,486,486,486,486,486,486,486,486,486,486,486,486,486,486,486,486,486,486,486,486,486,486,486,486,486,486,486,486,486,486,485,474,460,443,419,408,386,374,361,346,296,262,221,173,115,86,56,52,51,50,50,50,50,50,54],"timestamp_mouse":[10,40,47,68,88,108,128,147,167,188,206,228,246,268,288,306,326,348,367,387,408,428,447,467,487,507,527,548,568,586,607,628,647,667,686,708,728,748,767,788,808,828,846,867,887,908,926,946,968,988,1007,1026,1048,1067,1088,1107,1126,1147,1167,1187,1208,1227,1248,1267,1287,1307,1326,1347,1367,1386,1407,1428,1447,1467,1487],"xSR":741.5,"ySR":469.95,"xT1":424.9,"yT1":0,"xT2":1058.1,"yT2":0,"toosoon":0,"cond_shown":"randomdotsizeEA","ratio_trial":500,"smaller_num":"3","larger_num":"6","correct_side":2,"subjID":"AndresValdiviesoCadena32","gender":"0","age":"11","school":"6"},{"start_time":1551900671055,"click_time":1551900672165,"finger_time":1551900671904,"fix_duration":250,"trial":20,"RT":849,"MT":261,"sideResp":2,"stimulus":"img/750/equaldotanddens/R/3_Ratio_750_L_15_R_20.png","xmouse":[837,837,837,837,837,837,837,837,837,837,837,837,837,837,837,837,837,837,837,837,837,837,837,837,837,837,837,837,837,837,837,837,837,837,837,837,837,837,837,837,836,836,849,874,907,968,982,989,991,996,999,1007,1016,1026,1034,1060],"ymouse":[521,521,521,521,521,521,521,521,521,521,521,521,521,521,521,521,521,521,521,521,521,521,521,521,521,521,521,521,521,521,521,521,521,521,521,521,521,521,521,521,521,504,463,394,316,176,138,115,100,85,79,74,74,74,74,74],"timestamp_mouse":[9,41,49,69,90,110,130,149,169,189,210,228,248,269,290,308,330,350,369,389,409,429,450,469,489,508,529,550,569,588,609,628,649,668,690,708,730,750,769,789,809,830,849,869,889,910,929,949,969,989,1010,1029,1048,1069,1089,1110],"xSR":741.5,"ySR":469.95,"xT1":424.9,"yT1":0,"xT2":1058.1,"yT2":0,"toosoon":0,"cond_shown":"equaldotanddens","ratio_trial":750,"smaller_num":"15","larger_num":"20","correct_side":2,"subjID":"AndresValdiviesoCadena32","gender":"0","age":"11","school":"6"},{"start_time":1551900674699,"click_time":1551900675685,"finger_time":1551900675384,"fix_duration":413.06917195282443,"trial":21,"RT":685,"MT":301,"sideResp":2,"stimulus":"img/500/equaldotanddens/R/14_Ratio_500_L_5_R_10.png","xmouse":[801,801,801,801,801,800,800,800,800,799,799,799,798,798,798,797,797,797,797,797,797,797,797,797,797,797,797,797,797,797,797,797,797,806,827,860,899,952,982,1012,1012,1012,1012,1012,1012,1012,1012,1012,1012,1071],"ymouse":[540,540,540,540,540,537,536,536,536,534,534,533,532,530,529,529,528,528,528,527,527,527,527,527,527,527,527,527,527,527,527,527,524,491,434,356,270,145,77,10,10,10,10,10,10,10,10,10,10,33],"timestamp_mouse":[9,39,45,66,84,106,124,146,165,184,204,225,246,265,285,305,324,345,365,384,405,426,444,465,485,504,526,545,565,584,606,626,644,666,685,704,725,745,765,786,805,825,845,865,886,905,924,945,965,985],"xSR":741.5,"ySR":469.95,"xT1":424.9,"yT1":0,"xT2":1058.1,"yT2":0,"toosoon":0,"cond_shown":"equaldotanddens","ratio_trial":500,"smaller_num":"5","larger_num":"10","correct_side":2,"subjID":"AndresValdiviesoCadena32","gender":"0","age":"11","school":"6"},{"start_time":1551900676875,"click_time":1551900677604,"finger_time":1551900677544,"fix_duration":610.0661730608224,"trial":22,"RT":669,"MT":60,"sideResp":1,"stimulus":"img/500/equaldotsize/L/7_Ratio_500_L_10_R_5.png","xmouse":[768,768,768,768,768,768,768,768,768,768,768,768,768,768,768,768,768,768,769,770,771,772,772,772,772,772,772,772,772,772,773,773,763,724,595,521],"ymouse":[533,533,533,533,533,532,532,532,532,532,532,532,532,532,532,532,530,529,527,524,523,522,522,522,522,522,522,522,522,522,515,498,465,393,181,68],"timestamp_mouse":[28,49,69,88,108,130,148,169,188,208,229,250,268,290,310,329,348,369,389,409,429,449,470,489,510,530,550,568,589,610,629,648,669,690,708,729],"xSR":741.5,"ySR":469.95,"xT1":424.9,"yT1":0,"xT2":1058.1,"yT2":0,"toosoon":0,"cond_shown":"equaldotsize","ratio_trial":500,"smaller_num":"5","larger_num":"10","correct_side":1,"subjID":"AndresValdiviesoCadena32","gender":"0","age":"11","school":"6"},{"start_time":1551900679225,"click_time":1551900680284,"finger_time":1551900679883,"fix_duration":780.1519040482954,"trial":23,"RT":658,"MT":401,"sideResp":2,"stimulus":"img/250/equaldotanddens/R/11_Ratio_250_L_3_R_12.png","xmouse":[767,767,767,767,767,767,767,767,767,767,767,767,767,767,767,767,767,767,767,767,767,767,767,767,767,767,767,767,767,767,768,772,816,848,876,890,900,916,931,962,975,980,980,980,981,988,1038,1090,1129,1149,1158,1159,1157],"ymouse":[479,479,479,479,479,479,479,479,479,479,479,479,479,479,479,479,479,479,479,479,479,479,479,479,479,479,479,479,479,479,479,478,440,410,380,359,337,299,278,237,218,210,209,209,209,202,177,154,132,118,104,95,81],"timestamp_mouse":[20,39,59,79,99,119,140,160,180,198,218,239,259,280,299,319,338,360,378,400,419,440,460,479,500,520,539,560,580,600,619,639,658,678,700,719,739,758,780,799,819,839,858,879,899,919,940,958,979,999,1018,1038,1059],"xSR":741.5,"ySR":469.95,"xT1":424.9,"yT1":0,"xT2":1058.1,"yT2":0,"toosoon":0,"cond_shown":"equaldotanddens","ratio_trial":250,"smaller_num":"3","larger_num":"12","correct_side":2,"subjID":"AndresValdiviesoCadena32","gender":"0","age":"11","school":"6"},{"start_time":1551900681982,"click_time":1551900683383,"finger_time":1551900683064,"fix_duration":917.104383290212,"trial":24,"RT":1082,"MT":319,"sideResp":2,"stimulus":"img/250/randomdotsizeEA/R/8_Ratio_250_L_1_R_4.png","xmouse":[782,782,782,782,782,782,782,782,782,782,782,782,782,782,782,782,782,782,782,782,782,782,782,782,782,782,782,782,783,783,783,783,783,783,783,783,783,783,783,783,783,783,783,783,783,783,783,783,783,785,789,792,800,823,844,886,904,923,941,981,1004,1025,1042,1054,1067,1081,1088,1098,1109,1125,1132],"ymouse":[499,499,499,499,499,499,499,499,499,499,499,499,499,499,499,499,499,499,499,499,499,499,499,499,499,499,499,499,499,499,499,499,499,499,499,499,499,499,499,499,499,499,499,499,499,499,499,499,499,499,499,499,498,487,475,444,426,403,382,335,312,291,270,252,230,199,182,164,143,104,86],"timestamp_mouse":[12,35,43,63,82,102,122,141,163,181,201,222,243,261,283,302,323,342,363,381,403,422,441,463,483,502,522,543,562,582,603,623,641,663,682,702,722,741,762,782,802,822,843,862,882,902,922,942,962,983,1001,1021,1042,1061,1082,1102,1121,1143,1162,1183,1202,1221,1242,1261,1283,1302,1322,1342,1362,1383,1401],"xSR":741.5,"ySR":469.95,"xT1":424.9,"yT1":0,"xT2":1058.1,"yT2":0,"toosoon":0,"cond_shown":"randomdotsizeEA","ratio_trial":250,"smaller_num":"1","larger_num":"4","correct_side":2,"subjID":"AndresValdiviesoCadena32","gender":"0","age":"11","school":"6"},{"start_time":1551900684375,"click_time":1551900685724,"finger_time":1551900685244,"fix_duration":250,"trial":25,"RT":869,"MT":480,"sideResp":1,"stimulus":"img/750/equaldotanddens/R/2_Ratio_750_L_6_R_8.png","xmouse":[810,810,810,810,810,810,810,810,810,810,810,810,810,810,810,810,810,810,810,810,810,810,810,810,810,810,810,810,810,810,810,810,810,810,810,810,810,810,810,810,808,807,804,793,782,759,749,735,721,672,634,598,577,565,563,563,563,563,563,563,559,556,553,548,542,532,525,520],"ymouse":[532,532,532,532,532,532,532,532,532,532,532,532,532,532,532,532,532,532,532,532,532,532,532,532,532,532,532,532,532,532,532,532,532,532,532,532,532,532,532,532,528,522,503,468,439,386,365,339,315,225,156,93,55,35,34,34,33,33,33,33,38,45,54,68,77,86,87,87],"timestamp_mouse":[9,40,48,69,90,108,129,149,169,189,210,230,249,268,290,310,329,349,369,390,408,429,450,468,489,510,528,550,568,589,609,630,650,669,690,709,730,750,769,789,808,829,849,869,890,909,930,949,969,990,1008,1029,1049,1069,1089,1109,1129,1148,1170,1189,1209,1228,1249,1270,1289,1309,1328,1349],"xSR":741.5,"ySR":469.95,"xT1":424.9,"yT1":0,"xT2":1058.1,"yT2":0,"toosoon":0,"cond_shown":"equaldotanddens","ratio_trial":750,"smaller_num":"6","larger_num":"8","correct_side":2,"subjID":"AndresValdiviesoCadena32","gender":"0","age":"11","school":"6"},{"start_time":1551900687892,"click_time":1551900688724,"finger_time":1551900688565,"fix_duration":1147.3618105570508,"trial":26,"RT":673,"MT":159,"sideResp":2,"stimulus":"img/250/equaldotsize/R/4_Ratio_250_L_3_R_12.png","xmouse":[801,801,801,801,801,801,801,801,801,801,801,801,801,801,801,801,801,801,801,801,801,801,801,801,801,801,801,801,801,801,801,803,810,841,872,912,960,1015,1039,1068,1082,1095],"ymouse":[546,546,546,546,546,546,546,546,546,546,546,546,546,546,546,546,546,546,546,546,546,546,546,546,546,546,546,546,546,546,547,546,528,460,400,328,262,192,163,122,102,84],"timestamp_mouse":[11,34,52,72,92,112,132,151,172,191,213,233,253,271,292,311,332,351,372,393,412,432,451,473,492,511,532,552,572,592,612,632,652,673,691,712,732,752,771,791,812,832],"xSR":741.5,"ySR":469.95,"xT1":424.9,"yT1":0,"xT2":1058.1,"yT2":0,"toosoon":0,"cond_shown":"equaldotsize","ratio_trial":250,"smaller_num":"3","larger_num":"12","correct_side":2,"subjID":"AndresValdiviesoCadena32","gender":"0","age":"11","school":"6"},{"start_time":1551900689854,"click_time":1551900690765,"finger_time":1551900690544,"fix_duration":368.07577498011267,"trial":27,"RT":690,"MT":221,"sideResp":1,"stimulus":"img/250/randomdotsizeEA/L/7_Ratio_250_L_8_R_2.png","xmouse":[779,779,779,779,779,779,779,779,779,779,779,779,779,779,779,779,779,779,779,779,779,779,779,779,779,779,779,779,779,779,779,779,778,776,766,749,689,649,612,569,535,530,527,526,526,523],"ymouse":[482,482,482,482,482,482,482,482,482,482,482,483,483,483,483,483,483,483,483,483,483,483,483,483,483,483,483,483,483,483,483,483,484,484,461,421,303,243,193,137,97,91,90,89,89,84],"timestamp_mouse":[10,30,51,69,90,110,130,150,170,190,210,231,250,269,290,311,330,350,371,390,411,430,450,469,490,511,529,551,570,590,611,629,650,670,690,711,729,751,770,791,811,830,849,870,890,911],"xSR":741.5,"ySR":469.95,"xT1":424.9,"yT1":0,"xT2":1058.1,"yT2":0,"toosoon":0,"cond_shown":"randomdotsizeEA","ratio_trial":250,"smaller_num":"2","larger_num":"8","correct_side":1,"subjID":"AndresValdiviesoCadena32","gender":"0","age":"11","school":"6"},{"start_time":1551900692749,"click_time":1551900693785,"finger_time":1551900693485,"fix_duration":1062.5362305479769,"trial":28,"RT":736,"MT":300,"sideResp":2,"stimulus":"img/900/equaldotsize/R/14_Ratio_900_L_18_R_20.png","xmouse":[830,830,830,830,830,830,830,830,830,830,830,830,830,830,830,830,830,830,830,830,830,830,830,830,830,830,830,830,830,830,830,830,830,830,832,840,864,876,887,900,918,969,1000,1029,1056,1073,1078,1080,1082,1082,1085,1090],"ymouse":[501,501,501,501,501,501,501,501,501,501,501,501,501,501,501,501,501,501,501,501,501,501,501,501,501,501,501,501,501,501,501,501,501,501,498,487,457,442,426,409,384,313,271,236,203,182,171,159,141,121,101,62],"timestamp_mouse":[15,35,55,75,94,116,135,155,174,196,216,234,256,276,296,315,335,356,374,396,416,434,454,476,494,515,536,554,575,594,615,636,655,674,696,715,736,756,776,795,814,834,855,876,895,915,935,954,976,995,1015,1036],"xSR":741.5,"ySR":469.95,"xT1":424.9,"yT1":0,"xT2":1058.1,"yT2":0,"toosoon":0,"cond_shown":"equaldotsize","ratio_trial":900,"smaller_num":"18","larger_num":"20","correct_side":2,"subjID":"AndresValdiviesoCadena32","gender":"0","age":"11","school":"6"},{"start_time":1551900694615,"click_time":1551900695684,"finger_time":1551900695584,"fix_duration":250,"trial":29,"RT":969,"MT":100,"sideResp":1,"stimulus":"img/250/equaldotsize/L/7_Ratio_250_L_8_R_2.png","xmouse":[768,768,768,768,768,768,768,768,768,768,768,768,768,768,768,768,768,768,768,768,768,768,768,768,768,768,768,768,768,768,768,768,768,768,768,768,768,768,768,768,768,768,768,768,768,766,764,758,727,704,673,617,572,497],"ymouse":[547,547,547,547,547,547,547,547,547,547,547,547,547,547,547,547,547,547,547,547,547,547,547,547,547,547,547,547,547,547,547,547,547,547,547,547,547,547,547,547,547,547,547,547,547,541,536,518,457,413,359,264,196,86],"timestamp_mouse":[16,33,49,68,89,110,130,149,170,189,209,228,249,270,290,308,330,350,369,389,408,428,449,470,488,510,530,549,570,590,608,629,650,669,689,708,730,750,770,790,808,829,849,868,889,909,928,948,969,989,1009,1029,1049,1069],"xSR":741.5,"ySR":469.95,"xT1":424.9,"yT1":0,"xT2":1058.1,"yT2":0,"toosoon":0,"cond_shown":"equaldotsize","ratio_trial":250,"smaller_num":"2","larger_num":"8","correct_side":1,"subjID":"AndresValdiviesoCadena32","gender":"0","age":"11","school":"6"},{"start_time":1551900697468,"click_time":1551900698566,"finger_time":1551900698144,"fix_duration":963.7262889444302,"trial":30,"RT":676,"MT":422,"sideResp":2,"stimulus":"img/900/equaldotanddens/R/15_Ratio_900_L_9_R_10.png","xmouse":[763,763,763,763,763,763,763,763,763,763,763,763,763,763,763,763,763,763,763,763,763,763,763,763,763,763,763,763,763,763,764,773,797,838,889,975,1005,1030,1060,1080,1084,1084,1084,1084,1084,1084,1084,1084,1082,1081,1079,1079,1079,1079,1087],"ymouse":[505,505,505,505,505,505,505,505,505,505,505,505,505,505,505,505,505,505,505,505,505,505,505,505,505,505,505,505,505,505,505,498,471,434,389,309,278,258,228,204,193,193,193,193,193,193,191,187,177,170,153,141,125,107,69],"timestamp_mouse":[16,37,57,76,95,117,136,155,176,197,216,237,255,276,297,316,335,356,377,395,417,437,456,476,497,517,537,556,576,597,616,636,656,676,695,715,736,756,776,795,815,836,857,875,895,915,936,956,977,995,1015,1037,1057,1076,1097],"xSR":741.5,"ySR":469.95,"xT1":424.9,"yT1":0,"xT2":1058.1,"yT2":0,"toosoon":0,"cond_shown":"equaldotanddens","ratio_trial":900,"smaller_num":"9","larger_num":"10","correct_side":2,"subjID":"AndresValdiviesoCadena32","gender":"0","age":"11","school":"6"},{"start_time":1551900699838,"click_time":1551900700983,"finger_time":1551900700663,"fix_duration":533.3458014655072,"trial":31,"RT":825,"MT":320,"sideResp":1,"stimulus":"img/750/equaldotanddens/L/6_Ratio_750_L_24_R_18.png","xmouse":[816,816,816,816,816,816,816,816,816,816,816,816,816,816,816,816,816,816,816,816,816,816,816,816,816,816,816,816,816,816,815,815,815,815,815,815,814,814,811,808,792,774,715,681,644,620,599,558,534,512,491,487,487,487,487,486,486,489],"ymouse":[525,525,525,525,525,525,525,525,525,525,525,525,525,525,525,525,525,525,525,525,525,525,525,525,525,525,525,525,525,525,525,525,525,525,525,525,525,525,521,509,473,428,317,268,225,200,182,155,143,134,125,123,123,123,123,123,117,91],"timestamp_mouse":[9,25,45,66,86,106,126,146,166,186,206,227,247,266,287,306,326,346,366,387,406,426,446,465,486,506,525,547,566,585,606,627,647,666,685,707,727,746,766,786,807,825,845,866,886,906,926,945,966,986,1007,1026,1047,1065,1085,1106,1126,1145],"xSR":741.5,"ySR":469.95,"xT1":424.9,"yT1":0,"xT2":1058.1,"yT2":0,"toosoon":0,"cond_shown":"equaldotanddens","ratio_trial":750,"smaller_num":"18","larger_num":"24","correct_side":1,"subjID":"AndresValdiviesoCadena32","gender":"0","age":"11","school":"6"},{"start_time":1551900701995,"click_time":1551900702904,"finger_time":1551900702704,"fix_duration":369.2636046182962,"trial":32,"RT":709,"MT":200,"sideResp":1,"stimulus":"img/250/randomdotsizeEA/L/14_Ratio_250_L_12_R_3.png","xmouse":[762,762,762,762,762,762,762,762,762,762,762,762,762,762,762,762,762,762,762,762,762,762,762,762,762,762,762,762,762,762,762,762,762,762,761,752,739,718,689,620,599,583,574,552,539,524],"ymouse":[487,487,487,487,487,487,487,487,487,487,487,487,487,487,487,487,487,487,487,487,487,487,487,487,487,487,487,487,487,487,487,487,487,487,476,445,401,345,288,189,163,145,132,97,74,53],"timestamp_mouse":[8,33,50,70,88,110,129,149,169,190,209,230,250,268,289,310,329,350,369,389,409,428,449,470,490,509,529,548,569,590,609,629,648,670,689,709,729,749,769,789,808,829,849,870,888,908],"xSR":741.5,"ySR":469.95,"xT1":424.9,"yT1":0,"xT2":1058.1,"yT2":0,"toosoon":0,"cond_shown":"randomdotsizeEA","ratio_trial":250,"smaller_num":"3","larger_num":"12","correct_side":1,"subjID":"AndresValdiviesoCadena32","gender":"0","age":"11","school":"6"},{"start_time":1551900706233,"click_time":1551900707443,"finger_time":1551900707124,"fix_duration":1148.769159822186,"trial":33,"RT":891,"MT":319,"sideResp":1,"stimulus":"img/900/equaldotanddens/L/1_Ratio_900_L_10_R_9.png","xmouse":[790,790,790,790,790,790,790,790,790,790,790,790,790,790,790,790,790,790,790,790,790,790,790,790,790,790,790,790,790,790,790,790,790,790,790,790,790,790,790,790,790,790,789,782,773,756,708,687,666,645,619,608,593,588,584,580,574,553,542,528,521],"ymouse":[538,538,538,538,538,538,538,538,538,538,538,538,538,538,538,538,538,538,538,538,538,538,538,538,538,538,538,538,538,538,538,538,538,538,538,538,538,538,538,538,535,523,507,488,462,427,347,310,275,245,209,191,168,159,153,146,136,109,96,83,80],"timestamp_mouse":[10,34,50,71,90,112,132,152,171,191,212,232,252,272,290,311,332,351,372,391,411,430,450,472,490,511,531,552,570,592,611,631,652,670,691,712,730,752,772,791,811,832,850,870,891,910,932,950,971,991,1011,1030,1050,1070,1091,1111,1130,1151,1171,1191,1210],"xSR":741.5,"ySR":469.95,"xT1":424.9,"yT1":0,"xT2":1058.1,"yT2":0,"toosoon":0,"cond_shown":"equaldotanddens","ratio_trial":900,"smaller_num":"9","larger_num":"10","correct_side":1,"subjID":"AndresValdiviesoCadena32","gender":"0","age":"11","school":"6"},{"start_time":1551900730391,"click_time":1551900731984,"finger_time":1551900731444,"fix_duration":1223.3616403483954,"trial":34,"RT":1053,"MT":540,"sideResp":1,"stimulus":"img/750/equaldotsize/R/2_Ratio_750_L_6_R_8.png","xmouse":[803,803,803,803,803,803,803,803,803,803,803,803,803,803,803,803,803,803,803,803,803,803,803,803,803,803,803,803,803,803,803,803,803,803,803,803,803,803,803,803,803,803,803,803,803,803,803,803,803,803,803,800,779,754,678,650,634,623,613,611,608,605,599,591,573,565,557,548,543,535,533,531,529,527,526,526,526,525,525,524],"ymouse":[493,493,493,493,493,493,493,493,493,493,493,493,493,493,493,493,493,493,493,493,493,493,493,493,493,493,493,493,493,493,493,493,493,493,493,493,493,493,493,493,493,493,493,493,493,493,493,493,493,493,493,482,430,368,244,205,184,168,154,151,146,142,133,126,113,111,108,106,103,99,98,96,96,95,95,95,95,95,95,95],"timestamp_mouse":[13,38,53,73,93,113,133,153,173,194,214,232,253,272,294,314,333,353,372,393,413,433,452,474,493,514,532,553,574,594,612,633,653,672,694,714,733,754,773,793,813,834,854,873,893,913,934,954,973,993,1014,1033,1053,1073,1094,1113,1133,1153,1174,1193,1213,1233,1254,1273,1293,1312,1333,1353,1373,1393,1413,1433,1454,1473,1494,1513,1532,1552,1574,1593],"xSR":741.5,"ySR":469.95,"xT1":424.9,"yT1":0,"xT2":1058.1,"yT2":0,"toosoon":0,"cond_shown":"equaldotsize","ratio_trial":750,"smaller_num":"6","larger_num":"8","correct_side":2,"subjID":"AndresValdiviesoCadena32","gender":"0","age":"11","school":"6"},{"start_time":1551900733136,"click_time":1551900734245,"finger_time":1551900733924,"fix_duration":250,"trial":35,"RT":788,"MT":321,"sideResp":2,"stimulus":"img/500/equaldotsize/R/2_Ratio_500_L_3_R_6.png","xmouse":[802,802,802,802,802,802,802,802,802,802,802,802,802,802,802,802,802,802,802,802,802,802,802,802,802,802,802,802,802,802,802,802,802,802,802,802,802,802,815,847,909,1070,1148,1207,1236,1250,1250,1244,1239,1232,1218,1187,1180,1172,1170,1158],"ymouse":[534,534,534,534,534,534,534,534,534,534,534,534,534,534,534,534,534,534,534,534,534,534,534,534,534,534,534,534,534,534,534,534,534,534,534,534,534,535,521,481,414,257,188,138,110,82,56,45,39,33,28,23,23,23,23,23],"timestamp_mouse":[9,42,48,69,88,108,128,148,169,189,209,227,248,267,288,308,328,348,367,388,407,428,449,469,487,509,527,549,567,588,607,628,647,669,689,708,729,748,768,788,808,829,848,868,888,908,929,948,967,987,1008,1029,1048,1068,1087,1109],"xSR":741.5,"ySR":469.95,"xT1":424.9,"yT1":0,"xT2":1058.1,"yT2":0,"toosoon":0,"cond_shown":"equaldotsize","ratio_trial":500,"smaller_num":"3","larger_num":"6","correct_side":2,"subjID":"AndresValdiviesoCadena32","gender":"0","age":"11","school":"6"},{"start_time":1551900740917,"click_time":1551900742204,"finger_time":1551900741784,"fix_duration":250,"trial":36,"RT":867,"MT":420,"sideResp":2,"stimulus":"img/750/equaldotanddens/R/11_Ratio_750_L_12_R_16.png","xmouse":[799,799,799,799,799,799,799,799,799,799,799,799,799,799,799,799,799,799,799,799,799,799,799,799,799,799,799,799,799,799,799,799,799,799,799,799,799,799,799,799,799,798,808,824,846,867,910,931,974,989,1008,1029,1052,1096,1115,1135,1157,1169,1186,1188,1188,1187,1174,1166,1154],"ymouse":[522,522,522,522,522,522,522,522,522,522,522,522,522,522,522,522,522,522,522,522,522,522,522,522,522,522,522,522,522,522,522,522,522,522,522,522,522,522,522,522,522,521,496,466,429,392,331,301,248,231,216,201,188,167,159,151,136,123,94,82,74,66,49,41,35],"timestamp_mouse":[9,30,48,67,99,107,126,147,167,186,208,227,248,268,287,306,327,346,366,388,407,427,447,468,488,508,526,547,567,586,607,626,648,666,688,707,727,746,767,787,807,827,847,867,887,907,927,948,967,987,1007,1026,1048,1067,1087,1107,1127,1147,1167,1186,1207,1226,1247,1266,1287],"xSR":741.5,"ySR":469.95,"xT1":424.9,"yT1":0,"xT2":1058.1,"yT2":0,"toosoon":0,"cond_shown":"equaldotanddens","ratio_trial":750,"smaller_num":"12","larger_num":"16","correct_side":2,"subjID":"AndresValdiviesoCadena32","gender":"0","age":"11","school":"6"},{"start_time":1551900743307,"click_time":1551900744404,"finger_time":1551900744263,"fix_duration":383.4387157368735,"trial":37,"RT":956,"MT":141,"sideResp":1,"stimulus":"img/900/randomdotsizeEA/R/14_Ratio_900_L_18_R_20.png","xmouse":[783,783,783,783,783,783,783,783,783,783,783,783,783,783,783,783,783,783,783,783,783,783,783,783,783,783,783,783,783,783,783,783,783,783,783,783,783,783,783,783,783,783,783,782,780,771,758,742,696,669,636,603,544,528,520],"ymouse":[530,530,530,530,530,530,530,530,530,530,530,530,530,530,530,530,530,530,530,530,530,530,530,530,530,530,530,530,530,530,530,530,530,530,530,530,530,530,530,530,530,530,530,527,521,497,473,444,365,317,266,214,127,102,83],"timestamp_mouse":[21,37,58,77,97,117,137,157,177,197,217,237,258,277,297,318,337,356,378,396,417,436,457,478,497,517,537,557,578,598,616,638,657,677,698,718,737,758,778,798,816,838,857,877,898,917,938,956,977,997,1018,1038,1057,1077,1097],"xSR":741.5,"ySR":469.95,"xT1":424.9,"yT1":0,"xT2":1058.1,"yT2":0,"toosoon":0,"cond_shown":"randomdotsizeEA","ratio_trial":900,"smaller_num":"18","larger_num":"20","correct_side":2,"subjID":"AndresValdiviesoCadena32","gender":"0","age":"11","school":"6"},{"start_time":1551900745703,"click_time":1551900747064,"finger_time":1551900746703,"fix_duration":516.1954288978274,"trial":38,"RT":1000,"MT":361,"sideResp":1,"stimulus":"img/900/randomdotsizeEA/R/5_Ratio_900_L_9_R_10.png","xmouse":[811,811,811,811,811,811,811,811,811,811,811,811,811,811,811,811,811,811,811,811,811,811,811,811,811,811,811,811,811,811,811,811,811,811,811,811,811,811,811,811,811,811,811,811,811,811,811,811,808,773,747,714,678,607,575,555,555,555,555,555,555,555,555,555,555,555,555,555,467],"ymouse":[507,507,507,507,507,507,507,507,507,507,507,507,507,507,507,507,507,507,507,507,507,507,507,507,507,507,507,507,507,507,507,507,507,507,507,507,507,507,507,507,507,507,507,507,507,507,507,507,505,471,438,387,309,132,54,8,8,8,8,8,8,8,8,8,8,8,8,8,10],"timestamp_mouse":[8,35,41,62,80,102,121,142,161,181,201,221,241,261,281,301,321,341,361,381,400,421,441,460,482,501,521,542,560,582,601,620,641,660,681,701,721,741,761,781,801,820,841,861,882,900,921,941,961,982,1000,1022,1040,1062,1081,1102,1122,1142,1162,1181,1200,1221,1241,1262,1282,1301,1322,1340,1360],"xSR":741.5,"ySR":469.95,"xT1":424.9,"yT1":0,"xT2":1058.1,"yT2":0,"toosoon":0,"cond_shown":"randomdotsizeEA","ratio_trial":900,"smaller_num":"9","larger_num":"10","correct_side":2,"subjID":"AndresValdiviesoCadena32","gender":"0","age":"11","school":"6"},{"start_time":1551900748856,"click_time":1551900749804,"finger_time":1551900749503,"fix_duration":790.5216735150033,"trial":39,"RT":647,"MT":301,"sideResp":1,"stimulus":"img/250/randomdotsizeEA/L/15_Ratio_250_L_12_R_3.png","xmouse":[823,823,823,823,823,823,823,823,823,823,823,823,823,823,823,823,823,823,823,823,823,823,823,823,823,823,823,823,823,823,820,779,738,695,660,637,609,597,588,577,573,563,557,551,543,531,509,501],"ymouse":[508,508,508,508,508,508,508,508,508,508,508,508,508,508,508,508,508,508,508,508,508,508,508,508,508,508,508,508,508,508,508,471,423,353,292,252,204,188,174,161,155,143,136,130,123,115,100,93],"timestamp_mouse":[21,42,47,68,88,108,128,149,169,188,208,227,249,267,288,309,328,348,367,388,408,429,448,467,488,508,529,547,568,589,607,629,647,668,688,707,727,747,768,788,808,828,848,869,888,907,928,948],"xSR":741.5,"ySR":469.95,"xT1":424.9,"yT1":0,"xT2":1058.1,"yT2":0,"toosoon":0,"cond_shown":"randomdotsizeEA","ratio_trial":250,"smaller_num":"3","larger_num":"12","correct_side":1,"subjID":"AndresValdiviesoCadena32","gender":"0","age":"11","school":"6"},{"start_time":1551900751460,"click_time":1551900752704,"finger_time":1551900752224,"fix_duration":814.3430343166455,"trial":40,"RT":764,"MT":480,"sideResp":2,"stimulus":"img/250/equaldotsize/R/6_Ratio_250_L_6_R_24.png","xmouse":[793,793,793,793,793,793,793,793,793,793,793,793,793,793,793,793,793,793,793,793,793,793,793,793,793,793,793,793,793,793,793,793,793,793,793,793,799,822,863,924,1041,1190,1248,1280,1297,1312,1315,1315,1315,1315,1315,1315,1315,1315,1315,1194,1184,1179,1177,1175,1172,1162,1153],"ymouse":[530,530,530,530,530,530,530,530,530,530,530,530,530,530,530,530,530,530,530,530,530,530,530,530,530,530,530,530,530,530,530,530,530,530,530,530,521,489,436,366,258,139,99,71,52,22,10,3,3,3,3,3,3,3,3,8,18,26,30,38,45,66,78],"timestamp_mouse":[8,25,45,64,83,103,124,143,164,184,204,225,243,265,283,304,323,345,364,384,404,423,444,465,485,505,523,545,565,585,603,625,645,664,684,705,724,743,764,784,803,823,844,865,884,905,923,943,964,984,1003,1024,1044,1065,1083,1105,1124,1143,1164,1185,1204,1224,1244],"xSR":741.5,"ySR":469.95,"xT1":424.9,"yT1":0,"xT2":1058.1,"yT2":0,"toosoon":0,"cond_shown":"equaldotsize","ratio_trial":250,"smaller_num":"6","larger_num":"24","correct_side":2,"subjID":"AndresValdiviesoCadena32","gender":"0","age":"11","school":"6"},{"start_time":1551900754064,"click_time":1551900755264,"finger_time":1551900754984,"fix_duration":618.7583321243519,"trial":41,"RT":920,"MT":280,"sideResp":2,"stimulus":"img/500/randomdotsizeEA/R/9_Ratio_500_L_2_R_4.png","xmouse":[806,806,806,806,806,806,806,806,806,806,806,806,806,806,806,806,806,806,806,806,806,806,806,806,806,806,806,806,806,806,806,806,806,806,806,806,806,806,806,806,806,806,806,806,811,818,874,916,953,985,1001,1004,1006,1008,1012,1021,1028,1034,1044,1051,1065],"ymouse":[493,493,493,493,493,493,493,493,493,493,493,493,493,493,493,493,493,493,493,493,493,493,493,493,493,493,493,493,493,493,493,493,493,493,493,493,493,493,493,493,493,493,493,493,485,474,401,353,312,278,254,244,231,215,192,141,119,101,82,73,55],"timestamp_mouse":[1,33,40,60,80,101,121,141,160,181,201,221,240,260,280,300,319,340,360,379,400,421,440,460,481,501,521,541,560,580,600,621,641,661,680,699,721,741,760,781,800,821,839,860,879,900,920,940,960,980,1001,1020,1041,1060,1079,1100,1120,1140,1160,1180,1200],"xSR":741.5,"ySR":469.95,"xT1":424.9,"yT1":0,"xT2":1058.1,"yT2":0,"toosoon":0,"cond_shown":"randomdotsizeEA","ratio_trial":500,"smaller_num":"2","larger_num":"4","correct_side":2,"subjID":"AndresValdiviesoCadena32","gender":"0","age":"11","school":"6"},{"start_time":1551900756989,"click_time":1551900758244,"finger_time":1551900757823,"fix_duration":943.857954675415,"trial":42,"RT":834,"MT":421,"sideResp":2,"stimulus":"img/250/equaldotanddens/R/10_Ratio_250_L_4_R_16.png","xmouse":[766,766,766,766,766,766,766,766,766,766,766,766,766,766,766,766,766,766,766,766,766,766,766,766,766,766,766,766,766,766,766,766,766,766,766,766,766,766,770,780,794,812,842,863,907,926,943,960,981,990,996,1002,1010,1023,1030,1037,1041,1045,1050,1053,1055,1058,1061],"ymouse":[506,506,506,506,506,506,506,506,506,506,506,506,506,506,506,506,506,506,506,506,506,506,506,506,506,506,506,506,506,506,506,506,506,506,506,506,506,506,502,489,472,456,425,404,347,312,277,239,188,168,151,138,120,90,77,67,61,58,56,55,55,55,55],"timestamp_mouse":[15,40,56,74,96,115,134,155,175,196,215,235,255,275,295,315,335,354,374,395,414,435,454,476,496,515,536,555,575,596,615,635,655,675,696,716,736,754,775,795,815,834,856,875,894,915,934,954,976,995,1016,1035,1054,1075,1095,1115,1135,1155,1176,1195,1214,1235,1255],"xSR":741.5,"ySR":469.95,"xT1":424.9,"yT1":0,"xT2":1058.1,"yT2":0,"toosoon":0,"cond_shown":"equaldotanddens","ratio_trial":250,"smaller_num":"4","larger_num":"16","correct_side":2,"subjID":"AndresValdiviesoCadena32","gender":"0","age":"11","school":"6"},{"start_time":1551900759613,"click_time":1551900760544,"finger_time":1551900760284,"fix_duration":747.5223032230923,"trial":43,"RT":671,"MT":260,"sideResp":2,"stimulus":"img/500/equaldotsize/R/2_Ratio_500_L_3_R_6.png","xmouse":[771,771,771,771,771,771,771,771,771,771,771,771,771,771,771,771,771,771,771,771,771,771,771,771,771,771,771,771,771,771,771,771,774,844,915,984,1052,1143,1163,1173,1178,1181,1182,1181,1174,1166,1156],"ymouse":[541,541,541,541,541,541,541,541,541,541,541,541,541,541,541,541,541,541,541,541,541,541,541,541,541,541,541,541,541,541,541,541,538,490,439,381,323,243,217,199,181,159,145,121,107,95,87],"timestamp_mouse":[10,34,52,72,90,111,131,151,170,191,211,230,251,271,292,311,331,351,371,391,412,430,450,471,491,512,532,551,571,592,612,630,651,671,692,711,730,752,771,792,811,830,851,871,891,911,931],"xSR":741.5,"ySR":469.95,"xT1":424.9,"yT1":0,"xT2":1058.1,"yT2":0,"toosoon":0,"cond_shown":"equaldotsize","ratio_trial":500,"smaller_num":"3","larger_num":"6","correct_side":2,"subjID":"AndresValdiviesoCadena32","gender":"0","age":"11","school":"6"},{"start_time":1551900762353,"click_time":1551900763184,"finger_time":1551900763085,"fix_duration":1066.1738669398387,"trial":44,"RT":732,"MT":99,"sideResp":1,"stimulus":"img/900/randomdotsizeEA/L/2_Ratio_900_L_20_R_18.png","xmouse":[812,812,812,812,812,812,812,812,812,812,812,812,812,812,812,812,812,812,812,812,812,812,812,812,812,812,812,812,812,812,812,812,812,812,812,811,772,732,676,618,541,522],"ymouse":[507,507,507,507,507,507,507,507,507,507,507,507,507,507,507,507,507,507,507,507,507,507,507,507,507,507,507,507,507,507,507,507,507,507,507,499,411,339,261,184,101,87],"timestamp_mouse":[15,32,50,71,91,110,131,150,171,192,211,231,251,272,290,312,331,351,371,392,412,432,450,471,490,511,532,550,572,591,610,632,650,672,690,711,732,752,771,790,812,830],"xSR":741.5,"ySR":469.95,"xT1":424.9,"yT1":0,"xT2":1058.1,"yT2":0,"toosoon":0,"cond_shown":"randomdotsizeEA","ratio_trial":900,"smaller_num":"18","larger_num":"20","correct_side":1,"subjID":"AndresValdiviesoCadena32","gender":"0","age":"11","school":"6"},{"start_time":1551900764616,"click_time":1551900765525,"finger_time":1551900765383,"fix_duration":512.2537517746891,"trial":45,"RT":767,"MT":142,"sideResp":1,"stimulus":"img/750/randomdotsizeEA/L/13_Ratio_750_L_8_R_6.png","xmouse":[791,791,791,791,791,791,791,791,791,791,791,791,791,791,791,791,791,791,791,791,791,791,791,791,791,791,791,791,791,791,791,791,791,791,791,791,791,791,791,786,767,734,612,567,532,512],"ymouse":[475,475,475,475,475,475,475,475,475,475,475,475,475,475,475,475,475,475,475,475,475,475,475,475,475,475,475,475,475,475,475,475,475,475,475,475,475,475,464,446,383,311,133,98,76,68],"timestamp_mouse":[9,29,51,68,89,108,128,149,168,188,207,229,249,268,288,308,328,348,368,389,407,429,448,468,489,507,529,548,567,589,609,628,648,667,689,707,728,748,767,787,808,829,848,868,887,909],"xSR":741.5,"ySR":469.95,"xT1":424.9,"yT1":0,"xT2":1058.1,"yT2":0,"toosoon":0,"cond_shown":"randomdotsizeEA","ratio_trial":750,"smaller_num":"6","larger_num":"8","correct_side":1,"subjID":"AndresValdiviesoCadena32","gender":"0","age":"11","school":"6"},{"start_time":1551900767771,"click_time":1551900768884,"finger_time":1551900768523,"fix_duration":944.4365974360543,"trial":46,"RT":752,"MT":361,"sideResp":1,"stimulus":"img/500/randomdotsizeEA/L/4_Ratio_500_L_18_R_9.png","xmouse":[752,752,752,752,752,752,752,752,752,752,752,752,752,752,752,752,752,752,752,752,752,752,752,752,752,752,752,752,752,752,752,752,752,752,752,752,750,741,720,612,550,550,550,550,550,550,550,550,550,550,550,550,550,550,550,483],"ymouse":[504,504,504,504,504,504,504,504,504,504,504,504,504,504,504,504,504,504,504,504,504,504,504,504,504,504,504,504,504,504,504,504,504,504,504,503,487,457,384,131,14,14,14,14,14,14,14,14,14,14,14,14,14,14,14,50],"timestamp_mouse":[13,33,53,74,93,113,133,154,172,194,212,234,254,274,292,312,334,353,374,393,414,432,453,472,494,513,533,552,573,593,613,633,654,673,694,713,733,752,773,794,813,833,853,873,894,913,934,954,974,994,1014,1033,1053,1073,1093,1113],"xSR":741.5,"ySR":469.95,"xT1":424.9,"yT1":0,"xT2":1058.1,"yT2":0,"toosoon":0,"cond_shown":"randomdotsizeEA","ratio_trial":500,"smaller_num":"9","larger_num":"18","correct_side":1,"subjID":"AndresValdiviesoCadena32","gender":"0","age":"11","school":"6"},{"start_time":1551900771029,"click_time":1551900772165,"finger_time":1551900771865,"fix_duration":1364.4027327621784,"trial":47,"RT":836,"MT":300,"sideResp":1,"stimulus":"img/750/randomdotsizeEA/L/6_Ratio_750_L_24_R_18.png","xmouse":[814,814,814,814,814,814,814,814,814,814,814,814,814,814,814,814,814,814,814,814,814,814,814,814,814,814,814,814,814,814,814,814,814,814,814,814,814,813,811,802,787,734,720,711,707,692,650,637,632,631,628,624,609,595,579,562,504],"ymouse":[542,542,542,542,542,542,542,542,542,542,542,542,542,542,542,542,542,542,542,542,542,542,542,542,542,542,542,542,542,542,542,542,542,542,542,542,542,542,535,511,472,351,323,308,302,299,283,268,249,234,221,213,189,175,163,143,95],"timestamp_mouse":[16,35,55,75,95,116,134,155,175,196,215,234,255,274,296,315,335,356,375,396,414,436,456,474,495,515,534,554,576,596,616,636,656,675,695,715,735,755,774,795,815,836,855,874,895,916,935,954,975,995,1014,1035,1055,1076,1095,1115,1136],"xSR":741.5,"ySR":469.95,"xT1":424.9,"yT1":0,"xT2":1058.1,"yT2":0,"toosoon":0,"cond_shown":"randomdotsizeEA","ratio_trial":750,"smaller_num":"18","larger_num":"24","correct_side":1,"subjID":"AndresValdiviesoCadena32","gender":"0","age":"11","school":"6"},{"start_time":1551900838931,"click_time":1551900839984,"finger_time":1551900839705,"fix_duration":785.8337094785649,"trial":48,"RT":774,"MT":279,"sideResp":1,"stimulus":"img/500/equaldotsize/L/13_Ratio_500_L_12_R_6.png","xmouse":[822,822,822,822,822,822,822,822,822,822,822,822,822,822,822,822,822,822,822,822,822,822,822,822,822,822,822,822,822,822,822,822,822,822,822,822,819,790,751,703,657,585,564,552,542,538,535,534,532,528,523,516,489],"ymouse":[518,518,518,518,518,518,518,518,518,518,518,518,518,518,518,518,518,518,518,518,518,518,518,518,518,518,518,518,518,518,518,518,518,518,518,518,516,486,457,415,368,271,237,214,193,185,181,178,176,168,158,141,76],"timestamp_mouse":[13,33,52,74,92,113,132,152,172,194,212,232,252,274,293,313,333,354,373,394,414,433,453,472,492,512,532,552,572,592,612,633,653,672,694,713,733,753,774,794,814,833,852,872,893,913,932,953,974,993,1013,1033,1053],"xSR":741.5,"ySR":469.95,"xT1":424.9,"yT1":0,"xT2":1058.1,"yT2":0,"toosoon":0,"cond_shown":"equaldotsize","ratio_trial":500,"smaller_num":"6","larger_num":"12","correct_side":1,"subjID":"AndresValdiviesoCadena32","gender":"0","age":"11","school":"6"},{"start_time":1551900842083,"click_time":1551900850064,"finger_time":1551900848685,"fix_duration":1217.2140830475662,"trial":49,"RT":6602,"MT":1379,"sideResp":1,"stimulus":"img/250/equaldotanddens/L/14_Ratio_250_L_12_R_3.png","xmouse":[792,792,792,792,792,792,792,792,792,792,792,792,792,792,792,792,792,792,792,792,792,792,792,792,792,792,792,792,792,792,792,792,792,792,792,792,792,792,792,792,792,792,792,792,792,792,792,792,792,792,792,792,792,792,792,792,792,792,792,792,792,792,792,792,792,792,792,792,792,792,792,792,792,792,792,792,792,792,792,792,792,792,792,792,792,792,792,792,792,792,792,792,792,792,792,792,792,792,792,792,792,792,792,792,792,792,792,792,792,792,792,792,792,792,792,792,792,792,792,792,792,792,792,792,792,792,792,792,792,792,792,792,792,792,792,792,792,792,792,792,792,792,792,792,792,792,792,792,792,792,792,792,792,792,792,792,792,792,792,792,792,792,792,792,792,792,792,792,792,792,792,792,792,792,792,792,792,792,792,792,792,792,792,792,792,792,792,792,792,792,792,792,792,792,792,792,792,792,792,792,792,792,792,792,792,792,792,792,792,792,792,792,792,792,792,792,792,792,792,792,792,792,792,792,792,792,792,792,792,792,792,792,792,792,792,792,792,792,792,792,792,792,792,792,792,792,792,792,792,792,792,792,792,792,792,792,792,792,792,792,792,792,792,792,792,792,792,792,792,792,792,792,792,792,792,792,792,792,792,792,792,792,792,792,792,792,792,792,792,792,792,792,792,792,792,792,792,792,792,792,792,792,792,792,792,792,792,792,792,792,792,792,792,792,792,792,792,792,792,792,792,792,792,792,792,792,792,792,792,792,430,430,430,430,430,430,430,430,430,430,430,430,430,430,430,430,430,430,430,430,430,430,430,430,430,430,430,431,447,468,474,477,479,480,480,480,480,480,480,480,480,480,480,480,480,480,482,485,489,500,505,509,512,513,515,515,515,518,526,547,553,555,555,553,547,544,541,535,529,524],"ymouse":[521,521,521,521,521,521,521,521,521,521,521,521,521,521,521,521,521,521,521,521,521,521,521,521,521,521,521,521,521,521,521,521,521,521,521,521,521,521,521,521,521,521,521,521,521,521,521,521,521,521,521,521,521,521,521,521,521,521,521,521,521,521,521,521,521,521,521,521,521,521,521,521,521,521,521,521,521,521,521,521,521,521,521,521,521,521,521,521,521,521,521,521,521,521,521,521,521,521,521,521,521,521,521,521,521,521,521,521,521,521,521,521,521,521,521,521,521,521,521,521,521,521,521,521,521,521,521,521,521,521,521,521,521,521,521,521,521,521,521,521,521,521,521,521,521,521,521,521,521,521,521,521,521,521,521,521,521,521,521,521,521,521,521,521,521,521,521,521,521,521,521,521,521,521,521,521,521,521,521,521,521,521,521,521,521,521,521,521,521,521,521,521,521,521,521,521,521,521,521,521,521,521,521,521,521,521,521,521,521,521,521,521,521,521,521,521,521,521,521,521,521,521,521,521,521,521,521,521,521,521,521,521,521,521,521,521,521,521,521,521,521,521,521,521,521,521,521,521,521,521,521,521,521,521,521,521,521,521,521,521,521,521,521,521,521,521,521,521,521,521,521,521,521,521,521,521,521,521,521,521,521,521,521,521,521,521,521,521,521,521,521,521,521,521,521,521,521,521,521,521,521,521,521,521,521,521,521,521,521,521,521,521,521,521,521,521,521,521,521,521,521,521,521,521,521,521,521,521,521,521,659,659,659,659,659,659,659,659,659,659,659,659,659,659,659,659,659,659,659,659,659,659,659,659,659,659,656,651,628,598,590,587,583,582,581,581,581,581,581,581,581,581,581,581,581,581,578,566,552,512,490,465,439,413,362,337,312,272,245,193,173,154,139,126,104,91,79,72,71,70],"timestamp_mouse":[8,21,42,60,80,102,120,141,162,181,202,221,241,261,282,300,322,340,360,381,401,420,442,462,481,501,520,540,560,581,600,621,642,661,681,702,721,741,761,782,801,822,841,860,882,900,922,942,961,980,1000,1020,1041,1060,1080,1101,1122,1141,1160,1182,1201,1220,1241,1261,1282,1302,1321,1341,1361,1380,1401,1420,1441,1462,1481,1501,1521,1541,1561,1580,1601,1622,1640,1660,1682,1702,1722,1740,1760,1781,1800,1820,1841,1863,1881,1901,1922,1941,1961,1981,2001,2021,2041,2060,2081,2101,2120,2141,2162,2180,2202,2221,2242,2261,2280,2301,2321,2341,2360,2380,2401,2422,2441,2461,2481,2502,2520,2542,2561,2581,2602,2621,2640,2661,2681,2701,2721,2740,2761,2780,2802,2821,2840,2861,2880,2902,2922,2941,2962,2981,3000,3021,3041,3061,3082,3100,3120,3140,3160,3180,3200,3221,3241,3261,3280,3301,3322,3341,3362,3381,3400,3420,3442,3461,3482,3501,3520,3542,3561,3582,3602,3620,3641,3662,3682,3701,3721,3741,3760,3782,3802,3820,3840,3860,3882,3901,3921,3942,3962,3981,4001,4020,4042,4061,4080,4102,4121,4142,4161,4182,4200,4220,4242,4261,4282,4301,4321,4341,4361,4381,4402,4421,4442,4460,4480,4500,4522,4541,4562,4581,4601,4621,4641,4660,4681,4702,4720,4740,4761,4780,4802,4821,4840,4862,4882,4902,4922,4941,4960,4981,5000,5020,5041,5062,5081,5101,5120,5142,5161,5182,5201,5220,5240,5260,5281,5301,5321,5341,5362,5381,5401,5421,5442,5462,5481,5501,5521,5542,5561,5582,5600,5620,5642,5661,5681,5702,5721,5740,5761,5782,5802,5822,5841,5862,5881,5902,5921,5941,5961,5981,6001,6022,6041,6062,6081,6101,6120,6141,6161,6182,6201,6221,6242,6261,6281,6302,6320,6342,6362,6381,6400,6420,6441,6460,6481,6502,6521,6541,6561,6581,6602,6621,6641,6660,6682,6700,6720,6741,6760,6781,6800,6820,6840,6860,6882,6901,6922,6941,6961,6981,7001,7021,7041,7061,7082,7102,7122,7141,7160,7181,7201,7221,7242,7261,7281,7302,7321,7341,7361,7381,7400,7421,7441,7461,7481,7500,7520,7540,7560,7581,7601,7621,7642,7661,7681,7701,7721,7741,7761,7780,7802,7821,7842,7862,7881,7900,7920,7941,7962,7981],"xSR":741.5,"ySR":469.95,"xT1":424.9,"yT1":0,"xT2":1058.1,"yT2":0,"toosoon":0,"cond_shown":"equaldotanddens","ratio_trial":250,"smaller_num":"3","larger_num":"12","correct_side":1,"subjID":"AndresValdiviesoCadena32","gender":"0","age":"11","school":"6"},{"start_time":1551900852276,"click_time":1551900853823,"finger_time":1551900852983,"fix_duration":1310.1503110157698,"trial":50,"RT":707,"MT":840,"sideResp":2,"stimulus":"img/250/equaldotsize/R/9_Ratio_250_L_3_R_12.png","xmouse":[778,778,778,778,778,778,778,778,778,778,778,778,778,778,778,778,778,778,778,778,778,778,778,778,778,778,778,778,778,778,778,778,788,797,829,895,912,921,926,944,954,965,975,983,992,995,997,999,1003,1006,1007,1007,1007,1007,1007,1007,1007,1007,1007,1007,1010,1012,1016,1021,1023,1026,1026,1026,1026,1026,1026,1026,1026,1027,1042,1068,1096,1133],"ymouse":[529,529,529,529,529,529,529,529,529,529,529,529,529,529,529,529,529,529,529,529,529,529,529,529,529,529,529,529,529,529,529,529,521,515,498,475,464,456,444,399,377,352,327,305,272,264,257,253,243,238,236,236,236,236,236,236,236,236,236,236,232,229,222,215,212,208,208,208,208,208,208,208,208,205,180,148,102,54],"timestamp_mouse":[11,41,47,67,89,108,127,147,167,187,208,227,248,267,287,307,328,347,367,389,409,429,447,468,489,507,528,549,568,588,607,627,648,667,687,707,728,747,767,789,807,828,849,868,887,908,929,948,968,988,1008,1028,1048,1069,1088,1107,1127,1147,1168,1187,1207,1227,1248,1268,1287,1308,1327,1348,1367,1388,1408,1428,1449,1469,1487,1508,1527,1547],"xSR":741.5,"ySR":469.95,"xT1":424.9,"yT1":0,"xT2":1058.1,"yT2":0,"toosoon":0,"cond_shown":"equaldotsize","ratio_trial":250,"smaller_num":"3","larger_num":"12","correct_side":2,"subjID":"AndresValdiviesoCadena32","gender":"0","age":"11","school":"6"},{"start_time":1551900896125,"click_time":1551900897044,"finger_time":1551900896763,"fix_duration":1260.3274187345783,"trial":51,"RT":638,"MT":281,"sideResp":1,"stimulus":"img/250/equaldotanddens/L/1_Ratio_250_L_8_R_2.png","xmouse":[772,772,772,772,772,772,772,772,772,772,772,772,772,772,772,772,772,772,772,772,772,772,772,772,772,772,772,772,772,760,744,720,681,660,656,650,647,646,642,632,614,590,579,554,542,512],"ymouse":[539,539,539,539,539,539,539,539,539,539,539,539,539,539,539,539,539,539,539,539,539,539,539,539,539,539,539,539,533,512,484,444,375,347,344,338,338,338,336,330,315,274,245,180,149,85],"timestamp_mouse":[18,39,59,78,100,118,138,160,179,200,218,239,260,280,299,319,338,360,380,398,419,439,459,480,498,520,538,558,580,599,620,638,658,680,699,719,738,758,779,798,820,839,858,879,898,918],"xSR":741.5,"ySR":469.95,"xT1":424.9,"yT1":0,"xT2":1058.1,"yT2":0,"toosoon":0,"cond_shown":"equaldotanddens","ratio_trial":250,"smaller_num":"2","larger_num":"8","correct_side":1,"subjID":"AndresValdiviesoCadena32","gender":"0","age":"11","school":"6"},{"start_time":1551900898632,"click_time":1551900900444,"finger_time":1551900899385,"fix_duration":346.9221357061658,"trial":52,"RT":753,"MT":1059,"sideResp":2,"stimulus":"img/750/randomdotsizeEA/R/2_Ratio_750_L_6_R_8.png","xmouse":[831,831,831,831,831,831,831,831,831,831,831,831,831,831,831,831,831,831,831,831,831,831,831,831,831,831,831,831,831,831,831,831,828,820,811,805,799,793,789,787,781,765,757,746,739,731,724,720,716,713,704,690,681,673,663,655,636,623,610,600,586,571,564,558,553,551,550,550,550,550,550,565,590,626,667,701,741,754,766,786,804,846,874,903,927,946,973,989,1010,1034,1070],"ymouse":[512,512,512,512,512,512,512,512,512,512,512,512,512,512,512,512,512,512,512,512,512,512,512,512,512,512,512,512,512,512,512,512,512,502,489,482,476,469,465,462,456,441,434,425,418,411,402,397,390,381,362,337,321,308,295,282,255,240,222,206,181,148,130,116,105,100,98,98,98,98,98,98,99,105,110,112,114,114,114,112,106,98,94,94,94,94,94,94,94,94,92],"timestamp_mouse":[12,32,53,72,93,112,131,152,171,191,211,232,253,272,292,312,332,351,372,392,411,431,453,473,492,512,533,553,572,592,612,633,652,672,693,712,731,753,772,791,811,832,851,872,892,911,931,951,972,991,1012,1032,1051,1072,1093,1113,1132,1151,1172,1192,1211,1232,1252,1272,1292,1311,1333,1353,1372,1393,1411,1431,1451,1472,1492,1512,1531,1551,1572,1591,1612,1632,1651,1672,1692,1712,1732,1751,1772,1791,1811],"xSR":741.5,"ySR":469.95,"xT1":424.9,"yT1":0,"xT2":1058.1,"yT2":0,"toosoon":0,"cond_shown":"randomdotsizeEA","ratio_trial":750,"smaller_num":"6","larger_num":"8","correct_side":2,"subjID":"AndresValdiviesoCadena32","gender":"0","age":"11","school":"6"},{"start_time":1551900909720,"click_time":1551900910764,"finger_time":1551900910443,"fix_duration":1014.3528679822116,"trial":53,"RT":723,"MT":321,"sideResp":2,"stimulus":"img/250/equaldotsize/R/10_Ratio_250_L_4_R_16.png","xmouse":[802,802,802,802,802,802,802,802,802,802,802,802,802,802,802,802,802,802,802,802,802,802,802,802,802,802,802,802,802,802,802,802,802,801,802,819,854,875,884,896,910,923,948,957,963,968,972,990,1006,1022,1041,1061,1091],"ymouse":[508,508,508,508,508,508,508,508,508,508,508,508,508,508,508,508,508,508,508,508,508,508,508,508,508,508,508,508,508,508,508,508,508,508,503,483,442,399,378,359,337,314,265,251,243,235,228,204,183,167,145,125,95],"timestamp_mouse":[4,24,43,63,84,104,123,144,164,183,204,223,243,264,285,303,323,345,364,383,404,423,445,463,484,504,523,543,563,584,605,624,643,664,685,704,723,745,763,783,804,823,843,863,883,905,923,944,964,983,1005,1024,1044],"xSR":741.5,"ySR":469.95,"xT1":424.9,"yT1":0,"xT2":1058.1,"yT2":0,"toosoon":0,"cond_shown":"equaldotsize","ratio_trial":250,"smaller_num":"4","larger_num":"16","correct_side":2,"subjID":"AndresValdiviesoCadena32","gender":"0","age":"11","school":"6"},{"start_time":1551900911755,"click_time":1551900912825,"finger_time":1551900912463,"fix_duration":250,"trial":54,"RT":708,"MT":362,"sideResp":1,"stimulus":"img/250/equaldotanddens/L/14_Ratio_250_L_12_R_3.png","xmouse":[796,796,796,796,796,796,796,796,796,796,796,796,796,796,796,796,796,796,796,796,796,796,796,796,796,796,796,796,796,796,796,796,796,794,788,731,696,657,626,601,581,578,576,573,567,557,549,540,532,526,519,499,478,472],"ymouse":[488,488,488,488,488,488,488,488,488,488,488,488,488,488,488,488,488,488,488,488,488,488,488,488,488,488,488,488,488,488,488,488,488,488,478,406,356,292,243,210,182,177,174,171,165,159,154,146,140,135,130,117,102,97],"timestamp_mouse":[9,29,48,69,88,109,129,150,169,190,208,228,249,269,288,309,329,350,370,389,408,429,449,470,488,509,529,548,570,588,608,630,648,669,689,708,728,750,769,789,809,830,848,869,889,909,928,949,970,989,1009,1028,1048,1070],"xSR":741.5,"ySR":469.95,"xT1":424.9,"yT1":0,"xT2":1058.1,"yT2":0,"toosoon":0,"cond_shown":"equaldotanddens","ratio_trial":250,"smaller_num":"3","larger_num":"12","correct_side":1,"subjID":"AndresValdiviesoCadena32","gender":"0","age":"11","school":"6"},{"start_time":1551900913804,"click_time":1551900915583,"finger_time":1551900914964,"fix_duration":418.08878686249574,"trial":55,"RT":1160,"MT":619,"sideResp":1,"stimulus":"img/900/randomdotsizeEA/L/2_Ratio_900_L_20_R_18.png","xmouse":[793,793,793,793,793,793,793,793,793,793,793,793,793,793,793,793,793,793,793,793,793,793,793,793,793,793,793,793,793,793,793,793,793,793,793,793,794,794,795,795,795,795,796,797,797,797,797,797,797,797,797,797,797,798,800,805,812,829,883,910,928,942,960,964,964,964,964,964,964,964,964,953,929,896,813,780,757,741,709,694,679,664,641,604,583,564,538,508,482,455],"ymouse":[553,553,553,553,553,553,553,553,553,552,551,551,551,551,551,551,551,551,551,551,551,551,551,551,551,551,551,551,551,551,550,550,550,549,549,547,545,544,541,540,539,538,536,534,528,524,521,518,514,513,512,511,510,509,506,500,494,482,436,402,372,351,332,328,328,328,328,328,328,328,328,326,323,318,305,299,295,291,281,277,272,266,249,218,198,179,157,134,114,89],"timestamp_mouse":[1,29,39,61,80,100,120,140,159,180,200,220,240,260,279,300,319,339,360,380,399,419,439,459,480,499,520,540,559,581,599,619,639,660,680,700,720,739,760,779,800,820,840,859,880,899,920,940,960,980,999,1020,1040,1059,1080,1101,1120,1140,1160,1179,1200,1221,1239,1260,1280,1300,1320,1339,1361,1379,1400,1420,1439,1460,1479,1499,1520,1540,1560,1579,1600,1621,1640,1660,1679,1700,1721,1740,1759,1779],"xSR":741.5,"ySR":469.95,"xT1":424.9,"yT1":0,"xT2":1058.1,"yT2":0,"toosoon":0,"cond_shown":"randomdotsizeEA","ratio_trial":900,"smaller_num":"18","larger_num":"20","correct_side":1,"subjID":"AndresValdiviesoCadena32","gender":"0","age":"11","school":"6"},{"start_time":1551900921228,"click_time":1551900922324,"finger_time":1551900921925,"fix_duration":1483.0963032020934,"trial":56,"RT":697,"MT":399,"sideResp":2,"stimulus":"img/500/equaldotsize/R/15_Ratio_500_L_1_R_2.png","xmouse":[794,794,794,794,794,794,794,794,794,794,794,794,794,794,794,794,794,794,794,794,794,794,794,794,794,794,794,794,794,794,794,794,796,810,832,855,881,919,971,988,1035,1057,1078,1082,1083,1085,1091,1095,1096,1097,1097,1097,1098,1102,1106],"ymouse":[516,516,516,516,516,516,516,516,516,516,516,516,516,516,516,516,516,516,516,516,516,516,516,516,516,516,516,516,516,516,516,516,504,482,453,420,383,331,288,277,241,221,196,189,185,181,169,160,155,148,145,132,123,109,96],"timestamp_mouse":[16,38,56,76,96,116,135,157,175,197,217,235,257,276,295,316,336,357,376,396,415,437,455,477,495,515,537,555,576,595,615,637,656,677,697,716,737,755,775,796,817,836,856,875,896,917,936,955,976,996,1016,1035,1055,1076,1096],"xSR":741.5,"ySR":469.95,"xT1":424.9,"yT1":0,"xT2":1058.1,"yT2":0,"toosoon":0,"cond_shown":"equaldotsize","ratio_trial":500,"smaller_num":"1","larger_num":"2","correct_side":2,"subjID":"AndresValdiviesoCadena32","gender":"0","age":"11","school":"6"},{"start_time":1551900924192,"click_time":1551900925624,"finger_time":1551900925184,"fix_duration":1306.1668551948592,"trial":57,"RT":992,"MT":440,"sideResp":1,"stimulus":"img/750/randomdotsizeEA/L/13_Ratio_750_L_8_R_6.png","xmouse":[811,811,811,811,811,811,811,811,811,811,811,811,811,811,811,811,811,811,811,811,811,811,811,811,811,811,811,811,811,811,811,811,811,811,811,811,811,811,811,811,811,811,811,811,810,810,808,805,800,785,775,765,743,713,697,686,674,663,651,646,636,620,609,583,575,570,562,554,532,526,520,515],"ymouse":[542,542,542,542,542,542,542,542,542,542,542,542,542,542,542,542,542,542,542,542,542,542,542,542,542,542,542,542,542,542,542,542,542,542,542,542,542,542,542,542,542,542,542,541,533,529,523,513,497,457,435,411,355,254,209,186,168,153,142,139,136,131,126,115,112,110,109,108,103,103,100,99],"timestamp_mouse":[12,39,53,71,93,113,132,152,171,193,212,231,252,271,292,311,331,351,372,392,411,432,451,472,492,512,531,552,573,592,612,631,653,671,691,712,731,753,771,791,812,831,853,871,892,912,931,952,971,992,1012,1033,1053,1072,1091,1112,1132,1152,1171,1191,1212,1231,1252,1271,1291,1311,1332,1353,1371,1391,1412,1432],"xSR":741.5,"ySR":469.95,"xT1":424.9,"yT1":0,"xT2":1058.1,"yT2":0,"toosoon":0,"cond_shown":"randomdotsizeEA","ratio_trial":750,"smaller_num":"6","larger_num":"8","correct_side":1,"subjID":"AndresValdiviesoCadena32","gender":"0","age":"11","school":"6"},{"start_time":1551900949025,"click_time":1551900951225,"finger_time":1551900950004,"fix_duration":840.096415431047,"trial":58,"RT":979,"MT":1221,"sideResp":1,"stimulus":"img/900/equaldotanddens/L/1_Ratio_900_L_10_R_9.png","xmouse":[776,776,776,776,776,776,776,776,776,776,776,776,776,776,776,776,776,776,776,776,776,776,776,776,776,776,776,776,776,776,776,776,776,776,776,776,776,776,776,776,776,776,776,776,776,776,776,775,771,759,741,733,727,725,724,724,724,724,725,731,742,756,763,771,778,786,790,790,789,788,787,779,773,766,755,740,705,689,682,677,675,675,675,675,675,675,675,675,675,675,675,672,668,664,660,656,652,649,648,641,636,620,612,603,595,585,564,554,540,519],"ymouse":[488,488,488,488,488,488,488,488,488,488,488,488,488,488,488,488,488,488,488,488,488,488,488,488,488,488,488,488,488,488,488,488,488,488,488,488,488,488,488,488,488,488,488,488,488,488,488,483,464,439,417,410,406,405,404,400,390,381,369,350,316,267,241,214,186,160,126,119,116,114,113,112,111,111,111,110,103,99,96,94,93,93,93,93,93,93,93,93,93,93,93,92,91,91,91,90,89,88,88,86,85,80,77,74,72,69,63,61,58,55],"timestamp_mouse":[18,38,60,80,99,119,138,158,180,200,218,240,260,279,300,319,339,359,378,399,419,438,459,479,500,518,538,559,580,598,619,640,659,678,700,718,738,760,778,798,818,838,859,880,899,920,940,958,979,1000,1020,1039,1059,1078,1098,1119,1139,1158,1180,1200,1220,1239,1258,1278,1298,1319,1339,1359,1379,1400,1418,1439,1459,1478,1499,1520,1540,1560,1579,1600,1619,1638,1659,1680,1699,1719,1738,1758,1778,1799,1819,1840,1858,1879,1899,1919,1939,1958,1979,1999,2018,2038,2059,2079,2099,2118,2138,2158,2179,2200],"xSR":741.5,"ySR":469.95,"xT1":424.9,"yT1":0,"xT2":1058.1,"yT2":0,"toosoon":0,"cond_shown":"equaldotanddens","ratio_trial":900,"smaller_num":"9","larger_num":"10","correct_side":1,"subjID":"AndresValdiviesoCadena32","gender":"0","age":"11","school":"6"},{"start_time":1551900962916,"click_time":1551900964043,"finger_time":1551900963623,"fix_duration":250,"trial":59,"RT":707,"MT":420,"sideResp":1,"stimulus":"img/500/equaldotanddens/L/4_Ratio_500_L_18_R_9.png","xmouse":[796,796,796,796,796,796,796,796,796,796,796,796,796,796,796,796,796,796,796,796,796,796,796,796,796,796,796,796,796,796,796,796,795,788,762,744,688,649,596,573,562,557,553,550,543,538,531,529,529,529,529,529,529,529,528,527,521],"ymouse":[531,531,531,531,531,531,531,531,531,531,531,531,531,531,531,531,531,531,531,531,531,531,531,531,531,531,531,531,531,531,531,531,531,516,475,455,414,385,330,295,274,255,220,200,168,133,72,23,14,14,14,14,14,14,15,20,34],"timestamp_mouse":[8,38,47,67,89,108,128,148,167,187,208,229,247,267,288,307,327,349,369,388,409,427,447,468,487,507,527,547,567,588,607,627,648,667,687,707,727,748,768,788,807,827,847,869,887,908,927,947,969,987,1007,1028,1048,1069,1088,1107,1127],"xSR":741.5,"ySR":469.95,"xT1":424.9,"yT1":0,"xT2":1058.1,"yT2":0,"toosoon":0,"cond_shown":"equaldotanddens","ratio_trial":500,"smaller_num":"9","larger_num":"18","correct_side":1,"subjID":"AndresValdiviesoCadena32","gender":"0","age":"11","school":"6"},{"start_time":1551900966974,"click_time":1551900968424,"finger_time":1551900967883,"fix_duration":628.1665717371586,"trial":60,"RT":909,"MT":541,"sideResp":1,"stimulus":"img/750/randomdotsizeEA/R/5_Ratio_750_L_15_R_20.png","xmouse":[785,785,785,785,785,785,785,785,785,785,785,785,785,785,785,785,785,785,785,785,785,785,785,785,785,785,785,785,785,785,785,785,785,785,785,785,785,785,785,785,785,785,786,792,796,799,800,801,791,775,756,733,699,657,645,636,631,624,619,617,616,613,610,601,589,575,564,558,549,543,532,518],"ymouse":[515,515,515,515,515,515,515,515,515,515,515,515,515,515,515,515,515,515,515,515,515,515,515,515,515,515,515,515,515,515,515,515,515,515,515,515,515,515,515,515,511,506,502,480,469,459,448,434,397,373,349,325,295,244,222,201,182,160,130,116,103,88,83,78,76,74,72,71,71,71,71,71],"timestamp_mouse":[29,49,70,90,109,130,150,169,190,209,230,249,269,291,309,329,349,369,389,410,430,449,470,489,509,530,549,569,590,609,629,650,670,691,709,730,751,771,789,809,829,850,869,890,909,929,950,970,989,1009,1031,1049,1070,1090,1109,1130,1150,1170,1189,1210,1231,1251,1270,1290,1309,1330,1350,1369,1389,1409,1430,1450],"xSR":741.5,"ySR":469.95,"xT1":424.9,"yT1":0,"xT2":1058.1,"yT2":0,"toosoon":0,"cond_shown":"randomdotsizeEA","ratio_trial":750,"smaller_num":"15","larger_num":"20","correct_side":2,"subjID":"AndresValdiviesoCadena32","gender":"0","age":"11","school":"6"},{"start_time":1551900970999,"click_time":1551900971985,"finger_time":1551900971743,"fix_duration":294.71765917096104,"trial":61,"RT":744,"MT":242,"sideResp":2,"stimulus":"img/900/randomdotsizeEA/R/7_Ratio_900_L_9_R_10.png","xmouse":[802,802,802,802,802,802,802,802,802,802,802,802,802,802,802,802,802,802,802,802,802,802,802,802,802,802,802,802,802,802,802,802,802,802,802,805,826,867,981,1006,1013,1017,1017,1019,1021,1024,1029,1038,1070,1093],"ymouse":[552,552,552,552,552,552,552,552,552,552,552,552,552,552,552,552,552,552,552,551,551,551,551,551,551,551,551,551,551,551,551,551,551,551,549,534,498,436,319,295,285,276,273,253,238,219,200,176,124,97],"timestamp_mouse":[9,32,45,64,84,104,126,144,165,186,204,226,244,265,284,304,325,344,364,385,405,425,445,464,485,505,524,545,564,584,604,625,645,664,684,706,725,744,764,784,804,826,845,864,884,904,925,944,966,986],"xSR":741.5,"ySR":469.95,"xT1":424.9,"yT1":0,"xT2":1058.1,"yT2":0,"toosoon":0,"cond_shown":"randomdotsizeEA","ratio_trial":900,"smaller_num":"9","larger_num":"10","correct_side":2,"subjID":"AndresValdiviesoCadena32","gender":"0","age":"11","school":"6"},{"start_time":1551900973935,"click_time":1551900975164,"finger_time":1551900974743,"fix_duration":1270.8882374274197,"trial":62,"RT":808,"MT":421,"sideResp":1,"stimulus":"img/900/randomdotsizeEA/L/10_Ratio_900_L_20_R_18.png","xmouse":[763,763,763,763,763,763,763,763,763,763,763,763,763,763,763,763,763,763,763,763,763,763,763,763,763,763,763,763,763,763,763,763,763,763,763,763,763,763,762,752,728,659,626,592,585,579,560,547,541,538,538,538,538,538,538,538,538,538,538,538,536,520],"ymouse":[535,535,535,535,535,535,535,535,535,535,535,535,535,535,535,535,535,535,535,535,535,535,535,535,535,535,535,535,535,535,535,535,535,535,535,5