[{"start_time":1551899631782,"click_time":1551899633886,"finger_time":1551899633365,"fix_duration":952.2814542640467,"trial":0,"RT":1583,"MT":521,"sideResp":1,"stimulus":[],"xmouse":[799,799,799,799,799,799,799,799,799,799,799,799,799,799,799,799,799,799,799,799,799,799,799,799,799,799,799,799,799,799,799,799,799,799,799,799,799,799,799,799,799,799,799,799,799,799,799,799,799,799,799,799,799,799,799,799,799,799,799,799,799,799,799,799,799,799,799,799,799,799,799,799,798,798,794,789,778,766,743,685,646,617,598,581,575,567,564,559,553,550,550,554,566,576,582,582,583,583,583,583,583,581,571,547,491],"ymouse":[561,561,561,561,561,561,561,561,561,561,561,561,561,561,561,561,561,561,561,561,561,561,561,561,561,561,561,561,561,561,561,561,561,561,561,561,561,561,561,561,561,561,561,561,561,561,561,561,561,558,557,556,555,555,555,555,555,555,554,553,552,552,551,551,551,551,551,551,550,549,549,547,544,543,530,520,504,488,462,396,351,320,306,291,286,277,273,265,248,236,229,222,189,165,137,135,134,133,133,132,132,129,122,109,89],"timestamp_mouse":[9,52,64,85,104,123,144,163,184,204,223,243,265,284,304,323,343,364,383,403,424,445,464,485,505,523,543,563,583,604,624,645,664,684,703,724,744,764,784,803,824,844,863,885,904,924,944,963,984,1003,1023,1043,1064,1084,1103,1123,1143,1163,1183,1205,1225,1243,1264,1283,1304,1324,1344,1365,1383,1404,1424,1444,1463,1483,1503,1524,1543,1564,1583,1604,1623,1643,1663,1683,1703,1723,1743,1763,1783,1803,1824,1844,1863,1883,1904,1923,1944,1963,1983,2004,2023,2043,2063,2084,2104],"xSR":741.5,"ySR":501.8,"xT1":424.9,"yT1":0,"xT2":1058.1,"yT2":0,"toosoon":0,"cond_shown":"Congruent","ratio_trial":200,"L_num":12,"L_den":15,"R_num":6,"R_den":10,"correct_side":1,"subjID":"saraladino19","gender":"1","age":"No_ag","school":"6","test":{"fix_dur":[250,1500],"timestim":1000,"targets_dim":[100,100],"targets_relative_coord":[0.3,0.7],"size_stim":[880,420],"start_dim":[100,100],"size_start":[300,300],"size_fix":60,"samplingrate":20,"img_types":["Congruent","Incongruent"],"ratios":[100,200,300],"rep_conds":19,"nTrials":120,"trials_to_rest":500,"Trials_order":[104,41,117,52,64,14,12,61,50,0,6,22,76,96,5,7,113,38,100,78,80,47,86,2,19,29,65,28,15,51,56,106,71,13,54,36,105,18,75,25,85,95,27,116,9,43,10,97,77,1,46,34,31,111,72,118,32,68,57,98,39,91,70,94,81,74,21,35,103,108,114,73,63,53,11,99,89,102,59,87,24,115,8,112,26,67,101,20,60,45,62,93,58,49,55,40,44,109,66,119,88,30,23,69,42,3,33,17,48,90,16,110,107,4,82,84,37,92,83,79],"cond_shown":["Congruent","Incongruent","Incongruent","Congruent","Congruent","Congruent","Congruent","Incongruent","Congruent","Congruent","Congruent","Congruent","Congruent","Congruent","Incongruent","Incongruent","Incongruent","Congruent","Congruent","Congruent","Congruent","Incongruent","Congruent","Congruent","Incongruent","Incongruent","Incongruent","Congruent","Incongruent","Incongruent","Congruent","Congruent","Incongruent","Incongruent","Congruent","Congruent","Incongruent","Congruent","Incongruent","Incongruent","Incongruent","Incongruent","Incongruent","Congruent","Incongruent","Incongruent","Congruent","Incongruent","Incongruent","Incongruent","Congruent","Congruent","Incongruent","Incongruent","Congruent","Congruent","Congruent","Congruent","Incongruent","Congruent","Incongruent","Incongruent","Congruent","Congruent","Incongruent","Congruent","Incongruent","Incongruent","Incongruent","Congruent","Congruent","Incongruent","Incongruent","Incongruent","Incongruent","Incongruent","Incongruent","Congruent","Incongruent","Incongruent","Congruent","Incongruent","Congruent","Congruent","Congruent","Incongruent","Incongruent","Congruent","Congruent","Incongruent","Congruent","Incongruent","Congruent","Incongruent","Incongruent","Congruent","Congruent","Incongruent","Congruent","Incongruent","Congruent","Congruent","Incongruent","Incongruent","Congruent","Incongruent","Incongruent","Incongruent","Congruent","Congruent","Congruent","Congruent","Incongruent","Congruent","Congruent","Congruent","Incongruent","Congruent","Incongruent","Incongruent"],"ratio_trial":[200,300,200,300,300,200,100,100,200,100,100,300,300,100,300,100,300,200,300,100,200,300,200,200,100,300,300,300,200,200,200,300,300,100,100,100,200,100,200,100,100,300,200,200,200,100,300,100,300,100,300,300,100,200,100,300,200,200,200,200,200,100,300,300,200,200,200,300,100,100,100,100,200,300,300,200,300,100,300,200,100,100,200,300,200,100,300,200,100,200,200,200,300,100,100,300,200,100,100,300,300,100,300,200,100,200,200,300,100,100,300,200,300,300,300,100,100,200,300,100],"left_num":[12,13,14,12,1,6,7,13,4,11,3,1,3,6,8,8,4,3,3,4,9,13,20,6,12,1,13,11,7,4,5,5,4,2,9,6,4,7,7,13,2,4,4,5,7,2,20,3,4,13,20,3,2,7,1,11,3,16,7,5,14,10,2,11,7,1,14,13,1,11,6,3,11,7,13,4,8,12,7,4,4,10,9,2,3,4,1,6,1,1,16,4,11,6,6,11,4,10,11,1,5,3,4,3,9,1,3,7,8,2,1,7,8,3,11,11,11,3,13,17],"right_num":[6,12,12,2,3,7,15,12,3,4,2,3,4,5,14,1,8,14,4,15,13,12,9,7,2,2,12,4,4,14,14,6,2,6,8,5,14,15,4,12,6,2,6,14,4,8,8,4,8,6,9,11,6,6,18,1,14,12,12,14,6,9,10,1,4,21,6,12,8,4,15,8,3,8,12,6,14,13,8,6,6,8,13,12,14,8,2,3,18,2,9,14,4,3,3,4,3,9,6,3,6,4,2,1,8,2,11,8,2,11,8,18,9,11,4,4,9,7,12,10],"left_den":[15,26,30,24,5,12,14,26,8,22,6,5,6,20,10,20,5,10,6,10,30,26,25,12,30,2,26,22,15,6,10,25,20,4,15,20,6,14,15,26,4,20,5,10,15,4,25,6,5,26,25,12,4,15,2,22,6,20,10,10,30,25,20,22,15,2,30,26,2,22,12,5,20,10,26,5,10,30,10,5,8,25,30,10,10,8,2,15,2,3,30,6,22,12,12,22,10,25,22,2,25,20,20,10,15,3,4,10,16,5,30,15,10,12,22,22,22,10,26,30],"right_den":[10,15,18,10,6,10,25,20,10,10,5,6,5,25,28,2,16,28,5,30,26,15,15,10,4,10,15,20,6,30,20,12,4,15,16,25,30,25,6,20,15,4,10,20,6,20,16,10,16,10,18,20,15,9,30,5,20,20,24,20,9,18,25,5,6,30,9,15,20,10,25,16,4,20,15,10,28,26,20,10,10,16,26,24,28,20,10,15,30,15,27,30,20,5,5,20,15,18,15,15,12,16,4,2,16,15,20,20,5,22,24,27,18,20,20,10,15,14,15,15],"correct_side":[1,2,2,1,2,2,2,2,1,1,1,2,2,1,1,2,1,2,2,2,2,2,1,2,2,1,2,1,2,1,2,2,2,1,1,1,1,2,2,2,1,2,1,2,2,1,1,1,1,2,1,2,1,2,2,1,2,1,1,2,2,2,2,1,2,2,2,2,1,1,2,1,2,1,2,1,1,2,1,1,2,2,2,2,2,1,1,1,2,1,1,1,1,2,2,1,1,2,1,1,2,2,2,2,1,1,1,1,1,2,2,2,1,2,1,1,2,2,2,2],"img_shown":["img2/200/Congruent/L/C_Dist_200_LN_12_LD_15_RN_6_RD_10_0.png","img2/300/Incongruent/R/I_Dist_300_LN_13_LD_26_RN_12_RD_15_1.png","img2/200/Incongruent/R/I_Dist_200_LN_14_LD_30_RN_12_RD_18_1.png","img2/300/Congruent/L/C_Dist_300_LN_12_LD_24_RN_2_RD_10_0.png","img2/300/Congruent/R/C_Dist_300_LN_1_LD_5_RN_3_RD_6_1.png","img2/200/Congruent/R/C_Dist_200_LN_6_LD_12_RN_7_RD_10_1.png","img2/100/Congruent/R/C_Dist_100_LN_7_LD_14_RN_15_RD_25_1.png","img2/100/Incongruent/R/I_Dist_100_LN_13_LD_26_RN_12_RD_20_1.png","img2/200/Congruent/L/C_Dist_200_LN_4_LD_8_RN_3_RD_10_0.png","img2/100/Congruent/L/C_Dist_100_LN_11_LD_22_RN_4_RD_10_0.png","img2/100/Congruent/L/C_Dist_100_LN_3_LD_6_RN_2_RD_5_0.png","img2/300/Congruent/R/C_Dist_300_LN_1_LD_5_RN_3_RD_6_1.png","img2/300/Congruent/R/C_Dist_300_LN_3_LD_6_RN_4_RD_5_1.png","img2/100/Congruent/L/C_Dist_100_LN_6_LD_20_RN_5_RD_25_0.png","img2/300/Incongruent/L/I_Dist_300_LN_8_LD_10_RN_14_RD_28_0.png","img2/100/Incongruent/R/I_Dist_100_LN_8_LD_20_RN_1_RD_2_1.png","img2/300/Incongruent/L/I_Dist_300_LN_4_LD_5_RN_8_RD_16_0.png","img2/200/Congruent/R/C_Dist_200_LN_3_LD_10_RN_14_RD_28_1.png","img2/300/Congruent/R/C_Dist_300_LN_3_LD_6_RN_4_RD_5_1.png","img2/100/Congruent/R/C_Dist_100_LN_4_LD_10_RN_15_RD_30_1.png","img2/200/Congruent/R/C_Dist_200_LN_9_LD_30_RN_13_RD_26_1.png","img2/300/Incongruent/R/I_Dist_300_LN_13_LD_26_RN_12_RD_15_1.png","img2/200/Congruent/L/C_Dist_200_LN_20_LD_25_RN_9_RD_15_0.png","img2/200/Congruent/R/C_Dist_200_LN_6_LD_12_RN_7_RD_10_1.png","img2/100/Incongruent/R/I_Dist_100_LN_12_LD_30_RN_2_RD_4_1.png","img2/300/Incongruent/L/I_Dist_300_LN_1_LD_2_RN_2_RD_10_0.png","img2/300/Incongruent/R/I_Dist_300_LN_13_LD_26_RN_12_RD_15_1.png","img2/300/Congruent/L/C_Dist_300_LN_11_LD_22_RN_4_RD_20_0.png","img2/200/Incongruent/R/I_Dist_200_LN_7_LD_15_RN_4_RD_6_1.png","img2/200/Incongruent/L/I_Dist_200_LN_4_LD_6_RN_14_RD_30_0.png","img2/200/Congruent/R/C_Dist_200_LN_5_LD_10_RN_14_RD_20_1.png","img2/300/Congruent/R/C_Dist_300_LN_5_LD_25_RN_6_RD_12_1.png","img2/300/Incongruent/R/I_Dist_300_LN_4_LD_20_RN_2_RD_4_1.png","img2/100/Incongruent/L/I_Dist_100_LN_2_LD_4_RN_6_RD_15_0.png","img2/100/Congruent/L/C_Dist_100_LN_9_LD_15_RN_8_RD_16_0.png","img2/100/Congruent/L/C_Dist_100_LN_6_LD_20_RN_5_RD_25_0.png","img2/200/Incongruent/L/I_Dist_200_LN_4_LD_6_RN_14_RD_30_0.png","img2/100/Congruent/R/C_Dist_100_LN_7_LD_14_RN_15_RD_25_1.png","img2/200/Incongruent/R/I_Dist_200_LN_7_LD_15_RN_4_RD_6_1.png","img2/100/Incongruent/R/I_Dist_100_LN_13_LD_26_RN_12_RD_20_1.png","img2/100/Incongruent/L/I_Dist_100_LN_2_LD_4_RN_6_RD_15_0.png","img2/300/Incongruent/R/I_Dist_300_LN_4_LD_20_RN_2_RD_4_1.png","img2/200/Incongruent/L/I_Dist_200_LN_4_LD_5_RN_6_RD_10_0.png","img2/200/Congruent/R/C_Dist_200_LN_5_LD_10_RN_14_RD_20_1.png","img2/200/Incongruent/R/I_Dist_200_LN_7_LD_15_RN_4_RD_6_1.png","img2/100/Incongruent/L/I_Dist_100_LN_2_LD_4_RN_8_RD_20_0.png","img2/300/Congruent/L/C_Dist_300_LN_20_LD_25_RN_8_RD_16_0.png","img2/100/Incongruent/L/I_Dist_100_LN_3_LD_6_RN_4_RD_10_0.png","img2/300/Incongruent/L/I_Dist_300_LN_4_LD_5_RN_8_RD_16_0.png","img2/100/Incongruent/R/I_Dist_100_LN_13_LD_26_RN_6_RD_10_1.png","img2/300/Congruent/L/C_Dist_300_LN_20_LD_25_RN_9_RD_18_0.png","img2/300/Congruent/R/C_Dist_300_LN_3_LD_12_RN_11_RD_20_1.png","img2/100/Incongruent/L/I_Dist_100_LN_2_LD_4_RN_6_RD_15_0.png","img2/200/Incongruent/R/I_Dist_200_LN_7_LD_15_RN_6_RD_9_1.png","img2/100/Congruent/R/C_Dist_100_LN_1_LD_2_RN_18_RD_30_1.png","img2/300/Congruent/L/C_Dist_300_LN_11_LD_22_RN_1_RD_5_0.png","img2/200/Congruent/R/C_Dist_200_LN_3_LD_6_RN_14_RD_20_1.png","img2/200/Congruent/L/C_Dist_200_LN_16_LD_20_RN_12_RD_20_0.png","img2/200/Incongruent/L/I_Dist_200_LN_7_LD_10_RN_12_RD_24_0.png","img2/200/Congruent/R/C_Dist_200_LN_5_LD_10_RN_14_RD_20_1.png","img2/200/Incongruent/R/I_Dist_200_LN_14_LD_30_RN_6_RD_9_1.png","img2/100/Incongruent/R/I_Dist_100_LN_10_LD_25_RN_9_RD_18_1.png","img2/300/Congruent/R/C_Dist_300_LN_2_LD_20_RN_10_RD_25_1.png","img2/300/Congruent/L/C_Dist_300_LN_11_LD_22_RN_1_RD_5_0.png","img2/200/Incongruent/R/I_Dist_200_LN_7_LD_15_RN_4_RD_6_1.png","img2/200/Congruent/R/C_Dist_200_LN_1_LD_2_RN_21_RD_30_1.png","img2/200/Incongruent/R/I_Dist_200_LN_14_LD_30_RN_6_RD_9_1.png","img2/300/Incongruent/R/I_Dist_300_LN_13_LD_26_RN_12_RD_15_1.png","img2/100/Incongruent/L/I_Dist_100_LN_1_LD_2_RN_8_RD_20_0.png","img2/100/Congruent/L/C_Dist_100_LN_11_LD_22_RN_4_RD_10_0.png","img2/100/Congruent/R/C_Dist_100_LN_6_LD_12_RN_15_RD_25_1.png","img2/100/Incongruent/L/I_Dist_100_LN_3_LD_5_RN_8_RD_16_0.png","img2/200/Incongruent/R/I_Dist_200_LN_11_LD_20_RN_3_RD_4_1.png","img2/300/Incongruent/L/I_Dist_300_LN_7_LD_10_RN_8_RD_20_0.png","img2/300/Incongruent/R/I_Dist_300_LN_13_LD_26_RN_12_RD_15_1.png","img2/200/Incongruent/L/I_Dist_200_LN_4_LD_5_RN_6_RD_10_0.png","img2/300/Incongruent/L/I_Dist_300_LN_8_LD_10_RN_14_RD_28_0.png","img2/100/Congruent/R/C_Dist_100_LN_12_LD_30_RN_13_RD_26_1.png","img2/300/Incongruent/L/I_Dist_300_LN_7_LD_10_RN_8_RD_20_0.png","img2/200/Incongruent/L/I_Dist_200_LN_4_LD_5_RN_6_RD_10_0.png","img2/100/Congruent/R/C_Dist_100_LN_4_LD_8_RN_6_RD_10_1.png","img2/100/Incongruent/R/I_Dist_100_LN_10_LD_25_RN_8_RD_16_1.png","img2/200/Congruent/R/C_Dist_200_LN_9_LD_30_RN_13_RD_26_1.png","img2/300/Congruent/R/C_Dist_300_LN_2_LD_10_RN_12_RD_24_1.png","img2/200/Congruent/R/C_Dist_200_LN_3_LD_10_RN_14_RD_28_1.png","img2/100/Incongruent/L/I_Dist_100_LN_4_LD_8_RN_8_RD_20_0.png","img2/300/Incongruent/L/I_Dist_300_LN_1_LD_2_RN_2_RD_10_0.png","img2/200/Congruent/L/C_Dist_200_LN_6_LD_15_RN_3_RD_15_0.png","img2/100/Congruent/R/C_Dist_100_LN_1_LD_2_RN_18_RD_30_1.png","img2/200/Incongruent/L/I_Dist_200_LN_1_LD_3_RN_2_RD_15_0.png","img2/200/Congruent/L/C_Dist_200_LN_16_LD_30_RN_9_RD_27_0.png","img2/200/Incongruent/L/I_Dist_200_LN_4_LD_6_RN_14_RD_30_0.png","img2/300/Congruent/L/C_Dist_300_LN_11_LD_22_RN_4_RD_20_0.png","img2/100/Incongruent/R/I_Dist_100_LN_6_LD_12_RN_3_RD_5_1.png","img2/100/Incongruent/R/I_Dist_100_LN_6_LD_12_RN_3_RD_5_1.png","img2/300/Congruent/L/C_Dist_300_LN_11_LD_22_RN_4_RD_20_0.png","img2/200/Congruent/L/C_Dist_200_LN_4_LD_10_RN_3_RD_15_0.png","img2/100/Incongruent/R/I_Dist_100_LN_10_LD_25_RN_9_RD_18_1.png","img2/100/Congruent/L/C_Dist_100_LN_11_LD_22_RN_6_RD_15_0.png","img2/300/Incongruent/L/I_Dist_300_LN_1_LD_2_RN_3_RD_15_0.png","img2/300/Congruent/R/C_Dist_300_LN_5_LD_25_RN_6_RD_12_1.png","img2/100/Congruent/R/C_Dist_100_LN_3_LD_20_RN_4_RD_16_1.png","img2/300/Incongruent/R/I_Dist_300_LN_4_LD_20_RN_2_RD_4_1.png","img2/200/Incongruent/R/I_Dist_200_LN_3_LD_10_RN_1_RD_2_1.png","img2/100/Congruent/L/C_Dist_100_LN_9_LD_15_RN_8_RD_16_0.png","img2/200/Incongruent/L/I_Dist_200_LN_1_LD_3_RN_2_RD_15_0.png","img2/200/Incongruent/L/I_Dist_200_LN_3_LD_4_RN_11_RD_20_0.png","img2/300/Incongruent/L/I_Dist_300_LN_7_LD_10_RN_8_RD_20_0.png","img2/100/Congruent/L/C_Dist_100_LN_8_LD_16_RN_2_RD_5_0.png","img2/100/Congruent/R/C_Dist_100_LN_2_LD_5_RN_11_RD_22_1.png","img2/300/Congruent/R/C_Dist_300_LN_1_LD_30_RN_8_RD_24_1.png","img2/200/Congruent/R/C_Dist_200_LN_7_LD_15_RN_18_RD_27_1.png","img2/300/Incongruent/L/I_Dist_300_LN_8_LD_10_RN_9_RD_18_0.png","img2/300/Congruent/R/C_Dist_300_LN_3_LD_12_RN_11_RD_20_1.png","img2/300/Congruent/L/C_Dist_300_LN_11_LD_22_RN_4_RD_20_0.png","img2/100/Congruent/L/C_Dist_100_LN_11_LD_22_RN_4_RD_10_0.png","img2/100/Incongruent/R/I_Dist_100_LN_11_LD_22_RN_9_RD_15_1.png","img2/200/Congruent/R/C_Dist_200_LN_3_LD_10_RN_7_RD_14_1.png","img2/300/Incongruent/R/I_Dist_300_LN_13_LD_26_RN_12_RD_15_1.png","img2/100/Incongruent/R/I_Dist_100_LN_17_LD_30_RN_10_RD_15_1.png"],"dist100_C":[["C_Dist_100_LN_10_LD_25_RN_3_RD_10_0.png","C_Dist_100_LN_11_LD_22_RN_4_RD_10_0.png","C_Dist_100_LN_11_LD_22_RN_6_RD_15_0.png","C_Dist_100_LN_15_LD_25_RN_13_RD_26_0.png","C_Dist_100_LN_3_LD_6_RN_2_RD_5_0.png","C_Dist_100_LN_6_LD_20_RN_5_RD_25_0.png","C_Dist_100_LN_8_LD_16_RN_2_RD_5_0.png","C_Dist_100_LN_9_LD_15_RN_8_RD_16_0.png"],["C_Dist_100_LN_1_LD_2_RN_18_RD_30_1.png","C_Dist_100_LN_1_LD_2_RN_3_RD_5_1.png","C_Dist_100_LN_12_LD_30_RN_13_RD_26_1.png","C_Dist_100_LN_2_LD_5_RN_11_RD_22_1.png","C_Dist_100_LN_2_LD_5_RN_6_RD_12_1.png","C_Dist_100_LN_3_LD_20_RN_4_RD_16_1.png","C_Dist_100_LN_4_LD_10_RN_15_RD_30_1.png","C_Dist_100_LN_4_LD_8_RN_6_RD_10_1.png","C_Dist_100_LN_6_LD_12_RN_15_RD_25_1.png","C_Dist_100_LN_7_LD_14_RN_15_RD_25_1.png","C_Dist_100_LN_7_LD_14_RN_9_RD_15_1.png"]],"dist100_I":[["I_Dist_100_LN_1_LD_2_RN_8_RD_20_0.png","I_Dist_100_LN_2_LD_4_RN_6_RD_15_0.png","I_Dist_100_LN_2_LD_4_RN_8_RD_20_0.png","I_Dist_100_LN_3_LD_5_RN_11_RD_22_0.png","I_Dist_100_LN_3_LD_5_RN_8_RD_16_0.png","I_Dist_100_LN_3_LD_6_RN_4_RD_10_0.png","I_Dist_100_LN_3_LD_9_RN_7_RD_30_0.png","I_Dist_100_LN_4_LD_8_RN_8_RD_20_0.png","I_Dist_100_LN_6_LD_10_RN_11_RD_22_0.png","I_Dist_100_LN_6_LD_10_RN_13_RD_26_0.png","I_Dist_100_LN_6_LD_10_RN_7_RD_14_0.png","I_Dist_100_LN_9_LD_10_RN_20_RD_25_0.png","I_Dist_100_LN_9_LD_15_RN_13_RD_26_0.png","I_Dist_100_LN_9_LD_15_RN_14_RD_28_0.png"],["I_Dist_100_LN_10_LD_25_RN_8_RD_16_1.png","I_Dist_100_LN_10_LD_25_RN_9_RD_18_1.png","I_Dist_100_LN_11_LD_22_RN_9_RD_15_1.png","I_Dist_100_LN_12_LD_24_RN_9_RD_15_1.png","I_Dist_100_LN_12_LD_30_RN_2_RD_4_1.png","I_Dist_100_LN_13_LD_26_RN_12_RD_20_1.png","I_Dist_100_LN_13_LD_26_RN_6_RD_10_1.png","I_Dist_100_LN_17_LD_30_RN_10_RD_15_1.png","I_Dist_100_LN_6_LD_12_RN_3_RD_5_1.png","I_Dist_100_LN_8_LD_16_RN_6_RD_10_1.png","I_Dist_100_LN_8_LD_20_RN_1_RD_2_1.png","I_Dist_100_LN_9_LD_18_RN_6_RD_10_1.png"]],"dist100_S":[["E_Dist_100_LN_2_LD_12_RN_2_RD_30_0.png","E_Dist_100_LN_6_LD_10_RN_6_RD_12_0.png"],["E_Dist_100_LN_6_LD_12_RN_6_RD_10_1.png"]],"dist200_C":[["C_Dist_200_LN_11_LD_22_RN_3_RD_10_0.png","C_Dist_200_LN_12_LD_15_RN_6_RD_10_0.png","C_Dist_200_LN_12_LD_20_RN_6_RD_15_0.png","C_Dist_200_LN_14_LD_28_RN_6_RD_20_0.png","C_Dist_200_LN_15_LD_25_RN_4_RD_10_0.png","C_Dist_200_LN_16_LD_20_RN_12_RD_20_0.png","C_Dist_200_LN_16_LD_30_RN_9_RD_27_0.png","C_Dist_200_LN_20_LD_25_RN_9_RD_15_0.png","C_Dist_200_LN_21_LD_30_RN_2_RD_4_0.png","C_Dist_200_LN_4_LD_10_RN_3_RD_15_0.png","C_Dist_200_LN_4_LD_8_RN_3_RD_10_0.png","C_Dist_200_LN_6_LD_15_RN_3_RD_15_0.png","C_Dist_200_LN_7_LD_21_RN_2_RD_15_0.png","C_Dist_200_LN_8_LD_15_RN_2_RD_6_0.png","C_Dist_200_LN_8_LD_15_RN_3_RD_9_0.png","C_Dist_200_LN_8_LD_15_RN_7_RD_21_0.png","C_Dist_200_LN_9_LD_20_RN_4_RD_16_0.png"],["C_Dist_200_LN_1_LD_2_RN_21_RD_30_1.png","C_Dist_200_LN_13_LD_26_RN_14_RD_20_1.png","C_Dist_200_LN_3_LD_10_RN_11_RD_22_1.png","C_Dist_200_LN_3_LD_10_RN_14_RD_28_1.png","C_Dist_200_LN_3_LD_10_RN_7_RD_14_1.png","C_Dist_200_LN_3_LD_12_RN_9_RD_20_1.png","C_Dist_200_LN_3_LD_6_RN_14_RD_20_1.png","C_Dist_200_LN_5_LD_10_RN_14_RD_20_1.png","C_Dist_200_LN_6_LD_12_RN_7_RD_10_1.png","C_Dist_200_LN_6_LD_20_RN_11_RD_22_1.png","C_Dist_200_LN_7_LD_15_RN_18_RD_27_1.png","C_Dist_200_LN_9_LD_30_RN_13_RD_26_1.png"]],"dist200_I":[["I_Dist_200_LN_1_LD_2_RN_3_RD_10_0.png","I_Dist_200_LN_1_LD_3_RN_2_RD_15_0.png","I_Dist_200_LN_3_LD_4_RN_11_RD_20_0.png","I_Dist_200_LN_4_LD_5_RN_6_RD_10_0.png","I_Dist_200_LN_4_LD_6_RN_14_RD_30_0.png","I_Dist_200_LN_7_LD_10_RN_12_RD_24_0.png","I_Dist_200_LN_7_LD_10_RN_14_RD_28_0.png","I_Dist_200_LN_7_LD_10_RN_8_RD_16_0.png"],["I_Dist_200_LN_11_LD_20_RN_3_RD_4_1.png","I_Dist_200_LN_14_LD_30_RN_12_RD_18_1.png","I_Dist_200_LN_14_LD_30_RN_6_RD_9_1.png","I_Dist_200_LN_3_LD_10_RN_1_RD_2_1.png","I_Dist_200_LN_4_LD_30_RN_1_RD_3_1.png","I_Dist_200_LN_6_LD_20_RN_3_RD_6_1.png","I_Dist_200_LN_7_LD_15_RN_4_RD_6_1.png","I_Dist_200_LN_7_LD_15_RN_6_RD_9_1.png","I_Dist_200_LN_9_LD_15_RN_8_RD_10_1.png"]],"dist200_S":[["E_Dist_200_LN_3_LD_6_RN_3_RD_10_0.png"],["E_Dist_200_LN_3_LD_10_RN_3_RD_6_1.png"]],"dist300_C":[["C_Dist_300_LN_11_LD_22_RN_1_RD_5_0.png","C_Dist_300_LN_11_LD_22_RN_2_RD_10_0.png","C_Dist_300_LN_11_LD_22_RN_4_RD_20_0.png","C_Dist_300_LN_12_LD_24_RN_2_RD_10_0.png","C_Dist_300_LN_18_LD_20_RN_9_RD_15_0.png","C_Dist_300_LN_20_LD_25_RN_13_RD_26_0.png","C_Dist_300_LN_20_LD_25_RN_14_RD_28_0.png","C_Dist_300_LN_20_LD_25_RN_5_RD_10_0.png","C_Dist_300_LN_20_LD_25_RN_8_RD_16_0.png","C_Dist_300_LN_20_LD_25_RN_9_RD_18_0.png","C_Dist_300_LN_24_LD_30_RN_2_RD_4_0.png","C_Dist_300_LN_24_LD_30_RN_8_RD_16_0.png","C_Dist_300_LN_3_LD_6_RN_2_RD_10_0.png","C_Dist_300_LN_4_LD_10_RN_1_RD_10_0.png","C_Dist_300_LN_4_LD_5_RN_2_RD_4_0.png","C_Dist_300_LN_8_LD_16_RN_1_RD_5_0.png","C_Dist_300_LN_9_LD_10_RN_3_RD_5_0.png"],["C_Dist_300_LN_1_LD_20_RN_7_RD_20_1.png","C_Dist_300_LN_1_LD_3_RN_19_RD_30_1.png","C_Dist_300_LN_1_LD_30_RN_8_RD_24_1.png","C_Dist_300_LN_1_LD_5_RN_11_RD_22_1.png","C_Dist_300_LN_1_LD_5_RN_3_RD_6_1.png","C_Dist_300_LN_1_LD_5_RN_6_RD_12_1.png","C_Dist_300_LN_2_LD_10_RN_12_RD_24_1.png","C_Dist_300_LN_2_LD_20_RN_10_RD_25_1.png","C_Dist_300_LN_3_LD_12_RN_11_RD_20_1.png","C_Dist_300_LN_3_LD_6_RN_4_RD_5_1.png","C_Dist_300_LN_4_LD_20_RN_13_RD_26_1.png","C_Dist_300_LN_5_LD_25_RN_6_RD_12_1.png","C_Dist_300_LN_5_LD_25_RN_7_RD_14_1.png","C_Dist_300_LN_7_LD_14_RN_20_RD_25_1.png","C_Dist_300_LN_8_LD_15_RN_10_RD_12_1.png"]],"dist300_I":[["I_Dist_300_LN_1_LD_2_RN_2_RD_10_0.png","I_Dist_300_LN_1_LD_2_RN_3_RD_15_0.png","I_Dist_300_LN_2_LD_4_RN_6_RD_30_0.png","I_Dist_300_LN_3_LD_6_RN_4_RD_20_0.png","I_Dist_300_LN_4_LD_5_RN_6_RD_12_0.png","I_Dist_300_LN_4_LD_5_RN_8_RD_16_0.png","I_Dist_300_LN_7_LD_10_RN_8_RD_20_0.png","I_Dist_300_LN_8_LD_10_RN_14_RD_28_0.png","I_Dist_300_LN_8_LD_10_RN_9_RD_18_0.png"],["I_Dist_300_LN_13_LD_26_RN_12_RD_15_1.png","I_Dist_300_LN_4_LD_20_RN_2_RD_4_1.png"]],"dist300_S":[["E_Dist_300_LN_9_LD_12_RN_9_RD_20_0.png"],["E_Dist_300_LN_18_LD_30_RN_18_RD_20_1.png","E_Dist_300_LN_3_LD_10_RN_3_RD_5_1.png","E_Dist_300_LN_9_LD_20_RN_9_RD_12_1.png"]],"dist500_C":[["C_Dist_500_LN_10_LD_13_RN_7_RD_26_0.png","C_Dist_500_LN_10_LD_15_RN_4_RD_24_0.png","C_Dist_500_LN_12_LD_16_RN_3_RD_12_0.png","C_Dist_500_LN_12_LD_18_RN_4_RD_24_0.png","C_Dist_500_LN_15_LD_18_RN_5_RD_15_0.png","C_Dist_500_LN_15_LD_20_RN_1_RD_4_0.png","C_Dist_500_LN_18_LD_27_RN_1_RD_6_0.png","C_Dist_500_LN_20_LD_24_RN_1_RD_3_0.png","C_Dist_500_LN_20_LD_24_RN_3_RD_9_0.png","C_Dist_500_LN_20_LD_24_RN_7_RD_21_0.png","C_Dist_500_LN_20_LD_28_RN_3_RD_14_0.png","C_Dist_500_LN_21_LD_28_RN_6_RD_24_0.png","C_Dist_500_LN_22_LD_28_RN_2_RD_7_0.png","C_Dist_500_LN_25_LD_30_RN_9_RD_27_0.png","C_Dist_500_LN_4_LD_6_RN_1_RD_6_0.png","C_Dist_500_LN_5_LD_6_RN_2_RD_6_0.png","C_Dist_500_LN_6_LD_9_RN_1_RD_6_0.png","C_Dist_500_LN_7_LD_10_RN_1_RD_5_0.png","C_Dist_500_LN_8_LD_12_RN_1_RD_6_0.png","C_Dist_500_LN_8_LD_12_RN_4_RD_24_0.png"],["C_Dist_500_LN_1_LD_4_RN_12_RD_16_1.png","C_Dist_500_LN_1_LD_4_RN_9_RD_12_1.png","C_Dist_500_LN_1_LD_9_RN_11_RD_18_1.png","C_Dist_500_LN_10_LD_24_RN_22_RD_24_1.png","C_Dist_500_LN_2_LD_12_RN_10_RD_15_1.png","C_Dist_500_LN_2_LD_12_RN_12_RD_18_1.png","C_Dist_500_LN_2_LD_12_RN_4_RD_6_1.png","C_Dist_500_LN_2_LD_24_RN_7_RD_12_1.png","C_Dist_500_LN_2_LD_5_RN_18_RD_20_1.png","C_Dist_500_LN_2_LD_5_RN_9_RD_10_1.png","C_Dist_500_LN_2_LD_8_RN_12_RD_16_1.png","C_Dist_500_LN_2_LD_8_RN_21_RD_28_1.png","C_Dist_500_LN_3_LD_10_RN_4_RD_5_1.png","C_Dist_500_LN_3_LD_12_RN_15_RD_20_1.png","C_Dist_500_LN_3_LD_30_RN_6_RD_10_1.png","C_Dist_500_LN_3_LD_8_RN_14_RD_16_1.png","C_Dist_500_LN_4_LD_16_RN_15_RD_20_1.png","C_Dist_500_LN_4_LD_24_RN_12_RD_18_1.png","C_Dist_500_LN_5_LD_14_RN_6_RD_7_1.png","C_Dist_500_LN_7_LD_21_RN_20_RD_24_1.png","C_Dist_500_LN_7_LD_28_RN_12_RD_16_1.png","C_Dist_500_LN_7_LD_28_RN_9_RD_12_1.png","C_Dist_500_LN_9_LD_27_RN_20_RD_24_1.png"]],"dist500_I":[["I_Dist_500_LN_2_LD_3_RN_4_RD_24_0.png","I_Dist_500_LN_5_LD_6_RN_6_RD_18_0.png","I_Dist_500_LN_7_LD_8_RN_9_RD_24_0.png"],["I_Dist_500_LN_7_LD_21_RN_5_RD_6_1.png"]],"dist500_S":[["E_Dist_500_LN_6_LD_8_RN_6_RD_24_0.png"],["E_Dist_500_LN_2_LD_12_RN_2_RD_3_1.png","E_Dist_500_LN_6_LD_24_RN_6_RD_8_1.png"]]}},{"start_time":1551899636935,"click_time":1551899638805,"finger_time":1551899638206,"fix_duration":1228.3075007341283,"trial":1,"RT":1271,"MT":599,"sideResp":2,"stimulus":[],"xmouse":[806,803,803,803,803,803,803,803,803,803,803,803,803,803,803,803,803,803,803,803,803,803,803,803,803,803,803,803,803,803,803,803,803,803,803,803,803,803,803,803,803,803,803,803,803,803,803,803,803,803,803,803,803,803,803,803,803,803,803,803,803,809,818,938,1045,1160,1160,1160,1160,1160,1160,1160,1160,1160,1160,1160,1160,1160,1160,1160,1160,1160,1160,1217,1217,1217,1217,1217,1217,1217,1216,1209,1199,1150],"ymouse":[522,517,517,517,517,517,517,517,517,517,517,517,517,517,517,517,517,517,517,517,517,517,517,517,517,517,517,517,517,517,517,517,517,517,517,517,517,517,517,517,517,517,517,517,517,517,517,517,517,517,517,517,517,517,517,517,517,517,517,517,510,501,486,279,125,5,5,5,5,5,5,5,5,5,5,5,5,5,5,5,5,5,5,1,1,1,1,1,1,5,17,32,46,73],"timestamp_mouse":[11,31,50,71,90,112,130,150,170,191,210,231,251,272,290,312,330,350,370,390,411,431,451,472,490,510,530,550,570,591,610,631,651,671,690,710,730,750,770,791,811,830,851,870,890,910,930,951,971,992,1010,1030,1050,1071,1091,1112,1130,1151,1170,1191,1210,1231,1250,1271,1290,1310,1330,1351,1372,1391,1411,1430,1451,1470,1490,1510,1531,1552,1571,1592,1612,1632,1652,1671,1691,1712,1730,1750,1770,1790,1810,1831,1850,1870],"xSR":741.5,"ySR":469.95,"xT1":424.9,"yT1":0,"xT2":1058.1,"yT2":0,"toosoon":0,"cond_shown":"Incongruent","ratio_trial":300,"L_num":13,"L_den":26,"R_num":12,"R_den":15,"correct_side":2,"subjID":"saraladino19","gender":"1","school":"6","age":"No_ag"},{"start_time":1551899642999,"click_time":1551899645926,"finger_time":1551899645405,"fix_duration":1153.0223424129713,"trial":2,"RT":2406,"MT":521,"sideResp":1,"stimulus":[],"xmouse":[774,774,774,774,774,774,774,774,774,774,774,774,774,774,774,774,774,774,774,774,774,774,774,774,774,774,774,774,774,774,774,774,774,774,774,774,774,774,774,774,774,774,774,774,774,774,774,774,774,774,774,774,774,774,774,774,774,774,774,774,774,774,774,774,774,774,774,774,774,774,774,774,774,774,774,774,774,774,774,774,774,774,774,774,774,774,774,774,774,774,774,774,774,774,774,774,774,774,774,774,774,774,774,774,774,774,774,774,774,774,774,774,774,774,774,774,774,774,772,768,762,743,732,723,712,701,644,597,579,569,564,562,562,560,553,534,534,534,534,534,534,534,534,534,534,534,501],"ymouse":[507,507,507,507,507,507,507,507,507,507,507,507,507,507,507,507,507,507,507,507,507,507,507,507,507,507,507,507,507,507,507,507,507,507,507,507,507,507,507,507,507,507,507,507,507,507,507,507,507,507,507,507,507,507,507,507,507,507,507,507,507,507,507,507,507,507,507,507,507,507,507,507,507,507,507,507,507,507,507,507,507,507,507,507,507,507,507,507,507,507,507,507,507,507,507,507,507,507,507,507,507,507,507,507,507,507,507,507,507,507,507,507,507,507,507,507,506,500,485,477,465,430,412,395,378,357,226,117,76,51,42,37,37,33,24,4,4,4,4,4,4,4,4,4,4,4,7],"timestamp_mouse":[12,26,52,66,86,106,127,147,166,186,206,228,247,266,286,307,327,347,368,387,406,427,446,468,486,506,526,547,566,586,606,626,647,666,686,707,727,748,766,787,806,826,848,866,886,906,926,946,968,987,1007,1027,1046,1067,1087,1107,1126,1147,1167,1186,1206,1227,1246,1266,1287,1307,1326,1346,1366,1386,1406,1427,1447,1467,1486,1506,1526,1546,1567,1587,1607,1626,1646,1666,1686,1707,1726,1746,1766,1786,1807,1827,1848,1866,1886,1906,1926,1947,1967,1987,2006,2027,2046,2068,2087,2107,2126,2146,2166,2186,2207,2227,2247,2266,2286,2306,2326,2347,2366,2386,2406,2427,2448,2466,2486,2507,2526,2546,2566,2587,2606,2626,2646,2666,2686,2707,2728,2748,2767,2788,2807,2826,2846,2866,2887,2908,2926],"xSR":741.5,"ySR":469.95,"xT1":424.9,"yT1":0,"xT2":1058.1,"yT2":0,"toosoon":0,"cond_shown":"Incongruent","ratio_trial":200,"L_num":14,"L_den":30,"R_num":12,"R_den":18,"correct_side":2,"subjID":"saraladino19","gender":"1","school":"6","age":"No_ag"},{"start_time":1551899648509,"click_time":1551899649925,"finger_time":1551899649366,"fix_duration":420.6080770706133,"trial":3,"RT":857,"MT":559,"sideResp":1,"stimulus":[],"xmouse":[762,762,762,762,762,762,762,762,762,762,762,762,762,762,762,762,762,762,762,762,762,762,762,762,762,762,762,762,762,762,762,762,762,762,762,762,762,762,762,762,762,745,679,571,454,331,326,326,326,326,326,326,326,326,326,326,330,352,380,409,414,414,414,414,414,414,414,414,416,421,432],"ymouse":[531,531,531,531,531,531,531,531,531,531,531,531,531,531,531,531,531,531,531,531,531,531,531,531,531,531,531,531,531,531,531,531,531,531,531,531,531,531,531,531,531,495,392,253,134,14,3,3,3,3,3,3,3,3,3,3,11,38,65,86,89,89,89,89,89,89,89,89,89,83,67],"timestamp_mouse":[18,37,62,77,96,116,136,156,177,197,218,238,256,277,298,317,337,356,376,396,416,437,457,478,496,516,536,556,577,597,616,636,656,677,697,717,736,756,776,796,817,837,857,876,898,917,937,956,977,997,1017,1036,1056,1076,1097,1117,1136,1157,1176,1196,1217,1236,1257,1277,1298,1318,1337,1356,1376,1396,1416],"xSR":741.5,"ySR":469.95,"xT1":424.9,"yT1":0,"xT2":1058.1,"yT2":0,"toosoon":0,"cond_shown":"Congruent","ratio_trial":300,"L_num":12,"L_den":24,"R_num":2,"R_den":10,"correct_side":1,"subjID":"saraladino19","gender":"1","school":"6","age":"No_ag"},{"start_time":1551899652991,"click_time":1551899654385,"finger_time":1551899653826,"fix_duration":1224.8828388126835,"trial":4,"RT":835,"MT":559,"sideResp":2,"stimulus":[],"xmouse":[794,794,794,794,794,794,794,794,794,794,794,794,794,794,794,794,794,794,794,794,794,794,794,794,794,794,794,794,794,794,794,794,794,794,794,794,794,794,794,799,809,822,823,823,823,823,823,823,823,823,823,823,823,823,823,823,823,823,823,823,823,823,823,823,828,862,962,1015,1056,1079],"ymouse":[523,523,523,523,523,523,523,523,523,523,523,523,523,523,523,523,523,523,523,523,523,523,523,523,523,523,523,523,523,523,523,523,523,523,523,523,522,521,518,506,486,466,465,465,465,465,465,465,465,465,465,465,465,465,465,465,465,465,465,465,465,465,465,465,456,390,224,150,88,50],"timestamp_mouse":[15,37,54,75,95,115,135,156,175,195,214,234,254,275,295,314,334,356,376,394,414,435,455,476,496,514,534,554,574,595,615,635,654,674,695,715,735,754,774,794,815,834,854,874,895,915,934,954,974,994,1014,1035,1054,1074,1095,1115,1134,1154,1175,1194,1214,1235,1256,1275,1294,1314,1336,1355,1374,1394],"xSR":741.5,"ySR":469.95,"xT1":424.9,"yT1":0,"xT2":1058.1,"yT2":0,"toosoon":0,"cond_shown":"Congruent","ratio_trial":300,"L_num":1,"L_den":5,"R_num":3,"R_den":6,"correct_side":2,"subjID":"saraladino19","gender":"1","school":"6","age":"No_ag"},{"start_time":1551899657544,"click_time":1551899659346,"finger_time":1551899658925,"fix_duration":1496.6773532881691,"trial":5,"RT":1381,"MT":421,"sideResp":2,"stimulus":[],"xmouse":[806,806,806,806,806,806,806,806,806,806,806,806,806,806,806,806,806,806,806,806,806,806,806,806,806,806,806,806,806,806,806,806,806,806,806,806,806,806,806,806,806,806,807,807,807,807,807,807,807,807,807,807,807,807,807,807,807,807,807,807,807,807,807,807,807,807,807,807,808,813,831,843,864,916,948,997,1004,1004,1004,1004,1004,1004,1004,1004,1004,1004,1004,1004,1004,1004,1120],"ymouse":[510,510,510,510,510,510,510,510,510,510,510,510,510,510,510,510,510,510,510,510,510,510,510,510,510,510,510,510,510,510,510,510,510,510,510,510,510,510,510,510,510,510,509,509,509,509,509,509,509,509,509,509,509,509,509,509,509,509,509,509,509,509,509,508,507,505,503,497,489,469,385,316,243,131,75,8,0,0,0,0,0,0,0,0,0,0,0,0,0,0,23],"timestamp_mouse":[9,22,41,63,82,103,122,142,163,181,201,221,241,262,283,303,322,342,361,381,401,422,441,461,481,503,522,541,562,582,603,621,641,662,681,701,721,741,762,781,801,821,843,862,882,901,921,942,962,982,1002,1023,1042,1062,1081,1101,1121,1141,1162,1182,1203,1222,1241,1261,1281,1301,1322,1341,1361,1381,1401,1421,1441,1461,1482,1501,1521,1542,1561,1581,1602,1622,1641,1662,1683,1702,1722,1741,1761,1782,1802],"xSR":741.5,"ySR":469.95,"xT1":424.9,"yT1":0,"xT2":1058.1,"yT2":0,"toosoon":0,"cond_shown":"Congruent","ratio_trial":200,"L_num":6,"L_den":12,"R_num":7,"R_den":10,"correct_side":2,"subjID":"saraladino19","gender":"1","school":"6","age":"No_ag"},{"start_time":1551899662914,"click_time":1551899665266,"finger_time":1551899664605,"fix_duration":1266.185396227114,"trial":6,"RT":1691,"MT":661,"sideResp":2,"stimulus":[],"xmouse":[782,782,782,782,782,782,782,782,782,782,782,782,782,782,782,782,782,782,782,782,782,782,782,782,782,782,782,782,782,782,782,782,782,782,782,781,781,781,781,781,781,781,781,781,781,781,781,781,781,781,782,783,783,783,783,783,783,783,783,783,783,783,783,783,783,783,783,783,783,783,783,783,783,783,783,783,783,783,783,783,783,783,783,796,818,838,856,876,879,880,880,880,880,881,886,889,896,906,912,927,953,1002,1027,1032,1033,1033,1033,1033,1037,1045,1056,1061,1061,1061,1061,1062,1062,1077],"ymouse":[517,517,517,517,517,517,517,517,517,517,517,517,517,517,516,516,516,516,516,516,516,516,516,516,516,516,516,516,516,516,516,516,516,516,516,514,511,510,510,510,510,510,508,508,508,508,508,508,508,507,504,500,500,500,500,500,500,500,500,500,500,500,500,500,500,500,500,500,500,500,500,500,500,500,500,500,500,500,500,500,500,500,499,470,421,382,349,296,283,279,278,278,278,275,259,246,233,215,208,195,181,155,142,140,140,140,140,139,136,128,118,114,113,113,113,113,109,89],"timestamp_mouse":[12,33,66,71,91,112,132,152,171,191,211,231,253,272,291,311,331,351,373,392,412,431,452,472,493,512,532,552,572,591,611,631,653,672,692,711,732,753,771,791,812,831,851,871,892,912,931,952,973,993,1011,1032,1051,1071,1092,1112,1133,1153,1171,1191,1212,1232,1251,1272,1292,1313,1332,1351,1371,1392,1412,1432,1452,1472,1492,1511,1531,1551,1571,1591,1612,1631,1651,1672,1691,1711,1731,1753,1771,1791,1811,1833,1851,1871,1891,1911,1931,1951,1972,1991,2011,2033,2051,2073,2093,2112,2131,2151,2171,2191,2212,2231,2251,2271,2291,2311,2331,2352],"xSR":741.5,"ySR":469.95,"xT1":424.9,"yT1":0,"xT2":1058.1,"yT2":0,"toosoon":0,"cond_shown":"Congruent","ratio_trial":100,"L_num":7,"L_den":14,"R_num":15,"R_den":25,"correct_side":2,"subjID":"saraladino19","gender":"1","school":"6","age":"No_ag"},{"start_time":1551899669089,"click_time":1551899670325,"finger_time":1551899669905,"fix_duration":861.1655533062586,"trial":7,"RT":816,"MT":420,"sideResp":1,"stimulus":[],"xmouse":[788,788,788,788,788,788,788,788,788,788,788,788,788,788,788,788,788,788,788,788,788,788,788,784,779,777,777,776,774,773,773,772,771,771,771,771,771,770,769,768,767,767,767,764,763,759,757,754,752,751,751,751,750,746,745,742,737,724,671,597,537,498],"ymouse":[554,554,554,554,554,554,554,554,554,554,554,554,554,554,554,554,554,554,554,554,554,554,554,549,540,536,534,534,529,527,525,521,519,512,507,502,495,490,477,473,463,451,439,424,418,412,407,403,399,398,398,397,394,386,382,377,365,346,267,165,88,24],"timestamp_mouse":[17,48,57,78,97,117,138,156,176,196,216,236,258,277,297,318,337,357,377,397,418,438,457,476,497,516,536,558,577,596,616,636,656,676,696,716,736,757,777,797,816,836,857,877,898,916,937,956,977,997,1017,1036,1057,1077,1097,1116,1136,1156,1177,1196,1216,1236],"xSR":741.5,"ySR":469.95,"xT1":424.9,"yT1":0,"xT2":1058.1,"yT2":0,"toosoon":0,"cond_shown":"Incongruent","ratio_trial":100,"L_num":13,"L_den":26,"R_num":12,"R_den":20,"correct_side":2,"subjID":"saraladino19","gender":"1","school":"6","age":"No_ag"},{"start_time":1551899674095,"click_time":1551899675686,"finger_time":1551899675506,"fix_duration":668.4618608054694,"trial":8,"RT":1411,"MT":180,"sideResp":1,"stimulus":[],"xmouse":[788,788,788,788,788,788,788,788,788,788,788,788,788,788,788,788,788,788,788,788,788,788,788,788,788,788,788,788,788,788,788,788,788,788,788,788,788,788,788,788,788,788,788,788,788,788,788,788,788,788,788,788,788,788,788,788,788,788,788,788,788,788,788,788,788,788,788,788,788,769,749,722,692,672,649,632,613,582,544,515],"ymouse":[501,501,501,501,501,502,502,502,503,503,503,503,503,503,503,503,503,503,503,503,503,503,503,503,503,503,503,503,503,503,503,503,503,503,503,503,503,503,503,503,503,503,503,503,503,503,503,503,503,503,503,503,503,503,503,503,503,503,503,503,503,503,503,503,503,503,503,503,502,479,456,422,378,327,246,205,167,109,56,25],"timestamp_mouse":[11,31,55,71,91,112,130,152,171,190,212,231,251,271,290,312,331,352,372,391,412,431,451,471,490,511,530,551,571,591,610,631,652,671,691,711,731,751,770,790,811,832,851,871,891,912,932,950,972,991,1010,1030,1050,1070,1092,1111,1131,1151,1171,1190,1211,1231,1251,1272,1292,1311,1331,1352,1370,1390,1411,1430,1450,1470,1491,1510,1530,1550,1571,1591],"xSR":741.5,"ySR":469.95,"xT1":424.9,"yT1":0,"xT2":1058.1,"yT2":0,"toosoon":0,"cond_shown":"Congruent","ratio_trial":200,"L_num":4,"L_den":8,"R_num":3,"R_den":10,"correct_side":1,"subjID":"saraladino19","gender":"1","school":"6","age":"No_ag"},{"start_time":1551899678077,"click_time":1551899679426,"finger_time":1551899678945,"fix_duration":990.8894759396163,"trial":9,"RT":868,"MT":481,"sideResp":1,"stimulus":[],"xmouse":[778,778,778,778,778,778,778,778,778,788,791,791,791,791,791,792,792,792,792,792,792,792,792,792,792,792,792,792,792,792,792,792,792,792,792,792,792,792,792,792,792,792,764,737,693,649,641,639,633,627,617,610,606,597,575,539,535,534,534,534,534,534,535,536,537,537,532,521],"ymouse":[491,491,491,491,491,491,491,491,490,490,490,490,490,490,490,491,491,491,491,491,491,491,491,491,491,491,491,491,491,491,491,491,491,491,491,491,491,491,491,491,491,491,487,479,458,431,415,409,396,381,361,353,349,338,315,271,244,236,221,214,207,194,187,179,168,154,124,91],"timestamp_mouse":[9,28,48,68,90,109,129,149,169,188,209,228,249,270,289,308,328,348,369,389,409,428,449,468,488,508,529,548,570,589,609,629,649,670,689,708,728,749,770,788,808,828,849,868,888,910,928,949,968,988,1011,1029,1049,1068,1088,1109,1128,1148,1168,1188,1208,1228,1248,1269,1288,1308,1328,1349],"xSR":741.5,"ySR":469.95,"xT1":424.9,"yT1":0,"xT2":1058.1,"yT2":0,"toosoon":0,"cond_shown":"Congruent","ratio_trial":100,"L_num":11,"L_den":22,"R_num":4,"R_den":10,"correct_side":1,"subjID":"saraladino19","gender":"1","school":"6","age":"No_ag"},{"start_time":1551899683112,"click_time":1551899684285,"finger_time":1551899683545,"fix_duration":924.5473044668911,"trial":10,"RT":433,"MT":740,"sideResp":1,"stimulus":[],"xmouse":[765,765,765,765,765,765,765,765,765,765,765,765,765,765,765,765,765,765,765,765,751,739,724,662,610,579,552,533,519,515,515,515,515,515,515,515,515,515,515,515,515,515,515,514,508,503,501,499,497,493,492,489,489,487,486,485,485,484,483],"ymouse":[524,524,524,524,524,524,524,524,524,524,524,524,524,524,524,524,524,524,524,519,499,478,452,369,306,271,241,220,202,196,196,196,196,196,196,196,196,196,196,196,196,196,196,194,171,160,153,146,140,125,119,114,112,108,104,102,101,100,97],"timestamp_mouse":[14,38,54,74,93,114,134,153,175,193,213,234,254,274,294,313,335,354,374,394,413,433,455,476,493,515,534,553,573,593,614,634,655,675,694,714,734,754,774,794,814,834,854,875,894,914,934,953,973,993,1014,1034,1053,1073,1093,1113,1133,1153,1173],"xSR":741.5,"ySR":469.95,"xT1":424.9,"yT1":0,"xT2":1058.1,"yT2":0,"toosoon":0,"cond_shown":"Congruent","ratio_trial":100,"L_num":3,"L_den":6,"R_num":2,"R_den":5,"correct_side":1,"subjID":"saraladino19","gender":"1","school":"6","age":"No_ag"},{"start_time":1551899686078,"click_time":1551899687185,"finger_time":1551899686965,"fix_duration":250,"trial":11,"RT":887,"MT":220,"sideResp":2,"stimulus":[],"xmouse":[762,762,762,762,762,762,762,762,762,762,762,762,762,762,762,762,762,762,762,762,762,762,762,762,762,762,762,762,762,762,762,762,762,762,762,762,762,762,762,764,775,786,797,817,832,868,877,886,896,909,951,978,1021,1065,1091],"ymouse":[536,536,536,536,536,536,536,536,536,536,536,536,536,536,536,536,536,536,536,536,536,536,536,536,536,536,536,536,536,536,536,536,536,536,536,536,536,536,536,535,511,490,472,429,394,299,266,244,228,213,184,169,138,107,89],"timestamp_mouse":[32,49,67,87,107,127,147,167,189,207,227,247,267,288,308,329,347,367,387,408,428,448,468,487,509,527,548,568,588,609,627,647,667,687,708,727,747,767,787,807,827,847,867,887,909,927,948,968,988,1008,1028,1047,1068,1087,1107],"xSR":741.5,"ySR":469.95,"xT1":424.9,"yT1":0,"xT2":1058.1,"yT2":0,"toosoon":0,"cond_shown":"Congruent","ratio_trial":300,"L_num":1,"L_den":5,"R_num":3,"R_den":6,"correct_side":2,"subjID":"saraladino19","gender":"1","school":"6","age":"No_ag"},{"start_time":1551899691050,"click_time":1551899691847,"finger_time":1551899691447,"fix_duration":440.23701388695724,"trial":12,"RT":397,"MT":400,"sideResp":2,"stimulus":[],"xmouse":[814,814,814,814,814,814,814,814,814,814,814,814,814,814,814,814,814,814,827,879,915,931,942,947,948,948,948,948,948,948,948,948,948,948,953,964,984,1011,1053,1073],"ymouse":[512,512,512,512,512,512,512,512,512,512,512,512,512,512,512,512,512,512,496,430,387,364,347,326,324,324,324,324,324,324,324,324,324,318,298,271,225,166,69,30],"timestamp_mouse":[17,42,58,77,98,117,137,157,177,197,217,237,256,278,297,318,338,357,377,397,418,437,458,477,497,517,537,558,577,598,617,637,657,677,697,717,737,757,778,797],"xSR":741.5,"ySR":469.95,"xT1":424.9,"yT1":0,"xT2":1058.1,"yT2":0,"toosoon":0,"cond_shown":"Congruent","ratio_trial":300,"L_num":3,"L_den":6,"R_num":4,"R_den":5,"correct_side":2,"subjID":"saraladino19","gender":"1","school":"6","age":"No_ag"},{"start_time":1551899693887,"click_time":1551899697648,"finger_time":1551899695387,"fix_duration":398.0423304154427,"trial":13,"RT":1500,"MT":2261,"sideResp":1,"stimulus":[],"xmouse":[775,775,775,775,775,775,775,775,775,775,775,775,775,775,775,775,775,775,775,775,775,775,775,775,775,775,775,775,775,775,775,775,775,776,777,777,777,777,777,777,777,777,777,777,777,777,777,777,777,777,777,777,777,777,777,777,778,778,778,778,778,778,778,778,778,778,778,778,778,778,779,779,779,779,778,775,765,732,709,688,664,638,615,608,604,601,601,601,601,601,601,601,601,601,601,601,601,601,601,601,601,601,601,601,601,601,601,584,584,592,741,992,1383,1383,1383,1383,1383,1383,1383,1383,1383,1383,1383,1383,1383,1383,1383,1383,1383,1383,1383,1383,1383,1383,1383,1383,1383,0,0,0,0,0,0,0,0,0,0,0,0,0,0,1,11,198,376,547,677,724,724,724,724,724,691,625,557,484,410,339,332,332,332,332,332,332,332,331,331,331,334,336,336,338,343,349,358,373,389,406,441],"ymouse":[517,517,517,517,517,517,517,517,517,517,517,517,517,517,517,517,517,517,517,517,515,514,514,514,514,514,514,514,514,514,514,514,514,512,511,511,511,511,511,511,511,511,511,511,511,511,511,510,510,510,510,510,510,510,510,510,510,509,509,509,509,509,509,509,509,509,509,509,509,508,507,505,494,483,473,454,424,353,315,271,217,159,94,62,32,5,5,5,5,5,5,5,5,5,5,5,5,5,5,5,5,5,5,5,5,5,5,11,40,102,228,312,373,373,373,373,373,373,373,373,373,373,373,373,373,373,373,373,373,373,373,373,373,373,373,373,373,21,68,128,148,159,165,169,170,180,192,194,194,194,194,195,196,202,202,201,178,163,163,163,163,163,156,151,144,134,123,113,112,112,112,112,112,112,112,111,111,106,99,96,95,93,86,80,74,66,59,52,40],"timestamp_mouse":[14,23,41,60,80,100,120,140,160,180,200,220,241,261,281,299,320,340,360,380,400,420,440,460,480,500,521,540,561,580,600,620,640,660,681,700,719,741,760,780,800,820,840,860,880,900,921,941,960,980,1000,1021,1040,1060,1081,1099,1120,1141,1160,1180,1200,1220,1240,1261,1280,1300,1320,1340,1360,1380,1400,1420,1441,1461,1480,1500,1520,1542,1560,1581,1600,1620,1640,1660,1680,1700,1721,1740,1761,1780,1800,1820,1840,1861,1880,1901,1921,1941,1961,1981,2000,2020,2040,2061,2079,2101,2120,2142,2160,2179,2200,2220,2243,2260,2280,2301,2319,2340,2359,2380,2400,2420,2440,2461,2481,2500,2520,2540,2561,2581,2601,2620,2641,2660,2679,2699,2720,2741,2759,2780,2800,2820,2840,2860,2880,2900,2919,2941,2960,2980,3001,3020,3041,3060,3080,3099,3120,3140,3160,3181,3199,3220,3241,3260,3280,3301,3320,3341,3361,3380,3400,3419,3441,3460,3480,3500,3520,3541,3561,3580,3600,3620,3641,3660,3681,3700,3720,3741,3761],"xSR":741.5,"ySR":469.95,"xT1":424.9,"yT1":0,"xT2":1058.1,"yT2":0,"toosoon":0,"cond_shown":"Congruent","ratio_trial":100,"L_num":6,"L_den":20,"R_num":5,"R_den":25,"correct_side":1,"subjID":"saraladino19","gender":"1","school":"6","age":"No_ag"},{"start_time":1551899699737,"click_time":1551899701507,"finger_time":1551899701047,"fix_duration":808.888705506598,"trial":14,"RT":1310,"MT":460,"sideResp":1,"stimulus":[],"xmouse":[778,778,778,778,778,778,778,778,778,778,778,778,778,778,778,778,778,778,778,778,778,779,780,780,780,780,780,780,780,780,780,780,780,780,780,780,780,780,780,780,780,780,780,779,778,776,776,775,775,775,775,775,775,775,775,775,775,775,775,773,764,759,754,750,744,689,642,595,564,533,466,443,430,424,417,414,414,414,414,414,414,414,414,414,414,414,419,422,425],"ymouse":[538,538,538,538,538,538,538,538,538,538,538,538,538,538,538,538,538,538,538,538,538,536,533,532,531,531,531,531,531,531,531,531,531,531,531,531,531,531,531,531,531,531,531,529,525,524,523,522,522,522,522,522,522,522,522,522,522,522,522,521,516,512,509,506,503,478,451,419,389,352,237,178,148,127,103,91,91,91,91,91,91,91,91,91,91,85,79,75,72],"timestamp_mouse":[15,30,50,70,90,110,129,150,170,190,210,230,250,270,290,310,330,350,369,390,410,431,450,470,490,510,530,550,571,590,610,631,650,670,690,711,730,751,770,789,811,829,851,870,890,910,930,950,970,990,1010,1030,1050,1070,1090,1110,1130,1150,1170,1190,1211,1230,1250,1270,1290,1310,1330,1350,1370,1390,1410,1430,1450,1470,1491,1511,1530,1550,1570,1590,1610,1630,1650,1670,1690,1710,1730,1750,1770],"xSR":741.5,"ySR":469.95,"xT1":424.9,"yT1":0,"xT2":1058.1,"yT2":0,"toosoon":0,"cond_shown":"Incongruent","ratio_trial":300,"L_num":8,"L_den":10,"R_num":14,"R_den":28,"correct_side":1,"subjID":"saraladino19","gender":"1","school":"6","age":"No_ag"},{"start_time":1551899705083,"click_time":1551899706987,"finger_time":1551899706406,"fix_duration":974.004942816937,"trial":15,"RT":1323,"MT":581,"sideResp":1,"stimulus":[],"xmouse":[815,815,815,815,815,815,815,815,815,815,815,815,815,815,815,815,815,815,815,815,815,815,815,815,815,815,815,815,815,815,815,815,815,815,815,815,815,815,815,815,815,815,815,815,815,815,815,815,815,815,815,815,815,815,815,815,815,815,815,815,815,815,815,815,776,743,725,712,702,687,682,682,682,684,685,686,686,683,682,672,663,651,632,619,577,550,526,519,519,519,519,519,518,516,509,503],"ymouse":[533,533,533,533,533,533,533,533,533,533,533,533,533,533,533,533,533,533,533,533,533,533,533,533,533,533,533,533,533,533,533,533,533,533,533,533,533,533,533,533,533,533,533,533,533,533,533,533,533,533,533,533,533,533,533,533,533,533,533,533,533,533,533,533,499,476,457,436,405,348,317,303,295,280,274,249,234,224,219,206,197,188,178,170,153,146,136,134,134,134,134,134,133,128,105,84],"timestamp_mouse":[10,24,43,65,85,105,124,145,164,184,204,225,243,265,283,305,324,344,365,384,404,424,444,464,484,504,524,543,564,585,604,624,644,664,684,704,725,744,763,784,805,824,844,863,884,904,924,944,965,984,1004,1025,1045,1065,1084,1104,1124,1144,1163,1184,1204,1224,1244,1265,1285,1305,1323,1344,1364,1384,1404,1425,1444,1466,1484,1504,1524,1544,1564,1585,1604,1624,1644,1666,1684,1704,1724,1744,1765,1785,1805,1825,1844,1864,1884,1904],"xSR":741.5,"ySR":469.95,"xT1":424.9,"yT1":0,"xT2":1058.1,"yT2":0,"toosoon":0,"cond_shown":"Incongruent","ratio_trial":100,"L_num":8,"L_den":20,"R_num":1,"R_den":2,"correct_side":2,"subjID":"saraladino19","gender":"1","school":"6","age":"No_ag"},{"start_time":1551899711760,"click_time":1551899712607,"finger_time":1551899712167,"fix_duration":1392.730013603786,"trial":16,"RT":407,"MT":440,"sideResp":1,"stimulus":[],"xmouse":[768,768,768,768,768,768,768,768,768,768,768,768,768,768,768,768,769,769,769,770,769,767,762,759,756,748,741,732,717,708,695,669,653,629,595,539,515,510,504,498,482,472,465],"ymouse":[506,506,506,506,506,506,506,506,506,506,506,506,506,506,506,506,506,504,500,488,461,445,427,415,408,388,373,356,330,317,300,277,265,250,231,189,156,150,140,133,113,102,95],"timestamp_mouse":[10,42,47,67,87,107,127,148,167,187,208,227,247,267,287,307,327,347,367,387,407,428,447,467,487,507,527,547,567,587,607,628,648,667,687,707,727,747,768,787,807,828,847],"xSR":741.5,"ySR":469.95,"xT1":424.9,"yT1":0,"xT2":1058.1,"yT2":0,"toosoon":0,"cond_shown":"Incongruent","ratio_trial":300,"L_num":4,"L_den":5,"R_num":8,"R_den":16,"correct_side":1,"subjID":"saraladino19","gender":"1","school":"6","age":"No_ag"},{"start_time":1551899715104,"click_time":1551899717327,"finger_time":1551899716627,"fix_duration":355.7230471003793,"trial":17,"RT":1523,"MT":700,"sideResp":2,"stimulus":[],"xmouse":[774,774,774,774,774,774,774,774,774,774,774,774,774,774,774,774,774,774,774,774,774,774,774,774,774,774,774,774,774,774,774,774,774,774,774,774,774,774,774,774,774,774,774,774,774,774,774,774,774,774,774,774,774,774,774,774,774,774,774,774,774,774,774,774,774,774,774,774,774,774,774,774,774,774,774,818,873,1022,1199,1385,1390,1391,1391,1351,1328,1314,1297,1275,1255,1251,1241,1225,1211,1204,1203,1203,1203,1203,1200,1198,1197,1196,1193,1186,1183,1181,1177,1175,1175,1170,1165,1151],"ymouse":[542,542,542,542,542,542,542,542,542,542,542,542,542,542,542,542,542,542,542,542,542,542,542,542,542,542,542,542,542,542,542,542,542,542,542,542,542,542,542,542,542,542,542,542,542,542,542,542,542,542,542,542,542,542,542,542,542,542,542,542,542,542,542,542,542,542,542,542,542,542,542,542,542,542,542,528,520,495,453,344,330,316,295,215,205,201,194,187,181,179,176,172,164,159,158,158,157,157,150,146,144,141,137,129,126,124,121,120,120,115,109,90],"timestamp_mouse":[9,32,43,62,84,103,123,144,163,183,203,223,243,263,283,303,323,343,364,383,403,423,443,464,483,503,523,543,563,583,603,623,644,663,684,703,723,744,763,783,803,823,844,864,883,904,923,943,962,983,1002,1023,1043,1063,1082,1103,1123,1143,1164,1183,1203,1222,1243,1263,1283,1304,1323,1344,1362,1383,1403,1423,1443,1463,1484,1503,1523,1543,1563,1583,1602,1623,1643,1664,1683,1704,1723,1743,1763,1783,1804,1823,1843,1863,1883,1903,1924,1943,1962,1983,2002,2024,2043,2065,2083,2104,2124,2143,2163,2182,2203,2222],"xSR":741.5,"ySR":469.95,"xT1":424.9,"yT1":0,"xT2":1058.1,"yT2":0,"toosoon":0,"cond_shown":"Congruent","ratio_trial":200,"L_num":3,"L_den":10,"R_num":14,"R_den":28,"correct_side":2,"subjID":"saraladino19","gender":"1","school":"6","age":"No_ag"},{"start_time":1551899719259,"click_time":1551899720767,"finger_time":1551899720647,"fix_duration":250,"trial":18,"RT":1388,"MT":120,"sideResp":1,"stimulus":[],"xmouse":[795,795,795,795,795,795,795,795,795,795,795,795,796,796,796,796,796,796,796,796,796,796,796,796,796,796,796,796,796,796,796,796,796,797,798,798,798,799,799,799,799,799,799,799,799,799,799,799,799,799,799,799,799,799,799,799,799,799,799,799,799,799,799,799,799,799,788,771,742,698,613,506,493,489,488,486],"ymouse":[542,542,542,542,542,542,542,542,542,542,542,542,542,542,542,542,542,542,542,542,542,542,542,542,542,542,542,542,542,542,542,542,542,542,541,540,540,539,539,539,539,539,539,539,539,539,539,539,539,539,539,539,539,539,539,539,539,539,539,539,539,539,539,539,539,535,525,510,483,427,288,138,119,109,104,99],"timestamp_mouse":[20,39,48,68,88,108,128,148,168,188,208,228,247,268,288,308,328,348,367,388,408,428,448,468,488,508,528,548,568,588,608,627,648,668,688,708,728,748,768,788,808,829,847,868,888,908,928,948,968,988,1008,1028,1049,1068,1088,1108,1128,1148,1167,1188,1208,1229,1248,1268,1287,1309,1329,1348,1368,1388,1408,1428,1448,1468,1488,1508],"xSR":741.5,"ySR":469.95,"xT1":424.9,"yT1":0,"xT2":1058.1,"yT2":0,"toosoon":0,"cond_shown":"Congruent","ratio_trial":300,"L_num":3,"L_den":6,"R_num":4,"R_den":5,"correct_side":2,"subjID":"saraladino19","gender":"1","school":"6","age":"No_ag"},{"start_time":1551899723147,"click_time":1551899724947,"finger_time":1551899724207,"fix_duration":357.86790546069835,"trial":19,"RT":1060,"MT":740,"sideResp":2,"stimulus":[],"xmouse":[823,823,823,823,823,823,823,823,823,823,823,823,823,823,823,823,823,823,823,823,823,823,823,823,823,823,823,823,823,823,823,823,823,823,823,823,823,823,823,823,823,823,823,823,823,823,823,823,823,823,822,822,833,844,857,870,903,991,1038,1076,1100,1113,1119,1126,1134,1142,1153,1160,1163,1163,1163,1156,1132,1095,1059,1047,1044,1043,1043,1043,1042,1042,1042,1046,1055,1065,1077,1094,1100,1104,1108],"ymouse":[508,508,508,508,508,508,508,508,508,508,508,508,508,508,508,508,508,508,508,508,508,508,508,508,508,508,508,508,508,508,508,508,508,508,508,508,508,508,508,508,508,508,508,508,508,508,508,508,508,508,508,507,476,461,442,427,403,357,343,338,335,333,331,328,323,317,309,303,293,290,287,278,257,229,211,203,199,195,193,189,184,179,166,157,146,138,129,115,108,101,91],"timestamp_mouse":[9,20,40,60,80,101,120,140,160,180,200,220,240,260,280,300,320,340,360,380,400,420,441,461,480,500,521,540,561,580,599,620,640,661,680,700,720,741,760,780,800,820,841,860,880,900,920,940,961,980,1000,1021,1040,1060,1081,1100,1120,1141,1160,1180,1200,1220,1240,1260,1280,1300,1320,1340,1360,1381,1400,1420,1442,1460,1481,1500,1519,1541,1560,1580,1599,1620,1641,1660,1680,1699,1720,1742,1760,1781,1799],"xSR":741.5,"ySR":469.95,"xT1":424.9,"yT1":0,"xT2":1058.1,"yT2":0,"toosoon":0,"cond_shown":"Congruent","ratio_trial":100,"L_num":4,"L_den":10,"R_num":15,"R_den":30,"correct_side":2,"subjID":"saraladino19","gender":"1","school":"6","age":"No_ag"},{"start_time":1551899728588,"click_time":1551899730607,"finger_time":1551899729487,"fix_duration":279.21247930808414,"trial":20,"RT":899,"MT":1120,"sideResp":2,"stimulus":[],"xmouse":[770,770,770,770,770,770,770,770,770,770,770,770,770,770,770,770,770,770,770,770,771,771,771,771,771,764,763,763,763,763,763,759,756,753,751,751,751,751,751,751,751,751,746,745,739,721,694,659,619,558,456,396,337,278,239,216,214,213,212,211,211,211,216,235,253,253,253,253,253,253,253,253,253,253,253,253,253,253,253,253,253,253,253,253,253,1435,1361,1272,1227,1204,1191,1183,1183,1183,1183,1183,1183,1183,1183,1178,1146],"ymouse":[544,544,544,544,544,544,544,544,544,544,544,544,544,544,544,544,544,544,544,544,541,537,532,528,524,510,509,508,508,508,508,508,506,506,505,505,505,505,505,505,505,505,504,503,501,490,475,458,432,381,272,216,164,114,77,42,36,31,24,21,17,14,10,4,0,0,0,0,0,0,0,0,0,0,0,0,0,0,0,0,0,0,0,0,0,5,26,49,60,67,71,74,74,74,74,74,74,74,74,70,52],"timestamp_mouse":[20,45,59,79,99,119,139,160,180,199,220,238,260,278,299,320,339,359,380,399,419,439,460,479,498,520,539,559,579,599,619,639,659,679,700,720,739,760,779,800,819,839,859,879,899,920,938,959,979,999,1019,1039,1058,1080,1099,1120,1139,1159,1180,1198,1219,1239,1259,1278,1298,1320,1338,1358,1379,1399,1419,1439,1459,1479,1499,1519,1539,1560,1579,1600,1620,1639,1658,1680,1700,1720,1739,1759,1780,1800,1819,1839,1859,1879,1900,1920,1938,1959,1980,1999,2019],"xSR":741.5,"ySR":469.95,"xT1":424.9,"yT1":0,"xT2":1058.1,"yT2":0,"toosoon":0,"cond_shown":"Congruent","ratio_trial":200,"L_num":9,"L_den":30,"R_num":13,"R_den":26,"correct_side":2,"subjID":"saraladino19","gender":"1","school":"6","age":"No_ag"},{"start_time":1551899733919,"click_time":1551899735568,"finger_time":1551899735067,"fix_duration":250,"trial":21,"RT":1148,"MT":501,"sideResp":2,"stimulus":[],"xmouse":[761,761,761,761,761,761,761,761,761,761,761,761,761,761,761,761,761,761,761,761,761,761,761,761,761,761,761,761,761,761,761,762,763,763,763,763,763,763,763,763,763,764,764,764,764,764,764,764,764,764,764,764,764,765,766,776,781,790,803,819,852,865,875,888,904,934,944,953,960,965,996,1017,1045,1066,1068,1068,1069,1073,1084,1096,1106,1105,1101],"ymouse":[550,550,550,550,550,550,550,550,550,550,550,550,550,550,550,550,550,550,550,550,550,550,550,550,550,550,550,550,550,550,550,536,530,529,529,529,529,529,529,529,524,522,520,519,518,516,515,514,513,512,512,512,512,512,509,486,473,460,441,418,388,375,362,345,326,286,270,254,244,238,232,232,232,232,232,232,232,227,212,193,132,109,93],"timestamp_mouse":[13,37,48,68,88,108,128,148,168,188,208,228,248,268,288,308,328,348,367,388,408,429,448,468,488,508,529,549,568,589,608,628,648,668,688,708,728,748,769,788,809,828,848,868,888,909,928,948,967,988,1009,1028,1048,1068,1088,1109,1128,1148,1168,1187,1208,1228,1249,1269,1288,1308,1329,1348,1368,1388,1408,1428,1448,1467,1488,1508,1528,1548,1568,1588,1609,1628,1649],"xSR":741.5,"ySR":469.95,"xT1":424.9,"yT1":0,"xT2":1058.1,"yT2":0,"toosoon":0,"cond_shown":"Incongruent","ratio_trial":300,"L_num":13,"L_den":26,"R_num":12,"R_den":15,"correct_side":2,"subjID":"saraladino19","gender":"1","school":"6","age":"No_ag"},{"start_time":1551899738014,"click_time":1551899745388,"finger_time":1551899744688,"fix_duration":1145.6575328522526,"trial":22,"RT":6674,"MT":700,"sideResp":2,"stimulus":[],"xmouse":[762,762,762,762,762,762,762,762,762,762,762,762,762,762,762,762,762,762,762,762,762,762,762,762,762,762,762,762,762,762,762,762,762,762,762,762,762,762,762,762,762,762,762,762,762,762,762,762,762,762,762,762,762,762,762,762,762,762,762,762,762,762,762,762,762,762,762,762,762,762,762,762,762,762,762,762,762,762,762,762,762,762,762,762,762,762,762,762,762,762,762,762,762,762,762,762,762,762,762,762,762,762,762,762,762,762,762,762,762,762,762,762,762,762,762,762,762,762,762,762,762,762,762,762,762,762,762,762,762,762,762,762,762,762,762,762,762,762,762,762,762,762,762,762,762,762,762,762,762,762,762,762,762,762,762,762,762,762,762,762,762,762,762,762,762,762,762,762,762,762,762,762,762,762,762,762,762,762,762,762,762,762,762,762,762,762,762,762,762,762,762,762,762,762,762,762,762,762,762,762,762,762,762,762,762,762,762,762,762,762,762,762,762,762,762,762,762,762,762,762,762,762,762,762,762,762,762,762,762,762,762,762,762,762,762,762,762,762,762,762,762,762,762,762,762,762,762,762,762,762,762,762,762,762,762,762,762,762,762,762,762,762,762,762,762,762,762,762,762,762,762,762,762,762,762,762,762,762,762,762,762,762,762,762,762,762,762,762,762,762,762,762,762,762,762,762,762,762,762,762,762,762,762,762,762,762,762,762,762,762,762,762,762,762,762,762,762,762,762,762,762,762,762,762,762,762,762,762,762,766,772,814,834,850,854,855,855,855,855,855,855,855,855,855,855,856,862,863,864,869,878,907,924,935,946,956,966,968,972,977,987,1006,1014,1021,1026,1032,1048,1054,1064],"ymouse":[515,515,515,515,515,515,515,515,515,515,515,515,515,515,515,515,515,515,515,515,515,515,515,515,515,515,515,515,515,515,515,515,515,515,515,515,515,515,515,515,515,515,515,515,515,515,515,515,515,515,515,515,515,515,515,515,515,515,515,515,515,515,515,515,515,515,515,515,515,515,515,515,515,515,515,515,515,515,515,515,515,515,515,515,515,515,515,515,515,515,515,515,515,515,515,515,515,515,515,515,515,515,515,515,515,515,515,515,515,515,515,515,515,515,515,515,515,515,515,515,515,515,515,515,515,515,515,515,515,515,515,515,515,515,515,515,515,515,515,515,515,515,515,515,515,515,515,515,515,515,515,515,515,515,515,515,515,515,515,515,515,515,515,515,515,515,515,515,515,515,515,515,515,515,515,515,515,515,515,515,515,515,515,515,515,515,515,515,515,515,515,515,515,515,515,515,515,515,515,515,515,515,515,515,515,515,515,515,515,515,515,515,515,515,515,515,515,515,515,515,515,515,515,515,515,515,515,515,515,515,515,515,515,515,515,515,515,515,515,515,515,515,515,515,515,515,515,515,515,515,515,515,515,515,515,515,515,515,515,515,515,515,515,515,515,515,515,515,515,515,515,515,515,515,515,515,515,515,515,515,515,515,515,515,515,515,515,515,515,515,515,515,515,515,515,515,515,515,515,515,515,515,515,515,515,515,515,515,515,515,515,515,515,515,515,515,515,515,515,515,515,515,515,515,515,515,515,515,515,514,512,500,495,490,489,489,489,489,489,489,489,488,482,471,458,446,427,421,419,408,391,320,287,266,246,233,215,211,203,195,181,164,159,154,149,143,123,112,94],"timestamp_mouse":[13,40,53,73,93,113,133,154,174,193,213,233,253,273,294,314,333,353,373,393,414,433,453,473,493,513,534,553,573,593,613,634,653,673,694,714,733,753,773,794,813,833,853,874,894,913,933,954,972,993,1013,1032,1053,1073,1093,1113,1133,1153,1172,1193,1213,1233,1253,1273,1293,1313,1333,1352,1373,1393,1414,1433,1453,1473,1493,1513,1533,1554,1573,1593,1613,1633,1654,1673,1693,1713,1733,1753,1773,1792,1813,1833,1853,1872,1893,1913,1932,1953,1973,1993,2013,2033,2053,2073,2092,2113,2133,2153,2173,2193,2213,2232,2253,2273,2293,2313,2333,2353,2373,2393,2413,2432,2454,2473,2494,2513,2533,2553,2572,2593,2613,2633,2653,2672,2693,2712,2733,2753,2773,2793,2813,2834,2853,2872,2893,2913,2933,2953,2973,2993,3012,3033,3052,3073,3093,3113,3133,3153,3173,3192,3213,3233,3253,3273,3293,3313,3334,3353,3373,3393,3412,3433,3453,3473,3493,3513,3533,3553,3574,3593,3613,3634,3653,3673,3694,3713,3733,3753,3773,3793,3813,3832,3853,3873,3893,3913,3933,3953,3972,3993,4013,4033,4053,4073,4093,4113,4133,4153,4173,4193,4213,4233,4253,4273,4293,4313,4333,4353,4373,4393,4413,4432,4453,4473,4493,4513,4533,4553,4572,4593,4613,4633,4653,4673,4694,4713,4733,4753,4773,4793,4813,4833,4853,4874,4893,4913,4934,4953,4973,4993,5013,5032,5053,5073,5093,5113,5133,5153,5172,5193,5214,5233,5253,5273,5292,5313,5333,5353,5373,5393,5413,5433,5453,5473,5493,5513,5533,5552,5573,5593,5613,5633,5653,5673,5693,5713,5733,5753,5773,5793,5813,5833,5853,5873,5893,5913,5932,5953,5973,5993,6013,6033,6053,6073,6093,6115,6132,6153,6173,6193,6213,6233,6254,6273,6294,6314,6333,6353,6373,6393,6412,6433,6453,6473,6493,6513,6533,6554,6573,6593,6614,6632,6653,6674,6693,6713,6733,6753,6773,6793,6813,6833,6854,6873,6892,6912,6933,6952,6972,6992,7013,7033,7053,7073,7092,7115,7133,7153,7172,7193,7213,7233,7253,7273,7292,7313,7333,7353,7373],"xSR":741.5,"ySR":469.95,"xT1":424.9,"yT1":0,"xT2":1058.1,"yT2":0,"toosoon":0,"cond_shown":"Congruent","ratio_trial":200,"L_num":20,"L_den":25,"R_num":9,"R_den":15,"correct_side":1,"subjID":"saraladino19","gender":"1","school":"6","age":"No_ag"},{"start_time":1551899747558,"click_time":1551899748908,"finger_time":1551899748007,"fix_duration":250,"trial":23,"RT":449,"MT":901,"sideResp":1,"stimulus":[],"xmouse":[783,783,782,782,781,780,780,779,778,778,778,778,778,778,778,778,778,778,778,776,773,767,759,752,749,749,749,749,749,749,749,749,749,749,749,749,749,749,749,749,749,738,717,679,582,551,545,542,539,537,530,527,524,523,523,523,524,524,524,524,523,520,517,516,514,514,513,509],"ymouse":[542,542,541,541,539,537,535,534,533,533,533,533,533,533,533,533,533,533,532,524,510,479,457,445,441,441,441,441,441,441,441,441,441,441,441,441,441,441,441,441,440,435,423,402,342,316,301,281,262,245,224,216,209,206,198,191,184,175,170,161,157,147,139,134,121,113,103,90],"timestamp_mouse":[12,31,48,69,89,109,129,149,169,189,210,229,249,270,290,309,330,349,370,389,409,429,449,469,489,509,529,550,569,590,610,628,649,668,689,709,730,749,769,790,808,829,850,869,888,909,929,949,969,989,1009,1029,1049,1070,1090,1110,1129,1148,1169,1190,1210,1229,1250,1269,1290,1309,1330,1349],"xSR":741.5,"ySR":469.95,"xT1":424.9,"yT1":0,"xT2":1058.1,"yT2":0,"toosoon":0,"cond_shown":"Congruent","ratio_trial":200,"L_num":6,"L_den":12,"R_num":7,"R_den":10,"correct_side":2,"subjID":"saraladino19","gender":"1","school":"6","age":"No_ag"},{"start_time":1551899751188,"click_time":1551899752469,"finger_time":1551899751889,"fix_duration":715.9189061151761,"trial":24,"RT":701,"MT":580,"sideResp":1,"stimulus":[],"xmouse":[764,764,764,764,764,764,764,764,764,764,764,764,764,764,764,764,764,764,764,764,764,764,764,764,764,764,764,764,764,764,764,764,764,764,764,735,696,646,598,569,569,569,569,569,569,569,569,569,569,569,569,569,569,569,572,574,574,574,574,575,575,568,557,544,513],"ymouse":[511,511,511,511,511,511,511,511,511,511,511,511,511,511,511,511,511,511,511,511,511,511,511,511,511,511,511,511,511,511,511,511,511,511,502,451,385,307,226,183,182,182,182,182,182,181,179,173,165,157,154,152,151,149,148,148,148,148,148,148,143,131,116,107,96],"timestamp_mouse":[9,21,41,62,82,102,121,141,161,181,201,222,242,261,283,302,321,341,362,382,402,422,441,461,481,501,521,542,563,581,601,621,641,661,682,701,721,741,761,781,801,822,841,861,881,902,921,941,962,981,1002,1022,1042,1063,1081,1101,1121,1141,1162,1181,1202,1223,1242,1261,1281],"xSR":741.5,"ySR":469.95,"xT1":424.9,"yT1":0,"xT2":1058.1,"yT2":0,"toosoon":0,"cond_shown":"Incongruent","ratio_trial":100,"L_num":12,"L_den":30,"R_num":2,"R_den":4,"correct_side":2,"subjID":"saraladino19","gender":"1","school":"6","age":"No_ag"},{"start_time":1551899754080,"click_time":1551899755970,"finger_time":1551899755529,"fix_duration":250,"trial":25,"RT":1449,"MT":441,"sideResp":1,"stimulus":[],"xmouse":[802,802,802,802,802,802,802,802,802,802,802,802,802,802,802,804,804,805,805,805,805,805,805,805,805,805,805,805,805,805,805,805,805,805,805,805,805,805,805,805,805,805,805,805,805,805,805,805,805,805,805,805,805,805,805,805,805,805,805,805,805,805,805,805,805,805,805,805,805,805,805,797,751,688,495,430,393,385,382,379,378,377,377,377,377,377,377,377,377,390,392,392,393,404,438],"ymouse":[530,530,530,530,530,530,530,530,530,530,530,530,530,530,530,527,522,518,514,511,511,511,511,511,511,511,511,511,511,511,511,511,511,511,511,511,511,511,511,511,511,511,511,511,511,511,511,511,511,511,511,511,511,511,511,511,511,511,511,511,511,511,511,511,511,511,511,511,511,511,503,493,440,370,208,152,123,113,108,89,81,70,56,51,48,48,47,47,44,41,41,40,40,40,40],"timestamp_mouse":[9,40,50,70,90,109,129,149,169,189,209,229,250,269,289,309,329,349,369,389,409,429,449,469,489,509,529,549,569,589,609,631,651,669,691,709,730,749,769,789,809,829,849,869,889,909,929,949,969,989,1010,1029,1050,1070,1089,1109,1129,1150,1169,1189,1209,1229,1249,1269,1290,1309,1329,1349,1369,1390,1411,1429,1449,1469,1489,1510,1531,1551,1569,1590,1609,1629,1649,1669,1690,1710,1731,1750,1771,1789,1811,1830,1849,1869,1890],"xSR":741.5,"ySR":469.95,"xT1":424.9,"yT1":0,"xT2":1058.1,"yT2":0,"toosoon":0,"cond_shown":"Incongruent","ratio_trial":300,"L_num":1,"L_den":2,"R_num":2,"R_den":10,"correct_side":1,"subjID":"saraladino19","gender":"1","school":"6","age":"No_ag"},{"start_time":1551899758608,"click_time":1551899760070,"finger_time":1551899759590,"fix_duration":1418.8992228884338,"trial":26,"RT":982,"MT":480,"sideResp":2,"stimulus":[],"xmouse":[772,772,772,772,772,772,772,772,772,772,772,772,772,772,772,772,772,772,772,772,772,772,773,773,773,773,773,773,773,773,773,773,774,774,774,774,774,774,774,774,774,774,774,774,763,762,762,762,762,822,927,1059,1168,1300,1300,1300,1300,1300,1300,1300,1300,1300,1300,1300,1300,1300,1300,1300,1300,1300,1300,1300,1159,1156],"ymouse":[527,527,527,527,527,527,527,527,527,527,527,527,527,527,527,527,527,527,527,527,527,526,524,524,524,524,524,524,524,524,523,522,521,521,521,521,521,521,521,521,521,521,521,521,518,517,517,517,516,411,292,185,121,22,22,22,22,22,22,22,22,22,22,22,22,22,22,22,22,22,22,22,1,8],"timestamp_mouse":[10,21,46,62,81,102,121,141,161,182,202,222,241,261,282,301,322,342,361,381,401,421,441,463,482,502,521,541,561,581,601,621,641,661,681,701,721,742,761,783,801,821,841,862,881,901,921,941,961,982,1002,1022,1042,1063,1082,1101,1121,1141,1162,1181,1201,1222,1242,1263,1283,1302,1323,1342,1363,1382,1402,1422,1442,1462],"xSR":741.5,"ySR":469.95,"xT1":424.9,"yT1":0,"xT2":1058.1,"yT2":0,"toosoon":0,"cond_shown":"Incongruent","ratio_trial":300,"L_num":13,"L_den":26,"R_num":12,"R_den":15,"correct_side":2,"subjID":"saraladino19","gender":"1","school":"6","age":"No_ag"},{"start_time":1551899765400,"click_time":1551899767250,"finger_time":1551899766629,"fix_duration":1110.7705360511302,"trial":27,"RT":1229,"MT":621,"sideResp":1,"stimulus":[],"xmouse":[768,768,768,768,768,768,768,768,768,768,768,768,768,768,768,768,768,768,768,768,768,768,768,768,768,768,768,768,768,768,768,768,768,768,768,768,768,768,768,768,768,768,768,768,768,768,768,768,768,768,768,768,768,768,768,768,768,768,768,768,768,731,611,477,355,288,286,286,282,267,255,251,248,247,246,246,246,248,252,270,295,308,318,323,331,335,335,335,335,337,367,400,435],"ymouse":[517,517,517,517,517,517,517,517,517,517,517,517,517,517,517,517,517,517,517,517,517,517,517,517,517,517,517,517,517,517,517,517,517,517,517,517,517,517,517,517,517,517,517,517,517,517,517,517,517,517,517,517,517,517,517,517,517,517,517,517,516,492,447,396,363,329,326,317,295,232,190,174,163,154,140,134,130,126,122,108,95,88,83,82,79,78,78,78,78,78,76,76,76],"timestamp_mouse":[9,36,49,70,89,110,129,149,170,190,209,231,249,270,290,309,329,350,371,390,409,429,449,469,490,509,529,549,570,589,610,629,650,669,689,710,731,751,769,789,810,830,849,869,889,910,929,951,969,989,1010,1030,1049,1069,1089,1109,1129,1149,1169,1189,1210,1229,1249,1269,1290,1309,1329,1349,1369,1390,1410,1430,1449,1469,1491,1509,1530,1549,1569,1591,1609,1629,1649,1669,1691,1709,1729,1749,1769,1791,1809,1830,1850],"xSR":741.5,"ySR":469.95,"xT1":424.9,"yT1":0,"xT2":1058.1,"yT2":0,"toosoon":0,"cond_shown":"Congruent","ratio_trial":300,"L_num":11,"L_den":22,"R_num":4,"R_den":20,"correct_side":1,"subjID":"saraladino19","gender":"1","school":"6","age":"No_ag"},{"start_time":1551899769937,"click_time":1551899771310,"finger_time":1551899771010,"fix_duration":1287.0886123759494,"trial":28,"RT":1073,"MT":300,"sideResp":1,"stimulus":[],"xmouse":[763,763,763,763,763,763,763,763,763,763,763,763,763,763,763,763,763,763,763,763,763,763,763,763,763,763,763,763,763,763,763,763,763,763,763,763,763,763,763,763,763,763,763,763,763,763,763,763,755,751,748,745,744,740,740,740,739,737,733,730,728,725,724,721,706,670,594,513,428],"ymouse":[543,543,543,543,543,543,543,543,543,546,549,556,556,556,556,556,556,556,556,558,559,559,559,559,559,559,559,559,559,559,544,528,517,510,509,509,509,509,509,509,509,509,509,509,509,509,509,506,496,490,487,485,485,485,485,484,483,482,476,474,471,468,464,435,401,327,248,175,87],"timestamp_mouse":[12,35,53,72,94,113,132,153,173,194,212,233,252,272,293,314,332,352,372,394,412,432,452,472,492,513,532,552,573,592,613,632,652,672,692,712,732,752,773,793,812,832,852,872,892,913,934,952,972,993,1012,1033,1054,1073,1093,1112,1133,1153,1172,1192,1213,1232,1252,1273,1293,1313,1332,1352,1373],"xSR":741.5,"ySR":469.95,"xT1":424.9,"yT1":0,"xT2":1058.1,"yT2":0,"toosoon":0,"cond_shown":"Incongruent","ratio_trial":200,"L_num":7,"L_den":15,"R_num":4,"R_den":6,"correct_side":2,"subjID":"saraladino19","gender":"1","school":"6","age":"No_ag"},{"start_time":1551899774950,"click_time":1551899776210,"finger_time":1551899775729,"fix_duration":638.3920443403309,"trial":29,"RT":779,"MT":481,"sideResp":1,"stimulus":[],"xmouse":[770,770,770,770,770,770,770,770,770,770,770,770,770,770,770,770,770,770,770,770,770,770,770,770,770,770,770,770,770,770,770,770,770,770,770,770,770,771,754,729,710,691,671,622,602,590,582,576,567,560,556,553,551,548,548,545,545,545,545,545,544,540,531,513],"ymouse":[508,508,508,508,508,508,508,508,508,508,508,508,508,508,508,508,508,508,508,508,508,508,508,508,508,508,508,508,508,508,508,508,508,508,508,508,508,509,503,489,474,454,427,330,282,250,223,199,159,133,119,105,96,86,82,77,75,75,75,75,74,73,72,69],"timestamp_mouse":[1,20,46,59,79,100,121,139,159,179,199,220,240,259,279,299,319,341,359,379,399,419,439,460,481,500,520,539,560,580,599,620,640,659,681,700,721,739,759,779,800,820,839,860,880,900,920,940,961,980,1000,1019,1041,1060,1080,1099,1121,1139,1159,1180,1199,1221,1240,1260],"xSR":741.5,"ySR":469.95,"xT1":424.9,"yT1":0,"xT2":1058.1,"yT2":0,"toosoon":0,"cond_shown":"Incongruent","ratio_trial":200,"L_num":4,"L_den":6,"R_num":14,"R_den":30,"correct_side":1,"subjID":"saraladino19","gender":"1","school":"6","age":"No_ag"},{"start_time":1551899783050,"click_time":1551899784431,"finger_time":1551899784209,"fix_duration":718.4392912378034,"trial":30,"RT":1159,"MT":222,"sideResp":2,"stimulus":[],"xmouse":[802,802,802,802,802,802,802,802,802,802,802,802,802,802,802,802,802,802,802,802,802,802,802,802,802,802,802,802,802,802,802,802,802,802,802,802,802,802,802,802,802,802,802,802,802,802,802,802,802,802,802,802,802,802,802,802,810,819,838,930,970,1005,1018,1027,1043,1053,1064,1071,1078,1084],"ymouse":[545,545,545,545,545,545,545,545,545,545,545,545,545,545,545,545,545,545,545,545,545,545,545,545,545,545,545,545,545,545,545,545,545,545,545,545,545,545,545,545,545,545,545,545,545,545,545,545,545,545,545,545,545,545,545,545,528,509,469,328,273,228,208,191,157,140,125,112,101,91],"timestamp_mouse":[9,20,42,61,79,101,120,139,159,180,199,219,239,259,279,300,320,341,360,379,399,421,440,461,479,500,519,540,559,579,599,620,639,660,679,699,719,739,760,780,801,820,839,859,880,900,921,939,959,979,1000,1019,1039,1059,1079,1099,1120,1139,1159,1180,1199,1221,1241,1259,1280,1299,1320,1340,1361,1380],"xSR":741.5,"ySR":469.95,"xT1":424.9,"yT1":0,"xT2":1058.1,"yT2":0,"toosoon":0,"cond_shown":"Congruent","ratio_trial":200,"L_num":5,"L_den":10,"R_num":14,"R_den":20,"correct_side":2,"subjID":"saraladino19","gender":"1","school":"6","age":"No_ag"},{"start_time":1551899802106,"click_time":1551899803450,"finger_time":1551899803371,"fix_duration":714.2920198095925,"trial":31,"RT":1265,"MT":79,"sideResp":2,"stimulus":[],"xmouse":[797,797,797,797,797,797,797,797,797,797,797,797,797,797,797,797,797,797,797,797,797,797,797,797,797,797,797,797,797,797,797,797,797,797,797,797,797,797,797,797,797,797,797,797,797,797,797,797,797,797,797,797,797,797,797,797,797,797,797,797,797,798,806,884,930,975,1032,1060],"ymouse":[517,517,517,517,517,517,517,517,517,517,517,517,517,517,517,517,517,517,517,517,517,517,517,517,517,517,517,517,517,517,517,517,517,517,517,517,517,517,517,517,517,517,517,517,517,517,517,517,517,517,517,517,517,517,517,517,517,517,517,517,517,508,493,328,220,131,47,13],"timestamp_mouse":[9,34,43,64,85,103,123,143,163,185,203,223,244,264,284,304,323,343,364,383,404,424,444,463,483,503,524,543,565,585,603,623,643,663,684,703,723,743,763,783,803,823,843,863,883,904,925,944,964,983,1004,1024,1043,1063,1083,1103,1123,1143,1165,1183,1204,1225,1245,1265,1284,1303,1324,1343],"xSR":741.5,"ySR":469.95,"xT1":424.9,"yT1":0,"xT2":1058.1,"yT2":0,"toosoon":0,"cond_shown":"Congruent","ratio_trial":300,"L_num":5,"L_den":25,"R_num":6,"R_den":12,"correct_side":2,"subjID":"saraladino19","gender":"1","school":"6","age":"No_ag"},{"start_time":1551899808293,"click_time":1551899809630,"finger_time":1551899809510,"fix_duration":962.2651750012732,"trial":32,"RT":1217,"MT":120,"sideResp":2,"stimulus":[],"xmouse":[790,790,790,790,790,790,790,790,790,790,790,790,790,790,790,790,790,790,790,790,790,790,790,790,790,790,790,790,790,790,790,790,790,790,790,790,790,790,790,790,790,790,790,790,790,790,790,790,790,790,790,790,790,790,790,790,790,790,790,800,816,833,863,903,954,1054,1107],"ymouse":[543,543,543,543,543,543,543,543,543,543,543,543,543,543,543,543,543,543,543,543,543,543,543,543,543,543,543,543,543,543,543,543,543,543,543,543,543,543,543,543,543,543,543,543,543,543,543,543,543,543,543,543,543,543,543,543,543,543,542,478,421,364,299,230,166,57,3],"timestamp_mouse":[17,45,58,77,98,116,136,156,176,198,216,236,257,276,296,316,336,358,377,396,417,436,456,477,496,516,536,557,576,596,617,636,656,676,696,717,737,756,776,798,817,836,856,876,896,917,936,956,976,996,1016,1036,1056,1078,1098,1116,1136,1156,1176,1197,1217,1237,1257,1277,1297,1318,1337],"xSR":741.5,"ySR":469.95,"xT1":424.9,"yT1":0,"xT2":1058.1,"yT2":0,"toosoon":0,"cond_shown":"Incongruent","ratio_trial":300,"L_num":4,"L_den":20,"R_num":2,"R_den":4,"correct_side":2,"subjID":"saraladino19","gender":"1","school":"6","age":"No_ag"},{"start_time":1551899811780,"click_time":1551899813650,"finger_time":1551899813171,"fix_duration":468.7472867340784,"trial":33,"RT":1391,"MT":479,"sideResp":1,"stimulus":[],"xmouse":[769,769,769,769,769,769,769,769,769,769,769,769,769,769,769,769,769,769,769,769,769,769,769,769,769,769,769,769,769,769,769,769,769,769,769,769,769,769,769,769,769,769,769,769,769,769,769,769,769,769,769,769,769,769,769,769,769,769,769,769,770,770,770,770,770,770,770,769,761,714,631,436,421,419,419,419,424,426,430,433,440,446,451,458,461,467,467,467,467,465,465,465,467,469],"ymouse":[525,524,524,524,524,524,524,524,524,524,524,524,524,524,524,524,524,524,524,524,524,524,524,524,524,524,524,524,524,524,524,524,524,524,524,524,524,524,524,524,524,524,524,524,524,524,524,524,524,524,524,524,524,524,524,524,524,524,524,523,521,521,521,521,521,521,521,520,516,496,464,379,361,349,337,325,310,306,300,295,281,271,263,253,247,229,217,201,181,166,147,124,110,96],"timestamp_mouse":[10,31,55,70,89,110,130,150,171,190,210,230,251,270,290,310,330,350,371,390,409,430,450,470,490,510,530,550,570,590,610,630,650,670,690,710,730,750,770,790,810,830,850,870,891,910,930,950,970,990,1011,1030,1050,1070,1090,1110,1130,1150,1170,1191,1211,1230,1250,1270,1291,1310,1330,1350,1371,1391,1411,1430,1450,1470,1491,1510,1530,1550,1570,1590,1612,1630,1650,1670,1690,1712,1730,1750,1770,1791,1810,1830,1850,1870],"xSR":741.5,"ySR":469.95,"xT1":424.9,"yT1":0,"xT2":1058.1,"yT2":0,"toosoon":0,"cond_shown":"Incongruent","ratio_trial":100,"L_num":2,"L_den":4,"R_num":6,"R_den":15,"correct_side":1,"subjID":"saraladino19","gender":"1","school":"6","age":"No_ag"},{"start_time":1551899816320,"click_time":1551899817410,"finger_time":1551899816530,"fix_duration":988.154816006568,"trial":34,"RT":210,"MT":880,"sideResp":2,"stimulus":[],"xmouse":[777,777,777,777,777,777,777,774,772,761,752,751,748,748,748,748,748,748,748,748,748,748,748,748,748,748,748,748,748,752,788,811,843,875,928,942,956,959,961,963,963,964,966,967,974,981,990,1002,1015,1035,1047,1053,1057,1063,1067],"ymouse":[523,523,523,523,523,523,523,531,535,560,577,579,583,584,584,584,584,584,584,584,584,584,584,584,584,584,584,584,584,575,502,453,402,353,282,266,250,247,244,242,242,240,239,236,227,217,204,188,172,144,127,117,111,104,97],"timestamp_mouse":[10,40,51,71,90,114,130,150,170,190,210,230,251,270,291,310,329,351,370,390,410,430,450,470,491,510,531,550,571,590,610,630,650,670,690,710,731,750,770,790,810,830,850,870,890,910,930,949,970,990,1010,1030,1050,1070,1090],"xSR":741.5,"ySR":469.95,"xT1":424.9,"yT1":0,"xT2":1058.1,"yT2":0,"toosoon":0,"cond_shown":"Congruent","ratio_trial":100,"L_num":9,"L_den":15,"R_num":8,"R_den":16,"correct_side":1,"subjID":"saraladino19","gender":"1","school":"6","age":"No_ag"},{"start_time":1551899819548,"click_time":1551899820790,"finger_time":1551899820270,"fix_duration":516.15853559081,"trial":35,"RT":722,"MT":520,"sideResp":2,"stimulus":[],"xmouse":[768,768,768,768,768,768,768,768,768,768,768,768,768,768,768,768,768,768,768,768,768,768,768,768,768,768,768,768,768,768,768,768,768,768,768,772,785,802,828,914,954,983,1011,1054,1070,1080,1081,1081,1081,1087,1091,1094,1096,1096,1096,1096,1096,1096,1096,1096,1096,1096,1096],"ymouse":[505,505,505,505,505,505,505,505,505,505,505,505,505,505,505,505,505,505,505,505,505,505,505,505,505,505,505,505,505,505,505,505,505,505,505,494,468,440,391,256,212,184,163,143,139,136,136,136,136,122,114,106,103,101,101,101,101,101,101,101,101,100,93],"timestamp_mouse":[9,38,42,62,83,102,123,143,162,182,202,222,242,262,282,304,322,342,363,382,402,422,443,463,482,502,523,542,562,582,602,622,642,662,682,702,722,743,763,782,802,822,842,864,882,903,922,942,962,982,1002,1022,1042,1063,1082,1102,1123,1142,1162,1182,1202,1222,1242],"xSR":741.5,"ySR":469.95,"xT1":424.9,"yT1":0,"xT2":1058.1,"yT2":0,"toosoon":0,"cond_shown":"Congruent","ratio_trial":100,"L_num":6,"L_den":20,"R_num":5,"R_den":25,"correct_side":1,"subjID":"saraladino19","gender":"1","school":"6","age":"No_ag"},{"start_time":1551899822726,"click_time":1551899823870,"finger_time":1551899823431,"fix_duration":514.8095465946444,"trial":36,"RT":705,"MT":439,"sideResp":1,"stimulus":[],"xmouse":[809,809,809,809,809,809,809,809,809,809,809,809,809,809,809,809,809,809,809,809,809,809,809,809,809,809,809,809,809,809,809,809,808,808,803,751,715,678,645,617,603,599,596,591,587,585,584,583,582,582,582,582,582,582,582,560,527,487],"ymouse":[558,558,558,558,558,558,558,558,558,558,558,558,558,558,558,558,558,558,558,558,558,558,558,558,558,558,558,558,558,558,558,558,557,556,528,433,376,315,263,212,177,163,150,134,122,111,108,106,105,105,105,105,105,105,105,99,93,83],"timestamp_mouse":[10,39,44,65,84,104,124,144,164,184,204,224,244,264,284,304,324,345,364,385,404,424,444,464,484,504,523,544,564,584,604,624,645,665,685,705,724,744,765,784,804,824,845,864,884,904,925,945,964,986,1003,1025,1044,1065,1084,1103,1125,1144],"xSR":741.5,"ySR":469.95,"xT1":424.9,"yT1":0,"xT2":1058.1,"yT2":0,"toosoon":0,"cond_shown":"Incongruent","ratio_trial":200,"L_num":4,"L_den":6,"R_num":14,"R_den":30,"correct_side":1,"subjID":"saraladino19","gender":"1","school":"6","age":"No_ag"},{"start_time":1551899826115,"click_time":1551899827350,"finger_time":1551899826850,"fix_duration":823.6163580021847,"trial":37,"RT":735,"MT":500,"sideResp":2,"stimulus":[],"xmouse":[791,791,791,791,791,791,791,791,791,791,791,791,791,791,791,791,791,791,791,791,791,791,791,791,791,791,791,791,791,791,791,791,791,791,791,791,791,792,799,809,823,849,864,882,894,909,916,924,931,941,973,988,997,1001,1002,1002,1004,1008,1016,1028,1049,1062],"ymouse":[476,476,476,476,476,476,476,476,476,476,476,476,476,476,476,476,476,476,476,476,476,476,476,476,476,476,476,476,476,476,476,476,476,476,476,476,442,392,353,303,270,231,212,195,185,171,163,152,141,129,110,103,98,95,95,94,92,86,80,75,63,54],"timestamp_mouse":[15,36,55,74,95,115,136,155,175,195,215,235,255,275,295,315,335,356,375,396,415,437,456,475,495,515,536,556,576,595,615,635,655,675,695,715,735,756,775,795,815,835,856,876,895,916,934,955,975,995,1017,1035,1055,1076,1095,1115,1135,1155,1176,1195,1216,1235],"xSR":741.5,"ySR":469.95,"xT1":424.9,"yT1":0,"xT2":1058.1,"yT2":0,"toosoon":0,"cond_shown":"Congruent","ratio_trial":100,"L_num":7,"L_den":14,"R_num":15,"R_den":25,"correct_side":2,"subjID":"saraladino19","gender":"1","school":"6","age":"No_ag"},{"start_time":1551899828843,"click_time":1551899830330,"finger_time":1551899829830,"fix_duration":250,"trial":38,"RT":987,"MT":500,"sideResp":2,"stimulus":[],"xmouse":[795,795,795,795,795,795,795,795,795,795,795,795,795,795,795,795,795,795,795,795,795,795,795,795,795,795,795,795,795,795,795,795,795,795,795,795,795,795,795,795,795,795,795,795,795,795,799,802,808,830,870,884,897,910,937,1007,1035,1054,1062,1066,1069,1070,1071,1072,1073,1075,1076,1078,1079,1085,1087,1089,1090,1091,1101],"ymouse":[563,563,563,563,563,563,563,563,563,563,563,563,563,563,563,563,563,563,563,563,563,563,563,563,563,563,563,563,563,563,563,563,563,563,563,563,563,563,563,563,563,563,563,563,563,563,535,520,481,422,334,312,294,280,263,232,221,212,207,203,195,190,184,176,170,164,159,154,148,133,128,125,122,118,85],"timestamp_mouse":[9,39,48,67,87,107,127,147,167,187,207,227,248,268,287,307,327,347,367,387,407,427,447,467,487,507,528,547,566,587,607,627,647,667,687,707,727,748,768,787,808,828,847,868,887,907,927,947,968,987,1007,1027,1048,1067,1088,1107,1128,1148,1168,1187,1207,1228,1247,1267,1288,1307,1327,1347,1368,1389,1407,1427,1447,1468,1487],"xSR":741.5,"ySR":469.95,"xT1":424.9,"yT1":0,"xT2":1058.1,"yT2":0,"toosoon":0,"cond_shown":"Incongruent","ratio_trial":200,"L_num":7,"L_den":15,"R_num":4,"R_den":6,"correct_side":2,"subjID":"saraladino19","gender":"1","school":"6","age":"No_ag"},{"start_time":1551899833116,"click_time":1551899834451,"finger_time":1551899833611,"fix_duration":344.480336112587,"trial":39,"RT":495,"MT":840,"sideResp":2,"stimulus":[],"xmouse":[777,777,777,777,777,777,777,777,777,777,777,777,777,777,777,777,777,777,777,777,777,781,789,801,824,835,849,853,855,857,857,862,866,870,879,884,899,905,912,922,938,986,1022,1057,1057,1057,1057,1057,1057,1057,1057,1057,1057,1057,1057,1057,1057,1057,1057,1057,1057,1057,1057,1057,1057,1057,1127],"ymouse":[524,524,524,524,524,524,524,524,524,524,524,524,524,524,524,523,523,523,523,523,522,514,502,485,464,453,435,429,426,423,419,410,401,389,364,350,316,299,281,261,227,145,76,17,17,17,17,17,17,17,17,17,17,17,17,17,17,17,17,17,17,17,17,17,17,17,1],"timestamp_mouse":[14,49,54,74,94,114,134,154,174,194,214,234,254,274,294,315,334,354,374,394,414,434,454,474,495,516,534,554,574,594,614,635,654,674,695,716,734,754,774,795,814,834,854,874,895,914,934,955,975,994,1014,1034,1054,1074,1094,1114,1134,1154,1174,1194,1214,1234,1254,1275,1295,1314,1335],"xSR":741.5,"ySR":469.95,"xT1":424.9,"yT1":0,"xT2":1058.1,"yT2":0,"toosoon":0,"cond_shown":"Incongruent","ratio_trial":100,"L_num":13,"L_den":26,"R_num":12,"R_den":20,"correct_side":2,"subjID":"saraladino19","gender":"1","school":"6","age":"No_ag"},{"start_time":1551899840408,"click_time":1551899841530,"finger_time":1551899841070,"fix_duration":595.6630571901744,"trial":40,"RT":662,"MT":460,"sideResp":1,"stimulus":[],"xmouse":[816,816,816,817,815,815,815,815,815,815,814,814,814,814,814,814,814,814,814,814,814,814,814,814,814,814,814,812,811,810,810,810,815,838,853,872,896,945,978,986,988,989,989,989,989,989,989,989,989,989,989,986,970,854,753,594,494],"ymouse":[532,532,532,530,527,525,524,523,522,522,521,521,521,521,521,521,521,521,521,521,521,521,521,518,513,504,501,493,490,488,487,483,475,449,437,421,399,340,271,236,211,187,164,119,104,92,84,75,69,67,66,65,62,57,57,68,79],"timestamp_mouse":[9,23,43,61,83,102,122,143,162,182,202,222,242,262,282,302,322,342,362,382,402,423,442,462,483,502,521,542,562,582,603,623,643,662,683,702,724,744,762,782,802,823,842,862,882,903,922,942,962,983,1002,1022,1042,1062,1082,1103,1122],"xSR":741.5,"ySR":469.95,"xT1":424.9,"yT1":0,"xT2":1058.1,"yT2":0,"toosoon":0,"cond_shown":"Incongruent","ratio_trial":100,"L_num":2,"L_den":4,"R_num":6,"R_den":15,"correct_side":1,"subjID":"saraladino19","gender":"1","school":"6","age":"No_ag"},{"start_time":1551899844378,"click_time":1551899845590,"finger_time":1551899845331,"fix_duration":1307.7275457103583,"trial":41,"RT":953,"MT":259,"sideResp":2,"stimulus":[],"xmouse":[815,815,815,815,815,815,815,815,815,815,815,815,815,815,815,815,815,815,815,815,815,815,815,815,815,815,815,815,815,815,815,815,815,815,815,815,815,815,815,815,815,815,815,815,815,821,841,861,894,918,948,958,969,980,985,999,1013,1023,1037,1065,1079],"ymouse":[545,545,545,545,545,545,545,545,545,545,545,545,545,545,545,545,545,545,545,545,545,545,545,545,545,545,545,545,545,545,545,545,545,545,545,545,545,545,545,545,545,545,545,545,545,539,522,507,489,475,448,435,419,403,388,354,322,292,236,118,71],"timestamp_mouse":[15,43,52,73,92,112,132,152,173,192,212,232,252,273,292,312,332,352,373,393,413,433,452,472,492,512,532,553,572,592,613,632,652,673,692,712,732,752,773,792,812,832,853,872,892,912,932,953,972,993,1012,1032,1053,1073,1092,1112,1132,1152,1172,1193,1212],"xSR":741.5,"ySR":469.95,"xT1":424.9,"yT1":0,"xT2":1058.1,"yT2":0,"toosoon":0,"cond_shown":"Incongruent","ratio_trial":300,"L_num":4,"L_den":20,"R_num":2,"R_den":4,"correct_side":2,"subjID":"saraladino19","gender":"1","school":"6","age":"No_ag"},{"start_time":1551899847596,"click_time":1551899861611,"finger_time":1551899860171,"fix_duration":723.1358452195675,"trial":42,"RT":12575,"MT":1440,"sideResp":2,"stimulus":[],"xmouse":[798,798,798,798,798,798,798,798,798,798,798,798,798,798,798,798,798,798,798,798,798,799,799,799,799,799,799,799,799,799,799,799,799,799,799,799,799,799,799,799,799,799,799,799,799,799,799,799,799,799,799,799,799,799,799,799,799,799,799,799,799,799,799,799,799,799,799,799,799,799,799,799,799,799,799,799,799,799,799,799,799,799,799,799,799,799,799,799,799,799,799,799,799,799,799,799,799,799,799,799,799,799,799,799,799,799,799,799,799,799,799,799,799,799,799,799,799,799,799,799,799,799,799,799,799,799,799,799,799,799,799,799,799,799,799,799,799,799,799,799,799,799,799,799,799,799,799,799,799,799,799,799,799,799,799,799,799,799,799,799,799,799,799,799,799,799,799,799,799,799,799,799,799,799,799,799,799,799,799,799,799,799,799,799,799,799,799,799,799,799,799,799,799,799,799,799,799,799,799,799,799,799,799,799,799,799,799,799,799,799,799,799,799,799,799,799,799,799,799,799,799,799,799,799,799,799,799,799,799,799,799,799,799,799,799,799,799,799,799,799,799,799,799,799,799,799,799,799,799,799,799,799,799,799,799,799,799,799,799,799,799,799,799,799,799,799,799,799,799,799,799,799,799,799,799,799,799,799,799,799,799,799,799,799,799,799,799,799,799,799,799,799,799,799,799,799,799,799,799,799,799,799,799,799,799,799,799,799,799,799,799,799,799,799,799,799,799,799,799,799,799,799,799,799,799,799,799,799,799,799,799,799,799,799,799,799,799,799,799,799,799,799,799,799,799,799,799,799,799,799,799,799,799,799,799,799,799,799,799,799,799,799,799,799,799,799,799,799,799,799,799,799,799,799,799,799,799,799,799,799,799,799,799,799,799,799,799,799,799,799,799,799,799,799,799,799,799,799,799,799,799,799,799,799,799,799,799,799,799,799,799,799,799,799,799,799,799,799,799,799,799,799,799,799,799,799,799,799,799,799,799,799,799,799,799,799,799,799,799,799,799,799,799,799,799,799,799,799,799,799,799,799,799,799,799,799,799,799,799,799,799,799,799,799,799,799,799,799,799,799,799,799,799,799,799,799,799,799,799,799,799,799,799,799,799,799,799,799,799,799,799,799,799,799,799,799,799,799,799,799,799,799,799,799,799,799,799,799,799,799,799,799,799,799,799,799,799,799,799,799,799,799,799,799,799,799,799,799,799,799,799,799,799,799,799,799,799,799,799,799,799,799,799,799,799,799,799,799,799,799,799,799,799,799,799,799,799,799,799,799,799,799,799,799,799,799,799,799,799,799,799,799,799,799,799,799,799,799,799,799,799,799,799,799,799,799,799,799,799,799,799,799,799,799,799,799,799,799,799,799,799,799,799,799,799,799,799,799,799,799,799,799,799,799,799,799,799,799,799,799,799,799,799,799,799,799,799,801,821,835,845,845,846,851,869,913,959,995,1008,1033,1177,1299,1382,1425,1447,1463,1465,1466,1466,1466,1463,1457,1451,1444,1431,1394,1382,1380,1367,1352,1302,1259,1213,1166,1137,1122,1122,1122,1121,1120,1115,1109,1101,1096,1085,1057,1036,1030,1029,1028,1026,1026,1026,1026,1035,1077,1108,1159,1179,1199,1226,1235,1244,1249,1253,1253,1251,1248,1239,1220,1142],"ymouse":[540,540,540,540,540,540,540,540,540,540,540,540,540,540,540,540,540,540,540,540,540,541,541,541,541,541,541,541,541,541,541,541,541,541,541,541,541,541,541,541,541,541,541,541,541,541,541,541,541,541,541,541,541,541,541,541,541,541,541,541,541,541,541,541,541,541,541,541,541,541,541,541,541,541,541,541,541,541,541,541,541,541,541,541,541,541,541,541,541,541,541,541,541,541,541,541,541,541,541,541,541,541,541,541,541,541,541,541,541,541,541,541,541,541,541,541,541,541,541,541,541,541,541,541,541,541,541,541,541,541,541,541,541,541,541,541,541,541,541,541,541,541,541,541,541,541,541,541,541,541,541,541,541,541,541,541,541,541,541,541,541,541,541,541,541,541,541,541,541,541,541,541,541,541,541,541,541,541,541,541,541,541,541,541,541,541,541,541,541,541,541,541,541,541,541,541,541,541,541,541,541,541,541,541,541,541,541,541,541,541,541,541,541,541,541,541,541,541,541,541,541,541,541,541,541,541,541,541,541,541,541,541,541,541,541,541,541,541,541,541,541,541,541,541,541,541,541,541,541,541,541,541,541,541,541,541,541,541,541,541,541,541,541,541,541,541,541,541,541,541,541,541,541,541,541,541,541,541,541,541,541,541,541,541,541,541,541,541,541,541,541,541,541,541,541,541,541,541,541,541,541,541,541,541,541,541,541,541,541,541,541,541,541,541,541,541,541,541,541,541,541,541,541,541,541,541,541,541,541,541,541,541,541,541,541,541,541,541,541,541,541,541,541,541,541,541,541,541,541,541,541,541,541,541,541,541,541,541,541,541,541,541,541,541,541,541,541,541,541,541,541,541,541,541,541,541,541,541,541,541,541,541,541,541,541,541,541,541,541,541,541,541,541,541,541,541,541,541,541,541,541,541,541,541,541,541,541,541,541,541,541,541,541,541,541,541,541,541,541,541,541,541,541,541,541,541,541,541,541,541,541,541,541,541,541,541,541,541,541,541,541,541,541,541,541,541,541,541,541,541,541,541,541,541,541,541,541,541,541,541,541,541,541,541,541,541,541,541,541,541,541,541,541,541,541,541,541,541,541,541,541,541,541,541,541,541,541,541,541,541,541,541,541,541,541,541,541,541,541,541,541,541,541,541,541,541,541,541,541,541,541,541,541,541,541,541,541,541,541,541,541,541,541,541,541,541,541,541,541,541,541,541,541,541,541,541,541,541,541,541,541,541,541,541,541,541,541,541,541,541,541,541,541,541,541,541,541,541,541,541,541,541,541,541,541,541,541,541,541,541,541,541,541,541,541,541,541,541,541,541,541,541,541,541,541,541,541,541,541,541,541,541,541,541,541,541,541,541,541,541,541,541,541,541,541,541,541,541,541,541,541,541,541,541,541,541,541,541,541,541,541,541,541,541,541,541,548,565,651,686,703,703,703,703,703,702,706,711,711,711,675,633,583,547,529,507,497,491,481,475,461,453,446,438,429,415,412,411,408,404,390,376,364,351,345,342,342,342,341,341,341,340,339,339,340,349,355,358,358,359,362,367,369,373,379,394,401,405,405,396,364,343,313,269,232,177,156,147,134,115,57],"timestamp_mouse":[14,50,54,75,94,114,134,155,174,194,214,234,255,274,294,315,334,355,374,394,415,435,454,474,494,514,534,554,574,594,614,634,654,674,694,714,734,754,774,794,814,834,854,874,894,914,934,954,974,994,1015,1034,1053,1075,1095,1114,1134,1154,1174,1194,1214,1234,1254,1274,1294,1314,1334,1354,1375,1394,1414,1434,1454,1474,1494,1514,1534,1553,1574,1594,1614,1634,1655,1674,1693,1714,1734,1755,1774,1794,1815,1835,1855,1874,1894,1915,1935,1955,1974,1994,2015,2034,2054,2074,2095,2115,2134,2155,2174,2195,2214,2234,2255,2274,2294,2314,2334,2355,2374,2394,2415,2435,2455,2474,2494,2514,2534,2554,2574,2594,2614,2634,2655,2674,2694,2714,2734,2753,2774,2794,2815,2834,2854,2874,2894,2915,2934,2954,2974,2994,3014,3034,3055,3074,3095,3114,3135,3155,3174,3195,3214,3234,3255,3274,3294,3314,3334,3354,3375,3394,3414,3434,3454,3474,3494,3514,3535,3554,3574,3595,3614,3633,3654,3674,3695,3714,3734,3754,3774,3795,3814,3834,3855,3875,3894,3915,3934,3954,3975,3994,4014,4034,4054,4074,4095,4113,4134,4154,4174,4194,4214,4234,4254,4274,4294,4315,4334,4354,4374,4394,4414,4434,4454,4474,4494,4514,4534,4554,4574,4595,4614,4634,4654,4674,4695,4714,4734,4755,4774,4795,4815,4834,4854,4875,4894,4919,4934,4954,4974,4994,5014,5034,5054,5074,5094,5114,5134,5155,5173,5194,5214,5234,5254,5274,5294,5315,5334,5355,5374,5394,5414,5434,5454,5474,5494,5514,5535,5553,5575,5594,5614,5634,5655,5674,5694,5714,5734,5754,5774,5794,5814,5833,5855,5874,5894,5914,5934,5954,5974,5994,6014,6035,6054,6074,6095,6114,6134,6155,6174,6194,6214,6234,6254,6274,6294,6314,6334,6355,6375,6394,6414,6434,6454,6474,6494,6514,6534,6554,6574,6595,6614,6634,6655,6674,6694,6714,6734,6754,6774,6794,6814,6834,6855,6874,6895,6914,6935,6954,6975,6994,7014,7035,7054,7074,7093,7114,7134,7154,7174,7194,7214,7234,7254,7274,7294,7314,7334,7355,7374,7394,7415,7434,7454,7474,7494,7514,7535,7554,7574,7594,7614,7634,7655,7674,7694,7714,7734,7754,7774,7794,7815,7834,7854,7874,7894,7914,7934,7954,7975,7994,8014,8035,8054,8075,8094,8115,8134,8155,8174,8195,8214,8234,8255,8273,8295,8315,8334,8354,8375,8394,8414,8434,8454,8473,8494,8514,8535,8554,8574,8594,8614,8634,8655,8674,8694,8714,8734,8755,8774,8794,8815,8834,8855,8874,8894,8914,8935,8954,8974,8994,9014,9035,9054,9074,9095,9114,9134,9155,9174,9195,9214,9234,9254,9274,9294,9315,9334,9354,9374,9394,9415,9434,9454,9474,9494,9514,9535,9554,9575,9595,9614,9634,9654,9674,9694,9714,9734,9755,9774,9794,9815,9834,9855,9874,9894,9914,9934,9954,9975,9994,10014,10034,10054,10074,10094,10114,10134,10154,10174,10194,10214,10234,10254,10274,10294,10315,10335,10354,10375,10394,10415,10434,10454,10474,10494,10514,10534,10554,10575,10594,10614,10634,10655,10674,10695,10714,10734,10755,10774,10794,10814,10835,10854,10874,10894,10915,10934,10954,10975,10993,11014,11034,11054,11073,11095,11114,11134,11155,11174,11195,11214,11234,11254,11274,11294,11315,11334,11355,11374,11394,11414,11434,11454,11474,11494,11514,11534,11554,11573,11595,11614,11634,11655,11674,11695,11715,11734,11754,11774,11794,11814,11834,11854,11874,11894,11914,11934,11954,11974,11994,12014,12034,12054,12074,12094,12114,12133,12154,12174,12194,12214,12235,12254,12274,12294,12314,12334,12354,12374,12394,12414,12434,12454,12474,12494,12514,12534,12555,12575,12594,12614,12634,12654,12674,12696,12714,12734,12755,12775,12794,12814,12834,12854,12874,12894,12914,12933,12954,12974,12994,13014,13034,13055,13074,13094,13115,13133,13154,13174,13194,13215,13234,13255,13274,13295,13314,13333,13354,13374,13394,13414,13433,13454,13474,13495,13514,13534,13554,13574,13594,13615,13634,13654,13674,13695,13714,13733,13754,13774,13794,13815,13835,13854,13874,13894,13915,13935,13954,13975,13995,14015],"xSR":741.5,"ySR":469.95,"xT1":424.9,"yT1":0,"xT2":1058.1,"yT2":0,"toosoon":0,"cond_shown":"Incongruent","ratio_trial":200,"L_num":4,"L_den":5,"R_num":6,"R_den":10,"correct_side":1,"subjID":"saraladino19","gender":"1","school":"6","age":"No_ag"},{"start_time":1551899863914,"click_time":1551899865330,"finger_time":1551899864711,"fix_duration":762.2716694822202,"trial":43,"RT":797,"MT":619,"sideResp":2,"stimulus":[],"xmouse":[793,793,793,793,793,793,793,793,793,793,793,793,793,793,793,793,793,793,793,793,793,793,793,793,793,793,793,793,793,793,793,793,793,793,793,793,793,795,801,807,846,865,885,905,929,984,1009,1021,1021,1021,1021,1021,1021,1021,1021,1021,1021,1021,1021,1021,1021,1021,1021,1021,1021,1021,1021,1021,1021,1021,1081],"ymouse":[519,519,519,519,519,519,519,519,519,519,519,519,519,519,519,519,519,519,519,519,519,519,519,519,519,519,519,519,519,519,519,519,519,519,519,519,514,503,484,459,361,308,259,213,164,71,33,14,14,14,14,14,14,14,14,14,14,14,14,14,14,14,14,14,14,14,14,14,14,14,4],"timestamp_mouse":[16,36,57,77,96,115,136,156,177,197,216,237,257,275,297,316,335,357,376,396,417,437,457,476,497,517,536,556,576,596,616,636,656,677,697,716,736,756,777,797,817,836,857,877,896,915,937,956,976,996,1016,1036,1057,1076,1096,1116,1137,1156,1176,1197,1217,1236,1256,1276,1297,1317,1336,1357,1377,1397,1416],"xSR":741.5,"ySR":469.95,"xT1":424.9,"yT1":0,"xT2":1058.1,"yT2":0,"toosoon":0,"cond_shown":"Congruent","ratio_trial":200,"L_num":5,"L_den":10,"R_num":14,"R_den":20,"correct_side":2,"subjID":"saraladino19","gender":"1","school":"6","age":"No_ag"},{"start_time":1551899870204,"click_time":1551899871651,"finger_time":1551899870831,"fix_duration":1192.7719471653672,"trial":44,"RT":627,"MT":820,"sideResp":2,"stimulus":[],"xmouse":[822,822,822,822,822,822,822,822,822,822,822,822,822,822,822,822,822,822,822,822,822,822,822,823,823,823,821,821,820,820,820,821,822,822,822,822,828,832,839,846,853,868,878,891,905,920,954,978,1004,1023,1058,1162,1206,1223,1226,1226,1226,1226,1226,1226,1226,1226,1226,1226,1226,1226,1226,1226,1226,1224,1219,1203,1102],"ymouse":[550,550,550,550,550,550,550,550,550,550,550,550,550,550,550,550,550,550,550,550,550,550,550,547,529,520,502,498,493,488,480,463,461,460,459,457,443,434,421,410,396,369,353,334,313,296,249,224,199,180,150,82,51,42,40,40,40,40,40,40,40,40,40,40,40,40,40,40,40,40,39,36,7],"timestamp_mouse":[10,42,47,67,86,107,126,146,166,186,206,227,246,266,286,306,326,347,366,387,406,426,447,466,486,507,526,546,566,587,606,627,646,666,687,706,727,746,766,787,806,827,846,866,886,906,928,946,966,987,1006,1026,1046,1066,1086,1106,1126,1146,1166,1187,1206,1227,1246,1266,1287,1306,1327,1346,1366,1386,1406,1427,1447],"xSR":741.5,"ySR":469.95,"xT1":424.9,"yT1":0,"xT2":1058.1,"yT2":0,"toosoon":0,"cond_shown":"Incongruent","ratio_trial":200,"L_num":7,"L_den":15,"R_num":4,"R_den":6,"correct_side":2,"subjID":"saraladino19","gender":"1","school":"6","age":"No_ag"},{"start_time":1551899877485,"click_time":1551899878592,"finger_time":1551899878152,"fix_duration":250,"trial":45,"RT":667,"MT":440,"sideResp":1,"stimulus":[],"xmouse":[812,812,812,812,812,812,812,812,812,812,812,812,812,812,812,812,812,812,812,812,812,812,812,812,812,812,812,812,812,813,816,819,823,828,828,827,818,808,768,742,716,693,683,676,675,673,671,671,667,664,659,644,620,590,528,506],"ymouse":[523,523,523,523,523,523,523,523,523,523,523,523,523,523,523,523,523,523,523,523,523,523,523,523,523,523,523,523,523,515,501,487,472,446,418,400,377,353,283,240,200,162,144,121,113,103,95,89,77,73,68,63,58,54,45,43],"timestamp_mouse":[9,26,46,66,88,107,126,148,168,186,208,227,247,267,287,306,326,347,367,386,406,428,448,467,486,506,527,546,566,586,607,627,646,667,686,707,727,746,767,787,807,827,847,868,887,907,928,948,967,987,1007,1027,1048,1067,1088,1107],"xSR":741.5,"ySR":469.95,"xT1":424.9,"yT1":0,"xT2":1058.1,"yT2":0,"toosoon":0,"cond_shown":"Incongruent","ratio_trial":100,"L_num":2,"L_den":4,"R_num":8,"R_den":20,"correct_side":1,"subjID":"saraladino19","gender":"1","school":"6","age":"No_ag"},{"start_time":1551899882058,"click_time":1551899884872,"finger_time":1551899884272,"fix_duration":1184.7540976913697,"trial":46,"RT":2214,"MT":600,"sideResp":2,"stimulus":[],"xmouse":[743,743,743,743,743,743,743,743,743,743,743,743,743,743,743,743,743,743,743,743,743,743,743,743,743,743,743,743,743,743,743,743,743,743,743,743,743,743,743,743,743,743,743,743,743,743,743,743,743,743,743,743,743,743,743,743,743,743,743,743,743,743,743,743,743,743,743,743,743,743,743,743,743,743,743,743,743,743,743,743,743,743,743,743,743,743,743,743,743,743,743,743,743,743,743,743,743,743,743,743,743,743,743,743,743,743,743,743,743,743,733,702,619,587,514,490,483,475,464,451,428,423,421,420,418,435,467,487,487,487,509,550,580,620,661,721,740,785,860,970,1123],"ymouse":[511,511,511,511,511,511,511,511,511,511,511,511,511,511,511,511,511,511,511,511,511,511,511,511,511,511,511,511,511,511,511,511,511,511,511,511,511,511,511,511,511,511,511,511,511,511,511,511,511,511,511,511,511,511,511,511,511,511,511,511,511,511,511,511,511,511,511,511,511,511,511,511,511,511,511,511,511,511,511,511,511,511,511,511,511,511,511,511,511,511,511,511,511,511,511,511,511,511,511,511,511,511,511,511,511,511,511,511,511,511,508,500,481,474,460,451,446,436,418,395,355,343,340,339,333,305,279,263,263,263,245,215,194,175,158,131,120,105,90,76,72],"timestamp_mouse":[14,49,54,74,93,114,133,154,174,194,213,233,253,273,294,314,334,353,374,394,415,433,453,473,493,513,534,554,574,595,614,634,654,675,695,715,733,753,775,795,813,833,854,873,893,914,934,954,973,995,1014,1033,1053,1075,1093,1113,1134,1154,1174,1195,1213,1235,1254,1274,1295,1313,1333,1355,1374,1393,1413,1434,1455,1474,1494,1514,1533,1554,1575,1594,1614,1634,1654,1674,1694,1714,1734,1753,1775,1794,1814,1834,1854,1874,1894,1914,1934,1954,1974,1995,2015,2034,2055,2074,2094,2114,2135,2153,2174,2193,2214,2234,2254,2274,2295,2314,2334,2354,2375,2394,2413,2434,2455,2474,2494,2513,2534,2553,2574,2594,2614,2635,2655,2674,2693,2713,2734,2754,2774,2795,2814],"xSR":741.5,"ySR":469.95,"xT1":424.9,"yT1":0,"xT2":1058.1,"yT2":0,"toosoon":0,"cond_shown":"Congruent","ratio_trial":300,"L_num":20,"L_den":25,"R_num":8,"R_den":16,"correct_side":1,"subjID":"saraladino19","gender":"1","school":"6","age":"No_ag"},{"start_time":1551899887314,"click_time":1551899888792,"finger_time":1551899888392,"fix_duration":940.