[{"start_time":1551900705947,"click_time":1551900707312,"finger_time":1551900706872,"fix_duration":1494.0035984116762,"trial":0,"RT":925,"MT":440,"sideResp":2,"stimulus":"img/750/equaldotanddens/L/9_Ratio_750_L_4_R_3.png","xmouse":[786,786,786,786,786,786,786,786,786,786,786,786,786,786,786,786,786,786,786,786,786,786,786,786,786,786,786,786,786,786,786,786,786,786,786,786,786,786,786,786,786,786,786,791,806,830,881,905,926,939,949,964,973,978,983,987,996,1000,1003,1007,1013,1020,1038,1048,1055,1059,1062,1067,1074],"ymouse":[510,510,510,510,510,510,510,510,510,510,510,510,510,510,510,510,510,510,510,510,510,510,510,510,510,510,510,510,510,510,510,510,510,510,510,510,510,510,510,510,510,510,510,503,488,470,424,382,329,282,242,199,186,181,177,175,170,168,165,161,154,145,128,122,116,113,107,101,93],"timestamp_mouse":[5,26,45,65,86,105,126,146,165,185,205,225,245,265,286,306,325,345,366,385,406,425,445,465,485,505,525,545,566,585,605,625,645,665,685,705,726,745,765,785,805,825,845,865,886,905,925,946,965,985,1005,1025,1045,1065,1085,1106,1125,1145,1166,1185,1205,1225,1245,1265,1285,1307,1325,1345,1365],"xSR":741.5,"ySR":469.95,"xT1":424.9,"yT1":0,"xT2":1058.1,"yT2":0,"toosoon":0,"cond_shown":"equaldotanddens","ratio_trial":750,"smaller_num":"3","larger_num":"4","correct_side":1,"subjID":"saraladino19","gender":"1","age":"11","school":"6","test":{"fix_dur":[250,1500],"timestim":300,"targets_dim":[100,100],"targets_relative_coord":[0.3,0.7],"size_stim":[880,420],"start_dim":[100,100],"size_start":[300,300],"size_fix":60,"samplingrate":20,"img_types":["equaldotsize","equaldotanddens","randomdotsizeEA"],"ratios":[250,500,750,900],"rep_conds":9,"nTrials":120,"trials_to_rest":500,"Trials_order":[91,81,50,79,6,119,23,48,30,46,1,49,111,69,85,40,86,66,95,21,114,78,22,28,60,5,105,67,2,63,13,37,8,73,115,36,88,62,98,116,74,104,108,44,70,43,17,92,25,112,12,77,64,110,102,106,52,93,34,96,82,101,45,57,100,103,15,80,72,42,29,26,41,71,47,68,7,99,117,19,31,35,61,109,55,18,4,84,38,10,94,113,75,54,20,90,58,27,9,65,107,118,59,11,0,97,56,24,39,3,76,32,53,16,33,87,89,14,83,51],"cond_shown":["equaldotanddens","equaldotsize","randomdotsizeEA","equaldotanddens","equaldotsize","randomdotsizeEA","randomdotsizeEA","equaldotsize","equaldotsize","equaldotanddens","equaldotanddens","equaldotanddens","equaldotsize","equaldotsize","equaldotanddens","equaldotanddens","randomdotsizeEA","equaldotsize","randomdotsizeEA","equaldotsize","equaldotsize","equaldotsize","equaldotanddens","equaldotanddens","equaldotsize","randomdotsizeEA","equaldotsize","equaldotanddens","randomdotsizeEA","equaldotsize","equaldotanddens","equaldotanddens","randomdotsizeEA","equaldotanddens","equaldotanddens","equaldotsize","equaldotanddens","randomdotsizeEA","randomdotsizeEA","randomdotsizeEA","randomdotsizeEA","randomdotsizeEA","equaldotsize","randomdotsizeEA","equaldotanddens","equaldotanddens","randomdotsizeEA","randomdotsizeEA","equaldotanddens","equaldotanddens","equaldotsize","randomdotsizeEA","equaldotanddens","randomdotsizeEA","equaldotsize","equaldotanddens","equaldotanddens","equaldotsize","equaldotanddens","equaldotsize","equaldotanddens","randomdotsizeEA","equaldotsize","equaldotsize","equaldotanddens","equaldotanddens","equaldotsize","randomdotsizeEA","equaldotsize","equaldotsize","randomdotsizeEA","randomdotsizeEA","randomdotsizeEA","randomdotsizeEA","randomdotsizeEA","randomdotsizeEA","equaldotanddens","equaldotsize","equaldotsize","equaldotanddens","equaldotanddens","randomdotsizeEA","equaldotanddens","equaldotanddens","equaldotanddens","equaldotsize","equaldotanddens","equaldotsize","randomdotsizeEA","equaldotanddens","equaldotanddens","randomdotsizeEA","equaldotsize","equaldotsize","randomdotsizeEA","equaldotsize","equaldotanddens","equaldotsize","equaldotsize","randomdotsizeEA","randomdotsizeEA","equaldotanddens","randomdotsizeEA","randomdotsizeEA","equaldotsize","equaldotanddens","randomdotsizeEA","equaldotsize","equaldotsize","equaldotsize","equaldotanddens","randomdotsizeEA","randomdotsizeEA","equaldotanddens","equaldotsize","equaldotsize","randomdotsizeEA","randomdotsizeEA","randomdotsizeEA","equaldotsize"],"ratio_trial":[750,900,250,750,750,900,900,250,750,900,250,250,500,900,250,500,250,750,900,900,750,750,900,500,250,500,900,750,250,500,250,250,750,250,750,250,500,250,250,750,250,750,250,750,900,750,500,750,250,500,250,500,500,250,750,900,500,900,900,250,900,500,900,900,500,750,500,750,250,750,500,250,500,900,900,750,750,500,900,750,750,900,250,250,750,750,500,250,250,900,900,500,500,750,750,750,900,500,900,500,900,900,900,900,250,250,750,250,500,500,500,750,500,500,900,500,500,250,900,500],"smaller_num":["3","18","2","6","3","9","18","4","6","18","4","2","9","9","2","2","6","6","18","18","9","3","18","9","5","5","18","15","2","9","2","2","6","2","3","1","6","1","4","15","6","3","3","15","18","15","2","6","2","2","2","10","1","4","3","18","2","18","18","3","9","9","18","9","2","15","2","3","2","6","2","2","9","18","9","15","6","5","18","6","18","18","1","1","3","15","9","2","2","18","18","2","1","18","3","3","18","2","9","6","18","18","18","9","2","1","3","4","5","1","2","15","9","9","18","2","5","2","9","9"],"larger_num":["4","20","8","8","4","10","20","16","8","20","16","8","18","10","8","4","24","8","20","20","12","4","20","18","20","10","20","20","8","18","8","8","8","8","4","4","12","4","16","20","24","4","12","20","20","20","4","8","8","4","8","20","2","16","4","20","4","20","20","12","10","18","20","10","4","20","4","4","8","8","4","8","18","20","10","20","8","10","20","8","24","20","4","4","4","20","18","8","8","20","20","4","2","24","4","4","20","4","10","12","20","20","20","10","8","4","4","16","10","2","4","20","18","18","20","4","10","8","10","18"],"correct_side":[1,1,2,1,2,1,1,1,1,2,2,1,1,2,2,1,2,1,2,1,2,1,1,1,2,1,1,2,2,1,1,1,2,1,1,2,1,2,2,2,1,1,2,2,1,2,1,1,1,2,1,2,2,1,2,1,1,2,1,2,2,2,1,2,1,2,1,1,1,2,1,1,2,1,1,2,1,1,1,1,1,2,2,2,1,2,1,1,2,2,2,1,2,1,1,2,2,1,1,1,1,1,2,1,1,2,1,2,2,2,1,1,2,2,1,1,1,1,1,1],"img_shown":["img/750/equaldotanddens/L/9_Ratio_750_L_4_R_3.png","img/900/equaldotsize/L/8_Ratio_900_L_20_R_18.png","img/250/randomdotsizeEA/R/13_Ratio_250_L_2_R_8.png","img/750/equaldotanddens/L/14_Ratio_750_L_8_R_6.png","img/750/equaldotsize/R/7_Ratio_750_L_3_R_4.png","img/900/randomdotsizeEA/L/1_Ratio_900_L_10_R_9.png","img/900/randomdotsizeEA/L/4_Ratio_900_L_20_R_18.png","img/250/equaldotsize/L/2_Ratio_250_L_16_R_4.png","img/750/equaldotsize/L/14_Ratio_750_L_8_R_6.png","img/900/equaldotanddens/R/13_Ratio_900_L_18_R_20.png","img/250/equaldotanddens/R/10_Ratio_250_L_4_R_16.png","img/250/equaldotanddens/L/7_Ratio_250_L_8_R_2.png","img/500/equaldotsize/L/4_Ratio_500_L_18_R_9.png","img/900/equaldotsize/R/3_Ratio_900_L_9_R_10.png","img/250/equaldotanddens/R/13_Ratio_250_L_2_R_8.png","img/500/equaldotanddens/L/10_Ratio_500_L_4_R_2.png","img/250/randomdotsizeEA/R/6_Ratio_250_L_6_R_24.png","img/750/equaldotsize/L/13_Ratio_750_L_8_R_6.png","img/900/randomdotsizeEA/R/14_Ratio_900_L_18_R_20.png","img/900/equaldotsize/L/4_Ratio_900_L_20_R_18.png","img/750/equaldotsize/R/15_Ratio_750_L_9_R_12.png","img/750/equaldotsize/L/9_Ratio_750_L_4_R_3.png","img/900/equaldotanddens/L/10_Ratio_900_L_20_R_18.png","img/500/equaldotanddens/L/4_Ratio_500_L_18_R_9.png","img/250/equaldotsize/R/12_Ratio_250_L_5_R_20.png","img/500/randomdotsizeEA/L/7_Ratio_500_L_10_R_5.png","img/900/equaldotsize/L/8_Ratio_900_L_20_R_18.png","img/750/equaldotanddens/R/3_Ratio_750_L_15_R_20.png","img/250/randomdotsizeEA/R/13_Ratio_250_L_2_R_8.png","img/500/equaldotsize/L/4_Ratio_500_L_18_R_9.png","img/250/equaldotanddens/L/3_Ratio_250_L_8_R_2.png","img/250/equaldotanddens/L/3_Ratio_250_L_8_R_2.png","img/750/randomdotsizeEA/R/2_Ratio_750_L_6_R_8.png","img/250/equaldotanddens/L/3_Ratio_250_L_8_R_2.png","img/750/equaldotanddens/L/9_Ratio_750_L_4_R_3.png","img/250/equaldotsize/R/8_Ratio_250_L_1_R_4.png","img/500/equaldotanddens/L/13_Ratio_500_L_12_R_6.png","img/250/randomdotsizeEA/R/8_Ratio_250_L_1_R_4.png","img/250/randomdotsizeEA/R/10_Ratio_250_L_4_R_16.png","img/750/randomdotsizeEA/R/5_Ratio_750_L_15_R_20.png","img/250/randomdotsizeEA/L/5_Ratio_250_L_24_R_6.png","img/750/randomdotsizeEA/L/8_Ratio_750_L_4_R_3.png","img/250/equaldotsize/R/4_Ratio_250_L_3_R_12.png","img/750/randomdotsizeEA/R/4_Ratio_750_L_15_R_20.png","img/900/equaldotanddens/L/10_Ratio_900_L_20_R_18.png","img/750/equaldotanddens/R/3_Ratio_750_L_15_R_20.png","img/500/randomdotsizeEA/L/5_Ratio_500_L_4_R_2.png","img/750/randomdotsizeEA/L/13_Ratio_750_L_8_R_6.png","img/250/equaldotanddens/L/3_Ratio_250_L_8_R_2.png","img/500/equaldotanddens/R/9_Ratio_500_L_2_R_4.png","img/250/equaldotsize/L/3_Ratio_250_L_8_R_2.png","img/500/randomdotsizeEA/R/3_Ratio_500_L_10_R_20.png","img/500/equaldotanddens/R/15_Ratio_500_L_1_R_2.png","img/250/randomdotsizeEA/L/2_Ratio_250_L_16_R_4.png","img/750/equaldotsize/R/7_Ratio_750_L_3_R_4.png","img/900/equaldotanddens/L/8_Ratio_900_L_20_R_18.png","img/500/equaldotanddens/L/5_Ratio_500_L_4_R_2.png","img/900/equaldotsize/R/9_Ratio_900_L_18_R_20.png","img/900/equaldotanddens/L/10_Ratio_900_L_20_R_18.png","img/250/equaldotsize/R/4_Ratio_250_L_3_R_12.png","img/900/equaldotanddens/R/5_Ratio_900_L_9_R_10.png","img/500/randomdotsizeEA/R/6_Ratio_500_L_9_R_18.png","img/900/equaldotsize/L/4_Ratio_900_L_20_R_18.png","img/900/equaldotsize/R/15_Ratio_900_L_9_R_10.png","img/500/equaldotanddens/L/5_Ratio_500_L_4_R_2.png","img/750/equaldotanddens/R/5_Ratio_750_L_15_R_20.png","img/500/equaldotsize/L/5_Ratio_500_L_4_R_2.png","img/750/randomdotsizeEA/L/8_Ratio_750_L_4_R_3.png","img/250/equaldotsize/L/3_Ratio_250_L_8_R_2.png","img/750/equaldotsize/R/2_Ratio_750_L_6_R_8.png","img/500/randomdotsizeEA/L/5_Ratio_500_L_4_R_2.png","img/250/randomdotsizeEA/L/7_Ratio_250_L_8_R_2.png","img/500/randomdotsizeEA/R/1_Ratio_500_L_9_R_18.png","img/900/randomdotsizeEA/L/2_Ratio_900_L_20_R_18.png","img/900/randomdotsizeEA/L/1_Ratio_900_L_10_R_9.png","img/750/randomdotsizeEA/R/3_Ratio_750_L_15_R_20.png","img/750/equaldotanddens/L/14_Ratio_750_L_8_R_6.png","img/500/equaldotsize/L/7_Ratio_500_L_10_R_5.png","img/900/equaldotsize/L/2_Ratio_900_L_20_R_18.png","img/750/equaldotanddens/L/14_Ratio_750_L_8_R_6.png","img/750/equaldotanddens/L/6_Ratio_750_L_24_R_18.png","img/900/randomdotsizeEA/R/13_Ratio_900_L_18_R_20.png","img/250/equaldotanddens/R/8_Ratio_250_L_1_R_4.png","img/250/equaldotanddens/R/8_Ratio_250_L_1_R_4.png","img/750/equaldotanddens/L/10_Ratio_750_L_4_R_3.png","img/750/equaldotsize/R/5_Ratio_750_L_15_R_20.png","img/500/equaldotanddens/L/4_Ratio_500_L_18_R_9.png","img/250/equaldotsize/L/3_Ratio_250_L_8_R_2.png","img/250/randomdotsizeEA/R/13_Ratio_250_L_2_R_8.png","img/900/equaldotanddens/R/12_Ratio_900_L_18_R_20.png","img/900/equaldotanddens/R/9_Ratio_900_L_18_R_20.png","img/500/randomdotsizeEA/L/5_Ratio_500_L_4_R_2.png","img/500/equaldotsize/R/15_Ratio_500_L_1_R_2.png","img/750/equaldotsize/L/6_Ratio_750_L_24_R_18.png","img/750/randomdotsizeEA/L/10_Ratio_750_L_4_R_3.png","img/750/equaldotsize/R/12_Ratio_750_L_3_R_4.png","img/900/equaldotanddens/R/9_Ratio_900_L_18_R_20.png","img/500/equaldotsize/L/5_Ratio_500_L_4_R_2.png","img/900/equaldotsize/L/1_Ratio_900_L_10_R_9.png","img/500/randomdotsizeEA/L/11_Ratio_500_L_12_R_6.png","img/900/randomdotsizeEA/L/8_Ratio_900_L_20_R_18.png","img/900/equaldotanddens/L/10_Ratio_900_L_20_R_18.png","img/900/randomdotsizeEA/R/14_Ratio_900_L_18_R_20.png","img/900/randomdotsizeEA/L/1_Ratio_900_L_10_R_9.png","img/250/equaldotsize/L/3_Ratio_250_L_8_R_2.png","img/250/equaldotanddens/R/8_Ratio_250_L_1_R_4.png","img/750/randomdotsizeEA/L/8_Ratio_750_L_4_R_3.png","img/250/equaldotsize/R/10_Ratio_250_L_4_R_16.png","img/500/equaldotsize/R/14_Ratio_500_L_5_R_10.png","img/500/equaldotsize/R/15_Ratio_500_L_1_R_2.png","img/500/equaldotanddens/L/10_Ratio_500_L_4_R_2.png","img/750/randomdotsizeEA/L/1_Ratio_750_L_20_R_15.png","img/500/randomdotsizeEA/R/1_Ratio_500_L_9_R_18.png","img/500/equaldotanddens/R/1_Ratio_500_L_9_R_18.png","img/900/equaldotsize/L/8_Ratio_900_L_20_R_18.png","img/500/equaldotsize/L/10_Ratio_500_L_4_R_2.png","img/500/randomdotsizeEA/L/7_Ratio_500_L_10_R_5.png","img/250/randomdotsizeEA/L/3_Ratio_250_L_8_R_2.png","img/900/randomdotsizeEA/L/1_Ratio_900_L_10_R_9.png","img/500/equaldotsize/L/4_Ratio_500_L_18_R_9.png"],"Rat0":[["12_Ratio_0_L_9_R_0.png","13_Ratio_0_L_6_R_0.png","5_Ratio_0_L_2_R_0.png","6_Ratio_0_L_4_R_0.png","8_Ratio_0_L_6_R_0.png"],["1_Ratio_0_L_0_R_17.png","10_Ratio_0_L_0_R_22.png","11_Ratio_0_L_0_R_1.png","14_Ratio_0_L_0_R_24.png","15_Ratio_0_L_0_R_4.png","2_Ratio_0_L_0_R_5.png","3_Ratio_0_L_0_R_17.png","4_Ratio_0_L_0_R_7.png","7_Ratio_0_L_0_R_19.png","9_Ratio_0_L_0_R_15.png"]],"Rat250":[["1_Ratio_250_L_8_R_2.png","14_Ratio_250_L_12_R_3.png","15_Ratio_250_L_12_R_3.png","2_Ratio_250_L_16_R_4.png","3_Ratio_250_L_8_R_2.png","5_Ratio_250_L_24_R_6.png","7_Ratio_250_L_8_R_2.png"],["10_Ratio_250_L_4_R_16.png","11_Ratio_250_L_3_R_12.png","12_Ratio_250_L_5_R_20.png","13_Ratio_250_L_2_R_8.png","4_Ratio_250_L_3_R_12.png","6_Ratio_250_L_6_R_24.png","8_Ratio_250_L_1_R_4.png","9_Ratio_250_L_3_R_12.png"]],"Rat500":[["10_Ratio_500_L_4_R_2.png","11_Ratio_500_L_12_R_6.png","13_Ratio_500_L_12_R_6.png","4_Ratio_500_L_18_R_9.png","5_Ratio_500_L_4_R_2.png","7_Ratio_500_L_10_R_5.png","8_Ratio_500_L_8_R_4.png"],["1_Ratio_500_L_9_R_18.png","12_Ratio_500_L_1_R_2.png","14_Ratio_500_L_5_R_10.png","15_Ratio_500_L_1_R_2.png","2_Ratio_500_L_3_R_6.png","3_Ratio_500_L_10_R_20.png","6_Ratio_500_L_9_R_18.png","9_Ratio_500_L_2_R_4.png"]],"Rat750":[["1_Ratio_750_L_20_R_15.png","10_Ratio_750_L_4_R_3.png","13_Ratio_750_L_8_R_6.png","14_Ratio_750_L_8_R_6.png","6_Ratio_750_L_24_R_18.png","8_Ratio_750_L_4_R_3.png","9_Ratio_750_L_4_R_3.png"],["11_Ratio_750_L_12_R_16.png","12_Ratio_750_L_3_R_4.png","15_Ratio_750_L_9_R_12.png","2_Ratio_750_L_6_R_8.png","3_Ratio_750_L_15_R_20.png","4_Ratio_750_L_15_R_20.png","5_Ratio_750_L_15_R_20.png","7_Ratio_750_L_3_R_4.png"]],"Rat900":[["1_Ratio_900_L_10_R_9.png","10_Ratio_900_L_20_R_18.png","2_Ratio_900_L_20_R_18.png","4_Ratio_900_L_20_R_18.png","8_Ratio_900_L_20_R_18.png"],["11_Ratio_900_L_18_R_20.png","12_Ratio_900_L_18_R_20.png","13_Ratio_900_L_18_R_20.png","14_Ratio_900_L_18_R_20.png","15_Ratio_900_L_9_R_10.png","3_Ratio_900_L_9_R_10.png","5_Ratio_900_L_9_R_10.png","6_Ratio_900_L_9_R_10.png","7_Ratio_900_L_9_R_10.png","9_Ratio_900_L_18_R_20.png"]],"Rat1000":[["10_Ratio_1000_L_16_R_16.png","11_Ratio_1000_L_6_R_6.png","12_Ratio_1000_L_14_R_14.png","13_Ratio_1000_L_20_R_20.png","15_Ratio_1000_L_15_R_15.png","2_Ratio_1000_L_17_R_17.png","4_Ratio_1000_L_9_R_9.png","5_Ratio_1000_L_6_R_6.png","6_Ratio_1000_L_19_R_19.png","8_Ratio_1000_L_14_R_14.png","9_Ratio_1000_L_25_R_25.png"],["1_Ratio_1000_L_1_R_1.png","14_Ratio_1000_L_17_R_17.png","3_Ratio_1000_L_17_R_17.png","7_Ratio_1000_L_6_R_6.png"]]}},{"start_time":1551900709567,"click_time":1551900710792,"finger_time":1551900710372,"fix_duration":1073.359827929851,"trial":1,"RT":805,"MT":420,"sideResp":1,"stimulus":"img/900/equaldotsize/L/8_Ratio_900_L_20_R_18.png","xmouse":[747,747,747,747,747,747,747,747,747,747,747,747,747,747,747,747,747,747,747,747,747,747,747,747,747,747,747,747,747,747,747,747,747,747,747,747,747,747,747,744,728,712,690,660,623,577,531,517,511,508,504,504,502,501,497,494,492,491,490,489,487,484],"ymouse":[533,533,533,533,533,533,533,533,533,533,533,533,533,533,533,533,533,533,533,533,533,533,533,533,533,533,533,533,533,533,533,533,533,533,533,533,532,523,513,498,459,428,391,345,300,245,190,171,158,150,139,136,132,128,121,115,113,111,108,107,100,91],"timestamp_mouse":[9,27,45,66,93,105,126,146,166,185,206,225,245,266,286,306,325,345,365,386,406,425,445,465,486,506,526,547,566,586,605,627,645,666,686,705,725,745,765,785,805,825,845,866,885,906,925,946,966,986,1006,1025,1045,1065,1086,1106,1125,1146,1165,1185,1205,1225],"xSR":741.5,"ySR":469.95,"xT1":424.9,"yT1":0,"xT2":1058.1,"yT2":0,"toosoon":0,"cond_shown":"equaldotsize","ratio_trial":900,"smaller_num":"18","larger_num":"20","correct_side":1,"subjID":"saraladino19","gender":"1","age":"11","school":"6"},{"start_time":1551900712860,"click_time":1551900714053,"finger_time":1551900713492,"fix_duration":1246.0946944757677,"trial":2,"RT":632,"MT":561,"sideResp":1,"stimulus":"img/250/randomdotsizeEA/R/13_Ratio_250_L_2_R_8.png","xmouse":[807,807,807,807,807,807,807,807,807,807,807,807,807,807,807,807,807,807,807,807,807,807,807,807,807,807,807,807,807,799,782,699,643,594,568,562,562,562,562,562,561,560,559,556,550,544,539,536,531,526,521,515,515,514,514,514,514,508,505,486],"ymouse":[538,538,538,538,538,538,538,538,538,538,538,538,538,538,538,538,538,538,538,538,538,538,538,538,538,538,538,538,538,526,497,375,305,244,215,205,204,203,203,201,200,195,192,187,176,169,163,158,151,145,140,134,134,133,133,133,133,122,113,79],"timestamp_mouse":[14,32,61,72,92,113,133,152,172,193,212,232,253,273,294,314,332,353,372,393,413,432,452,473,494,512,534,552,572,592,612,632,652,672,692,713,733,752,773,793,812,833,852,873,892,912,932,952,972,992,1012,1033,1052,1072,1092,1112,1132,1152,1172,1193],"xSR":741.5,"ySR":469.95,"xT1":424.9,"yT1":0,"xT2":1058.1,"yT2":0,"toosoon":0,"cond_shown":"randomdotsizeEA","ratio_trial":250,"smaller_num":"2","larger_num":"8","correct_side":2,"subjID":"saraladino19","gender":"1","age":"11","school":"6"},{"start_time":1551900717579,"click_time":1551900719193,"finger_time":1551900718392,"fix_duration":823.6527397205459,"trial":3,"RT":813,"MT":801,"sideResp":2,"stimulus":"img/750/equaldotanddens/L/14_Ratio_750_L_8_R_6.png","xmouse":[799,799,799,799,799,799,799,799,799,799,799,799,799,799,799,799,799,799,799,799,799,799,799,799,799,799,799,799,799,799,799,799,799,799,799,799,807,815,828,838,849,862,864,875,883,886,893,898,905,914,927,954,973,991,1005,1020,1025,1029,1033,1040,1046,1053,1056,1057,1057,1057,1060,1061,1062,1064,1074,1076,1077,1077,1078,1078,1079,1079,1080,1080,1089],"ymouse":[529,529,529,529,529,529,529,529,529,529,529,529,529,529,529,529,529,529,529,529,529,529,529,529,529,529,529,529,529,529,529,529,529,529,529,529,524,517,496,472,444,387,367,330,299,289,274,265,253,237,215,194,183,173,166,157,155,153,150,146,142,135,133,132,132,132,130,128,127,125,118,116,115,114,114,113,111,110,109,107,94],"timestamp_mouse":[13,35,53,73,93,115,133,155,174,193,213,234,253,273,293,313,333,353,373,393,413,434,453,474,493,513,533,554,573,593,613,634,653,675,693,713,733,754,774,794,813,834,854,873,894,913,933,954,974,994,1013,1033,1054,1074,1093,1114,1133,1153,1173,1193,1214,1233,1254,1274,1294,1313,1334,1354,1373,1393,1414,1433,1453,1473,1493,1513,1533,1554,1573,1593,1614],"xSR":741.5,"ySR":469.95,"xT1":424.9,"yT1":0,"xT2":1058.1,"yT2":0,"toosoon":0,"cond_shown":"equaldotanddens","ratio_trial":750,"smaller_num":"6","larger_num":"8","correct_side":1,"subjID":"saraladino19","gender":"1","age":"11","school":"6"},{"start_time":1551900723031,"click_time":1551900724694,"finger_time":1551900724113,"fix_duration":1018.9571867562821,"trial":4,"RT":1082,"MT":581,"sideResp":2,"stimulus":"img/750/equaldotsize/R/7_Ratio_750_L_3_R_4.png","xmouse":[757,757,757,757,757,757,757,757,757,757,757,757,757,757,757,757,757,757,757,757,757,757,757,757,757,757,757,757,757,757,757,757,757,757,757,757,757,757,757,757,757,757,757,757,757,757,757,757,757,757,756,756,758,762,773,777,792,809,837,912,936,941,941,943,966,969,970,970,972,975,977,980,982,987,997,1005,1008,1015,1021,1036,1046,1051,1056,1060],"ymouse":[498,498,498,498,498,498,498,498,498,498,498,498,498,498,498,498,498,498,498,498,498,498,498,498,498,498,498,498,498,498,498,498,498,498,498,498,498,498,498,498,498,498,498,498,498,498,498,498,498,498,495,493,487,482,457,451,435,424,406,362,342,332,332,332,318,315,314,313,312,312,311,310,308,299,275,251,235,214,190,140,118,100,90,80],"timestamp_mouse":[4,21,41,61,81,102,121,142,161,182,201,222,242,261,283,301,321,341,361,382,402,421,441,462,481,501,521,541,561,583,601,621,642,661,681,701,721,741,761,781,802,823,841,861,881,902,921,941,961,982,1001,1021,1041,1061,1082,1101,1121,1142,1161,1181,1201,1221,1241,1261,1281,1302,1321,1341,1362,1381,1401,1421,1442,1461,1481,1501,1522,1541,1561,1581,1601,1621,1641,1663],"xSR":741.5,"ySR":469.95,"xT1":424.9,"yT1":0,"xT2":1058.1,"yT2":0,"toosoon":0,"cond_shown":"equaldotsize","ratio_trial":750,"smaller_num":"3","larger_num":"4","correct_side":2,"subjID":"saraladino19","gender":"1","age":"11","school":"6"},{"start_time":1551900726345,"click_time":1551900729032,"finger_time":1551900728438,"fix_duration":470.76742894020754,"trial":5,"RT":2093,"MT":594,"sideResp":1,"stimulus":"img/900/randomdotsizeEA/L/1_Ratio_900_L_10_R_9.png","xmouse":[774,774,774,774,774,774,774,774,774,774,774,774,774,774,774,774,774,774,774,774,774,774,774,774,774,774,774,774,774,774,774,774,774,774,774,774,774,774,774,774,774,774,774,774,774,774,774,774,774,774,774,774,774,774,774,774,774,774,774,774,774,774,774,774,774,774,774,774,774,774,774,774,774,774,774,774,774,774,774,774,774,774,774,774,774,774,774,774,774,774,774,774,774,774,774,774,774,774,774,774,774,774,772,766,744,741,733,707,574,481,374,244,93,93,93,93,93,93,93,93,93,93,93,93,93,93,93,93,93,93,93,93,93,93,459],"ymouse":[524,524,524,524,524,524,524,524,524,524,524,524,524,524,524,524,524,524,524,524,524,524,524,524,524,524,524,524,524,524,524,524,524,524,524,524,524,524,524,524,524,524,524,524,524,524,524,524,524,524,524,524,524,524,524,524,524,524,524,524,524,524,524,524,524,524,524,524,524,524,524,524,524,524,524,524,524,524,524,524,524,524,524,524,524,524,524,524,524,524,524,524,524,524,524,524,524,524,524,524,524,524,524,523,451,437,418,380,294,249,202,143,2,2,2,2,2,2,2,2,2,2,2,2,2,2,2,2,2,2,2,2,2,2,5],"timestamp_mouse":[10,27,47,67,87,107,127,148,168,188,208,227,248,267,287,308,327,347,367,387,407,427,447,467,487,508,527,547,567,587,607,627,647,667,688,708,727,748,768,787,808,828,847,867,888,908,927,947,967,987,1007,1027,1047,1067,1087,1107,1127,1147,1167,1187,1207,1228,1247,1267,1287,1308,1327,1347,1367,1388,1407,1428,1447,1468,1487,1508,1527,1548,1567,1589,1608,1628,1648,1668,1687,1708,1727,1747,1767,1787,1808,1827,1848,1867,1889,1907,1928,1948,1969,1988,2007,2027,2047,2068,2093,2107,2128,2147,2169,2187,2208,2227,2248,2269,2287,2308,2327,2347,2368,2387,2407,2427,2447,2467,2487,2507,2528,2547,2567,2588,2608,2627,2648,2667,2687],"xSR":741.5,"ySR":469.95,"xT1":424.9,"yT1":0,"xT2":1058.1,"yT2":0,"toosoon":0,"cond_shown":"randomdotsizeEA","ratio_trial":900,"smaller_num":"9","larger_num":"10","correct_side":1,"subjID":"saraladino19","gender":"1","age":"11","school":"6"},{"start_time":1551900730959,"click_time":1551900732572,"finger_time":1551900731672,"fix_duration":1066.7540959735065,"trial":6,"RT":713,"MT":900,"sideResp":1,"stimulus":"img/900/randomdotsizeEA/L/4_Ratio_900_L_20_R_18.png","xmouse":[782,782,782,782,782,782,782,782,782,782,782,782,782,782,782,782,782,782,782,782,782,781,780,780,780,780,780,780,780,780,780,780,780,779,776,775,775,775,774,774,766,758,746,718,708,700,688,674,641,616,589,554,524,484,459,438,422,396,396,396,396,396,396,396,396,396,396,396,396,396,396,396,396,396,396,396,396,396,396,396,430],"ymouse":[528,528,528,528,528,528,528,528,528,528,528,528,528,528,528,528,528,528,528,528,528,528,528,528,528,528,528,528,528,528,528,528,528,513,491,455,433,412,381,360,338,318,300,273,268,266,264,262,253,246,233,220,206,166,132,103,76,22,22,22,22,22,22,22,22,22,22,22,22,22,22,22,22,22,22,22,22,22,22,22,3],"timestamp_mouse":[13,33,53,74,93,113,133,153,173,195,213,233,253,273,294,313,333,355,374,393,413,433,453,473,493,513,533,553,573,594,613,634,653,673,693,713,734,753,774,793,813,834,854,873,893,913,934,953,973,993,1013,1033,1053,1073,1094,1114,1133,1153,1174,1193,1213,1233,1253,1273,1293,1314,1334,1353,1373,1393,1413,1433,1453,1473,1494,1514,1534,1554,1573,1593,1613],"xSR":741.5,"ySR":469.95,"xT1":424.9,"yT1":0,"xT2":1058.1,"yT2":0,"toosoon":0,"cond_shown":"randomdotsizeEA","ratio_trial":900,"smaller_num":"18","larger_num":"20","correct_side":1,"subjID":"saraladino19","gender":"1","age":"11","school":"6"},{"start_time":1551900736519,"click_time":1551900737994,"finger_time":1551900737332,"fix_duration":545.5772693242592,"trial":7,"RT":813,"MT":662,"sideResp":1,"stimulus":"img/250/equaldotsize/L/2_Ratio_250_L_16_R_4.png","xmouse":[767,767,767,767,767,767,767,767,767,767,767,767,767,767,767,767,767,767,767,767,767,767,767,767,767,767,767,767,767,767,763,755,749,748,747,747,749,750,749,747,745,735,730,726,719,707,697,694,692,687,683,678,678,678,678,678,678,678,670,637,582,482,441,420,411,411,410,410,410,410,410,411,419,433],"ymouse":[540,540,540,540,540,540,540,540,540,540,540,540,540,540,540,540,540,540,540,540,540,540,540,540,540,540,540,540,540,540,540,540,538,538,529,518,497,489,481,473,469,460,458,457,456,452,448,446,444,443,442,440,440,440,440,440,440,430,419,374,300,180,142,122,115,114,113,113,113,113,113,109,97,82],"timestamp_mouse":[14,34,53,73,93,113,133,153,173,193,213,233,254,273,294,314,333,354,373,393,414,433,453,474,493,513,535,554,573,593,613,633,654,674,694,714,734,753,773,793,813,833,854,873,893,913,934,953,974,993,1013,1034,1053,1073,1094,1113,1134,1154,1173,1194,1214,1233,1253,1273,1293,1314,1333,1353,1373,1394,1414,1433,1453,1474],"xSR":741.5,"ySR":469.95,"xT1":424.9,"yT1":0,"xT2":1058.1,"yT2":0,"toosoon":0,"cond_shown":"equaldotsize","ratio_trial":250,"smaller_num":"4","larger_num":"16","correct_side":1,"subjID":"saraladino19","gender":"1","age":"11","school":"6"},{"start_time":1551900740388,"click_time":1551900741532,"finger_time":1551900740992,"fix_duration":1134.2222033209391,"trial":8,"RT":604,"MT":540,"sideResp":2,"stimulus":"img/750/equaldotsize/L/14_Ratio_750_L_8_R_6.png","xmouse":[790,790,790,790,790,790,790,790,790,790,790,790,790,790,790,790,790,790,790,790,790,790,790,790,791,791,791,791,789,787,786,786,786,791,819,857,898,937,971,981,996,1000,1006,1021,1026,1029,1033,1034,1036,1036,1036,1036,1040,1047,1048,1052,1058,1062],"ymouse":[504,504,504,504,504,504,504,504,504,504,504,504,504,504,504,504,504,504,504,504,504,504,504,504,503,503,503,502,496,483,468,456,443,396,334,267,210,164,124,114,106,103,98,84,76,69,60,55,50,49,49,48,48,48,47,47,46,46],"timestamp_mouse":[4,25,44,64,84,106,126,144,164,184,204,224,244,264,284,304,325,344,365,386,405,424,444,464,484,504,524,545,564,584,604,624,645,665,684,704,724,744,764,784,804,824,844,864,884,905,924,944,964,984,1004,1024,1044,1064,1084,1105,1124,1144],"xSR":741.5,"ySR":469.95,"xT1":424.9,"yT1":0,"xT2":1058.1,"yT2":0,"toosoon":0,"cond_shown":"equaldotsize","ratio_trial":750,"smaller_num":"6","larger_num":"8","correct_side":1,"subjID":"saraladino19","gender":"1","age":"11","school":"6"},{"start_time":1551900743582,"click_time":1551900745012,"finger_time":1551900744173,"fix_duration":1128.7265467748866,"trial":9,"RT":591,"MT":839,"sideResp":1,"stimulus":"img/900/equaldotanddens/R/13_Ratio_900_L_18_R_20.png","xmouse":[802,802,802,802,802,802,802,802,802,802,802,802,802,802,802,802,802,802,802,802,802,802,802,802,802,799,794,782,769,728,707,678,641,578,541,490,413,413,413,413,413,413,413,413,413,413,413,413,413,413,413,413,413,340,351,356,362,369,378,391,391,391,391,391,397,401,402,403,416,419,423,426],"ymouse":[537,537,537,537,537,537,537,537,537,537,537,537,537,537,537,537,537,537,537,537,537,537,537,537,537,531,521,504,486,437,414,380,337,266,214,141,5,5,5,5,5,5,5,5,5,5,5,5,5,5,5,5,5,5,29,38,47,57,65,73,73,73,73,73,74,74,74,74,74,74,74,74],"timestamp_mouse":[10,30,52,71,91,111,130,150,170,190,211,231,250,270,290,310,331,351,371,390,410,430,450,471,490,511,531,550,570,591,610,630,650,671,690,710,731,750,770,791,812,830,851,871,891,910,930,950,970,990,1011,1031,1050,1070,1090,1111,1130,1150,1170,1190,1210,1230,1250,1271,1290,1310,1330,1350,1371,1390,1411,1430],"xSR":741.5,"ySR":469.95,"xT1":424.9,"yT1":0,"xT2":1058.1,"yT2":0,"toosoon":0,"cond_shown":"equaldotanddens","ratio_trial":900,"smaller_num":"18","larger_num":"20","correct_side":2,"subjID":"saraladino19","gender":"1","age":"11","school":"6"},{"start_time":1551900747008,"click_time":1551900748173,"finger_time":1551900747672,"fix_duration":733.6899312413697,"trial":10,"RT":664,"MT":501,"sideResp":2,"stimulus":"img/250/equaldotanddens/R/10_Ratio_250_L_4_R_16.png","xmouse":[800,800,800,800,800,800,800,800,800,800,800,800,800,800,800,800,800,800,800,800,800,800,800,800,800,800,800,800,800,802,809,820,836,874,893,912,938,957,982,995,1005,1013,1020,1032,1043,1051,1051,1051,1051,1051,1051,1051,1051,1051,1051,1051,1051,1051,1100],"ymouse":[514,514,514,514,514,514,514,514,514,514,514,514,514,514,514,514,514,514,514,514,514,514,514,514,514,514,514,514,514,513,509,500,486,438,397,346,274,226,136,101,78,60,44,19,7,0,0,0,0,0,0,0,0,0,0,0,0,0,6],"timestamp_mouse":[7,24,44,64,84,105,124,145,164,185,204,224,245,265,284,304,324,344,365,384,404,424,445,466,485,504,524,544,564,584,605,625,644,664,685,705,724,744,764,784,804,824,844,864,884,904,924,946,965,984,1004,1025,1044,1064,1085,1105,1124,1144,1165],"xSR":741.5,"ySR":469.95,"xT1":424.9,"yT1":0,"xT2":1058.1,"yT2":0,"toosoon":0,"cond_shown":"equaldotanddens","ratio_trial":250,"smaller_num":"4","larger_num":"16","correct_side":2,"subjID":"saraladino19","gender":"1","age":"11","school":"6"},{"start_time":1551900749485,"click_time":1551900750992,"finger_time":1551900750272,"fix_duration":250,"trial":11,"RT":787,"MT":720,"sideResp":1,"stimulus":"img/250/equaldotanddens/L/7_Ratio_250_L_8_R_2.png","xmouse":[790,790,790,790,790,790,790,790,790,790,790,790,790,790,790,790,790,790,790,790,790,790,790,790,790,790,790,790,790,790,790,790,790,790,790,790,790,788,785,736,665,623,594,577,569,569,569,569,568,566,560,554,547,541,527,521,517,514,512,509,499,497,495,495,495,493,493,493,495,498,500,500,500,500,492,486],"ymouse":[526,526,526,526,526,526,526,526,526,526,526,526,526,526,526,526,526,526,526,526,526,526,526,526,526,526,526,526,526,526,526,526,526,526,526,526,526,526,522,461,398,369,341,320,298,296,295,293,291,287,279,272,264,258,230,221,215,210,207,202,187,185,185,185,185,178,168,161,153,138,131,130,130,130,101,96],"timestamp_mouse":[9,27,47,67,87,107,127,147,167,188,207,227,248,267,288,308,327,347,368,387,408,428,448,467,487,508,527,547,567,587,607,628,647,667,687,707,727,747,768,787,808,828,847,867,888,907,927,948,967,987,1008,1028,1048,1067,1087,1108,1128,1148,1167,1187,1208,1228,1248,1267,1288,1308,1328,1347,1367,1387,1407,1427,1447,1467,1487,1507],"xSR":741.5,"ySR":469.95,"xT1":424.9,"yT1":0,"xT2":1058.1,"yT2":0,"toosoon":0,"cond_shown":"equaldotanddens","ratio_trial":250,"smaller_num":"2","larger_num":"8","correct_side":1,"subjID":"saraladino19","gender":"1","age":"11","school":"6"},{"start_time":1551900753316,"click_time":1551900754212,"finger_time":1551900753732,"fix_duration":322.36294989695523,"trial":12,"RT":416,"MT":480,"sideResp":1,"stimulus":"img/500/equaldotsize/L/4_Ratio_500_L_18_R_9.png","xmouse":[790,787,787,782,780,779,779,779,779,778,776,775,775,775,775,775,775,775,773,765,753,740,729,713,707,700,690,679,649,631,612,595,579,554,551,551,550,549,542,537,532,527,522,489,465],"ymouse":[486,486,486,487,487,487,488,488,488,491,495,498,499,499,499,499,499,499,492,474,455,437,420,387,375,365,350,341,329,324,319,315,312,306,306,306,306,305,281,263,246,228,208,126,69],"timestamp_mouse":[17,36,56,76,97,116,136,156,178,196,216,236,257,276,296,316,336,357,376,396,416,436,457,477,496,517,536,557,577,596,616,636,656,676,696,717,736,756,777,797,817,837,857,876,896],"xSR":741.5,"ySR":469.95,"xT1":424.9,"yT1":0,"xT2":1058.1,"yT2":0,"toosoon":0,"cond_shown":"equaldotsize","ratio_trial":500,"smaller_num":"9","larger_num":"18","correct_side":1,"subjID":"saraladino19","gender":"1","age":"11","school":"6"},{"start_time":1551900757444,"click_time":1551900758452,"finger_time":1551900757872,"fix_duration":950.700302176158,"trial":13,"RT":428,"MT":580,"sideResp":2,"stimulus":"img/900/equaldotsize/R/3_Ratio_900_L_9_R_10.png","xmouse":[793,793,793,793,793,793,793,793,793,793,793,793,793,793,793,793,793,793,792,774,748,731,726,726,726,726,726,726,726,731,745,761,788,803,812,822,829,877,964,1046,1120,1158,1164,1164,1164,1164,1164,1163,1162,1160,1158],"ymouse":[541,541,541,541,541,541,541,541,541,541,541,541,541,541,541,541,541,541,541,543,544,544,544,544,544,544,544,544,544,543,531,518,492,471,446,423,399,319,238,180,125,100,93,93,93,93,93,87,75,70,67],"timestamp_mouse":[9,28,48,68,88,108,128,148,168,188,208,228,248,268,288,308,328,348,369,389,408,428,448,468,488,508,529,548,570,588,609,628,648,669,689,709,728,748,769,789,809,829,849,869,889,909,929,948,968,989,1008],"xSR":741.5,"ySR":469.95,"xT1":424.9,"yT1":0,"xT2":1058.1,"yT2":0,"toosoon":0,"cond_shown":"equaldotsize","ratio_trial":900,"smaller_num":"9","larger_num":"10","correct_side":2,"subjID":"saraladino19","gender":"1","age":"11","school":"6"},{"start_time":1551900760639,"click_time":1551900762093,"finger_time":1551900761132,"fix_duration":1062.5354556071181,"trial":14,"RT":493,"MT":961,"sideResp":2,"stimulus":"img/250/equaldotanddens/R/13_Ratio_250_L_2_R_8.png","xmouse":[822,822,822,822,822,822,822,822,822,822,822,822,822,822,822,822,822,822,822,822,821,821,821,819,815,804,787,757,659,630,612,598,581,577,571,567,562,559,557,557,557,557,566,602,639,664,698,791,887,908,920,924,926,927,930,934,942,958,966,969,974,979,992,998,1008,1018,1029,1040,1041,1043,1046,1052,1069],"ymouse":[490,490,490,490,490,490,490,490,490,490,490,490,490,490,490,490,490,490,490,490,490,490,487,479,468,452,431,406,358,347,342,339,336,334,330,327,326,325,325,325,325,325,319,296,274,259,240,162,91,76,70,67,67,67,66,65,64,61,60,59,59,59,56,56,54,53,50,48,47,47,47,46,42],"timestamp_mouse":[18,38,54,73,93,113,133,153,173,194,213,233,253,273,294,313,333,353,373,393,413,433,453,473,493,513,533,553,574,594,613,633,653,673,694,713,733,753,774,793,813,834,854,873,894,913,934,953,974,994,1013,1033,1054,1074,1093,1113,1133,1154,1174,1194,1214,1233,1254,1273,1293,1315,1335,1354,1373,1393,1413,1433,1454],"xSR":741.5,"ySR":469.95,"xT1":424.9,"yT1":0,"xT2":1058.1,"yT2":0,"toosoon":0,"cond_shown":"equaldotanddens","ratio_trial":250,"smaller_num":"2","larger_num":"8","correct_side":2,"subjID":"saraladino19","gender":"1","age":"11","school":"6"},{"start_time":1551900767077,"click_time":1551900768754,"finger_time":1551900767512,"fix_duration":1104.5003888052054,"trial":15,"RT":435,"MT":1242,"sideResp":1,"stimulus":"img/500/equaldotanddens/L/10_Ratio_500_L_4_R_2.png","xmouse":[798,798,798,798,798,798,798,798,798,798,797,795,795,795,795,795,795,795,795,795,798,832,838,843,847,848,846,841,833,814,755,561,469,358,325,315,314,314,314,314,314,316,320,327,337,349,360,363,366,369,370,372,374,376,380,384,405,407,408,408,410,412,417,419,420,421,421,421,421,421,422,422,422,422,422,422,422,422,422,422,422,422,423,425],"ymouse":[540,540,540,540,540,540,540,540,540,540,540,539,538,538,538,538,538,538,538,537,526,456,433,414,397,381,353,344,333,319,280,199,173,142,133,131,131,131,131,131,127,121,112,89,72,56,47,47,46,46,45,45,45,45,45,45,41,40,40,40,40,40,39,39,39,39,39,39,39,39,39,39,39,39,39,39,39,39,39,39,39,39,38,38],"timestamp_mouse":[16,35,55,76,95,117,136,156,194,196,217,236,257,276,296,315,335,356,375,396,415,435,456,476,495,515,535,555,576,595,617,636,656,675,696,715,736,756,775,796,815,836,856,876,896,916,936,956,977,996,1015,1037,1056,1075,1095,1115,1136,1155,1176,1196,1215,1236,1255,1275,1295,1315,1336,1355,1376,1396,1417,1436,1457,1475,1495,1516,1535,1556,1576,1597,1617,1636,1657,1677],"xSR":741.5,"ySR":469.95,"xT1":424.9,"yT1":0,"xT2":1058.1,"yT2":0,"toosoon":0,"cond_shown":"equaldotanddens","ratio_trial":500,"smaller_num":"2","larger_num":"4","correct_side":1,"subjID":"saraladino19","gender":"1","age":"11","school":"6"},{"start_time":1551900775584,"click_time":1551900776793,"finger_time":1551900776633,"fix_duration":250,"trial":16,"RT":1049,"MT":160,"sideResp":1,"stimulus":"img/250/randomdotsizeEA/R/6_Ratio_250_L_6_R_24.png","xmouse":[766,766,766,766,766,766,766,766,766,766,766,766,766,766,766,766,766,766,766,766,766,766,766,766,766,766,766,766,766,767,769,773,774,774,773,767,765,765,765,765,765,765,765,765,765,765,765,765,764,763,759,755,734,661,603,560,535,511,511,511,511],"ymouse":[520,520,520,520,520,520,520,520,520,520,520,520,520,520,520,520,520,520,520,520,520,520,520,520,520,520,520,520,520,516,512,506,504,495,487,480,480,480,480,480,480,480,480,480,480,480,480,480,481,490,497,497,494,449,405,367,336,263,206,135,67],"timestamp_mouse":[9,28,49,68,89,109,129,149,169,189,208,229,250,270,289,309,329,350,368,389,409,428,449,470,488,508,528,550,569,590,610,628,648,668,688,708,728,750,768,788,809,829,850,869,888,908,928,948,969,989,1009,1029,1049,1068,1088,1110,1129,1149,1169,1189,1209],"xSR":741.5,"ySR":469.95,"xT1":424.9,"yT1":0,"xT2":1058.1,"yT2":0,"toosoon":0,"cond_shown":"randomdotsizeEA","ratio_trial":250,"smaller_num":"6","larger_num":"24","correct_side":2,"subjID":"saraladino19","gender":"1","age":"11","school":"6"},{"start_time":1551900778718,"click_time":1551900780312,"finger_time":1551900779952,"fix_duration":704.662388991057,"trial":17,"RT":1234,"MT":360,"sideResp":2,"stimulus":"img/750/equaldotsize/L/13_Ratio_750_L_8_R_6.png","xmouse":[762,762,762,762,761,761,761,761,761,761,761,761,761,761,761,761,761,761,761,761,761,761,761,761,761,761,761,761,761,759,759,759,759,759,759,759,759,759,759,759,759,759,759,759,759,759,759,759,759,759,759,759,759,759,759,759,759,759,759,764,778,782,786,790,796,817,849,862,880,898,914,945,958,979,995,1017,1039,1049,1057,1064],"ymouse":[527,527,527,527,526,526,526,526,526,526,526,526,526,526,526,526,526,526,526,526,526,526,526,526,526,526,526,526,522,518,517,517,517,517,517,517,517,517,517,517,517,517,517,517,517,517,517,517,517,517,517,517,517,517,517,517,517,516,510,499,474,465,455,444,431,396,351,329,291,258,235,196,179,161,140,116,89,76,67,58],"timestamp_mouse":[15,35,54,74,94,115,135,155,174,195,215,235,256,275,296,315,335,356,376,395,414,436,455,475,495,514,535,554,574,594,615,649,654,674,694,715,734,755,775,795,815,835,855,874,894,914,934,954,974,994,1014,1034,1056,1075,1095,1115,1136,1154,1176,1195,1215,1234,1255,1276,1296,1315,1335,1356,1374,1394,1414,1434,1455,1475,1495,1514,1534,1554,1575,1594],"xSR":741.5,"ySR":469.95,"xT1":424.9,"yT1":0,"xT2":1058.1,"yT2":0,"toosoon":0,"cond_shown":"equaldotsize","ratio_trial":750,"smaller_num":"6","larger_num":"8","correct_side":1,"subjID":"saraladino19","gender":"1","age":"11","school":"6"},{"start_time":1551900783572,"click_time":1551900785233,"finger_time":1551900784132,"fix_duration":996.5303545566748,"trial":18,"RT":560,"MT":1101,"sideResp":2,"stimulus":"img/900/randomdotsizeEA/R/14_Ratio_900_L_18_R_20.png","xmouse":[780,780,780,780,780,780,780,780,779,779,779,779,779,779,780,781,781,781,781,782,782,782,781,780,774,774,773,767,758,729,697,676,654,620,592,588,586,584,581,578,577,575,575,573,569,568,567,565,564,563,562,562,564,570,599,620,638,650,654,656,659,661,664,669,689,696,705,719,759,977,1053,1086,1088,1089,1089,1089,1089,1089,1089,1089,1085,1082,1080,1077],"ymouse":[553,553,553,553,553,553,553,553,553,553,553,553,553,548,544,542,539,538,537,533,533,529,523,516,500,494,488,479,465,435,412,401,383,356,338,334,330,326,322,320,319,317,317,315,311,309,307,303,300,295,292,287,283,278,260,251,243,238,236,236,234,233,232,230,222,218,216,212,205,166,148,136,134,133,128,126,123,121,119,118,110,106,101,96],"timestamp_mouse":[9,22,41,74,81,101,121,142,161,180,200,220,240,261,280,300,321,341,362,380,401,421,442,461,480,501,520,541,560,580,600,620,641,660,681,701,721,741,762,781,801,821,840,860,881,901,920,940,960,981,1000,1020,1040,1060,1080,1101,1120,1140,1161,1180,1201,1221,1240,1261,1281,1300,1320,1341,1362,1381,1401,1421,1440,1460,1481,1501,1520,1540,1560,1581,1600,1620,1642,1660],"xSR":741.5,"ySR":469.95,"xT1":424.9,"yT1":0,"xT2":1058.1,"yT2":0,"toosoon":0,"cond_shown":"randomdotsizeEA","ratio_trial":900,"smaller_num":"18","larger_num":"20","correct_side":2,"subjID":"saraladino19","gender":"1","age":"11","school":"6"},{"start_time":1551900787159,"click_time":1551900788533,"finger_time":1551900787732,"fix_duration":604.9096053954081,"trial":19,"RT":573,"MT":801,"sideResp":2,"stimulus":"img/900/equaldotsize/L/4_Ratio_900_L_20_R_18.png","xmouse":[834,834,834,834,834,834,834,834,834,834,834,834,834,834,834,834,834,834,834,834,834,834,831,828,827,825,824,824,824,825,831,834,837,844,860,867,873,888,911,975,995,1012,1023,1030,1033,1036,1037,1039,1039,1041,1043,1044,1045,1045,1048,1049,1049,1050,1051,1052,1054,1054,1054,1055,1060,1075,1078,1080,1082],"ymouse":[537,537,537,537,537,537,537,537,537,537,537,537,537,537,537,537,537,537,537,537,531,514,504,495,490,481,476,470,460,457,442,438,433,426,413,410,406,398,383,316,270,232,211,195,189,178,173,168,163,158,143,138,136,132,127,126,124,122,120,119,117,116,116,116,111,102,101,100,99],"timestamp_mouse":[13,35,53,75,94,114,133,155,174,193,213,233,255,275,294,314,333,353,373,394,414,433,453,473,493,513,533,553,573,594,613,633,653,673,694,713,733,753,773,795,814,834,854,873,893,913,934,955,975,994,1014,1034,1054,1073,1094,1113,1134,1153,1174,1193,1215,1235,1254,1274,1295,1313,1334,1354,1374],"xSR":741.5,"ySR":469.95,"xT1":424.9,"yT1":0,"xT2":1058.1,"yT2":0,"toosoon":0,"cond_shown":"equaldotsize","ratio_trial":900,"smaller_num":"18","larger_num":"20","correct_side":1,"subjID":"saraladino19","gender":"1","age":"11","school":"6"},{"start_time":1551900792350,"click_time":1551900793013,"finger_time":1551900792893,"fix_duration":1316.0787729273995,"trial":20,"RT":543,"MT":120,"sideResp":2,"stimulus":"img/750/equaldotsize/R/15_Ratio_750_L_9_R_12.png","xmouse":[763,763,763,763,763,763,763,763,763,763,763,763,763,763,763,763,763,763,763,763,763,763,763,763,767,777,801,855,869,899,943,1043,1093,1129],"ymouse":[505,505,505,505,505,505,505,505,505,505,505,505,505,505,505,505,505,505,505,505,505,505,505,505,503,496,479,420,390,349,295,189,139,99],"timestamp_mouse":[13,24,42,62,82,102,123,144,163,184,203,223,242,262,282,302,324,343,363,383,403,424,443,463,482,503,522,543,563,584,603,622,642,662],"xSR":741.5,"ySR":469.95,"xT1":424.9,"yT1":0,"xT2":1058.1,"yT2":0,"toosoon":0,"cond_shown":"equaldotsize","ratio_trial":750,"smaller_num":"9","larger_num":"12","correct_side":2,"subjID":"saraladino19","gender":"1","age":"11","school":"6"},{"start_time":1551900794835,"click_time":1551900795633,"finger_time":1551900795273,"fix_duration":980.2016969096754,"trial":21,"RT":438,"MT":360,"sideResp":1,"stimulus":"img/750/equaldotsize/L/9_Ratio_750_L_4_R_3.png","xmouse":[763,763,763,763,763,763,763,763,763,763,763,763,763,763,763,763,763,763,763,763,765,774,794,805,815,820,826,843,850,856,856,846,812,791,758,722,675,573,526,485],"ymouse":[477,477,477,477,477,477,477,477,477,477,477,477,477,477,477,477,477,477,477,477,471,454,433,422,413,404,393,362,340,291,212,149,91,80,70,63,62,64,71,82],"timestamp_mouse":[18,41,58,78,98,117,137,157,179,198,218,238,258,277,299,318,337,359,378,397,417,438,458,478,498,518,538,557,577,598,618,638,658,678,697,717,737,757,777,797],"xSR":741.5,"ySR":469.95,"xT1":424.9,"yT1":0,"xT2":1058.1,"yT2":0,"toosoon":0,"cond_shown":"equaldotsize","ratio_trial":750,"smaller_num":"3","larger_num":"4","correct_side":1,"subjID":"saraladino19","gender":"1","age":"11","school":"6"},{"start_time":1551900799758,"click_time":1551900801273,"finger_time":1551900800653,"fix_duration":1264.3475020908218,"trial":22,"RT":895,"MT":620,"sideResp":2,"stimulus":"img/900/equaldotanddens/L/10_Ratio_900_L_20_R_18.png","xmouse":[797,797,797,797,797,797,797,797,797,797,797,797,797,797,797,797,797,797,797,797,797,797,797,797,797,797,797,797,797,797,797,795,794,794,794,794,799,799,800,800,800,800,800,812,849,902,944,982,988,989,990,993,1001,1009,1017,1022,1024,1023,1022,1017,1013,1010,1010,1012,1015,1018,1019,1019,1019,1019,1019,1020,1029,1048,1056,1065],"ymouse":[547,547,547,547,547,547,547,547,547,547,547,547,547,547,547,547,547,547,547,547,547,547,547,547,547,547,547,547,547,547,547,547,547,547,547,546,521,520,519,519,519,519,518,497,460,419,378,334,323,316,311,299,285,274,262,254,224,213,200,181,152,94,83,75,67,60,58,58,58,58,58,58,58,58,58,58],"timestamp_mouse":[15,34,54,76,94,116,136,167,176,194,214,234,254,274,295,316,335,355,375,395,415,436,455,475,494,515,536,554,574,595,614,635,654,674,696,714,734,755,775,795,815,835,854,874,895,914,934,954,975,995,1016,1035,1055,1074,1094,1115,1135,1155,1174,1195,1215,1234,1255,1274,1294,1314,1335,1355,1375,1395,1415,1435,1455,1474,1496,1515],"xSR":741.5,"ySR":469.95,"xT1":424.9,"yT1":0,"xT2":1058.1,"yT2":0,"toosoon":0,"cond_shown":"equaldotanddens","ratio_trial":900,"smaller_num":"18","larger_num":"20","correct_side":1,"subjID":"saraladino19","gender":"1","age":"11","school":"6"},{"start_time":1551900803406,"click_time":1551900804172,"finger_time":1551900803774,"fix_duration":992.1479920306585,"trial":23,"RT":368,"MT":398,"sideResp":1,"stimulus":"img/500/equaldotanddens/L/4_Ratio_500_L_18_R_9.png","xmouse":[769,769,769,769,769,769,769,769,769,769,769,769,769,769,769,769,767,750,694,560,527,529,533,537,555,563,573,582,586,585,580,577,571,563,555,534,525,516,506],"ymouse":[521,521,521,521,521,521,521,521,521,521,521,521,521,521,521,521,522,522,495,397,382,379,376,372,356,347,334,318,304,258,248,239,228,217,203,163,140,115,92],"timestamp_mouse":[7,30,46,66,86,107,128,148,166,186,207,228,246,267,288,307,328,347,368,388,406,426,447,466,487,506,526,546,566,587,607,626,648,666,687,707,726,746,766],"xSR":741.5,"ySR":469.95,"xT1":424.9,"yT1":0,"xT2":1058.1,"yT2":0,"toosoon":0,"cond_shown":"equaldotanddens","ratio_trial":500,"smaller_num":"9","larger_num":"18","correct_side":1,"subjID":"saraladino19","gender":"1","age":"11","school":"6"},{"start_time":1551900808917,"click_time":1551900809652,"finger_time":1551900809272,"fix_duration":402.83440437001116,"trial":24,"RT":355,"MT":380,"sideResp":1,"stimulus":"img/250/equaldotsize/R/12_Ratio_250_L_5_R_20.png","xmouse":[772,772,772,772,772,776,778,779,779,779,779,779,779,779,779,778,763,741,715,652,612,555,510,463,383,352,340,332,330,329,329,330,337,354,394,412,428],"ymouse":[512,512,512,512,512,515,516,516,516,516,516,516,516,516,516,516,512,502,488,439,405,351,298,244,146,115,100,87,80,75,73,70,68,64,54,52,50],"timestamp_mouse":[15,35,56,76,96,115,135,156,176,196,215,237,256,276,295,315,337,355,376,396,417,436,457,476,496,515,535,555,575,596,615,635,656,675,695,716,735],"xSR":741.5,"ySR":469.95,"xT1":424.9,"yT1":0,"xT2":1058.1,"yT2":0,"toosoon":0,"cond_shown":"equaldotsize","ratio_trial":250,"smaller_num":"5","larger_num":"20","correct_side":2,"subjID":"saraladino19","gender":"1","age":"11","school":"6"},{"start_time":1551900812314,"click_time":1551900813272,"finger_time":1551900812853,"fix_duration":1398.6570257238902,"trial":25,"RT":539,"MT":419,"sideResp":2,"stimulus":"img/500/randomdotsizeEA/L/7_Ratio_500_L_10_R_5.png","xmouse":[770,770,770,770,770,770,770,770,770,770,770,770,770,770,770,770,770,770,770,770,770,770,770,770,770,777,800,834,880,940,1082,1135,1176,1203,1203,1203,1203,1203,1203,1203,1203,1203,1203,1203,1203,1203,1203,1199,1152],"ymouse":[522,522,522,522,522,522,522,522,522,522,522,522,522,522,522,522,522,522,522,522,522,522,522,522,522,518,492,449,400,344,192,128,68,14,14,14,14,14,14,14,14,14,14,14,14,14,14,12,78],"timestamp_mouse":[1,19,39,66,79,99,119,138,159,179,198,218,239,260,279,299,318,339,359,379,399,419,439,458,478,499,518,539,558,578,600,618,638,659,678,699,718,738,758,778,799,819,840,859,880,900,919,939,958],"xSR":741.5,"ySR":469.95,"xT1":424.9,"yT1":0,"xT2":1058.1,"yT2":0,"toosoon":0,"cond_shown":"randomdotsizeEA","ratio_trial":500,"smaller_num":"5","larger_num":"10","correct_side":1,"subjID":"saraladino19","gender":"1","age":"11","school":"6"},{"start_time":1551900814906,"click_time":1551900815673,"finger_time":1551900815252,"fix_duration":391.03977250697505,"trial":26,"RT":346,"MT":421,"sideResp":1,"stimulus":"img/900/equaldotsize/L/8_Ratio_900_L_20_R_18.png","xmouse":[797,801,802,802,802,802,802,802,802,802,802,802,802,801,796,786,752,711,654,595,545,475,460,453,453,453,453,454,456,457,461,463,464,464,464,464,464,464,464],"ymouse":[545,546,546,546,546,546,546,546,546,546,546,546,546,544,539,529,500,460,412,374,346,316,306,301,301,295,290,281,265,258,223,208,191,174,155,138,109,101,95],"timestamp_mouse":[7,27,47,72,88,106,127,147,168,187,206,227,247,267,286,306,327,346,366,387,407,428,447,467,487,508,527,546,567,587,608,626,647,667,686,706,727,748,767],"xSR":741.5,"ySR":469.95,"xT1":424.9,"yT1":0,"xT2":1058.1,"yT2":0,"toosoon":0,"cond_shown":"equaldotsize","ratio_trial":900,"smaller_num":"18","larger_num":"20","correct_side":1,"subjID":"saraladino19","gender":"1","age":"11","school":"6"},{"start_time":1551900817681,"click_time":1551900818353,"finger_time":1551900818212,"fix_duration":567.0935153623483,"trial":27,"RT":531,"MT":141,"sideResp":1,"stimulus":"img/750/equaldotanddens/R/3_Ratio_750_L_15_R_20.png","xmouse":[770,770,770,770,770,770,770,770,770,770,770,770,770,770,770,770,770,770,770,770,770,770,770,770,762,750,736,693,664,617,589,565,516,483],"ymouse":[508,508,508,508,508,508,508,508,508,508,508,508,508,508,508,508,508,508,508,508,508,508,508,502,493,479,463,404,363,290,247,204,135,93],"timestamp_mouse":[16,33,52,72,92,112,131,151,171,192,212,231,251,272,292,312,332,353,371,391,412,432,451,471,491,511,531,552,572,592,612,632,651,672],"xSR":741.5,"ySR":469.95,"xT1":424.9,"yT1":0,"xT2":1058.1,"yT2":0,"toosoon":0,"cond_shown":"equaldotanddens","ratio_trial":750,"smaller_num":"15","larger_num":"20","correct_side":2,"subjID":"saraladino19","gender":"1","age":"11","school":"6"},{"start_time":1551900820667,"click_time":1551900821734,"finger_time":1551900821172,"fix_duration":1213.401125778937,"trial":28,"RT":505,"MT":562,"sideResp":1,"stimulus":"img/250/randomdotsizeEA/R/13_Ratio_250_L_2_R_8.png","xmouse":[775,775,775,775,775,775,775,775,775,775,775,775,775,775,775,775,775,775,775,775,775,775,775,766,755,746,735,725,668,620,559,498,442,357,330,318,311,306,304,307,314,322,327,330,342,351,361,368,383,394,400,406,413,428],"ymouse":[516,516,516,516,516,516,516,516,516,516,516,516,516,516,516,516,516,516,516,516,516,516,516,492,475,461,448,432,349,297,247,214,184,142,123,110,100,88,57,36,26,17,14,12,11,9,8,8,8,8,9,10,12,18],"timestamp_mouse":[9,26,46,66,86,106,126,145,166,186,206,227,246,265,287,306,327,346,366,386,407,427,446,466,486,505,526,547,566,587,606,625,646,665,685,706,725,746,767,786,806,826,845,866,885,906,926,946,967,985,1005,1026,1046,1066],"xSR":741.5,"ySR":469.95,"xT1":424.9,"yT1":0,"xT2":1058.1,"yT2":0,"toosoon":0,"cond_shown":"randomdotsizeEA","ratio_trial":250,"smaller_num":"2","larger_num":"8","correct_side":2,"subjID":"saraladino19","gender":"1","age":"11","school":"6"},{"start_time":1551900823338,"click_time":1551900824193,"finger_time":1551900823652,"fix_duration":302.36553139953014,"trial":29,"RT":314,"MT":541,"sideResp":1,"stimulus":"img/500/equaldotsize/L/4_Ratio_500_L_18_R_9.png","xmouse":[803,803,803,803,803,803,803,803,803,803,803,803,803,803,802,784,770,762,756,735,711,665,607,496,458,340,329,328,328,328,328,328,328,328,328,328,328,328,330,336,380,406,428],"ymouse":[488,488,488,488,488,488,488,488,488,488,488,488,488,488,488,464,449,439,430,392,357,301,240,155,128,36,21,14,10,9,6,5,4,4,4,4,4,4,4,4,17,20,24],"timestamp_mouse":[14,35,62,76,95,115,135,155,175,194,214,235,255,275,295,314,335,355,375,396,415,434,454,474,494,515,534,556,575,596,615,635,654,675,695,716,735,755,774,796,815,834,855],"xSR":741.5,"ySR":469.95,"xT1":424.9,"yT1":0,"xT2":1058.1,"yT2":0,"toosoon":0,"cond_shown":"equaldotsize","ratio_trial":500,"smaller_num":"9","larger_num":"18","correct_side":1,"subjID":"saraladino19","gender":"1","age":"11","school":"6"},{"start_time":1551900826079,"click_time":1551900827093,"finger_time":1551900826412,"fix_duration":644.6921060880179,"trial":30,"RT":333,"MT":681,"sideResp":2,"stimulus":"img/250/equaldotanddens/L/3_Ratio_250_L_8_R_2.png","xmouse":[837,837,837,837,837,837,837,837,837,837,837,837,837,837,837,837,845,854,862,862,862,862,855,855,866,878,878,878,878,878,878,878,878,878,878,878,878,878,878,878,878,878,878,878,878,878,878,878,878,878,1094],"ymouse":[513,513,513,513,513,513,513,513,513,513,513,513,513,513,513,511,490,468,404,347,287,228,170,77,38,7,7,7,7,7,7,7,7,7,7,7,7,7,7,7,7,7,7,7,7,7,7,7,7,7,14],"timestamp_mouse":[14,34,54,75,94,115,134,154,173,194,214,233,253,273,293,313,333,354,374,394,413,434,453,473,495,514,534,553,575,594,614,635,654,674,694,714,734,755,774,795,813,834,855,874,894,913,933,953,975,993,1014],"xSR":741.5,"ySR":469.95,"xT1":424.9,"yT1":0,"xT2":1058.1,"yT2":0,"toosoon":0,"cond_shown":"equaldotanddens","ratio_trial":250,"smaller_num":"2","larger_num":"8","correct_side":1,"subjID":"saraladino19","gender":"1","age":"11","school":"6"},{"start_time":1551900835583,"click_time":1551900837793,"finger_time":1551900837233,"fix_duration":349.8545662605095,"trial":31,"RT":1650,"MT":560,"sideResp":2,"stimulus":"img/250/equaldotanddens/L/3_Ratio_250_L_8_R_2.png","xmouse":[788,788,788,788,788,788,788,788,788,788,788,788,788,788,788,788,788,788,788,788,788,788,788,788,788,788,788,788,788,788,788,788,788,788,788,788,788,788,788,788,788,788,788,788,788,788,788,788,788,788,788,788,788,788,788,788,788,788,788,788,788,788,788,788,788,788,788,788,788,788,788,788,788,788,788,788,788,788,788,788,800,837,884,948,1015,1189,1217,1236,1243,1244,1243,1243,1243,1243,1243,1243,1243,1243,1243,1243,1243,1243,1198,1194,1194,1188,1185,1180,1174,1162,1158],"ymouse":[555,555,555,555,555,555,555,555,555,555,555,555,555,555,555,555,555,555,555,555,555,555,555,555,555,555,555,555,555,555,555,555,555,555,555,555,555,555,555,555,555,555,555,555,555,555,555,555,555,555,555,555,555,555,555,555,555,555,555,555,555,555,555,555,555,555,555,555,555,555,555,555,555,555,555,555,555,555,555,555,537,492,438,375,304,149,110,74,49,12,7,3,1,1,1,1,1,1,1,1,1,1,0,2,3,14,20,27,36,52,55],"timestamp_mouse":[10,30,50,70,89,109,129,149,170,190,210,231,249,270,290,311,329,349,369,389,409,430,449,470,489,510,530,549,571,590,610,631,650,670,690,710,731,750,769,790,810,830,850,870,891,910,930,950,970,990,1010,1031,1050,1070,1090,1110,1130,1150,1170,1191,1209,1230,1250,1270,1290,1310,1330,1350,1369,1390,1411,1429,1449,1469,1490,1509,1529,1549,1569,1590,1609,1629,1650,1670,1690,1710,1729,1749,1770,1790,1809,1829,1849,1869,1889,1909,1929,1950,1970,1989,2010,2031,2051,2071,2090,2110,2129,2149,2171,2190,2209],"xSR":741.5,"ySR":469.95,"xT1":424.9,"yT1":0,"xT2":1058.1,"yT2":0,"toosoon":0,"cond_shown":"equaldotanddens","ratio_trial":250,"smaller_num":"2","larger_num":"8","correct_side":1,"subjID":"saraladino19","gender":"1","age":"11","school":"6"},{"start_time":1551900844995,"click_time":1551900846152,"finger_time":1551900845692,"fix_duration":1119.007042118301,"trial":32,"RT":697,"MT":460,"sideResp":1,"stimulus":"img/750/randomdotsizeEA/R/2_Ratio_750_L_6_R_8.png","xmouse":[801,801,801,801,801,801,801,801,801,801,801,801,801,801,801,801,801,801,801,801,801,801,801,801,801,801,801,801,801,801,793,778,764,748,721,696,656,609,555,454,419,414,413,411,411,411,411,411,411,411,411,411,412,412,415,418,421,425],"ymouse":[555,555,555,555,555,555,555,555,555,555,555,555,555,555,555,555,555,555,555,555,553,549,547,543,542,542,542,542,542,538,526,510,497,483,444,390,323,258,205,153,140,136,134,130,122,119,116,114,113,110,109,107,106,105,102,99,97,95],"timestamp_mouse":[17,37,60,79,99,118,137,157,178,198,218,238,258,278,297,317,337,357,378,399,419,437,458,477,499,519,538,558,579,597,618,637,658,679,697,717,739,757,778,798,818,837,857,879,897,918,938,958,979,997,1019,1038,1058,1077,1097,1117,1138,1157],"xSR":741.5,"ySR":469.95,"xT1":424.9,"yT1":0,"xT2":1058.1,"yT2":0,"toosoon":0,"cond_shown":"randomdotsizeEA","ratio_trial":750,"smaller_num":"6","larger_num":"8","correct_side":2,"subjID":"saraladino19","gender":"1","age":"11","school":"6"},{"start_time":1551900847644,"click_time":1551900849053,"finger_time":1551900848372,"fix_duration":250,"trial":33,"RT":728,"MT":681,"sideResp":2,"stimulus":"img/250/equaldotanddens/L/3_Ratio_250_L_8_R_2.png","xmouse":[805,805,805,805,805,805,805,805,805,805,805,805,805,805,805,805,805,804,806,808,810,813,818,822,824,826,828,831,832,834,835,835,835,835,837,839,855,883,884,884,884,884,884,884,887,905,925,951,973,978,983,988,994,1001,1006,1010,1010,1010,1010,1010,1010,1010,1010,1014,1016,1016,1017,1027,1037,1047,1060],"ymouse":[534,534,534,534,534,534,534,534,534,534,534,534,534,534,534,534,534,534,529,527,523,518,509,505,501,497,494,489,486,484,484,484,484,484,480,476,461,449,447,447,447,447,447,447,445,425,409,386,359,349,338,327,310,282,261,230,170,108,100,97,95,93,92,87,87,87,87,85,83,82,80],"timestamp_mouse":[13,30,50,69,89,108,129,148,168,188,208,228,248,268,288,308,328,348,368,390,409,428,448,469,489,509,528,548,569,589,608,628,649,670,689,709,728,749,769,789,809,829,849,869,889,910,930,948,970,989,1009,1030,1049,1068,1089,1108,1128,1149,1169,1189,1210,1229,1249,1270,1289,1309,1330,1349,1369,1389,1409],"xSR":741.5,"ySR":469.95,"xT1":424.9,"yT1":0,"xT2":1058.1,"yT2":0,"toosoon":0,"cond_shown":"equaldotanddens","ratio_trial":250,"smaller_num":"2","larger_num":"8","correct_side":1,"subjID":"saraladino19","gender":"1","age":"11","school":"6"},{"start_time":1551900853304,"click_time":1551900854412,"finger_time":1551900854094,"fix_duration":250,"trial":34,"RT":790,"MT":318,"sideResp":1,"stimulus":"img/750/equaldotanddens/L/9_Ratio_750_L_4_R_3.png","xmouse":[840,840,840,840,839,838,838,838,838,838,838,838,838,838,838,838,838,838,838,838,838,838,838,838,838,838,838,838,838,838,838,836,832,830,827,821,814,800,776,703,497,368,323,305,298,287,285,282,281,281,292,313,329,348,377,426],"ymouse":[539,539,539,539,539,539,539,539,539,539,539,539,539,539,539,539,539,539,539,539,539,539,539,539,539,539,539,539,539,539,539,539,534,531,527,522,518,512,495,434,283,203,169,153,146,131,123,114,104,95,75,60,54,51,48,46],"timestamp_mouse":[9,28,48,68,88,108,128,148,168,188,208,229,248,268,288,309,328,348,368,388,408,428,450,470,489,510,529,550,569,589,609,630,650,670,690,710,730,750,770,790,808,829,849,870,890,910,928,949,970,989,1008,1030,1050,1070,1090,1108],"xSR":741.5,"ySR":469.95,"xT1":424.9,"yT1":0,"xT2":1058.1,"yT2":0,"toosoon":0,"cond_shown":"equaldotanddens","ratio_trial":750,"smaller_num":"3","larger_num":"4","correct_side":1,"subjID":"saraladino19","gender":"1","age":"11","school":"6"},{"start_time":1551900855983,"click_time":1551900856893,"finger_time":1551900856633,"fix_duration":250,"trial":35,"RT":650,"MT":260,"sideResp":2,"stimulus":"img/250/equaldotsize/R/8_Ratio_250_L_1_R_4.png","xmouse":[797,797,797,797,797,797,795,795,795,795,795,795,795,795,795,795,795,795,795,795,795,795,795,795,795,795,795,795,795,795,796,802,827,839,850,863,885,943,972,998,1017,1027,1040,1048,1058,1072],"ymouse":[519,519,519,519,518,517,516,516,516,515,515,515,515,515,515,515,515,515,515,515,515,515,515,515,515,515,515,515,510,507,497,479,437,416,400,380,345,275,238,195,156,136,111,99,88,77],"timestamp_mouse":[10,30,51,70,91,110,130,151,171,191,210,230,250,270,290,310,330,350,370,390,411,430,450,470,490,510,530,550,570,591,611,630,650,670,690,711,730,750,770,790,811,830,850,871,891,910],"xSR":741.5,"ySR":469.95,"xT1":424.9,"yT1":0,"xT2":1058.1,"yT2":0,"toosoon":0,"cond_shown":"equaldotsize","ratio_trial":250,"smaller_num":"1","larger_num":"4","correct_side":2,"subjID":"saraladino19","gender":"1","age":"11","school":"6"},{"start_time":1551900859140,"click_time":1551900860792,"finger_time":1551900859933,"fix_duration":886.2636779990561,"trial":36,"RT":793,"MT":859,"sideResp":1,"stimulus":"img/500/equaldotanddens/L/13_Ratio_500_L_12_R_6.png","xmouse":[793,793,793,793,793,793,793,793,793,793,793,793,793,793,793,793,793,793,793,793,793,793,793,793,792,792,792,792,792,792,792,791,791,790,790,789,788,786,781,768,760,754,746,735,710,694,669,662,645,629,593,571,571,571,571,571,571,571,571,571,571,385,385,385,388,391,396,402,408,416,417,418,418,418,422,423,423,423,423,423,423,423,425],"ymouse":[498,498,498,498,498,498,498,498,498,498,498,498,498,498,498,498,498,498,498,498,498,498,498,498,498,497,497,497,497,497,497,496,495,494,492,492,490,487,483,460,444,422,394,356,262,207,149,126,87,60,20,2,2,2,2,2,2,2,2,2,2,3,5,11,27,35,46,53,58,61,61,61,61,61,61,61,61,61,61,60,60,60,60],"timestamp_mouse":[12,32,52,72,93,112,132,152,172,192,212,232,252,273,292,312,334,354,374,394,414,434,453,473,494,514,533,553,573,593,614,634,654,673,693,713,733,754,774,793,814,833,854,873,894,913,933,954,974,992,1013,1034,1054,1074,1093,1114,1133,1154,1173,1193,1214,1233,1253,1273,1293,1314,1332,1353,1374,1393,1413,1432,1453,1474,1493,1512,1533,1553,1572,1592,1613,1632,1652],"xSR":741.5,"ySR":469.95,"xT1":424.9,"yT1":0,"xT2":1058.1,"yT2":0,"toosoon":0,"cond_shown":"equaldotanddens","ratio_trial":500,"smaller_num":"6","larger_num":"12","correct_side":1,"subjID":"saraladino19","gender":"1","age":"11","school":"6"},{"start_time":1551900862627,"click_time":1551900876094,"finger_time":1551900875432,"fix_duration":792.7472752360455,"trial":37,"RT":12805,"MT":662,"sideResp":2,"stimulus":"img/250/randomdotsizeEA/R/8_Ratio_250_L_1_R_4.png","xmouse":[746,746,746,746,746,746,746,746,746,746,746,746,746,746,746,746,746,746,746,746,746,746,746,746,746,746,746,746,746,746,746,746,746,746,746,746,746,746,746,746,746,746,746,746,746,746,746,746,746,746,746,746,746,746,746,746,746,746,746,746,746,746,746,746,746,746,746,746,746,746,746,746,746,746,746,746,746,746,746,746,746,746,746,746,746,746,746,746,746,746,746,746,746,746,753,769,774,775,775,775,775,775,775,775,775,775,775,775,775,775,775,775,775,777,781,782,782,782,782,782,782,782,782,782,782,782,782,782,782,782,782,782,782,782,782,782,782,782,782,782,782,782,782,782,782,782,782,782,782,782,782,782,782,782,782,782,782,782,782,782,782,782,782,782,782,782,782,782,782,782,782,782,782,782,782,782,782,782,782,782,782,782,782,782,782,782,782,782,782,782,782,782,782,782,782,782,782,782,782,782,782,782,782,782,782,782,782,782,782,782,782,782,782,782,782,782,782,782,782,782,782,782,782,782,782,782,782,782,782,782,782,782,782,782,782,782,782,782,782,782,782,782,782,782,782,782,782,782,782,782,782,782,782,782,782,782,782,782,782,782,782,782,782,782,782,782,782,782,782,782,782,782,782,782,782,782,782,782,782,782,782,782,782,782,782,782,782,782,782,782,782,782,782,782,782,782,782,782,782,782,782,782,782,782,782,782,782,782,782,782,782,782,782,782,782,782,782,782,782,782,782,782,782,782,782,782,782,782,782,782,782,782,782,782,782,782,782,782,782,782,782,782,782,782,782,782,782,782,782,782,782,782,782,782,782,782,782,782,782,782,782,782,782,782,782,782,782,782,782,782,782,782,782,782,782,782,782,782,782,782,782,782,782,782,782,782,782,782,782,782,782,782,782,782,782,782,782,782,782,782,782,782,782,782,782,782,782,782,782,782,782,782,782,782,782,782,782,782,782,782,782,782,782,782,782,782,782,782,782,782,782,782,782,782,782,782,782,782,782,782,782,782,782,782,782,782,782,782,782,782,782,782,782,782,782,782,782,782,782,782,782,782,782,782,782,782,782,782,782,782,782,782,782,782,782,782,782,782,782,782,782,782,782,782,782,782,782,782,782,782,782,782,782,782,782,782,782,782,782,782,782,782,782,782,782,782,782,782,782,782,782,782,782,782,782,782,782,782,782,782,782,782,782,782,782,782,782,782,782,782,782,782,782,782,782,782,782,782,782,782,782,782,782,782,782,782,782,782,782,782,782,782,782,782,782,782,782,782,782,782,782,782,782,782,782,782,782,782,782,782,782,782,782,782,782,782,782,782,782,782,782,782,782,782,782,782,782,782,782,782,782,782,782,782,782,782,782,782,782,782,782,782,782,782,782,782,782,782,782,782,782,782,782,782,782,782,782,782,782,782,782,782,782,782,782,782,782,782,782,782,783,801,818,828,834,840,841,841,841,841,843,852,862,872,888,911,980,1009,1038,1065,1081,1089,1091,1091,1091,1091,1084,1080,1076,1073,1070,1070,1070,1070,1070,1070,1070,1071,1075,1080,1084,1090,1096,1098],"ymouse":[530,530,530,530,530,530,530,530,530,530,530,530,530,530,530,530,530,530,530,530,530,530,530,530,530,530,530,530,530,530,530,530,530,530,530,530,530,530,530,530,530,530,530,530,530,530,530,530,530,530,530,530,530,530,530,530,530,530,530,530,530,530,530,530,530,530,530,530,530,530,530,530,530,530,530,530,530,530,530,530,530,530,530,530,530,530,530,530,530,530,530,530,530,530,530,530,531,531,531,531,531,531,531,531,531,531,531,531,531,531,531,531,531,532,532,532,532,532,532,532,532,532,532,532,532,532,532,532,532,532,532,532,532,532,532,532,532,532,532,532,532,532,532,532,532,532,532,532,532,532,532,532,532,532,532,532,532,532,532,532,532,532,532,532,532,532,532,532,532,532,532,532,532,532,532,532,532,532,532,532,532,532,532,532,532,532,532,532,532,532,532,532,532,532,532,532,532,532,532,532,532,532,532,532,532,532,532,532,532,532,532,532,532,532,532,532,532,532,532,532,532,532,532,532,532,532,532,532,532,532,532,532,532,532,532,532,532,532,532,532,532,532,532,532,532,532,532,532,532,532,532,532,532,532,532,532,532,532,532,532,532,532,532,532,532,532,532,532,532,532,532,532,532,532,532,532,532,532,532,532,532,532,532,532,532,532,532,532,532,532,532,532,532,532,532,532,532,532,532,532,532,532,532,532,532,532,532,532,532,532,532,532,532,532,532,532,532,532,532,532,532,532,532,532,532,532,532,532,532,532,532,532,532,532,532,532,532,532,532,532,532,532,532,532,532,532,532,532,532,532,532,532,532,532,532,532,532,532,532,532,532,532,532,532,532,532,532,532,532,532,532,532,532,532,532,532,532,532,532,532,532,532,532,532,532,532,532,532,532,532,532,532,532,532,532,532,532,532,532,532,532,532,532,532,532,532,532,532,532,532,532,532,532,532,532,532,532,532,532,532,532,532,532,532,532,532,532,532,532,532,532,532,532,532,532,532,532,532,532,532,532,532,532,532,532,532,532,532,532,532,532,532,532,532,532,532,532,532,532,532,532,532,532,532,532,532,532,532,532,532,532,532,532,532,532,532,532,532,532,532,532,532,532,532,532,532,532,532,532,532,532,532,532,532,532,532,532,532,532,532,532,532,532,532,532,532,532,532,532,532,532,532,532,532,532,532,532,532,532,532,532,532,532,532,532,532,532,532,532,532,532,532,532,532,532,532,532,532,532,532,532,532,532,532,532,532,532,532,532,532,532,532,532,532,532,532,532,532,532,532,532,532,532,532,532,532,532,532,532,532,532,532,532,532,532,532,532,532,532,532,532,532,532,532,532,532,532,532,532,532,532,532,532,532,532,532,532,532,532,532,532,532,532,532,532,532,532,532,532,532,532,532,532,532,532,532,532,532,532,532,532,532,532,532,532,532,532,532,532,532,532,513,501,492,486,482,481,481,481,481,476,464,453,441,425,404,326,280,232,184,149,126,111,111,111,111,111,113,115,118,121,121,121,121,121,121,121,122,117,112,108,105,100,98],"timestamp_mouse":[6,25,45,66,85,105,126,146,166,185,205,226,247,265,286,306,326,345,365,385,406,426,446,466,486,506,526,546,566,585,605,626,646,667,686,706,726,746,766,786,806,826,847,866,886,906,926,946,966,987,1006,1026,1046,1065,1085,1106,1125,1146,1166,1186,1206,1226,1246,1266,1286,1305,1327,1346,1366,1387,1406,1425,1445,1465,1486,1505,1525,1546,1566,1586,1607,1625,1646,1667,1687,1705,1725,1745,1766,1786,1806,1826,1846,1866,1885,1906,1925,1946,1966,1986,2007,2026,2045,2065,2086,2105,2126,2147,2166,2186,2206,2225,2251,2265,2285,2307,2326,2345,2367,2386,2406,2427,2445,2466,2486,2506,2526,2546,2565,2586,2606,2625,2646,2665,2686,2705,2725,2746,2765,2785,2807,2826,2846,2865,2886,2907,2926,2946,2965,2986,3006,3026,3046,3065,3085,3106,3127,3146,3165,3186,3206,3226,3247,3266,3286,3307,3325,3346,3366,3386,3406,3427,3446,3467,3486,3506,3525,3545,3565,3586,3606,3626,3646,3667,3686,3707,3726,3747,3766,3786,3806,3826,3846,3866,3885,3905,3925,3945,3965,3985,4005,4026,4046,4066,4086,4106,4126,4146,4165,4187,4206,4226,4246,4266,4285,4307,4326,4347,4366,4386,4407,4427,4446,4465,4486,4505,4525,4546,4565,4587,4606,4626,4646,4666,4687,4706,4726,4746,4766,4786,4806,4826,4847,4866,4887,4907,4925,4945,4967,4987,5005,5027,5046,5066,5085,5106,5126,5145,5165,5186,5207,5226,5246,5266,5286,5306,5325,5345,5366,5386,5407,5427,5446,5466,5485,5505,5526,5546,5566,5587,5606,5626,5645,5666,5686,5706,5726,5745,5765,5785,5805,5825,5846,5867,5886,5905,5925,5946,5967,5986,6006,6025,6045,6066,6085,6105,6125,6146,6166,6187,6206,6226,6247,6266,6286,6305,6326,6345,6366,6386,6407,6426,6446,6466,6486,6506,6526,6546,6566,6585,6605,6626,6646,6666,6686,6707,6725,6747,6765,6785,6806,6825,6845,6865,6886,6906,6926,6946,6966,6987,7006,7026,7046,7066,7086,7106,7127,7145,7166,7185,7206,7226,7246,7266,7286,7306,7326,7346,7366,7386,7406,7427,7446,7467,7486,7506,7526,7546,7566,7585,7606,7626,7646,7665,7686,7705,7725,7746,7766,7786,7806,7826,7846,7866,7886,7907,7927,7946,7966,7986,8006,8026,8046,8066,8085,8106,8126,8145,8166,8185,8207,8226,8246,8266,8286,8305,8325,8346,8367,8386,8406,8426,8446,8466,8485,8506,8526,8545,8565,8586,8605,8626,8645,8666,8686,8706,8730,8747,8766,8786,8806,8827,8845,8865,8887,8906,8927,8947,8966,8986,9006,9026,9046,9066,9086,9106,9126,9146,9165,9185,9206,9226,9246,9265,9285,9306,9326,9346,9367,9386,9406,9426,9445,9466,9485,9505,9526,9546,9566,9585,9605,9625,9646,9666,9685,9705,9726,9745,9765,9785,9806,9826,9846,9866,9886,9906,9927,9946,9966,9986,10005,10025,10046,10066,10087,10106,10127,10146,10165,10185,10206,10225,10245,10267,10286,10307,10326,10346,10366,10386,10406,10426,10447,10465,10486,10506,10525,10545,10566,10585,10606,10627,10646,10666,10686,10706,10726,10747,10766,10786,10806,10826,10846,10866,10886,10906,10926,10946,10967,10986,11006,11026,11046,11066,11086,11105,11125,11146,11166,11186,11206,11226,11247,11266,11286,11306,11325,11345,11367,11385,11407,11426,11446,11466,11486,11506,11526,11545,11567,11586,11607,11626,11647,11666,11685,11707,11726,11746,11766,11785,11805,11826,11846,11866,11886,11906,11926,11946,11965,11985,12006,12026,12046,12066,12086,12106,12127,12146,12165,12185,12205,12226,12245,12265,12286,12307,12326,12346,12366,12385,12405,12426,12446,12465,12485,12505,12527,12546,12566,12586,12605,12626,12645,12667,12686,12707,12725,12745,12767,12787,12805,12826,12846,12866,12886,12906,12927,12946,12965,12986,13007,13027,13047,13067,13086,13106,13128,13145,13166,13186,13206,13227,13245,13266,13286,13307,13326,13347,13366,13386,13406,13427,13446,13467],"xSR":741.5,"ySR":469.95,"xT1":424.9,"yT1":0,"xT2":1058.1,"yT2":0,"toosoon":0,"cond_shown":"randomdotsizeEA","ratio_trial":250,"smaller_num":"1","larger_num":"4","correct_side":2,"subjID":"saraladino19","gender":"1","age":"11","school":"6"},{"start_time":1551900879351,"click_time":1551900882152,"finger_time":1551900881892,"fix_duration":1458.9335757530007,"trial":38,"RT":2541,"MT":260,"sideResp":2,"stimulus":"img/250/randomdotsizeEA/R/10_Ratio_250_L_4_R_16.png","xmouse":[761,761,761,761,761,761,760,760,760,760,760,760,760,760,760,760,760,760,760,760,760,760,760,760,760,760,760,760,760,760,760,760,760,760,760,760,760,760,760,760,760,760,760,760,760,760,760,760,760,760,760,760,760,760,760,760,760,760,760,760,760,760,760,760,760,760,760,760,760,760,760,760,760,760,760,760,760,760,760,760,760,760,760,760,760,760,760,760,760,760,760,760,760,760,760,760,760,760,760,760,760,760,760,760,760,760,760,760,760,760,760,760,760,760,760,760,760,760,760,760,760,760,760,760,760,760,765,791,826,877,926,942,952,969,991,1022,1099,1119,1133,1139,1142],"ymouse":[519,520,520,520,520,520,520,520,520,520,520,520,520,520,520,520,520,520,520,520,520,520,520,520,520,520,520,520,520,520,520,520,520,520,520,520,520,520,520,520,520,520,520,520,520,520,520,520,520,520,520,520,520,520,520,520,520,520,520,520,520,520,520,520,520,520,520,520,520,520,520,520,520,520,520,520,520,520,520,520,520,520,520,520,520,520,520,520,520,520,520,520,520,520,520,520,520,520,520,520,520,520,520,520,520,520,520,520,520,520,520,520,520,520,520,520,520,520,520,520,520,520,520,520,520,520,487,437,399,356,310,275,258,233,208,189,152,137,122,108,97],"timestamp_mouse":[4,23,41,62,82,102,123,142,162,182,202,222,242,262,282,302,323,343,363,382,402,422,442,463,482,502,522,542,562,582,602,622,642,662,682,702,722,742,762,782,802,822,842,861,881,902,921,941,961,981,1001,1021,1041,1061,1081,1101,1121,1141,1162,1181,1201,1222,1241,1261,1281,1301,1321,1341,1361,1381,1401,1421,1441,1461,1481,1502,1521,1541,1561,1581,1601,1622,1641,1661,1683,1703,1721,1743,1762,1782,1802,1822,1842,1862,1882,1903,1922,1942,1962,1983,2003,2022,2043,2062,2082,2102,2122,2142,2162,2182,2202,2222,2242,2262,2282,2303,2322,2342,2362,2382,2401,2421,2441,2461,2481,2501,2522,2541,2561,2582,2601,2622,2641,2661,2681,2701,2722,2742,2762,2781,2801],"xSR":741.5,"ySR":469.95,"xT1":424.9,"yT1":0,"xT2":1058.1,"yT2":0,"toosoon":0,"cond_shown":"randomdotsizeEA","ratio_trial":250,"smaller_num":"4","larger_num":"16","correct_side":2,"subjID":"saraladino19","gender":"1","age":"11","school":"6"},{"start_time":1551900885640,"click_time":1551900904633,"finger_time":1551900904412,"fix_duration":847.9740438277377,"trial":39,"RT":18772,"MT":221,"sideResp":2,"stimulus":"img/750/randomdotsizeEA/R/5_Ratio_750_L_15_R_20.png","xmouse":[780,780,780,780,780,780,780,780,780,780,780,780,780,780,780,780,780,780,780,780,780,780,780,780,780,780,780,780,780,780,780,780,780,780,780,780,780,780,780,780,780,780,780,780,780,780,780,780,780,780,780,780,780,780,780,780,780,780,780,780,780,780,780,780,780,780,780,780,780,780,780,780,780,780,780,780,780,780,780,780,780,780,780,780,780,780,780,780,780,780,780,780,780,780,780,780,780,780,780,780,780,780,780,780,780,780,780,780,780,780,780,780,780,780,780,780,780,780,780,780,780,780,780,780,780,780,780,780,780,780,780,780,780,780,780,780,780,780,780,780,780,780,780,780,780,780,780,780,780,780,780,780,780,780,780,780,780,780,780,780,780,780,780,780,780,780,780,780,780,780,780,780,780,780,780,780,780,780,780,780,780,780,780,780,780,780,780,780,780,780,780,780,780,780,780,780,780,780,780,780,780,780,780,780,780,780,780,780,780,780,780,780,780,780,780,780,780,780,780,780,780,780,780,780,780,780,780,780,780,780,780,780,780,780,780,780,780,780,780,780,780,780,780,780,780,780,780,780,780,780,780,780,780,780,780,780,780,780,780,780,780,780,780,780,780,780,780,780,780,780,780,780,780,780,780,780,780,780,780,780,780,780,780,780,780,780,780,780,780,780,780,780,780,780,780,780,780,780,780,780,780,780,780,780,780,780,780,780,780,780,780,780,780,780,780,780,780,780,780,780,780,780,780,780,780,780,780,780,780,780,780,780,780,780,780,780,780,780,780,780,780,780,780,780,780,780,780,780,780,780,780,780,780,780,780,780,780,780,780,780,780,780,780,780,780,780,780,780,780,780,780,780,780,780,780,780,780,780,780,780,780,780,780,780,780,780,780,780,780,780,780,780,780,780,780,780,780,780,780,780,780,780,780,780,780,780,780,780,780,780,780,780,780,780,780,780,780,780,780,780,780,780,780,780,780,780,780,780,780,780,780,780,780,780,780,780,780,780,780,780,780,780,780,780,780,780,780,780,780,780,780,780,780,780,780,780,780,780,780,780,780,780,780,780,780,780,780,780,780,780,780,780,780,780,780,780,780,780,780,780,780,780,780,780,780,780,780,780,780,780,780,780,780,780,780,780,780,780,780,780,780,780,780,780,780,780,780,780,780,780,780,780,780,780,780,780,780,780,780,780,780,780,780,780,780,780,780,780,780,780,780,780,780,780,780,780,780,780,780,780,780,780,780,780,780,780,780,780,780,780,780,780,780,780,780,780,780,780,780,780,780,780,780,780,780,780,780,780,780,780,780,780,780,780,780,780,780,780,780,780,780,780,780,780,780,780,780,780,780,780,780,780,780,780,780,780,780,780,780,780,780,780,780,780,780,780,780,780,780,780,780,780,780,780,780,780,780,780,780,780,780,780,780,780,780,780,780,780,780,780,780,780,780,780,780,780,780,780,780,780,780,780,780,780,780,780,780,780,780,780,780,780,780,780,780,780,780,780,780,780,780,780,780,780,780,780,780,780,780,780,780,780,780,780,780,780,780,780,780,780,780,780,780,780,780,780,780,780,780,780,780,780,780,780,780,780,780,780,780,780,780,780,780,780,780,780,780,780,780,780,780,780,780,780,780,780,780,780,780,780,780,780,780,780,780,780,780,780,780,780,780,780,780,780,780,780,780,780,780,780,780,780,780,780,780,780,780,780,780,780,780,780,780,780,780,780,780,780,780,780,780,780,780,780,780,780,780,780,780,780,780,780,780,780,780,780,780,780,780,780,780,780,780,780,780,780,780,780,780,780,780,780,780,780,780,780,780,780,780,780,780,780,780,780,780,780,780,780,780,780,780,780,780,780,780,780,780,780,780,780,780,780,780,780,780,780,780,780,780,780,780,780,780,780,780,780,780,780,780,780,780,780,780,780,780,780,780,780,780,780,780,780,780,780,780,780,780,780,780,780,780,780,780,780,780,780,780,780,780,780,780,780,780,780,780,780,780,780,780,780,780,780,780,780,780,780,780,780,780,780,780,780,780,780,780,780,780,780,780,780,780,780,780,780,780,780,780,780,780,780,780,780,780,780,780,780,780,780,780,780,780,780,780,780,780,780,780,780,780,780,780,780,780,780,780,780,780,785,802,873,907,951,969,982,997,1007,1019,1031,1047,1111],"ymouse":[495,495,495,495,495,496,500,510,510,510,510,510,510,510,510,510,510,510,510,510,510,510,510,510,510,510,510,510,510,510,510,510,510,510,510,510,510,510,510,510,510,510,510,510,510,510,510,510,510,510,510,510,510,510,510,510,510,510,510,510,510,510,510,510,510,510,510,510,510,510,510,510,510,510,510,510,510,510,510,510,510,510,510,510,510,510,510,510,510,510,510,510,510,510,510,510,510,510,510,510,510,510,510,510,510,510,510,510,510,510,510,510,510,510,510,510,510,510,510,510,510,510,510,510,510,510,510,510,510,510,510,510,510,510,510,510,510,510,510,510,510,510,510,510,510,510,510,510,510,510,510,510,510,510,510,510,510,510,510,510,510,510,510,510,510,510,510,510,510,510,510,510,510,510,510,510,510,510,510,510,510,510,510,510,510,510,510,510,510,510,510,510,510,510,510,510,510,510,510,510,510,510,510,510,510,510,510,510,510,510,510,510,510,510,510,510,510,510,510,510,510,510,510,510,510,510,510,510,510,510,510,510,510,510,510,510,510,510,510,510,510,510,510,510,510,510,510,510,510,510,510,510,510,510,510,510,510,510,510,510,510,510,510,510,510,510,510,510,510,510,510,510,510,510,510,510,510,510,510,510,510,510,510,510,510,510,510,510,510,510,510,510,510,510,510,510,510,510,510,510,510,510,510,510,510,510,510,510,510,510,510,510,510,510,510,510,510,510,510,510,510,510,510,510,510,510,510,510,510,510,510,510,510,510,510,510,510,510,510,510,510,510,510,510,510,510,510,510,510,510,510,510,510,510,510,510,510,510,510,510,510,510,510,510,510,510,510,510,510,510,510,510,510,510,510,510,510,510,510,510,510,510,510,510,510,510,510,510,510,510,510,510,510,510,510,510,510,510,510,510,510,510,510,510,510,510,510,510,510,510,510,510,510,510,510,510,510,510,510,510,510,510,510,510,510,510,510,510,510,510,510,510,510,510,510,510,510,510,510,510,510,510,510,510,510,510,510,510,510,510,510,510,510,510,510,510,510,510,510,510,510,510,510,510,510,510,510,510,510,510,510,510,510,510,510,510,510,510,510,510,510,510,510,510,510,510,510,510,510,510,510,510,510,510,510,510,510,510,510,510,510,510,510,510,510,510,510,510,510,510,510,510,510,510,510,510,510,510,510,510,510,510,510,510,510,510,510,510,510,510,510,510,510,510,510,510,510,510,510,510,510,510,510,510,510,510,510,510,510,510,510,510,510,510,510,510,510,510,510,510,510,510,510,510,510,510,510,510,510,510,510,510,510,510,510,510,510,510,510,510,510,510,510,510,510,510,510,510,510,510,510,510,510,510,510,510,510,510,510,510,510,510,510,510,510,510,510,510,510,510,510,510,510,510,510,510,510,510,510,510,510,510,510,510,510,510,510,510,510,510,510,510,510,510,510,510,510,510,510,510,510,510,510,510,510,510,510,510,510,510,510,510,510,510,510,510,510,510,510,510,510,510,510,510,510,510,510,510,510,510,510,510,510,510,510,510,510,510,510,510,510,510,510,510,510,510,510,510,510,510,510,510,510,510,510,510,510,510,510,510,510,510,510,510,510,510,510,510,510,510,510,510,510,510,510,510,510,510,510,510,510,510,510,510,510,510,510,510,510,510,510,510,510,510,510,510,510,510,510,510,510,510,510,510,510,510,510,510,510,510,510,510,510,510,510,510,510,510,510,510,510,510,510,510,510,510,510,510,510,510,510,510,510,510,510,510,510,510,510,510,510,510,510,510,510,510,510,510,510,510,510,510,510,510,510,510,510,510,510,510,510,510,510,510,510,510,510,510,510,510,510,510,510,510,510,510,510,510,510,510,510,510,510,510,510,510,510,510,510,510,510,510,510,510,510,510,510,510,510,510,510,510,510,510,510,510,510,510,510,510,510,510,510,510,510,510,510,510,510,510,510,510,510,510,510,510,510,510,510,510,510,510,510,510,510,510,510,510,510,510,510,510,510,510,510,510,510,510,510,510,510,510,510,510,510,510,510,510,510,510,510,510,510,510,510,510,510,510,510,510,510,510,510,510,510,510,510,510,510,510,510,510,510,510,510,510,510,510,510,510,510,510,510,510,510,510,510,495,465,355,308,256,230,212,182,167,152,135,115,45],"timestamp_mouse":[14,33,53,73,93,114,134,154,172,192,212,232,252,272,292,313,332,352,373,392,412,432,452,472,493,512,532,552,572,592,612,632,652,672,692,712,732,752,772,792,812,832,852,872,892,912,932,952,972,992,1012,1032,1052,1072,1092,1112,1132,1152,1172,1192,1212,1232,1252,1273,1292,1312,1332,1352,1372,1392,1412,1433,1452,1473,1492,1512,1532,1552,1573,1593,1614,1633,1654,1674,1693,1713,1733,1753,1773,1794,1813,1833,1853,1874,1894,1913,1932,1952,1972,1992,2012,2032,2052,2072,2092,2112,2132,2152,2173,2192,2212,2232,2252,2272,2292,2312,2332,2352,2372,2392,2412,2432,2452,2472,2493,2512,2532,2552,2572,2592,2612,2632,2652,2672,2692,2712,2732,2752,2772,2792,2812,2832,2852,2872,2892,2912,2932,2952,2972,2992,3012,3032,3052,3072,3092,3112,3132,3152,3172,3192,3212,3232,3252,3272,3294,3313,3334,3354,3374,3394,3413,3433,3453,3473,3493,3513,3533,3553,3573,3593,3613,3633,3653,3672,3692,3712,3732,3752,3772,3792,3812,3832,3853,3872,3892,3912,3932,3952,3972,3992,4013,4032,4052,4072,4092,4112,4132,4152,4172,4192,4212,4232,4252,4272,4292,4312,4332,4352,4372,4392,4412,4432,4452,4473,4492,4512,4532,4552,4573,4592,4612,4632,4653,4672,4692,4712,4732,4752,4772,4792,4812,4832,4852,4872,4892,4912,4932,4952,4972,4992,5012,5034,5053,5074,5094,5114,5133,5153,5174,5193,5213,5233,5253,5273,5293,5313,5333,5353,5373,5393,5413,5432,5452,5472,5492,5512,5532,5552,5572,5592,5612,5632,5652,5672,5692,5712,5732,5752,5772,5792,5812,5832,5852,5872,5892,5912,5932,5952,5972,5993,6012,6032,6052,6072,6092,6112,6132,6152,6172,6192,6212,6232,6252,6272,6292,6312,6332,6352,6372,6392,6412,6433,6453,6472,6492,6512,6532,6553,6572,6592,6612,6632,6653,6672,6693,6712,6732,6752,6774,6793,6814,6834,6853,6874,6893,6913,6933,6953,6973,6993,7013,7033,7053,7073,7093,7114,7132,7152,7172,7192,7212,7232,7252,7272,7292,7312,7332,7352,7372,7392,7412,7432,7452,7472,7492,7512,7532,7553,7572,7593,7612,7632,7652,7672,7692,7712,7733,7752,7772,7793,7812,7832,7852,7872,7893,7912,7932,7953,7972,7993,8012,8032,8052,8072,8092,8113,8132,8152,8172,8192,8212,8232,8253,8272,8292,8312,8332,8352,8372,8392,8412,8432,8452,8472,8492,8514,8534,8554,8573,8593,8614,8634,8653,8673,8693,8713,8733,8754,8773,8793,8813,8833,8853,8872,8892,8912,8932,8952,8972,8992,9012,9032,9052,9073,9092,9112,9132,9152,9172,9192,9212,9232,9252,9272,9292,9312,9332,9352,9373,9392,9412,9433,9452,9472,9492,9512,9532,9552,9572,9592,9612,9632,9652,9672,9692,9712,9732,9752,9772,9792,9812,9832,9852,9872,9892,9912,9932,9952,9972,9992,10012,10032,10052,10072,10092,10112,10132,10152,10172,10192,10212,10234,10254,10273,10294,10314,10333,10353,10374,10393,10413,10433,10453,10474,10493,10514,10533,10554,10573,10592,10613,10632,10652,10672,10692,10712,10733,10753,10772,10792,10812,10832,10852,10872,10892,10912,10932,10952,10972,10992,11012,11032,11052,11072,11092,11113,11132,11152,11172,11192,11212,11232,11252,11272,11292,11313,11333,11352,11372,11392,11412,11432,11452,11472,11492,11512,11532,11552,11572,11592,11612,11633,11652,11672,11692,11712,11732,11752,11772,11792,11812,11832,11852,11872,11892,11912,11932,11952,11974,11994,12014,12034,12053,12074,12094,12114,12133,12153,12173,12193,12213,12233,12253,12273,12293,12313,12333,12354,12372,12392,12413,12432,12453,12472,12492,12512,12532,12552,12572,12593,12612,12633,12652,12672,12692,12712,12732,12752,12773,12792,12812,12833,12852,12872,12892,12912,12932,12952,12973,12992,13012,13033,13053,13073,13092,13112,13134,13154,13173,13192,13212,13232,13252,13272,13292,13312,13333,13353,13372,13393,13413,13432,13453,13473,13493,13514,13532,13552,13573,13592,13612,13632,13652,13672,13692,13713,13732,13752,13772,13793,13812,13833,13853,13872,13894,13912,13932,13953,13973,13993,14012,14032,14053,14073,14093,14112,14132,14152,14172,14192,14213,14232,14253,14273,14292,14312,14332,14352,14373,14392,14413,14434,14453,14473,14493,14512,14532,14552,14572,14592,14612,14634,14653,14673,14693,14712,14732,14752,14772,14792,14812,14832,14854,14874,14893,14913,14932,14952,14973,14993,15013,15034,15054,15072,15094,15112,15132,15152,15173,15192,15213,15232,15252,15272,15292,15313,15332,15352,15373,15393,15413,15434,15453,15474,15493,15512,15532,15552,15572,15592,15612,15632,15652,15673,15693,15713,15732,15752,15772,15792,15812,15832,15853,15873,15893,15913,15932,15952,15973,15992,16013,16033,16052,16072,16092,16112,16133,16152,16174,16194,16213,16232,16252,16272,16292,16312,16332,16352,16372,16392,16413,16432,16452,16474,16492,16512,16532,16552,16572,16592,16612,16633,16652,16674,16692,16712,16732,16752,16772,16793,16813,16834,16853,16873,16894,16913,16933,16952,16973,16992,17014,17034,17052,17073,17092,17114,17132,17152,17172,17193,17212,17233,17252,17274,17293,17312,17333,17352,17373,17392,17412,17433,17452,17472,17492,17512,17532,17552,17572,17592,17612,17633,17652,17672,17692,17712,17732,17752,17772,17792,17813,17834,17852,17872,17894,17913,17932,17953,17972,17993,18012,18033,18052,18072,18093,18112,18133,18153,18174,18194,18213,18233,18253,18272,18294,18312,18333,18352,18372,18393,18414,18434,18454,18473,18493,18513,18533,18553,18573,18593,18613,18633,18653,18672,18692,18712,18732,18753,18772,18793,18813,18832,18852,18872,18893,18913,18934,18954,18974,18993],"xSR":741.5,"ySR":469.95,"xT1":424.9,"yT1":0,"xT2":1058.1,"yT2":0,"toosoon":0,"cond_shown":"randomdotsizeEA","ratio_trial":750,"smaller_num":"15","larger_num":"20","correct_side":2,"subjID":"saraladino19","gender":"1","age":"11","school":"6"},{"start_time":1551900906549,"click_time":1551900908232,"finger_time":1551900907773,"fix_duration":456.6194677927382,"trial":40,"RT":1224,"MT":459,"sideResp":2,"stimulus":"img/250/randomdotsizeEA/L/5_Ratio_250_L_24_R_6.png","xmouse":[803,799,795,792,791,791,791,791,791,791,791,791,791,791,791,791,791,791,791,791,791,791,791,789,782,774,774,774,774,774,774,774,774,774,774,774,774,774,774,774,774,774,774,774,774,774,774,774,774,774,774,774,774,774,774,774,775,785,815,834,840,854,868,879,925,942,952,960,966,970,972,975,979,985,1012,1026,1041,1051,1056,1062,1065,1068,1070,1071,1073],"ymouse":[536,536,535,535,535,535,535,535,535,535,535,535,535,535,535,535,535,535,535,535,535,535,535,535,533,532,532,532,532,532,532,532,532,532,532,532,532,532,532,532,532,532,532,532,532,532,532,532,532,532,532,532,532,532,532,532,532,532,532,521,514,501,483,462,350,309,287,271,262,255,251,248,240,229,183,166,150,139,131,117,111,106,102,100,98],"timestamp_mouse":[3,23,43,63,83,103,123,143,163,183,203,223,243,263,283,303,323,343,364,383,403,423,443,463,483,503,523,543,563,583,603,623,645,665,685,705,725,745,764,785,804,824,844,864,884,904,924,944,964,985,1004,1024,1043,1063,1083,1103,1124,1144,1164,1183,1203,1224,1243,1263,1284,1303,1324,1344,1364,1383,1404,1424,1445,1464,1484,1505,1523,1543,1564,1584,1604,1623,1644,1664,1683],"xSR":741.5,"ySR":469.95,"xT1":424.9,"yT1":0,"xT2":1058.1,"yT2":0,"toosoon":0,"cond_shown":"randomdotsizeEA","ratio_trial":250,"smaller_num":"6","larger_num":"24","correct_side":1,"subjID":"saraladino19","gender":"1","age":"11","school":"6"},{"start_time":1551900909989,"click_time":1551900914633,"finger_time":1551900913212,"fix_duration":775.7639315912575,"trial":41,"RT":3223,"MT":1421,"sideResp":1,"stimulus":"img/750/randomdotsizeEA/L/8_Ratio_750_L_4_R_3.png","xmouse":[783,783,783,783,783,783,783,783,783,783,783,783,783,783,783,783,783,783,783,783,783,783,783,783,783,783,783,783,783,783,783,783,783,783,783,783,783,783,783,783,783,783,783,783,783,783,783,783,783,783,783,783,783,783,783,783,783,783,783,783,783,783,783,783,783,783,783,783,783,783,783,783,783,783,783,783,783,783,783,783,783,783,783,783,783,783,783,783,783,783,783,783,783,783,783,783,783,783,783,783,783,783,783,783,783,783,783,783,783,783,783,783,783,783,783,783,783,783,783,783,783,783,783,783,783,783,783,783,783,783,783,783,783,783,783,783,783,783,783,783,783,783,783,783,783,783,783,783,783,783,783,783,783,783,783,783,783,783,783,785,818,847,850,812,790,778,776,776,776,776,775,769,758,732,727,723,722,720,699,666,666,666,666,666,666,666,666,666,314,300,298,307,315,318,321,330,354,381,417,423,427,429,430,433,435,439,443,446,446,446,452,457,467,474,475,476,477,477,477,477,473,468,468,468,468,468,468,468,468,468,468,476,494],"ymouse":[521,521,521,521,521,521,521,521,521,521,521,521,521,521,521,521,521,521,521,521,521,521,521,521,521,521,521,521,521,521,521,521,521,521,521,521,521,521,521,521,521,521,521,521,521,521,521,521,521,521,521,521,521,521,521,521,521,521,521,521,521,521,521,521,521,521,521,521,521,521,521,521,521,521,521,521,521,521,521,521,521,521,521,521,521,521,521,521,521,521,521,521,521,521,521,521,521,521,521,521,521,521,521,521,521,521,521,521,521,521,521,521,521,521,521,521,521,521,521,521,521,521,521,521,521,521,521,521,521,521,521,521,521,521,521,521,521,521,521,521,521,521,521,521,521,521,521,521,521,521,521,521,521,521,521,521,521,521,521,521,512,503,498,476,465,462,461,460,452,450,445,439,433,422,419,417,415,411,254,86,86,86,86,86,86,86,86,86,96,218,348,382,389,389,388,376,345,313,269,254,238,226,217,207,202,197,190,184,179,170,157,148,138,130,127,125,124,122,118,115,113,112,112,112,112,112,111,111,111,111,111,108,99],"timestamp_mouse":[4,24,48,63,83,104,123,144,165,183,203,223,243,263,283,305,323,345,364,383,403,423,444,464,483,504,523,543,563,583,604,623,643,663,683,703,723,743,763,783,803,823,845,864,883,903,923,944,964,984,1003,1023,1044,1064,1083,1103,1124,1144,1164,1184,1203,1223,1243,1263,1284,1303,1324,1343,1363,1383,1404,1424,1443,1463,1484,1504,1524,1543,1563,1583,1604,1624,1643,1664,1683,1703,1723,1743,1763,1783,1803,1824,1843,1863,1883,1903,1925,1944,1964,1983,2004,2023,2044,2064,2083,2103,2123,2143,2164,2183,2203,2223,2245,2264,2284,2303,2323,2344,2363,2383,2403,2424,2444,2463,2483,2503,2523,2543,2563,2583,2604,2625,2645,2664,2683,2704,2723,2743,2763,2783,2803,2823,2843,2864,2884,2903,2924,2943,2964,2983,3003,3023,3044,3065,3084,3103,3123,3144,3164,3183,3203,3223,3245,3263,3284,3303,3324,3344,3363,3384,3403,3424,3443,3464,3483,3503,3525,3545,3563,3584,3605,3623,3645,3664,3684,3705,3723,3745,3764,3783,3804,3823,3844,3863,3883,3903,3924,3944,3963,3984,4003,4024,4043,4064,4084,4104,4123,4145,4163,4184,4203,4225,4245,4263,4284,4304,4324,4343,4363,4384,4403,4423,4444,4464,4483,4503,4525,4543,4564,4583,4603,4623,4643],"xSR":741.5,"ySR":469.95,"xT1":424.9,"yT1":0,"xT2":1058.1,"yT2":0,"toosoon":0,"cond_shown":"randomdotsizeEA","ratio_trial":750,"smaller_num":"3","larger_num":"4","correct_side":1,"subjID":"saraladino19","gender":"1","age":"11","school":"6"},{"start_time":1551900916511,"click_time":1551900917772,"finger_time":1551900917413,"fix_duration":1057.593314413355,"trial":42,"RT":902,"MT":359,"sideResp":2,"stimulus":"img/250/equaldotsize/R/4_Ratio_250_L_3_R_12.png","xmouse":[805,805,805,805,805,805,805,805,805,805,805,805,805,805,805,805,805,805,805,805,805,805,805,805,805,805,805,805,805,805,805,805,805,805,805,805,805,805,805,805,805,805,812,824,838,863,897,938,1013,1032,1047,1056,1064,1070,1071,1072,1074,1081,1089,1094,1098,1101,1103,1103],"ymouse":[527,527,527,527,527,527,527,527,527,527,527,527,527,527,527,527,527,527,527,527,527,527,527,527,527,527,527,527,527,527,527,527,527,527,527,527,527,527,527,527,527,527,516,498,479,444,395,323,223,199,178,165,154,147,147,145,142,134,126,119,112,108,103,92],"timestamp_mouse":[4,21,44,61,81,101,123,142,162,182,202,221,241,261,281,302,322,342,361,381,401,422,442,462,481,501,522,542,562,581,601,622,641,661,681,701,721,741,761,781,801,821,842,861,882,902,921,941,961,981,1001,1022,1041,1062,1081,1102,1121,1142,1161,1182,1201,1221,1242,1261],"xSR":741.5,"ySR":469.95,"xT1":424.9,"yT1":0,"xT2":1058.1,"yT2":0,"toosoon":0,"cond_shown":"equaldotsize","ratio_trial":250,"smaller_num":"3","larger_num":"12","correct_side":2,"subjID":"saraladino19","gender":"1","age":"11","school":"6"},{"start_time":1551900919858,"click_time":1551900921893,"finger_time":1551900921772,"fix_duration":1024.9785699162642,"trial":43,"RT":1914,"MT":121,"sideResp":1,"stimulus":"img/750/randomdotsizeEA/R/4_Ratio_750_L_15_R_20.png","xmouse":[815,815,815,815,815,815,815,815,815,815,815,815,814,812,811,811,811,811,811,811,811,811,811,811,811,811,811,811,811,811,811,811,811,811,811,811,811,811,811,811,811,811,811,811,811,811,811,811,811,811,811,811,811,811,811,811,811,811,811,811,811,811,811,811,811,811,811,811,811,811,811,811,811,811,811,811,811,811,811,811,811,811,811,811,811,811,811,811,811,811,811,811,811,809,804,758,728,683,635,585,505,473],"ymouse":[507,507,507,507,507,507,507,507,507,507,507,508,509,511,512,512,512,512,512,512,512,512,512,512,512,512,512,512,512,512,512,512,512,512,512,512,512,512,512,512,512,512,512,512,512,512,512,512,512,512,512,512,512,512,512,512,512,512,512,512,512,512,512,512,512,512,512,512,512,512,512,512,512,512,512,512,512,512,512,512,512,512,512,512,512,512,512,512,512,512,512,512,512,510,504,468,441,390,328,262,138,69],"timestamp_mouse":[17,35,54,74,94,114,134,154,174,194,214,235,254,274,294,314,334,354,376,396,416,436,456,475,495,515,535,555,575,595,615,635,655,675,694,714,734,754,774,794,814,834,854,874,894,914,934,954,974,994,1014,1034,1054,1074,1094,1114,1134,1154,1174,1194,1214,1234,1254,1274,1294,1314,1334,1354,1374,1394,1414,1434,1454,1474,1494,1514,1534,1554,1574,1594,1614,1634,1654,1674,1694,1714,1734,1754,1774,1794,1814,1834,1854,1875,1894,1914,1934,1955,1975,1994,2014,2035],"xSR":741.5,"ySR":469.95,"xT1":424.9,"yT1":0,"xT2":1058.1,"yT2":0,"toosoon":0,"cond_shown":"randomdotsizeEA","ratio_trial":750,"smaller_num":"15","larger_num":"20","correct_side":2,"subjID":"saraladino19","gender":"1","age":"11","school":"6"},{"start_time":1551900924930,"click_time":1551900926373,"finger_time":1551900926032,"fix_duration":576.2509993203496,"trial":44,"RT":1102,"MT":341,"sideResp":2,"stimulus":"img/900/equaldotanddens/L/10_Ratio_900_L_20_R_18.png","xmouse":[819,819,819,819,819,819,819,819,819,819,819,819,819,819,819,819,819,819,819,819,819,819,819,819,819,819,819,819,819,819,819,818,818,818,818,818,818,818,818,818,818,818,818,818,818,818,818,818,818,818,818,818,818,827,837,860,873,883,898,930,977,996,1013,1019,1024,1028,1030,1040,1049,1063,1076,1090,1105],"ymouse":[534,534,534,534,534,534,534,534,534,534,534,534,534,534,534,534,534,534,534,534,534,534,534,534,534,534,534,534,534,534,534,534,534,534,534,534,534,534,534,534,534,534,534,534,534,534,534,534,534,534,534,534,534,525,516,491,469,443,399,334,276,248,217,206,198,192,188,172,160,144,129,109,81],"timestamp_mouse":[4,23,42,63,82,102,122,142,162,182,202,222,243,262,282,303,322,342,362,382,402,422,442,462,482,502,523,543,563,582,602,622,642,663,682,702,724,742,762,782,802,822,842,864,884,903,922,942,962,982,1002,1022,1044,1063,1083,1102,1123,1143,1162,1183,1202,1222,1243,1262,1282,1303,1322,1342,1363,1383,1402,1422,1443],"xSR":741.5,"ySR":469.95,"xT1":424.9,"yT1":0,"xT2":1058.1,"yT2":0,"toosoon":0,"cond_shown":"equaldotanddens","ratio_trial":900,"smaller_num":"18","larger_num":"20","correct_side":1,"subjID":"saraladino19","gender":"1","age":"11","school":"6"},{"start_time":1551900927763,"click_time":1551900928612,"finger_time":1551900928153,"fix_duration":250,"trial":45,"RT":390,"MT":459,"sideResp":1,"stimulus":"img/750/equaldotanddens/R/3_Ratio_750_L_15_R_20.png","xmouse":[765,765,765,765,765,765,765,765,765,765,765,765,765,765,765,765,765,765,765,764,754,701,636,614,558,530,526,525,525,525,525,525,525,525,525,525,525,525,525,525,525,525,524],"ymouse":[500,500,500,500,500,500,500,500,500,500,500,500,500,500,500,500,500,490,471,448,415,306,202,174,110,76,68,65,64,64,64,64,64,64,64,64,64,64,64,64,64,64,64],"timestamp_mouse":[9,29,50,69,90,109,129,150,169,191,211,230,249,270,289,310,330,349,369,390,409,430,450,470,490,510,530,549,570,590,610,630,649,669,690,709,730,750,770,790,811,829,849],"xSR":741.5,"ySR":469.95,"xT1":424.9,"yT1":0,"xT2":1058.1,"yT2":0,"toosoon":0,"cond_shown":"equaldotanddens","ratio_trial":750,"smaller_num":"15","larger_num":"20","correct_side":2,"subjID":"saraladino19","gender":"1","age":"11","school":"6"},{"start_time":1551900929863,"click_time":1551900930293,"finger_time":1551900930034,"fix_duration":250,"trial":46,"RT":171,"MT":259,"sideResp":2,"stimulus":"img/500/randomdotsizeEA/L/5_Ratio_500_L_4_R_2.png","xmouse":[771,771,771,771,771,771,782,831,886,923,948,976,986,994,1004,1017,1050,1082,1107,1124,1134,1140],"ymouse":[495,495,495,495,495,495,493,470,431,397,376,346,328,309,286,264,210,171,144,122,106,90],"timestamp_mouse":[12,35,49,71,90,110,130,150,171,190,210,229,249,269,289,309,329,350,369,390,410,430],"xSR":741.5,"ySR":469.95,"xT1":424.9,"yT1":0,"xT2":1058.1,"yT2":0,"toosoon":0,"cond_shown":"randomdotsizeEA","ratio_trial":500,"smaller_num":"2","larger_num":"4","correct_side":1,"subjID":"saraladino19","gender":"1","age":"11","school":"6"},{"start_time":1551900931663,"click_time":1551900932153,"finger_time":1551900931773,"fix_duration":250,"trial":47,"RT":110,"MT":380,"sideResp":1,"stimulus":"img/750/randomdotsizeEA/L/13_Ratio_750_L_8_R_6.png","xmouse":[773,773,773,769,765,759,749,743,740,738,733,723,715,707,699,688,653,635,619,601,580,540,525,517,511],"ymouse":[525,525,516,493,479,468,449,441,437,432,426,411,404,394,384,373,332,311,289,260,223,150,121,101,84],"timestamp_mouse":[9,29,49,70,89,110,129,150,170,190,209,230,250,270,290,310,329,350,369,389,409,430,449,469,490],"xSR":741.5,"ySR":469.95,"xT1":424.9,"yT1":0,"xT2":1058.1,"yT2":0,"toosoon":0,"cond_shown":"randomdotsizeEA","ratio_trial":750,"smaller_num":"6","larger_num":"8","correct_side":1,"subjID":"saraladino19","gender":"1","age":"11","school":"6"},{"start_time":1551900937063,"click_time":1551900937894,"finger_time":1551900937133,"fix_duration":250,"trial":48,"RT":70,"MT":761,"sideResp":2,"stimulus":"img/250/equaldotanddens/L/3_Ratio_250_L_8_R_2.png","xmouse":[767,771,797,813,830,833,833,833,833,833,833,833,833,833,837,856,896,938,938,938,938,938,938,938,938,938,938,938,938,938,938,1213,1226,1226,1226,1226,1226,1211,1199,1184,1167,1148],"ymouse":[494,492,474,450,422,412,411,410,410,410,410,410,410,407,376,299,164,28,28,28,28,28,28,28,28,28,28,28,28,28,28,0,33,41,42,42,42,46,46,46,47,52],"timestamp_mouse":[10,29,52,70,89,110,130,149,169,189,209,229,249,271,289,309,330,350,370,391,410,429,449,469,490,509,529,549,570,589,610,630,649,670,690,710,731,750,769,790,809,831],"xSR":741.5,"ySR":469.95,"xT1":424.9,"yT1":0,"xT2":1058.1,"yT2":0,"toosoon":0,"cond_shown":"equaldotanddens","ratio_trial":250,"smaller_num":"2","larger_num":"8","correct_side":1,"subjID":"saraladino19","gender":"1","age":"11","school":"6"},{"start_time":1551900940577,"click_time":1551900941532,"finger_time":1551900941132,"fix_duration":1483.2356077394452,"trial":49,"RT":555,"MT":400,"sideResp":1,"stimulus":"img/500/equaldotanddens/R/9_Ratio_500_L_2_R_4.png","xmouse":[801,801,801,801,801,801,801,801,801,801,801,801,801,801,801,801,801,801,801,801,801,801,801,801,801,799,770,689,640,591,561,536,531,529,529,529,529,529,529,529,529,529,529,529,529,529,529,500],"ymouse":[517,517,517,517,517,517,517,517,517,517,517,517,517,517,517,517,517,517,517,517,517,517,517,517,516,514,470,363,290,224,174,119,95,72,47,9,9,9,9,9,9,9,9,9,9,9,9,14],"timestamp_mouse":[15,35,55,75,97,117,137,156,177,197,217,236,255,275,295,315,335,355,375,395,415,435,455,475,495,515,535,555,576,596,616,635,656,675,695,715,735,755,775,795,815,835,855,875,896,915,935,955],"xSR":741.5,"ySR":469.95,"xT1":424.9,"yT1":0,"xT2":1058.1,"yT2":0,"toosoon":0,"cond_shown":"equaldotanddens","ratio_trial":500,"smaller_num":"2","larger_num":"4","correct_side":2,"subjID":"saraladino19","gender":"1","age":"11","school":"6"},{"start_time":1551900945729,"click_time":1551900946313,"finger_time":1551900945953,"fix_duration":514.2621955974236,"trial":50,"RT":224,"MT":360,"sideResp":2,"stimulus":"img/250/equaldotsize/L/3_Ratio_250_L_8_R_2.png","xmouse":[830,830,830,830,830,830,830,829,830,836,841,843,844,847,853,879,898,922,940