[{"start_time":1551887606231,"click_time":1551887607496,"finger_time":1551887607015,"fix_duration":250,"trial":0,"RT":784,"MT":481,"sideResp":2,"stimulus":"img/250/equaldotsize/R/11_Ratio_250_L_3_R_12.png","xmouse":[776,776,776,776,776,776,776,776,776,776,776,776,776,776,776,776,776,776,776,776,776,776,776,776,776,776,776,776,776,776,776,776,772,769,767,766,764,752,726,672,592,499,325,294,294,294,294,294,294,294,294,294,294,294,769,823,852,869,963,1007,1038,1063,1086],"ymouse":[554,554,554,554,554,554,554,554,554,554,554,554,554,554,554,554,554,554,554,554,554,554,554,554,554,554,554,554,554,554,554,555,562,565,567,567,567,540,505,446,364,266,72,31,31,31,31,31,31,31,31,31,31,31,5,38,64,78,108,115,115,113,84],"timestamp_mouse":[9,46,65,85,106,124,144,164,185,204,224,244,264,285,305,324,344,365,385,405,426,444,464,485,505,525,544,566,585,604,625,644,664,684,705,724,744,765,784,805,825,844,865,884,904,925,944,964,985,1004,1025,1045,1064,1084,1105,1125,1144,1164,1185,1204,1225,1244,1265],"xSR":741.5,"ySR":501.8,"xT1":424.9,"yT1":0,"xT2":1058.1,"yT2":0,"toosoon":0,"cond_shown":"equaldotsize","ratio_trial":250,"smaller_num":"3","larger_num":"12","correct_side":2,"subjID":"SaraMayorgaVilla17","gender":"1","age":"10","school":"sexto","test":{"fix_dur":[250,1500],"timestim":300,"targets_dim":[100,100],"targets_relative_coord":[0.3,0.7],"size_stim":[880,420],"start_dim":[100,100],"size_start":[300,300],"size_fix":60,"samplingrate":20,"img_types":["equaldotsize","equaldotanddens","randomdotsizeEA"],"ratios":[250,500,750,900],"rep_conds":9,"nTrials":120,"trials_to_rest":500,"Trials_order":[72,104,61,37,99,97,23,18,81,40,16,119,47,13,70,5,117,75,50,49,66,21,107,68,44,57,35,8,109,41,54,33,27,85,45,58,38,88,9,46,14,95,74,114,86,55,30,77,80,31,105,24,48,101,26,19,52,34,90,28,73,59,92,25,84,1,76,118,106,32,89,36,71,91,7,98,62,20,115,0,96,53,15,87,79,10,102,56,43,39,83,112,11,3,82,64,103,116,4,51,69,111,110,2,67,42,63,113,93,60,94,12,6,17,78,100,29,65,108,22],"cond_shown":["equaldotsize","randomdotsizeEA","equaldotanddens","equaldotanddens","equaldotsize","equaldotanddens","randomdotsizeEA","equaldotsize","equaldotsize","equaldotanddens","equaldotanddens","randomdotsizeEA","randomdotsizeEA","equaldotanddens","equaldotanddens","randomdotsizeEA","equaldotsize","equaldotsize","randomdotsizeEA","equaldotanddens","equaldotsize","equaldotsize","randomdotsizeEA","randomdotsizeEA","randomdotsizeEA","equaldotsize","randomdotsizeEA","randomdotsizeEA","equaldotanddens","randomdotsizeEA","equaldotsize","equaldotsize","equaldotsize","equaldotanddens","equaldotsize","equaldotanddens","randomdotsizeEA","equaldotanddens","equaldotsize","equaldotanddens","randomdotsizeEA","randomdotsizeEA","randomdotsizeEA","equaldotsize","randomdotsizeEA","equaldotanddens","equaldotsize","randomdotsizeEA","randomdotsizeEA","equaldotanddens","equaldotsize","equaldotsize","equaldotsize","randomdotsizeEA","randomdotsizeEA","equaldotanddens","equaldotanddens","equaldotanddens","equaldotsize","equaldotanddens","equaldotanddens","randomdotsizeEA","randomdotsizeEA","equaldotanddens","equaldotsize","equaldotanddens","equaldotanddens","equaldotanddens","equaldotanddens","randomdotsizeEA","randomdotsizeEA","equaldotsize","randomdotsizeEA","equaldotanddens","equaldotanddens","randomdotsizeEA","randomdotsizeEA","randomdotsizeEA","equaldotanddens","equaldotsize","equaldotsize","randomdotsizeEA","equaldotsize","equaldotsize","equaldotanddens","equaldotanddens","equaldotsize","randomdotsizeEA","equaldotanddens","equaldotsize","randomdotsizeEA","equaldotanddens","randomdotsizeEA","equaldotsize","equaldotanddens","equaldotanddens","equaldotanddens","randomdotsizeEA","equaldotanddens","equaldotsize","equaldotsize","equaldotsize","randomdotsizeEA","randomdotsizeEA","equaldotanddens","equaldotsize","equaldotsize","randomdotsizeEA","equaldotsize","equaldotsize","equaldotanddens","equaldotsize","equaldotsize","randomdotsizeEA","equaldotsize","equaldotanddens","randomdotsizeEA","randomdotsizeEA","equaldotsize","equaldotanddens"],"ratio_trial":[250,750,250,250,500,250,900,750,900,500,500,900,900,250,900,500,900,500,250,250,750,900,900,750,750,900,900,750,250,500,750,900,500,250,900,900,250,500,900,900,250,900,250,750,250,750,750,500,750,750,900,250,250,500,250,750,500,900,750,500,250,900,750,250,250,250,500,900,900,750,500,250,900,750,750,250,250,750,750,250,250,500,500,500,750,900,750,750,750,500,900,500,900,500,900,500,750,750,500,500,900,500,250,250,750,750,500,500,900,250,900,250,750,500,750,500,500,500,250,900],"smaller_num":["3","15","3","1","6","3","9","18","9","1","9","9","18","4","18","5","18","9","2","2","12","9","18","3","3","18","9","18","5","9","3","9","10","3","18","18","3","1","9","18","1","18","2","15","5","3","9","10","15","6","9","5","2","2","6","6","5","9","15","4","2","18","15","6","2","2","9","18","18","12","9","6","18","15","3","2","2","12","6","3","2","10","10","2","6","18","15","9","12","10","18","3","18","9","18","2","3","9","9","1","9","9","3","3","3","3","9","1","18","4","18","3","6","6","6","1","4","9","4","18"],"larger_num":["12","20","12","4","12","12","10","24","10","2","18","10","20","16","20","10","20","18","8","8","16","10","20","4","4","20","10","24","20","18","4","10","20","12","20","20","12","2","10","20","4","20","8","20","20","4","12","20","20","8","10","20","8","4","24","8","10","10","20","8","8","20","20","24","8","8","18","20","20","16","18","24","20","20","4","8","8","16","8","12","8","20","20","4","8","20","20","12","16","20","20","6","20","18","20","4","4","12","18","2","10","18","12","12","4","4","18","2","20","16","20","12","8","12","8","2","8","18","16","20"],"correct_side":[2,2,2,2,1,1,1,1,2,2,2,1,1,1,1,1,1,2,1,1,2,2,1,2,1,1,1,1,2,2,2,1,2,2,1,2,2,2,1,1,2,2,1,1,2,1,2,2,2,1,2,2,1,2,1,1,1,2,2,1,2,2,2,1,1,1,2,1,1,2,2,2,1,2,1,1,2,2,1,1,1,2,2,2,2,2,2,2,2,2,2,2,2,2,1,2,2,2,2,2,2,2,1,2,1,1,2,2,1,1,2,1,1,1,1,2,1,2,1,1],"img_shown":["img/250/equaldotsize/R/11_Ratio_250_L_3_R_12.png","img/750/randomdotsizeEA/R/3_Ratio_750_L_15_R_20.png","img/250/equaldotanddens/R/9_Ratio_250_L_3_R_12.png","img/250/equaldotanddens/R/8_Ratio_250_L_1_R_4.png","img/500/equaldotsize/L/11_Ratio_500_L_12_R_6.png","img/250/equaldotanddens/L/14_Ratio_250_L_12_R_3.png","img/900/randomdotsizeEA/L/1_Ratio_900_L_10_R_9.png","img/750/equaldotsize/L/6_Ratio_750_L_24_R_18.png","img/900/equaldotsize/R/5_Ratio_900_L_9_R_10.png","img/500/equaldotanddens/R/12_Ratio_500_L_1_R_2.png","img/500/equaldotanddens/R/1_Ratio_500_L_9_R_18.png","img/900/randomdotsizeEA/L/1_Ratio_900_L_10_R_9.png","img/900/randomdotsizeEA/L/8_Ratio_900_L_20_R_18.png","img/250/equaldotanddens/L/2_Ratio_250_L_16_R_4.png","img/900/equaldotanddens/L/2_Ratio_900_L_20_R_18.png","img/500/randomdotsizeEA/L/7_Ratio_500_L_10_R_5.png","img/900/equaldotsize/L/10_Ratio_900_L_20_R_18.png","img/500/equaldotsize/R/6_Ratio_500_L_9_R_18.png","img/250/randomdotsizeEA/L/7_Ratio_250_L_8_R_2.png","img/250/equaldotanddens/L/3_Ratio_250_L_8_R_2.png","img/750/equaldotsize/R/11_Ratio_750_L_12_R_16.png","img/900/equaldotsize/R/3_Ratio_900_L_9_R_10.png","img/900/randomdotsizeEA/L/8_Ratio_900_L_20_R_18.png","img/750/randomdotsizeEA/R/7_Ratio_750_L_3_R_4.png","img/750/randomdotsizeEA/L/9_Ratio_750_L_4_R_3.png","img/900/equaldotsize/L/8_Ratio_900_L_20_R_18.png","img/900/randomdotsizeEA/L/1_Ratio_900_L_10_R_9.png","img/750/randomdotsizeEA/L/6_Ratio_750_L_24_R_18.png","img/250/equaldotanddens/R/12_Ratio_250_L_5_R_20.png","img/500/randomdotsizeEA/R/6_Ratio_500_L_9_R_18.png","img/750/equaldotsize/R/7_Ratio_750_L_3_R_4.png","img/900/equaldotsize/L/1_Ratio_900_L_10_R_9.png","img/500/equaldotsize/R/3_Ratio_500_L_10_R_20.png","img/250/equaldotanddens/R/11_Ratio_250_L_3_R_12.png","img/900/equaldotsize/L/2_Ratio_900_L_20_R_18.png","img/900/equaldotanddens/R/14_Ratio_900_L_18_R_20.png","img/250/randomdotsizeEA/R/4_Ratio_250_L_3_R_12.png","img/500/equaldotanddens/R/15_Ratio_500_L_1_R_2.png","img/900/equaldotsize/L/1_Ratio_900_L_10_R_9.png","img/900/equaldotanddens/L/2_Ratio_900_L_20_R_18.png","img/250/randomdotsizeEA/R/8_Ratio_250_L_1_R_4.png","img/900/randomdotsizeEA/R/9_Ratio_900_L_18_R_20.png","img/250/randomdotsizeEA/L/3_Ratio_250_L_8_R_2.png","img/750/equaldotsize/L/1_Ratio_750_L_20_R_15.png","img/250/randomdotsizeEA/R/12_Ratio_250_L_5_R_20.png","img/750/equaldotanddens/L/10_Ratio_750_L_4_R_3.png","img/750/equaldotsize/R/15_Ratio_750_L_9_R_12.png","img/500/randomdotsizeEA/R/3_Ratio_500_L_10_R_20.png","img/750/randomdotsizeEA/R/5_Ratio_750_L_15_R_20.png","img/750/equaldotanddens/L/13_Ratio_750_L_8_R_6.png","img/900/equaldotsize/R/6_Ratio_900_L_9_R_10.png","img/250/equaldotsize/R/12_Ratio_250_L_5_R_20.png","img/250/equaldotsize/L/7_Ratio_250_L_8_R_2.png","img/500/randomdotsizeEA/R/9_Ratio_500_L_2_R_4.png","img/250/randomdotsizeEA/L/5_Ratio_250_L_24_R_6.png","img/750/equaldotanddens/L/13_Ratio_750_L_8_R_6.png","img/500/equaldotanddens/L/7_Ratio_500_L_10_R_5.png","img/900/equaldotanddens/R/5_Ratio_900_L_9_R_10.png","img/750/equaldotsize/R/4_Ratio_750_L_15_R_20.png","img/500/equaldotanddens/L/8_Ratio_500_L_8_R_4.png","img/250/equaldotanddens/R/13_Ratio_250_L_2_R_8.png","img/900/randomdotsizeEA/R/11_Ratio_900_L_18_R_20.png","img/750/randomdotsizeEA/R/3_Ratio_750_L_15_R_20.png","img/250/equaldotanddens/L/5_Ratio_250_L_24_R_6.png","img/250/equaldotsize/L/1_Ratio_250_L_8_R_2.png","img/250/equaldotanddens/L/7_Ratio_250_L_8_R_2.png","img/500/equaldotanddens/R/6_Ratio_500_L_9_R_18.png","img/900/equaldotanddens/L/10_Ratio_900_L_20_R_18.png","img/900/equaldotanddens/L/4_Ratio_900_L_20_R_18.png","img/750/randomdotsizeEA/R/11_Ratio_750_L_12_R_16.png","img/500/randomdotsizeEA/R/1_Ratio_500_L_9_R_18.png","img/250/equaldotsize/R/6_Ratio_250_L_6_R_24.png","img/900/randomdotsizeEA/L/10_Ratio_900_L_20_R_18.png","img/750/equaldotanddens/R/3_Ratio_750_L_15_R_20.png","img/750/equaldotanddens/L/10_Ratio_750_L_4_R_3.png","img/250/randomdotsizeEA/L/7_Ratio_250_L_8_R_2.png","img/250/randomdotsizeEA/R/13_Ratio_250_L_2_R_8.png","img/750/randomdotsizeEA/R/11_Ratio_750_L_12_R_16.png","img/750/equaldotanddens/L/13_Ratio_750_L_8_R_6.png","img/250/equaldotsize/L/14_Ratio_250_L_12_R_3.png","img/250/equaldotsize/L/3_Ratio_250_L_8_R_2.png","img/500/randomdotsizeEA/R/3_Ratio_500_L_10_R_20.png","img/500/equaldotsize/R/3_Ratio_500_L_10_R_20.png","img/500/equaldotsize/R/9_Ratio_500_L_2_R_4.png","img/750/equaldotanddens/R/2_Ratio_750_L_6_R_8.png","img/900/equaldotanddens/R/11_Ratio_900_L_18_R_20.png","img/750/equaldotsize/R/3_Ratio_750_L_15_R_20.png","img/750/randomdotsizeEA/R/15_Ratio_750_L_9_R_12.png","img/750/equaldotanddens/R/11_Ratio_750_L_12_R_16.png","img/500/equaldotsize/R/3_Ratio_500_L_10_R_20.png","img/900/randomdotsizeEA/R/11_Ratio_900_L_18_R_20.png","img/500/equaldotanddens/R/2_Ratio_500_L_3_R_6.png","img/900/randomdotsizeEA/R/9_Ratio_900_L_18_R_20.png","img/500/equaldotsize/R/1_Ratio_500_L_9_R_18.png","img/900/equaldotanddens/L/10_Ratio_900_L_20_R_18.png","img/500/equaldotanddens/R/9_Ratio_500_L_2_R_4.png","img/750/equaldotanddens/R/12_Ratio_750_L_3_R_4.png","img/750/randomdotsizeEA/R/15_Ratio_750_L_9_R_12.png","img/500/equaldotanddens/R/1_Ratio_500_L_9_R_18.png","img/500/equaldotsize/R/12_Ratio_500_L_1_R_2.png","img/900/equaldotsize/R/5_Ratio_900_L_9_R_10.png","img/500/equaldotsize/R/6_Ratio_500_L_9_R_18.png","img/250/randomdotsizeEA/L/15_Ratio_250_L_12_R_3.png","img/250/randomdotsizeEA/R/11_Ratio_250_L_3_R_12.png","img/750/equaldotanddens/L/8_Ratio_750_L_4_R_3.png","img/750/equaldotsize/L/10_Ratio_750_L_4_R_3.png","img/500/equaldotsize/R/6_Ratio_500_L_9_R_18.png","img/500/randomdotsizeEA/R/12_Ratio_500_L_1_R_2.png","img/900/equaldotsize/L/4_Ratio_900_L_20_R_18.png","img/250/equaldotsize/L/2_Ratio_250_L_16_R_4.png","img/900/equaldotanddens/R/11_Ratio_900_L_18_R_20.png","img/250/equaldotsize/L/14_Ratio_250_L_12_R_3.png","img/750/equaldotsize/L/13_Ratio_750_L_8_R_6.png","img/500/randomdotsizeEA/L/13_Ratio_500_L_12_R_6.png","img/750/equaldotsize/L/13_Ratio_750_L_8_R_6.png","img/500/equaldotanddens/R/15_Ratio_500_L_1_R_2.png","img/500/randomdotsizeEA/L/8_Ratio_500_L_8_R_4.png","img/500/randomdotsizeEA/R/1_Ratio_500_L_9_R_18.png","img/250/equaldotsize/L/2_Ratio_250_L_16_R_4.png","img/900/equaldotanddens/L/4_Ratio_900_L_20_R_18.png"],"Rat0":[["12_Ratio_0_L_9_R_0.png","13_Ratio_0_L_6_R_0.png","5_Ratio_0_L_2_R_0.png","6_Ratio_0_L_4_R_0.png","8_Ratio_0_L_6_R_0.png"],["1_Ratio_0_L_0_R_17.png","10_Ratio_0_L_0_R_22.png","11_Ratio_0_L_0_R_1.png","14_Ratio_0_L_0_R_24.png","15_Ratio_0_L_0_R_4.png","2_Ratio_0_L_0_R_5.png","3_Ratio_0_L_0_R_17.png","4_Ratio_0_L_0_R_7.png","7_Ratio_0_L_0_R_19.png","9_Ratio_0_L_0_R_15.png"]],"Rat250":[["1_Ratio_250_L_8_R_2.png","14_Ratio_250_L_12_R_3.png","15_Ratio_250_L_12_R_3.png","2_Ratio_250_L_16_R_4.png","3_Ratio_250_L_8_R_2.png","5_Ratio_250_L_24_R_6.png","7_Ratio_250_L_8_R_2.png"],["10_Ratio_250_L_4_R_16.png","11_Ratio_250_L_3_R_12.png","12_Ratio_250_L_5_R_20.png","13_Ratio_250_L_2_R_8.png","4_Ratio_250_L_3_R_12.png","6_Ratio_250_L_6_R_24.png","8_Ratio_250_L_1_R_4.png","9_Ratio_250_L_3_R_12.png"]],"Rat500":[["10_Ratio_500_L_4_R_2.png","11_Ratio_500_L_12_R_6.png","13_Ratio_500_L_12_R_6.png","4_Ratio_500_L_18_R_9.png","5_Ratio_500_L_4_R_2.png","7_Ratio_500_L_10_R_5.png","8_Ratio_500_L_8_R_4.png"],["1_Ratio_500_L_9_R_18.png","12_Ratio_500_L_1_R_2.png","14_Ratio_500_L_5_R_10.png","15_Ratio_500_L_1_R_2.png","2_Ratio_500_L_3_R_6.png","3_Ratio_500_L_10_R_20.png","6_Ratio_500_L_9_R_18.png","9_Ratio_500_L_2_R_4.png"]],"Rat750":[["1_Ratio_750_L_20_R_15.png","10_Ratio_750_L_4_R_3.png","13_Ratio_750_L_8_R_6.png","14_Ratio_750_L_8_R_6.png","6_Ratio_750_L_24_R_18.png","8_Ratio_750_L_4_R_3.png","9_Ratio_750_L_4_R_3.png"],["11_Ratio_750_L_12_R_16.png","12_Ratio_750_L_3_R_4.png","15_Ratio_750_L_9_R_12.png","2_Ratio_750_L_6_R_8.png","3_Ratio_750_L_15_R_20.png","4_Ratio_750_L_15_R_20.png","5_Ratio_750_L_15_R_20.png","7_Ratio_750_L_3_R_4.png"]],"Rat900":[["1_Ratio_900_L_10_R_9.png","10_Ratio_900_L_20_R_18.png","2_Ratio_900_L_20_R_18.png","4_Ratio_900_L_20_R_18.png","8_Ratio_900_L_20_R_18.png"],["11_Ratio_900_L_18_R_20.png","12_Ratio_900_L_18_R_20.png","13_Ratio_900_L_18_R_20.png","14_Ratio_900_L_18_R_20.png","15_Ratio_900_L_9_R_10.png","3_Ratio_900_L_9_R_10.png","5_Ratio_900_L_9_R_10.png","6_Ratio_900_L_9_R_10.png","7_Ratio_900_L_9_R_10.png","9_Ratio_900_L_18_R_20.png"]],"Rat1000":[["10_Ratio_1000_L_16_R_16.png","11_Ratio_1000_L_6_R_6.png","12_Ratio_1000_L_14_R_14.png","13_Ratio_1000_L_20_R_20.png","15_Ratio_1000_L_15_R_15.png","2_Ratio_1000_L_17_R_17.png","4_Ratio_1000_L_9_R_9.png","5_Ratio_1000_L_6_R_6.png","6_Ratio_1000_L_19_R_19.png","8_Ratio_1000_L_14_R_14.png","9_Ratio_1000_L_25_R_25.png"],["1_Ratio_1000_L_1_R_1.png","14_Ratio_1000_L_17_R_17.png","3_Ratio_1000_L_17_R_17.png","7_Ratio_1000_L_6_R_6.png"]]}},{"start_time":1551887609811,"click_time":1551887611656,"finger_time":1551887611275,"fix_duration":273.47062773622133,"trial":1,"RT":1464,"MT":381,"sideResp":2,"stimulus":"img/750/randomdotsizeEA/R/3_Ratio_750_L_15_R_20.png","xmouse":[803,803,803,803,803,803,803,803,803,803,803,803,803,803,803,803,803,803,803,803,803,803,803,803,803,803,803,803,803,803,803,803,803,803,803,803,803,803,803,803,803,803,803,803,803,803,803,803,803,803,803,803,803,803,803,803,803,803,803,803,803,803,803,803,803,805,806,808,810,815,820,828,841,857,925,962,997,1023,1051,1085,1087,1090,1093,1097,1104,1114,1117,1119,1119,1119,1120,1123,1127],"ymouse":[502,502,502,502,502,502,502,502,502,502,502,502,502,502,502,502,502,502,502,502,502,502,502,502,502,502,502,502,502,502,502,502,502,502,502,502,502,502,502,502,502,502,502,502,502,502,502,502,502,502,502,502,502,502,502,502,502,502,502,502,502,502,502,502,502,501,501,500,499,497,495,489,482,468,420,392,368,350,324,288,285,282,277,266,249,213,199,182,167,140,127,109,82],"timestamp_mouse":[9,25,44,64,84,106,124,144,164,185,205,225,246,266,284,304,324,346,364,384,405,424,445,464,485,504,524,544,566,584,604,626,644,664,685,705,724,745,765,785,804,825,844,864,884,906,925,945,964,985,1005,1025,1045,1064,1084,1106,1126,1145,1165,1185,1204,1225,1246,1264,1285,1304,1324,1345,1365,1384,1405,1425,1445,1464,1485,1504,1525,1546,1564,1584,1605,1624,1645,1665,1685,1704,1724,1744,1764,1784,1805,1824,1845],"xSR":741.5,"ySR":469.95,"xT1":424.9,"yT1":0,"xT2":1058.1,"yT2":0,"toosoon":0,"cond_shown":"randomdotsizeEA","ratio_trial":750,"smaller_num":"15","larger_num":"20","correct_side":2,"subjID":"SaraMayorgaVilla17","gender":"1","age":"10","school":"sexto"},{"start_time":1551887613428,"click_time":1551887614816,"finger_time":1551887614275,"fix_duration":250,"trial":2,"RT":847,"MT":541,"sideResp":2,"stimulus":"img/250/equaldotanddens/R/9_Ratio_250_L_3_R_12.png","xmouse":[823,823,822,822,822,822,822,822,822,822,822,822,822,822,822,822,822,822,822,822,822,822,822,822,822,822,822,822,822,822,822,822,822,822,822,822,822,822,822,822,826,837,851,898,940,993,1041,1087,1151,1160,1161,1161,1160,1160,1165,1173,1188,1199,1206,1206,1206,1206,1206,1205,1202,1199,1194,1190,1161,1150],"ymouse":[526,527,528,528,528,528,528,528,528,528,528,528,528,528,528,528,528,528,528,528,528,528,528,528,528,528,528,528,528,528,528,528,528,528,528,528,528,528,528,528,528,527,523,509,488,447,397,345,277,265,252,243,237,228,221,212,202,195,190,190,190,190,188,179,172,162,153,148,95,78],"timestamp_mouse":[12,27,48,68,100,108,127,147,167,189,208,227,247,269,288,308,328,348,368,387,409,427,449,467,487,508,528,549,568,588,608,629,648,668,688,707,727,748,768,787,807,827,847,868,887,907,927,948,968,987,1007,1028,1047,1067,1089,1108,1127,1147,1167,1187,1208,1228,1248,1267,1287,1308,1329,1348,1367,1387],"xSR":741.5,"ySR":469.95,"xT1":424.9,"yT1":0,"xT2":1058.1,"yT2":0,"toosoon":0,"cond_shown":"equaldotanddens","ratio_trial":250,"smaller_num":"3","larger_num":"12","correct_side":2,"subjID":"SaraMayorgaVilla17","gender":"1","age":"10","school":"sexto"},{"start_time":1551887616923,"click_time":1551887618476,"finger_time":1551887617636,"fix_duration":865.6074408425071,"trial":3,"RT":713,"MT":840,"sideResp":2,"stimulus":"img/250/equaldotanddens/R/8_Ratio_250_L_1_R_4.png","xmouse":[769,769,769,769,769,769,769,769,769,769,769,769,769,769,769,769,769,769,769,769,769,769,769,769,769,769,769,769,769,769,769,769,771,807,835,886,940,997,1124,1166,1184,1192,1194,1193,1190,1189,1189,1189,1186,1174,1170,1166,1164,1163,1163,1163,1163,1163,1163,1163,1163,1163,1162,1162,1162,1162,1162,1162,1162,1162,1162,1162,1162,1162,1162,1161,1160,1156],"ymouse":[498,498,498,498,498,498,498,498,498,498,498,498,498,498,498,498,498,498,498,498,498,498,498,498,498,498,498,498,498,498,498,498,498,498,494,483,467,440,360,327,310,301,296,276,261,242,221,201,177,137,119,101,86,70,68,68,68,68,68,68,68,68,67,67,67,67,67,67,67,67,67,67,67,67,67,67,67,66],"timestamp_mouse":[14,40,53,73,92,113,133,152,174,194,213,232,253,272,292,313,332,353,372,392,413,432,453,473,493,512,533,554,574,593,612,632,653,672,694,713,733,753,773,794,813,832,853,872,892,913,933,952,973,993,1013,1033,1052,1073,1092,1113,1133,1153,1173,1192,1212,1233,1253,1274,1294,1314,1334,1354,1374,1393,1413,1433,1453,1472,1493,1514,1534,1553],"xSR":741.5,"ySR":469.95,"xT1":424.9,"yT1":0,"xT2":1058.1,"yT2":0,"toosoon":0,"cond_shown":"equaldotanddens","ratio_trial":250,"smaller_num":"1","larger_num":"4","correct_side":2,"subjID":"SaraMayorgaVilla17","gender":"1","age":"10","school":"sexto"},{"start_time":1551887619747,"click_time":1551887621016,"finger_time":1551887620537,"fix_duration":250,"trial":4,"RT":790,"MT":479,"sideResp":1,"stimulus":"img/500/equaldotsize/L/11_Ratio_500_L_12_R_6.png","xmouse":[795,795,795,795,795,795,795,795,795,795,795,795,795,795,795,795,795,795,795,795,795,795,795,795,795,795,795,795,795,795,795,795,795,795,795,795,795,795,804,830,859,891,923,945,948,950,950,950,950,950,950,950,950,950,950,942,925,843,784,733,680,630,540,517],"ymouse":[499,499,499,499,499,499,499,499,499,499,499,499,499,499,499,499,499,499,499,499,499,499,499,499,499,499,499,499,499,499,499,499,499,499,499,499,499,499,488,467,443,417,383,355,349,347,347,345,345,343,343,341,341,340,337,327,311,247,210,179,151,124,64,51],"timestamp_mouse":[9,29,49,70,89,109,130,149,169,188,209,230,248,269,289,310,330,349,369,388,409,428,448,469,489,509,528,548,569,589,609,630,648,669,690,709,728,748,769,790,809,829,849,869,889,909,929,948,970,990,1009,1029,1049,1069,1089,1109,1130,1148,1168,1189,1209,1230,1248,1269],"xSR":741.5,"ySR":469.95,"xT1":424.9,"yT1":0,"xT2":1058.1,"yT2":0,"toosoon":0,"cond_shown":"equaldotsize","ratio_trial":500,"smaller_num":"6","larger_num":"12","correct_side":1,"subjID":"SaraMayorgaVilla17","gender":"1","age":"10","school":"sexto"},{"start_time":1551887622991,"click_time":1551887624195,"finger_time":1551887623776,"fix_duration":1054.5635827811932,"trial":5,"RT":785,"MT":419,"sideResp":1,"stimulus":"img/250/equaldotanddens/L/14_Ratio_250_L_12_R_3.png","xmouse":[769,769,769,769,769,769,769,769,769,769,769,769,769,769,769,769,769,769,769,769,769,769,769,769,769,769,769,769,769,769,769,769,769,769,769,769,770,770,767,762,726,709,690,670,650,618,607,600,597,595,595,595,595,595,595,595,592,585,572,555,517],"ymouse":[529,529,529,529,529,529,529,529,529,529,529,529,529,529,529,529,529,529,529,529,529,529,529,529,529,529,529,529,529,529,529,529,529,529,529,529,521,513,480,464,373,332,294,255,220,167,148,135,130,127,126,126,126,126,126,125,120,110,98,83,60],"timestamp_mouse":[9,25,45,64,85,104,124,145,165,184,206,226,246,265,285,304,326,344,366,385,405,425,445,466,486,504,525,544,566,586,605,626,644,666,685,705,724,745,764,785,806,825,844,865,885,905,926,945,965,985,1005,1025,1045,1064,1086,1105,1124,1145,1164,1185,1204],"xSR":741.5,"ySR":469.95,"xT1":424.9,"yT1":0,"xT2":1058.1,"yT2":0,"toosoon":0,"cond_shown":"equaldotanddens","ratio_trial":250,"smaller_num":"3","larger_num":"12","correct_side":1,"subjID":"SaraMayorgaVilla17","gender":"1","age":"10","school":"sexto"},{"start_time":1551887625777,"click_time":1551887627277,"finger_time":1551887626956,"fix_duration":659.7994356933712,"trial":6,"RT":1179,"MT":321,"sideResp":1,"stimulus":"img/900/randomdotsizeEA/L/1_Ratio_900_L_10_R_9.png","xmouse":[796,796,796,796,796,796,796,796,796,796,796,796,796,796,796,796,796,796,796,796,796,796,796,796,796,796,796,796,796,796,796,796,796,796,796,796,796,796,796,796,796,796,796,796,796,796,796,796,796,796,796,796,796,796,796,796,797,792,786,772,740,664,630,597,597,597,597,597,597,597,597,597,597,597,597,497],"ymouse":[509,509,509,509,509,509,509,509,509,509,509,509,509,509,509,509,509,509,509,509,509,509,509,509,509,509,509,509,509,509,509,509,509,509,509,509,509,509,509,509,509,509,509,509,509,509,509,509,509,509,509,509,509,509,509,509,508,495,476,445,339,156,73,10,10,10,10,10,10,10,10,10,10,10,10,4],"timestamp_mouse":[1,19,38,67,80,98,118,140,158,179,198,220,238,260,278,300,319,339,358,380,400,420,439,459,480,499,518,540,559,579,598,619,639,659,679,700,720,739,759,780,798,819,839,858,878,898,919,939,959,980,1000,1020,1038,1060,1080,1100,1119,1138,1159,1179,1199,1219,1239,1258,1279,1299,1319,1339,1359,1380,1399,1418,1439,1459,1479,1500],"xSR":741.5,"ySR":469.95,"xT1":424.9,"yT1":0,"xT2":1058.1,"yT2":0,"toosoon":0,"cond_shown":"randomdotsizeEA","ratio_trial":900,"smaller_num":"9","larger_num":"10","correct_side":1,"subjID":"SaraMayorgaVilla17","gender":"1","age":"10","school":"sexto"},{"start_time":1551887630196,"click_time":1551887631396,"finger_time":1551887631156,"fix_duration":257.84818419805447,"trial":7,"RT":960,"MT":240,"sideResp":2,"stimulus":"img/750/equaldotsize/L/6_Ratio_750_L_24_R_18.png","xmouse":[790,785,783,783,783,783,783,783,783,783,783,783,783,783,783,783,783,783,783,783,783,783,783,783,783,783,783,783,783,783,783,783,783,783,783,783,783,783,783,783,783,783,783,783,783,783,796,823,870,969,1076,1102,1115,1119,1119,1119,1119,1120,1120,1122,1124],"ymouse":[521,521,521,521,521,521,521,521,521,521,521,521,521,521,521,521,521,521,521,521,521,521,521,521,521,521,521,521,521,521,521,521,521,521,521,521,521,521,521,521,521,521,521,521,521,519,507,481,434,342,225,183,154,143,140,139,139,138,136,125,95],"timestamp_mouse":[1,25,40,71,79,100,120,141,161,180,200,220,241,260,280,299,320,340,360,379,399,421,440,459,481,499,520,541,559,581,599,620,640,660,679,701,720,740,760,780,799,819,840,860,881,901,920,941,960,980,1000,1020,1040,1060,1080,1101,1120,1140,1160,1179,1199],"xSR":741.5,"ySR":469.95,"xT1":424.9,"yT1":0,"xT2":1058.1,"yT2":0,"toosoon":0,"cond_shown":"equaldotsize","ratio_trial":750,"smaller_num":"18","larger_num":"24","correct_side":1,"subjID":"SaraMayorgaVilla17","gender":"1","age":"10","school":"sexto"},{"start_time":1551887635547,"click_time":1551887637936,"finger_time":1551887636676,"fix_duration":250,"trial":8,"RT":1129,"MT":1260,"sideResp":1,"stimulus":"img/900/equaldotsize/R/5_Ratio_900_L_9_R_10.png","xmouse":[796,796,796,796,796,796,796,796,796,796,796,796,796,796,796,796,796,796,796,796,796,796,796,796,796,796,796,796,796,796,796,796,796,796,796,796,796,796,796,796,796,796,796,796,796,796,796,796,796,796,796,796,796,790,784,775,763,739,727,714,701,688,660,649,641,637,632,628,624,624,624,625,639,650,663,677,693,724,737,747,754,760,764,767,767,767,767,767,767,767,767,767,767,767,767,767,767,763,756,750,740,736,717,707,697,686,670,630,609,595,581,569,540,534,532,532,532,531,526,517],"ymouse":[542,542,542,542,542,542,542,542,542,542,542,542,542,542,542,542,542,542,542,542,542,542,542,542,542,542,542,542,542,542,542,542,542,542,542,542,542,542,542,542,542,542,542,542,542,542,542,542,542,542,542,542,542,529,509,486,465,408,382,357,338,322,299,293,291,291,293,297,308,314,322,333,364,377,394,410,429,465,480,492,503,512,518,526,528,530,530,530,530,530,530,530,530,530,530,530,529,520,508,497,484,478,440,416,389,353,308,217,182,155,132,111,68,61,59,59,59,58,58,58],"timestamp_mouse":[9,29,49,69,90,109,128,150,168,188,209,229,249,269,289,309,330,349,369,389,408,430,449,469,490,509,530,550,570,589,610,629,649,668,688,710,729,749,769,789,810,828,850,870,888,910,929,949,968,989,1009,1030,1049,1069,1089,1108,1129,1149,1168,1189,1208,1228,1248,1269,1289,1308,1329,1349,1369,1389,1411,1429,1448,1468,1489,1509,1528,1549,1568,1589,1608,1630,1649,1669,1689,1709,1729,1749,1769,1789,1810,1829,1848,1869,1890,1909,1929,1948,1969,1990,2008,2028,2049,2068,2089,2110,2128,2148,2168,2189,2209,2228,2249,2268,2289,2309,2330,2349,2370,2389],"xSR":741.5,"ySR":469.95,"xT1":424.9,"yT1":0,"xT2":1058.1,"yT2":0,"toosoon":0,"cond_shown":"equaldotsize","ratio_trial":900,"smaller_num":"9","larger_num":"10","correct_side":2,"subjID":"SaraMayorgaVilla17","gender":"1","age":"10","school":"sexto"},{"start_time":1551887644843,"click_time":1551887646256,"finger_time":1551887645616,"fix_duration":1185.2962935347427,"trial":9,"RT":773,"MT":640,"sideResp":2,"stimulus":"img/500/equaldotanddens/R/12_Ratio_500_L_1_R_2.png","xmouse":[815,815,815,816,817,817,817,818,818,819,819,819,821,821,821,821,821,821,821,821,821,821,821,821,821,821,821,821,821,821,821,821,822,825,826,828,830,840,845,852,858,868,894,906,919,930,943,977,990,998,1003,1007,1015,1019,1023,1027,1032,1041,1044,1047,1053,1061,1081,1093,1104,1112,1114,1116,1118,1121,1127],"ymouse":[505,503,503,502,501,500,499,497,497,496,496,495,493,493,493,493,493,493,493,493,493,493,493,493,493,493,493,493,493,493,493,493,490,487,486,483,481,471,466,460,455,446,422,410,394,374,355,297,282,273,266,258,226,204,188,179,172,160,157,153,148,143,133,128,125,122,121,119,116,106,88],"timestamp_mouse":[13,32,53,72,92,113,134,152,172,193,213,233,252,273,292,313,333,354,374,393,414,432,452,473,493,513,534,553,573,593,613,632,653,673,692,713,734,753,773,793,813,833,852,872,892,913,932,952,973,993,1013,1032,1053,1073,1093,1112,1133,1153,1172,1193,1213,1232,1253,1273,1293,1312,1332,1352,1372,1393,1413],"xSR":741.5,"ySR":469.95,"xT1":424.9,"yT1":0,"xT2":1058.1,"yT2":0,"toosoon":0,"cond_shown":"equaldotanddens","ratio_trial":500,"smaller_num":"1","larger_num":"2","correct_side":2,"subjID":"SaraMayorgaVilla17","gender":"1","age":"10","school":"sexto"},{"start_time":1551887648288,"click_time":1551887649515,"finger_time":1551887649136,"fix_duration":371.93534496738556,"trial":10,"RT":848,"MT":379,"sideResp":2,"stimulus":"img/500/equaldotanddens/R/1_Ratio_500_L_9_R_18.png","xmouse":[782,782,782,782,783,784,784,784,784,784,784,784,784,784,784,784,784,784,784,784,784,784,784,784,784,784,784,784,784,784,784,784,784,784,784,784,785,789,799,810,830,837,842,847,853,861,866,876,888,905,946,968,982,997,1009,1033,1045,1057,1065,1067,1070,1079],"ymouse":[489,489,489,496,497,501,503,503,503,503,503,503,503,503,503,503,503,503,503,503,503,503,503,503,503,503,503,503,503,503,503,503,503,503,503,503,504,504,503,501,495,490,486,479,471,458,451,443,435,426,400,379,356,335,317,286,271,243,203,173,128,98],"timestamp_mouse":[9,42,49,68,88,108,128,149,168,188,208,227,249,268,288,309,328,348,369,388,409,429,448,467,489,507,529,549,568,589,609,628,649,667,687,708,729,747,769,789,807,827,848,867,889,908,928,948,968,987,1007,1027,1048,1067,1088,1108,1128,1147,1168,1187,1207,1227],"xSR":741.5,"ySR":469.95,"xT1":424.9,"yT1":0,"xT2":1058.1,"yT2":0,"toosoon":0,"cond_shown":"equaldotanddens","ratio_trial":500,"smaller_num":"9","larger_num":"18","correct_side":2,"subjID":"SaraMayorgaVilla17","gender":"1","age":"10","school":"sexto"},{"start_time":1551887652146,"click_time":1551887653456,"finger_time":1551887652936,"fix_duration":1009.4676642702066,"trial":11,"RT":790,"MT":520,"sideResp":1,"stimulus":"img/900/randomdotsizeEA/L/1_Ratio_900_L_10_R_9.png","xmouse":[787,787,787,787,787,787,787,787,787,787,787,787,787,787,787,787,787,787,787,787,787,787,787,787,787,787,787,787,787,787,787,787,787,787,787,787,787,786,784,782,779,777,767,760,748,735,724,705,697,689,681,676,673,664,659,654,645,623,611,598,585,574,544,535,528,524],"ymouse":[515,515,515,515,515,515,515,515,515,515,515,515,515,515,515,515,515,515,515,515,515,515,515,515,515,515,515,515,515,514,512,508,504,504,504,504,502,485,470,456,448,442,412,384,348,309,278,240,223,211,202,195,192,183,180,177,171,158,151,143,135,128,106,99,92,89],"timestamp_mouse":[10,30,51,71,89,110,130,149,171,191,210,231,250,271,291,310,330,350,371,390,410,430,449,471,491,511,530,550,571,590,609,630,649,670,691,709,730,750,770,790,809,830,850,869,890,909,930,950,970,990,1010,1029,1050,1070,1090,1111,1130,1149,1169,1190,1209,1229,1249,1271,1290,1310],"xSR":741.5,"ySR":469.95,"xT1":424.9,"yT1":0,"xT2":1058.1,"yT2":0,"toosoon":0,"cond_shown":"randomdotsizeEA","ratio_trial":900,"smaller_num":"9","larger_num":"10","correct_side":1,"subjID":"SaraMayorgaVilla17","gender":"1","age":"10","school":"sexto"},{"start_time":1551887655512,"click_time":1551887656636,"finger_time":1551887656177,"fix_duration":594.7135023091458,"trial":12,"RT":665,"MT":459,"sideResp":2,"stimulus":"img/900/randomdotsizeEA/L/8_Ratio_900_L_20_R_18.png","xmouse":[772,772,772,772,772,772,772,772,772,772,772,772,772,772,772,772,772,772,772,772,772,772,772,772,772,772,772,772,772,772,772,776,785,806,855,866,902,944,993,1061,1083,1094,1098,1098,1097,1097,1097,1097,1097,1097,1097,1097,1097,1097,1094,1094,1094],"ymouse":[486,486,486,486,486,486,486,486,486,486,486,486,486,486,486,486,486,486,486,486,486,486,486,486,486,486,486,486,486,486,486,483,478,466,426,411,370,319,278,213,193,177,162,148,143,143,143,143,143,143,143,143,141,141,112,102,93],"timestamp_mouse":[8,23,44,64,84,105,125,143,164,184,205,224,244,264,284,305,323,344,363,385,405,423,444,464,483,504,524,545,563,583,605,623,644,665,683,703,723,745,764,784,803,823,844,864,884,904,923,944,965,984,1004,1023,1043,1063,1083,1104,1124],"xSR":741.5,"ySR":469.95,"xT1":424.9,"yT1":0,"xT2":1058.1,"yT2":0,"toosoon":0,"cond_shown":"randomdotsizeEA","ratio_trial":900,"smaller_num":"18","larger_num":"20","correct_side":1,"subjID":"SaraMayorgaVilla17","gender":"1","age":"10","school":"sexto"},{"start_time":1551887658450,"click_time":1551887659937,"finger_time":1551887659295,"fix_duration":553.4590943234036,"trial":13,"RT":845,"MT":642,"sideResp":1,"stimulus":"img/250/equaldotanddens/L/2_Ratio_250_L_16_R_4.png","xmouse":[806,805,805,805,805,805,805,805,805,805,805,805,805,805,805,805,805,805,805,805,805,805,805,805,805,805,805,805,805,805,805,805,805,805,805,805,805,805,805,805,805,805,802,792,776,758,749,743,743,743,742,740,733,731,727,717,694,663,659,656,655,651,642,635,627,619,613,603,596,588,575,564,551,527,521],"ymouse":[513,514,514,514,514,514,514,514,514,514,514,514,514,514,514,514,514,514,514,514,514,514,514,514,514,514,514,514,514,514,514,514,514,514,514,514,514,514,514,514,505,495,425,362,302,254,232,216,216,215,211,208,197,194,189,185,175,149,145,141,139,135,129,124,118,113,109,102,98,94,89,86,81,73,72],"timestamp_mouse":[9,27,47,66,86,106,127,146,166,186,207,225,246,267,285,307,327,346,365,387,405,425,446,465,487,506,526,547,566,586,606,626,646,665,686,706,726,746,766,787,806,825,845,865,885,905,925,946,967,986,1006,1025,1045,1065,1085,1107,1127,1146,1167,1186,1206,1226,1246,1265,1285,1305,1327,1346,1366,1385,1406,1427,1446,1466,1487],"xSR":741.5,"ySR":469.95,"xT1":424.9,"yT1":0,"xT2":1058.1,"yT2":0,"toosoon":0,"cond_shown":"equaldotanddens","ratio_trial":250,"smaller_num":"4","larger_num":"16","correct_side":1,"subjID":"SaraMayorgaVilla17","gender":"1","age":"10","school":"sexto"},{"start_time":1551887662042,"click_time":1551887663236,"finger_time":1551887662696,"fix_duration":485.7627893273193,"trial":14,"RT":654,"MT":540,"sideResp":2,"stimulus":"img/900/equaldotanddens/L/2_Ratio_900_L_20_R_18.png","xmouse":[786,786,786,786,786,786,786,786,786,786,786,786,786,786,786,786,786,786,786,786,786,786,786,786,786,786,786,791,793,795,800,807,846,877,928,984,1042,1128,1146,1167,1182,1190,1198,1199,1200,1201,1201,1201,1198,1198,1198,1198,1198,1197,1197,1190,1182,1176,1161,1156],"ymouse":[513,513,513,513,513,513,513,513,513,513,513,513,513,513,513,513,513,513,513,513,513,513,513,513,513,513,514,515,516,516,517,517,507,497,476,455,435,347,295,239,204,190,175,167,154,139,124,108,92,92,92,92,92,91,91,90,89,88,86,85],"timestamp_mouse":[20,34,70,75,95,114,133,155,174,194,213,235,253,274,295,314,334,354,374,393,415,433,454,473,494,513,534,554,575,593,613,634,654,673,694,714,734,754,773,794,815,834,853,874,894,915,935,954,974,994,1014,1035,1053,1073,1094,1114,1135,1154,1174,1194],"xSR":741.5,"ySR":469.95,"xT1":424.9,"yT1":0,"xT2":1058.1,"yT2":0,"toosoon":0,"cond_shown":"equaldotanddens","ratio_trial":900,"smaller_num":"18","larger_num":"20","correct_side":1,"subjID":"SaraMayorgaVilla17","gender":"1","age":"10","school":"sexto"},{"start_time":1551887665623,"click_time":1551887668596,"finger_time":1551887668035,"fix_duration":1024.1447629072647,"trial":15,"RT":2412,"MT":561,"sideResp":1,"stimulus":"img/500/randomdotsizeEA/L/7_Ratio_500_L_10_R_5.png","xmouse":[783,783,783,783,783,783,783,783,783,783,783,783,785,788,788,788,788,788,788,788,788,788,788,788,788,788,788,788,788,788,788,788,788,788,788,788,788,788,788,788,788,788,788,788,788,788,788,788,788,788,788,788,788,788,789,791,793,794,794,794,794,794,794,794,794,794,794,794,794,794,794,794,794,794,794,794,794,794,794,794,794,794,794,794,794,794,794,794,794,794,794,794,794,794,794,794,794,794,794,794,794,794,794,794,794,794,794,794,794,794,794,794,794,794,794,794,794,794,800,804,806,807,807,803,791,775,765,758,749,746,743,739,732,711,700,691,677,662,611,582,561,545,534,527,527,527,527,525,514],"ymouse":[497,497,497,497,497,497,497,497,497,497,497,498,496,494,493,493,493,493,493,493,493,493,493,493,493,493,493,493,493,493,493,493,493,493,493,493,493,493,493,493,493,493,493,493,493,493,493,493,493,493,493,493,493,493,492,489,487,487,487,487,487,487,487,487,487,487,487,487,487,487,487,487,487,487,487,487,487,487,487,487,487,487,487,487,487,487,487,487,487,487,487,487,487,487,487,487,487,487,487,487,487,487,487,487,487,487,487,487,487,487,487,487,487,487,487,487,487,487,482,474,467,457,444,386,330,276,243,219,193,189,184,179,171,152,144,136,125,113,75,54,35,21,12,7,6,6,6,6,19],"timestamp_mouse":[13,34,53,73,93,113,132,153,173,193,213,233,253,273,293,313,332,353,373,392,413,433,453,474,492,514,533,553,572,592,612,633,653,672,693,713,734,753,774,794,813,834,854,873,893,912,933,954,973,993,1013,1033,1053,1074,1093,1113,1134,1153,1173,1192,1212,1233,1254,1274,1293,1313,1334,1352,1373,1394,1412,1433,1454,1473,1493,1514,1533,1553,1573,1594,1613,1633,1654,1672,1694,1714,1732,1753,1772,1793,1813,1833,1853,1873,1893,1914,1933,1954,1973,1993,2013,2034,2054,2073,2094,2114,2133,2153,2173,2194,2213,2234,2254,2273,2293,2314,2332,2353,2372,2393,2412,2433,2453,2472,2492,2512,2533,2553,2573,2593,2614,2633,2653,2672,2692,2713,2733,2753,2772,2792,2812,2833,2853,2874,2894,2912,2932,2953,2973],"xSR":741.5,"ySR":469.95,"xT1":424.9,"yT1":0,"xT2":1058.1,"yT2":0,"toosoon":0,"cond_shown":"randomdotsizeEA","ratio_trial":500,"smaller_num":"5","larger_num":"10","correct_side":1,"subjID":"SaraMayorgaVilla17","gender":"1","age":"10","school":"sexto"},{"start_time":1551887671536,"click_time":1551887672715,"finger_time":1551887672235,"fix_duration":1499.418857355291,"trial":16,"RT":699,"MT":480,"sideResp":1,"stimulus":"img/900/equaldotsize/L/10_Ratio_900_L_20_R_18.png","xmouse":[816,816,811,811,810,810,810,810,810,810,810,810,810,810,810,810,810,810,810,810,810,810,810,810,810,810,810,810,810,810,810,810,811,826,836,844,852,857,862,867,872,875,876,868,857,839,822,805,776,760,742,725,706,670,651,626,600,572,527,511],"ymouse":[523,523,523,523,523,523,523,523,523,523,523,523,523,523,523,523,523,523,523,523,523,523,523,523,523,523,523,523,523,523,523,523,523,513,505,497,489,481,475,464,449,425,392,281,242,213,186,165,146,140,132,125,118,110,107,104,99,92,77,71],"timestamp_mouse":[1,19,41,60,80,100,120,140,160,180,199,220,240,260,281,301,320,340,361,379,401,420,440,461,479,499,520,540,561,579,599,620,640,660,681,699,720,740,760,781,799,820,840,860,879,900,920,941,959,979,1000,1019,1039,1060,1080,1100,1119,1139,1159,1179],"xSR":741.5,"ySR":469.95,"xT1":424.9,"yT1":0,"xT2":1058.1,"yT2":0,"toosoon":0,"cond_shown":"equaldotsize","ratio_trial":900,"smaller_num":"18","larger_num":"20","correct_side":1,"subjID":"SaraMayorgaVilla17","gender":"1","age":"10","school":"sexto"},{"start_time":1551887674971,"click_time":1551887676135,"finger_time":1551887675636,"fix_duration":992.2220654387611,"trial":17,"RT":665,"MT":499,"sideResp":2,"stimulus":"img/500/equaldotsize/R/6_Ratio_500_L_9_R_18.png","xmouse":[769,769,769,769,769,769,769,769,769,769,769,769,769,769,769,769,769,769,769,769,769,769,769,769,769,769,769,769,769,770,774,804,831,864,906,943,984,997,1008,1015,1020,1037,1047,1055,1063,1066,1067,1067,1067,1067,1067,1067,1067,1068,1069,1069,1069,1069,1071],"ymouse":[512,513,513,513,513,514,514,514,514,514,514,514,514,514,514,514,514,514,514,514,514,514,514,514,514,514,514,514,514,515,515,505,486,455,413,363,280,249,227,210,197,159,143,130,117,111,107,107,107,107,107,106,105,104,101,101,100,100,98],"timestamp_mouse":[8,24,55,65,85,105,124,144,166,186,206,224,246,264,285,305,324,346,365,385,404,425,445,464,486,506,526,546,565,584,605,624,646,665,685,705,724,744,764,784,805,824,845,865,885,904,925,946,965,984,1004,1025,1046,1065,1084,1105,1126,1146,1164],"xSR":741.5,"ySR":469.95,"xT1":424.9,"yT1":0,"xT2":1058.1,"yT2":0,"toosoon":0,"cond_shown":"equaldotsize","ratio_trial":500,"smaller_num":"9","larger_num":"18","correct_side":2,"subjID":"SaraMayorgaVilla17","gender":"1","age":"10","school":"sexto"},{"start_time":1551887677968,"click_time":1551887679135,"finger_time":1551887678635,"fix_duration":250,"trial":18,"RT":667,"MT":500,"sideResp":1,"stimulus":"img/250/randomdotsizeEA/L/7_Ratio_250_L_8_R_2.png","xmouse":[791,791,791,791,791,791,791,791,791,791,791,791,791,791,791,791,791,791,791,791,791,791,791,791,791,791,791,791,791,791,791,791,795,799,799,799,784,775,767,757,743,683,662,651,646,643,638,635,631,625,618,596,580,569,561,550,531,527,523],"ymouse":[501,501,501,501,501,501,501,501,501,501,501,501,501,501,501,501,501,501,501,501,501,501,501,501,501,501,501,501,501,501,501,501,492,468,440,415,342,319,298,277,247,141,117,104,97,93,87,83,81,81,81,83,86,87,87,86,81,79,78],"timestamp_mouse":[9,27,49,76,87,108,127,149,169,189,226,228,247,268,288,308,327,348,367,389,409,428,448,468,489,508,529,548,568,589,607,629,648,667,687,708,727,747,768,788,807,828,848,868,888,909,928,948,968,987,1008,1028,1049,1068,1087,1107,1128,1148,1167],"xSR":741.5,"ySR":469.95,"xT1":424.9,"yT1":0,"xT2":1058.1,"yT2":0,"toosoon":0,"cond_shown":"randomdotsizeEA","ratio_trial":250,"smaller_num":"2","larger_num":"8","correct_side":1,"subjID":"SaraMayorgaVilla17","gender":"1","age":"10","school":"sexto"},{"start_time":1551887681112,"click_time":1551887682155,"finger_time":1551887681777,"fix_duration":474.70071600641415,"trial":19,"RT":665,"MT":378,"sideResp":1,"stimulus":"img/250/equaldotanddens/L/3_Ratio_250_L_8_R_2.png","xmouse":[793,793,793,793,793,793,793,793,793,793,793,793,793,793,793,793,793,793,793,793,793,793,793,793,793,793,793,793,793,793,793,790,786,776,742,729,721,715,707,681,652,619,588,576,573,573,573,571,563,545,535,525,516],"ymouse":[500,500,500,500,500,500,500,500,500,500,500,500,500,500,500,500,500,500,500,500,500,500,500,500,500,500,500,500,500,500,500,486,474,439,354,335,316,301,280,220,148,70,28,16,14,14,14,13,9,6,6,6,10],"timestamp_mouse":[8,35,43,65,85,103,124,145,163,184,205,224,245,263,284,304,323,344,365,385,403,425,445,464,485,505,523,545,563,585,605,624,643,665,684,703,724,743,763,783,803,824,845,863,885,904,924,944,963,983,1004,1024,1043],"xSR":741.5,"ySR":469.95,"xT1":424.9,"yT1":0,"xT2":1058.1,"yT2":0,"toosoon":0,"cond_shown":"equaldotanddens","ratio_trial":250,"smaller_num":"2","larger_num":"8","correct_side":1,"subjID":"SaraMayorgaVilla17","gender":"1","age":"10","school":"sexto"},{"start_time":1551887684598,"click_time":1551887685615,"finger_time":1551887685256,"fix_duration":821.944628251113,"trial":20,"RT":658,"MT":359,"sideResp":2,"stimulus":"img/750/equaldotsize/R/11_Ratio_750_L_12_R_16.png","xmouse":[780,780,780,780,780,780,780,780,780,780,780,780,780,780,780,780,780,780,780,780,780,780,780,780,780,780,780,780,781,789,799,812,830,853,913,931,949,971,990,1031,1045,1059,1068,1078,1098,1102,1106,1108,1110,1113,1114],"ymouse":[501,501,501,501,501,501,501,501,501,501,501,501,501,501,501,501,501,501,501,501,501,501,501,501,501,501,501,501,501,499,487,471,450,418,335,307,290,272,258,221,203,182,166,146,123,120,116,115,110,100,97],"timestamp_mouse":[18,39,65,79,97,119,139,158,177,198,218,238,259,278,298,318,338,357,378,399,418,439,458,479,499,519,537,558,578,598,618,638,658,677,697,718,737,759,779,798,817,837,859,878,897,917,938,957,978,997,1017],"xSR":741.5,"ySR":469.95,"xT1":424.9,"yT1":0,"xT2":1058.1,"yT2":0,"toosoon":0,"cond_shown":"equaldotsize","ratio_trial":750,"smaller_num":"12","larger_num":"16","correct_side":2,"subjID":"SaraMayorgaVilla17","gender":"1","age":"10","school":"sexto"},{"start_time":1551887687890,"click_time":1551887689697,"finger_time":1551887688675,"fix_duration":951.3492279923896,"trial":21,"RT":785,"MT":1022,"sideResp":1,"stimulus":"img/900/equaldotsize/R/3_Ratio_900_L_9_R_10.png","xmouse":[813,813,813,813,813,813,813,813,813,813,813,813,813,813,813,813,813,813,813,813,813,813,813,813,813,813,813,813,813,813,813,813,813,813,813,814,818,821,822,822,815,810,803,793,782,758,747,736,725,714,687,671,655,645,633,607,595,586,577,571,557,550,544,539,536,531,531,530,529,527,527,527,527,527,527,527,527,527,527,527,527,527,527,527,527,527,527,527,527,526,518],"ymouse":[517,517,517,517,517,517,517,517,517,517,517,517,517,517,517,517,517,517,517,517,517,517,517,517,517,517,517,517,517,517,518,518,518,518,518,516,502,488,474,462,439,426,408,390,373,337,324,309,292,272,226,198,171,150,132,96,83,73,63,57,43,36,31,29,29,29,29,29,29,29,29,29,29,29,29,29,29,29,29,29,29,29,29,29,29,29,29,29,29,29,32],"timestamp_mouse":[8,37,46,66,86,105,125,147,165,186,206,225,247,265,286,306,325,345,367,387,405,426,447,466,487,506,526,546,566,586,607,626,645,667,686,705,726,745,766,785,805,826,845,866,887,906,926,946,967,986,1006,1025,1046,1066,1086,1106,1126,1146,1165,1185,1206,1227,1245,1266,1286,1306,1327,1345,1365,1385,1406,1426,1447,1466,1485,1507,1526,1546,1566,1586,1606,1626,1645,1666,1686,1706,1725,1745,1767,1787,1806],"xSR":741.5,"ySR":469.95,"xT1":424.9,"yT1":0,"xT2":1058.1,"yT2":0,"toosoon":0,"cond_shown":"equaldotsize","ratio_trial":900,"smaller_num":"9","larger_num":"10","correct_side":2,"subjID":"SaraMayorgaVilla17","gender":"1","age":"10","school":"sexto"},{"start_time":1551887691842,"click_time":1551887693117,"finger_time":1551887692535,"fix_duration":384.39210096861166,"trial":22,"RT":693,"MT":582,"sideResp":2,"stimulus":"img/900/randomdotsizeEA/L/8_Ratio_900_L_20_R_18.png","xmouse":[810,810,810,810,810,810,810,810,810,810,810,810,810,810,810,810,810,810,810,810,810,810,810,810,810,810,810,810,810,810,810,812,822,833,844,851,859,867,871,876,884,893,915,929,945,968,980,1040,1073,1104,1124,1150,1191,1202,1210,1215,1217,1218,1217,1215,1213,1204,1177,1158],"ymouse":[520,520,520,520,520,520,520,520,520,520,520,520,520,520,520,520,520,520,520,520,520,520,520,520,520,520,520,520,520,520,520,520,514,505,496,489,481,475,471,465,457,445,414,393,371,342,330,281,251,221,196,157,102,86,76,68,61,51,48,46,46,43,36,31],"timestamp_mouse":[14,38,55,73,94,115,135,155,175,195,213,235,254,275,295,315,334,353,375,393,414,433,453,475,493,513,535,553,574,595,613,634,654,675,693,713,734,754,775,793,814,835,854,873,894,914,933,954,974,994,1013,1033,1054,1075,1095,1113,1134,1154,1174,1194,1214,1233,1254,1275],"xSR":741.5,"ySR":469.95,"xT1":424.9,"yT1":0,"xT2":1058.1,"yT2":0,"toosoon":0,"cond_shown":"randomdotsizeEA","ratio_trial":900,"smaller_num":"18","larger_num":"20","correct_side":1,"subjID":"SaraMayorgaVilla17","gender":"1","age":"10","school":"sexto"},{"start_time":1551887696806,"click_time":1551887698335,"finger_time":1551887697596,"fix_duration":1049.8722760820922,"trial":23,"RT":790,"MT":739,"sideResp":1,"stimulus":"img/750/randomdotsizeEA/R/7_Ratio_750_L_3_R_4.png","xmouse":[788,788,788,788,788,788,788,788,788,788,788,788,788,788,788,788,788,788,788,788,788,788,788,788,788,788,788,788,788,788,788,788,788,788,788,788,784,778,771,751,737,712,687,660,609,590,576,568,557,546,539,534,529,528,528,528,528,528,528,527,527,527,527,527,527,527,527,527,527,527,527,527,527,527,527,525,519],"ymouse":[517,517,517,517,517,517,517,517,517,517,517,517,517,517,517,517,517,517,517,517,517,517,517,517,517,517,517,517,517,517,517,517,517,517,517,514,508,497,483,428,374,314,248,191,114,92,76,66,57,39,28,19,14,13,13,13,13,13,13,13,13,13,13,13,13,13,13,13,13,13,13,13,13,13,13,13,17],"timestamp_mouse":[10,31,51,71,89,110,130,150,170,191,209,231,250,270,290,311,331,351,370,391,409,430,449,469,489,510,530,549,571,590,610,631,649,671,690,710,730,750,770,790,809,830,851,870,890,911,931,949,970,990,1011,1029,1050,1071,1090,1110,1129,1151,1170,1190,1211,1230,1249,1269,1290,1310,1329,1350,1371,1391,1411,1430,1450,1471,1491,1510,1529],"xSR":741.5,"ySR":469.95,"xT1":424.9,"yT1":0,"xT2":1058.1,"yT2":0,"toosoon":0,"cond_shown":"randomdotsizeEA","ratio_trial":750,"smaller_num":"3","larger_num":"4","correct_side":2,"subjID":"SaraMayorgaVilla17","gender":"1","age":"10","school":"sexto"},{"start_time":1551887700767,"click_time":1551887702056,"finger_time":1551887701836,"fix_duration":250,"trial":24,"RT":1069,"MT":220,"sideResp":1,"stimulus":"img/750/randomdotsizeEA/L/9_Ratio_750_L_4_R_3.png","xmouse":[814,814,814,814,814,814,814,814,814,814,814,814,814,814,814,814,814,814,814,814,814,814,814,814,814,814,814,814,814,814,814,814,814,814,814,814,814,814,814,814,814,814,814,814,814,814,814,814,814,814,814,814,787,762,731,689,613,589,570,556,544,531,529,527,524],"ymouse":[527,527,527,527,527,527,527,527,527,527,527,527,527,527,527,527,527,527,527,527,527,527,527,527,527,527,527,527,527,527,527,527,527,527,527,527,527,527,527,527,527,527,527,527,527,527,527,527,527,527,525,521,476,431,373,313,217,173,143,123,109,96,94,92,89],"timestamp_mouse":[8,42,49,69,89,109,128,149,170,189,209,229,249,270,290,310,328,350,369,389,408,429,450,468,490,508,530,549,569,590,608,629,650,670,688,708,729,750,769,790,809,828,850,870,888,909,929,948,970,988,1009,1029,1049,1069,1089,1110,1129,1148,1169,1188,1208,1228,1248,1268,1289],"xSR":741.5,"ySR":469.95,"xT1":424.9,"yT1":0,"xT2":1058.1,"yT2":0,"toosoon":0,"cond_shown":"randomdotsizeEA","ratio_trial":750,"smaller_num":"3","larger_num":"4","correct_side":1,"subjID":"SaraMayorgaVilla17","gender":"1","age":"10","school":"sexto"},{"start_time":1551887703489,"click_time":1551887705176,"finger_time":1551887704416,"fix_duration":671.9246254542211,"trial":25,"RT":927,"MT":760,"sideResp":2,"stimulus":"img/900/equaldotsize/L/8_Ratio_900_L_20_R_18.png","xmouse":[828,828,823,817,813,810,810,810,810,810,810,810,810,810,810,810,810,810,810,810,810,810,810,810,810,810,810,810,810,810,810,810,810,810,810,810,810,810,810,810,810,810,810,813,815,836,852,871,888,903,928,935,943,949,956,972,980,988,1001,1012,1031,1036,1043,1049,1054,1073,1085,1097,1109,1120,1126,1126,1126,1126,1126,1125,1125,1125,1125,1125,1125,1125,1125,1125,1125],"ymouse":[536,536,529,523,519,517,517,517,517,517,517,517,517,517,517,517,517,517,517,517,517,517,517,517,517,517,517,517,517,517,517,517,517,517,517,517,517,517,517,517,517,517,517,517,517,509,495,474,451,429,394,381,368,356,345,317,306,296,284,275,260,255,244,233,221,191,176,162,150,137,124,118,117,115,114,113,113,113,113,113,113,108,106,102,99],"timestamp_mouse":[19,26,46,66,88,106,127,146,167,186,207,227,247,267,287,307,328,346,367,387,407,428,448,466,487,508,527,547,567,586,608,626,647,667,687,708,728,746,767,788,806,826,848,868,887,907,927,947,968,988,1007,1028,1047,1068,1088,1107,1127,1146,1168,1186,1206,1226,1246,1266,1287,1307,1327,1347,1368,1387,1406,1426,1446,1468,1488,1508,1527,1546,1567,1587,1607,1626,1646,1667,1687],"xSR":741.5,"ySR":469.95,"xT1":424.9,"yT1":0,"xT2":1058.1,"yT2":0,"toosoon":0,"cond_shown":"equaldotsize","ratio_trial":900,"smaller_num":"18","larger_num":"20","correct_side":1,"subjID":"SaraMayorgaVilla17","gender":"1","age":"10","school":"sexto"},{"start_time":1551887709494,"click_time":1551887711697,"finger_time":1551887710495,"fix_duration":876.9919409728258,"trial":26,"RT":1001,"MT":1202,"sideResp":2,"stimulus":"img/900/randomdotsizeEA/L/1_Ratio_900_L_10_R_9.png","xmouse":[766,768,768,771,773,775,775,775,775,775,775,775,775,775,775,775,775,775,775,775,775,775,775,776,776,778,779,780,780,780,781,782,782,784,785,786,787,788,789,791,792,794,795,795,797,801,804,807,807,807,807,805,795,780,760,742,740,739,739,739,739,739,739,739,739,739,739,739,739,739,739,739,741,747,757,770,777,786,798,809,831,835,837,837,838,844,845,847,851,857,864,867,872,881,890,906,910,916,921,923,927,944,954,971,985,1001,1011,1018,1025,1035,1059],"ymouse":[504,504,504,504,504,504,504,504,504,504,504,504,504,504,504,504,504,504,504,504,504,504,504,504,504,504,504,504,504,504,504,504,504,504,503,503,502,502,501,500,500,498,497,496,495,489,484,481,481,481,456,431,408,384,351,323,321,319,319,319,319,319,319,319,319,319,319,319,319,319,319,318,316,316,316,316,314,313,309,306,302,302,302,302,301,298,296,292,289,285,280,277,271,257,240,212,210,208,206,206,206,205,201,195,186,176,166,156,143,127,88],"timestamp_mouse":[9,35,43,62,82,102,123,143,161,181,203,221,241,262,282,302,322,341,362,381,401,422,443,462,482,502,522,542,562,582,603,621,642,662,682,702,722,742,762,781,802,821,842,863,881,902,923,941,962,981,1001,1022,1042,1062,1082,1102,1121,1142,1161,1181,1201,1221,1241,1262,1281,1301,1322,1341,1361,1381,1401,1421,1442,1461,1481,1501,1522,1543,1562,1582,1602,1622,1641,1663,1682,1702,1721,1742,1763,1782,1802,1823,1842,1862,1882,1902,1922,1943,1962,1982,2002,2023,2042,2062,2082,2102,2122,2143,2161,2181,2202],"xSR":741.5,"ySR":469.95,"xT1":424.9,"yT1":0,"xT2":1058.1,"yT2":0,"toosoon":0,"cond_shown":"randomdotsizeEA","ratio_trial":900,"smaller_num":"9","larger_num":"10","correct_side":1,"subjID":"SaraMayorgaVilla17","gender":"1","age":"10","school":"sexto"},{"start_time":1551887713946,"click_time":1551887715196,"finger_time":1551887714795,"fix_duration":1028.7728383955953,"trial":27,"RT":849,"MT":401,"sideResp":1,"stimulus":"img/750/randomdotsizeEA/L/6_Ratio_750_L_24_R_18.png","xmouse":[790,790,790,790,790,790,790,790,790,790,790,790,790,790,790,790,790,790,790,790,790,790,790,790,790,790,790,790,790,790,790,790,790,790,790,790,790,790,790,790,791,791,749,719,698,682,674,667,663,660,658,652,640,635,626,616,606,584,571,556,541,529,519],"ymouse":[540,540,540,540,540,540,540,540,540,540,540,540,540,540,540,540,540,540,540,540,540,540,540,540,540,540,540,540,540,540,540,540,540,540,540,540,540,540,540,540,528,517,417,364,323,294,273,248,238,229,220,204,169,154,138,124,112,93,82,70,59,53,48],"timestamp_mouse":[10,44,51,71,91,110,131,151,170,190,211,229,250,270,289,310,331,349,370,391,411,431,449,469,490,511,529,550,571,589,609,631,650,670,690,709,730,750,770,791,810,830,849,869,890,910,931,950,970,991,1010,1029,1049,1070,1090,1110,1129,1149,1170,1189,1210,1230,1250],"xSR":741.5,"ySR":469.95,"xT1":424.9,"yT1":0,"xT2":1058.1,"yT2":0,"toosoon":0,"cond_shown":"randomdotsizeEA","ratio_trial":750,"smaller_num":"18","larger_num":"24","correct_side":1,"subjID":"SaraMayorgaVilla17","gender":"1","age":"10","school":"sexto"},{"start_time":1551887716690,"click_time":1551887717676,"finger_time":1551887717515,"fix_duration":453.95251499295284,"trial":28,"RT":825,"MT":161,"sideResp":2,"stimulus":"img/250/equaldotanddens/R/12_Ratio_250_L_5_R_20.png","xmouse":[808,808,808,808,808,808,808,808,808,808,808,808,808,808,808,808,808,808,808,808,808,808,808,808,808,808,808,808,808,808,808,808,808,808,808,808,808,808,809,811,832,857,887,925,967,1060,1088,1110,1121,1124],"ymouse":[495,495,495,495,495,495,495,495,495,495,495,495,495,495,495,495,495,495,495,495,495,495,495,495,495,495,495,495,495,495,495,495,495,495,495,495,495,496,497,497,477,448,411,370,319,195,152,123,104,97],"timestamp_mouse":[8,26,45,66,86,107,127,146,165,187,207,227,246,267,285,307,326,345,366,385,407,427,446,467,487,507,525,547,566,585,605,626,646,667,685,705,726,745,765,786,806,825,845,865,887,906,926,946,965,986],"xSR":741.5,"ySR":469.95,"xT1":424.9,"yT1":0,"xT2":1058.1,"yT2":0,"toosoon":0,"cond_shown":"equaldotanddens","ratio_trial":250,"smaller_num":"5","larger_num":"20","correct_side":2,"subjID":"SaraMayorgaVilla17","gender":"1","age":"10","school":"sexto"},{"start_time":1551887719670,"click_time":1551887721796,"finger_time":1551887720937,"fix_duration":1073.9041569250774,"trial":29,"RT":1267,"MT":859,"sideResp":2,"stimulus":"img/500/randomdotsizeEA/R/6_Ratio_500_L_9_R_18.png","xmouse":[787,787,787,787,787,787,787,787,787,787,787,787,787,787,787,787,787,787,787,787,787,787,787,787,787,787,787,787,787,787,787,787,787,787,787,787,787,787,787,787,787,787,787,787,787,787,787,787,787,787,787,787,787,787,787,787,787,787,787,787,787,787,787,790,797,802,811,813,816,823,841,894,930,976,1027,1103,1156,1170,1186,1200,1224,1224,1224,1224,1224,1224,1224,1224,1224,1224,1224,1224,1224,1224,1224,1224,1224,1224,1224,1224,1224,1224,1224,1224,1224,1224,1111],"ymouse":[476,476,476,476,476,476,476,476,476,476,476,476,476,476,476,476,476,476,476,476,476,476,476,476,476,476,476,476,476,476,476,476,476,476,476,476,476,476,476,476,476,476,476,476,476,476,476,476,476,476,476,476,476,476,476,476,476,476,476,476,476,476,472,460,445,435,419,418,418,417,415,382,356,317,262,179,112,95,75,57,13,13,13,13,13,13,13,13,13,13,13,13,13,13,13,13,13,13,13,13,13,13,13,13,13,13,4],"timestamp_mouse":[11,26,51,66,87,106,126,145,165,185,207,226,246,266,285,306,326,346,367,386,405,426,445,466,487,506,525,547,567,585,607,626,647,667,686,705,725,747,766,787,805,825,846,866,885,905,926,945,967,986,1005,1026,1045,1067,1086,1106,1126,1147,1166,1187,1205,1227,1245,1267,1286,1305,1326,1346,1365,1386,1405,1426,1445,1466,1487,1505,1525,1545,1565,1585,1605,1627,1646,1665,1685,1705,1725,1745,1765,1785,1805,1826,1845,1865,1887,1906,1927,1947,1965,1985,2005,2025,2046,2065,2085,2105,2125],"xSR":741.5,"ySR":469.95,"xT1":424.9,"yT1":0,"xT2":1058.1,"yT2":0,"toosoon":0,"cond_shown":"randomdotsizeEA","ratio_trial":500,"smaller_num":"9","larger_num":"18","correct_side":2,"subjID":"SaraMayorgaVilla17","gender":"1","age":"10","school":"sexto"},{"start_time":1551887724355,"click_time":1551887726156,"finger_time":1551887725696,"fix_duration":1256.0375642884603,"trial":30,"RT":1341,"MT":460,"sideResp":2,"stimulus":"img/750/equaldotsize/R/7_Ratio_750_L_3_R_4.png","xmouse":[804,804,804,804,804,804,804,804,804,804,804,804,804,804,804,804,804,804,804,804,804,804,804,804,804,804,804,804,804,804,804,804,804,804,804,804,804,804,804,804,804,804,804,804,804,804,804,804,804,804,804,804,804,804,804,804,804,804,804,804,804,804,804,804,806,811,822,871,891,908,918,924,929,935,938,940,940,940,940,941,943,953,977,992,1006,1025,1043,1070,1086,1099,1110],"ymouse":[528,528,528,528,528,528,528,528,528,528,528,528,528,528,528,528,528,528,528,528,528,528,528,528,528,528,528,528,528,528,528,528,528,528,528,528,528,528,528,528,528,528,528,528,528,528,528,528,528,528,528,528,528,528,528,528,528,528,528,528,528,528,528,528,527,522,501,424,387,366,352,342,330,308,299,295,295,295,295,295,292,280,253,237,221,202,181,149,130,112,92],"timestamp_mouse":[8,21,40,62,80,100,121,141,161,182,202,222,240,261,281,300,322,342,361,380,401,422,440,461,481,500,522,541,562,581,601,622,640,660,682,700,720,740,761,780,802,820,841,862,881,902,922,940,961,981,1001,1021,1040,1060,1080,1102,1120,1141,1162,1180,1202,1220,1240,1262,1280,1301,1320,1341,1360,1381,1401,1421,1441,1460,1481,1501,1521,1541,1561,1581,1600,1621,1641,1661,1680,1701,1722,1741,1762,1780,1801],"xSR":741.5,"ySR":469.95,"xT1":424.9,"yT1":0,"xT2":1058.1,"yT2":0,"toosoon":0,"cond_shown":"equaldotsize","ratio_trial":750,"smaller_num":"3","larger_num":"4","correct_side":2,"subjID":"SaraMayorgaVilla17","gender":"1","age":"10","school":"sexto"},{"start_time":1551887728623,"click_time":1551887730136,"finger_time":1551887729556,"fix_duration":706.6295921203625,"trial":31,"RT":933,"MT":580,"sideResp":1,"stimulus":"img/900/equaldotsize/L/1_Ratio_900_L_10_R_9.png","xmouse":[793,793,793,793,793,793,793,793,793,793,793,793,793,793,793,793,793,793,793,793,793,793,793,793,793,793,793,793,793,793,793,793,793,793,793,793,793,793,793,793,793,793,793,793,792,788,774,753,706,688,679,671,670,670,670,670,670,670,670,670,670,670,670,670,670,670,670,670,670,670,670,670,670,670,670,465],"ymouse":[517,517,517,517,517,517,517,517,517,517,517,517,517,517,517,517,517,517,517,517,517,517,517,517,517,517,517,517,517,517,517,517,517,517,517,517,517,517,517,517,517,517,517,517,517,507,451,365,127,57,24,8,3,3,3,3,3,3,3,3,3,3,3,3,3,3,3,3,3,3,3,3,3,3,3,23],"timestamp_mouse":[12,42,52,73,94,113,134,152,172,194,213,233,253,274,294,314,334,354,374,394,413,433,454,472,493,514,533,553,574,594,613,634,653,673,694,712,733,753,772,794,813,834,853,873,892,913,933,954,973,993,1013,1034,1052,1073,1093,1113,1133,1153,1174,1193,1214,1234,1254,1273,1293,1313,1333,1353,1373,1392,1412,1433,1453,1473,1493,1513],"xSR":741.5,"ySR":469.95,"xT1":424.9,"yT1":0,"xT2":1058.1,"yT2":0,"toosoon":0,"cond_shown":"equaldotsize","ratio_trial":900,"smaller_num":"9","larger_num":"10","correct_side":1,"subjID":"SaraMayorgaVilla17","gender":"1","age":"10","school":"sexto"},{"start_time":1551887732564,"click_time":1551887734836,"finger_time":1551887734096,"fix_duration":868.9583352780663,"trial":32,"RT":1532,"MT":740,"sideResp":2,"stimulus":"img/500/equaldotsize/R/3_Ratio_500_L_10_R_20.png","xmouse":[763,763,763,763,763,763,763,763,763,763,763,763,763,763,763,763,763,763,763,763,763,763,763,763,763,763,763,763,763,763,763,763,763,763,763,763,763,763,763,763,763,763,763,763,763,763,763,763,763,763,763,763,763,763,763,763,763,763,763,763,763,763,763,763,763,763,763,763,763,763,763,763,763,763,764,766,790,810,832,858,891,962,997,1031,1048,1062,1089,1105,1128,1153,1187,1267,1267,1267,1267,1267,1267,1267,1267,1267,1267,1267,1267,1267,1267,1267,1267,1267,1267,1267,1267,1267,1267,1153],"ymouse":[499,499,499,499,499,499,499,499,499,499,499,499,499,499,499,499,499,499,499,499,499,499,499,499,499,499,499,499,499,499,499,499,499,499,499,499,499,499,499,499,499,499,499,499,499,499,499,499,499,499,499,499,499,499,499,499,499,499,499,499,499,499,499,499,499,499,499,499,499,499,499,499,499,499,499,496,469,453,433,409,377,314,287,262,248,237,217,204,184,160,122,21,21,21,21,21,21,21,21,21,21,21,21,21,21,21,21,21,21,21,21,21,21,10],"timestamp_mouse":[12,36,51,73,91,113,133,153,173,192,213,231,253,272,291,312,332,351,371,393,411,432,451,473,491,512,532,551,571,592,612,631,652,673,691,713,731,751,772,791,813,832,853,873,892,912,932,953,972,993,1011,1032,1052,1071,1092,1111,1132,1151,1173,1193,1213,1232,1252,1273,1291,1313,1332,1351,1371,1393,1412,1432,1452,1473,1492,1511,1532,1552,1572,1592,1611,1631,1651,1671,1693,1711,1731,1753,1772,1791,1811,1831,1852,1871,1893,1911,1932,1953,1972,1992,2012,2032,2052,2072,2092,2113,2132,2152,2172,2193,2212,2233,2252,2272],"xSR":741.5,"ySR":469.95,"xT1":424.9,"yT1":0,"xT2":1058.1,"yT2":0,"toosoon":0,"cond_shown":"equaldotsize","ratio_trial":500,"smaller_num":"10","larger_num":"20","correct_side":2,"subjID":"SaraMayorgaVilla17","gender":"1","age":"10","school":"sexto"},{"start_time":1551887736887,"click_time":1551887738437,"finger_time":1551887738217,"fix_duration":948.7882199856148,"trial":33,"RT":1330,"MT":220,"sideResp":2,"stimulus":"img/250/equaldotanddens/R/11_Ratio_250_L_3_R_12.png","xmouse":[748,748,748,748,748,748,748,748,748,748,748,748,748,748,748,748,748,748,748,754,757,769,776,783,789,796,800,803,806,809,816,818,821,824,824,824,824,824,824,824,824,824,824,824,824,824,824,824,824,824,824,824,824,824,824,824,824,824,824,824,824,824,824,824,824,835,849,862,873,882,901,911,922,933,953,1026,1047,1063],"ymouse":[547,547,547,547,547,547,547,547,547,547,547,547,547,547,547,547,547,547,547,543,541,535,531,528,526,523,521,521,519,519,518,517,517,517,517,517,517,517,517,517,517,517,517,517,517,517,517,517,517,517,517,517,517,517,517,517,517,517,517,517,517,517,517,517,517,505,490,476,459,443,408,389,366,339,296,161,112,79],"timestamp_mouse":[11,40,50,69,89,110,130,149,168,189,208,230,250,269,289,309,328,348,369,388,408,429,449,469,490,508,528,549,569,588,609,629,650,669,690,709,729,749,770,789,809,830,849,869,889,909,929,949,970,990,1010,1029,1050,1070,1089,1109,1129,1150,1169,1190,1209,1229,1249,1269,1291,1308,1330,1349,1370,1389,1409,1429,1449,1470,1489,1509,1529,1549],"xSR":741.5,"ySR":469.95,"xT1":424.9,"yT1":0,"xT2":1058.1,"yT2":0,"toosoon":0,"cond_shown":"equaldotanddens","ratio_trial":250,"smaller_num":"3","larger_num":"12","correct_side":2,"subjID":"SaraMayorgaVilla17","gender":"1","age":"10","school":"sexto"},{"start_time":1551887741051,"click_time":1551887742416,"finger_time":1551887741997,"fix_duration":254.2555547104416,"trial":34,"RT":946,"MT":419,"sideResp":1,"stimulus":"img/900/equaldotsize/L/2_Ratio_900_L_20_R_18.png","xmouse":[755,755,755,755,755,755,755,755,755,755,755,755,755,755,755,755,755,755,755,755,755,755,755,755,755,755,755,755,755,755,755,755,755,755,755,755,755,755,755,755,755,755,755,755,755,755,754,729,693,654,619,597,573,565,561,558,558,558,558,558,558,558,558,558,558,558,558,558,512],"ymouse":[525,525,525,525,525,525,525,525,525,525,525,525,525,525,525,525,525,525,525,525,525,525,525,525,525,525,525,525,525,525,525,525,525,525,525,525,525,525,525,525,525,525,525,525,525,525,521,423,321,230,166,133,99,81,50,24,24,24,24,24,24,24,24,24,24,24,24,24,18],"timestamp_mouse":[9,39,45,66,85,106,126,146,165,185,206,226,246,265,285,305,326,345,366,385,405,425,445,466,485,506,525,545,565,585,605,625,645,666,686,706,726,745,766,786,805,826,845,866,885,905,925,946,964,985,1005,1025,1045,1065,1085,1105,1126,1145,1166,1185,1206,1225,1245,1266,1285,1306,1326,1345,1365],"xSR":741.5,"ySR":469.95,"xT1":424.9,"yT1":0,"xT2":1058.1,"yT2":0,"toosoon":0,"cond_shown":"equaldotsize","ratio_trial":900,"smaller_num":"18","larger_num":"20","correct_side":1,"subjID":"SaraMayorgaVilla17","gender":"1","age":"10","school":"sexto"},{"start_time":1551887744172,"click_time":1551887745177,"finger_time":1551887744996,"fix_duration":913.1568195194125,"trial":35,"RT":824,"MT":181,"sideResp":2,"stimulus":"img/900/equaldotanddens/R/14_Ratio_900_L_18_R_20.png","xmouse":[806,806,806,806,806,806,806,806,806,806,806,806,806,806,806,806,806,806,806,806,806,806,806,806,806,806,806,806,806,806,806,806,806,806,806,806,807,810,816,827,839,850,907,918,941,965,1011,1030,1048,1062,1076],"ymouse":[542,542,542,542,542,542,542,542,542,542,542,542,542,542,542,542,542,542,542,542,542,542,542,542,542,542,542,542,542,542,542,542,542,542,542,542,542,537,528,512,497,475,374,348,310,273,191,157,127,103,80],"timestamp_mouse":[8,25,49,64,84,104,125,144,164,184,204,224,244,264,284,304,325,344,365,384,405,424,444,465,484,504,525,544,564,584,605,624,644,664,684,704,725,744,764,784,804,824,849,865,885,904,925,945,964,985,1005],"xSR":741.5,"ySR":469.95,"xT1":424.9,"yT1":0,"xT2":1058.1,"yT2":0,"toosoon":0,"cond_shown":"equaldotanddens","ratio_trial":900,"smaller_num":"18","larger_num":"20","correct_side":2,"subjID":"SaraMayorgaVilla17","gender":"1","age":"10","school":"sexto"},{"start_time":1551887747084,"click_time":1551887748316,"finger_time":1551887747876,"fix_duration":566.9479634352231,"trial":36,"RT":792,"MT":440,"sideResp":2,"stimulus":"img/250/randomdotsizeEA/R/4_Ratio_250_L_3_R_12.png","xmouse":[814,814,814,814,814,814,814,814,814,814,814,814,814,814,814,814,814,814,814,814,814,814,814,814,814,814,814,814,814,814,815,818,819,821,822,823,823,825,834,845,876,897,923,949,980,1004,1007,1010,1015,1019,1030,1041,1053,1067,1076,1089,1090,1092,1096,1104,1126,1139],"ymouse":[523,523,523,523,523,523,523,523,523,523,523,523,523,523,523,523,523,523,523,523,523,523,523,523,523,523,523,523,523,523,518,510,505,501,498,497,497,494,489,483,453,427,394,358,313,282,277,273,269,264,250,235,219,199,183,166,165,161,155,145,113,94],"timestamp_mouse":[12,32,61,73,92,112,132,152,172,192,213,232,253,273,292,312,333,352,372,392,413,432,452,473,492,512,533,552,572,592,612,632,652,672,692,712,733,753,772,792,812,831,852,872,893,912,933,952,972,993,1012,1031,1052,1073,1093,1112,1132,1152,1172,1192,1212,1231],"xSR":741.5,"ySR":469.95,"xT1":424.9,"yT1":0,"xT2":1058.1,"yT2":0,"toosoon":0,"cond_shown":"randomdotsizeEA","ratio_trial":250,"smaller_num":"3","larger_num":"12","correct_side":2,"subjID":"SaraMayorgaVilla17","gender":"1","age":"10","school":"sexto"},{"start_time":1551887750263,"click_time":1551887751577,"finger_time":1551887751096,"fix_duration":404.99366681310613,"trial":37,"RT":833,"MT":481,"sideResp":2,"stimulus":"img/500/equaldotanddens/R/15_Ratio_500_L_1_R_2.png","xmouse":[790,790,790,790,790,790,790,790,790,790,790,790,790,790,790,790,790,790,790,790,790,790,790,790,790,790,790,790,790,790,790,790,790,790,790,790,790,790,790,790,790,788,787,787,787,787,793,805,818,832,851,884,895,902,907,916,934,939,948,954,962,988,1004,1027,1052,1072],"ymouse":[501,501,501,501,501,501,501,501,501,501,501,501,501,501,501,501,501,501,501,501,501,501,501,501,501,501,501,501,501,501,501,501,501,501,501,501,501,501,501,493,486,467,465,465,465,465,456,441,429,419,406,361,343,323,306,282,242,232,216,207,197,166,147,126,108,97],"timestamp_mouse":[13,34,53,73,93,113,133,153,173,194,214,233,253,273,293,313,333,353,374,393,413,433,454,473,494,513,533,553,573,593,613,634,653,674,693,714,733,753,774,793,814,833,853,873,894,914,934,953,973,993,1013,1033,1053,1073,1094,1113,1133,1153,1173,1193,1213,1233,1253,1273,1293,1314],"xSR":741.5,"ySR":469.95,"xT1":424.9,"yT1":0,"xT2":1058.1,"yT2":0,"toosoon":0,"cond_shown":"equaldotanddens","ratio_trial":500,"smaller_num":"1","larger_num":"2","correct_side":2,"subjID":"SaraMayorgaVilla17","gender":"1","age":"10","school":"sexto"},{"start_time":1551887753308,"click_time":1551887754436,"finger_time":1551887753996,"fix_duration":250,"trial":38,"RT":688,"MT":440,"sideResp":1,"stimulus":"img/900/equaldotsize/L/1_Ratio_900_L_10_R_9.png","xmouse":[802,802,802,802,802,802,802,802,802,802,802,802,802,802,802,802,802,802,802,802,802,802,802,802,802,802,802,802,802,802,802,802,801,800,785,775,766,756,745,715,684,645,607,586,579,579,579,579,579,579,579,579,579,578,560,541,518],"ymouse":[523,523,523,523,523,523,523,523,523,523,523,523,523,523,523,523,523,523,523,523,523,523,523,523,523,523,523,523,523,523,523,523,521,507,400,369,345,324,303,259,224,187,160,144,139,139,139,139,139,139,139,139,138,138,110,91,73],"timestamp_mouse":[15,37,48,69,88,108,128,148,168,188,209,228,248,268,288,308,328,348,369,388,409,429,448,468,488,508,528,548,568,588,608,628,648,668,688,708,728,748,768,788,809,828,849,868,888,908,928,949,969,988,1008,1028,1048,1069,1089,1109,1128],"xSR":741.5,"ySR":469.95,"xT1":424.9,"yT1":0,"xT2":1058.1,"yT2":0,"toosoon":0,"cond_shown":"equaldotsize","ratio_trial":900,"smaller_num":"9","larger_num":"10","correct_side":1,"subjID":"SaraMayorgaVilla17","gender":"1","age":"10","school":"sexto"},{"start_time":1551887757813,"click_time":1551887759496,"finger_time":1551887758717,"fix_duration":1475.5902426938978,"trial":39,"RT":904,"MT":779,"sideResp":1,"stimulus":"img/900/equaldotanddens/L/2_Ratio_900_L_20_R_18.png","xmouse":[780,780,780,780,780,780,780,780,780,780,780,780,780,780,780,780,780,780,780,780,780,780,780,780,780,780,780,780,780,780,780,780,780,780,780,780,780,780,780,780,780,780,780,780,780,779,779,777,776,762,751,736,714,696,667,637,604,581,562,542,533,528,528,528,528,528,528,528,528,528,528,528,528,528,528,528,528,528,528,528,528,528,528,526,506],"ymouse":[506,506,506,506,506,506,506,506,506,506,506,506,506,506,506,506,506,506,506,506,506,506,506,506,506,506,506,506,506,506,506,506,506,506,506,506,506,506,506,506,506,506,506,499,475,465,462,457,454,422,404,380,347,314,230,184,135,104,79,58,51,48,48,48,48,48,48,48,48,48,48,48,48,48,48,48,48,48,48,48,48,48,48,49,70],"timestamp_mouse":[10,31,43,63,84,103,123,143,163,184,203,224,245,263,283,302,323,343,363,383,403,423,444,463,483,503,523,544,564,583,603,623,644,663,684,703,723,743,763,783,804,823,843,863,883,904,923,943,963,983,1003,1023,1043,1064,1083,1103,1123,1143,1163,1183,1203,1223,1243,1263,1284,1304,1323,1344,1365,1384,1403,1424,1443,1463,1483,1503,1523,1543,1564,1584,1604,1623,1643,1664,1683],"xSR":741.5,"ySR":469.95,"xT1":424.9,"yT1":0,"xT2":1058.1,"yT2":0,"toosoon":0,"cond_shown":"equaldotanddens","ratio_trial":900,"smaller_num":"18","larger_num":"20","correct_side":1,"subjID":"SaraMayorgaVilla17","gender":"1","age":"10","school":"sexto"},{"start_time":1551887762436,"click_time":1551887763697,"finger_time":1551887763195,"fix_duration":1479.8113757293681,"trial":40,"RT":759,"MT":502,"sideResp":2,"stimulus":"img/250/randomdotsizeEA/R/8_Ratio_250_L_1_R_4.png","xmouse":[765,765,765,765,765,765,765,765,765,765,765,765,765,765,765,765,765,765,765,765,765,765,765,765,765,765,765,765,765,765,765,765,765,765,765,765,765,766,779,804,841,881,926,954,954,954,954,954,954,954,954,954,954,954,954,954,954,954,954,954,1047,1049,1053,1061],"ymouse":[488,488,488,488,488,488,488,488,488,488,488,488,488,488,488,488,488,488,488,488,488,488,488,488,488,488,488,488,488,488,488,488,488,488,488,488,488,489,456,390,299,197,87,0,0,0,0,0,0,0,0,0,0,0,0,0,0,0,0,0,1,12,24,40],"timestamp_mouse":[8,20,47,61,81,101,120,140,161,181,200,220,241,261,280,300,320,340,361,381,400,420,441,460,481,500,521,541,561,580,601,621,640,660,681,701,721,740,759,780,800,821,840,861,881,901,920,940,961,980,1000,1020,1040,1061,1080,1100,1120,1141,1160,1180,1200,1220,1241,1261],"xSR":741.5,"ySR":469.95,"xT1":424.9,"yT1":0,"xT2":1058.1,"yT2":0,"toosoon":0,"cond_shown":"randomdotsizeEA","ratio_trial":250,"smaller_num":"1","larger_num":"4","correct_side":2,"subjID":"SaraMayorgaVilla17","gender":"1","age":"10","school":"sexto"},{"start_time":1551887765878,"click_time":1551887767776,"finger_time":1551887766756,"fix_duration":400.0381104058843,"trial":41,"RT":878,"MT":1020,"sideResp":1,"stimulus":"img/900/randomdotsizeEA/R/9_Ratio_900_L_18_R_20.png","xmouse":[817,817,817,817,817,817,817,817,817,817,817,817,817,817,817,817,817,817,817,817,817,817,817,817,817,817,817,817,817,817,817,817,817,817,817,817,817,817,817,817,817,816,814,811,807,802,801,799,799,799,802,807,812,818,827,866,895,920,941,952,957,957,957,957,957,936,917,895,873,852,821,801,786,774,760,723,711,698,688,675,638,622,613,602,597,589,586,580,574,568,555,546,536,525,511],"ymouse":[490,490,490,490,490,490,490,490,490,490,490,490,490,490,490,490,490,490,490,490,490,490,490,490,490,490,490,490,490,490,490,490,490,490,490,490,490,490,490,490,490,486,480,469,459,435,427,417,409,402,387,380,373,367,359,326,292,253,214,192,175,175,175,175,174,172,167,161,155,149,143,140,139,138,138,138,138,136,133,129,119,114,111,109,109,107,105,103,100,99,95,94,92,90,85],"timestamp_mouse":[18,39,65,78,99,118,138,159,178,199,219,238,259,279,298,319,339,359,379,399,419,438,458,478,498,518,538,558,578,598,619,638,658,678,698,718,738,758,778,798,818,838,859,878,898,918,939,958,978,999,1018,1039,1058,1079,1098,1118,1138,1159,1178,1198,1218,1238,1259,1278,1299,1318,1338,1358,1379,1399,1418,1439,1458,1479,1499,1519,1538,1558,1578,1599,1618,1639,1658,1678,1699,1717,1738,1758,1779,1799,1818,1839,1858,1879,1898],"xSR":741.5,"ySR":469.95,"xT1":424.9,"yT1":0,"xT2":1058.1,"yT2":0,"toosoon":0,"cond_shown":"randomdotsizeEA","ratio_trial":900,"smaller_num":"18","larger_num":"20","correct_side":2,"subjID":"SaraMayorgaVilla17","gender":"1","age":"10","school":"sexto"},{"start_time":1551887771088,"click_time":1551887772196,"finger_time":1551887771777,"fix_duration":1291.8990957796643,"trial":42,"RT":689,"MT":419,"sideResp":1,"stimulus":"img/250/randomdotsizeEA/L/3_Ratio_250_L_8_R_2.png","xmouse":[811,811,811,811,811,809,809,809,809,809,809,809,809,809,809,809,809,809,809,809,809,809,809,809,809,809,809,809,809,809,808,807,804,801,793,752,738,728,716,703,680,667,655,642,634,630,630,629,628,623,600,586,562,543,532,522],"ymouse":[526,526,526,526,526,526,526,526,526,526,526,526,526,526,526,526,526,526,526,526,526,526,526,526,526,526,526,526,526,526,526,515,500,480,455,379,357,337,316,295,264,251,236,224,219,218,218,218,218,214,178,152,114,89,72,60],"timestamp_mouse":[9,41,48,68,89,109,128,149,168,188,208,228,248,268,289,308,328,349,368,389,408,428,448,468,488,508,529,548,568,588,608,629,648,668,689,708,729,748,768,788,808,829,848,868,889,908,928,948,968,988,1008,1028,1049,1068,1088,1108],"xSR":741.5,"ySR":469.95,"xT1":424.9,"yT1":0,"xT2":1058.1,"yT2":0,"toosoon":0,"cond_shown":"randomdotsizeEA","ratio_trial":250,"smaller_num":"2","larger_num":"8","correct_side":1,"subjID":"SaraMayorgaVilla17","gender":"1","age":"10","school":"sexto"},{"start_time":1551887774200,"click_time":1551887775358,"finger_time":1551887774916,"fix_duration":762.1103708060592,"trial":43,"RT":716,"MT":442,"sideResp":1,"stimulus":"img/750/equaldotsize/L/1_Ratio_750_L_20_R_15.png","xmouse":[806,806,806,806,806,806,806,806,806,806,806,806,806,806,806,806,806,806,806,806,806,806,806,806,806,806,806,806,806,806,806,806,806,806,804,799,793,787,783,767,759,750,736,722,679,643,621,609,602,578,570,557,546,535,503,489,478,470],"ymouse":[530,530,530,530,530,530,530,530,530,530,530,530,530,530,530,530,530,530,530,530,530,530,530,530,530,530,530,530,530,530,530,530,524,516,477,462,447,434,421,386,371,358,344,334,308,282,265,250,237,208,198,188,178,166,131,114,103,98],"timestamp_mouse":[16,36,57,77,97,117,136,157,177,198,216,236,257,276,297,316,336,356,376,397,416,437,456,476,496,516,537,556,576,596,616,637,656,676,696,716,736,756,776,796,816,836,856,877,896,916,936,956,976,997,1016,1036,1056,1077,1096,1116,1136,1157],"xSR":741.5,"ySR":469.95,"xT1":424.9,"yT1":0,"xT2":1058.1,"yT2":0,"toosoon":0,"cond_shown":"equaldotsize","ratio_trial":750,"smaller_num":"15","larger_num":"20","correct_side":1,"subjID":"SaraMayorgaVilla17","gender":"1","age":"10","school":"sexto"},{"start_time":1551887777275,"click_time":1551887778437,"finger_time":1551887778016,"fix_duration":376.0981175141447,"trial":44,"RT":741,"MT":421,"sideResp":2,"stimulus":"img/250/randomdotsizeEA/R/12_Ratio_250_L_5_R_20.png","xmouse":[798,798,798,798,798,798,798,798,798,798,798,798,798,798,798,798,798,798,798,798,798,798,798,798,798,798,798,798,798,798,798,798,798,798,798,802,839,867,902,941,998,1051,1054,1055,1055,1055,1059,1063,1065,1070,1075,1078,1078,1078,1078,1078,1078,1078,1078],"ymouse":[518,518,518,518,518,518,518,518,518,518,518,518,518,518,518,518,518,518,518,518,518,518,518,518,518,518,518,518,518,518,518,518,518,518,519,518,484,449,396,327,251,189,186,185,185,185,180,171,164,152,138,120,117,117,117,117,108,101,94],"timestamp_mouse":[8,36,41,62,81,101,121,141,161,181,201,221,241,261,281,301,321,341,362,382,401,421,441,461,482,503,521,541,561,581,601,621,641,661,681,701,721,741,761,782,803,821,842,862,881,902,921,941,961,981,1001,1021,1042,1061,1081,1102,1121,1141,1161],"xSR":741.5,"ySR":469.95,"xT1":424.9,"yT1":0,"xT2":1058.1,"yT2":0,"toosoon":0,"cond_shown":"randomdotsizeEA","ratio_trial":250,"smaller_num":"5","larger_num":"20","correct_side":2,"subjID":"SaraMayorgaVilla17","gender":"1","age":"10","school":"sexto"},{"start_time":1551887783550,"click_time":1551887786177,"finger_time":1551887784616,"fix_duration":1231.0994380232905,"trial":45,"RT":1066,"MT":1561,"sideResp":1,"stimulus":"img/750/equaldotanddens/L/10_Ratio_750_L_4_R_3.png","xmouse":[803,803,803,803,803,803,803,803,803,803,803,803,803,803,803,803,803,803,803,803,803,803,803,803,803,803,803,803,803,803,803,803,803,803,803,803,803,803,803,803,803,803,803,803,803,803,803,803,803,803,803,802,777,757,731,712,698,687,687,687,687,687,687,687,687,687,687,687,687,687,687,687,687,687,687,687,687,687,687,687,687,687,687,687,687,687,687,687,687,687,687,687,687,687,687,687,687,684,675,669,662,657,651,648,644,639,632,610,600,593,588,584,575,570,565,559,551,536,527,520,512,505,493,492,492,492,492,490,487,482,475,468],"ymouse":[524,524,524,524,524,524,524,524,524,524,524,524,524,524,524,524,524,524,524,524,524,524,524,524,524,524,524,524,524,524,524,524,524,524,524,524,524,524,524,524,524,524,524,524,524,524,524,524,524,524,524,523,482,456,428,406,390,374,374,374,374,374,374,374,374,374,374,374,374,374,374,374,374,374,374,374,374,374,374,374,374,374,374,374,374,374,374,374,374,374,374,374,374,374,374,374,371,362,348,340,332,325,316,312,307,301,293,271,258,251,246,241,233,232,230,229,225,217,210,201,189,179,150,143,140,139,138,134,127,118,107,91],"timestamp_mouse":[8,27,59,66,86,106,126,146,167,186,206,227,246,266,286,306,327,346,366,386,406,427,446,466,486,506,526,546,567,586,606,626,646,666,686,706,726,746,766,786,806,826,846,866,886,906,926,946,966,986,1007,1027,1046,1066,1086,1106,1126,1146,1166,1186,1206,1227,1246,1266,1287,1306,1326,1347,1366,1386,1407,1426,1447,1467,1487,1506,1527,1547,1566,1586,1606,1627,1647,1667,1687,1706,1727,1747,1766,1787,1806,1826,1847,1867,1887,1906,1926,1947,1966,1986,2006,2026,2047,2067,2086,2107,2126,2146,2166,2186,2207,2226,2246,2267,2286,2306,2327,2347,2366,2385,2407,2427,2446,2466,2487,2506,2527,2546,2567,2586,2607,2626],"xSR":741.5,"ySR":469.95,"xT1":424.9,"yT1":0,"xT2":1058.1,"yT2":0,"toosoon":0,"cond_shown":"equaldotanddens","ratio_trial":750,"smaller_num":"3","larger_num":"4","correct_side":1,"subjID":"SaraMayorgaVilla17","gender":"1","age":"10","school":"sexto"},{"start_time":1551887788987,"click_time":1551887791637,"finger_time":1551887789002,"fix_duration":1288.3227983863708,"trial":46,"RT":15,"MT":2635,"sideResp":2,"stimulus":"img/750/equaldotsize/R/15_Ratio_750_L_9_R_12.png","xmouse":[725,725,725,725,727,733,734,735,736,737,747,754,757,760,760,760,760,760,761,762,771,775,776,776,776,776,776,776,776,777,777,778,778,778,778,778,779,781,784,793,798,798,798,798,798,798,798,798,798,798,798,798,798,798,798,798,798,798,798,798,798,798,798,798,798,798,798,798,798,798,798,798,798,798,798,798,798,798,798,798,798,798,798,798,798,798,798,798,798,798,796,790,784,781,780,780,780,780,780,780,780,780,780,780,780,787,790,791,792,796,823,838,857,880,897,927,935,942,947,952,956,958,959,961,966,982,994,1008,1019,1035,1046,1053,1062],"ymouse":[455,455,455,455,455,456,456,457,458,458,467,474,477,479,479,479,479,479,479,479,483,484,484,484,484,484,484,485,485,486,486,486,486,486,486,486,487,491,496,508,516,516,516,516,516,516,516,516,516,516,516,516,518,519,522,525,526,526,526,526,526,526,526,526,526,526,526,526,526,526,526,526,526,526,526,526,526,526,526,526,526,526,526,523,515,508,508,508,508,508,507,506,505,505,505,505,505,505,505,505,505,505,505,505,504,504,504,504,504,500,468,449,420,363,304,230,214,198,187,174,160,157,155,154,152,148,144,139,134,126,115,107,96],"timestamp_mouse":[15,29,49,69,90,109,129,149,168,189,209,229,249,269,289,310,329,349,369,389,409,430,449,470,490,509,530,549,569,589,610,630,649,669,689,710,729,749,769,790,809,831,849,870,890,909,930,950,969,990,1010,1030,1049,1069,1089,1109,1129,1149,1169,1189,1209,1229,1250,1269,1290,1309,1329,1349,1370,1389,1409,1429,1449,1470,1490,1509,1530,1549,1569,1589,1609,1629,1650,1670,1689,1709,1729,1749,1769,1789,1809,1829,1849,1870,1890,1909,1930,1950,1969,1989,2009,2029,2049,2070,2089,2108,2129,2149,2169,2190,2209,2229,2249,2270,2290,2310,2330,2349,2369,2389,2409,2429,2449,2469,2490,2509,2530,2549,2569,2589,2610,2631,2649],"xSR":741.5,"ySR":469.95,"xT1":424.9,"yT1":0,"xT2":1058.1,"yT2":0,"toosoon":0,"cond_shown":"equaldotsize","ratio_trial":750,"smaller_num":"9","larger_num":"12","correct_side":2,"subjID":"SaraMayorgaVilla17","gender":"1","age":"10","school":"sexto"},{"start_time":1551887793745,"click_time":1551887795036,"finger_time":1551887794596,"fix_duration":746.8030685717067,"trial":47,"RT":851,"MT":440,"sideResp":2,"stimulus":"img/500/randomdotsizeEA/R/3_Ratio_500_L_10_R_20.png","xmouse":[796,796,796,796,796,796,796,796,796,796,796,796,796,796,796,796,796,796,796,796,796,796,796,796,796,796,796,796,796,796,796,796,796,796,796,796,796,796,796,804,810,824,852,865,879,893,907,936,947,953,959,964,974,978,981,982,984,988,991,996,1002,1013,1032,1045,1061],"ymouse":[548,548,548,548,548,548,548,548,548,548,548,548,548,548,548,548,548,548,548,548,548,548,548,548,548,548,548,548,548,548,548,548,548,548,548,548,548,548,548,544,540,528,487,467,449,432,415,374,359,349,336,320,286,275,262,251,239,212,202,189,176,155,131,118,96],"timestamp_mouse":[11,31,51,71,91,112,132,151,172,191,211,231,252,272,291,311,332,352,371,392,411,431,451,471,492,511,532,552,571,591,612,632,651,672,692,711,731,752,771,791,811,832,850,871,891,911,931,951,971,991,1011,1031,1051,1072,1091,1111,1131,1151,1171,1191,1211,1232,1251,1271,1291],"xSR":741.5,"ySR":469.95,"xT1":424.9,"yT1":0,"xT2":1058.1,"yT2":0,"toosoon":0,"cond_shown":"randomdotsizeEA","ratio_trial":500,"smaller_num":"10","larger_num":"20","correct_side":2,"subjID":"SaraMayorgaVilla17","gender":"1","age":"10","school":"sexto"},{"start_time":1551887796994,"click_time":1551887798318,"finger_time":1551887797776,"fix_duration":857.3066380228306,"trial":48,"RT":782,"MT":542,"sideResp":2,"stimulus":"img/750/randomdotsizeEA/R/5_Ratio_750_L_15_R_20.png","xmouse":[816,816,816,816,816,816,816,816,816,816,816,816,816,816,816,816,816,816,816,816,816,816,816,816,816,816,816,816,816,816,816,816,816,816,816,816,815,817,826,841,854,859,867,872,879,887,890,897,910,914,942,948,951,951,951,953,957,963,972,982,1007,1017,1028,1036,1043,1057,1064],"ymouse":[495,495,495,495,495,495,495,495,495,495,495,495,495,495,495,495,495,495,495,495,495,495,495,495,495,495,495,495,495,495,495,495,495,495,495,495,495,490,473,447,418,407,388,367,353,340,333,322,293,282,230,219,215,214,214,210,206,200,189,175,142,132,123,117,110,93,85],"timestamp_mouse":[11,24,42,62,82,102,122,143,162,182,202,223,242,263,282,303,322,342,362,383,402,423,442,462,482,503,522,543,563,584,603,624,644,663,683,703,722,744,762,782,803,823,843,863,884,903,923,944,963,983,1003,1023,1043,1063,1083,1103,1124,1144,1162,1183,1203,1223,1243,1262,1283,1303,1324],"xSR":741.5,"ySR":469.95,"xT1":424.9,"yT1":0,"xT2":1058.1,"yT2":0,"toosoon":0,"cond_shown":"randomdotsizeEA","ratio_trial":750,"smaller_num":"15","larger_num":"20","correct_side":2,"subjID":"SaraMayorgaVilla17","gender":"1","age":"10","school":"sexto"},{"start_time":1551887800416,"click_time":1551887801497,"finger_time":1551887801237,"fix_duration":935.6168116477847,"trial":49,"RT":821,"MT":260,"sideResp":1,"stimulus":"img/750/equaldotanddens/L/13_Ratio_750_L_8_R_6.png","xmouse":[809,809,809,809,809,809,809,809,809,809,809,809,809,809,809,809,809,809,809,809,809,809,809,809,809,809,809,809,809,809,809,809,809,809,809,809,809,809,809,809,796,752,685,609,470,434,420,417,416,415,415,416,418,420,426],"ymouse":[518,518,518,518,518,518,518,518,518,518,518,518,518,518,518,518,518,518,518,518,518,518,518,518,518,518,518,518,518,518,518,518,518,518,518,518,518,518,518,518,486,421,348,278,142,101,80,67,62,53,52,50,47,45,42],"timestamp_mouse":[8,37,41,62,81,102,120,141,162,180,201,222,240,262,282,300,321,341,360,381,401,420,442,460,480,502,522,542,561,581,600,622,641,661,681,701,721,742,760,781,801,821,840,861,880,900,921,941,960,982,1001,1021,1041,1062,1081],"xSR":741.5,"ySR":469.95,"xT1":424.9,"yT1":0,"xT2":1058.1,"yT2":0,"toosoon":0,"cond_shown":"equaldotanddens","ratio_trial":750,"smaller_num":"6","larger_num":"8","correct_side":1,"subjID":"SaraMayorgaVilla17","gender":"1","age":"10","school":"sexto"},{"start_time":1551887807812,"click_time":1551887809717,"finger_time":1551887808676,"fix_duration":713.7646462187614,"trial":50,"RT":864,"MT":1041,"sideResp":2,"stimulus":"img/900/equaldotsize/R/6_Ratio_900_L_9_R_10.png","xmouse":[806,806,806,806,806,806,806,806,806,806,806,806,806,806,806,806,806,806,806,806,806,806,806,806,806,806,806,806,806,806,806,806,806,806,806,806,806,807,808,809,809,810,810,810,810,804,796,782,765,726,720,719,719,719,719,719,720,720,720,722,723,725,728,730,745,754,767,782,791,808,814,818,821,824,831,838,844,850,855,866,869,872,873,875,879,882,889,899,915,968,983,996,1008,1020,1053,1074],"ymouse":[497,497,497,497,497,497,497,497,497,497,497,497,497,497,497,497,497,497,497,497,497,497,497,497,497,497,497,497,497,497,497,497,497,497,497,497,497,494,490,483,481,477,471,467,449,434,414,393,370,330,324,323,323,323,323,321,317,316,315,314,312,310,307,305,301,296,290,282,276,266,261,257,251,247,233,225,217,211,205,196,193,190,188,185,181,176,170,163,156,142,139,133,129,122,102,87],"timestamp_mouse":[8,31,46,66,84,105,126,145,166,184,205,226,244,266,285,304,325,345,365,385,406,424,445,466,484,504,525,544,566,584,604,624,645,665,686,705,726,745,765,784,805,825,845,864,885,906,924,945,966,985,1006,1025,1045,1065,1085,1106,1125,1144,1164,1186,1206,1225,1245,1265,1285,1304,1325,1345,1366,1384,1405,1425,1445,1466,1485,1504,1525,1545,1564,1585,1605,1626,1645,1665,1684,1705,1725,1745,1766,1785,1806,1825,1845,1865,1885,1905],"xSR":741.5,"ySR":469.95,"xT1":424.9,"yT1":0,"xT2":1058.1,"yT2":0,"toosoon":0,"cond_shown":"equaldotsize","ratio_trial":900,"smaller_num":"9","larger_num":"10","correct_side":2,"subjID":"SaraMayorgaVilla17","gender":"1","age":"10","school":"sexto"},{"start_time":1551887811542,"click_time":1551887812657,"finger_time":1551887812218,"fix_duration":624.443787079666,"trial":51,"RT":676,"MT":439,"sideResp":2,"stimulus":"img/250/equaldotsize/R/12_Ratio_250_L_5_R_20.png","xmouse":[805,805,805,805,805,805,805,805,805,805,805,805,805,805,805,805,805,805,805,805,805,805,805,805,805,805,805,805,805,805,807,811,820,849,857,867,877,908,926,945,959,969,992,1004,1013,1025,1031,1040,1042,1044,1048,1052,1067,1073,1077,1081],"ymouse":[562,562,562,562,562,562,562,562,562,562,562,562,562,562,562,562,562,562,562,562,562,562,562,562,562,562,562,562,562,562,558,553,547,531,523,506,487,439,415,385,361,338,296,273,254,238,226,203,192,184,174,160,122,109,100,91],"timestamp_mouse":[15,39,56,74,96,115,136,154,174,195,216,236,255,275,296,315,334,355,375,395,415,435,455,474,494,516,535,554,575,595,616,635,655,676,695,715,735,755,776,794,815,835,855,875,895,915,935,955,976,995,1015,1036,1055,1074,1095,1115],"xSR":741.5,"ySR":469.95,"xT1":424.9,"yT1":0,"xT2":1058.1,"yT2":0,"toosoon":0,"cond_shown":"equaldotsize","ratio_trial":250,"smaller_num":"5","larger_num":"20","correct_side":2,"subjID":"SaraMayorgaVilla17","gender":"1","age":"10","school":"sexto"},{"start_time":1551887815239,"click_time":1551887816197,"finger_time":1551887815918,"fix_duration":1379.3170397269594,"trial":52,"RT":679,"MT":279,"sideResp":1,"stimulus":"img/250/equaldotsize/L/7_Ratio_250_L_8_R_2.png","xmouse":[807,807,807,807,807,807,807,807,807,807,807,807,807,807,807,807,807,807,807,807,807,807,807,807,807,807,807,807,807,807,807,807,795,773,741,701,654,587,578,574,572,570,568,564,558,548,537,507],"ymouse":[509,509,509,509,509,509,509,509,509,509,509,509,509,509,509,509,509,509,509,509,509,509,509,509,509,509,509,509,509,509,509,509,487,438,367,286,213,122,110,106,104,102,100,96,87,78,67,46],"timestamp_mouse":[22,48,58,78,98,118,138,159,179,198,217,239,258,277,298,317,337,359,378,398,418,439,459,478,498,517,539,558,579,598,618,638,657,679,698,719,738,758,778,798,819,838,857,877,898,919,938,958],"xSR":741.5,"ySR":469.95,"xT1":424.9,"yT1":0,"xT2":1058.1,"yT2":0,"toosoon":0,"cond_shown":"equaldotsize","ratio_trial":250,"smaller_num":"2","larger_num":"8","correct_side":1,"subjID":"SaraMayorgaVilla17","gender":"1","age":"10","school":"sexto"},{"start_time":1551887819256,"click_time":1551887820537,"finger_time":1551887819917,"fix_duration":1416.7591521358706,"trial":53,"RT":661,"MT":620,"sideResp":2,"stimulus":"img/500/randomdotsizeEA/R/9_Ratio_500_L_2_R_4.png","xmouse":[756,756,756,756,756,756,756,756,756,756,756,756,756,756,756,756,756,756,756,756,756,756,756,756,756,756,756,756,756,756,759,766,788,804,819,833,844,886,902,916,925,936,956,967,973,978,981,984,984,984,985,985,985,987,994,1002,1012,1020,1027,1028,1030,1033,1045,1055,1069],"ymouse":[504,504,504,504,504,504,504,504,504,504,504,504,504,504,504,504,504,504,504,504,504,504,504,504,504,504,504,504,504,504,501,495,474,463,451,439,424,348,315,285,262,238,191,173,157,147,139,131,128,128,127,127,127,124,116,109,101,94,88,87,85,83,73,62,45],"timestamp_mouse":[8,21,41,62,80,101,121,140,160,182,202,222,241,261,282,301,322,341,360,380,402,420,441,462,480,502,522,541,562,580,601,622,640,661,681,701,722,741,760,782,801,821,841,860,880,901,921,941,961,980,1000,1020,1041,1061,1081,1102,1122,1141,1161,1181,1200,1221,1240,1261,1281],"xSR":741.5,"ySR":469.95,"xT1":424.9,"yT1":0,"xT2":1058.1,"yT2":0,"toosoon":0,"cond_shown":"randomdotsizeEA","ratio_trial":500,"smaller_num":"2","larger_num":"4","correct_side":2,"subjID":"SaraMayorgaVilla17","gender":"1","age":"10","school":"sexto"},{"start_time":1551887823279,"click_time":1551887824377,"finger_time":1551887823957,"fix_duration":1481.274944530636,"trial":54,"RT":678,"MT":420,"sideResp":1,"stimulus":"img/250/randomdotsizeEA/L/5_Ratio_250_L_24_R_6.png","xmouse":[784,784,784,784,784,784,784,784,784,784,784,784,784,784,784,784,784,784,784,784,784,784,784,784,784,784,784,784,784,784,784,784,784,781,770,733,718,705,694,685,665,656,648,641,635,630,629,626,626,621,592,571,548,530,509],"ymouse":[501,501,501,501,501,501,501,501,501,501,501,501,501,501,501,501,501,501,501,501,501,501,501,501,501,501,501,501,501,501,501,498,489,444,401,326,303,283,264,246,197,177,161,148,140,135,135,134,133,130,109,96,83,70,59],"timestamp_mouse":[31,38,59,79,98,118,138,159,178,198,219,238,257,278,298,318,337,358,378,398,419,437,458,478,497,518,537,557,578,599,617,637,658,678,705,718,738,758,779,798,818,838,858,878,898,918,938,958,978,998,1018,1039,1058,1078,1098],"xSR":741.5,"ySR":469.95,"xT1":424.9,"yT1":0,"xT2":1058.1,"yT2":0,"toosoon":0,"cond_shown":"randomdotsizeEA","ratio_trial":250,"smaller_num":"6","larger_num":"24","correct_side":1,"subjID":"SaraMayorgaVilla17","gender":"1","age":"10","school":"sexto"},{"start_time":1551887825610,"click_time":1551887826557,"finger_time":1551887826416,"fix_duration":250,"trial":55,"RT":806,"MT":141,"sideResp":1,"stimulus":"img/750/equaldotanddens/L/13_Ratio_750_L_8_R_6.png","xmouse":[791,791,791,791,791,791,791,791,791,791,791,791,791,791,791,791,791,791,791,791,791,791,791,791,791,791,791,791,791,791,791,791,791,791,791,791,791,791,791,787,763,726,687,642,600,539,526,518],"ymouse":[523,523,523,523,523,523,523,523,523,523,523,523,523,523,523,523,523,523,523,523,523,523,523,523,523,523,523,523,523,523,523,523,523,523,523,523,523,523,523,504,452,384,307,230,162,68,50,40],"timestamp_mouse":[10,36,47,67,87,107,127,146,167,186,207,227,247,266,287,308,328,346,368,386,407,428,447,467,487,506,527,548,566,587,606,627,647,668,687,706,726,747,767,787,806,827,847,867,887,908,927,947],"xSR":741.5,"ySR":469.95,"xT1":424.9,"yT1":0,"xT2":1058.1,"yT2":0,"toosoon":0,"cond_shown":"equaldotanddens","ratio_trial":750,"smaller_num":"6","larger_num":"8","correct_side":1,"subjID":"SaraMayorgaVilla17","gender":"1","age":"10","school":"sexto"},{"start_time":1551887828841,"click_time":1551887830017,"finger_time":1551887829558,"fix_duration":900.3532728612728,"trial":56,"RT":717,"MT":459,"sideResp":1,"stimulus":"img/500/equaldotanddens/L/7_Ratio_500_L_10_R_5.png","xmouse":[764,764,764,764,764,764,764,764,764,764,764,764,764,764,764,764,764,764,764,764,764,764,764,764,764,764,764,764,764,764,764,764,764,764,764,761,740,719,713,707,697,682,624,587,574,574,574,574,574,574,574,574,574,574,574,574,574,574,515],"ymouse":[499,499,499,499,499,499,499,499,499,499,499,499,499,499,499,499,499,499,499,499,499,499,499,499,499,499,499,499,499,499,499,499,499,497,489,462,412,378,365,353,330,291,139,53,22,22,22,22,22,22,22,22,22,22,22,22,22,22,40],"timestamp_mouse":[16,37,59,77,97,116,135,157,176,197,217,235,256,276,296,316,337,356,376,396,416,435,456,476,496,516,536,556,576,595,617,635,655,676,696,717,737,756,776,796,815,836,856,876,897,916,937,956,977,995,1016,1036,1055,1077,1096,1117,1137,1157,1176],"xSR":741.5,"ySR":469.95,"xT1":424.9,"yT1":0,"xT2":1058.1,"yT2":0,"toosoon":0,"cond_shown":"equaldotanddens","ratio_trial":500,"smaller_num":"5","larger_num":"10","correct_side":1,"subjID":"SaraMayorgaVilla17","gender":"1","age":"10","school":"sexto"},{"start_time":1551887832209,"click_time":1551887833197,"finger_time":1551887832957,"fix_duration":1029.3790939417006,"trial":57,"RT":748,"MT":240,"sideResp":2,"stimulus":"img/900/equaldotanddens/R/5_Ratio_900_L_9_R_10.png","xmouse":[778,778,778,778,779,779,780,780,781,781,781,781,781,781,781,781,781,781,781,781,781,781,781,781,781,781,781,781,781,781,781,781,782,782,788,803,823,843,861,884,884,885,889,895,923,962,1006,1038,1066,1112],"ymouse":[540,540,540,537,534,533,531,530,529,527,527,527,527,527,527,527,527,527,527,527,527,527,527,527,527,527,527,527,527,527,527,526,526,526,521,513,500,485,471,452,451,450,446,441,410,358,288,229,179,98],"timestamp_mouse":[8,36,48,68,88,108,128,147,169,189,207,229,248,267,288,308,328,349,368,389,407,428,448,467,489,508,528,549,569,588,608,627,648,667,687,707,728,748,769,787,807,828,848,869,888,907,927,948,968,988],"xSR":741.5,"ySR":469.95,"xT1":424.9,"yT1":0,"xT2":1058.1,"yT2":0,"toosoon":0,"cond_shown":"equaldotanddens","ratio_trial":900,"smaller_num":"9","larger_num":"10","correct_side":2,"subjID":"SaraMayorgaVilla17","gender":"1","age":"10","school":"sexto"},{"start_time":1551887835507,"click_time":1551887837297,"finger_time":1551887836177,"fix_duration":808.0309777584873,"trial":58,"RT":670,"MT":1120,"sideResp":2,"stimulus":"img/750/equaldotsize/R/4_Ratio_750_L_15_R_20.png","xmouse":[818,818,818,818,818,816,812,808,808,808,808,808,808,808,808,808,808,808,808,808,808,808,808,808,808,808,808,808,808,808,807,814,824,837,875,891,909,924,933,944,954,962,972,987,1015,1021,1028,1038,1053,1081,1087,1089,1090,1091,1094,1094,1094,1094,1094,1094,1094,1094,1094,1094,1094,1094,1094,1094,1094,1094,1094,1094,1094,1094,1094,1094,1094,1094,1094,1094,1094,1094,1094,1094,1094,1094,1094,1095,1097,1112],"ymouse":[493,493,493,493,492,491,490,488,488,488,488,488,488,488,488,488,488,488,488,488,488,488,488,488,488,488,488,488,488,488,485,480,473,464,432,415,388,353,326,293,278,268,257,243,207,195,182,167,148,121,117,115,114,113,109,108,108,108,108,108,108,108,108,108,108,108,108,108,108,108,108,108,108,108,108,108,108,108,108,108,108,108,108,108,108,108,108,107,100,35],"timestamp_mouse":[9,37,50,71,90,111,131,150,170,189,210,231,251,271,290,310,330,349,369,390,410,429,450,470,490,510,530,551,570,589,610,630,651,670,690,710,730,750,770,790,811,829,850,871,890,910,930,951,970,990,1009,1029,1050,1070,1091,1111,1131,1150,1171,1191,1210,1231,1249,1271,1291,1310,1329,1349,1371,1390,1410,1431,1450,1469,1490,1509,1531,1550,1571,1590,1610,1631,1649,1670,1691,1710,1731,1750,1771,1790],"xSR":741.5,"ySR":469.95,"xT1":424.9,"yT1":0,"xT2":1058.1,"yT2":0,"toosoon":0,"cond_shown":"equaldotsize","ratio_trial":750,"smaller_num":"15","larger_num":"20","correct_side":2,"subjID":"SaraMayorgaVilla17","gender":"1","age":"10","school":"sexto"},{"start_time":1551887838725,"click_time":1551887839997,"finger_time":1551887839377,"fix_duration":386.4561447928623,"trial":59,"RT":652,"MT":620,"sideResp":1,"stimulus":"img/500/equaldotanddens/L/8_Ratio_500_L_8_R_4.png","xmouse":[770,770,770,770,770,770,770,770,770,770,770,770,770,770,770,770,770,770,770,770,770,770,770,770,770,770,770,770,770,770,769,769,759,728,722,719,717,716,711,709,704,697,689,676,668,656,641,623,585,566,551,542,539,539,539,539,539,539,539,537,534,529,525,516],"ymouse":[525,525,525,525,525,525,525,525,525,525,525,525,525,525,525,525,525,525,525,525,525,525,525,525,525,525,525,525,525,525,511,497,446,337,317,305,294,286,269,261,250,237,223,211,206,197,184,167,121,96,74,61,59,59,59,59,59,59,59,57,57,57,57,56],"timestamp_mouse":[14,44,52,71,92,113,133,152,171,193,213,233,252,273,291,312,332,352,372,392,412,433,452,471,491,513,531,552,571,593,612,632,652,672,692,711,732,752,772,793,812,831,851,872,893,912,932,953,972,993,1012,1032,1053,1072,1092,1112,1133,1153,1173,1193,1211,1232,1253,1272],"xSR":741.5,"ySR":469.95,"xT1":424.9,"yT1":0,"xT2":1058.1,"yT2":0,"toosoon":0,"cond_shown":"equaldotanddens","ratio_trial":500,"smaller_num":"4","larger_num":"8","correct_side":1,"subjID":"SaraMayorgaVilla17","gender":"1","age":"10","school":"sexto"},{"start_time":1551887841473,"click_time":1551887842558,"finger_time":1551887842117,"fix_duration":475.1979585550635,"trial":60,"RT":644,"MT":441,"sideResp":2,"stimulus":"img/250/equaldotanddens/R/13_Ratio_250_L_2_R_8.png","xmouse":[788,788,788,788,788,788,788,788,788,788,788,788,788,788,788,788,788,788,788,788,788,788,788,788,788,788,788,788,788,788,788,804,839,904,975,1052,1213,1221,1227,1229,1235,1235,1235,1235,1235,1235,1235,1235,1235,1235,1235,1235,1235,1164,1140],"ymouse":[495,495,495,495,495,495,495,495,495,495,495,495,495,495,495,495,495,495,495,495,495,495,495,495,495,495,495,495,495,495,494,483,457,415,361,283,42,25,16,12,0,0,0,0,0,0,0,0,0,0,0,0,0,27,47],"timestamp_mouse":[8,36,44,64,84,104,123,144,164,184,203,225,244,264,283,303,324,343,364,384,403,423,445,464,483,504,524,544,563,584,603,624,644,664,684,704,724,744,763,784,804,824,844,865,884,905,924,944,965,984,1005,1025,1043,1064,1085],"xSR":741.5,"ySR":469.95,"xT1":424.9,"yT1":0,"xT2":1058.1,"yT2":0,"toosoon":0,"cond_shown":"equaldotanddens","ratio_trial":250,"smaller_num":"2","larger_num":"8","correct_side":2,"subjID":"SaraMayorgaVilla17","gender":"1","age":"10","school":"sexto"},{"start_time":1551887844426,"click_time":1551887845338,"finger_time":1551887845037,"fix_duration":647.6650524868792,"trial":61,"RT":611,"MT":301,"sideResp":1,"stimulus":"img/900/randomdotsizeEA/R/11_Ratio_900_L_18_R_20.png","xmouse":[826,826,827,827,827,827,827,827,827,827,827,828,828,828,828,828,828,828,828,828,828,828,828,828,828,828,828,827,825,822,815,807,799,786,779,771,757,739,679,659,641,624,603,537,490,456],"ymouse":[527,526,525,525,525,524,524,524,524,524,523,523,523,523,523,523,523,523,522,521,521,520,519,514,510,505,500,496,483,471,454,438,426,407,395,383,363,343,297,285,274,262,244,158,107,73],"timestamp_mouse":[10,31,53,70,91,111,131,152,170,190,212,231,251,271,292,311,330,352,371,392,411,431,451,471,492,510,531,552,571,591,611,632,651,670,692,710,731,751,771,791,811,830,851,871,890,912],"xSR":741.5,"ySR":469.95,"xT1":424.9,"yT1":0,"xT2":1058.1,"yT2":0,"toosoon":0,"cond_shown":"randomdotsizeEA","ratio_trial":900,"smaller_n