[{"start_time":1551886975424,"click_time":1551886984099,"finger_time":1551886975440,"fix_duration":639.7338551071349,"trial":0,"RT":16,"MT":8659,"sideResp":2,"stimulus":[],"xmouse":[772,772,772,772,772,772,772,772,772,772,772,772,772,772,772,772,772,772,772,772,772,772,772,772,772,772,773,776,776,777,778,780,780,780,780,780,780,780,780,780,780,780,779,777,774,773,772,771,770,769,769,769,769,769,769,769,769,769,770,770,771,772,772,772,772,772,772,772,772,772,772,772,772,772,775,777,781,786,787,788,790,790,790,790,790,791,791,802,811,819,813,784,759,723,718,712,704,686,500,391,284,187,120,74,72,72,71,71,80,106,140,195,241,306,319,326,329,331,332,339,345,357,366,381,383,383,383,383,383,385,390,396,402,404,404,404,404,404,404,404,404,404,404,404,393,365,315,257,129,79,67,66,66,71,91,124,192,266,380,384,384,383,375,359,355,353,353,353,426,501,590,684,756,800,802,802,801,800,800,800,797,795,784,750,726,705,679,660,644,641,641,641,641,655,671,689,708,726,751,759,762,763,764,765,765,765,765,765,766,767,769,770,773,789,799,808,811,816,825,856,882,899,913,920,920,920,920,921,921,921,921,921,921,920,918,915,914,911,906,904,902,901,900,899,898,898,896,895,892,892,891,891,891,891,891,891,891,891,891,891,891,890,889,886,883,876,870,862,831,813,796,779,760,725,708,696,690,687,693,709,719,723,727,727,727,727,727,727,727,727,727,727,727,727,727,732,739,746,753,756,759,760,761,767,772,776,780,782,783,783,783,783,783,783,783,783,783,783,783,783,783,787,794,856,925,1008,1082,1167,1327,1368,1396,1438,1473,1511,1523,1532,1540,1546,1548,1548,1548,1549,1549,1549,1549,1549,1549,1543,1526,1514,1500,1489,1478,1470,1469,1469,1469,1469,1469,1469,1469,1469,1469,1456,1404,1329,1239,1144,954,914,889,864,842,801,777,748,720,686,628,613,613,615,633,679,700,705,712,722,729,729,729,729,730,726,725,724,724,728,738,754,771,790,808,827,829,829,829,829,829,829,828,828,828,828,840,864,899,948,1038,1066,1098,1136,1176,1199,1204,1210,1216,1224,1237,1239,1239,1239,1225,1143],"ymouse":[550,550,550,550,550,550,550,550,550,550,550,550,550,550,550,550,550,550,550,550,550,550,550,550,550,550,549,541,539,535,533,532,532,532,532,532,532,532,532,532,532,532,538,546,554,563,570,584,590,598,609,614,616,616,616,616,616,616,616,616,616,615,615,615,615,615,615,615,615,615,615,615,615,615,611,609,603,591,584,575,559,546,536,514,510,509,507,486,456,396,280,190,116,41,27,14,6,0,0,5,43,108,186,345,401,452,513,573,661,682,683,673,653,607,592,580,571,560,543,536,533,530,528,528,528,528,528,528,528,527,523,518,513,509,509,509,509,509,509,509,509,509,509,508,498,482,453,422,363,347,345,345,345,345,345,345,352,365,396,398,398,400,404,411,413,415,416,418,441,470,509,552,589,619,620,621,621,621,621,621,621,621,621,614,611,608,605,599,596,597,599,602,604,611,613,617,620,623,628,630,630,630,630,630,630,630,630,630,630,630,630,630,630,635,637,639,641,643,645,647,650,654,656,656,656,656,656,657,657,657,657,657,657,659,661,665,666,669,674,676,679,680,680,681,681,681,682,682,685,685,685,685,685,685,685,685,685,685,685,685,685,686,687,687,687,689,690,691,704,713,722,731,738,753,756,756,756,754,730,695,666,644,634,633,633,633,633,633,633,633,633,633,633,633,632,631,631,631,631,631,631,631,631,631,630,630,629,628,628,628,628,628,628,628,628,628,628,628,628,628,628,628,627,627,637,648,661,673,692,692,691,680,665,646,638,630,621,611,608,607,607,607,607,607,607,607,607,608,610,610,610,610,610,610,610,610,610,610,610,610,610,610,610,608,586,553,506,464,406,404,409,419,430,451,454,455,455,461,484,500,505,507,512,519,525,527,532,538,544,544,544,544,546,556,568,582,591,596,603,610,619,626,631,634,634,634,634,635,636,637,638,638,638,638,630,609,579,517,379,334,294,253,223,205,195,185,171,154,109,99,95,89,80,53],"timestamp_mouse":[16,35,55,75,95,115,136,155,175,196,216,234,254,275,294,316,335,354,376,396,415,434,456,475,496,515,536,556,575,596,614,636,655,676,695,715,735,755,775,796,816,834,856,874,895,916,935,955,975,995,1016,1035,1055,1075,1096,1115,1135,1155,1176,1196,1214,1235,1256,1275,1296,1315,1335,1356,1374,1396,1415,1435,1456,1476,1495,1515,1535,1556,1575,1595,1615,1636,1654,1676,1695,1715,1735,1756,1775,1795,1815,1834,1855,1876,1895,1915,1935,1955,1976,1996,2015,2036,2055,2076,2095,2115,2135,2155,2175,2194,2214,2235,2256,2275,2295,2315,2335,2355,2376,2396,2415,2435,2456,2475,2495,2516,2535,2555,2575,2595,2614,2635,2656,2675,2694,2715,2735,2755,2775,2794,2815,2835,2856,2875,2895,2916,2935,2955,2976,2995,3015,3035,3056,3076,3095,3115,3135,3156,3174,3195,3214,3235,3256,3275,3296,3314,3334,3355,3375,3395,3415,3435,3456,3475,3496,3516,3536,3556,3575,3595,3614,3634,3655,3675,3694,3715,3735,3756,3775,3795,3814,3836,3854,3875,3896,3915,3935,3955,3976,3995,4016,4034,4056,4075,4095,4116,4136,4154,4174,4196,4215,4235,4256,4275,4296,4315,4336,4356,4375,4396,4415,4435,4456,4476,4495,4515,4535,4556,4576,4595,4616,4636,4654,4674,4696,4715,4736,4756,4775,4795,4815,4835,4856,4876,4895,4916,4936,4956,4974,4995,5016,5035,5056,5075,5095,5115,5135,5156,5175,5196,5216,5236,5255,5275,5295,5316,5336,5356,5375,5395,5416,5435,5455,5475,5495,5516,5535,5555,5575,5595,5615,5635,5656,5676,5695,5715,5736,5754,5774,5795,5815,5836,5855,5875,5896,5916,5936,5956,5976,5994,6015,6035,6056,6075,6096,6116,6135,6155,6175,6196,6214,6234,6255,6274,6296,6315,6336,6356,6375,6395,6414,6435,6456,6475,6495,6515,6535,6556,6574,6595,6615,6635,6655,6675,6695,6715,6736,6756,6775,6794,6816,6835,6855,6876,6895,6915,6935,6956,6975,6996,7016,7035,7054,7075,7096,7115,7134,7156,7176,7195,7214,7234,7255,7276,7295,7315,7334,7355,7375,7396,7415,7435,7455,7475,7495,7515,7534,7555,7576,7596,7615,7635,7656,7675,7695,7715,7735,7755,7776,7796,7816,7835,7856,7876,7894,7915,7935,7956,7975,7995,8016,8035,8056,8075,8095,8115,8135,8155,8176,8195,8215,8235,8255,8276,8295,8315,8336,8356,8375,8395,8414,8435,8456,8475,8496,8516,8535,8556,8575,8595,8615,8635,8656,8675],"xSR":741.5,"ySR":500.5,"xT1":424.9,"yT1":0,"xT2":1058.1,"yT2":0,"toosoon":0,"cond_shown":"Incongruent","ratio_trial":100,"L_num":6,"L_den":10,"R_num":7,"R_den":14,"correct_side":1,"subjID":"saramayorgavilla17","gender":"1","age":"10","school":"sexto","test":{"fix_dur":[250,1500],"timestim":1000,"targets_dim":[100,100],"targets_relative_coord":[0.3,0.7],"size_stim":[880,420],"start_dim":[100,100],"size_start":[300,300],"size_fix":60,"samplingrate":20,"img_types":["Congruent","Incongruent"],"ratios":[100,200,300],"rep_conds":19,"nTrials":120,"trials_to_rest":500,"Trials_order":[115,88,50,54,63,0,21,106,107,55,100,108,38,11,90,9,44,112,116,110,13,37,51,49,64,92,68,29,69,19,52,97,72,74,117,105,28,46,70,39,25,99,36,31,114,85,91,47,93,58,118,34,95,96,71,83,42,20,111,22,41,80,33,101,14,57,6,48,86,4,67,16,84,119,24,43,78,18,59,12,66,3,10,62,2,15,103,94,53,104,81,1,35,56,73,8,40,76,113,82,32,79,23,65,89,27,30,87,17,5,98,75,77,61,26,109,60,102,7,45],"cond_shown":["Incongruent","Congruent","Congruent","Congruent","Incongruent","Congruent","Incongruent","Congruent","Incongruent","Incongruent","Congruent","Congruent","Congruent","Incongruent","Congruent","Incongruent","Congruent","Congruent","Congruent","Congruent","Incongruent","Incongruent","Incongruent","Incongruent","Congruent","Congruent","Congruent","Incongruent","Incongruent","Incongruent","Congruent","Incongruent","Congruent","Congruent","Incongruent","Incongruent","Congruent","Congruent","Congruent","Incongruent","Incongruent","Incongruent","Congruent","Incongruent","Congruent","Incongruent","Incongruent","Incongruent","Incongruent","Congruent","Congruent","Congruent","Incongruent","Congruent","Incongruent","Incongruent","Congruent","Congruent","Incongruent","Congruent","Incongruent","Congruent","Incongruent","Incongruent","Congruent","Incongruent","Congruent","Congruent","Congruent","Congruent","Incongruent","Congruent","Congruent","Incongruent","Congruent","Incongruent","Congruent","Congruent","Incongruent","Congruent","Congruent","Incongruent","Congruent","Congruent","Congruent","Incongruent","Incongruent","Congruent","Incongruent","Congruent","Incongruent","Incongruent","Incongruent","Congruent","Incongruent","Congruent","Congruent","Congruent","Incongruent","Congruent","Congruent","Incongruent","Incongruent","Incongruent","Incongruent","Incongruent","Congruent","Incongruent","Incongruent","Incongruent","Congruent","Incongruent","Incongruent","Incongruent","Congruent","Incongruent","Congruent","Congruent","Incongruent","Incongruent"],"ratio_trial":[100,300,200,100,200,100,200,300,300,100,300,100,200,300,100,200,200,300,200,200,100,100,200,100,300,200,200,300,200,100,300,100,100,200,200,200,300,300,300,200,100,200,100,100,100,100,100,300,200,300,300,300,300,100,300,300,100,200,200,300,300,200,200,300,200,200,100,100,200,300,100,300,100,300,100,100,100,100,300,100,100,200,300,200,200,200,100,300,300,200,200,100,300,200,100,200,300,300,300,300,200,100,300,300,300,200,100,200,300,300,200,200,300,100,200,100,100,100,100,200],"left_num":[6,2,8,6,4,7,3,11,2,13,11,1,7,4,10,3,3,20,13,20,3,9,4,12,18,11,13,8,11,2,24,6,4,3,3,7,3,4,11,4,12,4,15,8,7,6,9,4,14,2,1,18,1,4,1,1,15,7,4,3,4,16,14,2,3,14,8,11,3,3,13,20,3,4,10,9,3,4,4,11,3,1,5,7,20,6,9,18,4,5,14,10,13,9,3,3,1,5,13,3,3,9,4,7,1,1,4,4,3,3,9,7,4,9,1,9,7,4,11,14],"right_num":[7,12,3,15,6,9,11,2,6,6,1,3,18,2,3,1,9,14,14,9,8,13,1,9,9,3,14,9,3,6,2,3,15,11,1,4,11,2,2,14,9,6,13,1,15,3,20,8,6,10,7,9,2,6,2,3,13,18,14,4,2,9,6,6,9,6,2,6,14,4,6,5,4,2,3,6,4,15,2,6,2,3,6,2,9,3,6,9,2,14,12,8,12,4,7,9,7,7,12,2,14,6,2,8,2,3,15,14,4,4,4,12,2,14,21,14,15,6,9,12],"left_den":[10,10,15,12,5,14,4,22,4,26,22,2,15,20,25,10,12,25,26,25,5,15,30,24,20,22,26,10,20,4,30,12,10,10,10,15,12,5,22,6,24,5,25,20,14,12,10,5,30,20,20,20,2,8,2,2,25,15,6,6,20,30,30,4,12,30,16,22,10,6,26,25,20,20,25,18,20,10,20,22,6,2,25,21,25,20,18,20,20,10,30,25,26,20,9,12,20,25,26,6,6,18,20,10,2,2,10,6,6,6,20,10,20,15,2,15,14,8,22,30],"right_den":[14,24,9,25,10,15,20,10,30,10,5,5,27,4,10,2,20,28,20,15,16,26,3,15,15,10,20,18,4,15,4,5,30,22,2,6,20,4,10,30,15,10,26,2,25,5,25,16,9,25,20,15,10,10,10,15,26,27,30,5,4,27,9,30,20,9,5,15,28,5,10,10,16,4,10,10,16,30,4,15,5,10,12,15,15,6,10,15,4,20,18,16,15,16,30,20,20,14,15,10,20,10,4,20,10,10,30,30,20,20,16,24,4,28,30,28,25,10,15,18],"correct_side":[1,2,1,2,1,2,1,1,1,2,1,2,2,2,1,2,2,1,2,1,1,1,2,2,1,1,2,1,2,1,1,2,2,2,2,2,2,1,1,1,2,1,1,2,2,2,1,1,2,2,2,1,1,2,1,1,1,2,1,2,2,1,2,1,2,2,1,1,2,2,2,1,2,2,1,2,2,2,2,1,1,1,2,1,1,2,2,1,2,2,2,2,2,1,1,2,2,2,2,1,2,2,2,1,1,1,2,1,1,1,1,1,2,1,2,1,2,2,2,2],"img_shown":["img2/100/Incongruent/L/I_Dist_100_LN_6_LD_10_RN_7_RD_14_0.png","img2/300/Congruent/R/C_Dist_300_LN_2_LD_10_RN_12_RD_24_1.png","img2/200/Congruent/L/C_Dist_200_LN_8_LD_15_RN_3_RD_9_0.png","img2/100/Congruent/R/C_Dist_100_LN_6_LD_12_RN_15_RD_25_1.png","img2/200/Incongruent/L/I_Dist_200_LN_4_LD_5_RN_6_RD_10_0.png","img2/100/Congruent/R/C_Dist_100_LN_7_LD_14_RN_9_RD_15_1.png","img2/200/Incongruent/L/I_Dist_200_LN_3_LD_4_RN_11_RD_20_0.png","img2/300/Congruent/L/C_Dist_300_LN_11_LD_22_RN_2_RD_10_0.png","img2/300/Incongruent/L/I_Dist_300_LN_2_LD_4_RN_6_RD_30_0.png","img2/100/Incongruent/R/I_Dist_100_LN_13_LD_26_RN_6_RD_10_1.png","img2/300/Congruent/L/C_Dist_300_LN_11_LD_22_RN_1_RD_5_0.png","img2/100/Congruent/R/C_Dist_100_LN_1_LD_2_RN_3_RD_5_1.png","img2/200/Congruent/R/C_Dist_200_LN_7_LD_15_RN_18_RD_27_1.png","img2/300/Incongruent/R/I_Dist_300_LN_4_LD_20_RN_2_RD_4_1.png","img2/100/Congruent/L/C_Dist_100_LN_10_LD_25_RN_3_RD_10_0.png","img2/200/Incongruent/R/I_Dist_200_LN_3_LD_10_RN_1_RD_2_1.png","img2/200/Congruent/R/C_Dist_200_LN_3_LD_12_RN_9_RD_20_1.png","img2/300/Congruent/L/C_Dist_300_LN_20_LD_25_RN_14_RD_28_0.png","img2/200/Congruent/R/C_Dist_200_LN_13_LD_26_RN_14_RD_20_1.png","img2/200/Congruent/L/C_Dist_200_LN_20_LD_25_RN_9_RD_15_0.png","img2/100/Incongruent/L/I_Dist_100_LN_3_LD_5_RN_8_RD_16_0.png","img2/100/Incongruent/L/I_Dist_100_LN_9_LD_15_RN_13_RD_26_0.png","img2/200/Incongruent/R/I_Dist_200_LN_4_LD_30_RN_1_RD_3_1.png","img2/100/Incongruent/R/I_Dist_100_LN_12_LD_24_RN_9_RD_15_1.png","img2/300/Congruent/L/C_Dist_300_LN_18_LD_20_RN_9_RD_15_0.png","img2/200/Congruent/L/C_Dist_200_LN_11_LD_22_RN_3_RD_10_0.png","img2/200/Congruent/R/C_Dist_200_LN_13_LD_26_RN_14_RD_20_1.png","img2/300/Incongruent/L/I_Dist_300_LN_8_LD_10_RN_9_RD_18_0.png","img2/200/Incongruent/R/I_Dist_200_LN_11_LD_20_RN_3_RD_4_1.png","img2/100/Incongruent/L/I_Dist_100_LN_2_LD_4_RN_6_RD_15_0.png","img2/300/Congruent/L/C_Dist_300_LN_24_LD_30_RN_2_RD_4_0.png","img2/100/Incongruent/R/I_Dist_100_LN_6_LD_12_RN_3_RD_5_1.png","img2/100/Congruent/R/C_Dist_100_LN_4_LD_10_RN_15_RD_30_1.png","img2/200/Congruent/R/C_Dist_200_LN_3_LD_10_RN_11_RD_22_1.png","img2/200/Incongruent/R/I_Dist_200_LN_3_LD_10_RN_1_RD_2_1.png","img2/200/Incongruent/R/I_Dist_200_LN_7_LD_15_RN_4_RD_6_1.png","img2/300/Congruent/R/C_Dist_300_LN_3_LD_12_RN_11_RD_20_1.png","img2/300/Congruent/L/C_Dist_300_LN_4_LD_5_RN_2_RD_4_0.png","img2/300/Congruent/L/C_Dist_300_LN_11_LD_22_RN_2_RD_10_0.png","img2/200/Incongruent/L/I_Dist_200_LN_4_LD_6_RN_14_RD_30_0.png","img2/100/Incongruent/R/I_Dist_100_LN_12_LD_24_RN_9_RD_15_1.png","img2/200/Incongruent/L/I_Dist_200_LN_4_LD_5_RN_6_RD_10_0.png","img2/100/Congruent/L/C_Dist_100_LN_15_LD_25_RN_13_RD_26_0.png","img2/100/Incongruent/R/I_Dist_100_LN_8_LD_20_RN_1_RD_2_1.png","img2/100/Congruent/R/C_Dist_100_LN_7_LD_14_RN_15_RD_25_1.png","img2/100/Incongruent/R/I_Dist_100_LN_6_LD_12_RN_3_RD_5_1.png","img2/100/Incongruent/L/I_Dist_100_LN_9_LD_10_RN_20_RD_25_0.png","img2/300/Incongruent/L/I_Dist_300_LN_4_LD_5_RN_8_RD_16_0.png","img2/200/Incongruent/R/I_Dist_200_LN_14_LD_30_RN_6_RD_9_1.png","img2/300/Congruent/R/C_Dist_300_LN_2_LD_20_RN_10_RD_25_1.png","img2/300/Congruent/R/C_Dist_300_LN_1_LD_20_RN_7_RD_20_1.png","img2/300/Congruent/L/C_Dist_300_LN_18_LD_20_RN_9_RD_15_0.png","img2/300/Incongruent/L/I_Dist_300_LN_1_LD_2_RN_2_RD_10_0.png","img2/100/Congruent/R/C_Dist_100_LN_4_LD_8_RN_6_RD_10_1.png","img2/300/Incongruent/L/I_Dist_300_LN_1_LD_2_RN_2_RD_10_0.png","img2/300/Incongruent/L/I_Dist_300_LN_1_LD_2_RN_3_RD_15_0.png","img2/100/Congruent/L/C_Dist_100_LN_15_LD_25_RN_13_RD_26_0.png","img2/200/Congruent/R/C_Dist_200_LN_7_LD_15_RN_18_RD_27_1.png","img2/200/Incongruent/L/I_Dist_200_LN_4_LD_6_RN_14_RD_30_0.png","img2/300/Congruent/R/C_Dist_300_LN_3_LD_6_RN_4_RD_5_1.png","img2/300/Incongruent/R/I_Dist_300_LN_4_LD_20_RN_2_RD_4_1.png","img2/200/Congruent/L/C_Dist_200_LN_16_LD_30_RN_9_RD_27_0.png","img2/200/Incongruent/R/I_Dist_200_LN_14_LD_30_RN_6_RD_9_1.png","img2/300/Incongruent/L/I_Dist_300_LN_2_LD_4_RN_6_RD_30_0.png","img2/200/Congruent/R/C_Dist_200_LN_3_LD_12_RN_9_RD_20_1.png","img2/200/Incongruent/R/I_Dist_200_LN_14_LD_30_RN_6_RD_9_1.png","img2/100/Congruent/L/C_Dist_100_LN_8_LD_16_RN_2_RD_5_0.png","img2/100/Congruent/L/C_Dist_100_LN_11_LD_22_RN_6_RD_15_0.png","img2/200/Congruent/R/C_Dist_200_LN_3_LD_10_RN_14_RD_28_1.png","img2/300/Congruent/R/C_Dist_300_LN_3_LD_6_RN_4_RD_5_1.png","img2/100/Incongruent/R/I_Dist_100_LN_13_LD_26_RN_6_RD_10_1.png","img2/300/Congruent/L/C_Dist_300_LN_20_LD_25_RN_5_RD_10_0.png","img2/100/Congruent/R/C_Dist_100_LN_3_LD_20_RN_4_RD_16_1.png","img2/300/Incongruent/R/I_Dist_300_LN_4_LD_20_RN_2_RD_4_1.png","img2/100/Congruent/L/C_Dist_100_LN_10_LD_25_RN_3_RD_10_0.png","img2/100/Incongruent/R/I_Dist_100_LN_9_LD_18_RN_6_RD_10_1.png","img2/100/Congruent/R/C_Dist_100_LN_3_LD_20_RN_4_RD_16_1.png","img2/100/Congruent/R/C_Dist_100_LN_4_LD_10_RN_15_RD_30_1.png","img2/300/Incongruent/R/I_Dist_300_LN_4_LD_20_RN_2_RD_4_1.png","img2/100/Congruent/L/C_Dist_100_LN_11_LD_22_RN_6_RD_15_0.png","img2/100/Congruent/L/C_Dist_100_LN_3_LD_6_RN_2_RD_5_0.png","img2/200/Incongruent/L/I_Dist_200_LN_1_LD_2_RN_3_RD_10_0.png","img2/300/Congruent/R/C_Dist_300_LN_5_LD_25_RN_6_RD_12_1.png","img2/200/Congruent/L/C_Dist_200_LN_7_LD_21_RN_2_RD_15_0.png","img2/200/Congruent/L/C_Dist_200_LN_20_LD_25_RN_9_RD_15_0.png","img2/200/Incongruent/R/I_Dist_200_LN_6_LD_20_RN_3_RD_6_1.png","img2/100/Incongruent/R/I_Dist_100_LN_9_LD_18_RN_6_RD_10_1.png","img2/300/Congruent/L/C_Dist_300_LN_18_LD_20_RN_9_RD_15_0.png","img2/300/Incongruent/R/I_Dist_300_LN_4_LD_20_RN_2_RD_4_1.png","img2/200/Congruent/R/C_Dist_200_LN_5_LD_10_RN_14_RD_20_1.png","img2/200/Incongruent/R/I_Dist_200_LN_14_LD_30_RN_12_RD_18_1.png","img2/100/Incongruent/R/I_Dist_100_LN_10_LD_25_RN_8_RD_16_1.png","img2/300/Incongruent/R/I_Dist_300_LN_13_LD_26_RN_12_RD_15_1.png","img2/200/Congruent/L/C_Dist_200_LN_9_LD_20_RN_4_RD_16_0.png","img2/100/Incongruent/L/I_Dist_100_LN_3_LD_9_RN_7_RD_30_0.png","img2/200/Congruent/R/C_Dist_200_LN_3_LD_12_RN_9_RD_20_1.png","img2/300/Congruent/R/C_Dist_300_LN_1_LD_20_RN_7_RD_20_1.png","img2/300/Congruent/R/C_Dist_300_LN_5_LD_25_RN_7_RD_14_1.png","img2/300/Incongruent/R/I_Dist_300_LN_13_LD_26_RN_12_RD_15_1.png","img2/300/Congruent/L/C_Dist_300_LN_3_LD_6_RN_2_RD_10_0.png","img2/200/Congruent/R/C_Dist_200_LN_3_LD_6_RN_14_RD_20_1.png","img2/100/Incongruent/R/I_Dist_100_LN_9_LD_18_RN_6_RD_10_1.png","img2/300/Incongruent/R/I_Dist_300_LN_4_LD_20_RN_2_RD_4_1.png","img2/300/Incongruent/L/I_Dist_300_LN_7_LD_10_RN_8_RD_20_0.png","img2/300/Incongruent/L/I_Dist_300_LN_1_LD_2_RN_2_RD_10_0.png","img2/200/Incongruent/L/I_Dist_200_LN_1_LD_2_RN_3_RD_10_0.png","img2/100/Congruent/R/C_Dist_100_LN_4_LD_10_RN_15_RD_30_1.png","img2/200/Incongruent/L/I_Dist_200_LN_4_LD_6_RN_14_RD_30_0.png","img2/300/Incongruent/L/I_Dist_300_LN_3_LD_6_RN_4_RD_20_0.png","img2/300/Incongruent/L/I_Dist_300_LN_3_LD_6_RN_4_RD_20_0.png","img2/200/Congruent/L/C_Dist_200_LN_9_LD_20_RN_4_RD_16_0.png","img2/200/Incongruent/L/I_Dist_200_LN_7_LD_10_RN_12_RD_24_0.png","img2/300/Incongruent/R/I_Dist_300_LN_4_LD_20_RN_2_RD_4_1.png","img2/100/Incongruent/L/I_Dist_100_LN_9_LD_15_RN_14_RD_28_0.png","img2/200/Congruent/R/C_Dist_200_LN_1_LD_2_RN_21_RD_30_1.png","img2/100/Incongruent/L/I_Dist_100_LN_9_LD_15_RN_14_RD_28_0.png","img2/100/Congruent/R/C_Dist_100_LN_7_LD_14_RN_15_RD_25_1.png","img2/100/Congruent/R/C_Dist_100_LN_4_LD_8_RN_6_RD_10_1.png","img2/100/Incongruent/R/I_Dist_100_LN_11_LD_22_RN_9_RD_15_1.png","img2/200/Incongruent/R/I_Dist_200_LN_14_LD_30_RN_12_RD_18_1.png"],"dist100_C":[["C_Dist_100_LN_10_LD_25_RN_3_RD_10_0.png","C_Dist_100_LN_11_LD_22_RN_4_RD_10_0.png","C_Dist_100_LN_11_LD_22_RN_6_RD_15_0.png","C_Dist_100_LN_15_LD_25_RN_13_RD_26_0.png","C_Dist_100_LN_3_LD_6_RN_2_RD_5_0.png","C_Dist_100_LN_6_LD_20_RN_5_RD_25_0.png","C_Dist_100_LN_8_LD_16_RN_2_RD_5_0.png","C_Dist_100_LN_9_LD_15_RN_8_RD_16_0.png"],["C_Dist_100_LN_1_LD_2_RN_18_RD_30_1.png","C_Dist_100_LN_1_LD_2_RN_3_RD_5_1.png","C_Dist_100_LN_12_LD_30_RN_13_RD_26_1.png","C_Dist_100_LN_2_LD_5_RN_11_RD_22_1.png","C_Dist_100_LN_2_LD_5_RN_6_RD_12_1.png","C_Dist_100_LN_3_LD_20_RN_4_RD_16_1.png","C_Dist_100_LN_4_LD_10_RN_15_RD_30_1.png","C_Dist_100_LN_4_LD_8_RN_6_RD_10_1.png","C_Dist_100_LN_6_LD_12_RN_15_RD_25_1.png","C_Dist_100_LN_7_LD_14_RN_15_RD_25_1.png","C_Dist_100_LN_7_LD_14_RN_9_RD_15_1.png"]],"dist100_I":[["I_Dist_100_LN_1_LD_2_RN_8_RD_20_0.png","I_Dist_100_LN_2_LD_4_RN_6_RD_15_0.png","I_Dist_100_LN_2_LD_4_RN_8_RD_20_0.png","I_Dist_100_LN_3_LD_5_RN_11_RD_22_0.png","I_Dist_100_LN_3_LD_5_RN_8_RD_16_0.png","I_Dist_100_LN_3_LD_6_RN_4_RD_10_0.png","I_Dist_100_LN_3_LD_9_RN_7_RD_30_0.png","I_Dist_100_LN_4_LD_8_RN_8_RD_20_0.png","I_Dist_100_LN_6_LD_10_RN_11_RD_22_0.png","I_Dist_100_LN_6_LD_10_RN_13_RD_26_0.png","I_Dist_100_LN_6_LD_10_RN_7_RD_14_0.png","I_Dist_100_LN_9_LD_10_RN_20_RD_25_0.png","I_Dist_100_LN_9_LD_15_RN_13_RD_26_0.png","I_Dist_100_LN_9_LD_15_RN_14_RD_28_0.png"],["I_Dist_100_LN_10_LD_25_RN_8_RD_16_1.png","I_Dist_100_LN_10_LD_25_RN_9_RD_18_1.png","I_Dist_100_LN_11_LD_22_RN_9_RD_15_1.png","I_Dist_100_LN_12_LD_24_RN_9_RD_15_1.png","I_Dist_100_LN_12_LD_30_RN_2_RD_4_1.png","I_Dist_100_LN_13_LD_26_RN_12_RD_20_1.png","I_Dist_100_LN_13_LD_26_RN_6_RD_10_1.png","I_Dist_100_LN_17_LD_30_RN_10_RD_15_1.png","I_Dist_100_LN_6_LD_12_RN_3_RD_5_1.png","I_Dist_100_LN_8_LD_16_RN_6_RD_10_1.png","I_Dist_100_LN_8_LD_20_RN_1_RD_2_1.png","I_Dist_100_LN_9_LD_18_RN_6_RD_10_1.png"]],"dist100_S":[["E_Dist_100_LN_2_LD_12_RN_2_RD_30_0.png","E_Dist_100_LN_6_LD_10_RN_6_RD_12_0.png"],["E_Dist_100_LN_6_LD_12_RN_6_RD_10_1.png"]],"dist200_C":[["C_Dist_200_LN_11_LD_22_RN_3_RD_10_0.png","C_Dist_200_LN_12_LD_15_RN_6_RD_10_0.png","C_Dist_200_LN_12_LD_20_RN_6_RD_15_0.png","C_Dist_200_LN_14_LD_28_RN_6_RD_20_0.png","C_Dist_200_LN_15_LD_25_RN_4_RD_10_0.png","C_Dist_200_LN_16_LD_20_RN_12_RD_20_0.png","C_Dist_200_LN_16_LD_30_RN_9_RD_27_0.png","C_Dist_200_LN_20_LD_25_RN_9_RD_15_0.png","C_Dist_200_LN_21_LD_30_RN_2_RD_4_0.png","C_Dist_200_LN_4_LD_10_RN_3_RD_15_0.png","C_Dist_200_LN_4_LD_8_RN_3_RD_10_0.png","C_Dist_200_LN_6_LD_15_RN_3_RD_15_0.png","C_Dist_200_LN_7_LD_21_RN_2_RD_15_0.png","C_Dist_200_LN_8_LD_15_RN_2_RD_6_0.png","C_Dist_200_LN_8_LD_15_RN_3_RD_9_0.png","C_Dist_200_LN_8_LD_15_RN_7_RD_21_0.png","C_Dist_200_LN_9_LD_20_RN_4_RD_16_0.png"],["C_Dist_200_LN_1_LD_2_RN_21_RD_30_1.png","C_Dist_200_LN_13_LD_26_RN_14_RD_20_1.png","C_Dist_200_LN_3_LD_10_RN_11_RD_22_1.png","C_Dist_200_LN_3_LD_10_RN_14_RD_28_1.png","C_Dist_200_LN_3_LD_10_RN_7_RD_14_1.png","C_Dist_200_LN_3_LD_12_RN_9_RD_20_1.png","C_Dist_200_LN_3_LD_6_RN_14_RD_20_1.png","C_Dist_200_LN_5_LD_10_RN_14_RD_20_1.png","C_Dist_200_LN_6_LD_12_RN_7_RD_10_1.png","C_Dist_200_LN_6_LD_20_RN_11_RD_22_1.png","C_Dist_200_LN_7_LD_15_RN_18_RD_27_1.png","C_Dist_200_LN_9_LD_30_RN_13_RD_26_1.png"]],"dist200_I":[["I_Dist_200_LN_1_LD_2_RN_3_RD_10_0.png","I_Dist_200_LN_1_LD_3_RN_2_RD_15_0.png","I_Dist_200_LN_3_LD_4_RN_11_RD_20_0.png","I_Dist_200_LN_4_LD_5_RN_6_RD_10_0.png","I_Dist_200_LN_4_LD_6_RN_14_RD_30_0.png","I_Dist_200_LN_7_LD_10_RN_12_RD_24_0.png","I_Dist_200_LN_7_LD_10_RN_14_RD_28_0.png","I_Dist_200_LN_7_LD_10_RN_8_RD_16_0.png"],["I_Dist_200_LN_11_LD_20_RN_3_RD_4_1.png","I_Dist_200_LN_14_LD_30_RN_12_RD_18_1.png","I_Dist_200_LN_14_LD_30_RN_6_RD_9_1.png","I_Dist_200_LN_3_LD_10_RN_1_RD_2_1.png","I_Dist_200_LN_4_LD_30_RN_1_RD_3_1.png","I_Dist_200_LN_6_LD_20_RN_3_RD_6_1.png","I_Dist_200_LN_7_LD_15_RN_4_RD_6_1.png","I_Dist_200_LN_7_LD_15_RN_6_RD_9_1.png","I_Dist_200_LN_9_LD_15_RN_8_RD_10_1.png"]],"dist200_S":[["E_Dist_200_LN_3_LD_6_RN_3_RD_10_0.png"],["E_Dist_200_LN_3_LD_10_RN_3_RD_6_1.png"]],"dist300_C":[["C_Dist_300_LN_11_LD_22_RN_1_RD_5_0.png","C_Dist_300_LN_11_LD_22_RN_2_RD_10_0.png","C_Dist_300_LN_11_LD_22_RN_4_RD_20_0.png","C_Dist_300_LN_12_LD_24_RN_2_RD_10_0.png","C_Dist_300_LN_18_LD_20_RN_9_RD_15_0.png","C_Dist_300_LN_20_LD_25_RN_13_RD_26_0.png","C_Dist_300_LN_20_LD_25_RN_14_RD_28_0.png","C_Dist_300_LN_20_LD_25_RN_5_RD_10_0.png","C_Dist_300_LN_20_LD_25_RN_8_RD_16_0.png","C_Dist_300_LN_20_LD_25_RN_9_RD_18_0.png","C_Dist_300_LN_24_LD_30_RN_2_RD_4_0.png","C_Dist_300_LN_24_LD_30_RN_8_RD_16_0.png","C_Dist_300_LN_3_LD_6_RN_2_RD_10_0.png","C_Dist_300_LN_4_LD_10_RN_1_RD_10_0.png","C_Dist_300_LN_4_LD_5_RN_2_RD_4_0.png","C_Dist_300_LN_8_LD_16_RN_1_RD_5_0.png","C_Dist_300_LN_9_LD_10_RN_3_RD_5_0.png"],["C_Dist_300_LN_1_LD_20_RN_7_RD_20_1.png","C_Dist_300_LN_1_LD_3_RN_19_RD_30_1.png","C_Dist_300_LN_1_LD_30_RN_8_RD_24_1.png","C_Dist_300_LN_1_LD_5_RN_11_RD_22_1.png","C_Dist_300_LN_1_LD_5_RN_3_RD_6_1.png","C_Dist_300_LN_1_LD_5_RN_6_RD_12_1.png","C_Dist_300_LN_2_LD_10_RN_12_RD_24_1.png","C_Dist_300_LN_2_LD_20_RN_10_RD_25_1.png","C_Dist_300_LN_3_LD_12_RN_11_RD_20_1.png","C_Dist_300_LN_3_LD_6_RN_4_RD_5_1.png","C_Dist_300_LN_4_LD_20_RN_13_RD_26_1.png","C_Dist_300_LN_5_LD_25_RN_6_RD_12_1.png","C_Dist_300_LN_5_LD_25_RN_7_RD_14_1.png","C_Dist_300_LN_7_LD_14_RN_20_RD_25_1.png","C_Dist_300_LN_8_LD_15_RN_10_RD_12_1.png"]],"dist300_I":[["I_Dist_300_LN_1_LD_2_RN_2_RD_10_0.png","I_Dist_300_LN_1_LD_2_RN_3_RD_15_0.png","I_Dist_300_LN_2_LD_4_RN_6_RD_30_0.png","I_Dist_300_LN_3_LD_6_RN_4_RD_20_0.png","I_Dist_300_LN_4_LD_5_RN_6_RD_12_0.png","I_Dist_300_LN_4_LD_5_RN_8_RD_16_0.png","I_Dist_300_LN_7_LD_10_RN_8_RD_20_0.png","I_Dist_300_LN_8_LD_10_RN_14_RD_28_0.png","I_Dist_300_LN_8_LD_10_RN_9_RD_18_0.png"],["I_Dist_300_LN_13_LD_26_RN_12_RD_15_1.png","I_Dist_300_LN_4_LD_20_RN_2_RD_4_1.png"]],"dist300_S":[["E_Dist_300_LN_9_LD_12_RN_9_RD_20_0.png"],["E_Dist_300_LN_18_LD_30_RN_18_RD_20_1.png","E_Dist_300_LN_3_LD_10_RN_3_RD_5_1.png","E_Dist_300_LN_9_LD_20_RN_9_RD_12_1.png"]],"dist500_C":[["C_Dist_500_LN_10_LD_13_RN_7_RD_26_0.png","C_Dist_500_LN_10_LD_15_RN_4_RD_24_0.png","C_Dist_500_LN_12_LD_16_RN_3_RD_12_0.png","C_Dist_500_LN_12_LD_18_RN_4_RD_24_0.png","C_Dist_500_LN_15_LD_18_RN_5_RD_15_0.png","C_Dist_500_LN_15_LD_20_RN_1_RD_4_0.png","C_Dist_500_LN_18_LD_27_RN_1_RD_6_0.png","C_Dist_500_LN_20_LD_24_RN_1_RD_3_0.png","C_Dist_500_LN_20_LD_24_RN_3_RD_9_0.png","C_Dist_500_LN_20_LD_24_RN_7_RD_21_0.png","C_Dist_500_LN_20_LD_28_RN_3_RD_14_0.png","C_Dist_500_LN_21_LD_28_RN_6_RD_24_0.png","C_Dist_500_LN_22_LD_28_RN_2_RD_7_0.png","C_Dist_500_LN_25_LD_30_RN_9_RD_27_0.png","C_Dist_500_LN_4_LD_6_RN_1_RD_6_0.png","C_Dist_500_LN_5_LD_6_RN_2_RD_6_0.png","C_Dist_500_LN_6_LD_9_RN_1_RD_6_0.png","C_Dist_500_LN_7_LD_10_RN_1_RD_5_0.png","C_Dist_500_LN_8_LD_12_RN_1_RD_6_0.png","C_Dist_500_LN_8_LD_12_RN_4_RD_24_0.png"],["C_Dist_500_LN_1_LD_4_RN_12_RD_16_1.png","C_Dist_500_LN_1_LD_4_RN_9_RD_12_1.png","C_Dist_500_LN_1_LD_9_RN_11_RD_18_1.png","C_Dist_500_LN_10_LD_24_RN_22_RD_24_1.png","C_Dist_500_LN_2_LD_12_RN_10_RD_15_1.png","C_Dist_500_LN_2_LD_12_RN_12_RD_18_1.png","C_Dist_500_LN_2_LD_12_RN_4_RD_6_1.png","C_Dist_500_LN_2_LD_24_RN_7_RD_12_1.png","C_Dist_500_LN_2_LD_5_RN_18_RD_20_1.png","C_Dist_500_LN_2_LD_5_RN_9_RD_10_1.png","C_Dist_500_LN_2_LD_8_RN_12_RD_16_1.png","C_Dist_500_LN_2_LD_8_RN_21_RD_28_1.png","C_Dist_500_LN_3_LD_10_RN_4_RD_5_1.png","C_Dist_500_LN_3_LD_12_RN_15_RD_20_1.png","C_Dist_500_LN_3_LD_30_RN_6_RD_10_1.png","C_Dist_500_LN_3_LD_8_RN_14_RD_16_1.png","C_Dist_500_LN_4_LD_16_RN_15_RD_20_1.png","C_Dist_500_LN_4_LD_24_RN_12_RD_18_1.png","C_Dist_500_LN_5_LD_14_RN_6_RD_7_1.png","C_Dist_500_LN_7_LD_21_RN_20_RD_24_1.png","C_Dist_500_LN_7_LD_28_RN_12_RD_16_1.png","C_Dist_500_LN_7_LD_28_RN_9_RD_12_1.png","C_Dist_500_LN_9_LD_27_RN_20_RD_24_1.png"]],"dist500_I":[["I_Dist_500_LN_2_LD_3_RN_4_RD_24_0.png","I_Dist_500_LN_5_LD_6_RN_6_RD_18_0.png","I_Dist_500_LN_7_LD_8_RN_9_RD_24_0.png"],["I_Dist_500_LN_7_LD_21_RN_5_RD_6_1.png"]],"dist500_S":[["E_Dist_500_LN_6_LD_8_RN_6_RD_24_0.png"],["E_Dist_500_LN_2_LD_12_RN_2_RD_3_1.png","E_Dist_500_LN_6_LD_24_RN_6_RD_8_1.png"]]}},{"start_time":1551886985777,"click_time":1551886987901,"finger_time":1551886987480,"fix_duration":275.90027525124907,"trial":1,"RT":1703,"MT":421,"sideResp":1,"stimulus":[],"xmouse":[805,805,805,805,805,805,805,805,805,805,805,805,805,805,805,805,805,805,805,805,805,805,805,805,805,805,805,805,805,805,805,805,805,805,805,805,805,805,805,805,805,805,805,805,805,805,805,805,805,805,805,805,805,805,805,805,805,805,805,805,805,805,805,805,805,805,805,805,805,805,805,805,805,805,805,805,805,805,805,805,805,806,809,815,834,841,841,832,794,756,669,641,619,602,590,579,577,576,573,568,550,536,532,529,527,521],"ymouse":[625,624,624,624,624,624,624,624,624,624,624,624,624,624,624,624,624,624,624,624,624,624,624,624,624,624,624,624,624,624,624,624,624,624,624,624,624,624,624,624,624,624,624,624,624,624,624,624,624,624,624,624,624,624,624,624,624,624,624,624,624,624,624,624,624,624,624,624,624,624,624,624,624,624,624,624,624,624,624,624,624,624,620,605,524,449,354,250,143,64,0,0,0,0,0,0,0,0,1,3,14,19,20,20,20,22],"timestamp_mouse":[9,22,63,83,103,122,142,162,181,203,222,242,262,282,302,322,342,362,382,402,422,441,462,482,502,522,542,562,582,602,623,643,662,683,702,722,742,761,782,801,822,842,862,882,902,922,941,962,982,1002,1022,1042,1062,1081,1102,1122,1142,1161,1183,1202,1223,1242,1263,1282,1302,1323,1342,1362,1382,1402,1422,1443,1462,1482,1503,1522,1542,1563,1582,1603,1623,1642,1663,1683,1703,1722,1742,1762,1782,1802,1823,1841,1862,1882,1902,1922,1942,1962,1983,2002,2021,2042,2062,2082,2102,2123],"xSR":741.5,"ySR":573.95,"xT1":424.9,"yT1":0,"xT2":1058.1,"yT2":0,"toosoon":0,"cond_shown":"Congruent","ratio_trial":300,"L_num":2,"L_den":10,"R_num":12,"R_den":24,"correct_side":2,"subjID":"saramayorgavilla17","gender":"1","school":"sexto","age":"10"},{"start_time":1551886991997,"click_time":1551886994599,"finger_time":1551886993740,"fix_duration":797.267097991186,"trial":2,"RT":1743,"MT":859,"sideResp":1,"stimulus":[],"xmouse":[802,802,802,802,802,802,802,802,802,802,802,802,802,802,802,802,802,802,802,802,802,802,802,802,802,802,802,802,802,802,802,802,802,802,802,802,802,802,802,802,802,802,802,802,802,802,802,802,802,802,802,802,802,802,802,802,802,802,802,802,802,802,802,802,802,802,802,802,802,802,802,802,802,802,802,802,802,802,802,802,802,802,802,802,802,815,833,854,882,923,924,924,924,925,926,926,926,928,928,929,930,933,941,947,950,952,954,962,978,1026,1043,1053,1056,1061,1063,1069,1069,1069,1067,1066,1023,935,862,785,723,638,605,569,547,525,490],"ymouse":[625,625,625,625,625,625,625,625,625,625,625,625,625,625,625,625,625,625,625,625,625,625,625,625,625,625,625,625,625,625,625,625,625,625,625,625,625,625,625,625,625,625,625,625,625,625,625,625,625,625,625,625,625,625,625,625,625,625,625,625,625,625,625,625,625,625,625,625,625,625,625,625,625,625,625,625,625,625,625,625,625,625,625,625,625,615,599,580,553,526,525,525,525,524,523,512,508,506,505,504,502,500,484,460,444,436,433,422,402,322,275,248,239,226,211,185,177,172,171,171,164,145,136,133,133,122,112,101,94,91,88],"timestamp_mouse":[8,23,42,62,82,103,123,142,162,182,203,222,242,262,282,303,322,341,362,381,402,423,443,461,482,503,522,542,562,583,602,622,643,661,682,703,721,743,762,782,802,822,842,863,882,902,922,941,962,983,1002,1022,1041,1063,1083,1103,1121,1142,1162,1183,1201,1222,1243,1261,1282,1302,1321,1343,1362,1382,1402,1421,1443,1462,1483,1502,1522,1543,1563,1583,1602,1622,1643,1662,1683,1701,1722,1743,1762,1783,1801,1822,1842,1862,1883,1903,1923,1942,1962,1983,2003,2022,2042,2062,2082,2102,2122,2142,2163,2183,2202,2222,2242,2262,2283,2302,2322,2342,2362,2383,2403,2421,2442,2463,2482,2503,2523,2542,2562,2582,2602],"xSR":741.5,"ySR":573.95,"xT1":424.9,"yT1":0,"xT2":1058.1,"yT2":0,"toosoon":0,"cond_shown":"Congruent","ratio_trial":200,"L_num":8,"L_den":15,"R_num":3,"R_den":9,"correct_side":1,"subjID":"saramayorgavilla17","gender":"1","school":"sexto","age":"10"},{"start_time":1551886996531,"click_time":1551886998279,"finger_time":1551886997859,"fix_duration":691.4179820862778,"trial":3,"RT":1328,"MT":420,"sideResp":2,"stimulus":[],"xmouse":[814,814,814,814,814,814,814,814,814,814,814,814,814,814,814,814,814,814,814,814,814,814,814,814,814,814,814,814,814,814,814,814,814,814,814,814,814,814,814,814,814,814,814,814,814,814,814,814,814,814,814,814,814,814,815,815,815,815,815,815,815,815,815,819,826,841,867,906,995,1027,1054,1066,1076,1090,1100,1109,1116,1127,1147,1157,1163,1170,1172,1174,1174,1169,1161,1153],"ymouse":[649,649,649,649,649,649,649,649,649,649,649,649,649,649,649,649,649,649,649,649,649,649,649,649,649,649,649,649,649,649,649,649,649,649,649,649,649,649,649,649,649,649,649,649,649,649,649,649,649,649,649,649,649,649,647,647,647,647,647,647,647,647,646,642,635,622,595,545,412,354,309,289,274,253,237,226,219,208,186,169,155,147,145,137,121,100,69,31],"timestamp_mouse":[9,45,47,68,87,108,129,149,169,189,208,229,247,269,288,309,328,347,368,389,407,429,448,467,487,507,527,547,567,587,607,627,647,667,687,707,727,747,769,788,808,828,848,868,888,908,929,948,968,987,1008,1028,1048,1068,1088,1109,1128,1147,1168,1189,1207,1228,1247,1268,1287,1308,1328,1349,1369,1388,1408,1428,1448,1468,1488,1509,1527,1549,1568,1589,1608,1628,1648,1668,1689,1707,1728,1748],"xSR":741.5,"ySR":573.95,"xT1":424.9,"yT1":0,"xT2":1058.1,"yT2":0,"toosoon":0,"cond_shown":"Congruent","ratio_trial":100,"L_num":6,"L_den":12,"R_num":15,"R_den":25,"correct_side":2,"subjID":"saramayorgavilla17","gender":"1","school":"sexto","age":"10"},{"start_time":1551887000443,"click_time":1551887001999,"finger_time":1551887001678,"fix_duration":921.0592008614929,"trial":4,"RT":1235,"MT":321,"sideResp":2,"stimulus":[],"xmouse":[816,816,816,816,816,816,816,816,816,816,816,816,816,816,816,816,816,816,816,816,816,816,816,816,816,816,816,816,816,816,816,816,816,816,816,816,816,816,816,816,816,816,816,816,816,816,816,816,816,816,816,816,816,816,816,816,816,816,816,820,832,852,904,935,967,994,1014,1052,1069,1077,1087,1097,1122,1133,1145,1152,1152,1143],"ymouse":[638,638,638,638,638,638,638,638,638,638,638,638,638,638,638,638,638,638,638,638,638,638,638,638,638,638,638,638,638,638,638,638,638,638,638,638,638,638,638,638,638,638,638,638,638,638,638,638,638,638,638,638,638,638,638,638,638,638,638,636,626,610,569,545,511,481,451,376,334,311,289,266,209,182,149,123,110,85],"timestamp_mouse":[16,44,56,77,97,115,137,157,177,195,216,236,256,277,296,316,336,356,376,396,416,436,456,476,496,516,536,557,576,597,616,636,655,677,696,716,736,757,776,795,816,837,855,877,896,917,937,956,976,996,1016,1036,1055,1076,1096,1116,1136,1156,1176,1197,1217,1235,1256,1276,1296,1316,1336,1356,1376,1396,1416,1436,1456,1476,1496,1517,1535,1556],"xSR":741.5,"ySR":573.95,"xT1":424.9,"yT1":0,"xT2":1058.1,"yT2":0,"toosoon":0,"cond_shown":"Incongruent","ratio_trial":200,"L_num":4,"L_den":5,"R_num":6,"R_den":10,"correct_side":1,"subjID":"saramayorgavilla17","gender":"1","school":"sexto","age":"10"},{"start_time":1551887004801,"click_time":1551887007819,"finger_time":1551887007100,"fix_duration":1001.5034539604466,"trial":5,"RT":2299,"MT":719,"sideResp":2,"stimulus":[],"xmouse":[780,780,780,780,780,780,780,780,780,780,780,780,780,780,780,780,780,780,780,780,780,780,782,782,782,782,782,782,782,782,782,782,782,782,782,782,782,782,782,782,782,782,782,782,782,782,782,782,782,782,782,782,782,783,783,784,784,784,784,784,784,784,784,784,784,784,784,784,784,784,784,784,784,784,784,784,784,784,784,784,784,784,784,784,784,784,784,784,784,784,784,784,784,784,784,784,784,786,787,791,799,805,811,815,816,817,818,819,820,822,823,825,830,835,868,908,961,1032,1116,1316,1375,1419,1439,1449,1455,1456,1456,1456,1456,1439,1409,1336,1285,1249,1224,1222,1219,1210,1198,1179,1179,1184,1204,1226,1242,1242,1242,1233,1218,1172,1155],"ymouse":[630,630,630,630,630,630,630,630,630,630,630,630,630,630,630,630,630,630,630,630,630,630,630,629,629,629,629,629,629,629,629,629,629,629,629,629,629,629,629,629,629,629,629,629,629,629,629,629,629,629,629,629,629,628,628,627,627,627,627,627,627,627,627,627,627,627,627,627,627,627,627,627,627,627,627,627,627,627,627,627,627,627,627,627,627,627,627,627,627,627,627,627,627,627,627,627,627,628,629,629,629,629,629,625,624,621,620,619,618,617,615,614,611,609,590,561,519,468,412,243,169,104,65,40,16,13,10,7,6,0,0,0,0,0,0,2,11,25,40,74,76,79,83,86,87,87,87,86,83,75,71],"timestamp_mouse":[18,46,58,78,98,119,139,159,178,197,217,239,259,279,298,318,339,357,378,398,417,438,459,478,498,517,539,558,579,598,618,638,658,678,698,718,738,758,778,798,818,838,857,878,899,919,938,958,979,999,1018,1039,1059,1079,1098,1118,1139,1158,1178,1199,1218,1238,1259,1278,1299,1319,1339,1358,1379,1397,1418,1438,1457,1478,1497,1518,1537,1559,1578,1598,1617,1638,1657,1677,1699,1718,1738,1758,1779,1797,1818,1839,1859,1879,1897,1918,1937,1959,1978,1999,2018,2038,2058,2079,2098,2118,2139,2158,2177,2198,2218,2238,2259,2278,2299,2319,2339,2358,2379,2398,2418,2438,2458,2479,2499,2518,2538,2559,2578,2599,2618,2638,2658,2678,2698,2719,2738,2758,2779,2799,2818,2838,2858,2879,2898,2918,2938,2959,2978,2998,3018],"xSR":741.5,"ySR":573.95,"xT1":424.9,"yT1":0,"xT2":1058.1,"yT2":0,"toosoon":0,"cond_shown":"Congruent","ratio_trial":100,"L_num":7,"L_den":14,"R_num":9,"R_den":15,"correct_side":2,"subjID":"saramayorgavilla17","gender":"1","school":"sexto","age":"10"},{"start_time":1551887010729,"click_time":1551887012761,"finger_time":1551887012079,"fix_duration":1088.9320769506974,"trial":6,"RT":1350,"MT":682,"sideResp":2,"stimulus":[],"xmouse":[791,791,791,791,791,791,788,787,780,779,779,779,779,779,779,779,779,779,779,779,779,779,779,779,779,779,779,779,779,779,779,779,779,779,779,779,779,779,779,779,779,779,779,779,779,779,779,779,779,779,779,779,779,779,779,779,779,779,779,779,779,779,779,779,789,806,830,874,1033,1151,1280,1405,1501,1545,1540,1539,1536,1532,1512,1492,1469,1453,1439,1417,1400,1386,1369,1347,1304,1280,1261,1245,1231,1214,1212,1212,1212,1212,1211,1201,1178,1142],"ymouse":[582,582,582,582,582,582,587,589,602,606,607,607,607,607,607,607,607,607,607,607,607,607,607,607,607,607,607,607,607,607,607,607,607,607,607,607,607,607,607,607,607,607,607,607,607,607,607,607,607,607,607,607,607,607,607,607,607,607,607,607,607,607,607,607,604,595,582,552,432,329,191,28,0,0,0,0,0,0,9,12,14,14,16,23,31,39,45,54,68,72,75,75,76,81,82,82,82,82,82,82,84,86],"timestamp_mouse":[9,40,50,70,91,111,130,151,170,191,209,230,250,269,289,310,331,351,370,391,410,430,449,470,491,511,530,550,570,591,609,630,651,670,690,711,730,751,770,789,810,830,850,870,890,910,931,951,971,990,1010,1030,1050,1070,1090,1110,1130,1150,1171,1189,1210,1230,1250,1271,1290,1310,1330,1350,1370,1390,1411,1430,1449,1469,1490,1509,1529,1551,1570,1591,1611,1630,1650,1670,1690,1711,1730,1750,1769,1789,1811,1830,1851,1871,1889,1910,1930,1951,1971,1990,2011,2031],"xSR":741.5,"ySR":573.95,"xT1":424.9,"yT1":0,"xT2":1058.1,"yT2":0,"toosoon":0,"cond_shown":"Incongruent","ratio_trial":200,"L_num":3,"L_den":4,"R_num":11,"R_den":20,"correct_side":1,"subjID":"saramayorgavilla17","gender":"1","school":"sexto","age":"10"},{"start_time":1551887017217,"click_time":1551887019280,"finger_time":1551887018880,"fix_duration":676.4642316616566,"trial":7,"RT":1663,"MT":400,"sideResp":1,"stimulus":[],"xmouse":[793,793,793,793,793,793,793,793,793,793,793,793,793,793,793,793,793,793,793,793,793,793,793,793,793,793,793,793,793,793,793,793,793,793,793,793,793,793,793,793,793,793,793,793,793,793,793,793,793,793,793,793,793,793,793,793,793,793,793,793,793,793,793,793,793,793,793,793,793,793,793,793,793,793,793,793,793,793,793,793,793,789,776,731,704,669,632,592,559,533,533,533,533,533,532,532,532,532,532,532,532,530,525,519],"ymouse":[648,648,648,648,648,648,648,648,648,648,648,648,648,648,648,648,648,648,648,648,648,648,648,648,648,648,648,648,648,648,648,648,648,648,648,648,648,648,648,648,648,648,648,648,648,648,648,648,648,648,648,648,648,648,648,648,648,648,648,648,648,648,648,648,648,648,648,648,648,648,648,648,648,648,648,648,648,647,645,641,634,619,587,506,458,392,298,196,123,76,76,76,76,76,75,75,75,75,75,75,75,75,75,75],"timestamp_mouse":[9,22,45,63,83,102,122,143,161,182,201,222,242,262,283,302,322,342,362,382,401,422,442,462,482,501,522,542,562,582,602,623,642,663,681,701,722,743,762,782,803,822,843,861,882,902,922,942,962,982,1002,1022,1043,1062,1083,1101,1123,1142,1162,1182,1201,1223,1243,1262,1282,1302,1323,1342,1362,1382,1403,1423,1442,1462,1482,1501,1522,1541,1563,1582,1601,1623,1642,1663,1682,1702,1722,1743,1762,1781,1802,1823,1843,1862,1882,1902,1922,1942,1963,1982,2002,2023,2043,2062],"xSR":741.5,"ySR":573.95,"xT1":424.9,"yT1":0,"xT2":1058.1,"yT2":0,"toosoon":0,"cond_shown":"Congruent","ratio_trial":300,"L_num":11,"L_den":22,"R_num":2,"R_den":10,"correct_side":1,"subjID":"saramayorgavilla17","gender":"1","school":"sexto","age":"10"},{"start_time":1551887021563,"click_time":1551887023199,"finger_time":1551887022699,"fix_duration":301.38259938498624,"trial":8,"RT":1136,"MT":500,"sideResp":1,"stimulus":[],"xmouse":[773,773,773,773,773,773,773,773,773,773,773,773,773,773,773,773,773,773,773,773,773,773,773,773,773,773,773,773,773,773,773,773,773,773,773,773,773,773,773,773,773,773,773,773,773,773,773,773,773,773,773,773,773,773,773,773,765,757,752,745,712,687,671,662,659,657,655,654,653,653,650,638,631,621,619,618,614,607,593,576,555,513],"ymouse":[647,647,647,647,647,647,647,647,647,647,647,647,647,647,647,647,647,647,647,647,647,647,647,647,647,647,647,647,647,647,647,647,647,647,647,647,647,647,647,647,647,647,647,647,647,647,647,647,647,647,647,647,647,647,644,625,548,494,455,411,297,229,197,181,176,174,169,167,166,165,158,140,134,130,130,130,129,126,119,112,103,81],"timestamp_mouse":[18,40,56,77,96,117,136,156,175,196,216,237,257,276,296,316,337,356,376,396,416,437,456,476,496,517,537,556,575,597,617,637,655,676,696,716,737,756,776,797,817,837,856,876,897,917,935,956,977,996,1017,1037,1057,1077,1096,1117,1136,1156,1176,1197,1217,1237,1256,1276,1297,1316,1336,1356,1376,1397,1416,1437,1456,1476,1496,1516,1536,1557,1576,1597,1617,1636],"xSR":741.5,"ySR":573.95,"xT1":424.9,"yT1":0,"xT2":1058.1,"yT2":0,"toosoon":0,"cond_shown":"Incongruent","ratio_trial":300,"L_num":2,"L_den":4,"R_num":6,"R_den":30,"correct_side":1,"subjID":"saramayorgavilla17","gender":"1","school":"sexto","age":"10"},{"start_time":1551887024592,"click_time":1551887026580,"finger_time":1551887026199,"fix_duration":250,"trial":9,"RT":1607,"MT":381,"sideResp":2,"stimulus":[],"xmouse":[781,781,781,781,781,781,781,781,781,781,781,781,781,781,781,781,781,781,781,781,781,781,781,781,781,781,781,781,781,781,781,781,781,781,781,781,781,781,781,781,781,781,781,781,781,781,781,781,781,781,781,781,781,781,781,781,781,781,781,781,781,781,781,781,781,781,781,781,781,781,781,781,781,781,781,781,782,788,806,833,895,945,978,1011,1040,1097,1124,1141,1151,1156,1156,1156,1156,1156,1156,1156,1155,1154,1150,1150],"ymouse":[643,643,643,643,643,643,643,643,643,643,643,643,643,643,643,643,643,643,643,643,643,643,643,643,643,643,643,643,643,643,643,643,643,643,643,643,643,643,643,643,643,643,643,643,643,643,643,643,643,643,643,643,643,643,643,643,643,643,643,643,643,643,643,643,643,643,643,643,643,643,643,643,643,643,643,643,644,642,628,603,531,468,424,375,334,256,217,190,176,168,164,164,164,164,164,160,152,138,116,77],"timestamp_mouse":[10,38,47,67,87,107,128,147,167,187,207,227,247,267,288,307,327,348,366,387,408,426,448,466,487,506,527,547,568,588,607,627,647,668,688,707,728,748,766,788,808,828,847,868,888,907,927,947,967,988,1007,1027,1048,1067,1087,1108,1127,1147,1168,1188,1207,1227,1248,1268,1287,1307,1327,1348,1368,1386,1408,1428,1448,1468,1487,1507,1526,1548,1567,1587,1607,1627,1647,1668,1687,1707,1727,1747,1767,1787,1807,1827,1847,1867,1887,1907,1928,1947,1968,1988],"xSR":741.5,"ySR":573.95,"xT1":424.9,"yT1":0,"xT2":1058.1,"yT2":0,"toosoon":0,"cond_shown":"Incongruent","ratio_trial":100,"L_num":13,"L_den":26,"R_num":6,"R_den":10,"correct_side":2,"subjID":"saramayorgavilla17","gender":"1","school":"sexto","age":"10"},{"start_time":1551887028138,"click_time":1551887031699,"finger_time":1551887029359,"fix_duration":377.8762907661408,"trial":10,"RT":1221,"MT":2340,"sideResp":1,"stimulus":[],"xmouse":[802,802,802,802,802,802,801,800,794,792,791,790,789,788,787,787,787,787,787,787,787,787,787,787,787,787,787,787,787,787,787,787,787,787,787,787,787,787,787,787,787,787,787,787,787,787,787,787,787,787,787,787,789,793,796,798,801,804,815,821,828,834,838,840,840,840,840,840,840,840,840,840,840,840,840,840,840,840,840,840,840,840,840,840,840,840,840,840,840,841,843,844,844,844,844,844,844,844,844,844,844,844,844,844,844,844,844,843,833,826,824,822,821,821,821,821,820,820,819,817,817,817,817,817,817,817,817,817,817,817,817,817,817,817,817,817,816,816,814,814,814,814,814,814,814,814,814,814,814,814,814,814,814,814,814,814,814,814,814,818,822,830,836,843,843,843,843,843,839,833,826,816,795,705,674,630,580,518,436],"ymouse":[582,582,582,582,582,582,583,585,595,599,601,604,606,609,610,610,610,610,610,610,610,610,610,610,610,610,610,610,610,610,610,610,610,610,610,610,610,610,610,610,610,610,610,610,610,610,610,610,610,610,611,611,611,610,608,607,605,602,594,587,577,568,562,561,561,561,561,561,561,561,561,560,560,560,560,560,560,560,560,560,560,560,560,560,560,560,560,560,560,559,557,557,557,557,557,557,557,557,557,557,557,557,557,557,557,557,557,558,569,579,584,588,589,590,590,590,591,592,595,597,597,597,597,597,598,598,598,598,598,598,598,598,598,598,598,598,599,600,601,601,601,601,601,601,601,601,601,601,601,601,601,601,601,601,601,601,601,601,601,591,584,563,530,488,471,462,452,443,410,388,367,343,305,202,181,156,131,105,59],"timestamp_mouse":[12,22,40,61,82,102,121,142,161,180,201,222,241,261,281,301,321,342,362,380,401,421,442,461,482,501,522,542,561,581,601,620,641,662,681,702,721,741,762,782,802,821,842,862,881,900,921,942,961,981,1002,1021,1042,1061,1080,1102,1121,1141,1160,1182,1201,1221,1241,1260,1281,1302,1320,1342,1360,1381,1400,1421,1441,1462,1480,1501,1520,1542,1562,1582,1601,1620,1642,1661,1681,1700,1722,1742,1761,1781,1800,1821,1841,1862,1882,1902,1921,1941,1961,1982,2000,2021,2041,2061,2082,2102,2120,2141,2161,2182,2201,2220,2241,2261,2282,2301,2321,2341,2361,2381,2400,2422,2442,2461,2481,2502,2521,2541,2562,2580,2601,2622,2642,2660,2682,2701,2721,2742,2761,2781,2802,2822,2840,2861,2882,2901,2920,2942,2961,2981,3002,3021,3042,3061,3081,3102,3122,3140,3161,3180,3201,3221,3241,3261,3281,3300,3321,3341,3362,3381,3400,3420,3441,3461,3481,3501,3522,3541,3561],"xSR":741.5,"ySR":573.95,"xT1":424.9,"yT1":0,"xT2":1058.1,"yT2":0,"toosoon":0,"cond_shown":"Congruent","ratio_trial":300,"L_num":11,"L_den":22,"R_num":1,"R_den":5,"correct_side":1,"subjID":"saramayorgavilla17","gender":"1","school":"sexto","age":"10"},{"start_time":1551887033102,"click_time":1551887034798,"finger_time":1551887033998,"fix_duration":501.8130572531757,"trial":11,"RT":896,"MT":800,"sideResp":2,"stimulus":[],"xmouse":[796,796,796,796,795,795,795,795,795,795,795,795,795,795,795,795,795,795,795,795,795,795,795,795,795,795,795,795,795,795,795,795,795,795,795,795,795,795,795,795,795,795,796,803,862,876,881,882,882,882,882,882,882,882,882,883,886,890,895,908,913,915,916,916,916,916,916,916,912,905,904,901,900,900,900,900,900,900,901,916,938,960,993,1025,1094],"ymouse":[624,624,624,624,624,624,624,624,624,624,624,624,624,624,624,624,624,624,624,624,624,624,624,624,624,624,624,624,624,624,624,624,624,624,624,624,624,624,624,624,624,624,618,607,459,413,395,390,390,390,390,390,390,390,390,388,379,369,355,324,310,301,298,298,297,297,297,296,296,294,294,293,293,293,293,293,293,293,293,289,280,254,209,162,97],"timestamp_mouse":[18,38,56,77,97,117,136,158,177,197,217,237,258,277,296,317,337,356,377,397,417,437,457,477,497,518,537,556,576,597,616,637,656,678,697,717,737,758,777,798,816,837,857,877,896,917,937,957,977,998,1017,1038,1057,1077,1097,1117,1137,1157,1176,1197,1218,1237,1257,1276,1297,1318,1338,1358,1377,1397,1418,1437,1456,1478,1497,1517,1537,1556,1577,1597,1617,1637,1658,1677,1696],"xSR":741.5,"ySR":573.95,"xT1":424.9,"yT1":0,"xT2":1058.1,"yT2":0,"toosoon":0,"cond_shown":"Congruent","ratio_trial":100,"L_num":1,"L_den":2,"R_num":3,"R_den":5,"correct_side":2,"subjID":"saramayorgavilla17","gender":"1","school":"sexto","age":"10"},{"start_time":1551887036099,"click_time":1551887038099,"finger_time":1551887037580,"fix_duration":278.4489204842329,"trial":12,"RT":1481,"MT":519,"sideResp":2,"stimulus":[],"xmouse":[765,765,765,765,765,765,765,765,765,765,765,765,765,765,765,765,765,765,765,765,765,765,765,765,765,765,765,765,765,765,765,765,765,765,765,765,765,765,767,767,767,767,767,767,767,767,767,767,767,767,767,767,767,767,767,767,767,767,767,767,767,767,767,767,767,767,767,767,767,767,767,767,770,781,844,871,894,900,903,910,919,933,950,983,1023,1077,1099,1106,1108,1109,1109,1109,1109,1109,1109,1124,1130,1138,1141,1142,1142],"ymouse":[650,650,650,650,650,650,650,650,650,650,650,650,650,650,650,650,650,650,650,650,650,650,650,650,650,650,650,650,650,650,650,650,650,650,650,650,650,650,650,650,650,650,650,650,650,650,650,650,650,650,650,650,650,650,650,650,650,650,650,650,650,650,650,650,650,650,650,650,650,650,650,649,642,606,473,432,411,409,407,400,388,372,360,342,316,270,247,236,231,231,231,231,231,230,228,195,170,142,119,100,95],"timestamp_mouse":[10,20,41,62,80,99,119,140,160,181,200,221,239,261,280,300,319,339,361,381,401,420,439,460,479,500,521,541,559,581,601,621,640,661,680,700,719,741,760,780,800,820,840,861,880,900,919,940,961,981,1000,1020,1040,1060,1081,1100,1120,1139,1160,1180,1200,1220,1239,1259,1279,1300,1321,1339,1360,1381,1400,1420,1441,1461,1481,1499,1520,1539,1561,1581,1599,1619,1640,1661,1680,1700,1721,1741,1760,1779,1800,1820,1840,1860,1879,1899,1921,1940,1961,1981,1999],"xSR":741.5,"ySR":573.95,"xT1":424.9,"yT1":0,"xT2":1058.1,"yT2":0,"toosoon":0,"cond_shown":"Congruent","ratio_trial":200,"L_num":7,"L_den":15,"R_num":18,"R_den":27,"correct_side":2,"subjID":"saramayorgavilla17","gender":"1","school":"sexto","age":"10"},{"start_time":1551887040164,"click_time":1551887042519,"finger_time":1551887041639,"fix_duration":944.48784394004,"trial":13,"RT":1475,"MT":880,"sideResp":2,"stimulus":[],"xmouse":[797,794,793,793,793,793,793,793,793,793,793,793,793,793,793,793,793,793,793,793,793,793,793,793,793,793,793,793,793,793,793,793,793,793,793,793,793,793,792,792,792,792,792,792,792,792,792,792,792,792,792,792,792,792,792,792,792,792,792,792,792,792,792,792,792,792,792,792,792,796,798,817,840,856,866,871,875,875,875,875,875,875,875,875,875,875,879,890,906,925,938,960,971,982,1007,1049,1137,1170,1192,1206,1214,1216,1216,1216,1215,1214,1200,1189,1178,1172,1166,1161,1160,1160,1160,1160,1160,1158],"ymouse":[640,639,638,638,638,638,638,638,638,638,638,638,638,638,638,638,638,638,638,638,638,638,638,638,638,638,638,638,638,638,638,638,638,638,638,638,638,638,637,637,637,637,637,637,637,637,637,637,637,637,637,637,637,637,637,637,637,637,637,637,637,637,637,637,637,637,637,636,635,634,633,632,625,617,608,601,590,589,588,587,587,587,587,587,587,586,578,563,545,523,505,478,458,431,372,295,130,70,21,0,0,0,0,0,0,0,2,7,12,14,17,20,20,20,20,20,20,22],"timestamp_mouse":[15,40,54,75,94,115,136,154,176,196,216,236,254,276,296,314,336,355,374,395,415,434,456,476,495,515,536,556,576,595,616,636,656,676,695,716,736,754,774,796,816,834,855,876,894,916,936,954,975,994,1015,1036,1054,1076,1095,1114,1135,1156,1176,1195,1216,1234,1254,1276,1295,1315,1336,1355,1375,1396,1415,1435,1455,1475,1496,1515,1536,1555,1575,1594,1616,1636,1655,1676,1695,1715,1734,1754,1775,1795,1815,1836,1855,1875,1896,1916,1935,1956,1976,1996,2015,2035,2055,2075,2094,2115,2135,2155,2175,2195,2215,2235,2255,2275,2295,2316,2334,2355],"xSR":741.5,"ySR":573.95,"xT1":424.9,"yT1":0,"xT2":1058.1,"yT2":0,"toosoon":0,"cond_shown":"Incongruent","ratio_trial":300,"L_num":4,"L_den":20,"R_num":2,"R_den":4,"correct_side":2,"subjID":"saramayorgavilla17","gender":"1","school":"sexto","age":"10"},{"start_time":1551887044006,"click_time":1551887045599,"finger_time":1551887045259,"fix_duration":506.71020392678304,"trial":14,"RT":1253,"MT":340,"sideResp":1,"stimulus":[],"xmouse":[788,788,788,788,788,788,790,790,790,790,790,790,790,790,790,790,790,790,790,790,790,790,790,790,790,790,790,790,790,790,790,790,790,790,790,790,790,791,791,791,791,791,791,791,791,791,791,791,791,791,791,791,791,791,791,791,791,791,791,785,779,776,769,761,731,696,658,623,596,568,566,566,566,566,566,566,566,562,551,520],"ymouse":[621,621,621,621,621,621,621,621,621,621,621,621,621,621,621,621,621,621,621,621,621,621,621,621,621,621,621,621,621,621,621,621,621,621,621,621,621,619,618,618,618,618,618,618,618,617,616,616,614,613,613,613,613,613,613,613,613,611,610,598,587,581,568,549,448,334,201,80,8,0,0,0,0,0,0,0,0,1,13,43],"timestamp_mouse":[13,40,53,73,94,112,133,154,172,194,213,234,253,273,294,312,333,353,372,393,412,432,454,472,492,512,533,554,574,593,612,633,653,673,692,712,734,753,773,793,813,834,852,873,894,912,934,954,974,993,1013,1034,1052,1073,1093,1112,1134,1153,1173,1193,1212,1233,1253,1273,1293,1312,1333,1353,1373,1393,1414,1434,1453,1473,1492,1514,1533,1554,1574,1593],"xSR":741.5,"ySR":573.95,"xT1":424.9,"yT1":0,"xT2":1058.1,"yT2":0,"toosoon":0,"cond_shown":"Congruent","ratio_trial":100,"L_num":10,"L_den":25,"R_num":3,"R_den":10,"correct_side":1,"subjID":"saramayorgavilla17","gender":"1","school":"sexto","age":"10"},{"start_time":1551887047091,"click_time":1551887048499,"finger_time":1551887047919,"fix_duration":250,"trial":15,"RT":828,"MT":580,"sideResp":1,"stimulus":[],"xmouse":[794,794,794,794,794,794,794,794,794,794,794,794,794,794,793,789,786,786,786,786,786,786,786,786,786,786,786,786,786,786,786,786,786,786,786,786,786,785,784,783,783,782,781,781,781,781,781,781,781,781,781,781,781,781,781,776,763,745,719,697,653,628,608,590,588,586,586,584,578,561,498],"ymouse":[601,601,601,601,601,601,601,601,601,601,601,601,601,601,601,601,599,599,599,599,599,599,599,599,599,599,599,599,599,599,599,599,599,599,599,598,595,592,588,583,576,573,569,566,564,563,562,562,562,562,562,562,562,562,561,548,517,474,405,331,144,42,0,0,0,0,0,0,2,11,42],"timestamp_mouse":[8,40,48,68,87,108,128,148,167,188,207,227,248,267,289,307,329,348,368,387,409,428,448,468,487,509,528,547,568,589,608,628,648,669,689,708,728,748,768,789,808,828,848,867,889,908,928,948,969,987,1008,1028,1049,1068,1089,1109,1127,1147,1168,1189,1208,1227,1248,1268,1287,1307,1328,1348,1368,1389,1407],"xSR":741.5,"ySR":573.95,"xT1":424.9,"yT1":0,"xT2":1058.1,"yT2":0,"toosoon":0,"cond_shown":"Incongruent","ratio_trial":200,"L_num":3,"L_den":10,"R_num":1,"R_den":2,"correct_side":2,"subjID":"saramayorgavilla17","gender":"1","school":"sexto","age":"10"},{"start_time":1551887052640,"click_time":1551887054299,"finger_time":1551887054120,"fix_duration":698.8380454357577,"trial":16,"RT":1480,"MT":179,"sideResp":2,"stimulus":[],"xmouse":[800,800,800,800,800,800,800,800,800,800,800,800,800,800,800,800,800,800,802,803,803,803,803,803,803,803,803,803,803,803,803,803,803,803,803,803,803,803,803,803,803,803,803,803,803,803,803,803,803,803,803,803,803,803,803,803,803,803,803,803,803,803,803,803,803,803,803,803,803,803,803,804,816,834,869,914,972,1038,1095,1097,1097,1097,1097,1103],"ymouse":[648,648,648,648,648,648,648,648,648,648,648,648,648,648,648,648,648,647,645,644,644,644,643,643,643,643,642,642,641,641,640,640,639,639,639,639,639,639,639,639,639,639,639,639,639,639,639,639,639,639,639,639,639,639,639,639,639,639,639,639,639,639,639,639,639,639,639,639,639,639,639,638,627,610,565,488,394,274,113,106,104,102,101,86],"timestamp_mouse":[1,19,49,60,80,98,119,139,159,179,198,218,240,260,279,299,320,339,359,380,398,419,439,460,479,499,520,539,558,578,599,619,639,659,679,699,718,738,759,778,799,819,838,860,880,898,919,940,960,978,999,1019,1039,1060,1080,1098,1118,1140,1158,1179,1199,1218,1240,1259,1279,1300,1320,1338,1360,1379,1400,1420,1440,1460,1480,1498,1518,1540,1559,1579,1599,1619,1640,1659],"xSR":741.5,"ySR":573.95,"xT1":424.9,"yT1":0,"xT2":1058.1,"yT2":0,"toosoon":0,"cond_shown":"Congruent","ratio_trial":200,"L_num":3,"L_den":12,"R_num":9,"R_den":20,"correct_side":2,"subjID":"saramayorgavilla17","gender":"1","school":"sexto","age":"10"},{"start_time":1551887057540,"click_time":1551887059179,"finger_time":1551887059080,"fix_duration":1420.205052098004,"trial":17,"RT":1540,"MT":99,"sideResp":1,"stimulus":[],"xmouse":[798,798,798,798,798,798,798,798,798,798,798,798,798,798,798,798,798,798,798,798,798,798,798,798,798,798,798,798,798,798,798,798,798,798,798,798,798,798,798,798,798,798,798,798,798,798,798,798,798,798,798,798,798,798,798,798,798,798,798,798,798,798,798,798,798,798,798,798,798,798,798,798,798,798,798,794,732,683,629,569,505,458],"ymouse":[632,632,632,632,632,632,632,632,632,632,632,632,632,632,632,632,632,632,632,632,632,632,632,632,632,632,632,632,632,632,632,632,632,632,632,632,632,632,632,632,632,632,632,632,632,632,632,632,632,632,632,632,632,632,632,632,632,632,632,632,632,632,632,632,632,632,632,632,632,632,632,632,632,632,631,617,504,425,344,235,133,65],"timestamp_mouse":[19,41,60,79,100,120,140,160,180,200,219,239,260,280,299,318,338,360,381,398,419,438,460,479,499,519,539,558,579,598,618,638,659,679,698,720,739,760,778,800,820,838,859,879,900,919,938,960,979,1000,1019,1040,1059,1078,1100,1118,1140,1160,1178,1199,1220,1238,1259,1280,1299,1319,1338,1360,1380,1400,1419,1439,1459,1480,1499,1519,1540,1559,1579,1599,1618,1639],"xSR":741.5,"ySR":573.95,"xT1":424.9,"yT1":0,"xT2":1058.1,"yT2":0,"toosoon":0,"cond_shown":"Congruent","ratio_trial":300,"L_num":20,"L_den":25,"R_num":14,"R_den":28,"correct_side":1,"subjID":"saramayorgavilla17","gender":"1","school":"sexto","age":"10"},{"start_time":1551887061362,"click_time":1551887063059,"finger_time":1551887062659,"fix_duration":821.5057491109565,"trial":18,"RT":1297,"MT":400,"sideResp":2,"stimulus":[],"xmouse":[823,823,823,823,823,823,823,823,823,823,821,821,820,820,820,820,820,820,820,820,820,820,820,820,820,820,820,820,820,820,820,820,820,820,820,820,820,820,820,820,820,820,820,820,820,820,820,820,820,820,820,820,820,820,820,820,820,820,820,820,819,819,828,839,849,868,907,927,940,947,957,976,988,993,996,999,1004,1015,1029,1042,1056,1089,1100,1109,1120],"ymouse":[636,636,636,636,636,636,636,636,636,636,635,635,635,635,635,635,634,634,634,634,634,634,634,634,634,634,634,634,634,634,634,634,634,634,634,634,634,634,634,634,634,634,634,634,634,634,634,634,634,634,634,634,634,634,634,634,634,634,634,634,634,627,611,595,574,545,472,435,403,376,329,263,243,236,230,224,208,191,175,159,144,120,112,105,96],"timestamp_mouse":[17,49,57,78,96,117,138,157,177,196,216,238,258,276,297,318,337,357,378,396,416,437,456,478,498,517,537,556,577,596,618,636,657,678,696,717,738,756,777,796,817,838,857,878,898,918,937,956,977,998,1017,1036,1056,1077,1096,1118,1137,1157,1178,1197,1217,1237,1258,1277,1297,1317,1338,1356,1377,1398,1417,1437,1457,1476,1498,1517,1537,1557,1577,1598,1617,1636,1657,1677,1697],"xSR":741.5,"ySR":573.95,"xT1":424.9,"yT1":0,"xT2":1058.1,"yT2":0,"toosoon":0,"cond_shown":"Congruent","ratio_trial":200,"L_num":13,"L_den":26,"R_num":14,"R_den":20,"correct_side":2,"subjID":"saramayorgavilla17","gender":"1","school":"sexto","age":"10"},{"start_time":1551887065709,"click_time":1551887067539,"finger_time":1551887066998,"fix_duration":809.7857803380265,"trial":19,"RT":1289,"MT":541,"sideResp":2,"stimulus":[],"xmouse":[779,779,779,779,779,779,779,779,779,779,779,779,779,779,779,779,779,779,779,779,779,779,779,779,779,779,779,779,779,779,779,779,779,779,779,779,779,779,779,779,779,779,779,779,779,779,779,779,779,779,779,779,779,779,771,767,758,754,754,754,754,754,754,754,750,745,742,739,737,737,737,737,737,737,739,746,761,775,789,825,845,860,879,892,912,927,942,961,989,1074,1110,1138],"ymouse":[634,634,634,634,634,634,634,634,634,634,634,634,634,634,634,634,634,634,634,634,634,634,634,634,634,634,634,634,634,634,634,634,634,634,634,634,634,634,634,634,634,634,634,634,634,634,634,634,634,634,634,634,634,634,615,608,592,588,588,588,588,588,588,585,523,478,445,425,416,414,414,414,414,414,414,414,415,416,416,398,388,383,375,369,358,345,333,317,294,198,132,65],"timestamp_mouse":[11,31,50,70,89,111,131,150,169,191,209,229,251,271,290,309,331,350,370,390,410,430,450,469,491,511,529,551,569,591,609,629,651,670,690,709,731,749,769,790,809,830,851,870,890,910,931,951,970,991,1010,1031,1049,1071,1090,1110,1130,1150,1171,1190,1210,1231,1251,1270,1289,1309,1330,1350,1370,1390,1409,1430,1450,1470,1490,1510,1530,1551,1570,1591,1609,1629,1650,1671,1690,1710,1731,1749,1770,1790,1811,1830],"xSR":741.5,"ySR":573.95,"xT1":424.9,"yT1":0,"xT2":1058.1,"yT2":0,"toosoon":0,"cond_shown":"Congruent","ratio_trial":200,"L_num":20,"L_den":25,"R_num":9,"R_den":15,"correct_side":1,"subjID":"saramayorgavilla17","gender":"1","school":"sexto","age":"10"},{"start_time":1551887072632,"click_time":1551887074538,"finger_time":1551887074019,"fix_duration":250,"trial":20,"RT":1387,"MT":519,"sideResp":1,"stimulus":[],"xmouse":[808,809,811,812,815,815,815,815,815,815,815,815,815,816,822,827,830,830,830,830,830,830,830,830,830,830,830,830,830,830,830,830,830,830,830,830,830,830,830,830,830,830,830,830,830,830,830,830,830,830,830,830,830,830,830,830,830,830,830,830,830,830,830,830,830,830,830,832,837,845,852,860,862,859,846,826,802,782,764,756,751,745,738,719,702,674,636,589,513,498,494,493,492,490,488,482],"ymouse":[644,644,645,646,648,648,648,648,648,648,648,648,648,648,648,648,648,648,648,648,648,648,648,648,648,648,648,648,648,648,648,648,648,648,648,648,648,648,648,648,648,648,648,648,648,648,648,648,648,648,648,648,648,648,648,648,648,648,648,648,648,648,648,648,648,648,648,648,639,611,579,527,380,295,197,96,27,0,0,0,0,0,0,0,0,0,0,0,0,0,0,0,0,0,0,1],"timestamp_mouse":[10,27,47,67,88,106,126,148,167,187,207,228,248,267,287,307,327,348,367,386,407,426,448,466,487,507,528,546,568,587,608,626,648,666,686,708,728,747,766,787,806,827,847,867,886,906,926,948,966,987,1007,1028,1046,1067,1088,1108,1127,1146,1167,1188,1206,1227,1247,1267,1287,1307,1327,1346,1368,1387,1407,1427,1448,1466,1487,1506,1528,1547,1568,1588,1608,1626,1647,1668,1686,1706,1727,1747,1766,1788,1808,1827,1847,1867,1887,1906],"xSR":741.5,"ySR":573.95,"xT1":424.9,"yT1":0,"xT2":1058.1,"yT2":0,"toosoon":0,"cond_shown":"Incongruent","ratio_trial":100,"L_num":3,"L_den":5,"R_num":8,"R_den":16,"correct_side":1,"subjID":"saramayorgavilla17","gender":"1","school":"sexto","age":"10"},{"start_time":1551887076270,"click_time":1551887078219,"finger_time":1551887077598,"fix_duration":610.7875824190968,"trial":21,"RT":1328,"MT":621,"sideResp":1,"stimulus":[],"xmouse":[792,792,792,792,792,792,792,792,792,792,792,792,792,792,792,792,792,792,792,792,792,792,792,792,792,792,792,792,792,792,792,792,792,792,792,792,792,792,792,792,792,792,792,792,792,792,792,792,792,792,792,792,792,792,792,792,792,792,792,792,792,792,792,792,792,789,754,724,701,679,668,665,665,665,665,665,665,659,645,633,626,596,588,582,577,573,570,570,570,570,570,569,567,562,557,552,529,523],"ymouse":[657,657,657,657,657,657,657,657,657,657,657,657,657,657,657,657,657,657,657,657,657,657,657,657,657,657,657,657,657,657,657,657,657,657,657,657,657,657,657,657,657,657,657,657,657,657,657,657,657,657,657,657,657,657,657,657,657,657,657,657,657,657,657,657,653,641,559,501,454,421,405,400,400,400,400,399,360,322,276,242,212,108,78,54,38,29,21,21,21,21,21,21,21,20,19,19,19,20],"timestamp_mouse":[9,37,49,68,88,110,129,148,169,188,210,229,249,268,288,310,330,350,369,389,410,428,449,469,489,510,530,549,569,588,610,629,648,670,688,709,729,748,770,790,808,829,849,870,889,909,930,949,969,989,1009,1028,1050,1069,1088,1109,1130,1149,1170,1189,1209,1230,1250,1270,1289,1309,1328,1349,1369,1390,1409,1429,1449,1469,1489,1509,1529,1549,1570,1589,1610,1629,1648,1668,1690,1709,1728,1750,1769,1789,1808,1829,1849,1868,1890,1909,1928,1949],"xSR":741.5,"ySR":573.95,"xT1":424.9,"yT1":0,"xT2":1058.1,"yT2":0,"toosoon":0,"cond_shown":"Incongruent","ratio_trial":100,"L_num":9,"L_den":15,"R_num":13,"R_den":26,"correct_side":1,"subjID":"saramayorgavilla17","gender":"1","school":"sexto","age":"10"},{"start_time":1551887080638,"click_time":1551887082138,"finger_time":1551887081498,"fix_duration":1157.3590161750533,"trial":22,"RT":860,"MT":640,"sideResp":2,"stimulus":[],"xmouse":[808,808,808,808,808,808,808,808,808,808,808,808,808,808,808,808,808,808,808,808,808,808,808,808,808,808,808,808,808,808,808,808,808,808,808,808,808,808,808,808,808,813,826,860,882,910,940,973,1048,1079,1087,1090,1091,1091,1091,1091,1091,1091,1091,1091,1091,1091,1086,1076,1072,1069,1069,1069,1068,1068,1068,1068,1068,1068,1068,1069],"ymouse":[635,635,635,635,635,635,635,635,635,635,635,635,635,635,635,635,635,635,635,635,635,635,635,635,635,635,635,635,635,635,635,635,635,635,635,635,635,635,635,635,634,623,606,560,535,504,464,413,331,304,295,293,292,291,291,291,291,291,291,283,263,237,203,141,123,113,107,103,102,102,102,102,102,102,101,96],"timestamp_mouse":[12,21,41,74,80,101,121,142,161,181,200,221,241,261,280,300,321,342,362,382,402,421,440,461,482,501,521,540,562,582,602,622,640,662,680,702,721,741,762,781,802,821,841,860,880,901,921,941,961,981,1000,1021,1041,1061,1081,1102,1122,1142,1161,1180,1201,1221,1241,1261,1282,1302,1321,1342,1361,1380,1402,1421,1441,1461,1481,1500],"xSR":741.5,"ySR":573.95,"xT1":424.9,"yT1":0,"xT2":1058.1,"yT2":0,"toosoon":0,"cond_shown":"Incongruent","ratio_trial":200,"L_num":4,"L_den":30,"R_num":1,"R_den":3,"correct_side":2,"subjID":"saramayorgavilla17","gender":"1","school":"sexto","age":"10"},{"start_time":1551887083911,"click_time":1551887086080,"finger_time":1551887085320,"fix_duration":250,"trial":23,"RT":1409,"MT":760,"sideResp":2,"stimulus":[],"xmouse":[804,804,804,804,804,804,804,804,804,804,804,804,804,804,804,804,804,804,804,804,804,804,804,804,804,804,804,804,804,804,804,804,804,804,804,804,804,804,804,804,804,804,804,804,804,804,804,804,804,804,804,804,804,804,804,804,804,804,804,804,804,804,804,804,804,804,804,805,815,838,847,853,859,864,876,899,925,953,1030,1067,1103,1139,1163,1182,1196,1196,1197,1198,1199,1200,1197,1192,1184,1176,1160,1160,1160,1160,1160,1160,1160,1160,1160,1160,1160,1160,1160,1159,1157],"ymouse":[642,642,642,642,642,642,642,642,642,642,642,642,642,642,642,642,642,642,642,642,642,642,642,642,642,642,642,642,642,642,642,642,642,642,642,642,642,642,642,642,642,642,642,642,642,642,642,642,642,642,642,642,642,642,642,642,642,642,642,642,642,642,642,642,642,642,642,642,637,619,608,600,590,582,562,529,491,445,367,321,276,229,202,181,161,160,159,156,151,135,118,104,92,84,69,69,69,69,69,69,69,69,69,69,69,69,69,69,69],"timestamp_mouse":[9,40,47,68,88,107,128,147,169,188,208,228,249,268,289,308,328,348,369,387,408,428,447,468,489,507,528,549,568,589,607,629,647,669,689,708,729,748,769,788,808,829,848,869,889,907,928,949,967,989,1008,1028,1049,1069,1089,1108,1128,1147,1168,1187,1209,1228,1247,1267,1289,1308,1329,1348,1368,1387,1409,1428,1448,1468,1487,1507,1527,1548,1569,1587,1609,1628,1647,1668,1688,1709,1729,1747,1768,1787,1808,1827,1847,1868,1888,1908,1929,1948,1968,1988,2009,2027,2048,2068,2088,2107,2127,2148,2169],"xSR":741.5,"ySR":573.95,"xT1":424.9,"yT1":0,"xT2":1058.1,"yT2":0,"toosoon":0,"cond_shown":"Incongruent","ratio_trial":100,"L_num":12,"L_den":24,"R_num":9,"R_den":15,"correct_side":2,"subjID":"saramayorgavilla17","gender":"1","school":"sexto","age":"10"},{"start_time":1551887087688,"click_time":1551887089018,"finger_time":1551887088478,"fix_duration":687.1125128212741,"trial":24,"RT":790,"MT":540,"sideResp":1,"stimulus":[],"xmouse":[777,777,777,777,777,777,777,777,777,777,777,777,777,777,777,777,777,777,777,777,777,777,777,777,777,777,777,777,777,777,777,777,777,777,777,777,777,776,773,768,748,735,713,694,656,638,629,623,618,615,613,613,613,613,613,613,609,600,587,559,547,538,535,534,534,530,522],"ymouse":[636,636,636,636,636,636,636,636,636,636,636,636,636,636,636,636,636,636,636,636,636,636,636,636,636,636,636,636,636,636,636,636,636,636,636,636,625,605,584,561,485,414,336,263,171,136,116,101,91,85,82,82,82,81,79,78,74,68,61,47,41,37,36,36,35,35,35],"timestamp_mouse":[11,40,52,71,92,111,131,150,171,190,211,231,251,271,291,311,331,352,371,391,411,432,451,471,491,511,531,551,572,591,612,631,650,672,692,711,731,751,772,790,811,831,851,871,892,911,931,950,971,990,1010,1032,1052,1071,1090,1110,1130,1150,1171,1192,1211,1230,1250,1271,1292,1311,1330],"xSR":741.5,"ySR":573.95,"xT1":424.9,"yT1":0,"xT2":1058.1,"yT2":0,"toosoon":0,"cond_shown":"Congruent","ratio_trial":300,"L_num":18,"L_den":20,"R_num":9,"R_den":15,"correct_side":1,"subjID":"saramayorgavilla17","gender":"1","school":"sexto","age":"10"},{"start_time":1551887092848,"click_time":1551887094198,"finger_time":1551887093780,"fix_duration":567.1867978348567,"trial":25,"RT":932,"MT":418,"sideResp":1,"stimulus":[],"xmouse":[786,786,786,786,786,786,786,786,786,786,786,786,786,786,786,786,786,786,786,787,787,789,789,789,789,789,789,789,789,789,789,789,789,789,789,790,790,790,790,791,793,799,800,801,802,802,802,796,782,771,763,749,709,682,662,645,619,608,597,578,570,536,506,501,501,501,500,491],"ymouse":[650,650,650,650,650,650,650,650,650,650,650,650,650,650,650,650,650,650,650,649,648,648,648,648,648,648,648,648,648,648,648,648,648,648,648,647,647,647,647,646,644,630,621,612,597,581,543,523,486,457,425,379,256,198,152,114,63,46,33,12,6,0,0,0,0,0,0,6],"timestamp_mouse":[11,36,51,72,90,110,131,151,172,190,211,231,251,271,291,310,331,351,371,391,411,432,451,471,491,510,532,552,570,591,610,632,651,672,690,711,731,751,770,791,811,832,852,872,892,911,932,951,972,992,1012,1031,1051,1070,1091,1110,1132,1151,1171,1190,1211,1230,1250,1270,1292,1310,1332,1350],"xSR":741.5,"ySR":573.95,"xT1":424.9,"yT1":0,"xT2":1058.1,"yT2":0,"toosoon":0,"cond_shown":"Congruent","ratio_trial":200,"L_num":11,"L_den":22,"R_num":3,"R_den":10,"correct_side":1,"subjID":"saramayorgavilla17","gender":"1","school":"sexto","age":"10"},{"start_time":1551887096731,"click_time":1551887098419,"finger_time":1551887098060,"fix_duration":1470.5732995192152,"trial":26,"RT":1329,"MT":359,"sideResp":2,"stimulus":[],"xmouse":[774,774,774,774,774,774,774,774,774,774,774,774,774,774,774,774,774,774,774,774,774,774,774,774,774,774,774,774,774,774,774,774,774,774,774,774,774,774,774,774,775,777,780,784,785,786,786,787,789,789,790,790,791,792,792,792,792,792,792,792,792,794,795,801,814,829,851,866,907,926,936,947,959,977,993,1004,1018,1034,1053,1056,1059,1061,1064,1076,1081],"ymouse":[620,620,620,621,621,621,621,621,621,621,621,621,621,621,621,621,621,621,621,621,621,621,621,621,621,621,621,621,621,621,621,621,621,621,621,621,621,621,621,621,621,621,619,617,616,616,616,615,614,614,613,612,612,611,611,611,611,611,611,610,609,607,606,601,594,584,569,558,516,492,476,459,442,414,384,362,299,227,193,186,174,159,140,106,96],"timestamp_mouse":[10,30,48,69,88,109,128,149,167,188,207,229,247,267,288,308,328,348,367,388,407,429,447,469,488,509,528,549,568,587,607,628,648,667,687,707,728,749,768,788,808,828,849,868,888,908,929,947,968,988,1008,1029,1047,1068,1087,1108,1128,1148,1167,1188,1208,1228,1249,1269,1287,1309,1329,1349,1368,1387,1407,1428,1448,1469,1488,1508,1527,1547,1567,1588,1608,1628,1648,1668,1688],"xSR":741.5,"ySR":573.95,"xT1":424.9,"yT1":0,"xT2":1058.1,"yT2":0,"toosoon":0,"cond_shown":"Congruent","ratio_trial":200,"L_num":13,"L_den":26,"R_num":14,"R_den":20,"correct_side":2,"subjID":"saramayorgavilla17","gender":"1","school":"sexto","age":"10"},{"start_time":1551887101059,"click_time":1551887103040,"finger_time":1551887102520,"fix_duration":1260.346466572798,"trial":27,"RT":1461,"MT":520,"sideResp":1,"stimulus":[],"xmouse":[802,802,802,802,802,802,802,802,802,802,802,802,802,802,802,802,802,802,802,802,802,802,802,802,802,802,802,802,802,802,802,802,802,802,802,802,802,802,802,802,802,802,802,802,802,802,802,802,802,802,802,802,802,802,802,802,802,802,802,802,802,802,802,802,802,802,802,802,802,802,802,793,775,752,727,716,723,754,753,734,708,668,641,612,578,549,537,527,514,502,493,489,489,488,488,495,514,523,524],"ymouse":[649,649,649,649,649,649,649,649,649,649,649,649,649,649,649,649,649,649,649,649,649,649,649,649,649,649,649,649,649,649,649,649,649,649,649,649,649,649,649,649,649,649,649,649,649,649,649,649,649,649,649,649,649,649,649,649,649,649,649,649,649,649,649,649,649,649,649,649,649,649,646,600,532,454,364,275,31,0,0,0,0,7,30,61,117,166,177,181,183,185,186,186,186,186,183,172,137,103,83],"timestamp_mouse":[19,39,60,81,100,120,141,160,180,200,221,239,260,281,299,319,341,360,380,399,421,440,459,481,501,519,540,560,579,599,621,641,659,681,701,720,741,760,780,800,820,840,860,880,899,920,939,960,979,1001,1021,1040,1060,1080,1100,1121,1140,1159,1181,1201,1219,1239,1261,1280,1301,1320,1340,1360,1379,1401,1419,1440,1461,1481,1500,1520,1540,1560,1579,1600,1619,1639,1660,1680,1699,1721,1739,1759,1779,1800,1821,1841,1861,1881,1900,1920,1940,1961,1981],"xSR":741.5,"ySR":573.95,"xT1":424.9,"yT1":0,"xT2":1058.1,"yT2":0,"toosoon":0,"cond_shown":"Incongruent","ratio_trial":300,"L_num":8,"L_den":10,"R_num":9,"R_den":18,"correct_side":1,"subjID":"saramayorgavilla17","gender":"1","school":"sexto","age":"10"},{"start_time":1551887104468,"click_time":1551887106200,"finger_time":1551887105699,"fix_duration":507.84936219694197,"trial":28,"RT":1231,"MT":501,"sideResp":2,"stimulus":[],"xmouse":[795,795,795,795,795,795,795,795,795,795,795,795,795,795,795,795,795,795,795,795,795,795,795,795,795,795,795,795,795,795,795,795,795,795,795,795,795,795,795,795,795,795,795,795,795,795,795,795,795,795,795,795,795,795,795,795,796,797,803,809,822,868,909,960,1024,1082,1160,1175,1176,1176,1176,1176,1176,1175,1173,1169,1151,1142,1135,1130,1128,1122,1121,1120,1120,1118,1114],"ymouse":[656,656,656,656,656,656,656,656,656,656,656,656,656,656,656,656,656,656,656,656,656,656,656,656,656,656,656,656,656,656,656,656,656,656,656,656,656,656,656,656,656,656,656,656,656,656,656,656,656,656,656,656,656,656,656,656,656,656,656,652,646,616,586,540,438,324,118,51,43,42,40,35,30,23,17,8,0,0,0,0,0,0,0,0,0,0,10],"timestamp_mouse":[11,41,51,70,90,112,131,152,170,191,211,231,250,270,291,311,332,350,371,391,411,431,451,471,491,511,530,551,572,590,610,631,650,671,691,711,731,750,770,792,812,830,850,871,890,910,932,951,972,992,1011,1031,1051,1071,1091,1111,1131,1151,1170,1190,1212,1231,1252,1271,1291,1312,1332,1352,1371,1391,1412,1430,1451,1471,1491,1511,1530,1551,1571,1592,1611,1631,1651,1671,1691,1710,1731],"xSR":741.5,"ySR":573.95,"xT1":424.9,"yT1":0,"xT2":1058.1,"yT2":0,"toosoon":0,"cond_shown":"Incongruent","ratio_trial":200,"L_num":11,"L_den":20,"R_num":3,"R_den":4,"correct_side":2,"subjID":"saramayorgavilla17","gender":"1","school":"sexto","age":"10"},{"start_time":1551887107903,"click_time":1551887109999,"finger_time":1551887109238,"fix_duration":320.22566470111735,"trial":29,"RT":1335,"MT":761,"sideResp":2,"stimulus":[],"xmouse":[803,804,804,804,804,804,804,804,804,804,804,804,804,804,804,804,804,804,804,804,804,804,804,804,804,804,804,804,804,804,804,804,804,804,804,804,804,804,804,804,804,804,804,804,804,804,804,804,804,804,804,804,804,804,804,804,804,804,804,806,800,798,795,794,793,792,788,784,777,749,729,713,704,700,696,696,696,696,696,696,696,696,699,699,731,773,805,828,850,891,908,920,930,939,964,973,979,985,991,1003,1010,1021,1033,1051,1100],"ymouse":[615,615,615,615,615,615,615,615,615,615,615,615,615,615,615,615,615,615,615,615,615,615,615,615,615,615,615,615,615,615,615,615,615,615,615,615,615,615,615,615,615,615,615,615,615,615,615,615,615,615,615,615,615,615,615,615,615,615,615,611,603,600,597,596,594,588,573,549,503,357,289,254,234,221,212,212,212,212,212,212,212,212,215,215,239,257,266,268,268,241,226,211,198,184,154,143,130,117,105,93,90,88,88,88,89],"timestamp_mouse":[18,45,57,77,96,117,136,155,177,196,217,237,256,277,296,316,337,357,376,397,415,435,456,475,497,516,536,556,577,597,615,636,656,677,695,716,736,755,777,797,816,837,857,876,896,915,937,955,977,996,1017,1035,1057,1076,1096,1116,1136,1155,1177,1197,1215,1236,1256,1275,1296,1317,1335,1356,1375,1395,1417,1437,1455,1477,1496,1516,1535,1557,1576,1597,1615,1637,1656,1676,1697,1716,1736,1756,1775,1795,1817,1836,1856,1876,1896,1915,1935,1956,1977,1995,2015,2036,2057,2076,2096],"xSR":741.5,"ySR":573.95,"xT1":424.9,"yT1":0,"xT2":1058.1,"yT2":0,"toosoon":0,"cond_shown":"Incongruent","ratio_trial":100,"L_num":2,"L_den":4,"R_num":6,"R_den":15,"correct_side":1,"subjID":"saramayorgavilla17","gender":"1","school":"sexto","age":"10"},{"start_time":1551887111570,"click_time":1551887113699,"finger_time":1551887113059,"fix_duration":250,"trial":30,"RT":1489,"MT":640,"sideResp":1,"stimulus":[],"xmouse":[805,805,805,805,805,805,805,805,805,805,805,805,805,805,805,805,805,805,805,800,798,792,790,789,789,789,789,789,789,789,789,789,789,789,789,789,789,789,789,789,789,789,789,789,789,789,789,789,789,789,789,789,789,789,789,789,789,789,789,789,789,789,789,789,789,789,789,789,789,789,789,789,789,784,772,756,726,716,708,697,681,642,625,619,605,597,580,565,547,527,504,459,424,413,410,409,409,409,409,409,409,409,410,411,414,419,426],"ymouse":[603,603,603,603,603,603,603,603,603,603,603,603,603,603,603,603,603,603,603,611,615,622,625,625,625,625,625,625,625,625,625,625,625,625,625,625,625,625,625,625,625,625,625,625,625,625,625,625,625,625,625,625,625,625,625,625,625,625,625,625,625,625,625,625,625,625,625,625,625,625,625,625,625,574,497,423,344,322,297,258,201,57,22,11,0,0,0,0,0,0,0,0,15,25,33,35,35,35,35,35,35,36,38,39,40,41,44],"timestamp_mouse":[8,41,49,70,89,109,129,149,168,188,209,229,249,270,289,310,329,350,370,388,409,429,449,468,490,510,529,549,570,590,609,630,648,670,689,709,730,749,769,790,809,829,849,868,889,909,928,949,968,990,1009,1029,1050,1068,1090,1109,1129,1150,1170,1189,1208,1230,1248,1269,1289,1310,1330,1349,1369,1389,1409,1430,1449,1469,1489,1509,1529,1550,1569,1588,1609,1628,1648,1669,1689,1708,1729,1749,1769,1788,1809,1830,1849,1869,1890,1909,1930,1950,1969,1989,2009,2028,2048,2069,2089,2108,2128],"xSR":741.5,"ySR":573.95,"xT1":424.9,"yT1":0,"xT2":1058.1,"yT2":0,"toosoon":0,"cond_shown":"Congruent","ratio_trial":300,"L_num":24,"L_den":30,"R_num":2,"R_den":4,"correct_side":1,"subjID":"saramayorgavilla17","gender":"1","school":"sexto","age":"10"},{"start_time":1551887116887,"click_time":1551887118698,"finger_time":1551887118300,"fix_duration":666.0433282117617,"trial":31,"RT":1413,"MT":398,"sideResp":1,"stimulus":[],"xmouse":[789,789,789,789,789,789,789,789,789,789,789,789,789,789,789,789,789,789,789,789,789,789,789,789,789,789,789,789,789,789,789,789,789,789,789,789,789,789,789,789,789,789,789,789,789,789,789,789,789,789,789,789,789,789,789,789,789,789,789,789,789,789,789,789,789,789,789,789,789,788,772,744,710,677,621,600,591,587,585,585,585,585,583,580,570,555,544,534,525,519,502],"ymouse":[623,623,623,623,623,623,623,623,623,623,623,623,623,623,623,623,623,623,623,623,623,623,623,623,623,623,623,623,623,623,623,623,623,623,623,623,623,623,623,623,623,623,623,623,623,623,623,623,623,623,623,623,623,623,623,623,623,623,623,623,623,623,623,623,623,623,623,623,623,623,565,471,354,238,71,25,5,0,0,0,0,0,0,0,0,0,0,0,0,0,5],"timestamp_mouse":[13,32,51,73,91,111,133,152,173,193,213,231,253,272,293,312,331,353,372,393,412,432,451,472,492,512,532,553,573,593,611,631,652,673,691,713,733,751,772,793,813,833,853,873,892,913,932,953,971,992,1013,1033,1052,1072,1093,1113,1131,1153,1173,1191,1213,1233,1253,1273,1292,1311,1332,1352,1372,1392,1413,1432,1452,1472,1493,1512,1531,1552,1571,1592,1613,1632,1653,1673,1693,1712,1731,1751,1771,1792,1811],"xSR":741.5,"ySR":573.95,"xT1":424.9,"yT1":0,"xT2":1058.1,"yT2":0,"toosoon":0,"cond_shown":"Incongruent","ratio_trial":100,"L_num":6,"L_den":12,"R_num":3,"R_den":5,"correct_side":2,"subjID":"saramayorgavilla17","gender":"1","school":"sexto","age":"10"},{"start_time":1551887122271,"click_time":1551887124079,"finger_time":1551887123740,"fix_duration":1050.9228988392274,"trial":32,"RT":1469,"MT":339,"sideResp":2,"stimulus":[],"xmouse":[761,761,761,761,761,761,761,761,761,761,762,762,764,765,766,766,766,766,766,766,766,766,766,766,766,766,766,766,766,766,766,766,766,766,766,766,766,766,766,766,766,766,766,766,766,766,766,766,766,766,766,766,766,766,766,766,766,766,766,766,766,766,766,766,766,766,766,766,766,768,778,785,796,814,834,858,895,912,917,921,926,931,934,943,956,974,1006,1026,1038,1049,1060],"ymouse":[639,639,639,639,639,639,639,639,639,639,639,639,639,638,638,637,636,636,636,636,636,636,636,636,636,636,636,636,636,636,636,636,636,636,636,636,636,636,636,636,636,636,636,636,636,636,636,636,636,636,636,636,636,636,636,636,636,636,636,636,636,636,636,636,636,636,636,636,636,632,613,598,578,545,512,479,431,409,401,393,385,376,371,359,334,298,223,171,137,96,58],"timestamp_mouse":[9,28,49,74,88,108,128,149,169,188,209,228,249,267,287,309,328,348,368,389,408,428,447,467,488,509,528,548,569,589,609,628,647,668,688,708,729,748,769,789,808,828,848,869,888,908,929,947,968,988,1007,1029,1049,1068,1088,1109,1128,1147,1169,1188,1208,1229,1249,1269,1288,1308,1329,1347,1368,1389,1409,1427,1449,1469,1488,1508,1528,1548,1568,1588,1609,1629,1648,1667,1688,1708,1729,1748,1768,1788,1808],"xSR":741.5,"ySR":573.95,"xT1":424.9,"yT1":0,"xT2":1058.1,"yT2":0,"toosoon":0,"cond_shown":"Congruent","ratio_trial":100,"L_num":4,"L_den":10,"R_num":15,"R_den":30,"correct_side":2,"subjID":"saramayorgavilla17","gender":"1","school":"sexto","age":"10"},{"start_time":1551887125644,"click_time":1551887127720,"finger_time":1551887127098,"fix_duration":285.80735419347434,"trial":33,"RT":1454,"MT":622,"sideResp":2,"stimulus":[],"xmouse":[774,774,774,774,774,774,774,774,774,774,774,774,774,774,774,774,774,774,774,774,774,774,774,774,774,774,774,774,774,774,774,774,774,774,774,774,774,774,774,774,774,774,774,774,774,774,774,774,774,774,774,774,774,774,774,774,774,774,774,774,774,774,774,774,774,774,774,774,774,777,783,799,856,893,908,935,957,993,1015,1038,1052,1063,1072,1075,1078,1082,1086,1103,1140,1165,1181,1186,1196,1197,1197,1197,1197,1197,1197,1195,1192,1184,1162,1152],"ymouse":[607,607,607,607,607,607,607,607,607,607,607,607,607,607,607,607,607,607,607,607,607,607,607,607,607,607,607,607,607,607,607,607,607,607,607,607,607,607,607,607,607,607,607,607,607,607,607,607,607,607,607,607,607,607,607,607,607,607,607,607,607,607,607,607,607,607,607,607,607,607,607,603,573,550,539,521,503,461,426,390,366,350,335,329,319,308,294,235,145,74,25,8,0,0,0,0,0,0,0,0,0,0,8,10],"timestamp_mouse":[16,41,56,76,94,115,136,154,176,195,214,236,256,274,295,315,334,356,374,395,416,434,455,475,494,515,535,556,574,594,615,634,655,674,695,715,736,755,775,794,815,835,856,874,895,916,934,955,976,996,1015,1035,1055,1075,1095,1115,1135,1155,1176,1196,1214,1234,1256,1275,1296,1314,1334,1355,1376,1395,1415,1435,1454,1475,1495,1515,1535,1556,1575,1594,1614,1636,1655,1674,1695,1714,1736,1756,1775,1795,1816,1835,1855,1875,1894,1914,1936,1956,1975,1995,2016,2036,2055,2076],"xSR":741.5,"ySR":573.95,"xT1":424.9,"yT1":0,"xT2":1058.1,"yT2":0,"toosoon":0,"cond_shown":"Congruent","ratio_trial":200,"L_num":3,"L_den":10,"R_num":11,"R_den":22,"correct_side":2,"subjID":"saramayorgavilla17","gender":"1","school":"sexto","age":"10"},{"start_time":1551887130261,"click_time":1551887131800,"finger_time":1551887131239,"fix_duration":901.6333407385499,"trial":34,"RT":978,"MT":561,"sideResp":1,"stimulus":[],"xmouse":[787,788,788,788,788,788,788,788,788,788,789,789,789,790,790,790,790,790,790,790,790,790,790,790,790,790,790,790,790,790,790,790,790,790,790,790,790,790,790,790,790,790,790,790,790,790,790,779,766,755,745,733,727,720,714,711,701,697,688,679,664,620,593,570,556,541,527,526,523,520,517,517,517,517,517,517,517],"ymouse":[613,612,612,612,612,612,612,612,612,612,611,610,610,610,610,610,610,610,610,610,610,610,610,610,610,610,610,610,610,610,610,610,610,610,610,610,610,610,610,610,610,610,610,610,610,610,603,578,556,530,510,467,433,407,388,368,325,310,289,271,256,218,199,184,173,161,138,134,129,124,120,119,118,117,114,109,99],"timestamp_mouse":[18,38,58,78,98,119,139,157,179,199,217,238,258,278,299,318,338,359,379,399,417,438,457,479,497,517,538,559,577,599,618,638,658,678,698,717,738,758,778,798,818,838,858,878,899,918,938,958,978,997,1017,1039,1058,1078,1098,1117,1137,1158,1179,1198,1218,1237,1257,1278,1299,1318,1337,1359,1378,1399,1418,1439,1458,1478,1497,1518,1539],"xSR":741.5,"ySR":573.95,"xT1":424.9,"yT1":0,"xT2":1058.1,"yT2":0,"toosoon":0,"cond_shown":"Incongruent","ratio_trial":200,"L_num":3,"L_den":10,"R_num":1,"R_den":2,"correct_side":2,"subjID":"saramayorgavilla17","gender":"1","school":"sexto","age":"10"},{"start_time":1551887134465,"click_time":1551887136219,"finger_time":1551887135879,"fix_duration":1024.7604901190605,"trial":35,"RT":1414,"MT":340,"sideResp":2,"stimulus":[],"xmouse":[816,803,803,790,787,785,783,782,782,781,781,781,781,781,781,781,781,781,781,781,783,784,786,787,787,787,788,789,789,789,790,791,792,792,792,792,792,792,792,792,792,792,792,792,792,792,792,792,792,792,792,792,792,792,792,792,792,792,792,792,792,792,792,792,792,792,792,793,804,816,831,862,875,892,910,924,930,928,923,919,916,911,911,912,919,968,1037,1071],"ymouse":[576,583,583,593,597,599,604,607,609,612,616,617,617,618,618,618,618,618,618,618,619,619,619,619,619,619,619,619,619,619,618,617,615,615,615,615,615,614,614,614,614,614,614,614,614,614,614,614,614,614,614,614,614,614,614,614,614,614,614,614,614,614,614,614,614,614,614,613,600,588,570,535,517,491,454,415,328,296,275,256,242,225,219,213,201,152,114,94],"timestamp_mouse":[13,50,54,75,95,114,134,155,173,194,214,234,255,275,294,315,335,354,374,394,414,434,453,473,494,515,534,554,574,594,614,635,655,673,693,714,735,753,774,794,815,834,855,873,894,915,933,954,973,995,1014,1033,1055,1073,1094,1114,1135,1155,1173,1195,1213,1234,1253,1273,1295,1314,1333,1355,1373,1393,1414,1435,1455,1474,1495,1513,1533,1553,1574,1594,1614,1633,1654,1674,1695,1715,1733,1753],"xSR":741.5,"ySR":573.95,"xT1":424.9,"yT1":0,"xT2":1058.1,"yT2":0,"toosoon":0,"cond_shown":"Incongruent","ratio_trial":200,"L_num":7,"L_den":15,"R_num":4,"R_den":6,"correct_side":2,"subjID":"saramayorgavilla17","gender":"1","school":"sexto","age":"10"},{"start_time":1551887138056,"click_time":1551887140499,"finger_time":1551887139558,"fix_duration":375.36253899615133,"trial":36,"RT":1502,"MT":941,"sideResp":1,"stimulus":[],"xmouse":[778,778,778,778,778,778,778,778,778,778,778,778,778,778,778,778,778,778,778,778,778,778,778,778,778,778,778,778,778,778,778,778,778,778,778,778,778,778,778,778,778,778,778,778,778,778,778,778,778,778,778,778,778,778,778,778,778,778,778,778,778,778,778,778,778,778,778,778,778,778,778,778,778,782,792,828,865,945,984,990,992,993,993,993,993,994,994,994,994,994,994,994,994,986,969,942,901,843,819,811,803,788,782,775,768,759,741,720,705,685,663,640,601,584,568,553,540,534,533,533,532,530,520],"ymouse":[643,643,643,643,643,643,643,643,643,643,643,643,643,643,643,643,643,643,643,643,643,643,643,643,643,643,643,643,643,643,643,643,643,643,643,643,643,643,643,643,643,643,643,643,643,643,643,643,643,643,643,643,643,643,643,643,643,643,643,643,643,643,643,643,643,643,643,643,643,643,643,643,643,634,618,570,518,394,337,318,304,272,262,259,259,258,258,257,257,257,257,257,257,254,243,223,198,160,144,139,135,129,128,126,126,126,125,122,118,111,103,95,83,78,73,70,67,66,65,62,56,50,42],"timestamp_mouse":[10,23,44,62,84,103,123,144,163,183,203,223,244,262,284,303,323,343,363,382,403,423,442,464,483,503,524,544,563,583,604,624,643,664,684,704,724,743,762,783,802,824,843,864,882,903,923,943,963,984,1002,1022,1043,1062,1083,1103,1124,1142,1163,1183,1204,1224,1244,1262,1284,1302,1324,1344,1364,1383,1403,1423,1442,1463,1483,1502,1522,1542,1564,1583,1604,1624,1643,1664,1683,1702,1723,1743,1763,1782,1803,1824,1843,1863,1883,1904,1922,1942,1963,1982,2003,2024,2043,2064,2083,2103,2124,2142,2162,2183,2203,2223,2244,2263,2283,2302,2323,2344,2363,2382,2403,2424,2443],"xSR":741.5,"ySR":573.95,"xT1":424.9,"yT1":0,"xT2":1058.1,"yT2":0,"toosoon":0,"cond_shown":"Congruent","ratio_trial":300,"L_num":3,"L_den":12,"R_num":11,"R_den":20,"correct_side":2,"subjID":"saramayorgavilla17","gender":"1","school":"sexto","age":"10"},{"start_time":1551887146607,"click_time":1551887148739,"finger_time":1551887148079,"fix_duration":1025.623330361478,"trial":37,"RT":1472,"MT":660,"sideResp":2,"stimulus":[],"xmouse":[822,822,822,822,822,822,822,822,822,822,822,822,822,822,822,822,822,822,822,822,822,822,822,822,822,822,822,822,822,822,822,822,822,822,822,822,822,822,822,822,822,822,822,822,822,822,822,822,822,822,822,822,822,822,822,822,822,822,822,822,822,822,822,822,822,822,822,822,822,822,822,826,832,845,870,877,881,887,908,925,961,978,986,991,991,991,991,991,991,991,991,991,991,991,991,992,1002,1012,1022,1034,1041,1043,1043,1044,1049,1053,1059],"ymouse":[630,630,630,630,630,630,630,630,630,630,630,630,630,630,630,630,630,630,630,630,630,630,630,630,630,630,630,630,630,630,630,630,630,630,630,630,630,630,630,630,630,630,630,630,630,630,630,630,630,630,630,630,630,630,630,630,630,630,630,630,630,630,630,630,630,630,630,630,630,630,630,621,600,567,505,489,479,466,428,401,335,300,279,256,254,252,252,252,252,252,252,252,252,249,236,217,200,185,173,148,131,103,89,78,61,51,43],"timestamp_mouse":[12,38,51,73,93,113,132,153,172,192,212,231,253,271,292,313,332,352,373,392,413,431,453,471,492,511,533,552,573,592,611,632,652,672,691,713,731,752,771,791,813,832,853,872,892,913,933,952,972,993,1012,1031,1052,1072,1092,1111,1132,1152,1172,1192,1211,1231,1252,1272,1292,1311,1332,1352,1372,1392,1411,1432,1451,1472,1493,1513,1531,1553,1572,1592,1611,1632,1651,1672,1691,1712,1732,1752,1773,1793,1813,1831,1851,1873,1891,1912,1931,1953,1972,1991,2012,2032,2052,2071,2092,2111,2132],"xSR":741.5,"ySR":573.95,"xT1":424.9,"yT1":0,"xT2":1058.1,"yT2":0,"toosoon":0,"cond_shown":"Congruent","ratio_trial":300,"L_num":4,"L_den":5,"R_num":2,"R_den":4,"correct_side":1,"subjID":"saramayorgavilla17","gender":"1","school":"sexto","age":"10"},{"start_time":1551887151432,"click_time":1551887153279,"finger_time":1551887152919,"fix_duration":250,"trial":38,"RT":1487,"MT":360,"sideResp":1,"stimulus":[],"xmouse":[788,788,788,788,788,788,788,788,788,788,788,788,788,788,788,788,788,788,788,788,788,788,788,788,788,788,788,788,788,788,788,788,788,788,788,788,788,788,788,788,788,788,788,788,788,788,788,788,788,788,788,788,788,788,788,788,788,788,788,788,788,788,788,788,788,788,788,788,788,788,788,788,789,789,769,739,699,657,590,549,530,510,480,476,476,476,476,476,476,476,476,476,474],"ymouse":[624,624,624,624,624,624,624,624,624,624,624,624,624,624,624,624,624,624,624,624,624,624,624,624,624,624,624,624,624,624,624,624,624,624,624,624,624,624,624,624,624,624,624,624,624,624,624,624,624,624,624,624,624,624,624,624,624,624,624,624,624,624,624,624,624,624,624,624,624,624,624,624,623,605,565,515,457,400,253,107,6,0,0,0,0,0,0,0,0,0,0,0,1],"timestamp_mouse":[10,31,48,66,87,107,126,146,167,187,206,228,246,266,286,307,327,348,366,387,407,426,447,466,487,508,528,547,566,587,606,627,646,668,688,706,728,746,768,787,806,828,846,868,887,907,927,947,967,987,1007,1027,1048,1067,1087,1108,1126,1148,1168,1187,1207,1227,1247,1266,1287,1307,1327,1346,1368,1386,1406,1426,1447,1467,1487,1508,1528,1547,1568,1587,1606,1626,1648,1667,1686,1706,1727,1748,1767,1787,1808,1827,1847],"xSR":741.5,"ySR":573.95,"xT1":424.9,"yT1":0,"xT2":1058.1,"yT2":0,"toosoon":0,"cond_shown":"Congruent","ratio_trial":300,"L_num":11,"L_den":22,"R_num":2,"R_den":10,"correct_side":1,"subjID":"saramayorgavilla17","gender":"1","school":"sexto","age":"10"},{"start_time":1551887155849,"click_time":1551887157539,"finger_time":1551887157199,"fix_duration":250,"trial":39,"RT":1350,"MT":340,"sideResp":1,"stimulus":[],"xmouse":[779,779,779,780,786,792,798,801,801,801,801,801,801,801,801,801,801,801,801,801,801,801,801,801,801,801,801,801,801,801,801,801,801,801,801,801,801,801,801,801,801,801,801,801,801,801,801,801,801,801,801,801,801,801,801,801,801,801,801,801,801,801,801,801,801,799,791,717,676,639,608,592,585,585,585,585,583,563,555,553,550,547,533,525,518],"ymouse":[607,607,607,614,627,638,649,652,652,652,652,652,652,652,652,652,652,652,652,652,652,652,652,652,652,652,652,652,652,652,652,652,652,652,652,652,652,652,652,652,652,652,652,652,652,652,652,652,652,652,652,652,652,652,652,652,652,652,652,652,652,652,652,652,652,643,623,475,381,295,222,177,156,156,156,156,152,120,111,106,101,94,76,69,63],"timestamp_mouse":[9,44,49,70,90,111,129,150,170,190,210,230,250,269,289,311,330,350,369,391,410,430,451,471,490,511,530,551,569,591,609,630,650,669,691,711,730,751,771,789,811,829,851,869,891,911,930,951,969,990,1010,1031,1049,1070,1091,1109,1130,1149,1169,1189,1211,1229,1251,1271,1289,1309,1330,1350,1369,1390,1410,1430,1449,1469,1490,1510,1530,1549,1569,1590,1610,1629,1649,1669,1690],"xSR":741.5,"ySR":573.95,"xT1":424.9,"yT1":0,"xT2":1058.1,"yT2":0,"toosoon":0,"cond_shown":"Incongruent","ratio_trial":200,"L_num":4,"L_den":6,"R_num":14,"R_den":30,"correct_side":1,"subjID":"saramayorgavilla17","gender":"1","school":"sexto","age":"10"},{"start_time":1551887158930,"click_time":1551887160820,"finger_time":1551887160498,"fix_duration":250,"trial":40,"RT":1568,"MT":322,"sideResp":2,"stimulus":[],"xmouse":[801,801,801,801,801,801,801,801,801,801,801,801,801,801,801,801,801,801,801,801,801,801,801,801,801,801,801,801,801,801,801,801,801,801,801,801,801,801,801,801,801,801,801,801,801,801,801,801,801,801,801,801,801,801,801,801,801,801,801,801,801,801,801,801,801,801,801,801,801,801,801,801,801,801,801,801,801,825,865,940,1028,1112,1214,1230,1235,1237,1237,1237,1219,1205,1196,1193,1193,1182,1146],"ymouse":[611,611,611,611,611,611,611,611,611,611,611,611,611,611,611,611,611,611,611,611,611,611,611,611,611,611,611,611,611,611,611,611,611,611,611,611,611,611,611,611,611,611,611,611,611,611,611,611,611,611,611,611,611,611,611,611,611,611,611,611,611,611,611,611,611,611,611,611,611,611,611,611,611,611,611,611,611,596,555,456,336,174,0,0,0,0,0,0,0,0,0,0,0,2,22],"timestamp_mouse":[10,32,49,69,88,109,130,148,168,189,210,229,248,269,288,308,330,348,369,388,410,428,448,469,488,510,530,548,569,590,609,629,648,669,690,709,728,749,770,788,810,830,848,869,888,909,929,950,969,990,1009,1030,1048,1070,1089,1110,1128,1149,1169,1190,1209,1230,1249,1270,1288,1309,1328,1349,1369,1389,1410,1428,1449,1468,1489,1510,1529,1550,1568,1589,1609,1629,1650,1670,1688,1708,1730,1750,1770,1789,1809,1828,1848,1870,1890],"xSR":741.5,"ySR":573.95,"xT1":424.9,"yT1":0,"xT2":1058.1,"yT2":0,"toosoon":0,"cond_shown":"Incongruent","ratio_trial":100,"L_num":12,"L_den":24,"R_num":9,"R_den":15,"correct_side":2,"subjID":"saramayorgavilla17","gender":"1","school":"sexto","age":"10"},{"start_time":1551887162794,"click_time":1551887164198,"finger_time":1551887163819,"fix_duration":713.3675346579653,"trial":41,"RT":1025,"MT":379,"sideResp":1,"stimulus":[],"xmouse":[790,790,790,790,790,790,790,790,790,790,790,790,790,790,790,790,790,790,790,790,790,790,790,790,790,790,790,790,790,790,790,790,790,790,790,790,790,790,790,790,790,790,790,790,790,790,790,790,790,788,774,750,726,700,679,642,629,623,623,621,605,588,567,553,542,536,535,534,532,527,507],"ymouse":[641,641,641,641,641,641,641,641,641,641,641,641,641,641,641,641,641,641,641,641,641,641,641,641,641,641,641,641,641,641,641,641,641,641,641,641,641,641,641,641,641,641,641,641,641,641,641,641,641,635,584,448,341,265,218,173,161,156,155,152,128,101,72,57,48,46,46,46,45,44,36],"timestamp_mouse":[9,36,45,64,86,105,125,145,166,184,205,224,244,265,286,306,326,345,366,384,405,425,444,465,484,505,525,544,564,586,604,626,644,664,686,706,725,745,764,785,805,826,846,864,886,905,925,946,966,985,1004,1025,1045,1064,1085,1105,1125,1145,1165,1186,1204,1226,1246,1264,1285,1304,1325,1345,1366,1384,1404],"xSR":741.5,"ySR":573.95,"xT1":424.9,"yT1":0,"xT2":1058.1,"yT2":0,"toosoon":0,"cond_shown":"Incongruent","ratio_trial":200,"L_num":4,"L_den":5,"R_num":6,"R_den":10,"correct_side":1,"subjID":"saramayorgavilla17","gender":"1","school":"sexto","age":"10"},{"start_time":1551887168372,"click_time":1551887170118,"finger_time":1551887169819,"fix_duration":1251.0031156655643,"trial":42,"RT":1447,"MT":299,"sideResp":2,"stimulus":[],"xmouse":[803,803,803,803,803,803,803,803,803,803,803,803,803,803,803,803,803,803,803,803,803,803,803,803,803,803,803,803,803,803,803,803,803,803,803,803,803,803,803,803,803,803,803,803,803,803,803,803,803,803,803,803,803,803,803,803,803,803,803,803,803,803,803,803,803,803,803,803,803,804,807,835,856,905,963,1007,1056,1059,1061,1061,1062,1067,1071,1072,1072,1072,1073,1071],"ymouse":[634,634,634,634,634,634,634,634,634,634,634,634,634,634,634,634,634,634,634,634,634,634,634,634,634,634,634,634,634,634,634,634,634,634,634,634,634,634,634,634,634,634,634,634,634,634,634,634,634,634,634,634,634,634,634,634,634,634,634,634,634,634,634,634,634,634,634,634,634,634,633,593,537,424,251,89,0,0,0,0,0,0,0,0,0,0,0,19],"timestamp_mouse":[12,26,46,66,88,106,128,148,168,187,208,228,246,268,288,306,328,348,366,387,407,427,447,467,488,506,528,546,567,586,608,628,646,668,688,706,728,747,767,787,808,827,848,866,887,907,926,947,968,988,1007,1026,1046,1067,1088,1106,1128,1146,1168,1186,1207,1228,1247,1268,1288,1306,1328,1346,1367,1387,1407,1426,1447,1468,1487,1507,1527,1548,1567,1586,1607,1627,1646,1668,1688,1708,1728,1746],"xSR":741.5,"ySR":573.95,"xT1":424.9,"yT1":0,"xT2":1058.1,"yT2":0,"toosoon":0,"cond_shown":"Congruent","ratio_trial":100,"L_num":15,"L_den":25,"R_num":13,"R_den":26,"correct_side":1,"subjID":"saramayorgavilla17","gender":"1","school":"sexto","age":"10"},{"start_time":1551887172018,"click_time":1551887173480,"finger_time":1551887172799,"fix_duration":777.924748735392,"trial":43,"RT":781,"MT":681,"sideResp":2,"stimulus":[],"xmouse":[817,817,817,817,817,817,817,817,817,817,817,817,817,817,817,814,813,809,806,801,800,800,800,800,800,800,800,800,800,800,800,800,800,800,800,800,801,802,814,846,865,873,881,888,899,899,900,900,900,900,900,900,900,900,905,914,927,943,973,1095,1135,1172,1181,1182,1182,1182,1182,1182,1179,1171,1161,1148,1126,1102],"ymouse":[637,637,637,637,637,637,637,637,637,637,637,637,637,637,637,631,628,616,610,600,598,598,598,598,598,598,598,598,598,598,598,598,598,598,598,598,598,598,594,581,567,558,546,536,522,521,521,520,520,520,520,520,520,520,515,508,494,476,423,217,142,69,27,14,6,6,4,3,0,0,0,0,0,6],"timestamp_mouse":[8,21,41,62,80,102,122,141,161,181,202,221,240,262,281,302,320,341,361,382,401,420,442,461,482,501,521,542,562,581,602,621,640,661,682,701,721,742,760,781,801,821,841,861,882,900,920,941,961,982,1001,1022,1041,1061,1080,1101,1121,1142,1160,1180,1200,1221,1241,1260,1280,1301,1321,1342,1360,1380,1401,1420,1441,1461],"xSR":741.5,"ySR":573.95,"xT1":424.9,"yT1":0,"xT2":1058.1,"yT2":0,"toosoon":0,"cond_shown":"Incongruent","ratio_trial":100,"L_num":8,"L_den":20,"R_num":1,"R_den":2,"correct_side":2,"subjID":"saramayorgavilla17","gender":"1","school":"sexto","age":"10"},{"start_time":1551887176453,"click_time":1551887178359,"finger_time":1551887177998,"fix_duration":1491.5207660174458,"trial":44,"RT":1545,"MT":361,"sideResp":2,"stimulus":[],"xmouse":[782,771,764,764,764,764,764,764,764,764,764,764,764,764,764,764,764,764,764,764,764,764,764,764,764,764,764,764,764,764,764,764,764,764,764,764,764,764,764,764,764,764,764,764,764,764,764,764,764,764,764,764,764,764,764,764,764,764,764,764,764,764,764,764,764,764,764,764,764,764,764,764,764,764,764,769,775,818,841,856,871,973,1022,1051,1074,1088,1095,1095,1095,1095,1096,1099,1099,1099,1099,1096],"ymouse":[597,589,586,586,586,586,586,586,586,586,586,586,586,586,586,586,586,586,586,586,586,586,586,586,586,586,586,586,586,586,586,586,586,586,586,586,586,586,586,586,586,586,586,586,586,586,586,586,586,586,586,586,586,586,586,586,586,586,586,586,586,586,586,586,586,586,586,586,586,586,586,586,586,586,586,584,580,533,479,412,341,127,51,17,0,0,0,0,0,0,0,0,0,0,0,9],"timestamp_mouse":[10,25,60,65,87,107,126,146,167,185,205,227,245,266,287,306,327,345,366,385,406,425,445,466,485,507,527,545,565,585,606,625,645,667,686,707,726,746,766,786,806,826,845,866,885,905,926,946,965,985,1007,1026,1046,1066,1086,1106,1125,1146,1166,1185,1206,1226,1245,1265,1286,1306,1327,1346,1366,1387,1405,1425,1446,1466,1485,1505,1527,1545,1566,1586,1606,1627,1646,1665,1686,1706,1726,1747,1766,1786,1806,1827,1846,1866,1886,1906],"xSR":741.5,"ySR":573.95,"xT1":424.9,"yT1":0,"xT2":1058.1,"yT2":0,"toosoon":0,"cond_shown":"Congruent","ratio_trial":100,"L_num":7,"L_den":14,"R_num":15,"R_den":25,"correct_side":2,"subjID":"saramayorgavilla17","gender":"1","school":"sexto","age":"10"},{"start_time":1551887180654,"click_time":1551887182399,"finger_time":1551887181998,"fix_duration":1052.956543391433,"trial":45,"RT":1344,"MT":401,"sideResp":2,"stimulus":[],"xmouse":[795,795,795,795,795,795,795,795,795,795,795,795,795,795,795,795,795,795,795,795,795,795,795,795,795,795,795,795,795,795,795,795,795,795,795,795,795,795,795,795,795,795,795,795,795,795,795,795,795,795,795,795,795,795,795,795,795,795,795,795,795,795,795,795,795,797,799,851,896,957,1037,1106,1205,1217,1217,1214,1210,1204,1197,1186,1175,1160,1152,1145,1140,1137,1134,1125],"ymouse":[621,621,621,621,621,621,621,621,621,621,621,621,621,621,621,621,621,621,621,621,621,621,621,621,621,621,621,621,621,621,621,621,621,621,621,621,621,621,621,621,621,621,621,621,621,621,621,621,621,621,621,621,621,621,621,621,621,621,621,621,621,621,621,621,621,619,618,588,545,468,374,276,128,91,74,63,58,45,26,8,0,0,0,0,0,0,0,11],"timestamp_mouse":[10,25,44,66,84,106,125,144,166,184,206,226,246,265,285,305,325,346,364,385,406,426,444,466,486,506,524,546,564,586,605,625,644,665,686,704,724,745,766,785,804,825,845,865,886,904,926,944,966,985,1004,1026,1044,1065,1084,1105,1126,1144,1164,1185,1206,1224,1245,1266,1285,1306,1325,1344,1366,1385,1406,1424,1445,1465,1484,1504,1526,1544,1564,1584,1605,1626,1645,1665,1684,1704,1725,1745],"xSR":741.5,"ySR":573.95,"xT1":424.9,"yT1":0,"xT2":1058.1,"yT2":0,"toosoon":0,"cond_shown":"Incongruent","ratio_trial":100,"L_num":6,"L_den":12,"R_num":3,"R_den":5,"correct_side":2,