[{"start_time":1551901446526,"click_time":1551901447991,"finger_time":1551901447930,"fix_duration":1371.8385443307034,"trial":0,"RT":1404,"MT":61,"sideResp":2,"stimulus":"img/250/randomdotsizeEA/L/14_Ratio_250_L_12_R_3.png","xmouse":[789,789,789,789,789,789,789,789,789,789,789,789,789,789,789,789,789,789,789,789,789,789,789,789,789,789,789,789,789,789,789,789,789,789,789,789,789,789,789,789,789,789,789,796,799,800,803,803,804,804,804,804,804,804,804,805,806,807,808,808,808,808,808,808,808,807,807,806,806,814,841,889,960,1071],"ymouse":[465,465,465,465,465,465,465,465,465,465,465,465,465,465,465,465,465,465,465,465,465,465,465,465,465,465,465,465,465,465,465,465,465,465,465,465,465,465,465,465,465,465,465,473,479,484,488,490,491,491,491,491,492,502,508,513,518,522,524,524,524,524,524,524,524,524,522,515,501,461,398,320,200,32],"timestamp_mouse":[10,29,44,64,84,106,126,145,164,184,206,225,244,266,286,305,324,345,366,384,405,426,445,465,486,506,524,545,564,586,606,625,646,665,686,705,724,745,766,784,804,825,845,864,884,905,925,945,966,986,1005,1025,1045,1064,1084,1105,1125,1145,1165,1186,1204,1225,1246,1264,1284,1305,1325,1345,1365,1385,1404,1425,1445,1464],"xSR":741.5,"ySR":449.15000000000003,"xT1":424.9,"yT1":0,"xT2":1058.1,"yT2":0,"toosoon":0,"cond_shown":"randomdotsizeEA","ratio_trial":250,"smaller_num":"3","larger_num":"12","correct_side":1,"subjID":"saramontenegro24","gender":"1","age":"11","school":"cafam","test":{"fix_dur":[250,1500],"timestim":300,"targets_dim":[100,100],"targets_relative_coord":[0.3,0.7],"size_stim":[880,420],"start_dim":[100,100],"size_start":[300,300],"size_fix":60,"samplingrate":20,"img_types":["equaldotsize","equaldotanddens","randomdotsizeEA"],"ratios":[250,500,750,900],"rep_conds":9,"nTrials":120,"trials_to_rest":500,"Trials_order":[2,38,24,48,107,59,112,22,109,49,99,20,17,85,45,83,115,28,6,4,0,13,53,43,80,37,111,100,70,55,27,64,58,36,96,108,34,26,1,16,74,7,103,78,8,51,18,62,72,29,93,65,9,25,110,56,32,69,116,63,23,54,76,30,105,95,71,89,84,31,39,117,104,21,118,15,33,114,14,68,73,77,12,50,106,90,19,40,113,52,42,91,61,82,35,98,67,47,79,66,41,10,86,60,101,44,97,92,87,75,57,3,11,102,81,119,46,94,5,88],"cond_shown":["randomdotsizeEA","randomdotsizeEA","equaldotsize","equaldotsize","randomdotsizeEA","randomdotsizeEA","equaldotanddens","equaldotanddens","equaldotanddens","equaldotanddens","equaldotsize","randomdotsizeEA","randomdotsizeEA","equaldotanddens","equaldotsize","randomdotsizeEA","equaldotanddens","equaldotanddens","equaldotsize","equaldotanddens","equaldotsize","equaldotanddens","randomdotsizeEA","equaldotanddens","randomdotsizeEA","equaldotanddens","equaldotsize","equaldotanddens","equaldotanddens","equaldotanddens","equaldotsize","equaldotanddens","equaldotanddens","equaldotsize","equaldotsize","equaldotsize","equaldotanddens","randomdotsizeEA","equaldotanddens","equaldotanddens","randomdotsizeEA","equaldotanddens","equaldotanddens","equaldotsize","randomdotsizeEA","equaldotsize","equaldotsize","randomdotsizeEA","equaldotsize","randomdotsizeEA","equaldotsize","randomdotsizeEA","equaldotsize","equaldotanddens","randomdotsizeEA","randomdotsizeEA","randomdotsizeEA","equaldotsize","randomdotsizeEA","equaldotsize","randomdotsizeEA","equaldotsize","equaldotanddens","equaldotsize","equaldotsize","randomdotsizeEA","randomdotsizeEA","randomdotsizeEA","equaldotsize","equaldotanddens","equaldotsize","equaldotsize","randomdotsizeEA","equaldotsize","equaldotanddens","equaldotsize","equaldotsize","equaldotsize","randomdotsizeEA","randomdotsizeEA","equaldotanddens","randomdotsizeEA","equaldotsize","randomdotsizeEA","equaldotanddens","equaldotsize","equaldotanddens","equaldotanddens","randomdotsizeEA","equaldotanddens","equaldotsize","equaldotanddens","equaldotanddens","equaldotanddens","randomdotsizeEA","randomdotsizeEA","equaldotanddens","randomdotsizeEA","equaldotanddens","equaldotsize","randomdotsizeEA","equaldotanddens","randomdotsizeEA","equaldotsize","randomdotsizeEA","randomdotsizeEA","equaldotanddens","randomdotsizeEA","equaldotsize","equaldotsize","equaldotsize","equaldotsize","randomdotsizeEA","equaldotsize","equaldotsize","randomdotsizeEA","equaldotanddens","equaldotanddens","randomdotsizeEA","equaldotanddens"],"ratio_trial":[250,250,250,250,900,900,500,900,250,250,500,750,500,250,900,900,750,500,750,500,250,250,500,750,750,250,500,500,900,750,500,500,900,250,250,250,900,250,250,500,250,750,750,750,750,500,750,250,250,500,900,500,900,250,250,750,750,900,750,500,900,750,500,750,900,900,900,500,250,750,500,900,750,900,900,500,900,750,250,750,250,500,250,250,900,750,750,500,500,500,750,750,250,900,900,250,750,900,750,750,500,900,250,250,500,750,250,750,500,500,900,500,900,750,900,900,900,900,500,500],"smaller_num":["3","4","2","5","18","9","9","9","3","2","2","3","6","5","18","18","15","2","6","2","2","1","3","3","6","2","5","2","18","6","2","9","18","6","3","3","9","1","3","3","2","3","3","3","3","5","15","3","2","2","18","4","18","1","6","15","12","9","3","1","18","3","1","6","18","18","18","6","2","6","10","9","3","9","18","9","18","15","2","6","3","6","3","1","18","15","15","5","1","9","15","3","4","18","18","2","9","9","6","6","4","18","2","3","9","6","6","3","4","6","9","4","9","15","9","9","18","9","9","4"],"larger_num":["12","16","8","20","20","10","18","10","12","8","4","4","12","20","20","20","20","4","8","4","8","4","6","4","8","8","10","4","20","8","4","18","20","24","12","12","10","4","12","6","8","4","4","4","4","10","20","12","8","4","20","8","20","4","24","20","16","10","4","2","20","4","2","8","20","20","20","12","8","8","20","10","4","10","20","18","20","20","8","8","12","12","12","4","20","20","20","10","2","18","20","4","16","20","20","8","12","10","8","8","8","20","8","12","18","8","24","4","8","12","10","8","10","20","10","10","20","10","18","8"],"correct_side":[1,1,1,2,2,2,2,2,2,1,1,2,1,2,1,2,2,1,1,1,1,2,2,1,2,1,1,1,1,2,1,2,2,1,2,2,1,2,1,2,2,1,2,2,1,2,2,2,1,2,2,1,2,2,1,2,2,1,2,2,1,1,2,1,1,1,2,1,1,1,2,1,1,2,1,1,1,2,1,2,1,1,1,2,1,2,2,2,2,2,2,1,1,1,2,1,2,2,2,2,1,2,1,2,2,1,1,1,1,1,1,1,2,2,1,2,1,2,1,1],"img_shown":["img/250/randomdotsizeEA/L/14_Ratio_250_L_12_R_3.png","img/250/randomdotsizeEA/L/2_Ratio_250_L_16_R_4.png","img/250/equaldotsize/L/1_Ratio_250_L_8_R_2.png","img/250/equaldotsize/R/12_Ratio_250_L_5_R_20.png","img/900/randomdotsizeEA/R/14_Ratio_900_L_18_R_20.png","img/900/randomdotsizeEA/R/5_Ratio_900_L_9_R_10.png","img/500/equaldotanddens/R/1_Ratio_500_L_9_R_18.png","img/900/equaldotanddens/R/7_Ratio_900_L_9_R_10.png","img/250/equaldotanddens/R/9_Ratio_250_L_3_R_12.png","img/250/equaldotanddens/L/3_Ratio_250_L_8_R_2.png","img/500/equaldotsize/L/5_Ratio_500_L_4_R_2.png","img/750/randomdotsizeEA/R/12_Ratio_750_L_3_R_4.png","img/500/randomdotsizeEA/L/13_Ratio_500_L_12_R_6.png","img/250/equaldotanddens/R/12_Ratio_250_L_5_R_20.png","img/900/equaldotsize/L/4_Ratio_900_L_20_R_18.png","img/900/randomdotsizeEA/R/14_Ratio_900_L_18_R_20.png","img/750/equaldotanddens/R/4_Ratio_750_L_15_R_20.png","img/500/equaldotanddens/L/10_Ratio_500_L_4_R_2.png","img/750/equaldotsize/L/14_Ratio_750_L_8_R_6.png","img/500/equaldotanddens/L/10_Ratio_500_L_4_R_2.png","img/250/equaldotsize/L/7_Ratio_250_L_8_R_2.png","img/250/equaldotanddens/R/8_Ratio_250_L_1_R_4.png","img/500/randomdotsizeEA/R/2_Ratio_500_L_3_R_6.png","img/750/equaldotanddens/L/8_Ratio_750_L_4_R_3.png","img/750/randomdotsizeEA/R/2_Ratio_750_L_6_R_8.png","img/250/equaldotanddens/L/1_Ratio_250_L_8_R_2.png","img/500/equaldotsize/L/7_Ratio_500_L_10_R_5.png","img/500/equaldotanddens/L/10_Ratio_500_L_4_R_2.png","img/900/equaldotanddens/L/4_Ratio_900_L_20_R_18.png","img/750/equaldotanddens/R/2_Ratio_750_L_6_R_8.png","img/500/equaldotsize/L/10_Ratio_500_L_4_R_2.png","img/500/equaldotanddens/R/1_Ratio_500_L_9_R_18.png","img/900/equaldotanddens/R/9_Ratio_900_L_18_R_20.png","img/250/equaldotsize/L/5_Ratio_250_L_24_R_6.png","img/250/equaldotsize/R/4_Ratio_250_L_3_R_12.png","img/250/equaldotsize/R/11_Ratio_250_L_3_R_12.png","img/900/equaldotanddens/L/1_Ratio_900_L_10_R_9.png","img/250/randomdotsizeEA/R/8_Ratio_250_L_1_R_4.png","img/250/equaldotanddens/L/15_Ratio_250_L_12_R_3.png","img/500/equaldotanddens/R/2_Ratio_500_L_3_R_6.png","img/250/randomdotsizeEA/R/13_Ratio_250_L_2_R_8.png","img/750/equaldotanddens/L/8_Ratio_750_L_4_R_3.png","img/750/equaldotanddens/R/12_Ratio_750_L_3_R_4.png","img/750/equaldotsize/R/12_Ratio_750_L_3_R_4.png","img/750/randomdotsizeEA/L/8_Ratio_750_L_4_R_3.png","img/500/equaldotsize/R/14_Ratio_500_L_5_R_10.png","img/750/equaldotsize/R/5_Ratio_750_L_15_R_20.png","img/250/randomdotsizeEA/R/11_Ratio_250_L_3_R_12.png","img/250/equaldotsize/L/1_Ratio_250_L_8_R_2.png","img/500/randomdotsizeEA/R/9_Ratio_500_L_2_R_4.png","img/900/equaldotsize/R/9_Ratio_900_L_18_R_20.png","img/500/randomdotsizeEA/L/8_Ratio_500_L_8_R_4.png","img/900/equaldotsize/R/14_Ratio_900_L_18_R_20.png","img/250/equaldotanddens/R/8_Ratio_250_L_1_R_4.png","img/250/randomdotsizeEA/L/5_Ratio_250_L_24_R_6.png","img/750/randomdotsizeEA/R/4_Ratio_750_L_15_R_20.png","img/750/randomdotsizeEA/R/11_Ratio_750_L_12_R_16.png","img/900/equaldotsize/L/1_Ratio_900_L_10_R_9.png","img/750/randomdotsizeEA/R/7_Ratio_750_L_3_R_4.png","img/500/equaldotsize/R/12_Ratio_500_L_1_R_2.png","img/900/randomdotsizeEA/L/4_Ratio_900_L_20_R_18.png","img/750/equaldotsize/L/10_Ratio_750_L_4_R_3.png","img/500/equaldotanddens/R/15_Ratio_500_L_1_R_2.png","img/750/equaldotsize/L/13_Ratio_750_L_8_R_6.png","img/900/equaldotsize/L/2_Ratio_900_L_20_R_18.png","img/900/randomdotsizeEA/L/8_Ratio_900_L_20_R_18.png","img/900/randomdotsizeEA/R/13_Ratio_900_L_18_R_20.png","img/500/randomdotsizeEA/L/11_Ratio_500_L_12_R_6.png","img/250/equaldotsize/L/1_Ratio_250_L_8_R_2.png","img/750/equaldotanddens/L/13_Ratio_750_L_8_R_6.png","img/500/equaldotsize/R/3_Ratio_500_L_10_R_20.png","img/900/equaldotsize/L/1_Ratio_900_L_10_R_9.png","img/750/randomdotsizeEA/L/8_Ratio_750_L_4_R_3.png","img/900/equaldotsize/R/15_Ratio_900_L_9_R_10.png","img/900/equaldotanddens/L/2_Ratio_900_L_20_R_18.png","img/500/equaldotsize/L/4_Ratio_500_L_18_R_9.png","img/900/equaldotsize/L/2_Ratio_900_L_20_R_18.png","img/750/equaldotsize/R/3_Ratio_750_L_15_R_20.png","img/250/randomdotsizeEA/L/7_Ratio_250_L_8_R_2.png","img/750/randomdotsizeEA/R/2_Ratio_750_L_6_R_8.png","img/250/equaldotanddens/L/14_Ratio_250_L_12_R_3.png","img/500/randomdotsizeEA/L/13_Ratio_500_L_12_R_6.png","img/250/equaldotsize/L/15_Ratio_250_L_12_R_3.png","img/250/randomdotsizeEA/R/8_Ratio_250_L_1_R_4.png","img/900/equaldotanddens/L/4_Ratio_900_L_20_R_18.png","img/750/equaldotsize/R/5_Ratio_750_L_15_R_20.png","img/750/equaldotanddens/R/4_Ratio_750_L_15_R_20.png","img/500/equaldotanddens/R/14_Ratio_500_L_5_R_10.png","img/500/randomdotsizeEA/R/12_Ratio_500_L_1_R_2.png","img/500/equaldotanddens/R/1_Ratio_500_L_9_R_18.png","img/750/equaldotsize/R/4_Ratio_750_L_15_R_20.png","img/750/equaldotanddens/L/8_Ratio_750_L_4_R_3.png","img/250/equaldotanddens/L/2_Ratio_250_L_16_R_4.png","img/900/equaldotanddens/L/8_Ratio_900_L_20_R_18.png","img/900/randomdotsizeEA/R/12_Ratio_900_L_18_R_20.png","img/250/randomdotsizeEA/L/1_Ratio_250_L_8_R_2.png","img/750/equaldotanddens/R/15_Ratio_750_L_9_R_12.png","img/900/randomdotsizeEA/R/15_Ratio_900_L_9_R_10.png","img/750/equaldotanddens/R/2_Ratio_750_L_6_R_8.png","img/750/equaldotsize/R/2_Ratio_750_L_6_R_8.png","img/500/randomdotsizeEA/L/8_Ratio_500_L_8_R_4.png","img/900/equaldotanddens/R/14_Ratio_900_L_18_R_20.png","img/250/randomdotsizeEA/L/7_Ratio_250_L_8_R_2.png","img/250/equaldotsize/R/4_Ratio_250_L_3_R_12.png","img/500/randomdotsizeEA/R/1_Ratio_500_L_9_R_18.png","img/750/randomdotsizeEA/L/14_Ratio_750_L_8_R_6.png","img/250/equaldotanddens/L/5_Ratio_250_L_24_R_6.png","img/750/randomdotsizeEA/L/10_Ratio_750_L_4_R_3.png","img/500/equaldotsize/L/8_Ratio_500_L_8_R_4.png","img/500/equaldotsize/L/13_Ratio_500_L_12_R_6.png","img/900/equaldotsize/L/1_Ratio_900_L_10_R_9.png","img/500/equaldotsize/L/8_Ratio_500_L_8_R_4.png","img/900/randomdotsizeEA/R/3_Ratio_900_L_9_R_10.png","img/750/equaldotsize/R/5_Ratio_750_L_15_R_20.png","img/900/equaldotsize/L/1_Ratio_900_L_10_R_9.png","img/900/randomdotsizeEA/R/15_Ratio_900_L_9_R_10.png","img/900/equaldotanddens/L/2_Ratio_900_L_20_R_18.png","img/900/equaldotanddens/R/5_Ratio_900_L_9_R_10.png","img/500/randomdotsizeEA/L/4_Ratio_500_L_18_R_9.png","img/500/equaldotanddens/L/8_Ratio_500_L_8_R_4.png"],"Rat0":[["12_Ratio_0_L_9_R_0.png","13_Ratio_0_L_6_R_0.png","5_Ratio_0_L_2_R_0.png","6_Ratio_0_L_4_R_0.png","8_Ratio_0_L_6_R_0.png"],["1_Ratio_0_L_0_R_17.png","10_Ratio_0_L_0_R_22.png","11_Ratio_0_L_0_R_1.png","14_Ratio_0_L_0_R_24.png","15_Ratio_0_L_0_R_4.png","2_Ratio_0_L_0_R_5.png","3_Ratio_0_L_0_R_17.png","4_Ratio_0_L_0_R_7.png","7_Ratio_0_L_0_R_19.png","9_Ratio_0_L_0_R_15.png"]],"Rat250":[["1_Ratio_250_L_8_R_2.png","14_Ratio_250_L_12_R_3.png","15_Ratio_250_L_12_R_3.png","2_Ratio_250_L_16_R_4.png","3_Ratio_250_L_8_R_2.png","5_Ratio_250_L_24_R_6.png","7_Ratio_250_L_8_R_2.png"],["10_Ratio_250_L_4_R_16.png","11_Ratio_250_L_3_R_12.png","12_Ratio_250_L_5_R_20.png","13_Ratio_250_L_2_R_8.png","4_Ratio_250_L_3_R_12.png","6_Ratio_250_L_6_R_24.png","8_Ratio_250_L_1_R_4.png","9_Ratio_250_L_3_R_12.png"]],"Rat500":[["10_Ratio_500_L_4_R_2.png","11_Ratio_500_L_12_R_6.png","13_Ratio_500_L_12_R_6.png","4_Ratio_500_L_18_R_9.png","5_Ratio_500_L_4_R_2.png","7_Ratio_500_L_10_R_5.png","8_Ratio_500_L_8_R_4.png"],["1_Ratio_500_L_9_R_18.png","12_Ratio_500_L_1_R_2.png","14_Ratio_500_L_5_R_10.png","15_Ratio_500_L_1_R_2.png","2_Ratio_500_L_3_R_6.png","3_Ratio_500_L_10_R_20.png","6_Ratio_500_L_9_R_18.png","9_Ratio_500_L_2_R_4.png"]],"Rat750":[["1_Ratio_750_L_20_R_15.png","10_Ratio_750_L_4_R_3.png","13_Ratio_750_L_8_R_6.png","14_Ratio_750_L_8_R_6.png","6_Ratio_750_L_24_R_18.png","8_Ratio_750_L_4_R_3.png","9_Ratio_750_L_4_R_3.png"],["11_Ratio_750_L_12_R_16.png","12_Ratio_750_L_3_R_4.png","15_Ratio_750_L_9_R_12.png","2_Ratio_750_L_6_R_8.png","3_Ratio_750_L_15_R_20.png","4_Ratio_750_L_15_R_20.png","5_Ratio_750_L_15_R_20.png","7_Ratio_750_L_3_R_4.png"]],"Rat900":[["1_Ratio_900_L_10_R_9.png","10_Ratio_900_L_20_R_18.png","2_Ratio_900_L_20_R_18.png","4_Ratio_900_L_20_R_18.png","8_Ratio_900_L_20_R_18.png"],["11_Ratio_900_L_18_R_20.png","12_Ratio_900_L_18_R_20.png","13_Ratio_900_L_18_R_20.png","14_Ratio_900_L_18_R_20.png","15_Ratio_900_L_9_R_10.png","3_Ratio_900_L_9_R_10.png","5_Ratio_900_L_9_R_10.png","6_Ratio_900_L_9_R_10.png","7_Ratio_900_L_9_R_10.png","9_Ratio_900_L_18_R_20.png"]],"Rat1000":[["10_Ratio_1000_L_16_R_16.png","11_Ratio_1000_L_6_R_6.png","12_Ratio_1000_L_14_R_14.png","13_Ratio_1000_L_20_R_20.png","15_Ratio_1000_L_15_R_15.png","2_Ratio_1000_L_17_R_17.png","4_Ratio_1000_L_9_R_9.png","5_Ratio_1000_L_6_R_6.png","6_Ratio_1000_L_19_R_19.png","8_Ratio_1000_L_14_R_14.png","9_Ratio_1000_L_25_R_25.png"],["1_Ratio_1000_L_1_R_1.png","14_Ratio_1000_L_17_R_17.png","3_Ratio_1000_L_17_R_17.png","7_Ratio_1000_L_6_R_6.png"]]}},{"start_time":1551901450504,"click_time":1551901450991,"finger_time":1551901450831,"fix_duration":250,"trial":1,"RT":327,"MT":160,"sideResp":1,"stimulus":"img/250/randomdotsizeEA/L/2_Ratio_250_L_16_R_4.png","xmouse":[782,782,782,782,782,782,782,782,782,782,782,782,782,782,782,782,754,724,648,511,490,480,473,469,463],"ymouse":[500,500,500,500,500,500,500,500,500,500,500,500,500,500,500,500,441,395,311,188,168,152,134,114,90],"timestamp_mouse":[12,35,48,66,86,108,126,148,167,187,207,227,248,267,287,306,327,346,367,388,406,426,447,466,487],"xSR":741.5,"ySR":449.15000000000003,"xT1":424.9,"yT1":0,"xT2":1058.1,"yT2":0,"toosoon":0,"cond_shown":"randomdotsizeEA","ratio_trial":250,"smaller_num":"4","larger_num":"16","correct_side":1,"subjID":"saramontenegro24","gender":"1","age":"11","school":"cafam"},{"start_time":1551901452053,"click_time":1551901452531,"finger_time":1551901452252,"fix_duration":359.5242393502867,"trial":2,"RT":199,"MT":279,"sideResp":1,"stimulus":"img/250/equaldotsize/L/1_Ratio_250_L_8_R_2.png","xmouse":[777,777,777,777,777,777,777,777,779,774,753,728,673,657,636,610,575,566,559,556,551,532,510,490],"ymouse":[491,491,491,491,491,491,491,491,466,437,405,371,293,272,245,216,169,153,137,129,124,116,105,91],"timestamp_mouse":[34,38,57,77,99,118,138,158,177,199,218,238,258,278,299,317,338,358,379,397,417,438,457,477],"xSR":741.5,"ySR":449.15000000000003,"xT1":424.9,"yT1":0,"xT2":1058.1,"yT2":0,"toosoon":0,"cond_shown":"equaldotsize","ratio_trial":250,"smaller_num":"2","larger_num":"8","correct_side":1,"subjID":"saramontenegro24","gender":"1","age":"11","school":"cafam"},{"start_time":1551901453475,"click_time":1551901453891,"finger_time":1551901453770,"fix_duration":383.96616617649215,"trial":3,"RT":295,"MT":121,"sideResp":1,"stimulus":"img/250/equaldotsize/R/12_Ratio_250_L_5_R_20.png","xmouse":[774,774,774,774,774,774,774,774,774,774,774,774,774,760,731,692,615,584,557,525,494],"ymouse":[521,521,521,521,521,521,521,521,521,521,521,521,521,486,414,323,186,147,117,89,67],"timestamp_mouse":[16,40,57,76,97,116,135,156,176,197,216,236,256,276,295,316,336,355,376,395,416],"xSR":741.5,"ySR":449.15000000000003,"xT1":424.9,"yT1":0,"xT2":1058.1,"yT2":0,"toosoon":0,"cond_shown":"equaldotsize","ratio_trial":250,"smaller_num":"5","larger_num":"20","correct_side":2,"subjID":"saramontenegro24","gender":"1","age":"11","school":"cafam"},{"start_time":1551901455086,"click_time":1551901455671,"finger_time":1551901455411,"fix_duration":474.0650962604651,"trial":4,"RT":325,"MT":260,"sideResp":2,"stimulus":"img/900/randomdotsizeEA/R/14_Ratio_900_L_18_R_20.png","xmouse":[814,814,814,814,814,812,812,812,812,812,812,812,811,811,811,819,834,866,899,946,1020,1032,1036,1037,1038,1041,1045,1049,1057,1068],"ymouse":[507,507,507,507,507,507,507,507,507,507,507,507,506,502,496,469,446,402,348,273,133,97,83,78,77,73,68,65,59,51],"timestamp_mouse":[6,24,44,66,86,104,126,146,165,186,206,226,245,265,284,306,325,346,365,385,406,424,445,465,485,505,525,545,565,585],"xSR":741.5,"ySR":449.15000000000003,"xT1":424.9,"yT1":0,"xT2":1058.1,"yT2":0,"toosoon":0,"cond_shown":"randomdotsizeEA","ratio_trial":900,"smaller_num":"18","larger_num":"20","correct_side":2,"subjID":"saramontenegro24","gender":"1","age":"11","school":"cafam"},{"start_time":1551901456483,"click_time":1551901457472,"finger_time":1551901456792,"fix_duration":250,"trial":5,"RT":309,"MT":680,"sideResp":2,"stimulus":"img/900/randomdotsizeEA/R/5_Ratio_900_L_9_R_10.png","xmouse":[800,796,793,792,791,791,791,791,791,791,791,791,791,791,795,830,863,894,927,958,1004,1015,1025,1025,1025,1025,1025,1025,1025,1025,1025,1043,1056,1074,1103,1121,1144,1152,1160,1168,1167,1149,1135,1123,1114,1102,1100,1100,1100,1100],"ymouse":[538,531,526,524,521,520,519,519,519,519,519,519,519,517,505,424,351,273,198,125,31,15,2,2,2,2,2,2,2,2,2,59,133,196,244,265,262,257,252,241,206,176,158,142,129,113,108,106,103,97],"timestamp_mouse":[12,34,48,67,87,107,129,148,167,189,207,229,248,268,288,309,328,348,367,387,408,429,448,468,487,507,527,549,568,588,608,629,649,668,687,708,728,747,768,787,807,827,848,867,889,908,928,948,967,989],"xSR":741.5,"ySR":449.15000000000003,"xT1":424.9,"yT1":0,"xT2":1058.1,"yT2":0,"toosoon":0,"cond_shown":"randomdotsizeEA","ratio_trial":900,"smaller_num":"9","larger_num":"10","correct_side":2,"subjID":"saramontenegro24","gender":"1","age":"11","school":"cafam"},{"start_time":1551901458583,"click_time":1551901459011,"finger_time":1551901458851,"fix_duration":250,"trial":6,"RT":268,"MT":160,"sideResp":2,"stimulus":"img/500/equaldotanddens/R/1_Ratio_500_L_9_R_18.png","xmouse":[797,797,797,797,797,797,797,797,797,797,797,801,823,849,873,922,958,971,983,993,1038,1070],"ymouse":[494,494,494,494,494,494,494,494,494,494,494,488,456,419,386,327,284,265,244,222,133,80],"timestamp_mouse":[13,34,48,67,87,108,127,148,169,189,207,228,248,268,288,310,327,347,368,388,408,427],"xSR":741.5,"ySR":449.15000000000003,"xT1":424.9,"yT1":0,"xT2":1058.1,"yT2":0,"toosoon":0,"cond_shown":"equaldotanddens","ratio_trial":500,"smaller_num":"9","larger_num":"18","correct_side":2,"subjID":"saramontenegro24","gender":"1","age":"11","school":"cafam"},{"start_time":1551901460570,"click_time":1551901460970,"finger_time":1551901460810,"fix_duration":777.7309292598129,"trial":7,"RT":240,"MT":160,"sideResp":1,"stimulus":"img/900/equaldotanddens/R/7_Ratio_900_L_9_R_10.png","xmouse":[803,803,803,803,803,803,803,803,803,803,803,803,795,784,767,744,703,655,579,532,510],"ymouse":[456,456,456,456,456,456,456,456,456,456,456,450,422,383,343,301,243,188,125,91,74],"timestamp_mouse":[7,31,40,62,82,102,121,141,161,181,202,220,240,260,281,302,321,340,360,380,400],"xSR":741.5,"ySR":449.15000000000003,"xT1":424.9,"yT1":0,"xT2":1058.1,"yT2":0,"toosoon":0,"cond_shown":"equaldotanddens","ratio_trial":900,"smaller_num":"9","larger_num":"10","correct_side":2,"subjID":"saramontenegro24","gender":"1","age":"11","school":"cafam"},{"start_time":1551901462457,"click_time":1551901462791,"finger_time":1551901462731,"fix_duration":764.3655610682124,"trial":8,"RT":274,"MT":60,"sideResp":2,"stimulus":"img/250/equaldotanddens/R/9_Ratio_250_L_3_R_12.png","xmouse":[798,798,798,798,798,798,798,798,798,799,801,817,839,866,900,942,1071],"ymouse":[510,510,510,510,510,510,510,510,510,509,507,483,452,417,370,303,93],"timestamp_mouse":[14,36,54,75,93,113,134,153,174,194,214,233,253,274,293,313,334],"xSR":741.5,"ySR":449.15000000000003,"xT1":424.9,"yT1":0,"xT2":1058.1,"yT2":0,"toosoon":0,"cond_shown":"equaldotanddens","ratio_trial":250,"smaller_num":"3","larger_num":"12","correct_side":2,"subjID":"saramontenegro24","gender":"1","age":"11","school":"cafam"},{"start_time":1551901464176,"click_time":1551901464591,"finger_time":1551901464451,"fix_duration":464.2856041593959,"trial":9,"RT":275,"MT":140,"sideResp":2,"stimulus":"img/250/equaldotanddens/L/3_Ratio_250_L_8_R_2.png","xmouse":[790,790,790,790,790,790,789,789,789,789,789,792,796,806,828,875,993,1019,1035,1048,1065],"ymouse":[491,491,491,491,491,491,490,485,480,479,477,472,464,447,415,349,168,125,98,79,56],"timestamp_mouse":[24,35,54,75,96,116,135,154,176,195,215,235,255,275,294,315,335,355,375,394,415],"xSR":741.5,"ySR":449.15000000000003,"xT1":424.9,"yT1":0,"xT2":1058.1,"yT2":0,"toosoon":0,"cond_shown":"equaldotanddens","ratio_trial":250,"smaller_num":"2","larger_num":"8","correct_side":1,"subjID":"saramontenegro24","gender":"1","age":"11","school":"cafam"},{"start_time":1551901465604,"click_time":1551901466612,"finger_time":1551901466511,"fix_duration":250,"trial":10,"RT":907,"MT":101,"sideResp":1,"stimulus":"img/500/equaldotsize/L/5_Ratio_500_L_4_R_2.png","xmouse":[806,806,806,806,806,806,806,806,806,806,806,806,806,806,806,806,806,806,806,806,804,801,800,800,800,800,800,800,800,800,800,800,800,800,800,800,800,800,800,800,800,800,800,793,789,737,693,634,592,537,522],"ymouse":[480,480,480,480,480,480,480,480,480,480,480,480,480,480,480,480,482,482,482,482,484,485,485,485,485,485,485,485,485,485,485,485,485,485,485,485,485,485,485,485,485,485,485,471,460,333,251,164,109,54,34],"timestamp_mouse":[7,30,48,68,87,108,126,147,168,188,207,226,248,268,286,306,326,346,368,387,407,427,448,468,487,508,527,547,567,586,607,627,648,667,686,707,727,747,766,787,808,827,847,868,887,907,926,947,967,988,1008],"xSR":741.5,"ySR":449.15000000000003,"xT1":424.9,"yT1":0,"xT2":1058.1,"yT2":0,"toosoon":0,"cond_shown":"equaldotsize","ratio_trial":500,"smaller_num":"2","larger_num":"4","correct_side":1,"subjID":"saramontenegro24","gender":"1","age":"11","school":"cafam"},{"start_time":1551901469343,"click_time":1551901470391,"finger_time":1551901470291,"fix_duration":250,"trial":11,"RT":948,"MT":100,"sideResp":2,"stimulus":"img/750/randomdotsizeEA/R/12_Ratio_750_L_3_R_4.png","xmouse":[800,799,797,797,797,797,797,797,797,797,797,797,797,797,797,797,797,797,797,797,797,797,797,797,797,797,797,797,797,797,797,797,797,797,797,797,797,797,797,797,797,797,798,801,802,808,821,879,918,981,1016,1051,1101],"ymouse":[481,481,481,481,481,481,481,481,481,481,481,481,481,481,481,481,481,481,481,481,481,481,481,481,481,481,481,481,481,481,481,481,481,481,481,481,481,481,481,481,481,482,483,483,483,481,464,367,295,186,122,73,10],"timestamp_mouse":[9,33,48,68,89,108,129,147,167,189,207,227,249,268,288,308,327,347,368,388,407,429,449,469,488,508,527,548,568,588,607,628,649,667,688,707,729,748,769,788,807,828,849,868,887,908,927,948,967,988,1008,1028,1048],"xSR":741.5,"ySR":449.15000000000003,"xT1":424.9,"yT1":0,"xT2":1058.1,"yT2":0,"toosoon":0,"cond_shown":"randomdotsizeEA","ratio_trial":750,"smaller_num":"3","larger_num":"4","correct_side":2,"subjID":"saramontenegro24","gender":"1","age":"11","school":"cafam"},{"start_time":1551901471663,"click_time":1551901472210,"finger_time":1551901472110,"fix_duration":250,"trial":12,"RT":447,"MT":100,"sideResp":2,"stimulus":"img/500/randomdotsizeEA/L/13_Ratio_500_L_12_R_6.png","xmouse":[802,802,802,802,802,802,802,802,802,802,802,802,802,802,802,802,802,802,802,802,804,816,870,923,975,1019,1053,1082],"ymouse":[505,505,505,505,505,505,505,505,505,505,505,505,505,505,505,505,505,505,505,500,493,467,366,277,184,112,58,5],"timestamp_mouse":[12,39,48,68,88,107,127,147,167,187,207,227,247,267,287,307,327,347,367,387,407,427,447,468,487,507,527,547],"xSR":741.5,"ySR":449.15000000000003,"xT1":424.9,"yT1":0,"xT2":1058.1,"yT2":0,"toosoon":0,"cond_shown":"randomdotsizeEA","ratio_trial":500,"smaller_num":"6","larger_num":"12","correct_side":1,"subjID":"saramontenegro24","gender":"1","age":"11","school":"cafam"},{"start_time":1551901473442,"click_time":1551901473971,"finger_time":1551901473851,"fix_duration":510.11186794093345,"trial":13,"RT":409,"MT":120,"sideResp":2,"stimulus":"img/250/equaldotanddens/R/12_Ratio_250_L_5_R_20.png","xmouse":[800,800,800,800,800,800,800,800,800,800,800,800,800,800,800,800,800,800,799,802,825,860,989,1072,1093,1098,1098],"ymouse":[500,500,500,500,500,500,500,500,500,500,500,500,500,500,500,500,500,500,492,471,440,398,259,154,117,102,92],"timestamp_mouse":[10,28,50,69,89,109,130,150,170,188,209,230,248,269,290,310,329,348,368,388,409,429,449,470,489,509,529],"xSR":741.5,"ySR":449.15000000000003,"xT1":424.9,"yT1":0,"xT2":1058.1,"yT2":0,"toosoon":0,"cond_shown":"equaldotanddens","ratio_trial":250,"smaller_num":"5","larger_num":"20","correct_side":2,"subjID":"saramontenegro24","gender":"1","age":"11","school":"cafam"},{"start_time":1551901475204,"click_time":1551901475811,"finger_time":1551901475571,"fix_duration":250,"trial":14,"RT":367,"MT":240,"sideResp":2,"stimulus":"img/900/equaldotsize/L/4_Ratio_900_L_20_R_18.png","xmouse":[797,797,797,797,797,797,797,797,797,797,797,797,797,797,797,797,804,811,824,846,933,979,1013,1032,1043,1043,1043,1044,1046,1057,1062],"ymouse":[494,494,494,494,494,494,494,494,494,494,494,494,494,494,494,494,486,472,443,397,242,162,94,62,41,41,41,40,38,32,29],"timestamp_mouse":[9,32,47,66,88,107,127,148,167,188,206,228,247,267,286,307,327,347,367,387,407,428,447,468,488,507,526,548,567,587,607],"xSR":741.5,"ySR":449.15000000000003,"xT1":424.9,"yT1":0,"xT2":1058.1,"yT2":0,"toosoon":0,"cond_shown":"equaldotsize","ratio_trial":900,"smaller_num":"18","larger_num":"20","correct_side":1,"subjID":"saramontenegro24","gender":"1","age":"11","school":"cafam"},{"start_time":1551901477383,"click_time":1551901477871,"finger_time":1551901477771,"fix_duration":771.1776412852744,"trial":15,"RT":388,"MT":100,"sideResp":2,"stimulus":"img/900/randomdotsizeEA/R/14_Ratio_900_L_18_R_20.png","xmouse":[807,807,807,807,807,807,807,807,807,807,807,807,807,807,807,807,807,809,815,833,910,957,1007,1054,1091],"ymouse":[488,488,488,488,488,488,488,488,488,488,488,488,488,488,488,488,488,480,468,443,324,256,188,117,53],"timestamp_mouse":[10,35,48,68,89,107,128,148,169,187,208,229,248,268,289,308,327,348,367,388,408,428,448,468,488],"xSR":741.5,"ySR":449.15000000000003,"xT1":424.9,"yT1":0,"xT2":1058.1,"yT2":0,"toosoon":0,"cond_shown":"randomdotsizeEA","ratio_trial":900,"smaller_num":"18","larger_num":"20","correct_side":2,"subjID":"saramontenegro24","gender":"1","age":"11","school":"cafam"},{"start_time":1551901480179,"click_time":1551901480792,"finger_time":1551901480531,"fix_duration":1385.3300768152035,"trial":16,"RT":352,"MT":261,"sideResp":1,"stimulus":"img/750/equaldotanddens/R/4_Ratio_750_L_15_R_20.png","xmouse":[815,815,815,815,815,815,815,815,815,815,815,815,815,815,813,809,786,769,750,729,653,596,542,506,491,487,487,487,487,487,487],"ymouse":[490,490,490,490,490,490,490,490,490,490,490,490,490,490,490,484,459,446,432,417,350,295,237,190,158,131,124,122,116,107,79],"timestamp_mouse":[12,34,53,73,93,111,133,152,173,192,212,232,253,273,293,312,332,352,372,393,413,431,451,472,492,513,533,551,573,592,612],"xSR":741.5,"ySR":449.15000000000003,"xT1":424.9,"yT1":0,"xT2":1058.1,"yT2":0,"toosoon":0,"cond_shown":"equaldotanddens","ratio_trial":750,"smaller_num":"15","larger_num":"20","correct_side":2,"subjID":"saramontenegro24","gender":"1","age":"11","school":"cafam"},{"start_time":1551901481995,"click_time":1551901482510,"finger_time":1551901482331,"fix_duration":402.5613371758987,"trial":17,"RT":336,"MT":179,"sideResp":2,"stimulus":"img/500/equaldotanddens/L/10_Ratio_500_L_4_R_2.png","xmouse":[802,802,802,802,802,802,802,802,802,802,802,802,802,802,806,813,827,849,878,947,969,990,1003,1018,1054,1085],"ymouse":[501,501,501,501,501,501,501,501,501,501,501,501,501,497,483,463,424,380,329,231,202,177,160,141,106,80],"timestamp_mouse":[25,36,56,77,95,116,137,157,177,196,216,236,257,277,296,317,336,356,376,396,416,436,457,476,497,515],"xSR":741.5,"ySR":449.15000000000003,"xT1":424.9,"yT1":0,"xT2":1058.1,"yT2":0,"toosoon":0,"cond_shown":"equaldotanddens","ratio_trial":500,"smaller_num":"2","larger_num":"4","correct_side":1,"subjID":"saramontenegro24","gender":"1","age":"11","school":"cafam"},{"start_time":1551901485102,"click_time":1551901485712,"finger_time":1551901485610,"fix_duration":250,"trial":18,"RT":508,"MT":102,"sideResp":1,"stimulus":"img/750/equaldotsize/L/14_Ratio_750_L_8_R_6.png","xmouse":[770,770,770,770,770,770,770,770,770,770,770,770,770,770,775,779,782,784,785,785,785,785,784,780,761,738,701,659,613,556,438],"ymouse":[456,456,456,456,456,456,456,456,456,456,456,456,456,455,460,466,472,479,481,481,481,481,482,479,451,410,349,289,228,158,4],"timestamp_mouse":[11,34,48,68,89,108,128,149,170,190,210,230,250,269,289,309,329,349,370,390,408,428,449,468,489,508,530,549,569,589,609],"xSR":741.5,"ySR":449.15000000000003,"xT1":424.9,"yT1":0,"xT2":1058.1,"yT2":0,"toosoon":0,"cond_shown":"equaldotsize","ratio_trial":750,"smaller_num":"6","larger_num":"8","correct_side":1,"subjID":"saramontenegro24","gender":"1","age":"11","school":"cafam"},{"start_time":1551901490442,"click_time":1551901490912,"finger_time":1551901490531,"fix_duration":250,"trial":19,"RT":89,"MT":381,"sideResp":1,"stimulus":"img/500/equaldotanddens/L/10_Ratio_500_L_4_R_2.png","xmouse":[776,776,774,769,763,757,751,747,738,733,732,732,732,715,697,664,624,557,545,540,533,528,521,510],"ymouse":[509,509,480,465,448,429,408,393,365,355,352,351,351,323,300,262,214,143,136,134,131,128,120,99],"timestamp_mouse":[13,34,50,68,89,108,129,149,169,188,209,230,249,270,289,310,329,349,369,390,409,429,449,470],"xSR":741.5,"ySR":449.15000000000003,"xT1":424.9,"yT1":0,"xT2":1058.1,"yT2":0,"toosoon":0,"cond_shown":"equaldotanddens","ratio_trial":500,"smaller_num":"2","larger_num":"4","correct_side":1,"subjID":"saramontenegro24","gender":"1","age":"11","school":"cafam"},{"start_time":1551901492123,"click_time":1551901492432,"finger_time":1551901492191,"fix_duration":470.68404094609707,"trial":20,"RT":68,"MT":241,"sideResp":2,"stimulus":"img/250/equaldotsize/L/7_Ratio_250_L_8_R_2.png","xmouse":[799,804,813,850,868,889,912,929,937,937,940,951,976,1035,1062,1085],"ymouse":[504,492,477,436,416,390,363,343,334,334,328,307,264,161,113,75],"timestamp_mouse":[10,29,48,68,88,109,128,147,168,189,208,229,248,268,287,308],"xSR":741.5,"ySR":449.15000000000003,"xT1":424.9,"yT1":0,"xT2":1058.1,"yT2":0,"toosoon":0,"cond_shown":"equaldotsize","ratio_trial":250,"smaller_num":"2","larger_num":"8","correct_side":1,"subjID":"saramontenegro24","gender":"1","age":"11","school":"cafam"},{"start_time":1551901496282,"click_time":1551901497092,"finger_time":1551901496791,"fix_duration":250,"trial":21,"RT":509,"MT":301,"sideResp":1,"stimulus":"img/250/equaldotanddens/R/8_Ratio_250_L_1_R_4.png","xmouse":[768,768,768,768,768,768,768,768,768,768,768,768,768,768,768,768,768,768,768,768,768,768,768,760,742,710,695,685,677,672,653,646,637,626,618,593,579,565,555,541,524],"ymouse":[488,488,488,488,488,488,488,488,488,488,488,488,488,488,488,488,488,488,488,488,488,488,488,479,456,401,363,330,298,265,187,173,160,149,144,128,120,112,106,95,79],"timestamp_mouse":[9,30,49,70,89,110,129,149,170,189,209,229,249,268,289,310,329,348,368,390,410,430,448,469,488,509,529,549,569,589,610,629,649,669,689,709,729,750,769,789,809],"xSR":741.5,"ySR":449.15000000000003,"xT1":424.9,"yT1":0,"xT2":1058.1,"yT2":0,"toosoon":0,"cond_shown":"equaldotanddens","ratio_trial":250,"smaller_num":"1","larger_num":"4","correct_side":2,"subjID":"saramontenegro24","gender":"1","age":"11","school":"cafam"},{"start_time":1551901498265,"click_time":1551901498892,"finger_time":1551901498512,"fix_duration":273.6146426611921,"trial":22,"RT":247,"MT":380,"sideResp":2,"stimulus":"img/500/randomdotsizeEA/R/2_Ratio_500_L_3_R_6.png","xmouse":[800,800,800,800,800,800,800,800,800,800,801,815,826,842,852,866,913,941,967,985,1002,1018,1023,1024,1025,1025,1028,1037,1049,1065,1087,1115],"ymouse":[495,495,495,495,495,495,495,495,495,495,495,469,438,398,373,347,287,255,225,204,187,159,148,146,145,145,144,139,133,124,112,89],"timestamp_mouse":[6,29,45,66,86,105,127,146,165,186,207,226,247,266,286,306,326,345,365,386,405,427,445,466,487,507,526,545,567,587,606,626],"xSR":741.5,"ySR":449.15000000000003,"xT1":424.9,"yT1":0,"xT2":1058.1,"yT2":0,"toosoon":0,"cond_shown":"randomdotsizeEA","ratio_trial":500,"smaller_num":"3","larger_num":"6","correct_side":2,"subjID":"saramontenegro24","gender":"1","age":"11","school":"cafam"},{"start_time":1551901501443,"click_time":1551901502112,"finger_time":1551901501730,"fix_duration":250,"trial":23,"RT":287,"MT":382,"sideResp":1,"stimulus":"img/750/equaldotanddens/L/8_Ratio_750_L_4_R_3.png","xmouse":[799,800,801,801,801,799,799,799,799,799,799,799,799,799,799,799,795,754,733,715,697,675,606,593,571,571,571,571,575,578,579,579,552,516],"ymouse":[509,508,497,488,483,479,479,479,479,479,479,479,479,475,448,394,306,137,100,81,74,73,73,73,73,73,72,67,47,43,42,42,41,41],"timestamp_mouse":[12,29,58,69,88,108,129,147,167,188,208,228,247,268,287,308,328,348,367,388,408,428,449,468,489,508,527,548,567,589,608,628,648,669],"xSR":741.5,"ySR":449.15000000000003,"xT1":424.9,"yT1":0,"xT2":1058.1,"yT2":0,"toosoon":0,"cond_shown":"equaldotanddens","ratio_trial":750,"smaller_num":"3","larger_num":"4","correct_side":1,"subjID":"saramontenegro24","gender":"1","age":"11","school":"cafam"},{"start_time":1551901503356,"click_time":1551901503892,"finger_time":1551901503671,"fix_duration":603.2778798077729,"trial":24,"RT":315,"MT":221,"sideResp":2,"stimulus":"img/750/randomdotsizeEA/R/2_Ratio_750_L_6_R_8.png","xmouse":[798,798,798,798,798,798,798,798,798,798,798,798,798,800,809,831,854,928,948,969,997,1038,1046,1048,1048,1051,1087],"ymouse":[477,477,477,477,477,477,477,477,477,477,477,477,477,471,454,410,361,221,189,165,140,110,107,106,106,104,85],"timestamp_mouse":[15,36,55,76,95,116,136,155,176,196,216,236,256,276,296,315,335,356,375,396,415,435,454,475,495,516,536],"xSR":741.5,"ySR":449.15000000000003,"xT1":424.9,"yT1":0,"xT2":1058.1,"yT2":0,"toosoon":0,"cond_shown":"randomdotsizeEA","ratio_trial":750,"smaller_num":"6","larger_num":"8","correct_side":2,"subjID":"saramontenegro24","gender":"1","age":"11","school":"cafam"},{"start_time":1551901506724,"click_time":1551901507111,"finger_time":1551901507011,"fix_duration":250,"trial":25,"RT":287,"MT":100,"sideResp":1,"stimulus":"img/250/equaldotanddens/L/1_Ratio_250_L_8_R_2.png","xmouse":[792,792,792,792,792,792,792,792,792,792,792,792,792,789,773,748,700,638,542,516],"ymouse":[521,521,521,521,521,521,521,521,521,521,521,521,521,485,430,359,266,174,59,29],"timestamp_mouse":[10,26,48,67,87,106,127,148,166,188,208,227,247,267,287,307,327,347,368,387],"xSR":741.5,"ySR":449.15000000000003,"xT1":424.9,"yT1":0,"xT2":1058.1,"yT2":0,"toosoon":0,"cond_shown":"equaldotanddens","ratio_trial":250,"smaller_num":"2","larger_num":"8","correct_side":1,"subjID":"saramontenegro24","gender":"1","age":"11","school":"cafam"},{"start_time":1551901508800,"click_time":1551901509711,"finger_time":1551901509091,"fix_duration":967.7402686229125,"trial":26,"RT":291,"MT":620,"sideResp":1,"stimulus":"img/500/equaldotsize/L/7_Ratio_500_L_10_R_5.png","xmouse":[769,769,769,769,769,769,769,769,769,769,769,769,769,769,763,696,657,625,603,567,550,539,533,528,526,526,526,526,526,526,526,526,526,526,535,557,565,570,571,571,571,571,571,568,562,506],"ymouse":[474,474,474,474,474,474,474,474,474,474,474,474,474,466,442,283,221,177,146,102,83,71,65,61,59,59,59,59,59,59,59,59,59,63,91,146,165,175,178,178,178,178,178,178,170,72],"timestamp_mouse":[11,32,52,72,91,112,131,151,170,190,212,232,250,271,291,311,331,351,371,391,411,431,451,472,491,511,531,552,571,591,612,631,652,670,691,710,731,751,772,791,811,831,850,870,891,911],"xSR":741.5,"ySR":449.15000000000003,"xT1":424.9,"yT1":0,"xT2":1058.1,"yT2":0,"toosoon":0,"cond_shown":"equaldotsize","ratio_trial":500,"smaller_num":"5","larger_num":"10","correct_side":1,"subjID":"saramontenegro24","gender":"1","age":"11","school":"cafam"},{"start_time":1551901511503,"click_time":1551901511991,"finger_time":1551901511911,"fix_duration":891.5906290624907,"trial":27,"RT":408,"MT":80,"sideResp":1,"stimulus":"img/500/equaldotanddens/L/10_Ratio_500_L_4_R_2.png","xmouse":[816,816,816,816,816,816,816,816,816,816,814,811,809,807,803,802,802,802,802,795,764,671,593,514,462],"ymouse":[456,455,455,455,455,455,455,455,455,455,459,468,476,484,492,493,493,493,493,482,409,244,159,108,88],"timestamp_mouse":[12,32,48,69,87,107,128,149,168,189,208,227,248,268,289,309,328,347,368,388,408,428,447,467,488],"xSR":741.5,"ySR":449.15000000000003,"xT1":424.9,"yT1":0,"xT2":1058.1,"yT2":0,"toosoon":0,"cond_shown":"equaldotanddens","ratio_trial":500,"smaller_num":"2","larger_num":"4","correct_side":1,"subjID":"saramontenegro24","gender":"1","age":"11","school":"cafam"},{"start_time":1551901513505,"click_time":1551901513991,"finger_time":1551901513751,"fix_duration":250,"trial":28,"RT":246,"MT":240,"sideResp":1,"stimulus":"img/900/equaldotanddens/L/4_Ratio_900_L_20_R_18.png","xmouse":[765,765,765,765,765,765,765,765,765,765,765,769,774,774,768,761,751,731,686,602,422,410,410,410,426],"ymouse":[470,470,470,470,470,470,470,470,470,470,470,454,420,371,278,240,218,195,160,118,51,47,47,47,37],"timestamp_mouse":[15,27,47,67,86,106,127,146,167,187,206,226,246,266,286,307,326,347,366,386,407,427,446,466,486],"xSR":741.5,"ySR":449.15000000000003,"xT1":424.9,"yT1":0,"xT2":1058.1,"yT2":0,"toosoon":0,"cond_shown":"equaldotanddens","ratio_trial":900,"smaller_num":"18","larger_num":"20","correct_side":1,"subjID":"saramontenegro24","gender":"1","age":"11","school":"cafam"},{"start_time":1551901516107,"click_time":1551901516511,"finger_time":1551901516411,"fix_duration":1314.7289816381744,"trial":29,"RT":304,"MT":100,"sideResp":2,"stimulus":"img/750/equaldotanddens/R/2_Ratio_750_L_6_R_8.png","xmouse":[780,780,780,780,780,780,780,780,780,780,780,781,785,791,827,867,910,956,998,1076,1121],"ymouse":[491,497,497,505,505,505,505,505,505,505,503,502,499,493,453,405,340,272,215,126,92],"timestamp_mouse":[10,35,44,64,85,105,124,144,163,184,203,224,244,264,284,304,324,344,365,385,403],"xSR":741.5,"ySR":449.15000000000003,"xT1":424.9,"yT1":0,"xT2":1058.1,"yT2":0,"toosoon":0,"cond_shown":"equaldotanddens","ratio_trial":750,"smaller_num":"6","larger_num":"8","correct_side":2,"subjID":"saramontenegro24","gender":"1","age":"11","school":"cafam"},{"start_time":1551901517642,"click_time":1551901518071,"finger_time":1551901517911,"fix_duration":250,"trial":30,"RT":269,"MT":160,"sideResp":2,"stimulus":"img/500/equaldotsize/L/10_Ratio_500_L_4_R_2.png","xmouse":[784,784,784,784,784,784,784,784,784,787,788,790,795,815,834,855,886,959,999,1028,1048,1060],"ymouse":[502,502,502,502,502,502,502,502,502,501,500,499,492,443,402,346,288,179,119,74,43,20],"timestamp_mouse":[9,30,50,69,90,109,129,150,169,188,208,229,249,269,289,309,328,349,369,389,409,428],"xSR":741.5,"ySR":449.15000000000003,"xT1":424.9,"yT1":0,"xT2":1058.1,"yT2":0,"toosoon":0,"cond_shown":"equaldotsize","ratio_trial":500,"smaller_num":"2","larger_num":"4","correct_side":1,"subjID":"saramontenegro24","gender":"1","age":"11","school":"cafam"},{"start_time":1551901521563,"click_time":1551901522151,"finger_time":1551901521891,"fix_duration":250,"trial":31,"RT":328,"MT":260,"sideResp":1,"stimulus":"img/500/equaldotanddens/R/1_Ratio_500_L_9_R_18.png","xmouse":[783,783,783,783,783,783,783,783,783,783,784,784,785,785,785,778,746,703,671,642,615,591,559,553,548,541,534,533,529,522],"ymouse":[500,500,500,500,500,500,500,500,501,501,501,501,501,500,492,474,410,321,263,215,169,125,65,50,39,27,18,17,16,14],"timestamp_mouse":[21,41,48,69,89,108,128,148,169,189,208,228,248,268,288,308,328,347,368,388,408,428,448,468,488,507,528,547,568,588],"xSR":741.5,"ySR":449.15000000000003,"xT1":424.9,"yT1":0,"xT2":1058.1,"yT2":0,"toosoon":0,"cond_shown":"equaldotanddens","ratio_trial":500,"smaller_num":"9","larger_num":"18","correct_side":2,"subjID":"saramontenegro24","gender":"1","age":"11","school":"cafam"},{"start_time":1551901523581,"click_time":1551901524292,"finger_time":1551901523931,"fix_duration":667.5355581925485,"trial":32,"RT":350,"MT":361,"sideResp":1,"stimulus":"img/900/equaldotanddens/R/9_Ratio_900_L_18_R_20.png","xmouse":[809,809,809,809,809,809,809,809,809,809,809,809,809,809,810,810,809,801,778,737,604,524,451,415,402,400,400,402,407,411,417,417,417,417,417,454],"ymouse":[495,495,495,495,495,495,495,495,495,495,495,495,495,495,495,487,470,443,399,348,226,168,117,90,79,76,74,68,56,39,1,1,1,1,1,2],"timestamp_mouse":[10,30,50,70,89,109,131,150,171,191,211,230,249,270,290,311,330,350,371,390,410,430,449,470,490,510,530,549,571,590,611,630,650,670,689,711],"xSR":741.5,"ySR":449.15000000000003,"xT1":424.9,"yT1":0,"xT2":1058.1,"yT2":0,"toosoon":0,"cond_shown":"equaldotanddens","ratio_trial":900,"smaller_num":"18","larger_num":"20","correct_side":2,"subjID":"saramontenegro24","gender":"1","age":"11","school":"cafam"},{"start_time":1551901530203,"click_time":1551901531231,"finger_time":1551901530472,"fix_duration":250,"trial":33,"RT":269,"MT":759,"sideResp":1,"stimulus":"img/250/equaldotsize/L/5_Ratio_250_L_24_R_6.png","xmouse":[794,794,794,794,794,794,794,794,794,794,794,799,808,819,861,881,903,926,948,982,992,996,997,998,998,998,1001,1006,1009,1020,1026,1031,1036,1042,1050,1050,1050,1042,995,920,778,733,701,667,600,579,563,553,549,544,535,524],"ymouse":[493,493,493,493,493,493,493,493,493,493,493,487,467,441,352,320,291,264,235,190,171,159,150,145,141,133,121,104,94,79,72,67,64,61,56,56,56,58,71,89,110,113,113,101,71,64,60,56,55,50,37,23],"timestamp_mouse":[9,36,48,68,89,111,129,149,167,189,207,228,247,269,289,307,328,348,368,388,408,428,448,469,489,507,528,549,568,588,608,627,648,668,688,709,728,748,768,788,808,829,848,867,889,909,927,949,968,989,1007,1028],"xSR":741.5,"ySR":449.15000000000003,"xT1":424.9,"yT1":0,"xT2":1058.1,"yT2":0,"toosoon":0,"cond_shown":"equaldotsize","ratio_trial":250,"smaller_num":"6","larger_num":"24","correct_side":1,"subjID":"saramontenegro24","gender":"1","age":"11","school":"cafam"},{"start_time":1551901534952,"click_time":1551901537131,"finger_time":1551901535111,"fix_duration":340.91823021874865,"trial":34,"RT":159,"MT":2020,"sideResp":1,"stimulus":"img/250/equaldotsize/R/4_Ratio_250_L_3_R_12.png","xmouse":[794,794,794,794,793,793,792,789,788,787,786,783,781,779,778,778,778,778,778,778,778,778,778,778,778,780,780,780,780,780,780,780,778,774,772,767,753,749,749,749,749,753,758,764,769,773,784,794,802,806,809,809,809,809,809,809,809,809,809,809,809,809,809,809,810,812,812,812,812,812,812,812,812,812,812,812,812,812,812,812,812,812,812,811,811,811,811,811,811,811,811,811,811,811,811,811,811,811,811,811,811,811,809,799,780,746,635,530,471],"ymouse":[467,467,467,467,463,459,450,435,431,428,424,416,411,404,402,402,402,402,402,402,402,402,402,402,405,411,411,411,411,411,411,412,414,419,423,429,436,437,437,437,438,456,466,473,474,474,474,475,481,482,482,482,482,482,482,482,482,482,482,482,482,482,482,489,496,502,502,502,502,502,502,502,502,502,502,502,502,502,502,502,502,502,498,494,492,492,492,492,492,492,492,492,492,492,492,492,492,492,492,492,492,492,490,468,432,382,244,145,95],"timestamp_mouse":[18,39,59,80,98,120,139,159,178,198,218,239,258,279,299,320,339,360,380,399,418,438,459,479,499,520,539,559,579,599,619,639,658,679,699,719,739,759,780,799,819,839,858,879,898,919,938,959,980,1000,1018,1039,1060,1078,1099,1120,1139,1160,1178,1199,1219,1240,1259,1280,1299,1319,1340,1360,1378,1400,1419,1439,1458,1480,1500,1519,1538,1560,1580,1598,1620,1640,1658,1679,1699,1719,1739,1759,1778,1800,1818,1839,1858,1880,1898,1920,1938,1960,1978,1999,2019,2040,2058,2078,2099,2119,2139,2158,2179],"xSR":741.5,"ySR":449.15000000000003,"xT1":424.9,"yT1":0,"xT2":1058.1,"yT2":0,"toosoon":0,"cond_shown":"equaldotsize","ratio_trial":250,"smaller_num":"3","larger_num":"12","correct_side":2,"subjID":"saramontenegro24","gender":"1","age":"11","school":"cafam"},{"start_time":1551901538272,"click_time":1551901539072,"finger_time":1551901538592,"fix_duration":380.47554778844085,"trial":35,"RT":320,"MT":480,"sideResp":2,"stimulus":"img/250/equaldotsize/R/11_Ratio_250_L_3_R_12.png","xmouse":[794,797,806,811,813,814,815,816,817,819,821,826,831,835,841,845,845,845,845,843,834,819,818,818,818,818,818,818,818,818,834,868,912,955,999,1028,1055,1058,1058,1059],"ymouse":[493,492,488,487,487,487,487,487,487,487,487,487,489,493,498,501,501,501,502,505,508,515,515,515,515,515,515,515,515,510,488,439,379,319,249,189,115,102,98,95],"timestamp_mouse":[18,39,59,79,98,119,138,159,178,200,218,239,258,278,299,320,340,359,378,398,419,438,459,478,499,520,539,558,579,600,618,639,659,679,699,718,738,758,779,799],"xSR":741.5,"ySR":449.15000000000003,"xT1":424.9,"yT1":0,"xT2":1058.1,"yT2":0,"toosoon":0,"cond_shown":"equaldotsize","ratio_trial":250,"smaller_num":"3","larger_num":"12","correct_side":2,"subjID":"saramontenegro24","gender":"1","age":"11","school":"cafam"},{"start_time":1551901540652,"click_time":1551901541210,"finger_time":1551901540990,"fix_duration":760.2145640403995,"trial":36,"RT":338,"MT":220,"sideResp":2,"stimulus":"img/900/equaldotanddens/L/1_Ratio_900_L_10_R_9.png","xmouse":[788,788,788,788,788,788,788,788,788,788,788,791,798,803,809,817,834,847,858,869,889,908,970,989,1008,1023,1049,1060],"ymouse":[512,512,512,512,512,512,512,512,512,512,511,510,506,502,495,483,444,415,379,338,292,249,122,85,63,46,19,10],"timestamp_mouse":[21,41,59,79,99,118,140,158,179,199,219,238,259,278,299,319,338,359,378,398,418,439,459,479,499,519,539,558],"xSR":741.5,"ySR":449.15000000000003,"xT1":424.9,"yT1":0,"xT2":1058.1,"yT2":0,"toosoon":0,"cond_shown":"equaldotanddens","ratio_trial":900,"smaller_num":"9","larger_num":"10","correct_side":1,"subjID":"saramontenegro24","gender":"1","age":"11","school":"cafam"},{"start_time":1551901544728,"click_time":1551901545210,"finger_time":1551901544810,"fix_duration":516.540304849422,"trial":37,"RT":82,"MT":400,"sideResp":1,"stimulus":"img/250/randomdotsizeEA/R/8_Ratio_250_L_1_R_4.png","xmouse":[806,806,806,801,787,779,776,773,772,772,772,772,772,763,746,726,706,693,663,623,588,556,541,529,524],"ymouse":[486,486,486,472,445,428,416,410,406,406,406,406,406,393,373,351,329,313,275,225,182,136,109,79,67],"timestamp_mouse":[12,33,43,62,82,103,123,142,163,182,202,224,242,263,283,303,323,343,363,382,403,424,443,463,482],"xSR":741.5,"ySR":449.15000000000003,"xT1":424.9,"yT1":0,"xT2":1058.1,"yT2":0,"toosoon":0,"cond_shown":"randomdotsizeEA","ratio_trial":250,"smaller_num":"1","larger_num":"4","correct_side":2,"subjID":"saramontenegro24","gender":"1","age":"11","school":"cafam"},{"start_time":1551901546576,"click_time":1551901547092,"finger_time":1551901546850,"fix_duration":644.7680323104105,"trial":38,"RT":274,"MT":242,"sideResp":2,"stimulus":"img/250/equaldotanddens/L/15_Ratio_250_L_12_R_3.png","xmouse":[793,793,793,793,793,796,801,804,806,808,813,820,831,847,876,976,1064,1100,1113,1118,1120,1120,1119,1119,1116,1104],"ymouse":[510,510,510,510,510,510,503,500,498,496,491,485,473,455,420,302,201,161,143,136,127,124,121,119,114,97],"timestamp_mouse":[14,36,54,74,96,114,134,154,176,195,214,234,254,274,296,317,335,355,376,395,415,434,455,475,496,516],"xSR":741.5,"ySR":449.15000000000003,"xT1":424.9,"yT1":0,"xT2":1058.1,"yT2":0,"toosoon":0,"cond_shown":"equaldotanddens","ratio_trial":250,"smaller_num":"3","larger_num":"12","correct_side":1,"subjID":"saramontenegro24","gender":"1","age":"11","school":"cafam"},{"start_time":1551901548063,"click_time":1551901548671,"finger_time":1551901548471,"fix_duration":250,"trial":39,"RT":408,"MT":200,"sideResp":1,"stimulus":"img/500/equaldotanddens/R/2_Ratio_500_L_3_R_6.png","xmouse":[792,789,789,789,789,789,789,789,789,789,789,789,796,799,800,800,800,800,796,779,752,684,629,594,570,555,542,540,537,531,521],"ymouse":[494,491,491,491,491,491,491,491,491,491,491,491,493,494,494,494,494,494,486,459,414,299,222,182,152,134,115,111,104,89,72],"timestamp_mouse":[7,38,47,69,89,108,128,149,169,188,207,227,249,269,287,308,328,347,368,387,408,428,447,468,488,507,528,547,569,588,608],"xSR":741.5,"ySR":449.15000000000003,"xT1":424.9,"yT1":0,"xT2":1058.1,"yT2":0,"toosoon":0,"cond_shown":"equaldotanddens","ratio_trial":500,"smaller_num":"3","larger_num":"6","correct_side":2,"subjID":"saramontenegro24","gender":"1","age":"11","school":"cafam"},{"start_time":1551901550673,"click_time":1551901551131,"finger_time":1551901550992,"fix_duration":1282.6158242146903,"trial":40,"RT":319,"MT":139,"sideResp":2,"stimulus":"img/250/randomdotsizeEA/R/13_Ratio_250_L_2_R_8.png","xmouse":[805,807,807,807,807,810,814,816,818,820,823,825,826,827,832,852,874,901,933,960,1015,1045,1059],"ymouse":[501,499,499,499,499,498,495,493,490,489,484,481,479,475,464,425,385,337,284,234,139,86,62],"timestamp_mouse":[18,45,58,79,97,119,137,158,177,198,218,238,257,278,297,319,338,358,378,399,418,437,457],"xSR":741.5,"ySR":449.15000000000003,"xT1":424.9,"yT1":0,"xT2":1058.1,"yT2":0,"toosoon":0,"cond_shown":"randomdotsizeEA","ratio_trial":250,"smaller_num":"2","larger_num":"8","correct_side":2,"subjID":"saramontenegro24","gender":"1","age":"11","school":"cafam"},{"start_time":1551901552042,"click_time":1551901552510,"finger_time":1551901552371,"fix_duration":250,"trial":41,"RT":329,"MT":139,"sideResp":1,"stimulus":"img/750/equaldotanddens/L/8_Ratio_750_L_4_R_3.png","xmouse":[795,795,795,795,795,795,795,795,795,795,795,795,795,795,786,761,727,647,612,591,574,559,532,517],"ymouse":[515,515,515,515,515,515,515,515,515,515,515,515,515,515,505,455,394,263,218,191,173,159,130,99],"timestamp_mouse":[9,30,49,69,88,108,130,148,170,189,210,229,250,268,288,308,329,350,368,388,409,430,450,468],"xSR":741.5,"ySR":449.15000000000003,"xT1":424.9,"yT1":0,"xT2":1058.1,"yT2":0,"toosoon":0,"cond_shown":"equaldotanddens","ratio_trial":750,"smaller_num":"3","larger_num":"4","correct_side":1,"subjID":"saramontenegro24","gender":"1","age":"11","school":"cafam"},{"start_time":1551901554730,"click_time":1551901555531,"finger_time":1551901555130,"fix_duration":1416.5182197853424,"trial":42,"RT":400,"MT":401,"sideResp":2,"stimulus":"img/750/equaldotanddens/R/12_Ratio_750_L_3_R_4.png","xmouse":[801,801,801,801,801,801,801,801,801,801,800,798,797,797,797,797,797,797,797,817,859,929,1035,1260,1260,1260,1260,1260,1260,1260,1260,1260,1260,1260,1260,1260,1260,1260,1260,1184,1144],"ymouse":[470,470,470,470,470,470,470,470,470,470,470,470,471,471,471,471,471,471,471,457,416,337,233,29,29,29,29,29,29,29,29,29,29,29,29,29,29,29,29,5,29],"timestamp_mouse":[10,21,42,61,81,102,121,141,161,181,200,220,242,262,281,301,320,341,361,381,400,420,440,461,481,500,520,541,561,582,602,622,641,661,682,702,721,741,761,782,801],"xSR":741.5,"ySR":449.15000000000003,"xT1":424.9,"yT1":0,"xT2":1058.1,"yT2":0,"toosoon":0,"cond_shown":"equaldotanddens","ratio_trial":750,"smaller_num":"3","larger_num":"4","correct_side":2,"subjID":"saramontenegro24","gender":"1","age":"11","school":"cafam"},{"start_time":1551901556462,"click_time":1551901557051,"finger_time":1551901556751,"fix_duration":250,"trial":43,"RT":289,"MT":300,"sideResp":2,"stimulus":"img/750/equaldotsize/R/12_Ratio_750_L_3_R_4.png","xmouse":[798,798,798,799,799,799,799,799,799,799,799,799,799,799,803,813,846,872,900,933,964,1010,1037,1049,1055,1056,1056,1056,1056,1059],"ymouse":[483,483,483,483,477,472,471,471,471,471,471,471,470,458,439,404,295,230,173,121,82,31,11,4,2,1,1,1,1,1],"timestamp_mouse":[9,34,49,68,88,109,130,148,169,190,209,228,249,268,289,310,329,348,369,389,409,430,448,469,490,510,530,550,569,589],"xSR":741.5,"ySR":449.15000000000003,"xT1":424.9,"yT1":0,"xT2":1058.1,"yT2":0,"toosoon":0,"cond_shown":"equaldotsize","ratio_trial":750,"smaller_num":"3","larger_num":"4","correct_side":2,"subjID":"saramontenegro24","gender":"1","age":"11","school":"cafam"},{"start_time":1551901558194,"click_time":1551901558711,"finger_time":1551901558571,"fix_duration":502.22820533058444,"trial":44,"RT":377,"MT":140,"sideResp":1,"stimulus":"img/750/randomdotsizeEA/L/8_Ratio_750_L_4_R_3.png","xmouse":[805,805,805,805,805,805,805,805,805,805,805,805,805,805,805,805,796,785,772,720,699,674,646,607,517,487],"ymouse":[494,494,494,494,494,494,494,494,494,494,494,494,494,494,494,494,474,450,422,343,315,285,253,209,109,69],"timestamp_mouse":[25,37,56,77,98,117,137,158,177,198,217,236,257,277,298,318,336,357,377,398,416,436,456,477,497,517],"xSR":741.5,"ySR":449.15000000000003,"xT1":424.9,"yT1":0,"xT2":1058.1,"yT2":0,"toosoon":0,"cond_shown":"randomdotsizeEA","ratio_trial":750,"smaller_num":"3","larger_num":"4","correct_side":1,"subjID":"saramontenegro24","gender":"1","age":"11","school":"cafam"},{"start_time":1551901560740,"click_time":1551901561370,"finger_time":1551901561070,"fix_duration":1227.4626314637146,"trial":45,"RT":330,"MT":300,"sideResp":2,"stimulus":"img/500/equaldotsize/R/14_Ratio_500_L_5_R_10.png","xmouse":[794,794,794,794,794,794,794,794,794,794,794,794,794,794,795,803,824,852,917,940,956,969,995,1009,1021,1027,1033,1041,1043,1047,1055,1061],"ymouse":[478,480,480,480,480,480,480,480,480,480,480,480,480,480,470,452,403,331,181,130,92,67,35,30,24,21,19,15,15,17,24,30],"timestamp_mouse":[11,30,50,71,92,112,130,151,171,191,212,231,252,271,292,311,330,351,371,390,412,431,451,470,490,510,531,551,572,590,611,630],"xSR":741.5,"ySR":449.15000000000003,"xT1":424.9,"yT1":0,"xT2":1058.1,"yT2":0,"toosoon":0,"cond_shown":"equaldotsize","ratio_trial":500,"smaller_num":"5","larger_num":"10","correct_side":2,"subjID":"saramontenegro24","gender":"1","age":"11","school":"cafam"},{"start_time":1551901562876,"click_time":1551901563591,"finger_time":1551901563231,"fix_duration":883.9429147218374,"trial":46,"RT":355,"MT":360,"sideResp":1,"stimulus":"img/750/equaldotsize/R/5_Ratio_750_L_15_R_20.png","xmouse":[790,790,790,790,790,790,790,790,790,790,790,790,790,790,790,784,784,750,723,695,614,577,553,539,532,531,531,531,531,531,531,531,531,531,529,512],"ymouse":[507,507,507,507,507,507,507,507,507,507,507,507,507,507,502,470,470,388,341,297,182,130,97,72,55,44,41,38,38,38,38,38,38,37,35,31],"timestamp_mouse":[16,36,54,76,95,115,136,154,176,196,215,235,255,276,294,316,336,355,376,396,416,434,454,475,494,515,534,555,574,595,615,636,655,675,695,715],"xSR":741.5,"ySR":449.15000000000003,"xT1":424.9,"yT1":0,"xT2":1058.1,"yT2":0,"toosoon":0,"cond_shown":"equaldotsize","ratio_trial":750,"smaller_num":"15","larger_num":"20","correct_side":2,"subjID":"saramontenegro24","gender":"1","age":"11","school":"cafam"},{"start_time":1551901564813,"click_time":1551901565671,"finger_time":1551901565190,"fix_duration":440.30625502753907,"trial":47,"RT":377,"MT":481,"sideResp":2,"stimulus":"img/250/randomdotsizeEA/R/11_Ratio_250_L_3_R_12.png","xmouse":[811,811,811,811,811,811,811,811,811,813,813,813,814,814,819,823,825,828,837,843,848,854,860,881,897,907,920,938,977,992,1002,1014,1014,1014,1014,1014,1014,1014,1014,1014,1014,1014,1130],"ymouse":[498,498,498,498,498,498,498,498,498,497,496,496,494,492,484,476,471,463,441,425,407,389,369,320,277,246,214,169,79,44,20,0,0,0,0,0,0,0,0,0,0,0,3],"timestamp_mouse":[18,38,58,79,97,119,139,158,177,199,219,238,258,277,298,318,338,358,377,397,418,438,458,478,497,518,539,558,578,597,618,638,659,678,697,718,737,759,778,798,818,838,858],"xSR":741.5,"ySR":449.15000000000003,"xT1":424.9,"yT1":0,"xT2":1058.1,"yT2":0,"toosoon":0,"cond_shown":"randomdotsizeEA","ratio_trial":250,"smaller_num":"3","larger_num":"12","correct_side":2,"subjID":"saramontenegro24","gender":"1","age":"11","school":"cafam"},{"start_time":1551901567880,"click_time":1551901568412,"finger_time":1551901568010,"fix_duration":1248.766607302053,"trial":48,"RT":130,"MT":402,"sideResp":1,"stimulus":"img/250/equaldotsize/L/1_Ratio_250_L_8_R_2.png","xmouse":[804,804,804,805,806,808,808,808,809,809,810,810,810,810,810,810,806,804,800,794,789,754,714,657,599,535,516],"ymouse":[470,467,462,458,455,450,449,447,447,445,441,436,432,429,425,417,404,394,380,362,345,277,217,148,87,31,19],"timestamp_mouse":[13,38,51,70,90,111,130,151,171,190,211,231,251,270,291,311,330,351,370,391,411,432,451,471,491,511,532],"xSR":741.5,"ySR":449.15000000000003,"xT1":424.9,"yT1":0,"xT2":1058.1,"yT2":0,"toosoon":0,"cond_shown":"equaldotsize","ratio_trial":250,"smaller_num":"2","larger_num":"8","correct_side":1,"subjID":"saramontenegro24","gender":"1","age":"11","school":"cafam"},{"start_time":1551901569615,"click_time":1551901570192,"finger_time":1551901570090,"fix_duration":263.4211239476967,"trial":49,"RT":475,"MT":102,"sideResp":1,"stimulus":"img/500/randomdotsizeEA/R/9_Ratio_500_L_2_R_4.png","xmouse":[773,773,773,773,773,773,773,773,773,773,773,773,773,773,776,777,777,777,777,777,777,777,777,750,699,659,616,572,484],"ymouse":[471,471,471,471,471,471,471,471,471,471,471,471,471,471,475,476,476,476,476,476,476,475,468,380,270,201,138,90,35],"timestamp_mouse":[16,36,56,76,96,115,135,155,176,195,217,237,256,275,296,315,337,356,376,395,417,435,456,475,495,515,536,556,576],"xSR":741.5,"ySR":449.15000000000003,"xT1":424.9,"yT1":0,"xT2":1058.1,"yT2":0,"toosoon":0,"cond_shown":"randomdotsizeEA","ratio_trial":500,"smaller_num":"2","larger_num":"4","correct_side":2,"subjID":"saramontenegro24","gender":"1","age":"11","school":"cafam"},{"start_time":1551901572031,"click_time":1551901572491,"finger_time":1551901572330,"fix_duration":779.0653983535886,"trial":50,"RT":299,"MT":161,"sideResp":2,"stimulus":"img/900/equaldotsize/R/9_Ratio_900_L_18_R_20.png","xmouse":[803,803,803,803,803,803,801,798,790,785,784,784,784,784,784,789,810,840,923,962,998,1023,1043,1059],"ymouse":[453,453,453,453,453,456,459,462,472,479,480,480,480,480,472,439,388,323,194,139,94,69,56,48],"timestamp_mouse":[2,20,44,60,81,100,121,140,160,180,200,219,241,259,280,299,321,340,360,379,400,420,439,460],"xSR":741.5,"ySR":449.15000000000003,"xT1":424.9,"yT1":0,"xT2":1058.1,"yT2":0,"toosoon":0,"cond_shown":"equaldotsize","ratio_trial":900,"smaller_num":"18","larger_num":"20","correct_side":2,"subjID":"saramontenegro24","gender":"1","age":"11","school":"cafam"},{"start_time":1551901573442,"click_time":1551901573891,"finger_time":1551901573771,"fix_duration":250,"trial":51,"RT":329,"MT":120,"sideResp":2,"stimulus":"img/500/randomdotsizeEA/L/8_Ratio_500_L_8_R_4.png","xmouse":[796,796,796,796,796,796,796,796,796,796,796,796,796,796,796,797,805,850,887,927,968,1009,1065],"ymouse":[478,478,478,478,478,478,478,478,478,478,478,478,478,478,478,459,426,300,226,157,104,64,14],"timestamp_mouse":[10,28,49,68,89,108,129,149,169,189,208,228,249,270,288,309,329,349,368,389,409,429,449],"xSR":741.5,"ySR":449.15000000000003,"xT1":424.9,"yT1":0,"xT2":1058.1,"yT2":0,"toosoon":0,"cond_shown":"randomdotsizeEA","ratio_trial":500,"smaller_num":"4","larger_num":"8","correct_side":1,"subjID":"saramontenegro24","gender":"1","age":"11","school":"cafam"},{"start_time":1551901575410,"click_time":1551901575991,"finger_time":1551901575770,"fix_duration":557.4808283569308,"trial":52,"RT":360,"MT":221,"sideResp":2,"stimulus":"img/900/equaldotsize/R/14_Ratio_900_L_18_R_20.png","xmouse":[799,799,799,799,799,799,799,799,799,799,799,799,799,799,799,799,803,812,821,834,839,845,854,866,937,1016,1060,1093,1109,1125],"ymouse":[499,499,499,499,499,499,499,499,499,499,499,499,499,499,499,499,490,469,444,398,380,360,336,311,223,172,142,118,105,90],"timestamp_mouse":[10,20,40,60,82,102,121,142,160,180,201,222,242,260,282,301,320,340,360,381,400,420,440,461,481,501,521,542,561,580],"xSR":741.5,"ySR":449.15000000000003,"xT1":424.9,"yT1":0,"xT2":1058.1,"yT2":0,"toosoon":0,"cond_shown":"equaldotsize","ratio_trial":900,"smaller_num":"18","larger_num":"20","correct_side":2,"subjID":"saramontenegro24","gender":"1","age":"11","school":"cafam"},{"start_time":1551901577182,"click_time":1551901578112,"finger_time":1551901577610,"fix_duration":250,"trial":53,"RT":428,"MT":502,"sideResp":2,"stimulus":"img/250/equaldotanddens/R/8_Ratio_250_L_1_R_4.png","xmouse":[789,789,789,789,789,789,789,789,789,789,789,789,789,789,789,789,789,792,793,793,805,829,870,934,996,1044,1044,1044,1044,1044,1044,1044,1044,1044,1044,1044,1044,1044,1044,1163,1163,1163,1163,1163,1163,1159,1154],"ymouse":[518,518,518,518,518,518,518,518,518,518,518,518,518,518,518,518,518,518,514,508,474,418,328,214,104,4,4,4,4,4,4,4,4,4,4,4,4,4,4,4,16,31,43,50,53,59,63],"timestamp_mouse":[9,29,49,68,88,108,129,148,169,188,208,228,250,269,288,308,329,348,369,389,408,428,449,469,489,510,529,548,568,589,610,630,649,669,688,709,728,749,768,788,809,830,849,870,889,909,930],"xSR":741.5,"ySR":449.15000000000003,"xT1":424.9,"yT1":0,"xT2":1058.1,"yT2":0,"toosoon":0,"cond_shown":"equaldotanddens","ratio_trial":250,"smaller_num":"1","larger_num":"4","correct_side":2,"subjID":"saramontenegro24","gender":"1","age":"11","school":"cafam"},{"start_time":1551901580472,"click_time":1551901581371,"finger_time":1551901580951,"fix_duration":1318.9966148591836,"trial":54,"RT":479,"MT":420,"sideResp":1,"stimulus":"img/250/randomdotsizeEA/L/5_Ratio_250_L_24_R_6.png","xmouse":[781,781,781,781,781,781,781,781,781,781,781,781,781,781,781,781,781,781,781,781,782,787,789,791,791,791,780,763,738,705,667,595,583,573,566,561,560,560,560,558,558,556,544,535,525,514],"ymouse":[490,490,490,490,490,490,490,490,490,490,490,490,490,490,490,490,490,490,490,490,488,476,468,453,439,427,400,373,341,299,242,129,103,84,67,58,56,56,56,54,53,52,50,49,48,47],"timestamp_mouse":[2,30,39,58,79,100,119,140,158,179,200,220,240,259,279,300,318,339,358,378,398,419,439,458,479,498,519,538,559,579,599,620,638,659,680,699,719,740,760,778,798,819,839,858,879,899],"xSR":741.5,"ySR":449.15000000000003,"xT1":424.9,"yT1":0,"xT2":1058.1,"yT2":0,"toosoon":0,"cond_shown":"randomdotsizeEA","ratio_trial":250,"smaller_num":"6","larger_num":"24","correct_side":1,"subjID":"saramontenegro24","gender":"1","age":"11","school":"cafam"},{"start_time":1551901585729,"click_time":1551901586591,"finger_time":1551901586251,"fix_duration":636.2910298631459,"trial":55,"RT":522,"MT":340,"sideResp":1,"stimulus":"img/750/randomdotsizeEA/R/4_Ratio_750_L_15_R_20.png","xmouse":[819,819,818,817,817,817,817,817,817,817,817,817,817,817,817,817,817,817,817,817,817,817,817,817,814,804,791,777,743,704,663,613,563,510,508,508,508,508,506,498,496,496,496,499],"ymouse":[455,455,456,463,464,464,464,465,466,466,466,466,466,466,468,470,471,471,471,471,471,471,471,471,468,456,441,425,388,355,324,286,251,213,211,211,211,206,181,151,133,121,110,86],"timestamp_mouse":[10,21,43,62,82,101,123,142,162,182,203,221,241,262,281,302,323,341,362,383,401,423,442,462,481,510,522,543,561,582,601,622,641,662,682,702,721,742,762,783,802,823,842,862],"xSR":741.5,"ySR":449.15000000000003,"xT1":424.9,"yT1":0,"xT2":1058.1,"yT2":0,"toosoon":0,"cond_shown":"randomdotsizeEA","ratio_trial":750,"smaller_num":"15","larger_num":"20","correct_side":2,"subjID":"saramontenegro24","gender":"1","age":"11","school":"cafam"},{"start_time":1551901588690,"click_time":1551901590710,"finger_time":1551901589911,"fix_duration":1317.7323364643696,"trial":56,"RT":1221,"MT":799,"sideResp":2,"stimulus":"img/750/randomdotsizeEA/R/11_Ratio_750_L_12_R_16.png","xmouse":[824,824,823,823,823,823,823,822,818,817,817,817,817,817,817,817,817,817,817,817,817,817,817,817,817,817,817,817,817,817,817,817,817,817,817,817,817,817,817,817,817,817,817,817,817,817,817,817,817,817,817,817,817,817,817,817,817,817,817,817,819,823,825,826,826,826,826,826,826,825,823,823,822,822,822,820,817,813,810,806,801,796,796,796,796,796,796,796,796,796,796,796,796,796,796,803,855,916,976,1014,1047,1065],"ymouse":[541,541,541,541,541,541,540,533,525,523,523,523,523,523,523,523,523,523,523,523,523,523,523,523,523,523,523,523,523,523,523,523,523,523,523,523,523,523,523,523,523,523,523,523,523,523,523,523,523,523,523,523,523,523,523,523,523,523,523,524,547,565,570,571,571,571,571,571,572,575,576,576,576,576,576,574,567,555,545,535,522,504,504,504,504,504,504,504,504,504,504,504,504,504,504,494,413,303,199,128,79,60],"timestamp_mouse":[10,31,42,61,80,100,120,141,162,181,202,221,241,262,281,300,320,342,361,382,400,422,442,461,480,500,521,541,561,581,601,621,641,662,682,701,722,742,760,781,802,822,842,862,880,901,921,942,962,981,1001,1022,1041,1061,1081,1102,1122,1140,1161,1180,1200,1221,1240,1260,1281,1301,1322,1341,1361,1380,1401,1421,1441,1461,1480,1501,1520,1541,1561,1580,1601,1622,1640,1660,1681,1700,1721,1741,1761,1782,1800,1821,1842,1860,1881,1900,1921,1941,1961,1980,2002,2020],"xSR":741.5,"ySR":449.15000000000003,"xT1":424.9,"yT1":0,"xT2":1058.1,"yT2":0,"toosoon":0,"cond_shown":"randomdotsizeEA","ratio_trial":750,"smaller_num":"12","larger_num":"16","correct_side":2,"subjID":"saramontenegro24","gender":"1","age":"11","school":"cafam"},{"start_time":1551901594345,"click_time":1551901594891,"finger_time":1551901594690,"fix_duration":1432.1936611914155,"trial":57,"RT":345,"MT":201,"sideResp":1,"stimulus":"img/900/equaldotsize/L/1_Ratio_900_L_10_R_9.png","xmouse":[795,795,795,795,795,795,795,795,795,795,795,795,795,790,788,784,784,747,695,644,599,561,533,533,533,531,529,520],"ymouse":[487,487,487,487,487,487,487,487,487,487,487,487,481,475,470,462,458,371,276,210,167,140,126,126,126,122,103,66],"timestamp_mouse":[10,26,45,67,86,106,126,147,166,186,207,227,246,265,287,305,327,345,367,385,407,426,445,466,486,506,526,546],"xSR":741.5,"ySR":449.15000000000003,"xT1":424.9,"yT1":0,"xT2":1058.1,"yT2":0,"toosoon":0,"cond_shown":"equaldotsize","ratio_trial":900,"smaller_num":"9","larger_num":"10","correct_side":1,"subjID":"saramontenegro24","gender":"1","age":"11","school":"cafam"},{"start_time":1551901596934,"click_time":1551901604770,"finger_time":1551901604171,"fix_duration":1021.236550130474,"trial":58,"RT":7237,"MT":599,"sideResp":1,"stimulus":"img/750/randomdotsizeEA/R/7_Ratio_750_L_3_R_4.png","xmouse":[839,839,839,839,839,839,839,839,839,839,839,839,839,839,839,839,839,839,839,839,839,839,839,839,839,839,839,839,839,839,839,839,839,839,839,839,839,839,839,839,839,839,839,839,839,839,839,839,839,839,839,839,839,839,839,839,839,839,839,839,839,839,839,839,839,839,839,839,839,839,839,839,839,839,839,839,839,839,839,839,839,839,839,839,839,839,839,839,839,839,839,839,839,839,839,839,839,839,839,839,839,839,839,839,839,839,839,839,839,839,839,839,839,839,839,839,839,839,839,839,839,839,839,839,839,839,839,839,839,839,839,839,839,839,839,839,839,839,839,839,839,839,839,839,839,839,839,839,839,839,839,839,839,839,839,839,839,839,839,839,839,839,839,839,839,839,839,839,839,839,839,839,839,839,839,839,839,839,839,839,839,839,839,839,839,839,839,839,839,839,839,839,839,839,839,839,839,839,839,839,839,839,839,839,839,839,839,839,839,839,839,839,839,839,839,839,839,839,839,839,839,839,839,839,839,839,839,839,839,839,839,839,839,839,839,839,839,839,839,839,839,839,839,839,839,839,839,839,839,839,839,839,839,839,839,839,839,839,839,839,839,839,839,839,839,839,839,839,839,839,839,839,839,839,839,839,839,839,839,839,839,839,839,839,839,839,839,839,839,839,839,839,839,839,839,839,839,839,839,839,839,839,839,839,839,839,839,839,839,839,839,839,839,839,839,839,839,839,839,839,839,839,839,839,839,839,839,839,839,839,839,839,839,839,839,839,839,839,839,839,839,839,839,839,839,839,839,839,839,839,839,839,839,839,839,839,838,838,841,841,841,829,762,628,512,379,379,379,379,379,379,379,379,379,379,379,379,379,379,379,379,379,379,379,379,379,379,379,379,379,379,516],"ymouse":[492,492,492,492,492,492,492,492,492,492,492,492,492,492,492,492,492,492,492,492,492,492,492,492,492,492,492,492,492,492,492,492,492,492,492,492,492,492,492,492,492,492,492,492,492,492,492,492,492,492,492,492,492,492,492,492,492,492,492,492,492,492,492,492,492,492,492,492,492,492,492,492,492,492,492,492,492,492,492,492,492,492,492,492,492,492,492,492,492,492,492,492,492,492,492,492,492,492,492,492,492,492,492,492,492,492,492,492,492,492,492,492,492,492,492,492,492,492,492,492,492,492,492,492,492,492,492,492,492,492,492,492,492,492,492,492,492,492,492,492,492,492,492,492,492,492,492,492,492,492,492,492,492,492,492,492,492,492,492,492,492,492,492,492,492,492,492,492,492,492,492,492,492,492,492,492,492,492,492,492,492,492,492,492,492,492,492,492,492,492,492,492,492,492,492,492,492,492,492,492,492,492,492,492,492,492,492,492,492,492,492,492,492,492,492,492,492,492,492,492,492,492,492,492,492,492,492,492,492,492,492,492,492,492,492,492,492,492,492,492,492,492,492,492,492,492,492,492,492,492,492,492,492,492,492,492,492,492,492,492,492,492,492,492,492,492,492,492,492,492,492,492,492,492,492,492,492,492,492,492,492,492,492,492,492,492,492,492,492,492,492,492,492,492,492,492,492,492,492,492,492,492,492,492,492,492,492,492,492,492,492,492,492,492,492,492,492,492,492,492,492,492,492,492,492,492,492,492,492,492,492,492,492,492,492,492,492,492,492,492,492,492,492,492,492,492,492,492,492,492,492,492,492,492,492,492,489,471,450,450,450,445,414,309,185,20,20,20,20,20,20,20,20,20,20,20,20,20,20,20,20,20,20,20,20,20,20,20,20,20,20,2],"timestamp_mouse":[17,36,57,78,96,118,137,156,177,198,216,236,257,277,298,317,338,358,377,397,417,437,458,477,497,517,537,557,576,596,617,636,656,676,698,716,738,757,776,798,817,838,857,878,896,918,937,957,977,998,1016,1036,1058,1077,1097,1118,1136,1156,1176,1198,1216,1238,1258,1276,1296,1317,1338,1357,1377,1397,1416,1437,1456,1476,1498,1517,1537,1558,1578,1596,1617,1638,1656,1676,1696,1718,1737,1757,1777,1797,1817,1837,1856,1877,1898,1916,1937,1956,1977,1996,2017,2036,2058,2078,2096,2116,2137,2158,2177,2198,2217,2237,2256,2277,2298,2317,2338,2357,2376,2396,2417,2438,2457,2477,2496,2518,2536,2557,2577,2596,2618,2637,2656,2676,2696,2718,2738,2757,2777,2797,2818,2837,2856,2877,2898,2918,2938,2957,2976,2996,3017,3036,3058,3078,3098,3117,3136,3158,3178,3197,3218,3237,3257,3278,3297,3318,3338,3357,3376,3396,3417,3438,3457,3478,3496,3518,3538,3557,3577,3597,3617,3636,3657,3676,3698,3717,3738,3757,3776,3797,3818,3838,3856,3878,3898,3917,3938,3957,3978,3996,4017,4037,4057,4077,4097,4117,4138,4156,4177,4196,4216,4237,4258,4277,4297,4317,4336,4357,4378,4396,4416,4438,4457,4478,4497,4517,4537,4557,4578,4598,4618,4637,4657,4678,4697,4716,4737,4757,4778,4798,4818,4837,4856,4878,4898,4917,4937,4956,4978,4998,5018,5037,5056,5078,5098,5116,5136,5157,5177,5198,5217,5238,5257,5276,5298,5317,5338,5356,5376,5396,5418,5438,5457,5477,5496,5517,5537,5558,5577,5598,5617,5637,5658,5676,5698,5717,5736,5756,5777,5796,5818,5837,5857,5878,5897,5917,5936,5956,5978,5998,6018,6037,6057,6076,6098,6116,6138,6157,6178,6196,6216,6237,6256,6278,6296,6317,6338,6357,6378,6396,6416,6438,6457,6477,6496,6518,6537,6557,6577,6598,6617,6637,6657,6677,6697,6717,6737,6757,6776,6798,6816,6837,6858,6878,6896,6916,6938,6957,6978,6998,7016,7037,7058,7078,7098,7117,7136,7156,7178,7196,7218,7237,7256,7276,7296,7317,7336,7356,7376,7396,7416,7436,7456,7476,7498,7517,7536,7556,7577,7596,7616,7636,7657,7677,7696,7716,7737,7757,7776,7796,7817,7836],"xSR":741.5,"ySR":449.15000000000003,"xT1":424.9,"yT1":0,"xT2":1058.1,"yT2":0,"toosoon":0,"cond_shown":"randomdotsizeEA","ratio_trial":750,"smaller_num":"3","larger_num":"4","correct_side":2,"subjID":"saramontenegro24","gender":"1","age":"11","school":"cafam"},{"start_time":1551901606354,"click_time":1551901606990,"finger_time":1551901606691,"fix_duration":680.2448953372768,"trial":59,"RT":337,"MT":299,"sideResp":2,"stimulus":"img/500/equaldotsize/R/12_Ratio_500_L_1_R_2.png","xmouse":[798,798,798,798,798,798,798,798,798,798,798,798,798,798,799,801,816,834,855,886,915,960,971,979,986,990,994,998,1006,1024,1045,1079],"ymouse":[503,503,503,503,503,503,503,503,503,503,503,503,503,503,498,492,443,400,344,281,233,151,135,127,120,116,113,110,103,88,64,24],"timestamp_mouse":[18,37,58,76,97,117,138,156,178,196,216,236,258,276,297,318,337,358,377,398,417,437,456,476,497,517,536,557,578,597,618,636],"xSR":741.5,"ySR":449.15000000000003,"xT1":424.9,"yT1":0,"xT2":1058.1,"yT2":0,"toosoon":0,"cond_shown":"equaldotsize","ratio_trial":500,"smaller_num":"1","larger_num":"2","correct_side":2,"subjID":"saramontenegro24","gender":"1","age":"11","school":"cafam"},{"start_time":1551901607842,"click_time":1551901608491,"finger_time":1551901608171,"fix_duration":250,"trial":60,"RT":329,"MT":320,"sideResp":2,"stimulus":"img/900/randomdotsizeEA/L/4_Ratio_900_L_20_R_18.png","xmouse":[786,786,786,786,786,786,786,786,786,786,786,786,786,786,798,812,834,881,913,947,969,990,1006,1027,1030,1030,1030,1030,1030,1031,1035,1040,1059],"ymouse":[523,523,523,523,523,523,523,523,523,523,523,523,523,516,491,459,415,326,279,232,195,158,129,90,85,82,82,82,82,81,76,66,39],"timestamp_mouse":[11,28,49,69,89,108,128,150,169,190,208,229,249,269,288,310,329,348,368,388,408,428,449,468,489,510,529,549,568,588,608,630,649],"xSR":741.5,"ySR":449.15000000000003,"xT1":424.9,"yT1":0,"xT2":1058.1,"yT2":0,"toosoon":0,"cond_shown":"randomdotsizeEA","ratio_trial":900,"smaller_num":"18","larger_num":"20","correct_side":1,"subjID":"saramontenegro24","gender":"1","age":"11","school":"cafam"},{"start_time":1551901611517,"click_time":1551901612092,"finger_time":1551901611750,"fix_duration":703.296078433372,"trial":61,"RT":233,"MT":342,"sideResp":1,"stimulus":"img/750/equaldotsize/L/10_Ratio_750_L_4_R_3.png","xmouse":[764,764,764,764,764,764,764,764,764,763,760,749,734,681,660,646,627,606,560,550,539,534,532,532,532,532,532,530,514],"ymouse":[510,510,510,510,510,510,510,510,510,507,468,407,348,257,230,213,193,173,118,100,84,73,70,70,70,70,70,69,58],"timestamp_mouse":[14,34,54,73,93,113,134,155,174,194,213,233,253,273,293,314,334,353,374,394,413,434,455,473,495,514,534,555,574],"xSR":741.5,"ySR":449.15000000000003,"xT1":424.9,"yT1":0,"xT2":1058.1,"yT2":0,"toosoon":0,"cond_shown":"equaldotsize","ratio_trial":750,"smaller_num":"3","larger_num":"4","correct_side":1,"subjID":"saramontenegro24","gender":"1","age":"11","school":"cafam"},{"start_time":1551901613691,"click_time":1551901614471,"finger_time":1551901614010,"fix_duration":760.116789023426,"trial":62,"RT":319,"MT":461,"sideResp":1,"stimulus":"img/500/equaldotanddens/R/15_Ratio_500_L_1_R_2.png","xmouse":[784,784,781,781,781,781,781,781,781,781,781,781,781,781,775,765,757,748,739,729,687,660,626,606,573,568,567,567,567,563,561,561,562,569,587,589,581,550,485],"ymouse":[487,485,480,480,480,480,480,480,480,480,480,480,480,480,460,427,398,373,351,331,269,239,212,196,182,181,181,181,181,178,172,167,157,144,103,79,59,45,26],"timestamp_mouse":[20,43,59,81,100,120,140,161,181,201,219,240,261,281,300,319,340,360,381,399,420,439,459,480,500,520,540,561,581,600,620,640,661,680,699,719,740,760,780],"xSR":741.5,"ySR":449.15000000000003,"xT1":424.9,"yT1":0,"xT2":1058.1,"yT2":0,"toosoon":0,"cond_shown":"equaldotanddens","ratio_trial":500,"smaller_num":"1","larger_num":"2","correct_side":2,"subjID":"saramontenegro24","gender":"1","age":"11","school":"cafam"},{"start_time":1551901615853,"click_time":1551901616291,"finger_time":1551901616190,"fix_duration":660.3265169954623,"trial":63,"RT":337,"MT":101,"sideResp":1,"stimulus":"img/750/equaldotsize/L/13_Ratio_750_L_8_R_6.png","xmouse":[790,790,790,790,790,790,790,790,790,790,790,792,793,794,794,792,744,689,631,576,541,498],"ymouse":[485,485,485,485,485,485,485,485,485,485,485,485,485,485,480,460,363,289,219,159,127,89],"timestamp_mouse":[18,38,58,78,98,117,137,157,179,199,218,238,258,278,298,318,337,357,378,398,418,438],"xSR":741.5,"ySR":449.15000000000003,"xT1":424.9,"yT1":0,"xT2":1058.1,"yT2":0,"toosoon":0,"cond_shown":"equaldotsize","ratio_trial":750,"smaller_num":"6","larger_num":"8","correct_side":1,"subjID":"saramontenegro24","gender":"1","age":"11","school":"cafam"},{"start_time":1551901618211,"click_time":1551901618911,"finger_time":1551901618590,"fix_duration":1199.6450259171174,"trial":64,"RT":379,"MT":321,"sideResp":2,"stimulus":"img/900/equaldotsize/L/2_Ratio_900_L_20_R_18.png","xmouse":[817,817,817,817,817,817,817,817,817,817,817,817,817,817,817,817,817,817,821,886,913,939,957,969,985,993,997,1004,1013,1025,1025,1025,1025,1025,1025,1088],"ymouse":[478,478,478,478,478,478,478,478,478,478,478,478,478,478,478,478,478,478,469,321,234,152,107,87,65,58,53,41,26,5,5,5,5,5,5,37],"timestamp_mouse":[9,20,39,60,80,99,120,139,159,179,200,221,239,260,281,300,320,340,360,379,399,420,440,461,480,501,520,540,560,580,600,621,639,659,680,700],"xSR":741.5,"ySR":449.15000000000003,"xT1":424.9,"yT1":0,"xT2":1058.1,"yT2":0,"toosoon":0,"cond_shown":"equaldotsize","ratio_trial":900,"smaller_num":"18","larger_num":"20","correct_side":1,"subjID":"saramontenegro24","gender":"1","age":"11","school":"cafam"},{"start_time":1551901622508,"click_time":1551901623092,"finger_time":1551901622830,"fix_duration":675.890924302387,"trial":65,"RT":322,"MT":262,"sideResp":1,"stimulus":"img/900/randomdotsizeEA/L/8_Ratio_900_L_20_R_18.png","xmouse":[787,787,787,787,787,787,787,780,766,756,755,755,755,755,755,754,741,717,678,587,523,492,473,465,463,463,463,463,463,458],"ymouse":[504,504,504,504,504,504,504,496,481,470,470,470,470,470,470,470,455,424,378,264,183,152,133,126,124,124,124,123,106,48],"timestamp_mouse":[9,24,44,62,83,103,123,143,163,182,204,224,242,264,284,304,322,343,363,382,403,422,443,464,483,504,522,543,562,584],"xSR":741.5,"ySR":449.15000000000003,"xT1":424.9,"yT1":0,"xT2":1058.1,"yT2":0,"toosoon":0,"cond_shown":"randomdotsizeEA","ratio_trial":900,"smaller_num":"18","larger_num":"20","correct_side":1,"subjID":"saramontenegro24","gender":"1","age":"11","school":"cafam"},{"start_time":1551901624341,"click_time":1551901625031,"finger_time":1551901624650,"fix_duration":307.6824509089804,"trial":66,"RT":309,"MT":381,"sideResp":1,"stimulus":"img/900/randomdotsizeEA/R/13_Ratio_900_L_18_R_20.png","xmouse":[776,776,776,776,776,776,776,776,776,776,776,776,776,776,777,777,777,758,721,696,672,638,591,591,591,591,591,591,591,591,591,591,591,591,522],"ymouse":[463,463,463,463,463,463,463,463,463,463,463,463,463,463,451,435,415,324,222,167,127,78,12,12,12,12,12,12,12,12,12,12,12,12,19],"timestamp_mouse":[21,30,50,71,90,111,130,150,171,191,210,231,250,269,290,309,331,350,369,390,409,429,450,470,490,510,530,549,570,590,610,631,650,669,690],"xSR":741.5,"ySR":449.15000000000003,"xT1":424.9,"yT1":0,"xT2":1058.1,"yT2":0,"toosoon":0,"cond_shown":"randomdotsizeEA","ratio_trial":900,"smaller_num":"18","larger_num":"20","correct_side":2,"subjID":"saramontenegro24","gender":"1","age":"11","school":"cafam"},{"start_time":1551901628401,"click_time":1551901629191,"finger_time":1551901629031,"fix_duration":250.18515767025485,"trial":67,"RT":630,"MT":160,"sideResp":1,"stimulus":"img/500/randomdotsizeEA/L/11_Ratio_500_L_12_R_6.png","xmouse":[782,782,782,782,782,782,782,782,782,782,782,782,782,782,782,782,782,782,782,782,782,782,782,782,782,782,782,782,782,779,769,752,738,726,694,646,599,554,528,502],"ymouse":[457,457,457,457,457,457,457,457,457,457,457,457,457,457,457,457,457,457,457,457,457,457,457,465,478,488,488,488,488,477,451,413,390,372,334,279,225,169,133,83],"timestamp_mouse":[13,33,50,69,91,109,131,151,170,190,211,231,251,269,290,311,331,350,370,390,410,430,449,470,489,510,530,550,570,590,610,630,650,671,690,710,729,750,770,790],"xSR":741.5,"ySR":449.15000000000003,"xT1":424.9,"yT1":0,"xT2":1058.1,"yT2":0,"toosoon":0,"cond_shown":"randomdotsizeEA","ratio_trial":500,"smaller_num":"6","larger_num":"12","correct_side":1,"subjID":"saramontenegro24","gender":"1","age":"11","school":"cafam"},{"start_time":1551901630163,"click_time":1551901630751,"finger_time":1551901630470,"fix_duration":250,"trial":68,"RT":307,"MT":281,"sideResp":2,"stimulus":"img/250/equaldotsize/L/1_Ratio_250_L_8_R_2.png","xmouse":[780,782,783,784,784,784,784,784,784,784,784,784,785,790,794,810,855,901,920,933,944,962,974,985,995,1007,1031,1046,1053,1066],"ymouse":[492,492,490,490,490,490,490,490,490,490,490,490,489,481,468,421,271,175,147,132,123,109,101,93,84,74,59,53,52,52],"timestamp_mouse":[9,28,48,67,87,108,128,147,167,188,207,227,248,268,288,307,329,348,367,389,408,427,448,467,487,508,528,547,567,588],"xSR":741.5,"ySR":449.15000000000003,"xT1":424.9,"yT1":0,"xT2":1058.1,"yT2":0,"toosoon":0,"cond_shown":"equaldotsize","ratio_trial":250,"smaller_num":"2","larger_num":"8","correct_side":1,"subjID":"saramontenegro24","gender":"1","age":"11","school":"cafam"},{"start_time":1551901632588,"click_time":1551901633312,"finger_time":1551901632931,"fix_duration":1115.573746538592,"trial":69,"RT":343,"MT":381,"sideResp":1,"stimulus":"img/750/equaldotanddens/L/13_Ratio_750_L_8_R_6.png","xmouse":[783,783,783,783,783,785,786,786,786,786,786,786,786,786,786,786,786,764,721,666,617,609,602,594,586,568,560,558,557,555,551,550,545,542,536,528,523],"ymouse":[479,479,479,479,479,485,488,488,488,488,488,489,490,492,492,492,450,376,290,225,183,177,169,157,144,105,85,81,78,75,72,71,69,67,64,60,58],"timestamp_mouse":[10,22,43,63,82,102,124,143,163,182,203,223,243,264,283,303,324,343,363,382,403,422,443,463,484,502,522,543,563,583,603,623,643,663,682,703,724],"xSR":741.5,"ySR":449.15000000000003,"xT1":424.9,"yT1":0,"xT2":1058.1,"yT2":0,"toosoon":0,"cond_shown":"equaldotanddens","ratio_trial":750,"smaller_num":"6","larger_num":"8","correct_side":1,"subjID":"saramontenegro24","gender":"1","age":"11","school":"cafam"},{"start_time":1551901635034,"click_time":1551901635610,"finger_time":1551901635391,"fix_duration":981.757362978485,"trial":70,"RT":357,"MT":219,"sideResp":2,"stimulus":"img/500/equaldotsize/R/3_Ratio_500_L_10_R_20.png","xmouse":[796,796,799,801,803,806,808,809,809,809,809,809,809,809,809,810,811,812,805,798,786,777,774,786,808,852,914,1051,1110],"ymouse":[486,486,487,487,486,485,483,483,483,483,483,483,483,483,483,482,476,411,367,323,277,251,208,185,170,151,125,66,30],"timestamp_mouse":[17,37,57,77,96,117,138,157,177,198,217,236,257,278,297,317,337,357,377,397,417,437,457,478,497,517,537,556,576],"xSR":741.5,"ySR":449.15000000000003,"xT1":424.9,"yT1":0,"xT2":1058.1,"yT2":0,"toosoon":0,"cond_shown":"equaldotsize","ratio_trial":500,"smaller_num":"10","larger_num":"20","correct_side":2,"subjID":"saramontenegro24","gender":"1","age":"11","school":"cafam"},{"start_time":1551901638097,"click_time":1551901638610,"finger_time":1551901638411,"fix_duration":1145.3286147925799,"trial":71,"RT":314,"MT":199,"sideResp":1,"stimulus":"img/900/equaldotsize/L/1_Ratio_900_L_10_R_9.png","xmouse":[801,801,801,801,801,801,801,801,801,801,795,792,790,789,776,762,749,729,703,655,630,609,588,565,509,490],"ymouse":[484,484,484,484,484,484,484,484,484,483,477,473,471,470,450,431,405,375,339,277,248,227,203,176,107,85],"timestamp_mouse":[13,36,53,75,94,115,134,153,175,193,215,234,254,273,294,314,334,354,375,394,414,434,455,474,494,513],"xSR":741.5,"ySR":449.15000000000003,"xT1":424.9,"yT1":0,"xT2":1058.1,"yT2":0,"toosoon":0,"cond_shown":"equaldotsize","ratio_trial":900,"smaller_num":"9","larger_num":"10","correct_side":1,"subjID":"saramontenegro24","gender":"1","age":"11","school":"cafam"},{"start_time":1551901639977,"click_time":1551901640491,"finger_time":1551901640311,"fix_duration":665.3653664059673,"trial":72,"RT":334,"MT":180,"sideResp":2,"stimulus":"img/750/randomdotsizeEA/L/8_Ratio_750_L_4_R_3.png","xmouse":[772,772,777,777,777,777,777,777,777,777,781,782,784,786,790,800,823,858,895,933,985,1001,1014,1027,1042,1081],"ymouse":[497,497,496,496,496,496,496,496,496,495,494,492,490,488,482,463,417,349,285,235,177,164,153,141,125,71],"timestamp_mouse":[13,34,54,74,94,113,133,155,174,193,213,233,253,274,295,314,334,353,374,394,414,433,454,474,493,514],"xSR":741.5,"ySR":449.15000000000003,"xT1":424.9,"yT1":0,"xT2":1058.1,"yT2":0,"toosoon":0,"cond_shown":"randomdotsizeEA","ratio_trial":750,"smaller_num":"3","larger_num":"4","correct_side":1,"subjID":"saramontenegro24","gender":"1","age":"11","school":"cafam"},{"start_time":1551901642579,"click_time":1551901643393,"finger_time":1551901642990,"fix_duration":1366.6888345591328,"trial":73,"RT":411,"MT":403,"sideResp":1,"stimulus":"img/900/equaldotsize/R/15_Ratio_900_L_9_R_10.png","xmouse":[799,799,799,799,799,799,799,799,799,799,799,799,799,799,799,799,799,791,777,763,729,714,707,698,687,662,640,625,609,593,571,571,571,571,571,571,571,571,571,571,501],"ymouse":[504,504,504,504,504,504,504,504,504,504,504,504,504,504,504,504,504,492,473,458,437,430,427,421,398,315,236,179,122,70,6,6,6,6,6,6,6,6,6,6,5],"timestamp_mouse":[11,38,51,71,93,112,132,152,173,192,212,232,253,271,292,311,331,351,372,392,411,432,452,472,492,512,533,552,572,592,611,631,651,672,692,712,732,752,773,793,813],"xSR":741.5,"ySR":449.15000000000003,"xT1":424.9,"yT1":0,"xT2":1058.1,"yT2":0,"toosoon":0,"cond_shown":"equaldotsize","ratio_trial":900,"smaller_num":"9","larger_num":"10","correct_side":2,"subjID":"saramontenegro24","gender":"1","age":"11","school":"cafam"},{"start_time":1551901646372,"click_time":1551901647090,"finger_time":1551901646691,"fix_duration":1439.6489427965528,"trial":74,"RT":319,"MT":399,"sideResp":2,"stimulus":"img/900/equaldotanddens/L/2_Ratio_900_L_20_R_18.png","xmouse":[800,800,800,800,800,800,800,800,800,800,800,800,800,800,800,800,816,844,875,906,923,940,949,959,972,987,1006,1008,1008,1008,1008,1008,1008,1009,1015,1028,1072],"ymouse":[494,494,494,494,494,494,494,494,494,494,494,494,494,494,494,486,433,333,258,200,171,138,123,109,96,85,67,65,65,65,65,65,65,65,64,64,64],"timestamp_mouse":[2,18,38,58,79,98,119,139,160,179,199,219,239,260,280,298,319,338,358,378,398,419,439,459,479,499,518,538,559,579,599,618,638,660,679,700,718],"xSR":741.5,"ySR":449.15000000000003,"xT1":424.9,"yT1":0,"xT2":1058.1,"yT2":0,"toosoon":0,"cond_shown":"equaldotanddens","ratio_trial":900,"smaller_num":"18","larger_num":"20","correct_side":1,"subjID":"saramontenegro24","gender":"1","age":"11","school":"cafam"},{"start_time":1551901648550,"click_time":1551901649190,"finger_time":1551901648911,"fix_duration":657.9600736314535,"trial":75,"RT":361,"MT":279,"sideResp":2,"stimulus":"img/500/equaldotsize/L/4_Ratio_500_L_18_R_9.png","xmouse":[780,780,780,780,780,780,780,780,780,780,780,780,780,780,780,780,780,785,820,872,912,943,999,1013,1021,1022,1023,1026,1036,1044,1051,1056,1059],"ymouse":[501,501,501,501,501,501,501,501,501,501,501,501,501,501,501,501,495,484,427,355,307,270,207,188,171,163,155,146,113,93,73,63,56],"timestamp_mouse":[9,21,40,61,81,101,122,142,160,181,202,220,242,262,280,300,321,340,361,380,400,420,440,461,482,500,520,540,562,580,601,621,640],"xSR":741.5,"ySR":449.15000000000003,"xT1":424.9,"yT1":0,"xT2":1058.1,"yT2":0,"toosoon":0,"cond_shown":"equaldotsize","ratio_trial":500,"smaller_num":"9","larger_num":"18","correct_side":1,"subjID":"saramontenegro24","gender":"1","age":"11","school":"cafam"},{"start_time":1551901650314,"click_time":1551901650910,"finger_time":1551901650691,"fix_duration":402.422145947249,"trial":76,"RT":377,"MT":219,"sideResp":1,"stimulus":"img/900/equaldotsize/L/2_Ratio_900_L_20_R_18.png","xmouse":[806,806,806,806,806,806,806,806,806,806,806,806,806,806,806,805,799,790,782,731,696,665,637,593,581,571,563,556,539,523],"ymouse":[508,508,508,508,508,508,508,508,508,508,508,508,508,508,508,506,491,470,447,344,281,232,186,121,98,83,70,58,35,20],"timestamp_mouse":[18,37,57,77,96,116,138,158,177,197,216,237,257,276,296,318,337,356,377,398,417,438,457,477,496,518,537,557,577,596],"xSR":741.5,"ySR":449.15000000000003,"xT1":424.9,"yT1":0,"xT2":1058.1,"yT2":0,"toosoon":0,"cond_shown":"equaldotsize","ratio_trial":900,"smaller_num":"18","larger_num":"20","correct_side":1,"subjID":"saramontenegro24","gender":"1","age":"11","school":"cafam"},{"start_time":1551901652852,"click_time":1551901653470,"finger_time":1551901653131,"fix_duration":1098.9739108473073,"trial":77,"RT":279,"MT":339,"sideResp":1,"stimulus":"img/750/equaldotsize/R/3_Ratio_750_L_15_R_20.png","xmouse":[793,793,793,793,793,793,793,793,793,793,793,793,793,792,791,785,780,774,755,738,709,668,614,594,584,579,574,570,563,554,539,523],"ymouse":[500,500,500,500,500,500,500,500,500,500,500,500,500,478,423,354,285,225,177,158,129,91,49,32,25,22,22,22,22,22,23,26],"timestamp_mouse":[1,19,38,58,79,100,118,138,159,179,199,218,240,259,279,299,319,338,359,378,399,419,438,459,478,500,520,539,558,580,598,618],"xSR":741.5,"ySR":449.15000000000003,"xT1":424.9,"yT1":0,"xT2":1058.1,"yT2":0,"toosoon":0,"cond_shown":"equaldotsize","ratio_trial":750,"smaller_num":"15","larger_num":"20","correct_side":2,"subjID":"saramontenegro24","gender":"1","age":"11","school":"cafam"},{"start_time":1551901655670,"click_time":1551901656370,"finger_time":1551901656031,"fix_duration":1358.9884216041569,"trial":78,"RT":361,"MT":339,"sideResp":2,"stimulus":"img/250/randomdotsizeEA/L/7_Ratio_250_L_8_R_2.png","xmouse":[805,805,805,805,805,805,805,805,805,805,805,805,805,805,805,805,809,815,831,848,866,889,935,951,968,979,990,993,996,999,999,999,999,999,999,1079],"ymouse":[507,507,507,507,507,507,507,507,507,507,507,507,507,506,505,504,497,478,427,355,282,209,71,40,19,9,3,1,0,0,0,0,0,0,0,2],"timestamp_mouse":[11,21,42,62,80,102,122,140,162,182,200,222,241,262,281,301,320,341,361,380,401,421,442,460,481,501,521,540,561,580,601,621,640,662,681,700],"xSR":741.5,"ySR":449.15000000000003,"xT1":424.9,"yT1":0,"xT2":1058.1,"yT2":0,"toosoon":0,"cond_shown":"randomdotsizeEA","ratio_trial":250,"smaller_num":"2","larger_num":"8","correct_side":1,"subjID":"saramontenegro24","gender":"1","age":"11","school":"cafam"},{"start_time":1551901657841,"click_time":1551901658371,"finger_time":1551901657874,"fix_duration":550.3392230386316,"trial":79,"RT":33,"MT":497,"sideResp":1,"stimulus":"img/750/randomdotsizeEA/R/2_Ratio_750_L_6_R_8.png","xmouse":[811,808,808,799,798,796,794,791,788,784,780,773,750,722,703,668,641,584,573,569,564,558,551,547,539,525,510],"ymouse":[459,449,449,431,428,424,419,408,400,394,383,366,301,240,199,147,113,69,65,65,65,65,63,61,59,54,50],"timestamp_mouse":[12,33,49,68,89,110,129,149,169,189,209,229,248,270,290,308,328,349,370,390,410,430,449,470,489,509,530],"xSR":741.5,"ySR":449.15000000000003,"xT1":424.9,"yT1":0,"xT2":1058.1,"yT2":0,"toosoon":0,"cond_shown":"randomdotsizeEA","ratio_trial":750,"smaller_num":"6","larger_num":"8","correct_side":2,"subjID":"saramontenegro24","gender":"1","age":"11","school":"cafam"},{"start_time":1551901660146,"click_time":1551901660970,"finger_time":1551901660489,"fix_duration":1054.57521181482,"trial":80,"RT":343,"MT":481,"sideResp":1,"stimulus":"img/250/equaldotanddens/L/14_Ratio_250_L_12_R_3.png","xmouse":[807,807,807,807,808,808,808,808,808,808,808,808,808,808,808,808,808,815,823,851,876,901,948,964,975,981,982,984,986,989,991,991,987,957,898,836,776,716,593,556,528,514],"ymouse":[489,488,485,484,483,483,483,483,482,480,479,478,475,474,470,462,450,404,346,259,204,160,103,88,79,74,73,70,68,60,53,49,47,47,51,60,67,69,41,21,6,1],"timestamp_mouse":[4,24,54,64,84,103,125,144,164,184,204,223,244,264,284,304,324,343,363,384,404,424,445,464,484,504,525,544,565,584,605,625,644,665,684,704,723,744,764,785,804,824],"xSR":741.5,"ySR":449.15000000000003,"xT1":424.9,"yT1":0,"xT2":1058.1,"yT2":0,"toosoon":0,"cond_shown":"equaldotanddens","ratio_trial":250,"smaller_num":"3","larger_num":"12","correct_side":1,"subjID":"saramontenegro24","gender":"1","age":"11","school":"cafam"},{"start_time":1551901662342,"click_time":1551901662990,"finger_time":1551901662390,"fix_duration":250,"trial":81,"RT":48,"MT":600,"sideResp":1,"stimulus":"img/500/randomdotsizeEA/L/13_Ratio_500_L_12_R_6.png","xmouse":[804,804,802,800,800,799,799,799,799,799,799,799,799,799,799,799,799,799,799,784,752,717,683,642,627,618,612,598,578,555,527,505,480],"ymouse":[459,459,440,430,425,422,420,420,420,420,420,420,420,420,420,420,420,420,416,378,322,273,232,190,174,166,160,149,135,122,110,101,94],"timestamp_mouse":[12,30,48,68,88,108,128,147,168,188,207,229,248,269,288,308,329,348,368,388,409,429,447,468,488,508,529,548,567,588,608,628,648],"xSR":741.5,"ySR":449.15000000000003,"xT1":424.9,"yT1":0,"xT2":1058.1,"yT2":0,"toosoon":0,"cond_shown":"randomdotsizeEA","ratio_trial":500,"smaller_num":"6","larger_num":"12","correct_side":1,"subjID":"saramontenegro24","gender":"1","age":"11","school":"cafam"},{"start_time":1551901682655,"click_time":1551901683290,"finger_time":1551901683090,"fix_duration":822.5083534507507,"trial":82,"RT":435,"MT":200,"sideResp":1,"stimulus":"img/250/equaldotsize/L/15_Ratio_250_L_12_R_3.png","xmouse":[783,783,783,783,783,783,783,783,783,783,783,783,783,783,783,783,783,783,783,783,783,765,740,715,688,664,618,592,571,551,535,519],"ymouse":[487,487,487,487,487,487,487,487,487,487,487,487,487,487,487,487,487,487,487,487,485,438,389,351,312,276,212,176,148,114,93,70],"timestamp_mouse":[16,36,56,75,96,116,135,155,174,195,216,235,256,275,296,315,335,355,376,396,415,435,456,474,494,515,535,555,575,595,615,635],"xSR":741.5,"ySR":449.15000000000003,"xT1":424.9,"yT1":0,"xT2":1058.1,"yT2":0,"toosoon":0,"cond_shown":"equaldotsize","ratio_trial":250,"smaller_num":"3","larger_num":"12","correct_side":1,"subjID":"saramontenegro24","gender":"1","age":"11","school":"cafam"},{"start_time":1551901685420,"click_time":1551901686011,"finger_time":1551901685910,"fix_duration":1368.8005190791062,"trial":83,"RT":490,"MT":101,"sideResp":2,"stimulus":"img/250/randomdotsizeEA/R/8_Ratio_250_L_1_R_4.png","xmouse":[819,819,819,819,819,819,819,819,819,819,819,819,819,819,819,819,819,819,819,818,817,815,811,810,824,851,895,942,1043,1104],"ymouse":[499,499,499,499,499,499,496,490,487,486,486,486,486,486,486,486,486,486,486,485,485,484,479,462,389,335,267,201,111,78],"timestamp_mouse":[20,42,49,69,91,110,130,149,170,191,210,229,251,270,291,310,330,349,371,390,410,431,449,469,490,509,530,549,571,591],"xSR":741.5,"ySR":449.15000000000003,"xT1":424.9,"yT1":0,"xT2":1058.1,"yT2":0,"toosoon":0,"cond_shown":"randomdotsizeEA","ratio_trial":250,"smaller_num":"1","larger_num":"4","correct_side":2,"subjID":"saramontenegro24","gender":"1","age":"11","school":"cafam"},{"start_time":1551901690881,"click_time":1551901691450,"finger_time":1551901691231,"fix_duration":250,"trial":84,"RT":350,"MT":219,"sideResp":1,"stimulus":"img/900/equaldotanddens/L/4_Ratio_900_L_20_R_18.png","xmouse":[797,797,797,797,797,797,797,797,797,797,797,797,797,797,797,797,797,792,786,774,747,734,709,657,597,505,485,478,473],"ymouse":[479,479,479,479,479,479,479,479,479,479,479,479,479,479,479,479,471,448,417,366,285,262,235,204,173,132,119,107,93],"timestamp_mouse":[13,36,50,69,89,110,130,149,170,188,208,229,250,268,289,309,329,350,369,390,409,430,449,469,489,509,529,549,569],"xSR":741.5,"ySR":449.15000000000003,"xT1":424.9,"yT1":0,"xT2":1058.1,"yT2":0,"toosoon":0,"cond_shown":"equaldotanddens","ratio_trial":900,"smaller_num":"18","larger_num":"20","correct_side":1,"subjID":"saramontenegro24","gender":"1","age":"11","school":"cafam"},{"start_time":1551901693366,"click_time":1551901694030,"finger_time":1551901693790,"fix_duration":1115.5818482797501,"trial":85,"RT":424,"MT":240,"sideResp":2,"stimulus":"img/750/equaldotsize/R/5_Ratio_750_L_15_R_20.png","xmouse":[787,787,787,787,787,787,787,787,787,787,787,787,787,787,787,787,787,787,787,787,791,800,806,811,817,825,870,907,940,971,1001,1046,1060,1075],"ymouse":[489,489,489,489,489,489,489,489,489,489,489,489,489,489,489,489,489,489,488,475,460,412,391,378,366,355,308,271,238,209,176,119,104,89],"timestamp_mouse":[13,34,43,64,83,104,124,145,163,184,205,224,243,265,284,304,323,343,364,384,404,424,445,464,484,505,525,544,563,584,604,624,644,664],"xSR":741.5,"ySR":449.15000000000003,"xT1":424.9,"yT1":0,"xT2":1058.1,"yT2":0,"toosoon":0,"cond_shown":"equaldotsize","ratio_trial":750,"smaller_num":"15","larger_num":"20","correct_side":2,"subjID":"saramontenegro24","gender":"1","age":"11","school":"cafam"},{"start_time":1551901695678,"click_time":1551901697689,"finger_time":1551901697210,"fix_duration":925.7445948383131,"trial":86,"RT":1532,"MT":479,"sideResp":1,"stimulus":"img/750/equaldotanddens/R/4_Ratio_750_L_15_R_20.png","xmouse":[777,777,777,777,777,784,785,785,785,785,785,785,785,785,785,785,785,785,785,785,785,785,785,785,785,785,785,785,785,785,785,785,785,785,785,785,785,785,785,785,785,785,785,785,785,785,785,785,785,785,785,785,785,785,785,785,785,785,785,785,785,785,785,785,785,785,785,785,785,785,785,785,785,785,785,785,785,775,767,760,740,708,660,584,510,403,382,369,355,340,326,314,314,314,314,314,356,367,392,410,433],"ymouse":[463,463,462,462,462,463,464,464,464,464,464,464,464,464,464,464,464,464,464,464,464,464,464,464,464,464,464,464,464,464,464,464,464,464,464,464,464,464,464,464,464,464,464,464,464,464,464,464,464,464,464,464,464,464,464,464,464,464,464,464,464,464,464,464,464,464,464,464,464,464,464,464,464,464,464,464,440,408,381,355,307,270,231,182,141,79,66,56,43,30,14,1,1,1,1,1,1,4,14,22,33],"timestamp_mouse":[29,33,52,73,91,112,133,153,173,193,212,232,251,273,292,312,333,353,373,393,412,432,453,472,492,513,533,551,572,592,613,632,653,672,693,712,733,751,772,793,811,833,852,872,892,912,932,952,973,992,1012,1032,1053,1073,1092,1111,1131,1153,1173,1193,1212,1232,1253,1272,1293,1311,1332,1351,1373,1393,1412,1432,1451,1472,1493,1512,1532,1552,1572,1592,1612,1631,1652,1673,1691,1712,1731,1752,1772,1792,1812,1832,1852,1872,1892,1912,1931,1953,1973,1993,2011],"xSR":741.5,"ySR":449.15000000000003,"xT1":424.9,"yT1":0,"xT2":1058.1,"yT2":0,"toosoon":0,"cond_shown":"equaldotanddens","ratio_trial":750,"smaller_num":"15","larger_num":"20","correct_side":2,"subjID":"saramontenegro24","gender":"1","age":"11","school":"cafam"},{"start_time":1551901702901,"click_time":1551901703350,"finger_time":1551901703209,"fix_duration":710.7514351091802,"trial":87,"RT":308,"MT":141,"sideResp":2,"stimulus":"img/500/equaldotanddens/R/14_Ratio_500_L_5_R_10.png","xmouse":[771,771,771,771,771,771,771,771,771,771,771,771,771,774,792,826,860,895,929,959,1031,1053,1068],"ymouse":[489,489,489,489,489,489,489,489,489,489,489,489,489,485,461,414,365,316,269,223,121,92,75],"timestamp_mouse":[13,32,50,69,90,110,129,150,169,189,208,228,249,269,289,308,328,349,368,389,410,429,449],"xSR":741.5,"ySR":449.15000000000003,"xT1":424.9,"yT1":0,"xT2":1058.1,"yT2":0,"toosoon":0,"cond_shown":"equaldotanddens","ratio_trial":500,"smaller_num":"5","larger_num":"10","correct_side":2,"subjID":"saramontenegro24","gender":"1","age":"11","school":"cafam"},{"start_time":1551901704541,"click_time":1551901705111,"finger_time":1551901704890,"fix_duration":569.7503469686496,"trial":88,"RT":349,"MT":221,"sideResp":2,"stimulus":"img/500/randomdotsizeEA/R/12_Ratio_500_L_1_R_2.png","xmouse":[769,769,769,769,769,769,769,769,769,769,769,769,769,770,770,773,778,828,857,887,911,935,979,996,1015,1028,1039,1057,1082],"ymouse":[494,494,494,494,494,494,494,494,494,494,494,494,494,491,487,480,466,381,330,277,235,202,154,138,124,114,107,93,76],"timestamp_mouse":[10,40,49,69,90,110,129,149,169,189,209,229,249,268,288,309,330,349,368,389,410,429,449,469,490,509,529,549,569],