[{"start_time":1551901021684,"click_time":1551901022673,"finger_time":1551901022111,"fix_duration":1389.6336453708816,"trial":0,"RT":427,"MT":562,"sideResp":2,"stimulus":[],"xmouse":[793,793,793,793,793,793,793,793,793,793,793,793,793,793,793,793,793,794,796,799,801,801,801,801,801,801,801,818,857,900,942,1017,1045,1048,1050,1051,1055,1056,1058,1059,1059,1059,1059,1058,1058,1058,1058,1064,1071,1078],"ymouse":[526,526,526,526,526,526,526,526,526,526,526,526,526,526,526,526,526,524,519,505,488,436,433,432,432,432,430,423,407,387,367,302,263,251,245,241,230,225,217,207,197,173,160,154,148,145,132,117,104,89],"timestamp_mouse":[10,36,48,68,89,108,128,148,167,188,208,227,248,267,287,308,328,347,368,389,407,427,448,467,488,508,527,548,568,588,609,627,647,667,688,707,727,748,767,787,809,827,848,869,887,907,927,948,968,988],"xSR":741.5,"ySR":449.15000000000003,"xT1":424.9,"yT1":0,"xT2":1058.1,"yT2":0,"toosoon":0,"cond_shown":"Incongruent","ratio_trial":300,"L_num":4,"L_den":5,"R_num":6,"R_den":12,"correct_side":1,"subjID":"saramontenegro24","gender":"1","age":"11","school":"cafam","test":{"fix_dur":[250,1500],"timestim":1000,"targets_dim":[100,100],"targets_relative_coord":[0.3,0.7],"size_stim":[880,420],"start_dim":[100,100],"size_start":[300,300],"size_fix":60,"samplingrate":20,"img_types":["Congruent","Incongruent"],"ratios":[100,200,300],"rep_conds":19,"nTrials":120,"trials_to_rest":500,"Trials_order":[23,107,25,88,20,54,69,47,77,56,94,12,102,113,59,44,29,75,57,81,0,11,37,101,111,16,10,86,106,116,7,28,112,33,74,89,87,62,67,64,18,40,53,79,97,105,99,26,55,15,17,68,103,90,2,66,4,65,95,50,5,22,52,14,91,6,49,31,19,24,46,117,73,108,92,27,78,3,110,8,30,109,119,82,104,85,35,58,36,84,70,118,1,100,38,114,63,34,41,71,72,51,9,32,76,13,39,61,83,42,21,80,98,60,115,93,45,48,43,96],"cond_shown":["Incongruent","Incongruent","Incongruent","Congruent","Congruent","Congruent","Incongruent","Incongruent","Incongruent","Congruent","Congruent","Congruent","Congruent","Incongruent","Incongruent","Congruent","Incongruent","Incongruent","Incongruent","Incongruent","Congruent","Incongruent","Incongruent","Incongruent","Incongruent","Congruent","Congruent","Congruent","Congruent","Congruent","Incongruent","Congruent","Congruent","Incongruent","Congruent","Incongruent","Incongruent","Congruent","Incongruent","Congruent","Congruent","Congruent","Incongruent","Incongruent","Incongruent","Incongruent","Incongruent","Congruent","Incongruent","Incongruent","Incongruent","Congruent","Incongruent","Congruent","Congruent","Congruent","Congruent","Incongruent","Incongruent","Congruent","Incongruent","Congruent","Congruent","Congruent","Incongruent","Congruent","Incongruent","Incongruent","Incongruent","Congruent","Congruent","Incongruent","Incongruent","Congruent","Congruent","Incongruent","Congruent","Incongruent","Congruent","Congruent","Congruent","Incongruent","Incongruent","Congruent","Congruent","Incongruent","Incongruent","Congruent","Congruent","Congruent","Congruent","Congruent","Incongruent","Congruent","Congruent","Congruent","Incongruent","Congruent","Incongruent","Incongruent","Congruent","Incongruent","Incongruent","Congruent","Congruent","Incongruent","Incongruent","Incongruent","Incongruent","Congruent","Incongruent","Congruent","Congruent","Congruent","Incongruent","Incongruent","Incongruent","Congruent","Incongruent","Congruent"],"ratio_trial":[300,300,100,300,200,100,200,300,300,200,300,100,100,300,300,200,300,200,200,200,100,300,100,300,200,300,300,200,300,200,100,300,300,200,200,300,200,200,100,300,100,300,300,100,100,200,200,200,100,200,300,200,100,100,200,100,300,300,300,200,300,300,300,200,100,100,100,100,100,100,300,200,100,100,200,200,100,200,200,200,100,100,300,300,200,100,300,300,100,100,300,300,100,300,200,100,200,300,300,300,100,200,200,200,300,100,200,100,300,100,200,200,200,100,100,200,200,100,100,100],"left_num":[4,7,13,8,6,2,6,4,8,3,20,10,7,2,8,9,13,9,4,7,2,4,2,4,9,1,5,11,24,5,12,1,20,14,13,13,1,11,4,11,11,1,4,6,10,14,4,12,6,3,13,6,8,4,21,7,9,1,4,13,4,3,1,3,1,3,8,13,9,8,7,3,10,11,6,7,6,7,3,3,7,9,4,1,3,2,1,12,7,11,11,5,10,3,12,6,14,8,7,8,4,4,4,21,1,2,3,6,4,6,1,15,8,15,12,14,11,11,13,11],"right_num":[6,8,12,1,11,6,3,2,9,11,5,3,15,6,9,13,12,8,6,8,11,6,8,8,8,19,7,3,2,14,9,6,9,6,14,12,2,3,8,1,6,19,8,3,9,6,1,6,3,11,12,11,6,6,2,9,3,2,2,14,6,4,7,14,8,4,6,6,20,2,20,11,8,4,11,14,15,4,7,7,15,13,2,8,11,6,2,2,15,6,2,6,8,4,6,5,12,10,8,14,6,14,6,2,11,8,1,3,2,5,3,4,2,13,2,6,3,4,6,4],"left_den":[5,10,26,16,20,5,20,20,10,10,25,25,14,4,10,30,26,15,5,10,5,5,4,5,15,3,25,22,30,10,24,5,25,30,26,26,3,22,8,22,22,3,5,12,25,30,30,20,12,4,26,20,16,8,30,14,10,2,20,26,5,6,20,10,2,20,16,26,10,16,14,4,25,22,20,10,12,15,10,10,14,15,20,30,10,4,2,24,14,22,22,25,25,6,15,20,30,15,10,10,8,6,5,30,5,4,10,12,20,20,2,25,15,25,30,30,20,22,26,22],"right_den":[12,20,20,5,22,12,6,4,18,22,10,10,25,30,18,26,15,10,10,16,22,12,20,16,10,30,14,10,4,20,15,12,18,9,20,15,15,10,20,5,15,30,16,5,18,9,3,15,5,20,15,22,10,10,4,15,5,10,4,20,12,5,20,28,20,16,10,10,25,5,25,20,16,10,22,28,25,6,14,14,25,26,4,24,22,15,10,10,25,15,10,12,16,5,10,25,18,12,20,28,10,30,10,4,22,20,2,5,4,25,10,10,6,26,4,9,4,10,10,10],"correct_side":[1,1,2,1,2,2,2,2,1,2,1,1,2,1,1,2,2,2,1,1,2,1,1,1,2,2,2,1,1,2,2,2,1,2,2,2,1,1,1,1,1,2,1,2,2,2,2,1,2,1,2,2,2,2,1,2,1,1,2,2,1,2,2,2,1,2,2,2,1,1,2,1,2,1,2,1,2,2,2,2,2,1,2,2,2,1,1,1,2,1,1,2,2,2,1,1,2,2,1,1,2,1,1,1,2,1,2,2,2,1,1,1,1,1,2,2,2,1,2,1],"img_shown":["img2/300/Incongruent/L/I_Dist_300_LN_4_LD_5_RN_6_RD_12_0.png","img2/300/Incongruent/L/I_Dist_300_LN_7_LD_10_RN_8_RD_20_0.png","img2/100/Incongruent/R/I_Dist_100_LN_13_LD_26_RN_12_RD_20_1.png","img2/300/Congruent/L/C_Dist_300_LN_8_LD_16_RN_1_RD_5_0.png","img2/200/Congruent/R/C_Dist_200_LN_6_LD_20_RN_11_RD_22_1.png","img2/100/Congruent/R/C_Dist_100_LN_2_LD_5_RN_6_RD_12_1.png","img2/200/Incongruent/R/I_Dist_200_LN_6_LD_20_RN_3_RD_6_1.png","img2/300/Incongruent/R/I_Dist_300_LN_4_LD_20_RN_2_RD_4_1.png","img2/300/Incongruent/L/I_Dist_300_LN_8_LD_10_RN_9_RD_18_0.png","img2/200/Congruent/R/C_Dist_200_LN_3_LD_10_RN_11_RD_22_1.png","img2/300/Congruent/L/C_Dist_300_LN_20_LD_25_RN_5_RD_10_0.png","img2/100/Congruent/L/C_Dist_100_LN_10_LD_25_RN_3_RD_10_0.png","img2/100/Congruent/R/C_Dist_100_LN_7_LD_14_RN_15_RD_25_1.png","img2/300/Incongruent/L/I_Dist_300_LN_2_LD_4_RN_6_RD_30_0.png","img2/300/Incongruent/L/I_Dist_300_LN_8_LD_10_RN_9_RD_18_0.png","img2/200/Congruent/R/C_Dist_200_LN_9_LD_30_RN_13_RD_26_1.png","img2/300/Incongruent/R/I_Dist_300_LN_13_LD_26_RN_12_RD_15_1.png","img2/200/Incongruent/R/I_Dist_200_LN_9_LD_15_RN_8_RD_10_1.png","img2/200/Incongruent/L/I_Dist_200_LN_4_LD_5_RN_6_RD_10_0.png","img2/200/Incongruent/L/I_Dist_200_LN_7_LD_10_RN_8_RD_16_0.png","img2/100/Congruent/R/C_Dist_100_LN_2_LD_5_RN_11_RD_22_1.png","img2/300/Incongruent/L/I_Dist_300_LN_4_LD_5_RN_6_RD_12_0.png","img2/100/Incongruent/L/I_Dist_100_LN_2_LD_4_RN_8_RD_20_0.png","img2/300/Incongruent/L/I_Dist_300_LN_4_LD_5_RN_8_RD_16_0.png","img2/200/Incongruent/R/I_Dist_200_LN_9_LD_15_RN_8_RD_10_1.png","img2/300/Congruent/R/C_Dist_300_LN_1_LD_3_RN_19_RD_30_1.png","img2/300/Congruent/R/C_Dist_300_LN_5_LD_25_RN_7_RD_14_1.png","img2/200/Congruent/L/C_Dist_200_LN_11_LD_22_RN_3_RD_10_0.png","img2/300/Congruent/L/C_Dist_300_LN_24_LD_30_RN_2_RD_4_0.png","img2/200/Congruent/R/C_Dist_200_LN_5_LD_10_RN_14_RD_20_1.png","img2/100/Incongruent/R/I_Dist_100_LN_12_LD_24_RN_9_RD_15_1.png","img2/300/Congruent/R/C_Dist_300_LN_1_LD_5_RN_6_RD_12_1.png","img2/300/Congruent/L/C_Dist_300_LN_20_LD_25_RN_9_RD_18_0.png","img2/200/Incongruent/R/I_Dist_200_LN_14_LD_30_RN_6_RD_9_1.png","img2/200/Congruent/R/C_Dist_200_LN_13_LD_26_RN_14_RD_20_1.png","img2/300/Incongruent/R/I_Dist_300_LN_13_LD_26_RN_12_RD_15_1.png","img2/200/Incongruent/L/I_Dist_200_LN_1_LD_3_RN_2_RD_15_0.png","img2/200/Congruent/L/C_Dist_200_LN_11_LD_22_RN_3_RD_10_0.png","img2/100/Incongruent/L/I_Dist_100_LN_4_LD_8_RN_8_RD_20_0.png","img2/300/Congruent/L/C_Dist_300_LN_11_LD_22_RN_1_RD_5_0.png","img2/100/Congruent/L/C_Dist_100_LN_11_LD_22_RN_6_RD_15_0.png","img2/300/Congruent/R/C_Dist_300_LN_1_LD_3_RN_19_RD_30_1.png","img2/300/Incongruent/L/I_Dist_300_LN_4_LD_5_RN_8_RD_16_0.png","img2/100/Incongruent/R/I_Dist_100_LN_6_LD_12_RN_3_RD_5_1.png","img2/100/Incongruent/R/I_Dist_100_LN_10_LD_25_RN_9_RD_18_1.png","img2/200/Incongruent/R/I_Dist_200_LN_14_LD_30_RN_6_RD_9_1.png","img2/200/Incongruent/R/I_Dist_200_LN_4_LD_30_RN_1_RD_3_1.png","img2/200/Congruent/L/C_Dist_200_LN_12_LD_20_RN_6_RD_15_0.png","img2/100/Incongruent/R/I_Dist_100_LN_6_LD_12_RN_3_RD_5_1.png","img2/200/Incongruent/L/I_Dist_200_LN_3_LD_4_RN_11_RD_20_0.png","img2/300/Incongruent/R/I_Dist_300_LN_13_LD_26_RN_12_RD_15_1.png","img2/200/Congruent/R/C_Dist_200_LN_6_LD_20_RN_11_RD_22_1.png","img2/100/Incongruent/R/I_Dist_100_LN_8_LD_16_RN_6_RD_10_1.png","img2/100/Congruent/R/C_Dist_100_LN_4_LD_8_RN_6_RD_10_1.png","img2/200/Congruent/L/C_Dist_200_LN_21_LD_30_RN_2_RD_4_0.png","img2/100/Congruent/R/C_Dist_100_LN_7_LD_14_RN_9_RD_15_1.png","img2/300/Congruent/L/C_Dist_300_LN_9_LD_10_RN_3_RD_5_0.png","img2/300/Incongruent/L/I_Dist_300_LN_1_LD_2_RN_2_RD_10_0.png","img2/300/Incongruent/R/I_Dist_300_LN_4_LD_20_RN_2_RD_4_1.png","img2/200/Congruent/R/C_Dist_200_LN_13_LD_26_RN_14_RD_20_1.png","img2/300/Incongruent/L/I_Dist_300_LN_4_LD_5_RN_6_RD_12_0.png","img2/300/Congruent/R/C_Dist_300_LN_3_LD_6_RN_4_RD_5_1.png","img2/300/Congruent/R/C_Dist_300_LN_1_LD_20_RN_7_RD_20_1.png","img2/200/Congruent/R/C_Dist_200_LN_3_LD_10_RN_14_RD_28_1.png","img2/100/Incongruent/L/I_Dist_100_LN_1_LD_2_RN_8_RD_20_0.png","img2/100/Congruent/R/C_Dist_100_LN_3_LD_20_RN_4_RD_16_1.png","img2/100/Incongruent/R/I_Dist_100_LN_8_LD_16_RN_6_RD_10_1.png","img2/100/Incongruent/R/I_Dist_100_LN_13_LD_26_RN_6_RD_10_1.png","img2/100/Incongruent/L/I_Dist_100_LN_9_LD_10_RN_20_RD_25_0.png","img2/100/Congruent/L/C_Dist_100_LN_8_LD_16_RN_2_RD_5_0.png","img2/300/Congruent/R/C_Dist_300_LN_7_LD_14_RN_20_RD_25_1.png","img2/200/Incongruent/L/I_Dist_200_LN_3_LD_4_RN_11_RD_20_0.png","img2/100/Incongruent/R/I_Dist_100_LN_10_LD_25_RN_8_RD_16_1.png","img2/100/Congruent/L/C_Dist_100_LN_11_LD_22_RN_4_RD_10_0.png","img2/200/Congruent/R/C_Dist_200_LN_6_LD_20_RN_11_RD_22_1.png","img2/200/Incongruent/L/I_Dist_200_LN_7_LD_10_RN_14_RD_28_0.png","img2/100/Congruent/R/C_Dist_100_LN_6_LD_12_RN_15_RD_25_1.png","img2/200/Incongruent/R/I_Dist_200_LN_7_LD_15_RN_4_RD_6_1.png","img2/200/Congruent/R/C_Dist_200_LN_3_LD_10_RN_7_RD_14_1.png","img2/200/Congruent/R/C_Dist_200_LN_3_LD_10_RN_7_RD_14_1.png","img2/100/Congruent/R/C_Dist_100_LN_7_LD_14_RN_15_RD_25_1.png","img2/100/Incongruent/L/I_Dist_100_LN_9_LD_15_RN_13_RD_26_0.png","img2/300/Incongruent/R/I_Dist_300_LN_4_LD_20_RN_2_RD_4_1.png","img2/300/Congruent/R/C_Dist_300_LN_1_LD_30_RN_8_RD_24_1.png","img2/200/Congruent/R/C_Dist_200_LN_3_LD_10_RN_11_RD_22_1.png","img2/100/Incongruent/L/I_Dist_100_LN_2_LD_4_RN_6_RD_15_0.png","img2/300/Incongruent/L/I_Dist_300_LN_1_LD_2_RN_2_RD_10_0.png","img2/300/Congruent/L/C_Dist_300_LN_12_LD_24_RN_2_RD_10_0.png","img2/100/Congruent/R/C_Dist_100_LN_7_LD_14_RN_15_RD_25_1.png","img2/100/Congruent/L/C_Dist_100_LN_11_LD_22_RN_6_RD_15_0.png","img2/300/Congruent/L/C_Dist_300_LN_11_LD_22_RN_2_RD_10_0.png","img2/300/Congruent/R/C_Dist_300_LN_5_LD_25_RN_6_RD_12_1.png","img2/100/Incongruent/R/I_Dist_100_LN_10_LD_25_RN_8_RD_16_1.png","img2/300/Congruent/R/C_Dist_300_LN_3_LD_6_RN_4_RD_5_1.png","img2/200/Congruent/L/C_Dist_200_LN_12_LD_15_RN_6_RD_10_0.png","img2/100/Congruent/L/C_Dist_100_LN_6_LD_20_RN_5_RD_25_0.png","img2/200/Incongruent/R/I_Dist_200_LN_14_LD_30_RN_12_RD_18_1.png","img2/300/Congruent/R/C_Dist_300_LN_8_LD_15_RN_10_RD_12_1.png","img2/300/Incongruent/L/I_Dist_300_LN_7_LD_10_RN_8_RD_20_0.png","img2/300/Incongruent/L/I_Dist_300_LN_8_LD_10_RN_14_RD_28_0.png","img2/100/Congruent/R/C_Dist_100_LN_4_LD_8_RN_6_RD_10_1.png","img2/200/Incongruent/L/I_Dist_200_LN_4_LD_6_RN_14_RD_30_0.png","img2/200/Incongruent/L/I_Dist_200_LN_4_LD_5_RN_6_RD_10_0.png","img2/200/Congruent/L/C_Dist_200_LN_21_LD_30_RN_2_RD_4_0.png","img2/300/Congruent/R/C_Dist_300_LN_1_LD_5_RN_11_RD_22_1.png","img2/100/Incongruent/L/I_Dist_100_LN_2_LD_4_RN_8_RD_20_0.png","img2/200/Incongruent/R/I_Dist_200_LN_3_LD_10_RN_1_RD_2_1.png","img2/100/Incongruent/R/I_Dist_100_LN_6_LD_12_RN_3_RD_5_1.png","img2/300/Incongruent/R/I_Dist_300_LN_4_LD_20_RN_2_RD_4_1.png","img2/100/Congruent/L/C_Dist_100_LN_6_LD_20_RN_5_RD_25_0.png","img2/200/Incongruent/L/I_Dist_200_LN_1_LD_2_RN_3_RD_10_0.png","img2/200/Congruent/L/C_Dist_200_LN_15_LD_25_RN_4_RD_10_0.png","img2/200/Congruent/L/C_Dist_200_LN_8_LD_15_RN_2_RD_6_0.png","img2/100/Congruent/L/C_Dist_100_LN_15_LD_25_RN_13_RD_26_0.png","img2/100/Incongruent/R/I_Dist_100_LN_12_LD_30_RN_2_RD_4_1.png","img2/200/Incongruent/R/I_Dist_200_LN_14_LD_30_RN_6_RD_9_1.png","img2/200/Incongruent/R/I_Dist_200_LN_11_LD_20_RN_3_RD_4_1.png","img2/100/Congruent/L/C_Dist_100_LN_11_LD_22_RN_4_RD_10_0.png","img2/100/Incongruent/R/I_Dist_100_LN_13_LD_26_RN_6_RD_10_1.png","img2/100/Congruent/L/C_Dist_100_LN_11_LD_22_RN_4_RD_10_0.png"],"dist100_C":[["C_Dist_100_LN_10_LD_25_RN_3_RD_10_0.png","C_Dist_100_LN_11_LD_22_RN_4_RD_10_0.png","C_Dist_100_LN_11_LD_22_RN_6_RD_15_0.png","C_Dist_100_LN_15_LD_25_RN_13_RD_26_0.png","C_Dist_100_LN_3_LD_6_RN_2_RD_5_0.png","C_Dist_100_LN_6_LD_20_RN_5_RD_25_0.png","C_Dist_100_LN_8_LD_16_RN_2_RD_5_0.png","C_Dist_100_LN_9_LD_15_RN_8_RD_16_0.png"],["C_Dist_100_LN_1_LD_2_RN_18_RD_30_1.png","C_Dist_100_LN_1_LD_2_RN_3_RD_5_1.png","C_Dist_100_LN_12_LD_30_RN_13_RD_26_1.png","C_Dist_100_LN_2_LD_5_RN_11_RD_22_1.png","C_Dist_100_LN_2_LD_5_RN_6_RD_12_1.png","C_Dist_100_LN_3_LD_20_RN_4_RD_16_1.png","C_Dist_100_LN_4_LD_10_RN_15_RD_30_1.png","C_Dist_100_LN_4_LD_8_RN_6_RD_10_1.png","C_Dist_100_LN_6_LD_12_RN_15_RD_25_1.png","C_Dist_100_LN_7_LD_14_RN_15_RD_25_1.png","C_Dist_100_LN_7_LD_14_RN_9_RD_15_1.png"]],"dist100_I":[["I_Dist_100_LN_1_LD_2_RN_8_RD_20_0.png","I_Dist_100_LN_2_LD_4_RN_6_RD_15_0.png","I_Dist_100_LN_2_LD_4_RN_8_RD_20_0.png","I_Dist_100_LN_3_LD_5_RN_11_RD_22_0.png","I_Dist_100_LN_3_LD_5_RN_8_RD_16_0.png","I_Dist_100_LN_3_LD_6_RN_4_RD_10_0.png","I_Dist_100_LN_3_LD_9_RN_7_RD_30_0.png","I_Dist_100_LN_4_LD_8_RN_8_RD_20_0.png","I_Dist_100_LN_6_LD_10_RN_11_RD_22_0.png","I_Dist_100_LN_6_LD_10_RN_13_RD_26_0.png","I_Dist_100_LN_6_LD_10_RN_7_RD_14_0.png","I_Dist_100_LN_9_LD_10_RN_20_RD_25_0.png","I_Dist_100_LN_9_LD_15_RN_13_RD_26_0.png","I_Dist_100_LN_9_LD_15_RN_14_RD_28_0.png"],["I_Dist_100_LN_10_LD_25_RN_8_RD_16_1.png","I_Dist_100_LN_10_LD_25_RN_9_RD_18_1.png","I_Dist_100_LN_11_LD_22_RN_9_RD_15_1.png","I_Dist_100_LN_12_LD_24_RN_9_RD_15_1.png","I_Dist_100_LN_12_LD_30_RN_2_RD_4_1.png","I_Dist_100_LN_13_LD_26_RN_12_RD_20_1.png","I_Dist_100_LN_13_LD_26_RN_6_RD_10_1.png","I_Dist_100_LN_17_LD_30_RN_10_RD_15_1.png","I_Dist_100_LN_6_LD_12_RN_3_RD_5_1.png","I_Dist_100_LN_8_LD_16_RN_6_RD_10_1.png","I_Dist_100_LN_8_LD_20_RN_1_RD_2_1.png","I_Dist_100_LN_9_LD_18_RN_6_RD_10_1.png"]],"dist100_S":[["E_Dist_100_LN_2_LD_12_RN_2_RD_30_0.png","E_Dist_100_LN_6_LD_10_RN_6_RD_12_0.png"],["E_Dist_100_LN_6_LD_12_RN_6_RD_10_1.png"]],"dist200_C":[["C_Dist_200_LN_11_LD_22_RN_3_RD_10_0.png","C_Dist_200_LN_12_LD_15_RN_6_RD_10_0.png","C_Dist_200_LN_12_LD_20_RN_6_RD_15_0.png","C_Dist_200_LN_14_LD_28_RN_6_RD_20_0.png","C_Dist_200_LN_15_LD_25_RN_4_RD_10_0.png","C_Dist_200_LN_16_LD_20_RN_12_RD_20_0.png","C_Dist_200_LN_16_LD_30_RN_9_RD_27_0.png","C_Dist_200_LN_20_LD_25_RN_9_RD_15_0.png","C_Dist_200_LN_21_LD_30_RN_2_RD_4_0.png","C_Dist_200_LN_4_LD_10_RN_3_RD_15_0.png","C_Dist_200_LN_4_LD_8_RN_3_RD_10_0.png","C_Dist_200_LN_6_LD_15_RN_3_RD_15_0.png","C_Dist_200_LN_7_LD_21_RN_2_RD_15_0.png","C_Dist_200_LN_8_LD_15_RN_2_RD_6_0.png","C_Dist_200_LN_8_LD_15_RN_3_RD_9_0.png","C_Dist_200_LN_8_LD_15_RN_7_RD_21_0.png","C_Dist_200_LN_9_LD_20_RN_4_RD_16_0.png"],["C_Dist_200_LN_1_LD_2_RN_21_RD_30_1.png","C_Dist_200_LN_13_LD_26_RN_14_RD_20_1.png","C_Dist_200_LN_3_LD_10_RN_11_RD_22_1.png","C_Dist_200_LN_3_LD_10_RN_14_RD_28_1.png","C_Dist_200_LN_3_LD_10_RN_7_RD_14_1.png","C_Dist_200_LN_3_LD_12_RN_9_RD_20_1.png","C_Dist_200_LN_3_LD_6_RN_14_RD_20_1.png","C_Dist_200_LN_5_LD_10_RN_14_RD_20_1.png","C_Dist_200_LN_6_LD_12_RN_7_RD_10_1.png","C_Dist_200_LN_6_LD_20_RN_11_RD_22_1.png","C_Dist_200_LN_7_LD_15_RN_18_RD_27_1.png","C_Dist_200_LN_9_LD_30_RN_13_RD_26_1.png"]],"dist200_I":[["I_Dist_200_LN_1_LD_2_RN_3_RD_10_0.png","I_Dist_200_LN_1_LD_3_RN_2_RD_15_0.png","I_Dist_200_LN_3_LD_4_RN_11_RD_20_0.png","I_Dist_200_LN_4_LD_5_RN_6_RD_10_0.png","I_Dist_200_LN_4_LD_6_RN_14_RD_30_0.png","I_Dist_200_LN_7_LD_10_RN_12_RD_24_0.png","I_Dist_200_LN_7_LD_10_RN_14_RD_28_0.png","I_Dist_200_LN_7_LD_10_RN_8_RD_16_0.png"],["I_Dist_200_LN_11_LD_20_RN_3_RD_4_1.png","I_Dist_200_LN_14_LD_30_RN_12_RD_18_1.png","I_Dist_200_LN_14_LD_30_RN_6_RD_9_1.png","I_Dist_200_LN_3_LD_10_RN_1_RD_2_1.png","I_Dist_200_LN_4_LD_30_RN_1_RD_3_1.png","I_Dist_200_LN_6_LD_20_RN_3_RD_6_1.png","I_Dist_200_LN_7_LD_15_RN_4_RD_6_1.png","I_Dist_200_LN_7_LD_15_RN_6_RD_9_1.png","I_Dist_200_LN_9_LD_15_RN_8_RD_10_1.png"]],"dist200_S":[["E_Dist_200_LN_3_LD_6_RN_3_RD_10_0.png"],["E_Dist_200_LN_3_LD_10_RN_3_RD_6_1.png"]],"dist300_C":[["C_Dist_300_LN_11_LD_22_RN_1_RD_5_0.png","C_Dist_300_LN_11_LD_22_RN_2_RD_10_0.png","C_Dist_300_LN_11_LD_22_RN_4_RD_20_0.png","C_Dist_300_LN_12_LD_24_RN_2_RD_10_0.png","C_Dist_300_LN_18_LD_20_RN_9_RD_15_0.png","C_Dist_300_LN_20_LD_25_RN_13_RD_26_0.png","C_Dist_300_LN_20_LD_25_RN_14_RD_28_0.png","C_Dist_300_LN_20_LD_25_RN_5_RD_10_0.png","C_Dist_300_LN_20_LD_25_RN_8_RD_16_0.png","C_Dist_300_LN_20_LD_25_RN_9_RD_18_0.png","C_Dist_300_LN_24_LD_30_RN_2_RD_4_0.png","C_Dist_300_LN_24_LD_30_RN_8_RD_16_0.png","C_Dist_300_LN_3_LD_6_RN_2_RD_10_0.png","C_Dist_300_LN_4_LD_10_RN_1_RD_10_0.png","C_Dist_300_LN_4_LD_5_RN_2_RD_4_0.png","C_Dist_300_LN_8_LD_16_RN_1_RD_5_0.png","C_Dist_300_LN_9_LD_10_RN_3_RD_5_0.png"],["C_Dist_300_LN_1_LD_20_RN_7_RD_20_1.png","C_Dist_300_LN_1_LD_3_RN_19_RD_30_1.png","C_Dist_300_LN_1_LD_30_RN_8_RD_24_1.png","C_Dist_300_LN_1_LD_5_RN_11_RD_22_1.png","C_Dist_300_LN_1_LD_5_RN_3_RD_6_1.png","C_Dist_300_LN_1_LD_5_RN_6_RD_12_1.png","C_Dist_300_LN_2_LD_10_RN_12_RD_24_1.png","C_Dist_300_LN_2_LD_20_RN_10_RD_25_1.png","C_Dist_300_LN_3_LD_12_RN_11_RD_20_1.png","C_Dist_300_LN_3_LD_6_RN_4_RD_5_1.png","C_Dist_300_LN_4_LD_20_RN_13_RD_26_1.png","C_Dist_300_LN_5_LD_25_RN_6_RD_12_1.png","C_Dist_300_LN_5_LD_25_RN_7_RD_14_1.png","C_Dist_300_LN_7_LD_14_RN_20_RD_25_1.png","C_Dist_300_LN_8_LD_15_RN_10_RD_12_1.png"]],"dist300_I":[["I_Dist_300_LN_1_LD_2_RN_2_RD_10_0.png","I_Dist_300_LN_1_LD_2_RN_3_RD_15_0.png","I_Dist_300_LN_2_LD_4_RN_6_RD_30_0.png","I_Dist_300_LN_3_LD_6_RN_4_RD_20_0.png","I_Dist_300_LN_4_LD_5_RN_6_RD_12_0.png","I_Dist_300_LN_4_LD_5_RN_8_RD_16_0.png","I_Dist_300_LN_7_LD_10_RN_8_RD_20_0.png","I_Dist_300_LN_8_LD_10_RN_14_RD_28_0.png","I_Dist_300_LN_8_LD_10_RN_9_RD_18_0.png"],["I_Dist_300_LN_13_LD_26_RN_12_RD_15_1.png","I_Dist_300_LN_4_LD_20_RN_2_RD_4_1.png"]],"dist300_S":[["E_Dist_300_LN_9_LD_12_RN_9_RD_20_0.png"],["E_Dist_300_LN_18_LD_30_RN_18_RD_20_1.png","E_Dist_300_LN_3_LD_10_RN_3_RD_5_1.png","E_Dist_300_LN_9_LD_20_RN_9_RD_12_1.png"]],"dist500_C":[["C_Dist_500_LN_10_LD_13_RN_7_RD_26_0.png","C_Dist_500_LN_10_LD_15_RN_4_RD_24_0.png","C_Dist_500_LN_12_LD_16_RN_3_RD_12_0.png","C_Dist_500_LN_12_LD_18_RN_4_RD_24_0.png","C_Dist_500_LN_15_LD_18_RN_5_RD_15_0.png","C_Dist_500_LN_15_LD_20_RN_1_RD_4_0.png","C_Dist_500_LN_18_LD_27_RN_1_RD_6_0.png","C_Dist_500_LN_20_LD_24_RN_1_RD_3_0.png","C_Dist_500_LN_20_LD_24_RN_3_RD_9_0.png","C_Dist_500_LN_20_LD_24_RN_7_RD_21_0.png","C_Dist_500_LN_20_LD_28_RN_3_RD_14_0.png","C_Dist_500_LN_21_LD_28_RN_6_RD_24_0.png","C_Dist_500_LN_22_LD_28_RN_2_RD_7_0.png","C_Dist_500_LN_25_LD_30_RN_9_RD_27_0.png","C_Dist_500_LN_4_LD_6_RN_1_RD_6_0.png","C_Dist_500_LN_5_LD_6_RN_2_RD_6_0.png","C_Dist_500_LN_6_LD_9_RN_1_RD_6_0.png","C_Dist_500_LN_7_LD_10_RN_1_RD_5_0.png","C_Dist_500_LN_8_LD_12_RN_1_RD_6_0.png","C_Dist_500_LN_8_LD_12_RN_4_RD_24_0.png"],["C_Dist_500_LN_1_LD_4_RN_12_RD_16_1.png","C_Dist_500_LN_1_LD_4_RN_9_RD_12_1.png","C_Dist_500_LN_1_LD_9_RN_11_RD_18_1.png","C_Dist_500_LN_10_LD_24_RN_22_RD_24_1.png","C_Dist_500_LN_2_LD_12_RN_10_RD_15_1.png","C_Dist_500_LN_2_LD_12_RN_12_RD_18_1.png","C_Dist_500_LN_2_LD_12_RN_4_RD_6_1.png","C_Dist_500_LN_2_LD_24_RN_7_RD_12_1.png","C_Dist_500_LN_2_LD_5_RN_18_RD_20_1.png","C_Dist_500_LN_2_LD_5_RN_9_RD_10_1.png","C_Dist_500_LN_2_LD_8_RN_12_RD_16_1.png","C_Dist_500_LN_2_LD_8_RN_21_RD_28_1.png","C_Dist_500_LN_3_LD_10_RN_4_RD_5_1.png","C_Dist_500_LN_3_LD_12_RN_15_RD_20_1.png","C_Dist_500_LN_3_LD_30_RN_6_RD_10_1.png","C_Dist_500_LN_3_LD_8_RN_14_RD_16_1.png","C_Dist_500_LN_4_LD_16_RN_15_RD_20_1.png","C_Dist_500_LN_4_LD_24_RN_12_RD_18_1.png","C_Dist_500_LN_5_LD_14_RN_6_RD_7_1.png","C_Dist_500_LN_7_LD_21_RN_20_RD_24_1.png","C_Dist_500_LN_7_LD_28_RN_12_RD_16_1.png","C_Dist_500_LN_7_LD_28_RN_9_RD_12_1.png","C_Dist_500_LN_9_LD_27_RN_20_RD_24_1.png"]],"dist500_I":[["I_Dist_500_LN_2_LD_3_RN_4_RD_24_0.png","I_Dist_500_LN_5_LD_6_RN_6_RD_18_0.png","I_Dist_500_LN_7_LD_8_RN_9_RD_24_0.png"],["I_Dist_500_LN_7_LD_21_RN_5_RD_6_1.png"]],"dist500_S":[["E_Dist_500_LN_6_LD_8_RN_6_RD_24_0.png"],["E_Dist_500_LN_2_LD_12_RN_2_RD_3_1.png","E_Dist_500_LN_6_LD_24_RN_6_RD_8_1.png"]]}},{"start_time":1551901024184,"click_time":1551901024593,"finger_time":1551901024512,"fix_duration":250,"trial":1,"RT":328,"MT":81,"sideResp":1,"stimulus":[],"xmouse":[799,799,799,799,799,799,799,799,799,799,799,799,799,799,799,799,764,725,668,581,476],"ymouse":[482,482,482,482,482,482,482,482,482,482,482,482,482,482,482,482,408,346,277,187,95],"timestamp_mouse":[12,36,47,67,88,107,128,147,169,188,207,228,249,268,288,307,328,347,369,388,409],"xSR":741.5,"ySR":449.15000000000003,"xT1":424.9,"yT1":0,"xT2":1058.1,"yT2":0,"toosoon":0,"cond_shown":"Incongruent","ratio_trial":300,"L_num":7,"L_den":10,"R_num":8,"R_den":20,"correct_side":1,"subjID":"saramontenegro24","gender":"1","school":"cafam","age":"11"},{"start_time":1551901025557,"click_time":1551901025894,"finger_time":1551901025772,"fix_duration":264.11886535257133,"trial":2,"RT":215,"MT":122,"sideResp":1,"stimulus":[],"xmouse":[778,778,778,778,779,780,781,783,784,784,780,769,700,641,587,551,519],"ymouse":[521,521,521,521,520,520,520,510,486,463,437,396,250,163,94,51,14],"timestamp_mouse":[16,34,54,74,94,115,136,155,176,194,215,236,254,274,294,314,336],"xSR":741.5,"ySR":449.15000000000003,"xT1":424.9,"yT1":0,"xT2":1058.1,"yT2":0,"toosoon":0,"cond_shown":"Incongruent","ratio_trial":100,"L_num":13,"L_den":26,"R_num":12,"R_den":20,"correct_side":2,"subjID":"saramontenegro24","gender":"1","school":"cafam","age":"11"},{"start_time":1551901027193,"click_time":1551901027552,"finger_time":1551901027472,"fix_duration":320.5729917159368,"trial":3,"RT":279,"MT":80,"sideResp":2,"stimulus":[],"xmouse":[792,792,792,792,792,792,792,792,792,792,792,795,801,828,928,1015,1044,1097],"ymouse":[495,495,495,495,495,495,495,495,495,495,495,487,476,421,240,142,115,68],"timestamp_mouse":[19,39,59,78,97,119,139,159,177,198,219,239,258,279,299,318,338,359],"xSR":741.5,"ySR":449.15000000000003,"xT1":424.9,"yT1":0,"xT2":1058.1,"yT2":0,"toosoon":0,"cond_shown":"Congruent","ratio_trial":300,"L_num":8,"L_den":16,"R_num":1,"R_den":5,"correct_side":1,"subjID":"saramontenegro24","gender":"1","school":"cafam","age":"11"},{"start_time":1551901029134,"click_time":1551901029493,"finger_time":1551901029412,"fix_duration":622.3802168034055,"trial":4,"RT":278,"MT":81,"sideResp":2,"stimulus":[],"xmouse":[817,817,817,817,817,817,816,816,816,816,816,816,817,832,858,914,983,1101],"ymouse":[486,486,486,486,486,486,486,486,486,486,486,484,476,425,375,296,213,71],"timestamp_mouse":[17,41,56,76,98,116,138,158,177,198,218,238,257,278,298,318,338,359],"xSR":741.5,"ySR":449.15000000000003,"xT1":424.9,"yT1":0,"xT2":1058.1,"yT2":0,"toosoon":0,"cond_shown":"Congruent","ratio_trial":200,"L_num":6,"L_den":20,"R_num":11,"R_den":22,"correct_side":2,"subjID":"saramontenegro24","gender":"1","school":"cafam","age":"11"},{"start_time":1551901030801,"click_time":1551901031452,"finger_time":1551901031111,"fix_duration":409.655409905192,"trial":5,"RT":310,"MT":341,"sideResp":1,"stimulus":[],"xmouse":[793,793,793,793,793,793,793,793,793,793,793,793,793,795,800,813,814,787,748,620,562,535,522,519,519,518,517,515,511,506,505,505,514],"ymouse":[515,515,515,515,515,513,513,513,513,513,513,513,510,504,488,443,388,333,278,173,153,148,143,142,142,140,139,138,135,127,120,113,97],"timestamp_mouse":[10,35,50,69,89,111,131,150,170,191,210,230,251,270,291,310,330,351,370,391,410,430,450,471,490,511,531,551,570,591,610,629,650],"xSR":741.5,"ySR":449.15000000000003,"xT1":424.9,"yT1":0,"xT2":1058.1,"yT2":0,"toosoon":0,"cond_shown":"Congruent","ratio_trial":100,"L_num":2,"L_den":5,"R_num":6,"R_den":12,"correct_side":2,"subjID":"saramontenegro24","gender":"1","school":"cafam","age":"11"},{"start_time":1551901032846,"click_time":1551901033252,"finger_time":1551901033151,"fix_duration":671.4605148591584,"trial":6,"RT":305,"MT":101,"sideResp":2,"stimulus":[],"xmouse":[814,814,814,814,814,814,814,814,814,814,814,814,814,814,817,835,869,970,1015,1053,1080],"ymouse":[479,479,479,479,479,479,479,479,479,479,479,479,479,479,467,425,362,220,161,123,99],"timestamp_mouse":[6,25,44,64,85,106,126,145,166,185,205,226,245,264,285,305,326,346,364,385,406],"xSR":741.5,"ySR":449.15000000000003,"xT1":424.9,"yT1":0,"xT2":1058.1,"yT2":0,"toosoon":0,"cond_shown":"Incongruent","ratio_trial":200,"L_num":6,"L_den":20,"R_num":3,"R_den":6,"correct_side":2,"subjID":"saramontenegro24","gender":"1","school":"cafam","age":"11"},{"start_time":1551901034832,"click_time":1551901035411,"finger_time":1551901035112,"fix_duration":619.1291875528743,"trial":7,"RT":280,"MT":299,"sideResp":1,"stimulus":[],"xmouse":[756,756,755,755,755,755,755,755,755,755,754,754,749,683,629,560,486,419,351,349,349,346,346,346,346,346,346,346,442],"ymouse":[465,465,465,465,465,465,465,465,465,465,463,462,456,376,307,227,150,80,17,16,16,7,7,7,7,7,7,7,35],"timestamp_mouse":[24,39,58,79,99,118,139,159,180,198,220,240,259,280,300,319,340,360,380,399,420,440,459,480,500,520,540,559,579],"xSR":741.5,"ySR":449.15000000000003,"xT1":424.9,"yT1":0,"xT2":1058.1,"yT2":0,"toosoon":0,"cond_shown":"Incongruent","ratio_trial":300,"L_num":4,"L_den":20,"R_num":2,"R_den":4,"correct_side":2,"subjID":"saramontenegro24","gender":"1","school":"cafam","age":"11"},{"start_time":1551901037722,"click_time":1551901038391,"finger_time":1551901038052,"fix_duration":1407.3457572016073,"trial":8,"RT":330,"MT":339,"sideResp":1,"stimulus":[],"xmouse":[811,811,811,811,811,811,811,811,811,811,811,811,811,811,809,804,799,789,773,735,682,645,616,592,553,545,541,540,540,540,540,533,527,519],"ymouse":[510,510,510,510,510,510,510,510,510,510,510,510,510,510,498,470,426,369,314,239,199,179,166,154,124,111,101,95,92,92,90,85,81,73],"timestamp_mouse":[13,29,50,69,89,109,130,150,170,189,209,230,250,270,289,310,330,350,370,390,408,429,449,469,489,509,528,549,570,589,609,629,650,669],"xSR":741.5,"ySR":449.15000000000003,"xT1":424.9,"yT1":0,"xT2":1058.1,"yT2":0,"toosoon":0,"cond_shown":"Incongruent","ratio_trial":300,"L_num":8,"L_den":10,"R_num":9,"R_den":18,"correct_side":1,"subjID":"saramontenegro24","gender":"1","school":"cafam","age":"11"},{"start_time":1551901040453,"click_time":1551901040871,"finger_time":1551901040771,"fix_duration":1340.645400770982,"trial":9,"RT":318,"MT":100,"sideResp":2,"stimulus":[],"xmouse":[784,784,784,788,788,788,788,788,788,788,788,788,788,792,813,870,936,1043,1081,1100,1112],"ymouse":[492,492,492,492,492,492,492,492,492,492,492,492,492,491,472,403,313,167,124,107,97],"timestamp_mouse":[19,39,57,78,99,118,139,158,178,199,218,239,258,278,299,318,339,359,378,398,418],"xSR":741.5,"ySR":449.15000000000003,"xT1":424.9,"yT1":0,"xT2":1058.1,"yT2":0,"toosoon":0,"cond_shown":"Congruent","ratio_trial":200,"L_num":3,"L_den":10,"R_num":11,"R_den":22,"correct_side":2,"subjID":"saramontenegro24","gender":"1","school":"cafam","age":"11"},{"start_time":1551901042566,"click_time":1551901042932,"finger_time":1551901042870,"fix_duration":952.4450384303126,"trial":10,"RT":304,"MT":62,"sideResp":1,"stimulus":[],"xmouse":[797,797,797,797,797,797,797,797,797,797,797,797,797,793,785,762,662,590,515],"ymouse":[483,483,483,483,483,483,483,483,483,483,483,483,483,473,454,400,246,163,93],"timestamp_mouse":[13,25,45,65,85,105,125,145,165,186,205,225,246,265,286,304,326,345,365],"xSR":741.5,"ySR":449.15000000000003,"xT1":424.9,"yT1":0,"xT2":1058.1,"yT2":0,"toosoon":0,"cond_shown":"Congruent","ratio_trial":300,"L_num":20,"L_den":25,"R_num":5,"R_den":10,"correct_side":1,"subjID":"saramontenegro24","gender":"1","school":"cafam","age":"11"},{"start_time":1551901044084,"click_time":1551901044532,"finger_time":1551901044372,"fix_duration":250,"trial":11,"RT":288,"MT":160,"sideResp":2,"stimulus":[],"xmouse":[811,811,811,811,811,811,811,811,811,811,811,811,812,816,830,880,909,938,969,1000,1025,1057,1078],"ymouse":[495,495,495,495,495,495,495,495,495,495,495,495,492,464,407,276,221,173,120,80,58,34,14],"timestamp_mouse":[10,36,48,67,88,107,128,148,167,187,206,228,247,267,288,308,327,347,366,387,407,427,448],"xSR":741.5,"ySR":449.15000000000003,"xT1":424.9,"yT1":0,"xT2":1058.1,"yT2":0,"toosoon":0,"cond_shown":"Congruent","ratio_trial":100,"L_num":10,"L_den":25,"R_num":3,"R_den":10,"correct_side":1,"subjID":"saramontenegro24","gender":"1","school":"cafam","age":"11"},{"start_time":1551901045590,"click_time":1551901046051,"finger_time":1551901045912,"fix_duration":337.3299367645448,"trial":12,"RT":322,"MT":139,"sideResp":1,"stimulus":[],"xmouse":[794,794,794,794,794,794,794,794,794,794,794,794,794,794,794,790,744,673,627,598,567,548,526,510],"ymouse":[500,500,500,500,500,500,500,500,500,500,500,500,500,500,500,496,411,288,223,181,144,127,108,95],"timestamp_mouse":[10,39,40,61,82,102,122,141,162,181,202,222,242,262,282,301,322,342,362,381,402,421,442,461],"xSR":741.5,"ySR":449.15000000000003,"xT1":424.9,"yT1":0,"xT2":1058.1,"yT2":0,"toosoon":0,"cond_shown":"Congruent","ratio_trial":100,"L_num":7,"L_den":14,"R_num":15,"R_den":25,"correct_side":2,"subjID":"saramontenegro24","gender":"1","school":"cafam","age":"11"},{"start_time":1551901047140,"click_time":1551901047631,"finger_time":1551901047511,"fix_duration":328.87389957756073,"trial":13,"RT":371,"MT":120,"sideResp":1,"stimulus":[],"xmouse":[808,808,808,808,808,808,808,808,808,808,808,808,808,808,808,808,808,808,793,783,759,721,655,534,518],"ymouse":[508,508,508,508,508,508,508,508,508,508,508,508,508,508,502,494,474,450,377,357,322,272,194,75,62],"timestamp_mouse":[10,31,52,72,91,112,130,152,172,192,212,231,251,272,292,312,331,351,371,391,412,431,451,471,491],"xSR":741.5,"ySR":449.15000000000003,"xT1":424.9,"yT1":0,"xT2":1058.1,"yT2":0,"toosoon":0,"cond_shown":"Incongruent","ratio_trial":300,"L_num":2,"L_den":4,"R_num":6,"R_den":30,"correct_side":1,"subjID":"saramontenegro24","gender":"1","school":"cafam","age":"11"},{"start_time":1551901049194,"click_time":1551901049572,"finger_time":1551901049492,"fix_duration":581.1364147430616,"trial":14,"RT":298,"MT":80,"sideResp":2,"stimulus":[],"xmouse":[806,806,806,806,806,806,806,806,806,806,806,806,806,805,837,914,980,1037,1083],"ymouse":[480,480,480,480,480,480,480,480,480,480,480,480,480,476,420,301,209,122,57],"timestamp_mouse":[25,38,58,76,96,117,136,158,176,196,217,237,256,278,298,316,337,358,378],"xSR":741.5,"ySR":449.15000000000003,"xT1":424.9,"yT1":0,"xT2":1058.1,"yT2":0,"toosoon":0,"cond_shown":"Incongruent","ratio_trial":300,"L_num":8,"L_den":10,"R_num":9,"R_den":18,"correct_side":1,"subjID":"saramontenegro24","gender":"1","school":"cafam","age":"11"},{"start_time":1551901050608,"click_time":1551901051011,"finger_time":1551901050791,"fix_duration":275.9083724310184,"trial":15,"RT":183,"MT":220,"sideResp":1,"stimulus":[],"xmouse":[808,808,808,808,808,808,808,796,771,738,730,724,717,707,639,596,559,535,529,525,520],"ymouse":[507,507,507,507,507,507,507,490,452,402,391,381,365,340,206,121,57,22,16,14,12],"timestamp_mouse":[12,33,44,63,83,102,124,144,163,183,203,223,244,263,285,302,323,344,363,383,403],"xSR":741.5,"ySR":449.15000000000003,"xT1":424.9,"yT1":0,"xT2":1058.1,"yT2":0,"toosoon":0,"cond_shown":"Congruent","ratio_trial":200,"L_num":9,"L_den":30,"R_num":13,"R_den":26,"correct_side":2,"subjID":"saramontenegro24","gender":"1","school":"cafam","age":"11"},{"start_time":1551901052919,"click_time":1551901053472,"finger_time":1551901053272,"fix_duration":765.083457345614,"trial":16,"RT":353,"MT":200,"sideResp":1,"stimulus":[],"xmouse":[798,798,798,798,798,798,798,798,798,798,798,798,798,798,798,798,799,799,775,743,676,627,586,540,533,525,514,500],"ymouse":[472,472,472,472,472,472,472,472,472,472,472,472,472,472,471,463,451,435,385,339,260,205,167,129,121,115,108,97],"timestamp_mouse":[15,35,53,73,93,112,131,152,172,191,212,233,251,273,292,312,333,353,374,392,412,433,452,473,492,512,532,553],"xSR":741.5,"ySR":449.15000000000003,"xT1":424.9,"yT1":0,"xT2":1058.1,"yT2":0,"toosoon":0,"cond_shown":"Incongruent","ratio_trial":300,"L_num":13,"L_den":26,"R_num":12,"R_den":15,"correct_side":2,"subjID":"saramontenegro24","gender":"1","school":"cafam","age":"11"},{"start_time":1551901055331,"click_time":1551901055752,"finger_time":1551901055632,"fix_duration":1077.6899641456582,"trial":17,"RT":301,"MT":120,"sideResp":2,"stimulus":[],"xmouse":[813,813,813,813,813,813,813,811,810,809,809,809,809,809,809,818,833,876,915,998,1052,1089],"ymouse":[464,464,464,464,464,464,464,464,464,465,465,465,465,465,465,443,417,340,260,116,51,12],"timestamp_mouse":[1,20,40,61,80,99,121,141,161,181,200,221,241,260,281,301,321,340,360,379,401,421],"xSR":741.5,"ySR":449.15000000000003,"xT1":424.9,"yT1":0,"xT2":1058.1,"yT2":0,"toosoon":0,"cond_shown":"Incongruent","ratio_trial":200,"L_num":9,"L_den":15,"R_num":8,"R_den":10,"correct_side":2,"subjID":"saramontenegro24","gender":"1","school":"cafam","age":"11"},{"start_time":1551901057144,"click_time":1551901057511,"finger_time":1551901057391,"fix_duration":330.91790393669874,"trial":18,"RT":247,"MT":120,"sideResp":2,"stimulus":[],"xmouse":[776,776,776,776,777,778,778,779,780,780,781,784,792,801,817,843,885,1038,1123],"ymouse":[477,477,477,477,475,475,474,471,469,467,464,456,428,407,373,330,279,137,71],"timestamp_mouse":[10,27,48,67,87,108,127,147,166,186,206,226,247,266,287,308,328,349,367],"xSR":741.5,"ySR":449.15000000000003,"xT1":424.9,"yT1":0,"xT2":1058.1,"yT2":0,"toosoon":0,"cond_shown":"Incongruent","ratio_trial":200,"L_num":4,"L_den":5,"R_num":6,"R_den":10,"correct_side":1,"subjID":"saramontenegro24","gender":"1","school":"cafam","age":"11"},{"start_time":1551901058545,"click_time":1551901058952,"finger_time":1551901058872,"fix_duration":250,"trial":19,"RT":327,"MT":80,"sideResp":1,"stimulus":[],"xmouse":[785,785,785,785,785,785,785,785,785,785,785,785,785,785,786,781,762,700,652,560,509],"ymouse":[501,501,501,501,501,501,501,501,501,501,501,501,501,501,497,487,443,296,208,87,30],"timestamp_mouse":[9,27,47,67,86,106,127,146,166,186,206,226,245,267,286,307,327,347,366,386,407],"xSR":741.5,"ySR":449.15000000000003,"xT1":424.9,"yT1":0,"xT2":1058.1,"yT2":0,"toosoon":0,"cond_shown":"Incongruent","ratio_trial":200,"L_num":7,"L_den":10,"R_num":8,"R_den":16,"correct_side":1,"subjID":"saramontenegro24","gender":"1","school":"cafam","age":"11"},{"start_time":1551901060832,"click_time":1551901061292,"finger_time":1551901061192,"fix_duration":1038.2290412004463,"trial":20,"RT":360,"MT":100,"sideResp":2,"stimulus":[],"xmouse":[769,769,786,806,812,818,820,820,820,820,820,820,820,820,820,820,821,831,887,937,993,1056,1106,1147],"ymouse":[492,492,495,497,497,497,497,497,497,497,497,497,497,497,497,497,497,490,422,349,270,190,131,83],"timestamp_mouse":[1,19,38,59,79,100,119,140,160,179,200,218,240,259,280,299,319,339,360,379,399,418,439,459],"xSR":741.5,"ySR":449.15000000000003,"xT1":424.9,"yT1":0,"xT2":1058.1,"yT2":0,"toosoon":0,"cond_shown":"Congruent","ratio_trial":100,"L_num":2,"L_den":5,"R_num":11,"R_den":22,"correct_side":2,"subjID":"saramontenegro24","gender":"1","school":"cafam","age":"11"},{"start_time":1551901062877,"click_time":1551901063312,"finger_time":1551901063211,"fix_duration":463.57265628922397,"trial":21,"RT":334,"MT":101,"sideResp":1,"stimulus":[],"xmouse":[771,767,764,764,764,764,764,764,764,764,764,764,764,764,764,760,738,699,653,597,546,477],"ymouse":[490,487,485,485,485,485,485,485,485,485,485,485,485,485,485,477,438,379,306,227,154,63],"timestamp_mouse":[14,35,55,75,95,113,135,155,174,195,214,235,254,274,295,314,334,354,375,394,414,435],"xSR":741.5,"ySR":449.15000000000003,"xT1":424.9,"yT1":0,"xT2":1058.1,"yT2":0,"toosoon":0,"cond_shown":"Incongruent","ratio_trial":300,"L_num":4,"L_den":5,"R_num":6,"R_den":12,"correct_side":1,"subjID":"saramontenegro24","gender":"1","school":"cafam","age":"11"},{"start_time":1551901064701,"click_time":1551901065132,"finger_time":1551901064811,"fix_duration":749.7694139911897,"trial":22,"RT":110,"MT":321,"sideResp":2,"stimulus":[],"xmouse":[810,812,814,816,818,819,820,820,820,820,820,820,820,820,820,831,854,888,927,970,1048,1078],"ymouse":[470,464,459,455,451,447,446,446,446,446,446,446,446,446,446,422,366,288,214,146,63,41],"timestamp_mouse":[12,30,52,71,90,110,130,150,171,191,211,230,250,271,291,310,330,350,371,390,410,431],"xSR":741.5,"ySR":449.15000000000003,"xT1":424.9,"yT1":0,"xT2":1058.1,"yT2":0,"toosoon":0,"cond_shown":"Incongruent","ratio_trial":100,"L_num":2,"L_den":4,"R_num":8,"R_den":20,"correct_side":1,"subjID":"saramontenegro24","gender":"1","school":"cafam","age":"11"},{"start_time":1551901066917,"click_time":1551901067572,"finger_time":1551901067211,"fix_duration":1003.0677811097466,"trial":23,"RT":294,"MT":361,"sideResp":1,"stimulus":[],"xmouse":[805,805,805,805,805,805,805,805,805,805,805,805,805,795,767,724,674,629,596,576,576,576,576,576,575,573,570,570,569,557,548,535,524],"ymouse":[488,488,488,488,488,488,488,488,488,488,488,488,488,475,418,346,266,200,165,144,144,144,144,144,140,133,129,128,126,111,95,75,59],"timestamp_mouse":[14,38,54,74,95,114,134,155,175,193,214,235,253,275,294,315,335,354,374,394,414,435,455,473,493,514,533,555,574,594,614,635,654],"xSR":741.5,"ySR":449.15000000000003,"xT1":424.9,"yT1":0,"xT2":1058.1,"yT2":0,"toosoon":0,"cond_shown":"Incongruent","ratio_trial":300,"L_num":4,"L_den":5,"R_num":8,"R_den":16,"correct_side":1,"subjID":"saramontenegro24","gender":"1","school":"cafam","age":"11"},{"start_time":1551901069042,"click_time":1551901069651,"finger_time":1551901069352,"fix_duration":828.9301426203994,"trial":24,"RT":310,"MT":299,"sideResp":1,"stimulus":[],"xmouse":[786,786,786,786,786,786,786,786,786,786,786,786,786,779,763,743,721,662,636,619,605,591,577,553,545,538,533,529,528,525,521],"ymouse":[499,499,499,499,499,499,499,499,499,499,499,499,499,484,451,415,378,272,229,202,178,154,130,97,89,80,76,71,70,67,63],"timestamp_mouse":[13,32,50,70,89,109,130,148,170,189,210,230,249,270,289,310,330,350,368,389,410,429,449,469,489,510,529,550,568,589,609],"xSR":741.5,"ySR":449.15000000000003,"xT1":424.9,"yT1":0,"xT2":1058.1,"yT2":0,"toosoon":0,"cond_shown":"Incongruent","ratio_trial":200,"L_num":9,"L_den":15,"R_num":8,"R_den":10,"correct_side":2,"subjID":"saramontenegro24","gender":"1","school":"cafam","age":"11"},{"start_time":1551901086946,"click_time":1551901087812,"finger_time":1551901087271,"fix_duration":413.0729512888989,"trial":25,"RT":325,"MT":541,"sideResp":1,"stimulus":[],"xmouse":[788,788,788,788,788,788,788,788,788,788,788,788,788,788,788,784,778,755,724,702,665,616,567,528,526,526,526,526,528,529,528,523,520,518,517,517,517,517,517,517,517,516,514,506],"ymouse":[479,479,479,479,479,479,479,479,479,479,479,479,479,479,476,461,430,379,340,318,287,245,210,193,192,192,192,187,171,141,125,113,108,107,107,106,106,106,106,106,106,106,101,85],"timestamp_mouse":[11,26,49,66,85,105,126,145,164,185,205,226,245,265,287,305,325,348,365,385,405,426,445,466,486,507,527,547,565,585,606,625,647,666,685,707,727,746,766,786,806,826,845,866],"xSR":741.5,"ySR":449.15000000000003,"xT1":424.9,"yT1":0,"xT2":1058.1,"yT2":0,"toosoon":0,"cond_shown":"Congruent","ratio_trial":300,"L_num":1,"L_den":3,"R_num":19,"R_den":30,"correct_side":2,"subjID":"saramontenegro24","gender":"1","school":"cafam","age":"11"},{"start_time":1551901089020,"click_time":1551901089612,"finger_time":1551901089293,"fix_duration":386.35603359493876,"trial":26,"RT":273,"MT":319,"sideResp":2,"stimulus":[],"xmouse":[814,814,814,814,814,814,814,814,814,814,814,814,814,826,852,897,931,969,1012,1021,1027,1027,1027,1027,1027,1027,1027,1027,1027,1076],"ymouse":[483,483,483,483,483,483,483,483,483,483,483,483,482,442,380,269,191,124,38,14,1,1,1,1,1,1,1,1,1,1],"timestamp_mouse":[13,34,52,72,93,112,132,152,172,192,211,232,252,273,291,312,333,352,373,391,412,431,451,471,493,513,532,552,573,591],"xSR":741.5,"ySR":449.15000000000003,"xT1":424.9,"yT1":0,"xT2":1058.1,"yT2":0,"toosoon":0,"cond_shown":"Congruent","ratio_trial":300,"L_num":5,"L_den":25,"R_num":7,"R_den":14,"correct_side":2,"subjID":"saramontenegro24","gender":"1","school":"cafam","age":"11"},{"start_time":1551901091100,"click_time":1551901091693,"finger_time":1551901091212,"fix_duration":605.0130805037535,"trial":27,"RT":112,"MT":481,"sideResp":2,"stimulus":[],"xmouse":[796,796,796,796,799,812,817,821,824,828,830,836,862,911,964,997,997,997,997,997,997,997,997,997,997,997,997,997,997,1126],"ymouse":[473,473,473,472,464,425,406,389,378,365,361,347,290,200,101,23,23,23,23,23,23,23,23,23,23,23,23,23,23,43],"timestamp_mouse":[12,31,52,72,92,112,132,153,173,193,211,232,252,271,292,311,331,352,373,393,411,433,452,472,493,512,532,553,572,593],"xSR":741.5,"ySR":449.15000000000003,"xT1":424.9,"yT1":0,"xT2":1058.1,"yT2":0,"toosoon":0,"cond_shown":"Congruent","ratio_trial":200,"L_num":11,"L_den":22,"R_num":3,"R_den":10,"correct_side":1,"subjID":"saramontenegro24","gender":"1","school":"cafam","age":"11"},{"start_time":1551901092664,"click_time":1551901093232,"finger_time":1551901092872,"fix_duration":250,"trial":28,"RT":208,"MT":360,"sideResp":1,"stimulus":[],"xmouse":[807,806,806,806,806,806,806,803,796,786,768,694,656,623,595,563,482,465,460,460,460,460,460,460,460,462,464,467,469],"ymouse":[502,501,501,501,501,501,501,494,479,459,428,342,307,277,251,216,147,135,133,133,133,133,131,129,127,122,117,100,89],"timestamp_mouse":[8,27,47,68,88,108,127,147,168,189,208,229,247,268,288,309,329,348,367,388,407,429,448,468,489,507,527,547,567],"xSR":741.5,"ySR":449.15000000000003,"xT1":424.9,"yT1":0,"xT2":1058.1,"yT2":0,"toosoon":0,"cond_shown":"Congruent","ratio_trial":300,"L_num":24,"L_den":30,"R_num":2,"R_den":4,"correct_side":1,"subjID":"saramontenegro24","gender":"1","school":"cafam","age":"11"},{"start_time":1551901095341,"click_time":1551901095753,"finger_time":1551901095672,"fix_duration":1327.2592348879161,"trial":29,"RT":331,"MT":81,"sideResp":1,"stimulus":[],"xmouse":[775,775,775,775,775,775,775,775,775,775,775,775,775,775,775,771,756,662,593,537,521],"ymouse":[482,482,482,482,482,482,482,482,482,482,482,482,482,482,482,473,448,286,193,115,95],"timestamp_mouse":[14,32,52,70,91,111,131,151,171,192,212,231,250,272,292,310,331,352,371,391,412],"xSR":741.5,"ySR":449.15000000000003,"xT1":424.9,"yT1":0,"xT2":1058.1,"yT2":0,"toosoon":0,"cond_shown":"Congruent","ratio_trial":200,"L_num":5,"L_den":10,"R_num":14,"R_den":20,"correct_side":2,"subjID":"saramontenegro24","gender":"1","school":"cafam","age":"11"},{"start_time":1551901097468,"click_time":1551901097812,"finger_time":1551901097752,"fix_duration":994.9025482859173,"trial":30,"RT":284,"MT":60,"sideResp":2,"stimulus":[],"xmouse":[818,818,818,818,818,817,821,822,822,822,822,822,822,830,851,902,1036,1099],"ymouse":[508,508,508,508,508,505,493,492,492,492,492,492,492,480,455,381,169,72],"timestamp_mouse":[10,24,49,65,83,103,125,143,165,184,203,224,244,264,284,303,325,343],"xSR":741.5,"ySR":449.15000000000003,"xT1":424.9,"yT1":0,"xT2":1058.1,"yT2":0,"toosoon":0,"cond_shown":"Incongruent","ratio_trial":100,"L_num":12,"L_den":24,"R_num":9,"R_den":15,"correct_side":2,"subjID":"saramontenegro24","gender":"1","school":"cafam","age":"11"},{"start_time":1551901099186,"click_time":1551901099532,"finger_time":1551901099472,"fix_duration":433.9347490509915,"trial":31,"RT":286,"MT":60,"sideResp":2,"stimulus":[],"xmouse":[809,809,809,809,809,809,809,809,809,809,809,809,811,817,840,879,1039,1099],"ymouse":[482,482,482,482,482,482,482,482,482,482,482,482,479,468,426,362,137,59],"timestamp_mouse":[6,32,45,66,85,105,127,147,165,186,206,225,245,267,286,305,325,345],"xSR":741.5,"ySR":449.15000000000003,"xT1":424.9,"yT1":0,"xT2":1058.1,"yT2":0,"toosoon":0,"cond_shown":"Congruent","ratio_trial":300,"L_num":1,"L_den":5,"R_num":6,"R_den":12,"correct_side":2,"subjID":"saramontenegro24","gender":"1","school":"cafam","age":"11"},{"start_time":1551901101654,"click_time":1551901102012,"finger_time":1551901101953,"fix_duration":1361.6877875477292,"trial":32,"RT":299,"MT":59,"sideResp":2,"stimulus":[],"xmouse":[813,813,813,813,813,813,813,813,813,813,813,813,816,828,856,917,1074,1146],"ymouse":[474,474,474,474,474,474,474,474,474,474,474,474,470,452,411,329,107,6],"timestamp_mouse":[17,39,59,78,99,118,138,158,178,197,219,238,259,277,299,318,339,358],"xSR":741.5,"ySR":449.15000000000003,"xT1":424.9,"yT1":0,"xT2":1058.1,"yT2":0,"toosoon":0,"cond_shown":"Congruent","ratio_trial":300,"L_num":20,"L_den":25,"R_num":9,"R_den":18,"correct_side":1,"subjID":"saramontenegro24","gender":"1","school":"cafam","age":"11"},{"start_time":1551901103145,"click_time":1551901103532,"finger_time":1551901103453,"fix_duration":250,"trial":33,"RT":308,"MT":79,"sideResp":1,"stimulus":[],"xmouse":[797,797,797,797,797,797,797,797,797,797,797,797,796,782,758,713,648,568,553,517],"ymouse":[519,519,519,519,519,519,519,519,519,519,519,519,517,493,450,373,263,122,101,61],"timestamp_mouse":[6,36,48,67,87,108,127,147,167,186,207,226,246,267,287,308,327,347,366,386],"xSR":741.5,"ySR":449.15000000000003,"xT1":424.9,"yT1":0,"xT2":1058.1,"yT2":0,"toosoon":0,"cond_shown":"Incongruent","ratio_trial":200,"L_num":14,"L_den":30,"R_num":6,"R_den":9,"correct_side":2,"subjID":"saramontenegro24","gender":"1","school":"cafam","age":"11"},{"start_time":1551901104685,"click_time":1551901105152,"finger_time":1551901105053,"fix_duration":250,"trial":34,"RT":368,"MT":99,"sideResp":2,"stimulus":[],"xmouse":[773,773,773,773,773,773,773,773,773,773,773,773,773,773,773,776,785,799,817,839,898,976,1034,1088],"ymouse":[491,491,491,491,491,491,491,491,491,491,491,491,491,491,491,483,471,454,427,395,299,185,105,39],"timestamp_mouse":[14,35,48,68,86,106,127,146,167,186,206,228,247,266,288,307,327,347,368,387,407,426,447,467],"xSR":741.5,"ySR":449.15000000000003,"xT1":424.9,"yT1":0,"xT2":1058.1,"yT2":0,"toosoon":0,"cond_shown":"Congruent","ratio_trial":200,"L_num":13,"L_den":26,"R_num":14,"R_den":20,"correct_side":2,"subjID":"saramontenegro24","gender":"1","school":"cafam","age":"11"},{"start_time":1551901109858,"click_time":1551901110253,"finger_time":1551901110172,"fix_duration":1284.8295199224076,"trial":35,"RT":314,"MT":81,"sideResp":1,"stimulus":[],"xmouse":[790,790,790,790,790,790,790,790,790,790,790,790,790,789,783,765,713,574,533,505],"ymouse":[478,478,478,478,478,478,478,478,478,478,478,478,478,472,457,413,312,126,89,69],"timestamp_mouse":[13,35,53,74,93,115,134,154,173,195,214,234,255,274,294,314,333,353,374,395],"xSR":741.5,"ySR":449.15000000000003,"xT1":424.9,"yT1":0,"xT2":1058.1,"yT2":0,"toosoon":0,"cond_shown":"Incongruent","ratio_trial":300,"L_num":13,"L_den":26,"R_num":12,"R_den":15,"correct_side":2,"subjID":"saramontenegro24","gender":"1","school":"cafam","age":"11"},{"start_time":1551901111225,"click_time":1551901111552,"finger_time":1551901111471,"fix_duration":250,"trial":36,"RT":246,"MT":81,"sideResp":2,"stimulus":[],"xmouse":[815,815,815,820,821,821,821,821,821,821,822,825,848,925,981,1074,1122],"ymouse":[511,509,509,497,496,496,496,496,496,496,494,488,449,316,249,155,94],"timestamp_mouse":[16,37,46,67,87,106,126,148,166,187,208,227,246,269,287,308,327],"xSR":741.5,"ySR":449.15000000000003,"xT1":424.9,"yT1":0,"xT2":1058.1,"yT2":0,"toosoon":0,"cond_shown":"Incongruent","ratio_trial":200,"L_num":1,"L_den":3,"R_num":2,"R_den":15,"correct_side":1,"subjID":"saramontenegro24","gender":"1","school":"cafam","age":"11"},{"start_time":1551901112604,"click_time":1551901112971,"finger_time":1551901112871,"fix_duration":250,"trial":37,"RT":267,"MT":100,"sideResp":1,"stimulus":[],"xmouse":[772,772,772,772,772,772,772,772,772,772,772,772,763,743,675,609,561,525,502],"ymouse":[512,512,512,512,512,512,512,512,512,512,508,491,462,401,253,150,82,35,5],"timestamp_mouse":[9,33,48,68,87,108,128,149,167,188,208,228,248,267,289,308,328,349,367],"xSR":741.5,"ySR":449.15000000000003,"xT1":424.9,"yT1":0,"xT2":1058.1,"yT2":0,"toosoon":0,"cond_shown":"Congruent","ratio_trial":200,"L_num":11,"L_den":22,"R_num":3,"R_den":10,"correct_side":1,"subjID":"saramontenegro24","gender":"1","school":"cafam","age":"11"},{"start_time":1551901113745,"click_time":1551901114112,"finger_time":1551901114012,"fix_duration":250,"trial":38,"RT":267,"MT":100,"sideResp":2,"stimulus":[],"xmouse":[792,792,792,792,792,792,792,792,792,792,792,793,798,840,883,928,973,1005,1068],"ymouse":[483,483,483,483,483,483,483,483,483,483,483,479,468,366,291,216,156,109,25],"timestamp_mouse":[6,38,47,67,87,106,126,147,167,187,207,226,246,267,287,308,328,348,367],"xSR":741.5,"ySR":449.15000000000003,"xT1":424.9,"yT1":0,"xT2":1058.1,"yT2":0,"toosoon":0,"cond_shown":"Incongruent","ratio_trial":100,"L_num":4,"L_den":8,"R_num":8,"R_den":20,"correct_side":1,"subjID":"saramontenegro24","gender":"1","school":"cafam","age":"11"},{"start_time":1551901115815,"click_time":1551901116633,"finger_time":1551901116132,"fix_duration":982.3085685275969,"trial":39,"RT":317,"MT":501,"sideResp":1,"stimulus":[],"xmouse":[781,781,781,781,781,781,781,781,781,781,781,781,781,781,776,767,741,692,606,593,593,593,593,593,593,593,593,593,593,545,580,613,635,645,646,646,646,646,633,550,497],"ymouse":[492,492,492,492,492,492,492,492,492,492,492,492,492,492,457,376,271,163,21,6,6,6,6,6,6,6,6,6,6,45,103,157,186,196,196,196,196,195,172,63,12],"timestamp_mouse":[28,37,56,76,97,116,138,156,176,197,217,237,258,277,296,317,337,357,378,397,416,437,457,477,498,517,537,558,577,597,617,638,658,677,697,717,736,757,777,797,817],"xSR":741.5,"ySR":449.15000000000003,"xT1":424.9,"yT1":0,"xT2":1058.1,"yT2":0,"toosoon":0,"cond_shown":"Congruent","ratio_trial":300,"L_num":11,"L_den":22,"R_num":1,"R_den":5,"correct_side":1,"subjID":"saramontenegro24","gender":"1","school":"cafam","age":"11"},{"start_time":1551901117931,"click_time":1551901118273,"finger_time":1551901118072,"fix_duration":616.6607426290614,"trial":40,"RT":141,"MT":201,"sideResp":2,"stimulus":[],"xmouse":[796,796,798,805,807,808,810,813,817,818,820,828,842,895,929,975,1021,1060],"ymouse":[484,484,474,462,458,456,454,447,438,434,430,419,399,314,246,166,95,50],"timestamp_mouse":[11,21,41,62,82,101,121,141,163,181,200,221,240,262,280,301,321,341],"xSR":741.5,"ySR":449.15000000000003,"xT1":424.9,"yT1":0,"xT2":1058.1,"yT2":0,"toosoon":0,"cond_shown":"Congruent","ratio_trial":100,"L_num":11,"L_den":22,"R_num":6,"R_den":15,"correct_side":1,"subjID":"saramontenegro24","gender":"1","school":"cafam","age":"11"},{"start_time":1551901119893,"click_time":1551901120511,"finger_time":1551901120072,"fix_duration":741.7185344175093,"trial":41,"RT":179,"MT":439,"sideResp":1,"stimulus":[],"xmouse":[807,806,805,804,800,800,796,795,795,790,784,778,771,754,721,643,610,597,586,569,567,567,567,567,567,567,567,567,567,567,465],"ymouse":[483,478,475,472,464,462,456,452,449,434,419,407,389,349,281,140,82,50,28,4,0,0,0,0,0,0,0,0,0,0,23],"timestamp_mouse":[27,38,60,79,99,119,139,160,179,200,218,238,259,280,298,318,340,359,378,400,419,440,460,479,499,519,538,560,579,599,618],"xSR":741.5,"ySR":449.15000000000003,"xT1":424.9,"yT1":0,"xT2":1058.1,"yT2":0,"toosoon":0,"cond_shown":"Congruent","ratio_trial":300,"L_num":1,"L_den":3,"R_num":19,"R_den":30,"correct_side":2,"subjID":"saramontenegro24","gender":"1","school":"cafam","age":"11"},{"start_time":1551901121919,"click_time":1551901122472,"finger_time":1551901122051,"fix_duration":546.102635522078,"trial":42,"RT":132,"MT":421,"sideResp":2,"stimulus":[],"xmouse":[776,776,776,776,776,782,802,830,864,910,934,958,974,999,1014,1024,1031,1037,1037,1038,1040,1042,1042,1061,1074,1086,1095,1102],"ymouse":[490,490,490,490,490,472,438,392,339,277,253,233,219,199,189,180,174,170,170,170,172,177,177,166,151,131,112,96],"timestamp_mouse":[17,36,52,72,92,114,132,153,173,192,213,232,253,274,292,312,333,353,374,394,413,433,452,474,493,513,532,553],"xSR":741.5,"ySR":449.15000000000003,"xT1":424.9,"yT1":0,"xT2":1058.1,"yT2":0,"toosoon":0,"cond_shown":"Incongruent","ratio_trial":300,"L_num":4,"L_den":5,"R_num":8,"R_den":16,"correct_side":1,"subjID":"saramontenegro24","gender":"1","school":"cafam","age":"11"},{"start_time":1551901124607,"click_time":1551901125232,"finger_time":1551901124892,"fix_duration":1394.0700541528306,"trial":43,"RT":285,"MT":340,"sideResp":2,"stimulus":[],"xmouse":[810,810,810,810,810,810,810,810,810,810,810,810,810,816,839,892,939,986,1035,1153,1182,1195,1198,1198,1198,1198,1199,1198,1190,1166,1159,1158],"ymouse":[484,484,484,484,484,484,484,484,484,484,484,484,484,475,432,358,302,250,203,107,83,71,69,69,69,69,69,70,76,89,92,92],"timestamp_mouse":[10,25,46,65,85,105,125,144,166,185,206,225,245,265,285,304,324,344,365,386,405,426,444,465,485,505,526,546,565,585,604,625],"xSR":741.5,"ySR":449.15000000000003,"xT1":424.9,"yT1":0,"xT2":1058.1,"yT2":0,"toosoon":0,"cond_shown":"Incongruent","ratio_trial":100,"L_num":6,"L_den":12,"R_num":3,"R_den":5,"correct_side":2,"subjID":"saramontenegro24","gender":"1","school":"cafam","age":"11"},{"start_time":1551901126528,"click_time":1551901127192,"finger_time":1551901126873,"fix_duration":416.34553100765027,"trial":44,"RT":345,"MT":319,"sideResp":2,"stimulus":[],"xmouse":[793,793,793,793,793,793,793,793,793,793,793,793,793,793,793,790,786,782,784,819,882,969,1063,1175,1194,1200,1202,1202,1202,1202,1202,1200,1177,1149],"ymouse":[486,486,486,486,486,486,486,486,486,486,486,486,486,486,486,476,455,432,398,361,312,253,193,129,114,108,106,104,104,104,104,101,89,78],"timestamp_mouse":[6,24,43,64,85,103,123,144,164,184,204,225,244,265,284,303,324,345,365,383,404,424,445,464,485,503,524,544,564,584,604,623,644,663],"xSR":741.5,"ySR":449.15000000000003,"xT1":424.9,"yT1":0,"xT2":1058.1,"yT2":0,"toosoon":0,"cond_shown":"Incongruent","ratio_trial":100,"L_num":10,"L_den":25,"R_num":9,"R_den":18,"correct_side":2,"subjID":"saramontenegro24","gender":"1","school":"cafam","age":"11"},{"start_time":1551901128391,"click_time":1551901128812,"finger_time":1551901128712,"fix_duration":296.29050413341093,"trial":45,"RT":321,"MT":100,"sideResp":2,"stimulus":[],"xmouse":[817,817,817,817,817,817,817,816,816,816,816,816,816,816,818,825,874,904,938,981,1021,1077],"ymouse":[492,492,492,492,492,492,492,492,492,492,492,492,492,488,484,466,373,327,277,215,150,90],"timestamp_mouse":[8,26,42,61,81,100,122,140,160,182,201,222,241,261,280,301,321,341,362,381,401,420],"xSR":741.5,"ySR":449.15000000000003,"xT1":424.9,"yT1":0,"xT2":1058.1,"yT2":0,"toosoon":0,"cond_shown":"Incongruent","ratio_trial":200,"L_num":14,"L_den":30,"R_num":6,"R_den":9,"correct_side":2,"subjID":"saramontenegro24","gender":"1","school":"cafam","age":"11"},{"start_time":1551901130717,"click_time":1551901131393,"finger_time":1551901131052,"fix_duration":1004.6235091900146,"trial":46,"RT":335,"MT":341,"sideResp":2,"stimulus":[],"xmouse":[805,805,805,805,805,805,805,805,805,805,805,805,805,805,805,812,824,862,996,1099,1149,1186,1209,1221,1221,1221,1221,1221,1220,1216,1208,1198,1179,1145],"ymouse":[475,475,475,475,475,475,475,475,475,475,475,475,475,475,475,460,443,395,254,170,133,103,83,64,57,53,52,50,49,48,48,48,48,46],"timestamp_mouse":[15,43,55,76,96,115,136,155,175,194,215,236,256,275,296,315,335,356,376,394,416,436,454,476,495,515,534,555,576,596,616,635,656,675],"xSR":741.5,"ySR":449.15000000000003,"xT1":424.9,"yT1":0,"xT2":1058.1,"yT2":0,"toosoon":0,"cond_shown":"Incongruent","ratio_trial":200,"L_num":4,"L_den":30,"R_num":1,"R_den":3,"correct_side":2,"subjID":"saramontenegro24","gender":"1","school":"cafam","age":"11"},{"start_time":1551901135261,"click_time":1551901135871,"finger_time":1551901135572,"fix_duration":768.3134528434309,"trial":47,"RT":311,"MT":299,"sideResp":2,"stimulus":[],"xmouse":[805,805,805,805,805,805,805,805,805,805,805,805,805,805,810,827,893,934,977,1022,1058,1058,1058,1058,1058,1058,1058,1058,1058,1058,1091],"ymouse":[473,473,473,473,473,473,473,473,473,473,473,473,473,473,460,420,294,224,147,72,13,13,13,13,13,13,13,13,13,13,35],"timestamp_mouse":[11,30,59,70,91,112,131,151,171,191,211,231,251,271,291,311,332,350,372,392,411,432,450,471,490,511,532,550,571,592,610],"xSR":741.5,"ySR":449.15000000000003,"xT1":424.9,"yT1":0,"xT2":1058.1,"yT2":0,"toosoon":0,"cond_shown":"Congruent","ratio_trial":200,"L_num":12,"L_den":20,"R_num":6,"R_den":15,"correct_side":1,"subjID":"saramontenegro24","gender":"1","school":"cafam","age":"11"},{"start_time":1551901137268,"click_time":1551901138092,"finger_time":1551901137532,"fix_duration":534.675423351562,"trial":48,"RT":264,"MT":560,"sideResp":1,"stimulus":[],"xmouse":[794,794,794,794,794,789,788,787,786,785,785,783,758,727,659,578,501,359,275,220,202,201,201,201,208,220,258,281,298,306,316,336,356,368,376,383,392,392,393,397,409,425],"ymouse":[491,491,491,491,491,490,489,489,489,489,489,488,469,443,385,324,269,166,109,68,55,53,53,52,50,49,57,63,64,63,58,50,41,35,30,24,17,16,16,14,9,3],"timestamp_mouse":[9,35,44,64,84,103,125,145,165,183,204,225,245,264,283,303,324,344,364,385,405,423,444,464,484,504,525,544,564,585,603,625,643,663,683,704,725,744,764,783,803,823],"xSR":741.5,"ySR":449.15000000000003,"xT1":424.9,"yT1":0,"xT2":1058.1,"yT2":0,"toosoon":0,"cond_shown":"Incongruent","ratio_trial":100,"L_num":6,"L_den":12,"R_num":3,"R_den":5,"correct_side":2,"subjID":"saramontenegro24","gender":"1","school":"cafam","age":"11"},{"start_time":1551901160913,"click_time":1551901161671,"finger_time":1551901161312,"fix_duration":979.0431483533487,"trial":49,"RT":399,"MT":359,"sideResp":1,"stimulus":[],"xmouse":[782,782,782,782,782,782,782,782,782,782,782,782,782,782,782,782,782,780,767,727,689,664,647,636,622,614,608,603,599,594,587,582,576,556,544,533,525,518],"ymouse":[508,508,508,508,508,508,508,508,508,508,508,508,508,508,508,508,507,496,451,325,247,209,187,173,146,126,103,83,58,51,47,46,46,46,46,46,46,46],"timestamp_mouse":[18,40,58,78,99,118,139,160,178,198,220,238,258,278,298,318,339,359,379,399,419,440,459,478,499,519,539,558,579,598,618,638,658,680,698,719,740,758],"xSR":741.5,"ySR":449.15000000000003,"xT1":424.9,"yT1":0,"xT2":1058.1,"yT2":0,"toosoon":0,"cond_shown":"Incongruent","ratio_trial":200,"L_num":3,"L_den":4,"R_num":11,"R_den":20,"correct_side":1,"subjID":"saramontenegro24","gender":"1","school":"cafam","age":"11"},{"start_time":1551901162724,"click_time":1551901163132,"finger_time":1551901163012,"fix_duration":250,"trial":50,"RT":288,"MT":120,"sideResp":1,"stimulus":[],"xmouse":[795,795,795,795,795,795,795,795,795,795,795,795,795,793,758,717,662,612,573,534,523],"ymouse":[478,478,478,478,478,478,478,478,478,478,478,478,478,453,344,250,164,111,93,86,84],"timestamp_mouse":[10,29,47,68,87,107,127,147,167,188,207,227,248,268,288,307,328,348,367,387,407],"xSR":741.5,"ySR":449.15000000000003,"xT1":424.9,"yT1":0,"xT2":1058.1,"yT2":0,"toosoon":0,"cond_shown":"Incongruent","ratio_trial":300,"L_num":13,"L_den":26,"R_num":12,"R_den":15,"correct_side":2,"subjID":"saramontenegro24","gender":"1","school":"cafam","age":"11"},{"start_time":1551901164520,"click_time":1551901165132,"finger_time":1551901164811,"fix_duration":406.8315479757799,"trial":51,"RT":291,"MT":321,"sideResp":2,"stimulus":[],"xmouse":[796,796,796,796,796,796,796,796,796,796,796,796,796,801,826,853,883,912,959,984,992,1003,1013,1026,1032,1037,1041,1042,1042,1046,1063],"ymouse":[503,503,503,503,503,503,503,503,503,503,503,501,498,484,432,385,334,286,219,184,160,140,124,110,108,106,104,102,102,99,83],"timestamp_mouse":[12,34,51,72,91,111,133,152,172,191,211,233,251,272,291,311,331,351,373,391,411,432,451,473,491,512,533,551,572,592,612],"xSR":741.5,"ySR":449.15000000000003,"xT1":424.9,"yT1":0,"xT2":1058.1,"yT2":0,"toosoon":0,"cond_shown":"Congruent","ratio_trial":200,"L_num":6,"L_den":20,"R_num":11,"R_den":22,"correct_side":2,"subjID":"saramontenegro24","gender":"1","school":"cafam","age":"11"},{"start_time":1551901169173,"click_time":1551901169893,"finger_time":1551901169492,"fix_duration":539.304440799901,"trial":52,"RT":319,"MT":401,"sideResp":1,"stimulus":[],"xmouse":[797,797,797,797,797,797,797,797,797,797,797,797,797,797,797,789,752,711,668,640,614,602,588,575,560,542,533,533,533,533,533,533,533,533,532,524],"ymouse":[482,482,482,482,482,482,482,482,482,482,482,482,482,482,478,432,330,268,212,185,164,156,142,126,104,76,50,50,50,50,50,50,50,50,50,50],"timestamp_mouse":[19,39,58,78,99,118,139,158,180,199,219,239,258,279,299,319,338,359,378,398,420,438,459,479,498,519,538,559,579,600,619,639,659,678,699,720],"xSR":741.5,"ySR":449.15000000000003,"xT1":424.9,"yT1":0,"xT2":1058.1,"yT2":0,"toosoon":0,"cond_shown":"Incongruent","ratio_trial":100,"L_num":8,"L_den":16,"R_num":6,"R_den":10,"correct_side":2,"subjID":"saramontenegro24","gender":"1","school":"cafam","age":"11"},{"start_time":1551901171720,"click_time":1551901172093,"finger_time":1551901171932,"fix_duration":925.3774653916723,"trial":53,"RT":212,"MT":161,"sideResp":2,"stimulus":[],"xmouse":[803,803,803,803,803,805,811,820,828,838,847,861,878,927,964,1009,1058,1097,1140],"ymouse":[499,499,499,499,499,491,484,471,462,452,442,428,409,339,287,234,182,136,82],"timestamp_mouse":[14,31,51,72,91,111,131,152,172,191,212,232,251,272,291,312,332,351,372],"xSR":741.5,"ySR":449.15000000000003,"xT1":424.9,"yT1":0,"xT2":1058.1,"yT2":0,"toosoon":0,"cond_shown":"Congruent","ratio_trial":100,"L_num":4,"L_den":8,"R_num":6,"R_den":10,"correct_side":2,"subjID":"saramontenegro24","gender":"1","school":"cafam","age":"11"},{"start_time":1551901173243,"click_time":1551901173711,"finger_time":1551901173531,"fix_duration":250,"trial":54,"RT":288,"MT":180,"sideResp":2,"stimulus":[],"xmouse":[797,797,797,797,797,797,797,797,797,797,797,797,797,814,832,861,899,967,995,1017,1031,1042,1051,1069],"ymouse":[505,505,505,505,505,505,505,505,505,505,505,505,505,480,448,398,326,182,113,64,40,27,18,6],"timestamp_mouse":[9,33,48,69,88,110,128,149,170,190,208,228,248,269,288,309,328,350,368,388,409,430,449,468],"xSR":741.5,"ySR":449.15000000000003,"xT1":424.9,"yT1":0,"xT2":1058.1,"yT2":0,"toosoon":0,"cond_shown":"Congruent","ratio_trial":200,"L_num":21,"L_den":30,"R_num":2,"R_den":4,"correct_side":1,"subjID":"saramontenegro24","gender":"1","school":"cafam","age":"11"},{"start_time":1551901179431,"click_time":1551901179993,"finger_time":1551901179812,"fix_duration":556.2466473838656,"trial":55,"RT":381,"MT":181,"sideResp":2,"stimulus":[],"xmouse":[784,782,781,781,781,781,781,781,781,781,781,781,781,781,781,781,783,789,841,885,944,996,1053,1075,1079,1082,1083,1082],"ymouse":[483,479,476,476,476,476,476,476,476,476,476,476,476,476,476,476,469,458,373,320,259,220,184,168,159,144,124,82],"timestamp_mouse":[20,40,60,81,100,121,140,161,180,201,220,240,261,280,300,320,341,360,381,400,421,440,462,480,500,521,541,561],"xSR":741.5,"ySR":449.15000000000003,"xT1":424.9,"yT1":0,"xT2":1058.1,"yT2":0,"toosoon":0,"cond_shown":"Congruent","ratio_trial":100,"L_num":7,"L_den":14,"R_num":9,"R_den":15,"correct_side":2,"subjID":"saramontenegro24","gender":"1","school":"cafam","age":"11"},{"start_time":1551901182383,"click_time":1551901182972,"finger_time":1551901182732,"fix_duration":250,"trial":56,"RT":349,"MT":240,"sideResp":2,"stimulus":[],"xmouse":[799,799,799,799,799,799,799,799,799,799,799,799,799,799,799,799,817,879,952,1035,1112,1183,1189,1189,1186,1184,1171,1167,1159,1146],"ymouse":[507,507,507,507,507,507,507,507,507,507,507,507,507,507,507,507,486,415,336,237,146,36,16,5,0,0,5,7,12,17],"timestamp_mouse":[10,38,49,69,88,108,129,148,168,188,209,229,248,269,289,309,329,349,369,389,409,429,449,470,490,509,528,548,569,589],"xSR":741.5,"ySR":449.15000000000003,"xT1":424.9,"yT1":0,"xT2":1058.1,"yT2":0,"toosoon":0,"cond_shown":"Congruent","ratio_trial":300,"L_num":9,"L_den":10,"R_num":3,"R_den":5,"correct_side":1,"subjID":"saramontenegro24","gender":"1","school":"cafam","age":"11"},{"start_time":1551901185639,"click_time":1551901187471,"finger_time":1551901185892,"fix_duration":265.94456333263105,"trial":57,"RT":253,"MT":1579,"sideResp":1,"stimulus":[],"xmouse":[756,756,756,756,756,756,756,756,756,756,756,753,715,648,601,594,593,579,575,571,566,564,561,561,560,560,559,559,559,559,559,559,559,559,559,556,551,535,527,525,524,524,533,561,608,691,740,740,740,740,740,740,740,740,740,740,740,740,740,740,740,740,740,740,740,741,743,743,742,740,738,735,733,714,697,676,630,552,378,320,282,262,255,253,253,253,253,267,287,287,287,441],"ymouse":[476,476,476,476,476,476,476,476,476,476,476,465,389,282,219,215,215,214,213,213,212,211,211,211,210,208,205,205,205,205,205,205,205,205,205,206,208,215,217,218,219,224,257,332,416,502,546,546,546,546,546,546,546,546,546,546,546,546,546,546,546,546,546,546,546,536,531,516,514,509,499,484,467,410,377,345,293,227,107,72,49,36,28,24,23,23,20,10,0,0,0,3],"timestamp_mouse":[21,32,53,72,93,114,133,152,173,192,213,232,253,273,292,312,334,353,372,393,413,432,454,472,493,512,533,553,583,592,612,633,652,674,692,712,732,753,773,793,813,834,853,872,892,912,933,953,972,992,1012,1032,1052,1073,1093,1113,1133,1153,1172,1192,1213,1233,1253,1273,1292,1312,1333,1352,1373,1392,1412,1434,1453,1472,1493,1513,1533,1552,1573,1593,1612,1632,1653,1672,1693,1714,1732,1752,1773,1792,1814,1832],"xSR":741.5,"ySR":449.15000000000003,"xT1":424.9,"yT1":0,"xT2":1058.1,"yT2":0,"toosoon":0,"cond_shown":"Incongruent","ratio_trial":300,"L_num":1,"L_den":2,"R_num":2,"R_den":10,"correct_side":1,"subjID":"saramontenegro24","gender":"1","school":"cafam","age":"11"},{"start_time":1551901189156,"click_time":1551901189811,"finger_time":1551901189492,"fix_duration":1044.5321918435684,"trial":58,"RT":336,"MT":319,"sideResp":1,"stimulus":[],"xmouse":[792,793,797,797,797,797,794,793,791,791,791,791,791,788,785,779,740,679,633,592,569,569,569,569,569,569,569,569,569,569,569,569,479],"ymouse":[511,511,511,511,511,510,507,506,506,506,506,506,506,502,496,482,392,243,140,53,13,13,13,13,13,13,13,13,13,13,13,13,37],"timestamp_mouse":[16,36,57,76,96,115,136,156,176,195,216,236,256,276,296,316,336,356,375,396,416,437,455,475,495,515,536,555,576,596,616,636,655],"xSR":741.5,"ySR":449.15000000000003,"xT1":424.9,"yT1":0,"xT2":1058.1,"yT2":0,"toosoon":0,"cond_shown":"Incongruent","ratio_trial":300,"L_num":4,"L_den":20,"R_num":2,"R_den":4,"correct_side":2,"subjID":"saramontenegro24","gender":"1","school":"cafam","age":"11"},{"start_time":1551901191784,"click_time":1551901192311,"finger_time":1551901192092,"fix_duration":1109.959983933592,"trial":59,"RT":308,"MT":219,"sideResp":2,"stimulus":[],"xmouse":[803,803,803,803,803,803,803,803,803,803,803,803,803,806,809,836,861,895,912,937,1000,1021,1032,1040,1046,1058,1063],"ymouse":[507,507,507,507,507,507,507,507,507,507,507,507,507,499,488,424,367,292,265,238,185,157,133,111,89,51,43],"timestamp_mouse":[12,36,47,67,88,107,127,147,167,187,207,229,247,268,288,308,327,347,367,388,408,427,447,467,488,509,527],"xSR":741.5,"ySR":449.15000000000003,"xT1":424.9,"yT1":0,"xT2":1058.1,"yT2":0,"toosoon":0,"cond_shown":"Congruent","ratio_trial":200,"L_num":13,"L_den":26,"R_num":14,"R_den":20,"correct_side":2,"subjID":"saramontenegro24","gender":"1","school":"cafam","age":"11"},{"start_time":1551901193464,"click_time":1551901193831,"finger_time":1551901193752,"fix_duration":250,"trial":60,"RT":288,"MT":79,"sideResp":2,"stimulus":[],"xmouse":[786,786,786,786,786,786,786,786,785,785,785,785,785,792,808,848,965,1027,1081],"ymouse":[508,508,508,508,508,508,508,508,506,503,501,494,493,474,437,373,210,115,22],"timestamp_mouse":[17,28,47,67,88,108,129,147,168,187,207,228,248,268,288,307,328,347,367],"xSR":741.5,"ySR":449.15000000000003,"xT1":424.9,"yT1":0,"xT2":1058.1,"yT2":0,"toosoon":0,"cond_shown":"Incongruent","ratio_trial":300,"L_num":4,"L_den":5,"R_num":6,"R_den":12,"correct_side":1,"subjID":"saramontenegro24","gender":"1","school":"cafam","age":"11"},{"start_time":1551901195155,"click_time":1551901195512,"finger_time":1551901195312,"fix_duration":341.8834190749983,"trial":61,"RT":157,"MT":200,"sideResp":1,"stimulus":[],"xmouse":[797,797,797,797,797,793,767,742,732,727,724,713,705,691,667,627,585,514],"ymouse":[490,490,490,490,490,487,457,429,419,415,411,396,384,361,319,249,182,85],"timestamp_mouse":[16,37,57,77,97,116,137,157,177,196,216,237,256,277,298,317,336,357],"xSR":741.5,"ySR":449.15000000000003,"xT1":424.9,"yT1":0,"xT2":1058.1,"yT2":0,"toosoon":0,"cond_shown":"Congruent","ratio_trial":300,"L_num":3,"L_den":6,"R_num":4,"R_den":5,"correct_side":2,"subjID":"saramontenegro24","gender":"1","school":"cafam","age":"11"},{"start_time":1551901196963,"click_time":1551901197451,"finger_time":1551901197272,"fix_duration":669.298841148267,"trial":62,"RT":309,"MT":179,"sideResp":2,"stimulus":[],"xmouse":[803,803,803,803,803,803,803,803,803,803,803,803,803,809,820,852,934,965,989,995,1003,1034,1046,1053,1059],"ymouse":[499,499,499,499,499,499,499,499,499,499,499,499,499,489,463,388,235,162,83,58,40,19,12,8,6],"timestamp_mouse":[10,29,49,68,90,108,128,148,169,188,210,229,249,269,288,309,330,348,368,388,408,428,449,469,488],"xSR":741.5,"ySR":449.15000000000003,"xT1":424.9,"yT1":0,"xT2":1058.1,"yT2":0,"toosoon":0,"cond_shown":"Congruent","ratio_trial":300,"L_num":1,"L_den":20,"R_num":7,"R_den":20,"correct_side":2,"subjID":"saramontenegro24","gender":"1","school":"cafam","age":"11"},{"start_time":1551901199213,"click_time":1551901199551,"finger_time":1551901199452,"fix_duration":1021.4983640803347,"trial":63,"RT":239,"MT":99,"sideResp":2,"stimulus":[],"xmouse":[790,790,790,790,790,790,790,790,790,794,799,807,821,856,918,982,1062],"ymouse":[480,480,480,480,480,480,480,480,480,471,453,434,402,325,233,143,32],"timestamp_mouse":[19,38,59,79,98,118,138,158,178,198,219,239,258,280,298,318,338],"xSR":741.5,"ySR":449.15000000000003,"xT1":424.9,"yT1":0,"xT2":1058.1,"yT2":0,"toosoon":0,"cond_shown":"Congruent","ratio_trial":200,"L_num":3,"L_den":10,"R_num":14,"R_den":28,"correct_side":2,"subjID":"saramontenegro24","gender":"1","school":"cafam","age":"11"},{"start_time":1551901200583,"click_time":1551901201232,"finger_time":1551901200892,"fix_duration":250,"trial":64,"RT":309,"MT":340,"sideResp":1,"stimulus":[],"xmouse":[804,804,804,804,804,804,804,804,804,804,804,804,804,797,789,719,654,639,634,628,604,591,585,579,573,563,552,551,551,549,542,533,524],"ymouse":[482,482,482,482,482,482,482,482,482,482,482,482,482,477,467,350,267,248,240,230,189,167,150,137,123,99,73,72,71,70,67,62,59],"timestamp_mouse":[10,36,48,69,88,108,129,148,169,189,208,229,250,268,289,309,328,349,369,388,409,428,448,468,489,509,529,549,568,588,609,628,649],"xSR":741.5,"ySR":449.15000000000003,"xT1":424.9,"yT1":0,"xT2":1058.1,"yT2":0,"toosoon":0,"cond_shown":"Incongruent","ratio_trial":100,"L_num":1,"L_den":2,"R_num":8,"R_den":20,"correct_side":1,"subjID":"saramontenegro24","gender":"1","school":"cafam","age":"11"},{"start_time":1551901202524,"click_time":1551901203093,"finger_time":1551901202892,"fix_duration":430.70017625237523,"trial":65,"RT":368,"MT":201,"sideResp":1,"stimulus":[],"xmouse":[795,795,795,795,795,795,795,795,795,795,795,795,795,795,795,795,794,786,728,673,585,549,524,492,486,482,477,472,451],"ymouse":[528,528,528,528,528,528,528,528,528,528,528,528,528,528,528,528,524,507,375,301,211,179,160,136,132,128,123,116,80],"timestamp_mouse":[9,29,48,67,87,107,127,147,167,187,207,228,247,268,288,307,328,347,368,387,408,428,447,469,488,507,528,547,568],"xSR":741.5,"ySR":449.15000000000003,"xT1":424.9,"yT1":0,"xT2":1058.1,"yT2":0,"toosoon":0,"cond_shown":"Congruent","ratio_trial":100,"L_num":3,"L_den":20,"R_num":4,"R_den":16,"correct_side":2,"subjID":"saramontenegro24","gender":"1","school":"cafam","age":"11"},{"start_time":1551901204916,"click_time":1551901205692,"finger_time":1551901205252,"fix_duration":1001.4020112111718,"trial":66,"RT":336,"MT":440,"sideResp":2,"stimulus":[],"xmouse":[783,783,783,783,783,783,783,783,783,783,783,783,783,783,786,800,826,853,910,959,994,1012,1012,1012,1012,1012,1012,1012,1012,1012,1012,1012,1012,1012,1012,1012,1012,1012,1111],"ymouse":[496,496,496,496,496,496,496,496,496,496,496,496,496,496,488,457,390,306,166,90,41,16,16,16,16,16,16,16,16,16,16,16,16,16,16,16,16,16,6],"timestamp_mouse":[27,39,57,76,96,116,136,156,175,196,217,235,255,275,296,315,336,355,377,395,416,435,456,475,495,516,535,556,577,596,616,635,656,676,696,715,736,756,776],"xSR":741.5,"ySR":449.15000000000003,"xT1":424.9,"yT1":0,"xT2":1058.1,"yT2":0,"toosoon":0,"cond_shown":"Incongruent","ratio_trial":100,"L_num":8,"L_den":16,"R_num":6,"R_den":10,"correct_side":2,"subjID":"saramontenegro24","gender":"1","school":"cafam","age":"11"},{"start_time":1551901207882,"click_time":1551901208311,"finger_time":1551901208192,"fix_duration":589.5303245495775,"trial":67,"RT":310,"MT":119,"sideResp":1,"stimulus":[],"xmouse":[834,834,834,834,834,834,834,834,834,834,834,830,829,825,816,781,747,701,644,587,544,506],"ymouse":[507,507,507,507,507,507,507,507,507,507,507,504,504,499,487,424,368,283,197,122,76,31],"timestamp_mouse":[9,41,50,70,90,111,129,149,171,189,209,229,250,269,289,310,329,350,371,390,409,429],"xSR":741.5,"ySR":449.15000000000003,"xT1":424.9,"yT1":0,"xT2":1058.1,"yT2":0,"toosoon":0,"cond_shown":"Incongruent","ratio_trial":100,"L_num":13,"L_den":26,"R_num":6,"R_den":10,"correct_side":2,"subjID":"saramontenegro24","gender":"1","school":"cafam","age":"11"},{"start_time":1551901222320,"click_time":1551901223411,"finger_time":1551901222751,"fix_duration":466.62466757540324,"trial":68,"RT":431,"MT":660,"sideResp":1,"stimulus":[],"xmouse":[783,783,783,783,783,783,783,783,783,783,783,783,783,783,783,783,783,783,783,783,777,725,626,410,410,410,410,410,410,410,410,410,410,410,410,410,410,410,410,410,410,410,410,410,410,410,410,410,408,424,424,424,424,424,437],"ymouse":[462,463,463,463,463,463,463,463,463,463,463,463,463,463,463,463,463,463,463,463,455,372,231,15,15,15,15,15,15,15,15,15,15,15,15,15,15,15,15,15,15,15,15,15,15,15,15,15,6,40,40,40,40,40,53],"timestamp_mouse":[14,32,51,72,92,113,131,151,171,191,213,232,252,273,292,313,332,352,373,392,412,431,452,472,492,512,533,552,572,592,611,631,651,672,692,712,732,751,772,791,811,832,852,872,892,911,931,952,972,991,1012,1031,1052,1071,1091],"xSR":741.5,"ySR":449.15000000000003,"xT1":424.9,"yT1":0,"xT2":1058.1,"yT2":0,"toosoon":0,"cond_shown":"Incongruent","ratio_trial":100,"L_num":9,"L_den":10,"R_num":20,"R_den":25,"correct_side":1,"subjID":"saramontenegro24","gender":"1","school":"cafam","age":"11"},{"start_time":1551901225582,"click_time":1551901226132,"finger_time":1551901225873,"fix_duration":568.081313823845,"trial":69,"RT":291,"MT":259,"sideResp":2,"stimulus":[],"xmouse":[802,802,802,802,802,802,802,802,801,801,801,801,802,809,820,871,900,933,946,957,974,977,978,981,985,1005,1027,1069],"ymouse":[483,483,483,483,483,483,483,483,483,478,477,471,464,452,430,274,187,107,90,81,67,63,60,56,52,41,32,12],"timestamp_mouse":[9,29,50,71,90,109,129,151,170,190,210,230,249,269,291,310,329,349,370,389,410,431,450,471,491,511,529,550],"xSR":741.5,"ySR":449.15000000000003,"xT1":424.9,"yT1":0,"xT2":1058.1,"yT2":0,"toosoon":0,"cond_shown":"Congruent","ratio_trial":100,"L_num":8,"L_den":16,"R_num":2,"R_den":5,"correct_side":1,"subjID":"saramontenegro24","gender":"1","school":"cafam","age":"11"},{"start_time":1551901227815,"click_time":1551901228711,"finger_time":1551901228292,"fix_duration":721.4601033682908,"trial":70,"RT":477,"MT":419,"sideResp":1,"stimulus":[],"xmouse":[777,777,777,777,777,777,777,777,777,777,777,775,771,769,767,767,767,767,767,767,767,767,766,759,750,730,704,665,553,492,430,405,396,396,396,396,396,395,395,395,395,395,395,411,441],"ymouse":[471,471,471,471,471,471,471,471,471,471,471,467,463,459,456,456,456,456,456,456,456,456,453,444,428,397,364,320,216,163,114,96,90,90,90,90,90,89,60,49,48,47,47,47,50],"timestamp_mouse":[17,38,58,77,96,117,137,158,177,196,217,237,257,277,297,317,337,357,378,396,417,437,458,477,496,516,537,556,578,596,616,638,657,677,697,716,737,757,777,797,816,837,856,878,896],"xSR":741.5,"ySR":449.15000000000003,"xT1":424.9,"yT1":0,"xT2":1058.1,"yT2":0,"toosoon":0,"cond_shown":"Congruent","ratio_trial":300,"L_num":7,"L_den":14,"R_num":20,"R_den":25,"correct_side":2,"subjID":"saramontenegro24","gender":"1","school":"cafam","age":"11"},{"start_time":1551901230133,"click_time":1551901230712,"finger_time":1551901230433,"fix_duration":438.6125772985,"trial":71,"RT":300,"MT":279,"sideResp":2,"stimulus":[],"xmouse":[803,803,803,803,803,803,803,803,803,803,803,803,803,803,810,833,874,917,994,1013,1022,1026,1030,1044,1048,1050,1050,1050,1058,1115],"ymouse":[515,515,515,515,515,515,515,515,515,515,515,515,515,515,493,445,369,282,163,135,117,112,106,89,79,75,75,74,70,34],"timestamp_mouse":[1,19,40,59,79,99,119,139,159,179,200,219,239,258,279,300,319,338,360,378,399,419,439,459,479,498,519,540,559,578],"xSR":741.5,"ySR":449.15000000000003,"xT1":424.9,"yT1":0,"xT2":1058.1,"yT2":0,"toosoon":0,"cond_shown":"Incongruent","ratio_trial":200,"L_num":3,"L_den":4,"R_num":11,"R_den":20,"correct_side":1,"subjID":"saramontenegro24","gender":"1","school":"cafam","age":"11"},{"start_time":1551901238434,"click_time":1551901238893,"finger_time":1551901238792,"fix_duration":1420.0438916797068,"trial":72,"RT":358,"MT":101,"sideResp":1,"stimulus":[],"xmouse":[788,788,788,788,788,788,788,785,783,781,780,780,780,780,778,771,761,716,676,609,538,485,448],"ymouse":[525,525,525,525,525,525,525,522,520,519,518,518,518,518,516,509,492,434,374,274,181,110,57],"timestamp_mouse":[19,37,58,77,99,119,138,158,178,197,218,239,257,278,298,318,338,358,377,397,417,437,459],"xSR":741.5,"ySR":449.15000000000003,"xT1":424.9,"yT1":0,"xT2":1058.1,"yT2":0,"toosoon":0,"cond_shown":"Incongruent","ratio_trial":100,"L_num":10,"L_den":25,"R_num":8,"R_den":16,"correct_side":2,"subjID":"saramontenegro24","gender":"1","school":"cafam","age":"11"},{"start_time":1551901241405,"click_time":1551901241911,"finger_time":1551901241712,"fix_duration":1312.05146601438,"trial":73,"RT":307,"MT":199,"sideResp":2,"stimulus":[],"xmouse":[808,808,808,808,808,808,808,808,808,808,808,808,808,808,808,816,836,857,872,915,939,977,1013,1046,1081,1092],"ymouse":[482,482,482,482,482,482,482,482,482,482,482,482,482,482,478,421,360,321,288,233,217,202,182,161,128,96],"timestamp_mouse":[10,26,46,67,88,108,127,147,167,186,206,228,246,266,287,307,327,347,366,387,406,427,447,467,488,506],"xSR":741.5,"ySR":449.15000000000003,"xT1":424.9,"yT1":0,"xT2":1058.1,"yT2":0,"toosoon":0,"cond_shown":"Congruent","ratio_trial":100,"L_num":11,"L_den":22,"R_num":4,"R_den":10,"correct_side":1,"subjID":"saramontenegro24","gender":"1","school":"cafam","age":"11"},{"start_time":1551901243564,"click_time":1551901245353,"finger_time":1551901243912,"fix_duration":790.4916410618686,"trial":74,"RT":348,"MT":1441,"sideResp":1,"stimulus":[],"xmouse":[806,806,806,806,806,804,802,800,800,799,798,797,797,797,795,794,782,772,747,710,683,651,639,628,621,614,593,579,577,577,577,577,577,577,577,573,563,552,546,540,535,532,531,531,531,531,531,531,531,534,551,618,663,690,701,704,708,713,718,724,728,737,741,744,753,765,791,794,796,796,798,808,811,812,813,813,813,813,813,812,800,740,692,641,599,572,542,528,525,520],"ymouse":[484,484,484,484,484,482,478,477,476,474,473,472,472,472,469,467,450,434,395,333,288,235,218,205,195,186,156,138,135,135,135,134,128,116,105,96,82,71,66,61,58,56,56,56,56,56,56,56,56,62,77,139,176,196,205,207,214,223,231,241,248,263,267,274,287,305,335,339,340,341,343,356,361,363,364,364,364,364,364,361,342,259,200,144,113,98,85,79,77,73],"timestamp_mouse":[12,39,48,68,88,107,128,148,168,188,207,228,248,268,288,309,328,348,367,387,409,428,447,467,489,508,529,547,567,587,607,628,647,667,687,707,729,747,768,789,808,829,849,868,888,908,928,949,968,988,1008,1028,1048,1068,1088,1109,1129,1147,1168,1187,1208,1228,1247,1268,1288,1308,1328,1347,1367,1387,1408,1428,1448,1467,1487,1508,1528,1548,1567,1587,1608,1628,1647,1668,1688,1709,1729,1748,1768,1789],"xSR":741.5,"ySR":449.15000000000003,"xT1":424.9,"yT1":0,"xT2":1058.1,"yT2":0,"toosoon":0,"cond_shown":"Congruent","ratio_trial":200,"L_num":6,"L_den":20,"R_num":11,"R_den":22,"correct_side":2,"subjID":"saramontenegro24","gender":"1","school":"cafam","age":"11"},{"start_time":1551901246905,"click_time":1551901247572,"finger_time":1551901247271,"fix_duration":791.1709905700246,"trial":75,"RT":366,"MT":301,"sideResp":1,"stimulus":[],"xmouse":[778,778,778,778,778,778,778,778,778,778,778,778,778,778,778,778,783,785,791,792,787,775,760,740,686,649,604,563,547,543,541,538,528,515],"ymouse":[491,491,491,491,491,491,491,491,491,491,491,491,491,491,491,491,475,464,435,363,318,291,258,224,142,93,45,16,9,8,7,7,7,7],"timestamp_mouse":[15,32,47,66,86,107,127,147,167,186,208,226,246,267,288,306,328,347,366,388,406,427,448,468,487,507,526,547,567,587,607,627,646,667],"xSR":741.5,"ySR":449.15000000000003,"xT1":424.9,"yT1":0,"xT2":1058.1,"yT2":0,"toosoon":0,"cond_shown":"Incongruent","ratio_trial":200,"L_num":7,"L_den":10,"R_num":14,"R_den":28,"correct_side":1,"subjID":"saramontenegro24","gender":"1","school":"cafam","age":"11"},{"start_time":1551901249687,"click_time":1551901250253,"finger_time":1551901250052,"fix_duration":1354.4567051180245,"trial":76,"RT":365,"MT":201,"sideResp":1,"stimulus":[],"xmouse":[798,798,798,798,798,798,798,798,798,798,798,798,798,798,798,798,798,785,759,730,694,646,637,628,616,588,561,532,515],"ymouse":[487,487,487,487,487,487,487,487,487,487,487,487,487,487,487,487,487,458,406,358,301,239,229,218,205,172,141,106,81],"timestamp_mouse":[9,34,45,65,85,104,126,145,165,184,204,226,245,265,284,305,324,345,365,384,405,424,445,465,485,505,524,545,566],"xSR":741.5,"ySR":449.15000000000003,"xT1":424.9,"yT1":0,"xT2":1058.1,"yT2":0,"toosoon":0,"cond_shown":"Congruent","ratio_trial":100,"L_num":6,"L_den":12,"R_num":15,"R_den":25,"correct_side":2,"subjID":"saramontenegro24","gender":"1","school":"cafam","age":"11"},{"start_time":1551901251224,"click_time":1551901251772,"finger_time":1551901251532,"fix_duration":250,"trial":77,"RT":308,"MT":240,"sideResp":2,"stimulus":[],"xmouse":[768,768,768,768,768,768,768,768,768,768,768,768,768,768,790,813,839,859,900,923,945,963,980,1004,1018,1039,1056,1068],"ymouse":[491,491,491,491,491,491,491,491,491,491,491,491,491,491,467,436,394,345,258,218,187,160,138,103,93,79,65,54],"timestamp_mouse":[10,29,48,67,88,107,127,149,167,188,207,228,247,268,288,308,328,348,369,387,408,428,448,468,487,507,528,548],"xSR":741.5,"ySR":449.15000000000003,"xT1":424.9,"yT1":0,"xT2":1058.1,"yT2":0,"toosoon":0,"cond_shown":"Incongruent","ratio_trial":200,"L_num":7,"L_den":15,"R_num":4,"R_den":6,"correct_side":2,"subjID":"saramontenegro24","gender":"1","school":"cafam","age":"11"},{"start_time":1551901252703,"click_time":1551901253632,"finger_time":1551901253291,"fix_duration":311.36261761007376,"trial":78,"RT":588,"MT":341,"sideResp":1,"stimulus":[],"xmouse":[802,802,802,802,802,802,802,802,802,802,802,802,802,802,802,802,802,802,802,802,802,802,802,802,802,802,802,801,793,746,722,709,699,690,654,627,608,596,584,561,541,537,536,536,534,530,521],"ymouse":[492,492,492,492,492,492,492,492,492,492,492,492,492,492,492,492,492,492,492,492,492,492,492,492,492,492,492,491,474,387,345,321,304,285,217,183,163,150,142,125,106,101,99,98,93,87,72],"timestamp_mouse":[11,34,50,69,88,109,129,149,169,189,209,230,250,269,289,309,329,348,370,389,409,428,448,469,489,508,528,549,569,588,608,629,649,670,689,708,729,750,770,790,809,829,849,868,889,908,928],"xSR":741.5,"ySR":449.15000000000003,"xT1":424.9,"yT1":0,"xT2":1058.1,"yT2":0,"toosoon":0,"cond_shown":"Congruent","ratio_trial":200,"L_num":3,"L_den":10,"R_num":7,"R_den":14,"correct_side":2,"subjID":"saramontenegro24","gender":"1","school":"cafam","age":"11"},{"start_time":1551901254827,"click_time":1551901255293,"finger_time":1551901255151,"fix_duration":473.41476485295277,"trial":79,"RT":324,"MT":142,"sideResp":2,"stimulus":[],"xmouse":[806,806,806,806,806,806,806,806,806,806,806,806,806,806,806,814,843,874,919,998,1019,1032,1047,1077],"ymouse":[500,500,500,500,500,500,500,500,500,500,500,500,500,500,500,492,443,385,323,210,180,161,141,94],"timestamp_mouse":[8,25,45,65,85,104,124,144,165,185,204,225,246,265,284,305,324,344,365,385,405,425,445,466],"xSR":741.5,"ySR":449.15000000000003,"xT1":424.9,"yT1":0,"xT2":1058.1,"yT2":0,"toosoon":0,"cond_shown":"Congruent","ratio_trial":200,"L_num":3,"L_den":10,"R_num":7,"R_den":14,"correct_side":2,"subjID":"saramontenegro24","gender":"1","school":"cafam","age":"11"},{"start_time":1551901277761,"click_time":1551901278493,"finger_time":1551901278092,"fix_duration":468.9560585122149,"trial":80,"RT":331,"MT":401,"sideResp":2,"stimulus":[],"xmouse":[810,810,810,810,810,810,810,810,810,810,810,810,810,810,810,823,866,900,932,944,954,962,970,971,972,975,983,984,984,984,984,985,989,998,1014,1037,1109],"ymouse":[518,518,518,518,518,518,518,518,518,518,518,518,518,518,518,488,425,385,340,319,298,275,234,215,199,183,145,131,130,130,130,128,126,122,112,100,59],"timestamp_mouse":[20,42,50,70,90,110,130,152,170,191,212,231,251,270,291,312,331,350,371,390,411,431,451,471,490,511,532,551,571,591,610,631,650,671,692,710,731],"xSR":741.5,"ySR":449.15000000000003,"xT1":424.9,"yT1":0,"xT2":1058.1,"yT2":0,"toosoon":0,"cond_shown":"Congruent","ratio_trial":100,"L_num":7,"L_den":14,"R_num":15,"R_den":25,"correct_side":2,"subjID":"saramontenegro24","gender":"1","school":"cafam","age":"11"},{"start_time":1551901279769,"click_time":1551901280152,"finger_time":1551901280052,"fix_duration":356.2679571541764,"trial":81,"RT":283,"MT":100,"sideResp":2,"stimulus":[],"xmouse":[784,784,784,784,784,784,784,784,784,784,784,784,791,813,842,883,927,1011,1060,1079],"ymouse":[492,492,492,492,492,492,492,492,492,492,492,492,485,461,424,373,313,190,108,67],"timestamp_mouse":[6,35,43,63,84,102,122,142,163,182,202,222,242,263,283,304,323,343,363,383],"xSR":741.5,"ySR":449.15000000000003,"xT1":424.9,"yT1":0,"xT2":1058.1,"yT2":0,"toosoon":0,"cond_shown":"Incongruent","ratio_trial":100,"L_num":9,"L_den":15,"R_num":13,"R_den":26,"correct_side":1,"subjID":"saramontenegro24","gender":"1","school":"cafam","age":"11"},{"start_time":1551901281443,"click_time":1551901281793,"finger_time":1551901281691,"fix_duration":250,"trial":82,"RT":248,"MT":102,"sideResp":1,"stimulus":[],"xmouse":[795,795,795,795,795,795,795,795,795,793,791,787,768,756,745,714,643,473],"ymouse":[506,506,506,506,506,506,506,506,506,498,481,452,365,333,314,278,207,78],"timestamp_mouse":[9,28,49,69,89,108,128,149,169,188,208,230,248,268,289,309,329,350],"xSR":741.5,"ySR":449.15000000000003,"xT1":424.9,"yT1":0,"xT2":1058.1,"yT2":0,"toosoon":0,"cond_shown":"Incongruent","ratio_trial":300,"L_num":4,"L_den":20,"R_num":2,"R_den":4,"correct_side":2,"subjID":"saramontenegro24","gender":"1","school":"cafam","age":"11"},{"start_time":1551901282863,"click_time":1551901283311,"finger_time":1551901283152,"fix_duration":250,"trial":83,"RT":289,"MT":159,"sideResp":2,"stimulus":[],"xmouse":[780,782,787,789,790,790,790,790,790,790,790,790,793,804,824,858,932,965,995,1020,1041,1055,1088],"ymouse":[503,497,486,482,481,479,479,479,479,479,479,479,478,458,416,353,225,166,120,86,61,42,17],"timestamp_mouse":[17,42,48,68,88,108,130,148,169,190,209,229,249,269,289,308,329,349,369,389,408,429,448],"xSR":741.5,"ySR":449.15000000000003,"xT1":424.9,"yT1":0,"xT2":1058.1,"yT2":0,"toosoon":0,"cond_shown":"Congruent","ratio_trial":300,"L_num":1,"L_den":30,"R_num":8,"R_den":24,"correct_side":2,"subjID":"saramontenegro24","gender":"1","school":"cafam","age":"11"},{"start_time":1551901286382,"click_time":1551901286771,"finger_time":1551901286572,"fix_duration":929.1110284078828,"trial":84,"RT":190,"MT":199,"sideResp":2,"stimulus":[],"xmouse":[789,789,789,789,789,789,793,810,820,832,862,881,908,927,944,1007,1047,1071,1077,1081],"ymouse":[501,501,501,501,501,501,493,473,460,447,414,395,369,348,324,233,173,127,104,89],"timestamp_mouse":[13,37,50,70,89,109,129,150,170,190,210,229,249,271,289,311,329,350,370,389],"xSR":741.5,"ySR":449.15000000000003,"xT1":424.9,"yT1":0,"xT2":1058.1,"yT2":0,"toosoon":0,"cond_shown":"Congruent","ratio_trial":200,"L_num":3,"L_den":10,"R_num":11,"R_den":22,"correct_side":2,"subjID":"saramontenegro24","gender":"1","school":"cafam","age":"11"},{"start_time":1551901288537,"click_time":1551901289072,"finger_time":1551901288651,"fix_duration":863.840276505458,"trial":85,"RT":114,"MT":421,"sideResp":2,"stimulus":[],"xmouse":[795,795,806,816,832,847,864,875,877,877,878,880,893,902,915,926,942,979,988,994,1001,1005,1019,1032,1043,1054,1062],"ymouse":[503,503,494,483,465,449,432,417,412,412,411,406,382,360,322,281,232,130,100,78,64,55,37,23,14,7,3],"timestamp_mouse":[16,35,55,74,95,114,134,155,174,194,215,234,255,275,294,314,336,355,374,394,415,434,454,475,496,515,535],"xSR":741.5,"ySR":449.15000000000003,"xT1":424.9,"yT1":0,"xT2":1058.1,"yT2":0,"toosoon":0,"cond_shown":"Incongruent","ratio_trial":100,"L_num":2,"L_den":4,"R_num":6,"R_den":15,"correct_side":1,"subjID":"saramontenegro24","gender":"1","school":"cafam","age":"11"},{"start_time":1551901290243,"click_time":1551901290893,"finger_time":1551901290532,"fix_duration":250,"trial":86,"RT":289,"MT":361,"sideResp":2,"stimulus":[],"xmouse":[788,788,788,788,788,788,788,788,788,788,788,789,798,822,888,934,960,980,986,991,995,998,1004,1011,1013,1015,1016,1020,1020,1023,1031,1044,1069],"ymouse":[495,495,495,495,495,495,495,495,495,495,495,495,483,450,357,290,240,178,158,139,123,115,103,89,85,81,79,70,70,67,59,47,26],"timestamp_mouse":[10,28,49,69,89,108,130,150,169,189,209,230,249,268,289,308,329,349,369,389,410,430,449,468,488,508,529,549,568,588,608,629,650],"xSR":741.5,"ySR":449.15000000000003,"xT1":424.9,"yT1":0,"xT2":1058.1,"yT2":0,"toosoon":0,"cond_shown":"Incongruent","ratio_trial":300,"L_num":1,"L_den":2,"R_num":2,"R_den":10,"correct_side":1,"subjID":"saramontenegro24","gender":"1","school":"cafam","age":"11"},{"start_time":1551901292757,"click_time":1551901293332,"finger_time":1551901293072,"fix_duration":1004.1965538370982,"trial":87,"RT":315,"MT":260,"sideResp":1,"stimulus":[],"xmouse":[787,787,787,787,787,787,787,787,787,787,787,787,787,786,777,755,688,627,596,585,578,574,568,567,564,560,541,527,506],"ymouse":[486,486,486,486,486,486,486,486,486,486,486,486,486,483,468,426,311,224,175,152,135,125,113,109,106,102,93,90,84],"timestamp_mouse":[15,42,55,76,95,115,134,155,176,195,215,234,254,274,295,315,334,355,374,395,414,435,454,475,494,514,536,554,575],"xSR":741.5,"ySR":449.15000000000003,"xT1":424.9,"yT1":0,"xT2":1058.1,"yT2":0,"toosoon":0,"cond_shown":"Congruent","ratio_trial":300,"L_num":12,"L_den":24,"R_num":2,"R_den":10,"correct_side":1,"subjID":"saramontenegro24","gender":"1","school":"cafam","age":"11"},{"start_time":1551901294685,"click_time":1551901295052,"finger_time":1551901294973,"fix_duration":531.6477790638478,"trial":88,"RT":288,"MT":79,"sideResp":1,"stimulus":[],"xmouse":[811,811,811,811,811,811,811,811,811,811,811,811,811,805,770,673,610,556,515],"ymouse":[492,492,492,492,492,492,492,492,492,492,492,492,492,456,378,192,108,48,10],"timestamp_mouse":[9,35,47,66,87,107,127,147,168,187,206,228,247,267,288,308,326,346,367],"xSR":741.5,"ySR":449.15000000000003,"xT1":424.9,"yT1":0,"xT2":1058.1,"yT2":0,"toosoon":0,"cond_shown":"Congruent","ratio_trial":100,"L_num":7,"L_den":14,"R_num":15,"R_den":25,"correct_side":2,"subjID":"saramontenegro24","gender":"1","school":"cafam","age":"11"},{"start_time":1551901296900,"click_time":1551901297632,"finger_time":1551901297231,"fix_duration":1046.9336384793796,"trial":89,"RT":331,"MT":401,"sideResp":2,"stimulus":[],"xmouse":[809,809,810,810,810,810,810,810,810,810,810,810,810,810,812,841,881,915,935,976,996,996,996,996,996,996,996,996,996,996,996,996,996,996,996,996,1088],"ymouse":[487,487,487,487,487,487,487,487,487,487,487,487,487,487,485,452,401,342,282,100,22,22,22,22,22,22,22,22,22,22,22,22,22,22,22,22,3],"timestamp_mouse":[29,31,52,72,91,112,131,152,171,192,211,231,251,272,291,312,331,352,371,392,412,431,451,471,492,513,532,551,572,591,611,631,651,673,692,713,732],"xSR":741.5,"ySR":449.15000000000003,"xT1":424.9,"yT1":0,"xT2":1058.1,"yT2":0,"toosoon":0,"cond_shown":"Congruent","ratio_trial":100,"L_num":11,"L_den":22,"R_num":6,"R_den":15,"correct_side":1,"subjID":"saramontenegro24","gender":"1","school":"cafam","age":"11"},{"start_time":1551901298963,"click_time":1551901299593,"finger_time":1551901299093,"fix_duration":310.9425657895831,"trial":90,"RT":130,"MT":500,"sideResp":2,"stimulus":[],"xmouse":[806,806,806,806,806,806,817,821,826,830,832,836,836,839,842,850,867,890,912,944,981,1036,1047,1049,1049,1049,1049,1049,1049,1049,1049,1082],"ymouse":[491,491,491,491,490,488,445,437,413,400,389,377,374,366,357,341,299,260,218,164,112,35,12,5,5,5,5,5,5,5,5,24],"timestamp_mouse":[12,39,48,69,88,109,130,148,168,189,208,229,248,268,289,308,329,348,369,389,409,429,449,469,489,508,528,548,568,590,609,630],"xSR":741.5,"ySR":449.15000000000003,"xT1":424.9,"yT1":0,"xT2":1058.1,"yT2":0,"toosoon":0,"cond_shown":"Congruent","ratio_trial":300,"L_num":11,"L_den":22,"R_num":2,"R_den":10,"correct_side":1,"subjID":"saramontenegro24","gender":"1","school":"cafam","age":"11"},{"start_time":1551901300843,"click_time":1551901301631,"finger_time":1551901301171,"fix_duration":250,"trial":91,"RT":328,"MT":460,"sideResp":1,"stimulus":[],"xmouse":[787,787,787,787,787,787,787,787,787,787,787,787,787,787,787,777,753,723,676,673,673,672,658,631,602,577,563,557,554,551,544,531,531,531,531,531,531,531,531,474],"ymouse":[501,501,501,501,501,501,501,501,501,501,501,501,501,501,499,466,397,332,270,268,268,266,244,197,147,104,78,66,60,50,35,8,8,8,8,8,8,8,8,4],"timestamp_mouse":[9,29,49,69,90,109,129,149,170,188,209,230,248,268,289,309,328,349,369,389,408,428,449,468,489,508,528,549,568,589,610,630,649,669,689,710,729,748,768,788],"xSR":741.5,"ySR":449.15000000000003,"xT1":424.9,"yT1":0,"xT2":1058.1,"yT2":0,"toosoon":0,"cond_shown":"Congruent","ratio_trial":300,"L_num":5,"L_den":25,"R_num":6,"R_den":12,"correct_side":2,"subjID":"saramontenegro24","gender":"1","school":"cafam","age":"11"},{"start_time":1551901303881,"click_time":1551901304272,"finger_time":1551901304191,"fix_duration":1487.2646580713135,"trial":92,"RT":310,"MT":81,"sideResp":1,"stimulus":[],"xmouse":[812,812,812,812,812,812,812,812,812,812,812,812,812,812,812,767,705,620,531,440],"ymouse":[474,474,474,474,474,474,474,474,474,474,474,474,474,473,470,381,292,185,88,3],"timestamp_mouse":[14,38,51,71,90,110,132,151,170,191,210,232,251,270,291,310,330,350,371,391],"xSR":741.5,"ySR":449.15000000000003,"xT1":424.9,"yT1":0,"xT2":1058.1,"yT2":0,"toosoon":0,"cond_shown":"Incongruent","ratio_trial":100,"L_num":10,"L_den":25,"R_num":8,"R_den":16,"correct_side":2,"subjID":"saramontenegro24","gender":"1","school":"cafam","age":"11"},{"start_time":1551901306487,"click_time":1551901307292,"finger_time":1551901306913,"fix_duration":534.2916774914557,"trial":93,"RT":426,"MT":379,"sideResp":2,"stimulus":[],"xmouse":[818,818,818,818,818,818,818,818,818,818,818,818,818,818,818,818,818,818,818,818,821,848,891,946,996,1072,1108,1139,1162,1182,1192,1208,1219,1219,1219,1219,1208,1193,1173,1146,1111],"ymouse":[487,487,487,487,487,487,487,487,487,487,487,487,487,487,487,487,487,487,487,486,480,440,384,319,272,214,194,178,170,162,157,147,141,141,141,141,141,135,126,113,88],"timestamp_mouse":[12,33,45,65,86,105,124,144,166,184,205,224,244,266,284,304,324,346,364,384,404,426,445,465,485,505,524,544,565,584,604,625,644,665,685,706,724,744,765,785,805],"xSR":741.5,"ySR":449.15000000000003,"xT1":424.9,"yT1":0,"xT2":1058.1,"yT2":0,"toosoon":0,"cond_shown":"Congruent","ratio_trial":300,"L_num":3,"L_den":6,"R_num":4,"R_den":5,"correct_side":2,"subjID":"saramontenegro24","gender":"1","school":"cafam","age":"11"},{"start_time":1551901308616,"click_time":1551901309192,"finger_time":1551901308972,"fix_duration":423.3963368994694,"trial":94,"RT":356,"MT":220,"sideResp":2,"stimulus":[],"xmouse":[799,799,799,799,799,799,799,799,799,799,799,799,799,799,799,802,813,828,862,877,892,912,939,971,1036,1064,1078,1085,1093],"ymouse":[501,501,501,501,501,501,501,501,501,501,501,501,501,501,501,483,450,415,347,326,309,290,259,223,160,137,124,114,99],"timestamp_mouse":[17,35,55,76,96,116,135,157,176,195,215,236,257,277,295,315,335,356,377,395,415,437,456,476,497,515,536,556,576],"xSR":741.5,"ySR":449.15000000000003,"xT1":424.9,"yT1":0,"xT2":1058.1,"yT2":0,"toosoon":0,"cond_shown":"Congruent","ratio_trial":200,"L_num":12,"L_den":15,"R_num":6,"R_den":10,"correct_side":1,"subjID":"saramontenegro24","gender":"1","school":"cafam","age":"11"},{"start_time":1551901311207,"click_time":1551901311912,"finger_time":1551901311531,"fix_duration":1213.9845836852014,"trial":95,"RT":324,"MT":381,"sideResp":1,"stimulus":[],"xmouse":[782,782,782,782,782,782,782,782,782,782,782,782,782,782,782,777,766,748,721,694,656,633,608,586,566,536,524,522,522,522,529,535,542,550,545,513],"ymouse":[509,509,509,509,509,509,509,509,509,509,509,509,509,509,509,485,447,389,332,289,245,230,218,209,200,187,181,179,179,179,178,175,171,154,96,50],"timestamp_mouse":[13,27,44,64,84,106,125,145,164,185,204,224,245,266,285,304,324,345,365,385,404,424,446,466,485,505,524,545,564,585,605,625,645,664,684,704],"xSR":741.5,"ySR":449.15000000000003,"xT1":424.9,"yT1":0,"xT2":1058.1,"yT2":0,"toosoon":0,"cond_shown":"Congruent","ratio_trial":100,"L_num":6,"L_den":20,"R_num":5,"R_den":25,"correct_side":1,"subjID":"saramontenegro24","gender":"1","school":"cafam","age":"11"},{"start_time":1551901321103,"click_time":1551901322251,"finger_time":1551901322113,"fix_duration":250,"trial":96,"RT":1010,"MT":138,"sideResp":2,"stimulus":[],"xmouse":[784,784,784,784,782,781,779,778,777,777,777,777,777,777,777,777,777,777,777,777,776,776,776,776,776,776,776,776,776,776,776,776,776,776,776,776,776,776,776,776,776,776,776,774,774,774,774,774,774,774,774,774,774,782,856,929,1010,1094],"ymouse":[461,461,461,461,457,455,453,451,450,450,450,450,450,452,464,466,466,466,466,461,458,458,458,458,458,458,458,458,458,458,458,458,458,458,458,458,458,458,458,458,458,458,458,458,458,458,458,458,455,452,448,443,437,420,300,205,113,39],"timestamp_mouse":[13,34,48,69,88,108,128,149,168,190,209,228,249,268,289,308,330,349,369,388,409,429,449,469,490,509,529,550,568,589,609,629,650,668,689,709,728,748,770,789,808,829,850,869,888,909,930,949,968,989,1010,1029,1049,1069,1090,1108,1128,1148],"xSR":741.5,"ySR":449.15000000000003,"xT1":424.9,"yT1":0,"xT2":1058.1,"yT2":0,"toosoon":0,"cond_shown":"Incongruent","ratio_trial":200,"L_num":14,"L_den":30,"R_num":12,"R_den":18,"correct_side":2,"subjID":"saramontenegro24","gender":"1","school":"cafam","age":"11"},{"start_time":1551901323525,"click_time":1551901324273,"finger_time":1551901323892,"fix_duration":250,"trial":97,"RT":367,"MT":381,"sideResp":2,"stimulus":[],"xmouse":[799,799,799,799,799,799,799,799,799,799,799,799,799,799,799,799,799,802,840,931,1015,1096,1152,1176,1183,1184,1187,1187,1188,1188,1188,1188,1188,1188,1188,1182,1163,1137],"ymouse":[479,479,479,479,479,479,479,479,479,479,479,479,479,479,479,479,479,471,443,375,319,250,181,131,69,49,34,28,26,26,26,26,26,26,26,27,34,46],"timestamp_mouse":[10,31,47,66,87,107,128,146,166,187,208,226,247,267,288,307,326,347,367,386,406,426,446,467,486,506,526,548,567,586,606,626,648,667,687,706,728,748],"xSR":741.5,"ySR":449.15000000000003,"xT1":424.9,"yT1":0,"xT2":1058.1,"yT2":0,"toosoon":0,"cond_shown":"Congruent","ratio_trial":300,"L_num":8,"L_den":15,"R_num":10,"R_den":12,"correct_side":2,"subjID":"saramontenegro24","gender":"1",