[{"start_time":1551883001802,"click_time":1551883003652,"finger_time":1551883003251,"fix_duration":925.9556817315082,"trial":0,"RT":1449,"MT":401,"sideResp":2,"stimulus":[],"xmouse":[782,782,782,782,782,782,782,782,782,782,782,782,782,782,782,782,782,782,782,782,782,782,782,782,782,782,782,782,782,782,782,782,782,782,782,782,782,782,782,782,782,782,782,782,782,782,782,782,782,782,782,782,782,782,782,782,782,782,782,782,782,782,782,782,782,782,782,783,788,795,806,820,852,876,884,909,930,983,1001,1014,1025,1037,1042,1046,1049,1050,1050,1050,1050,1050,1053,1058,1071],"ymouse":[511,511,511,511,511,511,511,511,511,511,511,511,511,511,511,511,511,511,511,511,511,511,511,511,511,511,511,511,511,511,511,511,511,511,511,511,511,511,511,511,511,511,511,511,511,511,511,511,511,511,511,511,511,511,511,511,511,511,511,511,511,511,511,511,511,511,511,511,505,499,490,478,454,429,417,382,354,290,268,252,238,213,199,182,156,147,140,133,131,125,112,101,74],"timestamp_mouse":[9,39,50,70,90,109,129,150,170,190,210,231,251,269,291,309,330,349,369,390,409,430,449,470,491,509,530,550,570,590,609,630,651,669,690,710,729,749,769,789,809,831,849,869,889,911,930,949,971,990,1011,1030,1049,1069,1090,1109,1131,1149,1169,1190,1210,1229,1250,1271,1290,1311,1331,1350,1369,1390,1409,1430,1449,1469,1489,1510,1529,1549,1570,1589,1609,1630,1649,1669,1689,1709,1729,1750,1770,1790,1809,1830,1849],"xSR":741.5,"ySR":469.95,"xT1":424.9,"yT1":0,"xT2":1058.1,"yT2":0,"toosoon":0,"cond_shown":"Incongruent","ratio_trial":100,"L_num":13,"L_den":26,"R_num":6,"R_den":10,"correct_side":2,"subjID":"sarahsofiacastañedamartinez34","gender":"1","age":"11","school":"6","test":{"fix_dur":[250,1500],"timestim":1000,"targets_dim":[100,100],"targets_relative_coord":[0.3,0.7],"size_stim":[880,420],"start_dim":[100,100],"size_start":[300,300],"size_fix":60,"samplingrate":20,"img_types":["Congruent","Incongruent"],"ratios":[100,200,300],"rep_conds":19,"nTrials":120,"trials_to_rest":500,"Trials_order":[31,21,6,104,95,112,84,65,20,114,89,22,29,11,49,41,30,15,70,96,86,32,90,3,98,23,93,102,43,92,87,67,51,38,88,101,119,106,56,103,7,110,52,78,10,42,85,12,17,55,99,83,68,8,79,2,13,74,35,117,66,82,27,111,39,50,75,57,77,61,115,0,44,47,26,34,9,100,118,73,116,40,37,4,53,109,18,60,28,45,24,5,71,91,76,107,105,33,108,81,25,19,94,16,54,46,64,1,72,69,80,113,59,36,14,48,62,63,97,58],"cond_shown":["Incongruent","Incongruent","Congruent","Congruent","Incongruent","Congruent","Congruent","Incongruent","Congruent","Congruent","Incongruent","Congruent","Incongruent","Incongruent","Incongruent","Incongruent","Congruent","Incongruent","Congruent","Congruent","Congruent","Congruent","Congruent","Incongruent","Congruent","Incongruent","Incongruent","Congruent","Incongruent","Congruent","Incongruent","Incongruent","Incongruent","Congruent","Congruent","Incongruent","Incongruent","Congruent","Congruent","Incongruent","Incongruent","Congruent","Congruent","Congruent","Congruent","Congruent","Incongruent","Congruent","Incongruent","Incongruent","Incongruent","Incongruent","Congruent","Congruent","Incongruent","Congruent","Incongruent","Congruent","Incongruent","Incongruent","Congruent","Congruent","Incongruent","Incongruent","Incongruent","Congruent","Incongruent","Incongruent","Incongruent","Incongruent","Incongruent","Congruent","Congruent","Incongruent","Congruent","Congruent","Incongruent","Congruent","Congruent","Incongruent","Congruent","Congruent","Incongruent","Congruent","Incongruent","Incongruent","Congruent","Congruent","Congruent","Incongruent","Congruent","Incongruent","Incongruent","Incongruent","Congruent","Incongruent","Incongruent","Incongruent","Congruent","Incongruent","Incongruent","Incongruent","Congruent","Congruent","Congruent","Congruent","Congruent","Incongruent","Congruent","Incongruent","Congruent","Incongruent","Incongruent","Congruent","Congruent","Congruent","Congruent","Incongruent","Incongruent","Congruent"],"ratio_trial":[100,200,100,200,300,300,100,300,200,100,300,300,300,300,100,300,100,200,300,100,200,200,100,200,200,300,200,100,100,200,200,100,200,200,300,300,300,300,200,100,100,200,300,100,300,100,100,100,300,100,200,300,200,200,100,200,100,200,300,200,100,300,200,200,200,200,200,200,300,100,100,100,200,300,200,300,200,300,300,100,200,300,100,300,300,100,100,100,300,200,100,300,300,100,300,300,200,200,100,200,100,100,300,300,100,300,300,100,100,200,200,300,300,100,200,100,200,200,100,300],"left_num":[13,14,11,6,13,24,1,4,1,12,4,24,4,8,10,1,2,4,12,7,3,12,6,1,3,4,14,11,12,3,11,3,11,3,1,4,3,1,7,1,12,5,5,10,1,1,8,10,1,10,6,4,1,5,3,3,10,3,4,4,15,2,4,14,7,6,14,4,8,9,6,12,6,8,9,1,6,20,11,10,6,3,12,24,1,3,15,15,11,7,4,13,4,3,4,4,4,7,4,4,12,9,20,20,15,24,12,6,8,7,9,4,8,6,12,11,20,14,8,7],"right_num":[6,12,4,7,12,8,18,6,21,13,2,8,2,14,8,3,11,14,2,15,14,6,5,3,7,8,12,4,2,14,3,4,3,9,11,6,4,11,18,8,9,14,6,3,3,3,6,3,2,8,3,2,21,14,11,9,8,9,2,14,13,12,6,6,4,7,12,6,9,20,3,13,7,14,4,6,3,9,1,9,11,4,9,2,3,8,13,13,1,6,15,12,2,11,2,2,14,14,6,6,2,14,5,8,13,8,2,3,2,12,4,2,14,15,6,4,9,12,1,20],"left_den":[26,30,22,12,26,30,2,5,2,30,20,30,20,10,25,2,5,6,24,14,6,20,20,2,10,5,30,22,30,10,20,6,20,12,5,5,6,5,15,2,24,10,25,25,5,2,16,25,2,25,20,20,2,10,5,12,25,12,20,6,25,10,5,30,15,12,30,5,10,10,12,30,12,10,20,5,20,25,22,25,20,6,24,30,2,5,25,25,22,15,10,26,20,5,5,20,6,10,8,5,30,15,25,25,25,30,24,12,16,10,20,20,10,12,20,22,25,30,20,14],"right_den":[10,18,10,10,15,16,30,12,30,26,4,16,4,28,16,15,22,30,10,25,20,15,25,10,14,16,18,10,4,28,4,10,4,20,22,12,20,22,27,20,15,20,12,10,6,5,10,10,10,16,6,4,30,20,22,20,16,20,4,30,26,24,10,9,6,10,18,10,18,25,5,26,10,28,16,12,6,18,5,18,22,5,15,4,15,16,26,26,5,9,30,15,4,22,4,4,30,28,10,10,4,28,10,16,26,16,10,5,5,24,16,4,28,25,15,10,15,18,2,25],"correct_side":[2,2,1,2,2,1,2,1,2,2,2,1,2,1,2,1,2,1,1,2,2,1,1,1,2,1,2,1,2,2,2,1,2,2,2,1,1,2,2,1,2,2,2,1,2,2,2,1,1,2,2,2,2,2,1,2,2,2,2,1,1,2,1,2,2,2,2,1,1,1,2,2,2,1,1,2,2,1,1,2,2,2,2,1,1,1,1,1,1,2,2,2,2,1,1,2,1,1,2,1,2,1,1,1,1,1,1,2,1,1,1,2,1,2,1,1,1,2,2,2],"img_shown":["img2/100/Incongruent/R/I_Dist_100_LN_13_LD_26_RN_6_RD_10_1.png","img2/200/Incongruent/R/I_Dist_200_LN_14_LD_30_RN_12_RD_18_1.png","img2/100/Congruent/L/C_Dist_100_LN_11_LD_22_RN_4_RD_10_0.png","img2/200/Congruent/R/C_Dist_200_LN_6_LD_12_RN_7_RD_10_1.png","img2/300/Incongruent/R/I_Dist_300_LN_13_LD_26_RN_12_RD_15_1.png","img2/300/Congruent/L/C_Dist_300_LN_24_LD_30_RN_8_RD_16_0.png","img2/100/Congruent/R/C_Dist_100_LN_1_LD_2_RN_18_RD_30_1.png","img2/300/Incongruent/L/I_Dist_300_LN_4_LD_5_RN_6_RD_12_0.png","img2/200/Congruent/R/C_Dist_200_LN_1_LD_2_RN_21_RD_30_1.png","img2/100/Congruent/R/C_Dist_100_LN_12_LD_30_RN_13_RD_26_1.png","img2/300/Incongruent/R/I_Dist_300_LN_4_LD_20_RN_2_RD_4_1.png","img2/300/Congruent/L/C_Dist_300_LN_24_LD_30_RN_8_RD_16_0.png","img2/300/Incongruent/R/I_Dist_300_LN_4_LD_20_RN_2_RD_4_1.png","img2/300/Incongruent/L/I_Dist_300_LN_8_LD_10_RN_14_RD_28_0.png","img2/100/Incongruent/R/I_Dist_100_LN_10_LD_25_RN_8_RD_16_1.png","img2/300/Incongruent/L/I_Dist_300_LN_1_LD_2_RN_3_RD_15_0.png","img2/100/Congruent/R/C_Dist_100_LN_2_LD_5_RN_11_RD_22_1.png","img2/200/Incongruent/L/I_Dist_200_LN_4_LD_6_RN_14_RD_30_0.png","img2/300/Congruent/L/C_Dist_300_LN_12_LD_24_RN_2_RD_10_0.png","img2/100/Congruent/R/C_Dist_100_LN_7_LD_14_RN_15_RD_25_1.png","img2/200/Congruent/R/C_Dist_200_LN_3_LD_6_RN_14_RD_20_1.png","img2/200/Congruent/L/C_Dist_200_LN_12_LD_20_RN_6_RD_15_0.png","img2/100/Congruent/L/C_Dist_100_LN_6_LD_20_RN_5_RD_25_0.png","img2/200/Incongruent/L/I_Dist_200_LN_1_LD_2_RN_3_RD_10_0.png","img2/200/Congruent/R/C_Dist_200_LN_3_LD_10_RN_7_RD_14_1.png","img2/300/Incongruent/L/I_Dist_300_LN_4_LD_5_RN_8_RD_16_0.png","img2/200/Incongruent/R/I_Dist_200_LN_14_LD_30_RN_12_RD_18_1.png","img2/100/Congruent/L/C_Dist_100_LN_11_LD_22_RN_4_RD_10_0.png","img2/100/Incongruent/R/I_Dist_100_LN_12_LD_30_RN_2_RD_4_1.png","img2/200/Congruent/R/C_Dist_200_LN_3_LD_10_RN_14_RD_28_1.png","img2/200/Incongruent/R/I_Dist_200_LN_11_LD_20_RN_3_RD_4_1.png","img2/100/Incongruent/L/I_Dist_100_LN_3_LD_6_RN_4_RD_10_0.png","img2/200/Incongruent/R/I_Dist_200_LN_11_LD_20_RN_3_RD_4_1.png","img2/200/Congruent/R/C_Dist_200_LN_3_LD_12_RN_9_RD_20_1.png","img2/300/Congruent/R/C_Dist_300_LN_1_LD_5_RN_11_RD_22_1.png","img2/300/Incongruent/L/I_Dist_300_LN_4_LD_5_RN_6_RD_12_0.png","img2/300/Incongruent/L/I_Dist_300_LN_3_LD_6_RN_4_RD_20_0.png","img2/300/Congruent/R/C_Dist_300_LN_1_LD_5_RN_11_RD_22_1.png","img2/200/Congruent/R/C_Dist_200_LN_7_LD_15_RN_18_RD_27_1.png","img2/100/Incongruent/L/I_Dist_100_LN_1_LD_2_RN_8_RD_20_0.png","img2/100/Incongruent/R/I_Dist_100_LN_12_LD_24_RN_9_RD_15_1.png","img2/200/Congruent/R/C_Dist_200_LN_5_LD_10_RN_14_RD_20_1.png","img2/300/Congruent/R/C_Dist_300_LN_5_LD_25_RN_6_RD_12_1.png","img2/100/Congruent/L/C_Dist_100_LN_10_LD_25_RN_3_RD_10_0.png","img2/300/Congruent/R/C_Dist_300_LN_1_LD_5_RN_3_RD_6_1.png","img2/100/Congruent/R/C_Dist_100_LN_1_LD_2_RN_3_RD_5_1.png","img2/100/Incongruent/R/I_Dist_100_LN_8_LD_16_RN_6_RD_10_1.png","img2/100/Congruent/L/C_Dist_100_LN_10_LD_25_RN_3_RD_10_0.png","img2/300/Incongruent/L/I_Dist_300_LN_1_LD_2_RN_2_RD_10_0.png","img2/100/Incongruent/R/I_Dist_100_LN_10_LD_25_RN_8_RD_16_1.png","img2/200/Incongruent/R/I_Dist_200_LN_6_LD_20_RN_3_RD_6_1.png","img2/300/Incongruent/R/I_Dist_300_LN_4_LD_20_RN_2_RD_4_1.png","img2/200/Congruent/R/C_Dist_200_LN_1_LD_2_RN_21_RD_30_1.png","img2/200/Congruent/R/C_Dist_200_LN_5_LD_10_RN_14_RD_20_1.png","img2/100/Incongruent/L/I_Dist_100_LN_3_LD_5_RN_11_RD_22_0.png","img2/200/Congruent/R/C_Dist_200_LN_3_LD_12_RN_9_RD_20_1.png","img2/100/Incongruent/R/I_Dist_100_LN_10_LD_25_RN_8_RD_16_1.png","img2/200/Congruent/R/C_Dist_200_LN_3_LD_12_RN_9_RD_20_1.png","img2/300/Incongruent/R/I_Dist_300_LN_4_LD_20_RN_2_RD_4_1.png","img2/200/Incongruent/L/I_Dist_200_LN_4_LD_6_RN_14_RD_30_0.png","img2/100/Congruent/L/C_Dist_100_LN_15_LD_25_RN_13_RD_26_0.png","img2/300/Congruent/R/C_Dist_300_LN_2_LD_10_RN_12_RD_24_1.png","img2/200/Incongruent/L/I_Dist_200_LN_4_LD_5_RN_6_RD_10_0.png","img2/200/Incongruent/R/I_Dist_200_LN_14_LD_30_RN_6_RD_9_1.png","img2/200/Incongruent/R/I_Dist_200_LN_7_LD_15_RN_4_RD_6_1.png","img2/200/Congruent/R/C_Dist_200_LN_6_LD_12_RN_7_RD_10_1.png","img2/200/Incongruent/R/I_Dist_200_LN_14_LD_30_RN_12_RD_18_1.png","img2/200/Incongruent/L/I_Dist_200_LN_4_LD_5_RN_6_RD_10_0.png","img2/300/Incongruent/L/I_Dist_300_LN_8_LD_10_RN_9_RD_18_0.png","img2/100/Incongruent/L/I_Dist_100_LN_9_LD_10_RN_20_RD_25_0.png","img2/100/Incongruent/R/I_Dist_100_LN_6_LD_12_RN_3_RD_5_1.png","img2/100/Congruent/R/C_Dist_100_LN_12_LD_30_RN_13_RD_26_1.png","img2/200/Congruent/R/C_Dist_200_LN_6_LD_12_RN_7_RD_10_1.png","img2/300/Incongruent/L/I_Dist_300_LN_8_LD_10_RN_14_RD_28_0.png","img2/200/Congruent/L/C_Dist_200_LN_9_LD_20_RN_4_RD_16_0.png","img2/300/Congruent/R/C_Dist_300_LN_1_LD_5_RN_6_RD_12_1.png","img2/200/Incongruent/R/I_Dist_200_LN_6_LD_20_RN_3_RD_6_1.png","img2/300/Congruent/L/C_Dist_300_LN_20_LD_25_RN_9_RD_18_0.png","img2/300/Congruent/L/C_Dist_300_LN_11_LD_22_RN_1_RD_5_0.png","img2/100/Incongruent/R/I_Dist_100_LN_10_LD_25_RN_9_RD_18_1.png","img2/200/Congruent/R/C_Dist_200_LN_6_LD_20_RN_11_RD_22_1.png","img2/300/Congruent/R/C_Dist_300_LN_3_LD_6_RN_4_RD_5_1.png","img2/100/Incongruent/R/I_Dist_100_LN_12_LD_24_RN_9_RD_15_1.png","img2/300/Congruent/L/C_Dist_300_LN_24_LD_30_RN_2_RD_4_0.png","img2/300/Incongruent/L/I_Dist_300_LN_1_LD_2_RN_3_RD_15_0.png","img2/100/Incongruent/L/I_Dist_100_LN_3_LD_5_RN_8_RD_16_0.png","img2/100/Congruent/L/C_Dist_100_LN_15_LD_25_RN_13_RD_26_0.png","img2/100/Congruent/L/C_Dist_100_LN_15_LD_25_RN_13_RD_26_0.png","img2/300/Congruent/L/C_Dist_300_LN_11_LD_22_RN_1_RD_5_0.png","img2/200/Incongruent/R/I_Dist_200_LN_7_LD_15_RN_6_RD_9_1.png","img2/100/Congruent/R/C_Dist_100_LN_4_LD_10_RN_15_RD_30_1.png","img2/300/Incongruent/R/I_Dist_300_LN_13_LD_26_RN_12_RD_15_1.png","img2/300/Incongruent/R/I_Dist_300_LN_4_LD_20_RN_2_RD_4_1.png","img2/100/Incongruent/L/I_Dist_100_LN_3_LD_5_RN_11_RD_22_0.png","img2/300/Congruent/L/C_Dist_300_LN_4_LD_5_RN_2_RD_4_0.png","img2/300/Incongruent/R/I_Dist_300_LN_4_LD_20_RN_2_RD_4_1.png","img2/200/Incongruent/L/I_Dist_200_LN_4_LD_6_RN_14_RD_30_0.png","img2/200/Incongruent/L/I_Dist_200_LN_7_LD_10_RN_14_RD_28_0.png","img2/100/Congruent/R/C_Dist_100_LN_4_LD_8_RN_6_RD_10_1.png","img2/200/Incongruent/L/I_Dist_200_LN_4_LD_5_RN_6_RD_10_0.png","img2/100/Incongruent/R/I_Dist_100_LN_12_LD_30_RN_2_RD_4_1.png","img2/100/Incongruent/L/I_Dist_100_LN_9_LD_15_RN_14_RD_28_0.png","img2/300/Congruent/L/C_Dist_300_LN_20_LD_25_RN_5_RD_10_0.png","img2/300/Congruent/L/C_Dist_300_LN_20_LD_25_RN_8_RD_16_0.png","img2/100/Congruent/L/C_Dist_100_LN_15_LD_25_RN_13_RD_26_0.png","img2/300/Congruent/L/C_Dist_300_LN_24_LD_30_RN_8_RD_16_0.png","img2/300/Congruent/L/C_Dist_300_LN_12_LD_24_RN_2_RD_10_0.png","img2/100/Incongruent/R/I_Dist_100_LN_6_LD_12_RN_3_RD_5_1.png","img2/100/Congruent/L/C_Dist_100_LN_8_LD_16_RN_2_RD_5_0.png","img2/200/Incongruent/L/I_Dist_200_LN_7_LD_10_RN_12_RD_24_0.png","img2/200/Congruent/L/C_Dist_200_LN_9_LD_20_RN_4_RD_16_0.png","img2/300/Incongruent/R/I_Dist_300_LN_4_LD_20_RN_2_RD_4_1.png","img2/300/Incongruent/L/I_Dist_300_LN_8_LD_10_RN_14_RD_28_0.png","img2/100/Congruent/R/C_Dist_100_LN_6_LD_12_RN_15_RD_25_1.png","img2/200/Congruent/L/C_Dist_200_LN_12_LD_20_RN_6_RD_15_0.png","img2/100/Congruent/L/C_Dist_100_LN_11_LD_22_RN_4_RD_10_0.png","img2/200/Congruent/L/C_Dist_200_LN_20_LD_25_RN_9_RD_15_0.png","img2/200/Incongruent/R/I_Dist_200_LN_14_LD_30_RN_12_RD_18_1.png","img2/100/Incongruent/R/I_Dist_100_LN_8_LD_20_RN_1_RD_2_1.png","img2/300/Congruent/R/C_Dist_300_LN_7_LD_14_RN_20_RD_25_1.png"],"dist100_C":[["C_Dist_100_LN_10_LD_25_RN_3_RD_10_0.png","C_Dist_100_LN_11_LD_22_RN_4_RD_10_0.png","C_Dist_100_LN_11_LD_22_RN_6_RD_15_0.png","C_Dist_100_LN_15_LD_25_RN_13_RD_26_0.png","C_Dist_100_LN_3_LD_6_RN_2_RD_5_0.png","C_Dist_100_LN_6_LD_20_RN_5_RD_25_0.png","C_Dist_100_LN_8_LD_16_RN_2_RD_5_0.png","C_Dist_100_LN_9_LD_15_RN_8_RD_16_0.png"],["C_Dist_100_LN_1_LD_2_RN_18_RD_30_1.png","C_Dist_100_LN_1_LD_2_RN_3_RD_5_1.png","C_Dist_100_LN_12_LD_30_RN_13_RD_26_1.png","C_Dist_100_LN_2_LD_5_RN_11_RD_22_1.png","C_Dist_100_LN_2_LD_5_RN_6_RD_12_1.png","C_Dist_100_LN_3_LD_20_RN_4_RD_16_1.png","C_Dist_100_LN_4_LD_10_RN_15_RD_30_1.png","C_Dist_100_LN_4_LD_8_RN_6_RD_10_1.png","C_Dist_100_LN_6_LD_12_RN_15_RD_25_1.png","C_Dist_100_LN_7_LD_14_RN_15_RD_25_1.png","C_Dist_100_LN_7_LD_14_RN_9_RD_15_1.png"]],"dist100_I":[["I_Dist_100_LN_1_LD_2_RN_8_RD_20_0.png","I_Dist_100_LN_2_LD_4_RN_6_RD_15_0.png","I_Dist_100_LN_2_LD_4_RN_8_RD_20_0.png","I_Dist_100_LN_3_LD_5_RN_11_RD_22_0.png","I_Dist_100_LN_3_LD_5_RN_8_RD_16_0.png","I_Dist_100_LN_3_LD_6_RN_4_RD_10_0.png","I_Dist_100_LN_3_LD_9_RN_7_RD_30_0.png","I_Dist_100_LN_4_LD_8_RN_8_RD_20_0.png","I_Dist_100_LN_6_LD_10_RN_11_RD_22_0.png","I_Dist_100_LN_6_LD_10_RN_13_RD_26_0.png","I_Dist_100_LN_6_LD_10_RN_7_RD_14_0.png","I_Dist_100_LN_9_LD_10_RN_20_RD_25_0.png","I_Dist_100_LN_9_LD_15_RN_13_RD_26_0.png","I_Dist_100_LN_9_LD_15_RN_14_RD_28_0.png"],["I_Dist_100_LN_10_LD_25_RN_8_RD_16_1.png","I_Dist_100_LN_10_LD_25_RN_9_RD_18_1.png","I_Dist_100_LN_11_LD_22_RN_9_RD_15_1.png","I_Dist_100_LN_12_LD_24_RN_9_RD_15_1.png","I_Dist_100_LN_12_LD_30_RN_2_RD_4_1.png","I_Dist_100_LN_13_LD_26_RN_12_RD_20_1.png","I_Dist_100_LN_13_LD_26_RN_6_RD_10_1.png","I_Dist_100_LN_17_LD_30_RN_10_RD_15_1.png","I_Dist_100_LN_6_LD_12_RN_3_RD_5_1.png","I_Dist_100_LN_8_LD_16_RN_6_RD_10_1.png","I_Dist_100_LN_8_LD_20_RN_1_RD_2_1.png","I_Dist_100_LN_9_LD_18_RN_6_RD_10_1.png"]],"dist100_S":[["E_Dist_100_LN_2_LD_12_RN_2_RD_30_0.png","E_Dist_100_LN_6_LD_10_RN_6_RD_12_0.png"],["E_Dist_100_LN_6_LD_12_RN_6_RD_10_1.png"]],"dist200_C":[["C_Dist_200_LN_11_LD_22_RN_3_RD_10_0.png","C_Dist_200_LN_12_LD_15_RN_6_RD_10_0.png","C_Dist_200_LN_12_LD_20_RN_6_RD_15_0.png","C_Dist_200_LN_14_LD_28_RN_6_RD_20_0.png","C_Dist_200_LN_15_LD_25_RN_4_RD_10_0.png","C_Dist_200_LN_16_LD_20_RN_12_RD_20_0.png","C_Dist_200_LN_16_LD_30_RN_9_RD_27_0.png","C_Dist_200_LN_20_LD_25_RN_9_RD_15_0.png","C_Dist_200_LN_21_LD_30_RN_2_RD_4_0.png","C_Dist_200_LN_4_LD_10_RN_3_RD_15_0.png","C_Dist_200_LN_4_LD_8_RN_3_RD_10_0.png","C_Dist_200_LN_6_LD_15_RN_3_RD_15_0.png","C_Dist_200_LN_7_LD_21_RN_2_RD_15_0.png","C_Dist_200_LN_8_LD_15_RN_2_RD_6_0.png","C_Dist_200_LN_8_LD_15_RN_3_RD_9_0.png","C_Dist_200_LN_8_LD_15_RN_7_RD_21_0.png","C_Dist_200_LN_9_LD_20_RN_4_RD_16_0.png"],["C_Dist_200_LN_1_LD_2_RN_21_RD_30_1.png","C_Dist_200_LN_13_LD_26_RN_14_RD_20_1.png","C_Dist_200_LN_3_LD_10_RN_11_RD_22_1.png","C_Dist_200_LN_3_LD_10_RN_14_RD_28_1.png","C_Dist_200_LN_3_LD_10_RN_7_RD_14_1.png","C_Dist_200_LN_3_LD_12_RN_9_RD_20_1.png","C_Dist_200_LN_3_LD_6_RN_14_RD_20_1.png","C_Dist_200_LN_5_LD_10_RN_14_RD_20_1.png","C_Dist_200_LN_6_LD_12_RN_7_RD_10_1.png","C_Dist_200_LN_6_LD_20_RN_11_RD_22_1.png","C_Dist_200_LN_7_LD_15_RN_18_RD_27_1.png","C_Dist_200_LN_9_LD_30_RN_13_RD_26_1.png"]],"dist200_I":[["I_Dist_200_LN_1_LD_2_RN_3_RD_10_0.png","I_Dist_200_LN_1_LD_3_RN_2_RD_15_0.png","I_Dist_200_LN_3_LD_4_RN_11_RD_20_0.png","I_Dist_200_LN_4_LD_5_RN_6_RD_10_0.png","I_Dist_200_LN_4_LD_6_RN_14_RD_30_0.png","I_Dist_200_LN_7_LD_10_RN_12_RD_24_0.png","I_Dist_200_LN_7_LD_10_RN_14_RD_28_0.png","I_Dist_200_LN_7_LD_10_RN_8_RD_16_0.png"],["I_Dist_200_LN_11_LD_20_RN_3_RD_4_1.png","I_Dist_200_LN_14_LD_30_RN_12_RD_18_1.png","I_Dist_200_LN_14_LD_30_RN_6_RD_9_1.png","I_Dist_200_LN_3_LD_10_RN_1_RD_2_1.png","I_Dist_200_LN_4_LD_30_RN_1_RD_3_1.png","I_Dist_200_LN_6_LD_20_RN_3_RD_6_1.png","I_Dist_200_LN_7_LD_15_RN_4_RD_6_1.png","I_Dist_200_LN_7_LD_15_RN_6_RD_9_1.png","I_Dist_200_LN_9_LD_15_RN_8_RD_10_1.png"]],"dist200_S":[["E_Dist_200_LN_3_LD_6_RN_3_RD_10_0.png"],["E_Dist_200_LN_3_LD_10_RN_3_RD_6_1.png"]],"dist300_C":[["C_Dist_300_LN_11_LD_22_RN_1_RD_5_0.png","C_Dist_300_LN_11_LD_22_RN_2_RD_10_0.png","C_Dist_300_LN_11_LD_22_RN_4_RD_20_0.png","C_Dist_300_LN_12_LD_24_RN_2_RD_10_0.png","C_Dist_300_LN_18_LD_20_RN_9_RD_15_0.png","C_Dist_300_LN_20_LD_25_RN_13_RD_26_0.png","C_Dist_300_LN_20_LD_25_RN_14_RD_28_0.png","C_Dist_300_LN_20_LD_25_RN_5_RD_10_0.png","C_Dist_300_LN_20_LD_25_RN_8_RD_16_0.png","C_Dist_300_LN_20_LD_25_RN_9_RD_18_0.png","C_Dist_300_LN_24_LD_30_RN_2_RD_4_0.png","C_Dist_300_LN_24_LD_30_RN_8_RD_16_0.png","C_Dist_300_LN_3_LD_6_RN_2_RD_10_0.png","C_Dist_300_LN_4_LD_10_RN_1_RD_10_0.png","C_Dist_300_LN_4_LD_5_RN_2_RD_4_0.png","C_Dist_300_LN_8_LD_16_RN_1_RD_5_0.png","C_Dist_300_LN_9_LD_10_RN_3_RD_5_0.png"],["C_Dist_300_LN_1_LD_20_RN_7_RD_20_1.png","C_Dist_300_LN_1_LD_3_RN_19_RD_30_1.png","C_Dist_300_LN_1_LD_30_RN_8_RD_24_1.png","C_Dist_300_LN_1_LD_5_RN_11_RD_22_1.png","C_Dist_300_LN_1_LD_5_RN_3_RD_6_1.png","C_Dist_300_LN_1_LD_5_RN_6_RD_12_1.png","C_Dist_300_LN_2_LD_10_RN_12_RD_24_1.png","C_Dist_300_LN_2_LD_20_RN_10_RD_25_1.png","C_Dist_300_LN_3_LD_12_RN_11_RD_20_1.png","C_Dist_300_LN_3_LD_6_RN_4_RD_5_1.png","C_Dist_300_LN_4_LD_20_RN_13_RD_26_1.png","C_Dist_300_LN_5_LD_25_RN_6_RD_12_1.png","C_Dist_300_LN_5_LD_25_RN_7_RD_14_1.png","C_Dist_300_LN_7_LD_14_RN_20_RD_25_1.png","C_Dist_300_LN_8_LD_15_RN_10_RD_12_1.png"]],"dist300_I":[["I_Dist_300_LN_1_LD_2_RN_2_RD_10_0.png","I_Dist_300_LN_1_LD_2_RN_3_RD_15_0.png","I_Dist_300_LN_2_LD_4_RN_6_RD_30_0.png","I_Dist_300_LN_3_LD_6_RN_4_RD_20_0.png","I_Dist_300_LN_4_LD_5_RN_6_RD_12_0.png","I_Dist_300_LN_4_LD_5_RN_8_RD_16_0.png","I_Dist_300_LN_7_LD_10_RN_8_RD_20_0.png","I_Dist_300_LN_8_LD_10_RN_14_RD_28_0.png","I_Dist_300_LN_8_LD_10_RN_9_RD_18_0.png"],["I_Dist_300_LN_13_LD_26_RN_12_RD_15_1.png","I_Dist_300_LN_4_LD_20_RN_2_RD_4_1.png"]],"dist300_S":[["E_Dist_300_LN_9_LD_12_RN_9_RD_20_0.png"],["E_Dist_300_LN_18_LD_30_RN_18_RD_20_1.png","E_Dist_300_LN_3_LD_10_RN_3_RD_5_1.png","E_Dist_300_LN_9_LD_20_RN_9_RD_12_1.png"]],"dist500_C":[["C_Dist_500_LN_10_LD_13_RN_7_RD_26_0.png","C_Dist_500_LN_10_LD_15_RN_4_RD_24_0.png","C_Dist_500_LN_12_LD_16_RN_3_RD_12_0.png","C_Dist_500_LN_12_LD_18_RN_4_RD_24_0.png","C_Dist_500_LN_15_LD_18_RN_5_RD_15_0.png","C_Dist_500_LN_15_LD_20_RN_1_RD_4_0.png","C_Dist_500_LN_18_LD_27_RN_1_RD_6_0.png","C_Dist_500_LN_20_LD_24_RN_1_RD_3_0.png","C_Dist_500_LN_20_LD_24_RN_3_RD_9_0.png","C_Dist_500_LN_20_LD_24_RN_7_RD_21_0.png","C_Dist_500_LN_20_LD_28_RN_3_RD_14_0.png","C_Dist_500_LN_21_LD_28_RN_6_RD_24_0.png","C_Dist_500_LN_22_LD_28_RN_2_RD_7_0.png","C_Dist_500_LN_25_LD_30_RN_9_RD_27_0.png","C_Dist_500_LN_4_LD_6_RN_1_RD_6_0.png","C_Dist_500_LN_5_LD_6_RN_2_RD_6_0.png","C_Dist_500_LN_6_LD_9_RN_1_RD_6_0.png","C_Dist_500_LN_7_LD_10_RN_1_RD_5_0.png","C_Dist_500_LN_8_LD_12_RN_1_RD_6_0.png","C_Dist_500_LN_8_LD_12_RN_4_RD_24_0.png"],["C_Dist_500_LN_1_LD_4_RN_12_RD_16_1.png","C_Dist_500_LN_1_LD_4_RN_9_RD_12_1.png","C_Dist_500_LN_1_LD_9_RN_11_RD_18_1.png","C_Dist_500_LN_10_LD_24_RN_22_RD_24_1.png","C_Dist_500_LN_2_LD_12_RN_10_RD_15_1.png","C_Dist_500_LN_2_LD_12_RN_12_RD_18_1.png","C_Dist_500_LN_2_LD_12_RN_4_RD_6_1.png","C_Dist_500_LN_2_LD_24_RN_7_RD_12_1.png","C_Dist_500_LN_2_LD_5_RN_18_RD_20_1.png","C_Dist_500_LN_2_LD_5_RN_9_RD_10_1.png","C_Dist_500_LN_2_LD_8_RN_12_RD_16_1.png","C_Dist_500_LN_2_LD_8_RN_21_RD_28_1.png","C_Dist_500_LN_3_LD_10_RN_4_RD_5_1.png","C_Dist_500_LN_3_LD_12_RN_15_RD_20_1.png","C_Dist_500_LN_3_LD_30_RN_6_RD_10_1.png","C_Dist_500_LN_3_LD_8_RN_14_RD_16_1.png","C_Dist_500_LN_4_LD_16_RN_15_RD_20_1.png","C_Dist_500_LN_4_LD_24_RN_12_RD_18_1.png","C_Dist_500_LN_5_LD_14_RN_6_RD_7_1.png","C_Dist_500_LN_7_LD_21_RN_20_RD_24_1.png","C_Dist_500_LN_7_LD_28_RN_12_RD_16_1.png","C_Dist_500_LN_7_LD_28_RN_9_RD_12_1.png","C_Dist_500_LN_9_LD_27_RN_20_RD_24_1.png"]],"dist500_I":[["I_Dist_500_LN_2_LD_3_RN_4_RD_24_0.png","I_Dist_500_LN_5_LD_6_RN_6_RD_18_0.png","I_Dist_500_LN_7_LD_8_RN_9_RD_24_0.png"],["I_Dist_500_LN_7_LD_21_RN_5_RD_6_1.png"]],"dist500_S":[["E_Dist_500_LN_6_LD_8_RN_6_RD_24_0.png"],["E_Dist_500_LN_2_LD_12_RN_2_RD_3_1.png","E_Dist_500_LN_6_LD_24_RN_6_RD_8_1.png"]]}},{"start_time":1551883005837,"click_time":1551883006533,"finger_time":1551883006033,"fix_duration":443.1939305275262,"trial":1,"RT":196,"MT":500,"sideResp":2,"stimulus":[],"xmouse":[797,797,797,797,797,797,800,801,803,808,812,821,831,857,883,944,976,1000,1020,1036,1062,1071,1078,1079,1079,1080,1081,1083,1085,1085,1085,1085,1085,1085,1085],"ymouse":[485,485,485,485,485,485,481,479,477,469,463,454,441,411,381,311,283,263,246,232,202,187,172,169,168,160,147,131,119,115,115,115,112,106,98],"timestamp_mouse":[15,34,54,74,94,115,134,154,174,196,214,235,255,275,294,314,334,354,375,395,415,434,454,474,494,515,534,554,574,594,614,634,655,675,695],"xSR":741.5,"ySR":469.95,"xT1":424.9,"yT1":0,"xT2":1058.1,"yT2":0,"toosoon":0,"cond_shown":"Incongruent","ratio_trial":200,"L_num":14,"L_den":30,"R_num":12,"R_den":18,"correct_side":2,"subjID":"sarahsofiacastañedamartinez34","gender":"1","school":"6","age":"11"},{"start_time":1551883009294,"click_time":1551883009833,"finger_time":1551883009651,"fix_duration":780.6283798672453,"trial":2,"RT":357,"MT":182,"sideResp":2,"stimulus":[],"xmouse":[795,795,795,795,795,795,795,795,795,795,795,795,795,795,797,800,806,830,852,883,939,971,1024,1042,1059,1079,1123],"ymouse":[496,496,496,496,496,496,496,496,496,496,496,496,496,496,495,493,487,458,432,397,331,291,223,198,171,134,53],"timestamp_mouse":[20,38,58,77,97,117,137,157,177,197,217,238,259,277,297,317,337,357,378,397,417,437,457,477,497,517,538],"xSR":741.5,"ySR":469.95,"xT1":424.9,"yT1":0,"xT2":1058.1,"yT2":0,"toosoon":0,"cond_shown":"Congruent","ratio_trial":100,"L_num":11,"L_den":22,"R_num":4,"R_den":10,"correct_side":1,"subjID":"sarahsofiacastañedamartinez34","gender":"1","school":"6","age":"11"},{"start_time":1551883012613,"click_time":1551883014551,"finger_time":1551883014112,"fix_duration":1018.3069803708081,"trial":3,"RT":1499,"MT":439,"sideResp":2,"stimulus":[],"xmouse":[780,780,780,780,780,780,780,780,780,780,780,780,780,780,780,780,780,780,780,780,780,780,780,780,780,780,780,780,780,780,780,780,780,780,780,780,780,780,779,779,779,779,779,779,779,779,779,779,779,779,779,779,779,779,779,779,779,779,779,779,779,779,779,779,779,779,779,779,779,780,782,787,793,804,816,833,858,928,970,999,1023,1107,1165,1222,1265,1276,1279,1278,1276,1274,1272,1272,1270,1266,1245,1219,1186,1146],"ymouse":[507,507,507,507,507,507,507,507,507,507,507,507,507,507,507,507,507,507,507,507,507,507,507,507,507,507,507,507,507,507,507,507,507,507,507,507,507,507,506,506,506,506,506,506,506,506,506,506,506,506,506,506,506,506,506,506,506,506,506,506,506,506,506,506,506,506,506,506,505,505,503,500,495,486,476,462,443,383,350,327,306,222,166,113,67,50,28,19,11,5,2,2,1,1,4,8,15,28],"timestamp_mouse":[1,18,39,58,79,99,120,140,159,178,198,218,238,259,280,298,318,338,359,380,399,418,440,459,478,498,518,539,559,578,599,620,639,659,680,698,719,738,758,779,798,820,838,859,879,898,920,940,959,979,998,1018,1040,1058,1080,1099,1118,1138,1158,1178,1198,1219,1239,1259,1278,1298,1319,1338,1358,1379,1398,1418,1438,1459,1478,1499,1518,1538,1558,1579,1598,1620,1639,1658,1678,1699,1719,1739,1758,1778,1799,1819,1838,1859,1879,1899,1918,1938],"xSR":741.5,"ySR":469.95,"xT1":424.9,"yT1":0,"xT2":1058.1,"yT2":0,"toosoon":0,"cond_shown":"Congruent","ratio_trial":200,"L_num":6,"L_den":12,"R_num":7,"R_den":10,"correct_side":2,"subjID":"sarahsofiacastañedamartinez34","gender":"1","school":"6","age":"11"},{"start_time":1551883016430,"click_time":1551883017413,"finger_time":1551883017011,"fix_duration":396.55984986884584,"trial":4,"RT":581,"MT":402,"sideResp":2,"stimulus":[],"xmouse":[802,802,802,802,802,802,802,802,802,802,802,802,802,802,802,802,802,802,802,802,802,802,802,802,802,802,806,814,835,880,1018,1099,1165,1205,1239,1255,1262,1272,1281,1292,1292,1292,1292,1292,1292,1292,1292,1292,1292,1126],"ymouse":[528,528,528,528,528,528,528,528,528,528,528,528,528,528,528,528,528,528,528,528,528,528,528,528,528,528,523,515,491,447,320,249,198,165,138,114,94,75,48,4,4,4,4,4,4,4,4,4,4,1],"timestamp_mouse":[8,36,42,62,81,102,121,142,161,181,201,221,241,261,281,302,323,341,361,381,402,421,441,463,481,501,521,541,561,581,603,621,641,661,683,703,722,741,761,781,802,822,842,861,882,903,921,943,963,983],"xSR":741.5,"ySR":469.95,"xT1":424.9,"yT1":0,"xT2":1058.1,"yT2":0,"toosoon":0,"cond_shown":"Incongruent","ratio_trial":300,"L_num":13,"L_den":26,"R_num":12,"R_den":15,"correct_side":2,"subjID":"sarahsofiacastañedamartinez34","gender":"1","school":"6","age":"11"},{"start_time":1551883021684,"click_time":1551883022672,"finger_time":1551883022291,"fix_duration":250,"trial":5,"RT":607,"MT":381,"sideResp":2,"stimulus":[],"xmouse":[798,798,798,798,798,798,798,798,798,798,798,798,798,798,798,798,798,798,798,798,798,798,799,802,803,803,803,803,806,810,853,921,1077,1155,1206,1241,1276,1276,1276,1276,1276,1276,1276,1276,1276,1276,1276,1223,1182,1154],"ymouse":[491,491,491,491,491,491,491,491,491,491,491,491,491,491,491,491,491,491,491,491,491,491,491,491,491,491,491,491,488,486,464,428,331,269,206,132,13,13,13,13,13,13,13,13,13,13,13,3,34,50],"timestamp_mouse":[10,32,48,68,87,107,129,147,169,187,207,227,248,269,288,308,328,348,367,387,407,428,447,467,487,507,527,547,567,588,607,628,649,667,688,707,727,747,768,788,808,827,847,868,888,908,928,948,968,988],"xSR":741.5,"ySR":469.95,"xT1":424.9,"yT1":0,"xT2":1058.1,"yT2":0,"toosoon":0,"cond_shown":"Congruent","ratio_trial":300,"L_num":24,"L_den":30,"R_num":8,"R_den":16,"correct_side":1,"subjID":"sarahsofiacastañedamartinez34","gender":"1","school":"6","age":"11"},{"start_time":1551883024821,"click_time":1551883027991,"finger_time":1551883025491,"fix_duration":409.0207769830639,"trial":6,"RT":670,"MT":2500,"sideResp":1,"stimulus":[],"xmouse":[791,791,791,791,791,791,791,791,791,791,791,791,791,791,791,791,791,791,791,791,791,791,791,791,791,791,791,791,790,788,786,783,783,782,779,776,770,766,762,760,759,758,757,757,757,757,757,757,757,757,757,757,757,757,757,757,757,757,757,757,757,757,757,757,757,757,757,757,757,757,757,757,757,757,760,764,771,773,773,773,774,779,788,822,848,853,853,853,853,848,845,839,836,832,824,817,807,807,807,807,807,807,806,805,805,803,803,802,801,800,799,798,798,798,798,798,798,798,798,798,798,798,798,798,798,798,798,798,798,798,798,798,798,795,792,789,782,780,775,770,764,745,729,718,701,681,649,639,632,628,621,600,591,590,588,586,566,544,524],"ymouse":[508,508,507,507,507,507,507,507,507,507,507,507,507,507,507,507,507,507,507,507,507,507,507,507,507,507,507,503,500,493,487,476,473,467,456,445,422,412,403,398,395,393,393,393,393,393,393,393,393,393,393,393,393,393,393,393,393,393,393,393,393,393,393,393,393,393,393,393,393,393,393,393,393,392,403,417,440,447,453,459,464,484,501,545,570,575,575,575,572,562,555,546,542,538,527,519,507,507,507,507,507,506,506,506,506,506,506,506,506,506,506,506,506,506,506,506,506,506,506,506,506,506,506,506,506,506,506,506,506,506,506,506,506,503,498,491,474,467,457,443,427,385,349,325,299,266,219,202,189,178,166,139,129,127,123,120,92,72,59],"timestamp_mouse":[10,34,51,71,91,110,132,150,172,190,211,230,251,270,291,312,331,350,371,390,412,430,450,472,490,511,531,550,570,590,611,630,651,670,690,711,731,751,770,790,811,830,851,870,890,911,930,950,970,991,1011,1030,1051,1070,1090,1111,1131,1151,1171,1192,1210,1230,1250,1271,1291,1311,1330,1351,1371,1390,1411,1431,1451,1471,1490,1510,1530,1550,1571,1591,1611,1630,1650,1670,1692,1711,1730,1751,1772,1790,1811,1830,1850,1871,1891,1910,1930,1950,1972,1990,2011,2030,2051,2071,2090,2110,2131,2150,2171,2190,2210,2232,2250,2270,2292,2311,2330,2351,2372,2392,2411,2430,2451,2471,2492,2510,2531,2551,2572,2590,2610,2630,2652,2671,2691,2710,2730,2751,2771,2790,2810,2830,2850,2870,2891,2910,2930,2951,2970,2990,3010,3030,3051,3071,3092,3110,3130,3151,3170],"xSR":741.5,"ySR":469.95,"xT1":424.9,"yT1":0,"xT2":1058.1,"yT2":0,"toosoon":0,"cond_shown":"Congruent","ratio_trial":100,"L_num":1,"L_den":2,"R_num":18,"R_den":30,"correct_side":2,"subjID":"sarahsofiacastañedamartinez34","gender":"1","school":"6","age":"11"},{"start_time":1551883029819,"click_time":1551883031852,"finger_time":1551883031611,"fix_duration":426.83103556464255,"trial":7,"RT":1792,"MT":241,"sideResp":1,"stimulus":[],"xmouse":[798,798,798,798,798,798,798,798,798,798,798,798,798,798,798,798,798,798,798,798,798,798,798,798,798,798,798,798,798,798,798,798,798,798,798,798,798,798,798,798,798,798,798,798,798,798,798,798,798,798,798,798,798,798,798,798,798,798,798,798,798,798,798,798,798,798,798,798,798,798,798,798,798,798,798,798,798,798,798,798,798,798,798,798,798,797,783,770,754,733,709,665,655,652,651,649,633,614,591,568,548,513],"ymouse":[500,499,499,499,499,499,499,499,499,499,499,499,499,499,499,499,499,499,499,499,499,499,499,499,499,499,499,499,499,499,499,499,499,499,499,499,499,499,499,499,499,499,499,499,499,499,499,499,499,499,499,499,499,499,499,499,499,499,499,499,499,499,499,499,499,499,499,499,499,499,499,499,499,499,499,499,499,499,499,499,499,499,499,499,498,496,487,479,470,458,443,409,399,392,385,372,315,269,215,162,116,53],"timestamp_mouse":[13,32,53,73,92,112,132,154,172,192,213,232,252,273,293,312,333,352,374,394,412,432,452,474,492,512,532,554,572,593,612,632,652,672,693,712,734,753,772,792,812,834,852,873,893,912,933,952,973,992,1012,1034,1053,1072,1092,1113,1132,1152,1173,1192,1212,1232,1253,1273,1292,1312,1332,1352,1372,1393,1412,1432,1452,1472,1492,1514,1533,1553,1572,1592,1614,1632,1652,1672,1693,1712,1733,1752,1774,1792,1812,1832,1854,1872,1893,1912,1932,1953,1973,1993,2013,2033],"xSR":741.5,"ySR":469.95,"xT1":424.9,"yT1":0,"xT2":1058.1,"yT2":0,"toosoon":0,"cond_shown":"Incongruent","ratio_trial":300,"L_num":4,"L_den":5,"R_num":6,"R_den":12,"correct_side":1,"subjID":"sarahsofiacastañedamartinez34","gender":"1","school":"6","age":"11"},{"start_time":1551883033908,"click_time":1551883035892,"finger_time":1551883035451,"fix_duration":254.07746128505093,"trial":8,"RT":1543,"MT":441,"sideResp":2,"stimulus":[],"xmouse":[792,792,792,792,792,792,792,792,792,792,792,792,792,792,792,792,792,792,792,792,792,792,792,792,792,792,792,792,792,792,792,792,792,792,792,792,792,792,792,792,792,792,792,792,792,792,792,792,792,792,792,792,792,792,792,792,792,792,792,792,792,792,792,792,792,792,792,792,792,792,794,796,799,800,803,809,820,849,869,902,923,941,971,982,992,997,1002,1003,1003,1002,1000,999,1000,1002,1009,1017,1048,1071,1096,1135],"ymouse":[524,524,524,524,524,524,524,524,524,524,524,524,524,524,524,524,524,524,524,524,524,524,524,524,524,524,524,524,524,524,524,524,524,524,524,524,524,524,524,524,524,524,524,524,524,524,524,524,524,524,524,524,524,524,524,524,524,524,524,524,524,524,524,524,524,524,524,524,523,521,518,515,510,509,506,499,490,468,452,426,408,390,351,332,312,297,273,259,246,226,217,203,197,190,181,174,146,130,114,87],"timestamp_mouse":[9,24,43,63,84,104,123,143,164,184,204,223,244,264,283,305,323,344,363,384,404,425,445,464,483,504,525,543,563,584,604,623,643,664,683,703,724,743,763,785,804,823,845,864,884,903,925,943,964,983,1003,1024,1043,1063,1085,1104,1123,1144,1164,1184,1203,1223,1243,1263,1285,1305,1324,1343,1364,1383,1403,1424,1443,1464,1484,1503,1523,1543,1564,1583,1605,1623,1643,1663,1683,1703,1725,1743,1764,1783,1803,1825,1844,1864,1883,1903,1924,1943,1964,1984],"xSR":741.5,"ySR":469.95,"xT1":424.9,"yT1":0,"xT2":1058.1,"yT2":0,"toosoon":0,"cond_shown":"Congruent","ratio_trial":200,"L_num":1,"L_den":2,"R_num":21,"R_den":30,"correct_side":2,"subjID":"sarahsofiacastañedamartinez34","gender":"1","school":"6","age":"11"},{"start_time":1551883042278,"click_time":1551883044131,"finger_time":1551883043852,"fix_duration":906.1099246723634,"trial":9,"RT":1574,"MT":279,"sideResp":2,"stimulus":[],"xmouse":[788,788,788,788,788,788,788,788,788,788,788,788,788,788,788,788,788,788,788,788,788,788,788,788,788,788,788,788,788,788,788,788,788,788,788,788,788,788,788,788,788,788,788,788,788,788,788,788,788,788,788,788,788,788,788,788,788,788,788,788,788,788,788,788,788,788,788,788,788,788,788,788,791,793,796,801,809,817,829,834,848,864,897,984,1027,1053,1069,1081,1091,1097,1099,1103,1106],"ymouse":[504,504,504,504,504,504,504,504,504,504,504,504,504,504,504,504,504,504,504,504,504,504,504,504,504,504,504,504,504,504,504,504,504,504,504,504,504,504,504,504,504,504,504,504,504,504,504,504,504,504,504,504,504,504,504,504,504,504,504,504,504,504,504,504,504,504,504,504,504,504,504,504,503,501,499,495,489,482,464,454,435,415,380,299,254,222,200,176,139,117,111,100,94],"timestamp_mouse":[14,36,55,73,94,113,134,153,174,194,214,234,254,273,293,314,333,354,373,393,413,433,455,474,493,514,533,554,573,593,614,633,653,673,693,714,733,755,773,794,813,834,853,875,893,913,933,954,974,993,1014,1034,1054,1074,1094,1114,1134,1155,1175,1195,1214,1234,1254,1273,1293,1314,1333,1353,1373,1393,1414,1435,1455,1474,1493,1513,1533,1553,1574,1594,1614,1633,1653,1673,1693,1713,1736,1754,1773,1793,1814,1833,1853],"xSR":741.5,"ySR":469.95,"xT1":424.9,"yT1":0,"xT2":1058.1,"yT2":0,"toosoon":0,"cond_shown":"Congruent","ratio_trial":100,"L_num":12,"L_den":30,"R_num":13,"R_den":26,"correct_side":2,"subjID":"sarahsofiacastañedamartinez34","gender":"1","school":"6","age":"11"},{"start_time":1551883047075,"click_time":1551883048292,"finger_time":1551883047691,"fix_duration":1123.2460021892641,"trial":10,"RT":616,"MT":601,"sideResp":2,"stimulus":[],"xmouse":[790,790,790,790,790,790,790,790,790,790,790,790,790,790,790,790,790,790,790,790,790,790,790,790,790,790,793,808,819,828,836,838,840,840,840,841,841,841,841,842,844,853,873,882,886,888,889,889,890,892,894,897,901,912,922,933,944,954,981,1004,1076],"ymouse":[506,506,506,506,506,506,506,506,506,506,506,506,506,506,506,506,506,506,506,506,506,506,506,506,506,506,503,490,482,476,469,467,460,458,457,456,456,456,456,453,449,435,409,398,392,390,389,389,389,387,383,381,376,367,359,348,335,320,266,207,56],"timestamp_mouse":[18,41,56,76,96,116,137,158,176,196,217,237,256,277,296,318,336,356,377,396,416,438,457,477,497,517,536,557,577,596,616,638,658,676,697,716,737,756,776,797,817,836,858,876,897,916,936,956,976,997,1016,1037,1056,1076,1096,1116,1136,1156,1176,1196,1217],"xSR":741.5,"ySR":469.95,"xT1":424.9,"yT1":0,"xT2":1058.1,"yT2":0,"toosoon":0,"cond_shown":"Incongruent","ratio_trial":300,"L_num":4,"L_den":20,"R_num":2,"R_den":4,"correct_side":2,"subjID":"sarahsofiacastañedamartinez34","gender":"1","school":"6","age":"11"},{"start_time":1551883054181,"click_time":1551883055451,"finger_time":1551883054892,"fix_duration":1387.2427978148132,"trial":11,"RT":711,"MT":559,"sideResp":2,"stimulus":[],"xmouse":[809,809,809,809,809,809,809,809,809,809,809,809,809,809,809,809,809,809,809,809,809,809,809,809,809,809,809,809,809,809,809,809,809,811,826,838,851,864,884,891,900,910,920,954,982,999,1014,1022,1034,1034,1034,1034,1034,1034,1034,1034,1034,1034,1034,1034,1034,1034,1034,1065],"ymouse":[491,491,491,491,491,491,491,491,491,491,491,491,491,491,491,491,491,491,491,491,491,491,491,491,491,491,491,491,491,491,491,491,491,490,477,468,459,449,435,428,418,406,390,342,276,216,154,94,16,16,16,16,16,16,16,16,16,16,16,16,16,16,16,5],"timestamp_mouse":[10,33,51,72,92,112,131,152,171,191,211,230,251,272,291,310,332,352,371,392,411,432,450,470,491,511,531,552,570,590,611,630,651,670,691,711,731,750,771,791,810,830,850,870,891,910,931,952,970,991,1011,1031,1051,1071,1090,1110,1130,1150,1171,1190,1211,1231,1251,1270],"xSR":741.5,"ySR":469.95,"xT1":424.9,"yT1":0,"xT2":1058.1,"yT2":0,"toosoon":0,"cond_shown":"Congruent","ratio_trial":300,"L_num":24,"L_den":30,"R_num":8,"R_den":16,"correct_side":1,"subjID":"sarahsofiacastañedamartinez34","gender":"1","school":"6","age":"11"},{"start_time":1551883058394,"click_time":1551883059774,"finger_time":1551883059193,"fix_duration":1378.2510137335864,"trial":12,"RT":799,"MT":581,"sideResp":2,"stimulus":[],"xmouse":[798,798,798,798,798,798,798,798,798,798,798,798,798,798,798,798,798,798,798,798,798,798,798,798,798,798,798,798,798,798,798,798,798,798,798,798,799,802,822,835,843,848,850,850,851,858,866,878,908,927,947,963,990,1000,1020,1042,1077,1124,1183,1186,1186,1185,1184,1184,1184,1184,1183,1180,1162,1150],"ymouse":[512,512,512,512,512,512,512,512,512,512,512,512,512,512,512,512,512,512,512,512,512,512,512,512,512,512,512,512,512,512,512,512,512,512,512,512,510,506,486,474,468,465,463,463,461,456,451,443,422,409,394,380,359,349,326,298,251,176,46,19,6,2,1,1,1,1,1,2,10,15],"timestamp_mouse":[1,19,39,59,79,98,118,139,159,179,199,219,239,258,279,298,320,339,360,379,398,419,438,458,479,499,519,539,559,579,599,619,639,659,680,699,719,738,759,779,799,819,838,858,879,899,919,939,959,979,999,1020,1040,1059,1079,1099,1119,1139,1159,1178,1198,1218,1240,1260,1279,1299,1319,1339,1358,1379],"xSR":741.5,"ySR":469.95,"xT1":424.9,"yT1":0,"xT2":1058.1,"yT2":0,"toosoon":0,"cond_shown":"Incongruent","ratio_trial":300,"L_num":4,"L_den":20,"R_num":2,"R_den":4,"correct_side":2,"subjID":"sarahsofiacastañedamartinez34","gender":"1","school":"6","age":"11"},{"start_time":1551883061462,"click_time":1551883065473,"finger_time":1551883061853,"fix_duration":608.2344131183709,"trial":13,"RT":391,"MT":3620,"sideResp":1,"stimulus":[],"xmouse":[818,818,818,818,818,818,818,820,820,820,820,821,822,822,824,825,828,831,839,864,898,911,953,985,988,989,989,989,989,989,989,989,989,989,989,989,989,989,989,989,989,989,989,989,987,983,976,966,953,917,885,862,840,824,808,807,807,807,807,807,807,807,807,807,807,807,807,807,807,807,807,804,800,799,797,797,797,797,797,797,797,796,796,796,795,795,794,794,794,794,794,794,794,794,794,793,791,790,789,789,789,789,788,787,785,785,785,785,785,785,784,783,773,765,759,759,759,759,759,759,759,759,759,759,759,759,759,759,759,759,759,758,758,758,758,760,763,767,779,794,794,794,794,794,794,794,794,794,794,794,794,794,794,794,795,795,795,795,795,795,795,795,795,795,794,792,790,784,778,769,768,768,768,768,768,768,768,768,768,765,756,748,736,721,691,677,656,632,583,569,562,559,558,558,558,557,555,553,550,529,509],"ymouse":[491,491,491,491,491,491,491,491,491,491,491,490,489,489,488,487,485,483,479,465,444,437,408,383,381,380,380,380,380,380,380,380,380,380,380,380,380,380,380,380,380,380,380,380,380,384,389,397,406,431,451,464,479,491,507,508,508,508,508,508,508,508,508,508,508,508,508,508,508,508,509,511,512,512,512,512,512,512,512,512,512,512,512,512,512,512,512,512,512,512,512,512,512,512,512,512,511,511,510,510,510,510,510,508,506,506,506,506,506,506,505,504,500,498,495,495,495,495,495,495,495,495,495,495,495,495,495,495,495,495,495,494,494,494,494,492,492,491,490,489,489,489,489,489,489,489,489,489,489,489,489,489,489,489,489,489,487,487,487,487,487,487,487,487,487,486,486,486,485,484,484,484,484,484,484,484,484,484,484,480,463,444,415,380,312,284,256,225,168,149,136,130,128,128,128,128,127,125,121,109,99],"timestamp_mouse":[11,37,51,72,90,112,131,151,171,191,210,232,250,272,291,310,331,351,371,391,411,431,452,472,491,512,532,550,570,590,611,631,652,671,692,711,731,752,771,790,811,831,852,872,890,911,931,951,972,992,1011,1032,1050,1071,1092,1111,1130,1152,1170,1191,1212,1231,1251,1272,1292,1311,1331,1352,1370,1392,1411,1430,1451,1471,1492,1510,1532,1552,1570,1592,1610,1630,1651,1671,1690,1710,1731,1751,1771,1790,1811,1831,1851,1871,1891,1912,1932,1951,1972,1992,2010,2031,2052,2071,2092,2112,2131,2151,2170,2191,2212,2231,2251,2270,2291,2312,2331,2351,2371,2392,2410,2432,2452,2472,2490,2512,2531,2552,2571,2592,2612,2632,2652,2671,2692,2710,2731,2751,2771,2792,2810,2832,2851,2871,2892,2910,2931,2951,2970,2990,3012,3031,3051,3072,3091,3110,3130,3151,3171,3191,3210,3231,3250,3271,3292,3310,3331,3351,3371,3390,3411,3430,3450,3472,3491,3511,3531,3551,3571,3590,3612,3631,3651,3671,3691,3710,3731,3751,3772,3791,3811,3831,3851,3872,3892,3911,3930,3950,3972,3991,4011],"xSR":741.5,"ySR":469.95,"xT1":424.9,"yT1":0,"xT2":1058.1,"yT2":0,"toosoon":0,"cond_shown":"Incongruent","ratio_trial":300,"L_num":8,"L_den":10,"R_num":14,"R_den":28,"correct_side":1,"subjID":"sarahsofiacastañedamartinez34","gender":"1","school":"6","age":"11"},{"start_time":1551883067145,"click_time":1551883068174,"finger_time":1551883067573,"fix_duration":550.6140261816088,"trial":14,"RT":428,"MT":601,"sideResp":1,"stimulus":[],"xmouse":[800,800,800,800,800,800,800,800,800,800,800,800,800,800,800,800,800,798,795,789,764,750,738,728,720,701,689,669,658,639,629,623,622,622,621,611,589,582,566,564,564,564,564,564,564,564,564,563,561,556,531,516],"ymouse":[549,549,549,549,549,547,546,546,546,546,546,546,546,546,546,546,546,545,537,524,477,453,429,408,388,344,312,254,215,157,141,131,128,127,127,116,97,90,78,77,77,77,77,77,77,77,77,77,76,76,71,66],"timestamp_mouse":[10,39,47,69,88,108,128,149,168,189,209,227,249,269,288,307,329,348,368,388,408,428,448,468,488,508,527,548,568,589,608,627,648,669,689,708,728,748,769,788,807,828,848,868,887,908,927,949,967,988,1007,1028],"xSR":741.5,"ySR":469.95,"xT1":424.9,"yT1":0,"xT2":1058.1,"yT2":0,"toosoon":0,"cond_shown":"Incongruent","ratio_trial":100,"L_num":10,"L_den":25,"R_num":8,"R_den":16,"correct_side":2,"subjID":"sarahsofiacastañedamartinez34","gender":"1","school":"6","age":"11"},{"start_time":1551883072074,"click_time":1551883073973,"finger_time":1551883073473,"fix_duration":740.7885757356981,"trial":15,"RT":1399,"MT":500,"sideResp":2,"stimulus":[],"xmouse":[774,774,774,774,774,774,774,774,774,774,774,774,774,774,774,774,774,774,774,774,774,774,774,774,774,774,774,774,774,774,774,774,774,774,774,774,774,774,774,774,774,774,774,774,774,774,774,774,774,774,774,774,774,774,774,774,774,774,776,776,776,776,776,778,780,784,791,818,839,861,885,911,922,941,958,976,995,1006,1016,1019,1027,1036,1056,1065,1074,1080,1086,1090,1098,1107,1110,1112,1112,1112,1110],"ymouse":[540,540,540,540,540,540,540,540,540,540,540,540,540,540,540,540,540,540,540,540,540,540,540,540,540,540,540,540,540,540,540,540,540,540,540,540,540,540,540,540,540,540,540,540,540,540,540,540,540,540,540,540,540,540,540,540,540,540,539,539,539,539,539,538,536,533,528,507,491,472,452,428,415,385,360,332,300,277,248,239,221,207,188,180,173,165,157,150,145,141,139,137,132,107,91],"timestamp_mouse":[21,41,60,80,100,118,139,160,179,199,219,239,258,279,299,319,338,359,379,400,419,439,458,479,498,520,540,560,579,600,618,638,659,678,700,718,739,759,779,799,819,838,860,880,900,919,938,960,979,998,1019,1040,1058,1078,1100,1118,1139,1160,1179,1198,1220,1240,1259,1280,1299,1319,1339,1360,1378,1399,1419,1439,1459,1479,1500,1520,1539,1559,1579,1598,1619,1639,1660,1679,1698,1719,1739,1759,1779,1799,1818,1839,1859,1878,1899],"xSR":741.5,"ySR":469.95,"xT1":424.9,"yT1":0,"xT2":1058.1,"yT2":0,"toosoon":0,"cond_shown":"Incongruent","ratio_trial":300,"L_num":1,"L_den":2,"R_num":3,"R_den":15,"correct_side":1,"subjID":"sarahsofiacastañedamartinez34","gender":"1","school":"6","age":"11"},{"start_time":1551883076311,"click_time":1551883077632,"finger_time":1551883077053,"fix_duration":796.2985980719379,"trial":16,"RT":742,"MT":579,"sideResp":1,"stimulus":[],"xmouse":[781,781,781,781,781,781,781,781,781,781,781,781,781,781,781,781,781,781,781,781,781,781,781,781,781,781,781,781,781,781,781,781,778,776,774,771,768,758,750,734,720,704,680,671,664,655,648,631,625,607,591,572,540,540,540,540,540,540,540,540,540,540,540,540,540,540,463],"ymouse":[510,510,510,510,510,510,510,510,510,510,510,510,510,510,510,510,510,510,510,510,510,510,510,510,510,510,510,510,510,510,508,506,497,492,487,482,478,467,457,435,416,393,351,332,313,294,275,235,209,152,109,69,0,0,0,0,0,0,0,0,0,0,0,0,0,0,1],"timestamp_mouse":[10,21,41,63,82,103,122,161,162,182,202,222,242,263,282,302,321,343,362,382,401,422,443,462,483,501,523,543,561,582,603,622,642,662,682,702,722,742,761,782,801,822,842,862,881,901,923,942,962,981,1003,1022,1043,1061,1081,1102,1122,1141,1163,1183,1202,1222,1242,1261,1281,1301,1321],"xSR":741.5,"ySR":469.95,"xT1":424.9,"yT1":0,"xT2":1058.1,"yT2":0,"toosoon":0,"cond_shown":"Congruent","ratio_trial":100,"L_num":2,"L_den":5,"R_num":11,"R_den":22,"correct_side":2,"subjID":"sarahsofiacastañedamartinez34","gender":"1","school":"6","age":"11"},{"start_time":1551883079979,"click_time":1551883081133,"finger_time":1551883080493,"fix_duration":1124.3333746156072,"trial":17,"RT":514,"MT":640,"sideResp":1,"stimulus":[],"xmouse":[808,808,809,809,809,809,809,809,809,809,809,809,809,809,809,809,810,814,817,819,821,822,825,833,841,851,865,869,870,869,866,863,862,855,846,821,800,775,723,704,685,638,626,606,591,578,570,569,567,564,562,561,560,558,555,545,534,520],"ymouse":[554,552,550,549,549,549,549,548,548,547,546,545,544,544,543,541,538,526,521,516,512,508,503,488,475,458,430,415,390,384,379,376,374,371,368,360,354,346,320,306,289,235,221,195,169,138,94,69,38,33,33,33,33,33,33,36,40,44],"timestamp_mouse":[14,34,55,73,94,115,134,153,175,194,213,233,254,275,293,314,334,355,373,394,414,434,454,473,494,514,535,554,574,593,614,633,654,673,694,714,734,753,774,794,814,842,856,874,894,914,934,953,974,995,1014,1034,1053,1073,1093,1113,1135,1154],"xSR":741.5,"ySR":469.95,"xT1":424.9,"yT1":0,"xT2":1058.1,"yT2":0,"toosoon":0,"cond_shown":"Incongruent","ratio_trial":200,"L_num":4,"L_den":6,"R_num":14,"R_den":30,"correct_side":1,"subjID":"sarahsofiacastañedamartinez34","gender":"1","school":"6","age":"11"},{"start_time":1551883086231,"click_time":1551883087713,"finger_time":1551883087173,"fix_duration":1195.404719052828,"trial":18,"RT":942,"MT":540,"sideResp":1,"stimulus":[],"xmouse":[787,787,787,787,787,787,787,787,787,786,785,784,782,781,781,780,779,779,779,779,779,778,776,769,761,755,750,748,748,748,748,748,748,748,748,748,748,748,748,748,748,748,748,748,747,747,742,737,730,716,697,649,614,598,586,576,558,553,549,544,534,522,522,531,541,543,543,543,543,543,543,543,543,527,511],"ymouse":[539,539,539,539,539,539,539,539,539,536,535,533,531,530,529,527,525,525,525,525,525,524,523,518,514,510,507,506,506,506,506,506,506,506,506,506,506,506,506,506,506,506,506,506,505,504,493,485,473,455,436,398,373,360,349,337,321,317,310,296,279,243,210,179,142,115,80,76,76,76,76,76,74,64,53],"timestamp_mouse":[9,37,42,63,83,101,122,142,162,181,203,222,242,262,281,302,322,342,362,383,403,422,441,462,482,501,522,542,563,581,601,623,642,662,681,701,723,743,762,782,801,823,842,863,883,902,921,942,963,982,1003,1021,1042,1061,1081,1102,1122,1141,1161,1181,1203,1222,1242,1261,1281,1303,1323,1342,1362,1382,1403,1423,1442,1462,1482],"xSR":741.5,"ySR":469.95,"xT1":424.9,"yT1":0,"xT2":1058.1,"yT2":0,"toosoon":0,"cond_shown":"Congruent","ratio_trial":300,"L_num":12,"L_den":24,"R_num":2,"R_den":10,"correct_side":1,"subjID":"sarahsofiacastañedamartinez34","gender":"1","school":"6","age":"11"},{"start_time":1551883090326,"click_time":1551883091294,"finger_time":1551883090953,"fix_duration":250,"trial":19,"RT":627,"MT":341,"sideResp":1,"stimulus":[],"xmouse":[825,825,825,825,825,825,825,825,825,825,825,825,825,825,825,825,825,825,825,825,825,825,825,825,825,825,825,822,820,814,805,762,731,692,652,614,579,571,569,563,552,538,537,537,537,537,537,534,519],"ymouse":[524,524,524,524,524,524,524,524,524,524,524,524,524,524,524,524,524,524,524,524,524,524,524,524,524,524,523,520,518,508,491,413,343,267,197,143,105,101,100,98,92,83,82,82,82,82,81,79,70],"timestamp_mouse":[10,39,46,67,86,107,127,147,168,186,208,227,247,267,288,307,327,346,368,387,408,428,447,467,486,507,526,547,566,587,607,627,647,667,687,708,726,746,766,787,807,828,848,868,887,907,926,947,968],"xSR":741.5,"ySR":469.95,"xT1":424.9,"yT1":0,"xT2":1058.1,"yT2":0,"toosoon":0,"cond_shown":"Congruent","ratio_trial":100,"L_num":7,"L_den":14,"R_num":15,"R_den":25,"correct_side":2,"subjID":"sarahsofiacastañedamartinez34","gender":"1","school":"6","age":"11"},{"start_time":1551883093017,"click_time":1551883094233,"finger_time":1551883093733,"fix_duration":363.1564932510262,"trial":20,"RT":716,"MT":500,"sideResp":2,"stimulus":[],"xmouse":[806,806,806,806,806,806,806,806,806,806,806,806,806,806,806,806,806,806,806,806,806,806,806,806,806,806,806,806,806,806,806,808,810,815,830,842,865,873,884,895,914,976,1006,1012,1019,1024,1031,1033,1035,1038,1041,1046,1049,1054,1057,1059,1071,1080,1092,1105,1115],"ymouse":[527,527,527,527,527,527,527,527,527,527,527,527,527,527,527,527,527,527,527,527,527,527,527,527,527,527,527,527,527,526,525,521,519,509,488,472,447,436,422,407,388,334,307,301,288,279,263,259,253,243,233,221,214,203,193,184,163,151,136,117,97],"timestamp_mouse":[16,36,57,77,97,116,137,156,176,197,215,236,256,275,296,316,335,355,376,396,416,435,457,477,495,516,535,557,575,596,617,635,656,677,695,716,736,757,776,796,816,836,856,876,895,916,936,956,976,995,1017,1036,1056,1077,1096,1116,1135,1156,1176,1196,1216],"xSR":741.5,"ySR":469.95,"xT1":424.9,"yT1":0,"xT2":1058.1,"yT2":0,"toosoon":0,"cond_shown":"Congruent","ratio_trial":200,"L_num":3,"L_den":6,"R_num":14,"R_den":20,"correct_side":2,"subjID":"sarahsofiacastañedamartinez34","gender":"1","school":"6","age":"11"},{"start_time":1551883097638,"click_time":1551883099253,"finger_time":1551883098773,"fix_duration":544.6370620931398,"trial":21,"RT":1135,"MT":480,"sideResp":1,"stimulus":[],"xmouse":[827,827,827,827,827,827,827,827,827,827,827,827,827,827,827,827,827,827,827,827,827,827,827,827,827,827,827,827,827,827,827,827,827,827,827,827,827,827,827,827,827,827,827,827,827,827,827,827,827,827,827,827,827,821,808,774,753,734,714,692,647,632,620,615,608,599,593,588,581,576,570,565,560,551,542,526,523,523,523,521,497],"ymouse":[527,527,527,527,527,527,527,527,527,527,527,527,527,527,527,527,527,527,527,527,526,526,526,526,526,526,526,526,526,526,526,526,526,526,526,526,526,526,526,526,526,526,526,526,526,526,526,526,526,526,526,526,524,517,504,473,456,438,414,388,333,305,268,246,225,188,169,154,142,135,129,127,124,120,117,113,112,112,112,111,99],"timestamp_mouse":[14,35,54,75,96,115,135,154,175,195,214,235,256,276,295,316,335,355,375,396,415,434,456,474,496,516,534,555,574,596,614,634,655,674,695,716,734,754,774,796,815,835,856,874,895,915,934,956,976,994,1014,1034,1055,1075,1095,1115,1135,1155,1175,1195,1215,1235,1255,1276,1295,1315,1335,1355,1375,1395,1415,1435,1455,1474,1494,1514,1536,1555,1575,1595,1615],"xSR":741.5,"ySR":469.95,"xT1":424.9,"yT1":0,"xT2":1058.1,"yT2":0,"toosoon":0,"cond_shown":"Congruent","ratio_trial":200,"L_num":12,"L_den":20,"R_num":6,"R_den":15,"correct_side":1,"subjID":"sarahsofiacastañedamartinez34","gender":"1","school":"6","age":"11"},{"start_time":1551883102026,"click_time":1551883104274,"finger_time":1551883103793,"fix_duration":250,"trial":22,"RT":1767,"MT":481,"sideResp":2,"stimulus":[],"xmouse":[792,792,792,792,792,792,792,793,793,794,794,794,795,795,795,795,795,795,795,795,795,795,795,795,795,795,795,795,795,795,795,795,795,795,795,795,795,795,795,795,795,795,795,795,795,795,795,795,795,795,795,795,795,795,795,795,795,795,795,795,795,795,795,795,795,795,795,795,795,795,795,795,795,795,795,795,795,795,795,795,795,795,795,795,795,796,806,811,817,827,837,856,873,878,890,902,929,947,967,986,1001,1015,1020,1028,1041,1055,1075,1082,1085,1087,1087,1096,1105],"ymouse":[511,511,511,511,511,511,511,509,508,506,505,504,504,504,504,504,504,504,504,504,504,504,504,504,504,504,504,504,504,504,504,504,504,504,504,504,504,504,504,504,504,504,504,504,504,504,504,504,504,504,504,504,504,504,504,504,504,504,504,504,504,504,504,504,504,504,504,504,504,504,504,504,504,504,504,504,504,504,504,504,504,504,504,504,502,495,481,473,466,456,446,422,402,395,378,362,327,307,286,270,256,239,228,213,199,185,171,163,157,144,132,110,98],"timestamp_mouse":[10,42,47,66,87,108,127,147,167,188,208,226,248,268,286,308,328,347,368,387,408,428,446,467,487,508,527,547,566,587,606,628,647,666,688,708,728,747,767,788,806,827,847,868,887,908,928,947,967,986,1007,1028,1047,1068,1088,1106,1127,1148,1168,1188,1208,1227,1247,1269,1288,1306,1326,1347,1367,1386,1406,1426,1448,1466,1486,1507,1527,1547,1567,1586,1607,1628,1646,1668,1687,1707,1727,1747,1767,1787,1808,1827,1847,1867,1886,1907,1927,1946,1967,1987,2006,2027,2047,2067,2087,2107,2127,2146,2166,2187,2207,2227,2248],"xSR":741.5,"ySR":469.95,"xT1":424.9,"yT1":0,"xT2":1058.1,"yT2":0,"toosoon":0,"cond_shown":"Congruent","ratio_trial":100,"L_num":6,"L_den":20,"R_num":5,"R_den":25,"correct_side":1,"subjID":"sarahsofiacastañedamartinez34","gender":"1","school":"6","age":"11"},{"start_time":1551883106934,"click_time":1551883108852,"finger_time":1551883108453,"fix_duration":1279.0324639937362,"trial":23,"RT":1519,"MT":399,"sideResp":2,"stimulus":[],"xmouse":[787,787,787,787,787,787,787,787,787,787,787,787,787,787,787,787,787,787,787,787,787,787,787,787,787,787,787,787,787,787,787,787,787,787,787,787,787,787,787,787,787,787,787,787,787,787,787,787,787,787,787,787,787,787,787,787,787,787,787,787,787,787,787,787,787,787,787,787,787,787,788,789,791,792,796,800,822,837,869,896,921,958,969,973,975,975,977,982,987,990,992,997,999,1004,1017,1041,1106],"ymouse":[493,493,493,493,493,493,493,493,493,493,493,493,493,493,493,493,493,493,493,493,493,493,493,493,493,493,493,493,493,493,493,493,493,493,493,493,493,493,493,493,493,493,493,493,493,493,493,493,493,493,493,493,493,493,493,493,493,493,494,494,494,494,494,494,494,494,494,494,494,494,494,493,492,491,488,484,462,447,409,375,343,273,244,224,213,207,195,186,179,174,166,152,147,141,131,117,89],"timestamp_mouse":[1,31,39,59,79,99,120,138,159,180,200,219,239,259,279,300,318,340,358,379,400,420,439,460,480,498,519,540,559,580,599,618,638,658,680,700,720,740,759,779,799,820,838,860,879,900,918,939,960,980,999,1019,1039,1060,1078,1099,1120,1139,1158,1180,1199,1218,1239,1258,1278,1300,1320,1338,1359,1379,1399,1419,1439,1459,1479,1500,1519,1539,1558,1579,1599,1619,1639,1659,1679,1699,1718,1739,1759,1779,1799,1819,1840,1859,1879,1899,1918],"xSR":741.5,"ySR":469.95,"xT1":424.9,"yT1":0,"xT2":1058.1,"yT2":0,"toosoon":0,"cond_shown":"Incongruent","ratio_trial":200,"L_num":1,"L_den":2,"R_num":3,"R_den":10,"correct_side":1,"subjID":"sarahsofiacastañedamartinez34","gender":"1","school":"6","age":"11"},{"start_time":1551883111666,"click_time":1551883113394,"finger_time":1551883113153,"fix_duration":1391.1683121950236,"trial":24,"RT":1487,"MT":241,"sideResp":2,"stimulus":[],"xmouse":[782,782,782,782,782,782,782,782,782,782,782,782,782,782,782,782,782,782,782,782,782,782,782,782,782,782,782,782,782,782,782,782,782,782,782,782,782,782,782,782,782,782,782,782,782,782,782,782,782,782,782,782,782,782,782,782,782,784,784,784,784,784,784,784,784,784,784,784,784,784,785,792,800,812,838,853,868,884,912,976,1010,1049,1061,1066,1069,1069,1070],"ymouse":[510,510,510,510,510,510,510,510,510,510,510,510,510,510,510,510,510,510,510,510,510,510,510,510,510,510,510,510,510,510,510,510,510,510,510,510,510,510,510,510,510,510,510,510,510,510,510,510,510,510,510,510,510,510,510,510,510,509,509,508,508,508,508,508,508,508,508,508,508,508,508,501,495,487,464,449,429,406,372,286,246,189,163,146,114,103,96],"timestamp_mouse":[10,36,47,68,87,106,127,146,167,186,207,226,248,266,288,307,327,348,368,388,407,427,447,468,487,507,526,548,566,586,607,627,647,668,686,708,727,747,766,787,807,828,846,866,888,906,926,947,966,987,1006,1027,1048,1066,1086,1107,1127,1146,1168,1188,1206,1227,1246,1268,1287,1307,1326,1346,1367,1386,1407,1426,1447,1466,1487,1508,1527,1547,1567,1587,1607,1627,1646,1667,1687,1707,1728],"xSR":741.5,"ySR":469.95,"xT1":424.9,"yT1":0,"xT2":1058.1,"yT2":0,"toosoon":0,"cond_shown":"Congruent","ratio_trial":200,"L_num":3,"L_den":10,"R_num":7,"R_den":14,"correct_side":2,"subjID":"sarahsofiacastañedamartinez34","gender":"1","school":"6","age":"11"},{"start_time":1551883115840,"click_time":1551883117693,"finger_time":1551883117474,"fix_duration":1145.4223312991046,"trial":25,"RT":1634,"MT":219,"sideResp":2,"stimulus":[],"xmouse":[774,774,774,774,774,774,774,774,774,774,774,774,774,774,774,774,774,774,774,774,774,774,774,774,774,774,774,774,774,774,774,774,774,774,774,774,774,774,774,774,774,774,774,774,774,774,774,774,774,774,774,774,774,774,774,774,774,774,774,774,774,774,774,774,774,774,774,774,774,774,774,774,774,775,776,784,787,791,793,796,817,839,868,925,957,999,1017,1035,1053,1069,1092,1098,1099],"ymouse":[508,508,508,508,508,508,508,508,508,508,508,508,508,508,508,508,508,508,508,508,508,508,508,508,508,508,508,508,508,508,508,508,508,508,508,508,508,508,508,508,508,508,508,508,508,508,508,508,508,508,508,508,508,508,508,508,508,508,508,508,508,508,508,508,508,508,508,508,508,508,508,508,508,508,506,502,500,497,495,492,478,462,442,402,377,336,311,280,251,215,146,114,79],"timestamp_mouse":[12,32,52,73,92,114,133,152,174,193,212,233,254,273,294,312,334,353,373,393,414,433,453,472,494,512,533,553,572,593,614,634,654,673,692,713,732,754,772,792,813,832,854,874,893,914,932,954,973,993,1013,1033,1052,1073,1094,1112,1134,1153,1173,1194,1214,1234,1252,1274,1294,1314,1332,1353,1373,1393,1414,1432,1453,1473,1493,1513,1533,1554,1573,1593,1613,1634,1653,1672,1693,1713,1734,1754,1773,1794,1812,1832,1853],"xSR":741.5,"ySR":469.95,"xT1":424.9,"yT1":0,"xT2":1058.1,"yT2":0,"toosoon":0,"cond_shown":"Incongruent","ratio_trial":300,"L_num":4,"L_den":5,"R_num":8,"R_den":16,"correct_side":1,"subjID":"sarahsofiacastañedamartinez34","gender":"1","school":"6","age":"11"},{"start_time":1551883119949,"click_time":1551883122075,"finger_time":1551883121634,"fix_duration":613.4210722270883,"trial":26,"RT":1685,"MT":441,"sideResp":1,"stimulus":[],"xmouse":[798,798,798,798,798,798,798,798,798,798,798,798,798,798,798,798,798,798,798,798,798,798,798,798,798,798,798,798,798,798,798,798,798,798,798,798,798,798,798,798,798,798,798,798,798,798,798,798,798,798,798,798,798,798,798,798,798,798,798,798,798,798,798,798,798,798,798,798,798,798,798,798,798,798,798,798,798,798,798,798,798,799,799,793,787,772,757,726,696,666,606,579,558,546,546,546,546,546,546,546,546,546,546,546,546,546,480],"ymouse":[518,518,518,518,518,518,518,518,518,518,518,518,518,518,518,518,518,518,518,518,518,518,518,518,518,518,518,518,518,518,518,518,518,518,518,518,518,518,518,518,518,518,518,518,518,518,518,518,518,518,518,518,518,518,518,518,518,518,518,518,518,518,518,518,518,518,518,518,518,518,518,518,518,518,518,518,518,518,518,518,518,516,508,488,467,412,353,260,195,146,70,40,15,1,1,1,1,1,1,1,1,1,1,1,1,1,3],"timestamp_mouse":[10,39,45,65,86,105,125,146,165,186,205,226,246,266,286,306,325,345,366,385,405,425,445,465,487,505,526,545,565,586,605,625,646,667,685,706,725,746,765,787,805,825,845,865,887,905,925,945,965,985,1005,1026,1046,1065,1086,1105,1126,1145,1165,1186,1205,1225,1246,1265,1285,1305,1325,1346,1366,1385,1406,1427,1445,1466,1485,1505,1527,1545,1571,1586,1606,1626,1646,1665,1685,1705,1725,1745,1766,1785,1805,1825,1845,1865,1885,1905,1925,1945,1965,1985,2005,2026,2045,2065,2085,2106,2126],"xSR":741.5,"ySR":469.95,"xT1":424.9,"yT1":0,"xT2":1058.1,"yT2":0,"toosoon":0,"cond_shown":"Incongruent","ratio_trial":200,"L_num":14,"L_den":30,"R_num":12,"R_den":18,"correct_side":2,"subjID":"sarahsofiacastañedamartinez34","gender":"1","school":"6","age":"11"},{"start_time":1551883124235,"click_time":1551883125755,"finger_time":1551883125414,"fix_duration":458.09875094651153,"trial":27,"RT":1179,"MT":341,"sideResp":1,"stimulus":[],"xmouse":[802,802,802,802,802,802,802,802,802,802,802,802,802,802,802,802,802,802,802,802,802,802,802,802,802,802,802,802,802,802,802,802,802,802,802,802,802,802,802,802,802,802,802,802,802,802,802,802,802,802,802,802,802,802,802,802,802,795,785,776,764,739,726,712,706,705,705,705,704,702,699,682,668,632,605,577,524],"ymouse":[501,501,501,501,501,501,501,501,501,501,501,501,501,501,501,501,501,501,501,501,501,501,501,501,501,501,501,501,501,501,501,501,501,501,501,501,501,501,501,501,501,501,501,501,501,501,501,501,501,501,501,501,501,501,501,501,498,486,473,460,441,401,382,365,360,359,359,359,358,355,349,324,303,253,212,160,53],"timestamp_mouse":[1,32,39,59,79,101,120,139,159,179,199,219,239,259,279,300,319,339,361,379,399,420,439,459,480,499,521,540,561,580,600,621,640,659,681,700,720,740,760,779,799,820,841,860,879,899,919,940,959,979,999,1019,1039,1060,1079,1100,1119,1140,1159,1179,1200,1219,1239,1259,1280,1299,1319,1340,1359,1380,1400,1419,1439,1459,1479,1500,1519],"xSR":741.5,"ySR":469.95,"xT1":424.9,"yT1":0,"xT2":1058.1,"yT2":0,"toosoon":0,"cond_shown":"Congruent","ratio_trial":100,"L_num":11,"L_den":22,"R_num":4,"R_den":10,"correct_side":1,"subjID":"sarahsofiacastañedamartinez34","gender":"1","school":"6","age":"11"},{"start_time":1551883129579,"click_time":1551883131854,"finger_time":1551883131354,"fix_duration":1223.4636013143197,"trial":28,"RT":1775,"MT":500,"sideResp":1,"stimulus":[],"xmouse":[800,800,800,800,800,800,800,800,800,800,800,800,800,800,800,800,800,800,800,800,800,800,800,800,800,800,800,800,800,800,800,800,800,800,800,800,800,800,800,800,800,800,800,800,800,800,800,800,800,800,800,800,800,800,800,800,800,800,800,800,800,800,800,800,800,800,800,800,800,800,800,800,800,800,800,800,800,800,800,800,800,800,800,800,800,797,790,776,738,716,697,678,642,627,621,611,607,603,591,583,575,569,562,536,518,497,490,486,484,483,481,480,479,475],"ymouse":[529,529,529,529,529,529,529,529,529,529,529,529,529,529,529,529,529,529,529,529,529,529,529,529,529,529,529,529,529,529,529,529,529,529,529,529,529,529,529,529,529,529,529,529,529,529,529,529,529,529,529,529,529,529,529,529,529,529,529,529,529,529,529,529,529,529,529,529,529,529,529,529,529,529,529,529,529,529,529,529,529,529,529,529,529,529,519,504,465,447,429,409,359,324,312,280,263,246,210,194,181,170,158,139,133,127,122,119,114,111,107,105,104,91],"timestamp_mouse":[15,40,55,76,96,115,135,155,176,195,216,237,256,276,296,315,335,355,376,395,417,436,455,476,495,515,536,555,575,596,617,636,656,675,695,715,735,756,777,796,815,835,856,875,895,917,935,956,975,996,1016,1036,1056,1075,1095,1116,1136,1155,1177,1195,1216,1235,1255,1277,1295,1315,1335,1356,1375,1395,1416,1435,1456,1476,1495,1515,1535,1555,1576,1597,1615,1636,1657,1675,1695,1716,1735,1755,1775,1795,1815,1835,1857,1876,1896,1915,1936,1955,1975,1996,2015,2035,2055,2075,2095,2115,2136,2156,2175,2195,2215,2235,2256,2275],"xSR":741.5,"ySR":469.95,"xT1":424.9,"yT1":0,"xT2":1058.1,"yT2":0,"toosoon":0,"cond_shown":"Incongruent","ratio_trial":100,"L_num":12,"L_den":30,"R_num":2,"R_den":4,"correct_side":2,"subjID":"sarahsofiacastañedamartinez34","gender":"1","school":"6","age":"11"},{"start_time":1551883133315,"click_time":1551883135495,"finger_time":1551883135334,"fix_duration":260.2250996663613,"trial":29,"RT":2019,"MT":161,"sideResp":2,"stimulus":[],"xmouse":[765,765,765,765,765,765,765,765,765,765,765,765,765,765,765,765,765,765,765,765,765,765,765,765,765,765,765,765,765,765,765,765,765,765,765,765,765,765,765,765,765,765,765,765,765,765,765,765,765,765,765,765,765,765,765,765,765,765,765,765,765,765,765,765,765,765,765,765,765,765,765,765,765,765,765,765,769,771,772,773,774,779,781,784,788,790,792,792,792,792,792,792,792,792,792,794,796,802,812,828,849,901,930,959,993,1028,1083,1100,1111],"ymouse":[538,538,538,538,538,538,538,538,538,538,538,538,538,538,538,538,538,538,538,538,538,538,538,538,538,538,538,538,538,538,538,538,538,538,538,538,538,538,538,538,538,538,538,538,538,538,538,538,538,538,538,538,538,538,538,538,538,538,538,538,538,538,538,538,538,538,538,538,538,538,538,538,538,538,537,536,534,533,532,531,531,527,525,523,521,520,518,518,518,518,518,518,518,518,518,517,516,513,506,497,484,444,413,378,331,273,166,113,50],"timestamp_mouse":[19,39,60,80,100,120,140,159,179,200,219,240,260,281,300,319,339,359,380,400,419,439,459,480,499,519,541,560,580,601,619,639,660,680,700,720,739,760,779,799,819,840,860,879,900,919,941,959,980,1000,1019,1041,1059,1079,1099,1121,1139,1159,1179,1201,1219,1239,1259,1279,1300,1319,1339,1359,1379,1400,1419,1440,1459,1480,1499,1520,1540,1560,1579,1600,1619,1639,1659,1679,1699,1720,1739,1759,1780,1800,1820,1839,1859,1879,1901,1919,1939,1959,1979,1999,2019,2039,2060,2079,2099,2120,2139,2159,2180],"xSR":741.5,"ySR":469.95,"xT1":424.9,"yT1":0,"xT2":1058.1,"yT2":0,"toosoon":0,"cond_shown":"Congruent","ratio_trial":200,"L_num":3,"L_den":10,"R_num":14,"R_den":28,"correct_side":2,"subjID":"sarahsofiacastañedamartinez34","gender":"1","school":"6","age":"11"},{"start_time":1551883137847,"click_time":1551883139615,"finger_time":1551883139494,"fix_duration":1371.2060609542932,"trial":30,"RT":1647,"MT":121,"sideResp":1,"stimulus":[],"xmouse":[787,787,787,787,787,787,787,787,787,787,787,787,787,787,787,787,787,787,787,787,787,787,787,787,787,787,787,787,787,787,787,787,787,787,787,787,787,787,787,787,787,787,787,787,787,787,787,787,787,787,787,787,787,787,787,787,787,787,785,784,781,778,777,776,775,775,775,775,775,775,775,775,775,775,775,775,775,775,773,772,763,752,730,710,680,595,552,517,499],"ymouse":[518,518,518,518,518,518,518,518,518,518,518,518,518,518,518,518,518,518,518,518,518,518,518,518,518,518,518,518,518,518,518,518,518,518,518,518,518,518,518,518,518,518,518,518,518,518,518,518,518,518,518,518,518,518,518,518,518,518,516,516,511,507,506,505,505,503,503,503,503,503,503,503,503,503,503,503,503,503,501,500,486,472,442,415,369,248,183,134,97],"timestamp_mouse":[10,37,48,67,87,107,127,147,168,187,207,227,248,269,288,307,327,347,368,388,409,428,448,468,487,507,527,547,567,588,607,628,647,668,687,707,727,748,767,787,807,827,847,867,887,907,928,947,968,988,1009,1027,1047,1067,1088,1109,1127,1147,1168,1187,1207,1228,1247,1267,1287,1307,1329,1347,1368,1388,1408,1428,1448,1467,1489,1507,1527,1547,1567,1587,1608,1627,1647,1667,1687,1707,1729,1747,1767],"xSR":741.5,"ySR":469.95,"xT1":424.9,"yT1":0,"xT2":1058.1,"yT2":0,"toosoon":0,"cond_shown":"Incongruent","ratio_trial":200,"L_num":11,"L_den":20,"R_num":3,"R_den":4,"correct_side":2,"subjID":"sarahsofiacastañedamartinez34","gender":"1","school":"6","age":"11"},{"start_time":1551883141327,"click_time":1551883143954,"finger_time":1551883141934,"fix_duration":250,"trial":31,"RT":607,"MT":2020,"sideResp":2,"stimulus":[],"xmouse":[793,793,793,793,793,793,793,793,793,793,793,793,793,793,793,793,793,793,793,793,793,793,793,793,793,793,794,797,811,822,836,850,850,850,850,850,850,850,850,850,850,850,850,850,850,850,850,850,850,850,850,846,837,821,802,786,777,777,777,777,777,777,777,777,777,777,780,784,785,785,785,785,785,785,785,785,785,785,785,785,785,786,786,786,786,786,786,786,786,786,786,786,786,786,786,786,786,786,786,786,786,786,786,786,786,786,786,786,787,792,801,837,869,911,950,972,999,1011,1014,1018,1021,1026,1031,1034,1036,1039,1041,1043,1045,1048,1056,1064],"ymouse":[523,523,523,523,523,523,523,523,523,523,523,523,523,523,523,523,523,523,523,523,523,523,523,523,523,523,523,520,497,477,453,433,433,433,433,433,433,433,433,433,433,433,433,433,433,433,433,433,433,433,433,435,442,451,462,473,481,481,481,481,481,481,482,482,482,482,482,482,482,482,482,482,482,482,482,482,482,482,482,482,482,482,482,482,482,482,482,482,482,482,482,482,482,482,482,482,482,482,482,482,482,482,482,482,482,482,482,482,482,474,462,416,381,338,301,277,235,214,202,193,184,162,145,130,115,100,92,89,87,85,78,71],"timestamp_mouse":[9,40,48,68,88,107,127,147,167,189,207,227,247,269,287,308,327,349,368,389,408,427,447,469,488,508,528,547,567,587,607,628,647,667,687,707,728,748,767,787,808,828,847,867,887,907,927,947,969,988,1008,1028,1048,1067,1087,1108,1127,1147,1168,1187,1208,1227,1247,1268,1289,1308,1327,1347,1368,1388,1408,1429,1447,1467,1487,1508,1527,1548,1568,1587,1607,1627,1648,1668,1687,1707,1727,1747,1769,1788,1809,1827,1847,1869,1887,1908,1927,1948,1967,1988,2007,2027,2047,2067,2087,2107,2128,2147,2168,2187,2207,2227,2247,2267,2288,2308,2327,2347,2367,2387,2408,2427,2447,2467,2488,2508,2527,2547,2568,2588,2609,2627],"xSR":741.5,"ySR":469.95,"xT1":424.9,"yT1":0,"xT2":1058.1,"yT2":0,"toosoon":0,"cond_shown":"Incongruent","ratio_trial":100,"L_num":3,"L_den":6,"R_num":4,"R_den":10,"correct_side":1,"subjID":"sarahsofiacastañedamartinez34","gender":"1","school":"6","age":"11"},{"start_time":1551883146360,"click_time":1551883147974,"finger_time":1551883147515,"fix_duration":1084.9505524043134,"trial":32,"RT":1155,"MT":459,"sideResp":1,"stimulus":[],"xmouse":[791,791,791,791,791,791,791,791,791,791,791,791,791,791,791,791,791,791,791,791,791,791,791,791,791,791,791,791,791,791,791,791,791,791,791,791,791,791,791,791,791,791,791,791,791,791,791,791,791,791,790,789,788,786,783,781,775,767,758,718,688,661,639,624,612,610,608,607,607,607,607,605,604,598,583,578,575,572,565,532,515],"ymouse":[537,537,537,537,537,537,537,537,537,537,537,537,537,537,537,537,537,537,537,537,537,537,537,537,537,537,537,537,537,537,537,537,537,537,537,537,537,537,537,537,537,537,537,537,537,537,537,537,537,537,535,533,529,527,520,516,492,467,430,329,271,223,186,160,134,129,124,122,122,121,121,120,120,117,111,109,108,106,105,99,96],"timestamp_mouse":[15,34,54,74,94,115,134,155,176,194,214,234,254,275,294,314,334,355,374,396,414,434,455,474,494,515,534,555,574,594,614,634,654,675,694,714,735,755,774,796,814,836,854,874,895,914,934,955,974,994,1014,1034,1054,1075,1094,1114,1134,1155,1174,1194,1214,1234,1254,1275,1294,1314,1334,1356,1375,1395,1415,1434,1454,1474,1494,1515,1534,1555,1574,1594,1614],"xSR":741.5,"ySR":469.95,"xT1":424.9,"yT1":0,"xT2":1058.1,"yT2":0,"toosoon":0,"cond_shown":"Incongruent","ratio_trial":200,"L_num":11,"L_den":20,"R_num":3,"R_den":4,"correct_side":2,"subjID":"sarahsofiacastañedamartinez34","gender":"1","school":"6","age":"11"},{"start_time":1551883150161,"click_time":1551883152254,"finger_time":1551883152155,"fix_duration":926.1569753775605,"trial":33,"RT":1994,"MT":99,"sideResp":2,"stimulus":[],"xmouse":[790,790,790,790,790,790,790,790,790,790,790,790,790,790,790,790,790,790,790,790,790,790,790,790,790,790,790,790,790,790,790,790,790,790,790,790,790,790,790,790,790,790,790,790,790,790,790,790,790,790,790,790,790,790,790,790,790,790,790,790,790,790,790,790,790,790,790,790,790,790,790,790,790,790,790,790,790,790,790,790,790,790,790,790,790,790,790,790,790,790,790,790,790,790,790,790,793,803,824,921,987,1053,1098,1120,1138],"ymouse":[511,511,511,511,511,511,511,511,511,511,511,511,511,511,511,511,511,511,511,511,511,511,511,511,511,511,511,511,511,511,511,511,511,511,511,511,511,511,511,511,511,511,511,511,511,511,511,511,511,511,511,511,511,511,511,511,511,511,511,511,511,511,511,511,511,511,511,511,511,511,511,511,511,511,511,511,511,511,511,511,511,511,511,511,511,511,511,511,511,511,511,511,511,511,511,511,507,501,486,400,322,244,181,142,86],"timestamp_mouse":[14,42,53,73,95,114,134,154,174,194,213,233,254,273,293,313,333,353,375,393,414,433,454,473,494,513,533,553,573,593,613,633,653,673,693,714,734,753,773,793,813,834,853,873,893,914,933,953,974,993,1013,1033,1055,1074,1093,1113,1133,1153,1174,1193,1214,1234,1253,1274,1293,1314,1333,1353,1373,1395,1413,1433,1455,1474,1493,1514,1535,1555,1573,1593,1614,1633,1654,1673,1693,1713,1735,1753,1774,1793,1813,1834,1855,1874,1893,1913,1934,1954,1973,1994,2015,2033,2053,2073,2093],"xSR":741.5,"ySR":469.95,"xT1":424.9,"yT1":0,"xT2":1058.1,"yT2":0,"toosoon":0,"cond_shown":"Congruent","ratio_trial":200,"L_num":3,"L_den":12,"R_num":9,"R_den":20,"correct_side":2,"subjID":"sarahsofiacastañedamartinez34","gender":"1","school":"6","age":"11"},{"start_time":1551883154333,"click_time":1551883155155,"finger_time":1551883154915,"fix_duration":776.9963692149637,"trial":34,"RT":582,"MT":240,"sideResp":2,"stimulus":[],"xmouse":[817,818,818,820,820,820,820,820,820,820,820,820,820,820,820,820,820,820,820,820,820,820,820,820,820,820,821,824,835,844,856,877,882,886,890,897,929,968,1000,1032,1055,1096],"ymouse":[499,497,497,495,495,495,495,494,494,494,494,494,494,494,494,494,494,494,494,494,494,494,494,494,494,494,493,488,474,461,445,413,400,386,375,359,310,257,213,167,129,55],"timestamp_mouse":[1,35,41,62,82,101,121,142,161,183,201,221,243,262,281,301,322,341,361,381,401,421,441,461,482,501,521,542,561,582,601,621,641,661,681,701,721,741,761,781,801,821],"xSR":741.5,"ySR":469.95,"xT1":424.9,"yT1":0,"xT2":1058.1,"yT2":0,"toosoon":0,"cond_shown":"Congruent","ratio_trial":300,"L_num":1,"L_den":5,"R_num":11,"R_den":22,"correct_side":2,"subjID":"sarahsofiacastañedamartinez34","gender":"1","school":"6","age":"11"},{"start_time":1551883157499,"click_time":1551883158836,"finger_time":1551883157974,"fix_duration":1023.2160157790609,"trial":35,"RT":475,"MT":862,"sideResp":2,"stimulus":[],"xmouse":[807,807,807,807,807,807,807,807,807,807,807,807,807,807,807,807,807,807,807,807,807,808,810,811,811,811,812,814,815,816,816,818,827,832,840,846,849,855,858,863,868,873,884,889,895,902,912,935,957,965,983,994,1016,1027,1039,1050,1054,1064,1076,1088,1099,1104,1106,1107,1107,1108,1108],"ymouse":[473,473,473,473,473,473,473,473,473,473,473,473,473,473,473,473,473,473,473,473,473,473,470,469,469,469,467,464,463,461,460,456,443,433,422,413,406,393,385,374,368,358,341,333,322,313,299,272,246,237,215,200,174,164,155,149,147,140,129,120,112,108,106,105,105,102,94],"timestamp_mouse":[15,37,56,76,96,115,136,155,175,195,215,235,256,275,296,315,336,355,376,395,415,436,455,475,496,515,536,555,575,595,615,636,655,675,695,716,735,755,775,797,816,835,856,875,895,916,935,955,975,996,1015,1035,1055,1076,1096,1115,1136,1155,1176,1195,1215,1236,1255,1276,1296,1317,1337],"xSR":741.5,"ySR":469.95,"xT1":424.9,"yT1":0,"xT2":1058.1,"yT2":0,"toosoon":0,"cond_shown":"Incongruent","ratio_trial":300,"L_num":4,"L_den":5,"R_num":6,"R_den":12,"correct_side":1,"subjID":"sarahsofiacastañedamartinez34","gender":"1","school":"6","age":"11"},{"start_time":1551883165189,"click_time":1551883167276,"finger_time":1551883166895,"fix_duration":1333.4451086387837,"trial":36,"RT":1706,"MT":381,"sideResp":2,"stimulus":[],"xmouse":[786,786,786,786,786,786,786,786,786,786,786,786,786,786,786,786,786,786,786,786,786,786,786,786,786,786,786,786,786,786,786,786,786,786,786,786,786,786,786,786,786,786,786,786,786,786,786,786,786,786,786,786,786,786,786,786,786,786,786,786,786,786,786,786,786,786,786,786,786,786,786,786,786,786,786,786,786,786,786,786,786,786,790,817,830,871,910,950,1014,1038,1056,1067,1078,1095,1101,1108,1108,1108,1102,1098,1097,1097,1096,1096,1096],"ymouse":[498,498,498,498,498,498,498,498,498,498,498,498,498,498,498,498,498,498,498,498,498,498,498,498,498,498,498,498,498,498,498,498,498,498,498,498,498,498,498,498,498,498,498,498,498,498,498,498,498,498,498,498,498,498,498,498,498,498,498,498,498,498,498,498,498,498,498,498,498,498,498,498,498,498,498,498,498,498,498,498,498,498,494,479,472,444,413,379,318,298,281,269,253,218,199,172,156,142,116,108,105,104,102,100,97],"timestamp_mouse":[10,32,46,65,85,107,125,145,165,185,206,226,245,265,286,305,326,345,365,385,405,426,445,465,486,505,526,546,566,585,605,625,645,665,686,706,727,745,765,786,805,827,846,866,885,906,925,945,965,985,1005,1025,1045,1066,1085,1106,1125,1146,1165,1186,1205,1226,1245,1267,1285,1306,1326,1345,1366,1385,1405,1426,1445,1466,1485,1505,1526,1545,1565,1585,1606,1625,1646,1665,1686,1706,1726,1745,1766,1785,1805,1826,1846,1865,1886,1905,1925,1945,1965,1985,2005,2026,2047,2066,2086],"xSR":741.5,"ySR":469.95,"xT1":424.9,"yT1":0,"xT2":1058.1,"yT2":0,"toosoon":0,"cond_shown":"Incongruent","ratio_trial":300,"L_num":3,"L_den":6,"R_num":4,"R_den":20,"correct_side":1,"subjID":"sarahsofiacastañedamartinez34","gender":"1","school":"6","age":"11"},{"start_time":1551883169315,"click_time":1551883170556,"finger_time":1551883170334,"fix_duration":419.02942257022204,"trial":37,"RT":1019,"MT":222,"sideResp":2,"stimulus":[],"xmouse":[806,806,806,807,807,807,807,807,807,807,807,807,807,807,807,807,807,807,807,807,807,807,807,807,807,807,807,807,807,807,807,807,807,807,807,807,807,807,807,807,807,807,807,808,808,810,811,814,816,818,821,825,847,861,881,907,935,1003,1044,1083,1098,1108,1117],"ymouse":[498,498,498,498,498,498,498,498,498,498,498,498,498,498,498,498,498,498,498,498,498,498,498,498,498,498,498,498,498,498,498,498,498,498,498,498,498,498,498,498,498,498,498,496,494,492,490,484,482,478,473,466,436,412,380,343,304,224,186,149,132,114,96],"timestamp_mouse":[1,20,39,59,80,99,120,140,159,179,199,221,239,259,279,299,320,339,359,379,400,420,441,459,479,499,519,540,560,580,600,621,640,660,679,699,720,740,761,779,801,820,840,860,880,899,920,939,959,979,999,1019,1039,1059,1080,1100,1119,1139,1159,1180,1199,1220,1241],"xSR":741.5,"ySR":469.95,"xT1":424.9,"yT1":0,"xT2":1058.1,"yT2":0,"toosoon":0,"cond_shown":"Congruent","ratio_trial":300,"L_num":1,"L_den":5,"R_num":11,"R_den":22,"correct_side":2,"subjID":"sarahsofiacastañedamartinez34","gender":"1","school":"6","age":"11"},{"start_time":1551883172309,"click_time":1551883173995,"finger_time":1551883173874,"fix_duration":632.2536729042587,"trial":38,"RT":1565,"MT":121,"sideResp":2,"stimulus":[],"xmouse":[808,808,808,808,808,808,808,808,808,808,808,808,808,808,808,808,808,808,808,808,808,808,808,808,808,808,808,808,808,808,808,808,808,808,808,808,808,808,808,808,808,808,808,808,808,808,808,808,808,808,808,808,808,808,808,808,808,808,808,808,808,808,808,808,808,808,808,808,808,808,808,808,808,808,809,810,814,832,855,879,904,940,1028,1072,1102],"ymouse":[549,549,549,549,549,549,549,549,549,549,549,549,549,549,549,549,549,549,549,549,549,549,549,549,549,549,549,549,549,549,549,549,549,549,549,549,549,549,549,549,549,549,549,549,549,549,549,549,549,549,549,549,549,549,549,549,549,549,549,549,549,549,549,549,549,549,549,549,549,549,549,549,549,549,546,545,538,513,477,435,387,321,174,101,51],"timestamp_mouse":[10,25,45,65,85,105,126,145,165,186,206,225,245,267,286,305,325,345,366,385,407,426,445,465,486,505,525,545,565,585,606,625,646,665,685,705,725,746,766,787,806,826,845,866,885,906,925,945,965,986,1005,1026,1045,1066,1086,1105,1125,1145,1166,1186,1207,1225,1245,1266,1286,1307,1325,1345,1365,1385,1407,1425,1446,1467,1486,1505,1526,1545,1565,1585,1605,1625,1645,1666,1685],"xSR":741.5,"ySR":469.95,"xT1":424.9,"yT1":0,"xT2":1058.1,"yT2":0,"toosoon":0,"cond_shown":"Congruent","ratio_trial":200,"L_num":7,"L_den":15,"R_num":18,"R_den":27,"correct_side":2,"subjID":"sarahsofiacastañedamartinez34","gender":"1","school":"6","age":"11"},{"start_time":1551883176673,"click_time":1551883178854,"finger_time":1551883178396,"fix_duration":1497.1001436207716,"trial":39,"RT":1723,"MT":458,"sideResp":2,"stimulus":[],"xmouse":[790,790,790,790,790,790,790,790,790,790,790,790,790,790,790,790,790,790,790,790,790,790,790,790,790,790,790,790,790,790,790,790,790,790,790,790,790,790,790,790,790,790,790,790,790,790,790,790,790,790,790,790,790,790,790,790,790,790,790,790,790,790,790,790,790,790,790,790,790,790,790,790,790,790,790,790,790,790,790,790,790,790,790,788,800,811,824,834,842,854,865,893,917,942,988,1005,1017,1030,1042,1056,1062,1063,1064,1065,1067,1070,1074,1078,1084,1092],"ymouse":[515,515,515,515,515,515,515,515,515,515,515,515,515,515,515,515,515,515,515,515,515,515,515,515,515,515,515,515,515,515,515,515,515,515,515,515,515,515,515,515,515,515,515,515,515,515,515,515,515,515,515,515,515,515,515,515,515,515,515,515,515,515,515,515,515,515,515,515,515,515,515,515,515,515,515,515,515,515,515,515,515,515,515,515,496,483,468,457,445,423,406,368,339,309,258,239,220,203,186,162,152,149,145,143,135,129,122,115,106,96],"timestamp_mouse":[8,33,42,62,81,102,122,142,161,181,201,221,241,261,281,301,322,342,361,381,401,421,442,461,481,501,522,542,562,581,601,622,641,661,681,701,721,741,761,781,802,821,843,861,881,901,922,943,961,981,1001,1022,1041,1061,1081,1102,1122,1142,1162,1183,1201,1221,1241,1261,1282,1301,1321,1341,1362,1381,1402,1422,1442,1461,1481,1501,1523,1541,1563,1581,1602,1622,1642,1661,1681,1701,1723,1741,1761,1781,1802,1821,1842,1862,1881,1901,1921,1941,1961,1981,2004,2021,2042,2061,2081,2101,2121,2141,2162,2181],"xSR":741.5,"ySR":469.95,"xT1":424.9,"yT1":0,"xT2":1058.1,"yT2":0,"toosoon":0,"cond_shown":"Incongruent","ratio_trial":100,"L_num":1,"L_den":2,"R_num":8,"R_den":20,"correct_side":1,"subjID":"sarahsofiacastañedamartinez34","gender":"1","school":"6","age":"11"},{"start_time":1551883181728,"click_time":1551883184036,"finger_time":1551883183555,"fix_duration":791.8313876285843,"trial":40,"RT":1827,"MT":481,"sideResp":1,"stimulus":[],"xmouse":[797,797,797,797,797,797,797,797,797,797,797,797,797,797,797,797,797,797,797,797,797,797,797,797,797,797,798,799,799,799,799,799,799,799,799,799,799,799,799,799,799,799,799,799,799,799,799,799,799,799,799,799,799,799,799,799,799,799,799,799,799,799,799,799,799,799,799,799,799,799,799,799,799,799,799,799,799,799,799,799,799,799,799,799,799,799,799,799,799,798,793,776,768,761,752,745,726,715,694,678,666,645,635,625,611,599,585,578,573,560,550,530,526,523,521,518],"ymouse":[511,511,511,511,511,511,511,511,511,511,511,511,511,511,511,511,511,509,508,508,508,508,508,508,508,508,505,504,503,503,503,503,503,503,503,503,503,503,503,503,503,503,503,503,503,503,503,503,503,503,503,503,503,503,503,503,503,503,503,503,503,503,503,503,503,503,503,503,503,503,503,503,503,503,503,503,503,503,503,503,503,503,503,503,503,503,503,503,499,494,486,462,451,438,421,402,361,341,315,295,281,258,246,237,226,214,194,183,174,156,145,126,119,112,104,99],"timestamp_mouse":[10,40,48,68,87,107,127,147,167,187,209,228,247,267,287,307,327,347,368,387,407,427,447,467,487,507,527,547,567,588,608,627,648,667,688,708,727,748,768,787,807,827,848,867,889,907,927,947,968,988,1007,1027,1047,1068,1088,1109,1127,1147,1167,1188,1207,1227,1249,1267,1287,1307,1327,1349,1367,1388,1407,1427,1447,1468,1487,1507,1527,1547,1568,1587,1608,1627,1647,1667,1687,1708,1727,1748,1768,1787,1807,1827,1847,1868,1887,1907,1927,1948,1967,1987,2008,2028,2047,2068,2087,2108,2127,2148,2168,2187,2207,2227,2247,2267,2287,2308],"xSR":741.5,"ySR":469.95,"xT1":424.9,"yT1":0,"xT2":1058.1,"yT2":0,"toosoon":0,"cond_shown":"Incongruent","ratio_trial":100,"L_num":12,"L_den":24,"R_num":9,"R_den":15,"correct_side":2,"subjID":"sarahsofiacastañedamartinez34","gender":"1","school":"6","age":"11"},{"start_time":1551883186351,"click_time":1551883187795,"finger_time":1551883187256,"fix_duration":935.3036109901775,"trial":41,"RT":905,"MT":539,"sideResp":2,"stimulus":[],"xmouse":[760,760,760,760,760,760,760,760,760,760,760,760,760,760,760,760,760,760,760,760,760,760,760,760,760,760,760,760,760,760,760,760,760,760,760,760,760,760,760,764,773,779,785,791,804,839,892,933,969,997,1024,1032,1038,1047,1057,1073,1078,1080,1082,1083,1084,1085,1085,1085,1085,1084,1083,1083,1083,1082,1078,1077,1074],"ymouse":[517,517,517,517,517,517,517,517,517,517,517,517,517,517,517,517,517,517,517,517,517,517,517,517,517,517,517,517,517,517,517,517,517,517,517,517,517,517,517,516,507,500,493,486,472,438,401,372,347,329,303,294,284,273,262,238,226,220,213,209,199,194,190,187,185,180,172,164,155,145,120,108,98],"timestamp_mouse":[11,36,45,64,85,104,125,145,164,184,204,224,245,264,284,304,324,344,365,385,404,424,445,464,485,504,524,545,565,584,604,624,646,665,685,704,725,744,765,784,804,825,845,864,884,904,924,944,964,984,1004,1025,1044,1064,1084,1104,1124,1144,1165,1184,1204,1224,1244,1264,1284,1304,1324,1344,1364,1384,1404,1426,1444],"xSR":741.5,"ySR":469.95,"xT1":424.9,"yT1":0,"xT2":1058.1,"yT2":0,"toosoon":0,"cond_shown":"Congruent","ratio_trial":200,"L_num":5,"L_den":10,"R_num":14,"R_den":20,"correct_side":2,"subjID":"sarahsofiacastañedamartinez34","gender":"1","school":"6","age":"11"},{"start_time":1551883190727,"click_time":1551883192895,"finger_time":1551883192696,"fix_duration":250,"trial":42,"RT":1969,"MT":199,"sideResp":2,"stimulus":[],"xmouse":[784,784,784,784,784,784,784,784,784,784,784,784,784,784,784,784,784,784,784,784,784,784,784,784,784,784,784,784,784,784,784,784,784,784,784,784,784,784,784,784,784,784,784,784,784,784,784,784,784,784,784,784,784,784,784,784,784,784,784,784,784,784,784,784,784,784,784,784,784,784,784,784,784,784,784,784,784,784,784,784,784,784,784,784,784,784,784,784,784,784,784,784,784,786,787,791,802,815,843,860,875,940,982,1016,1041,1054,1061,1063,1067],"ymouse":[554,554,554,554,554,554,554,554,554,554,554,554,554,554,554,554,554,554,554,554,554,554,554,554,554,554,554,554,554,554,554,554,554,554,554,554,554,554,554,554,554,554,554,554,554,554,554,554,554,554,554,554,554,554,554,554,554,554,554,554,554,554,554,554,554,554,554,554,554,554,554,554,554,554,554,554,554,554,554,554,554,554,554,554,554,554,554,554,554,554,554,554,554,553,551,546,528,512,479,456,430,325,261,202,157,130,107,102,95],"timestamp_mouse":[10,42,49,68,88,109,129,149,168,190,209,228,248,268,289,308,329,348,368,388,408,428,448,468,488,510,528,548,568,588,608,629,648,669,689,708,728,748,769,788,808,828,849,869,888,908,928,949,968,988,1008,1028,1049,1068,1089,1108,1128,1148,1168,1188,1208,1228,1248,1269,1289,1309,1329,1348,1368,1389,1408,1428,1450,1469,1489,1509,1528,1549,1568,1590,1609,1628,1648,1668,1689,1709,1729,1749,1768,1789,1809,1828,1848,1869,1888,1909,1928,1948,1969,1988,2008,2029,2048,2068,2089,2108,2128,2148,2168],"xSR":741.5,"ySR":469.95,"xT1":424.9,"yT1":0,"xT2":1058.1,"yT2":0,"toosoon":0,"cond_shown":"Congruent","ratio_trial":300,"L_num":5,"L_den":25,"R_num":6,"R_den":12,"correct_side":2,"subjID":"sarahsofiacastañedamartinez34","gender":"1","school":"6","age":"11"},{"start_time":1551883194711,"click_time":1551883196655,"finger_time":1551883195895,"fix_duration":454.5487492072792,"trial":43,"RT":1184,"MT":760,"sideResp":1,"stimulus":[],"xmouse":[774,774,774,774,774,774,774,774,774,774,774,774,774,774,774,774,774,774,774,774,774,774,774,774,774,774,774,774,774,774,774,774,774,774,774,775,775,775,775,775,775,775,775,775,775,775,775,775,775,775,774,771,766,764,764,764,764,764,762,755,746,735,710,701,694,690,686,677,671,669,666,662,648,641,633,623,617,602,594,580,572,564,552,548,546,545,545,545,545,545,544,544,542,540,538,533,527,509],"ymouse":[502,502,502,502,502,502,502,502,502,502,502,502,502,502,502,502,502,502,502,502,502,502,502,502,502,502,502,502,502,502,502,502,502,502,502,501,500,497,493,492,491,490,490,490,490,490,490,490,490,487,486,483,477,475,475,475,475,474,470,458,445,430,400,390,380,371,361,344,331,321,311,298,268,250,230,208,193,159,144,125,115,104,88,81,79,78,78,78,78,78,78,78,78,77,77,77,77,77],"timestamp_mouse":[10,25,44,64,85,104,125,144,165,184,204,224,244,264,285,305,324,345,365,384,404,424,445,464,484,504,524,544,565,584,604,625,645,664,685,704,725,744,764,784,806,824,844,864,885,906,925,944,964,984,1004,1024,1044,1064,1084,1104,1125,1145,1165,1184,1204,1224,1244,1264,1284,1305,1324,1344,1364,1384,1404,1425,1444,1464,1484,1505,1525,1544,1564,1584,1604,1624,1644,1665,1684,1704,1724,1745,1765,1784,1804,1824,1844,1864,1884,1904,1925,1944],"xSR":741.5,"ySR":469.95,"xT1":424.9,"yT1":0,"xT2":1058.1,"yT2":0,"toosoon":0,"cond_shown":"Congruent","ratio_trial":100,"L_num":10,"L_den":25,"R_num":3,"R_den":10,"correct_side":1,"subjID":"sarahsofiacastañedamartinez34","gender":"1","school":"6","age":"11"},{"start_time":1551883198306,"click_time":1551883200736,"finger_time":1551883200095,"fix_duration":268.1898713401033,"trial":44,"RT":1789,"MT":641,"sideResp":2,"stimulus":[],"xmouse":[792,792,792,792,792,792,792,792,792,792,792,792,792,792,792,792,792,792,792,792,792,792,792,792,792,792,792,792,792,792,792,792,792,792,792,792,792,792,792,792,792,792,792,792,792,792,792,792,792,792,792,792,792,792,792,792,792,792,792,792,792,792,792,792,792,792,792,792,792,792,792,792,792,792,792,792,792,792,792,792,792,792,792,792,792,792,792,799,819,858,882,906,951,967,979,985,992,1008,1018,1032,1036,1037,1037,1037,1039,1041,1043,1050,1055,1056,1057,1057,1057,1059,1063,1069,1072,1076,1079,1084,1095,1109],"ymouse":[526,526,526,526,526,526,526,526,526,526,526,526,526,526,526,526,526,526,526,526,526,526,526,526,526,526,526,526,526,526,526,526,526,526,526,526,526,526,526,526,526,526,526,526,526,526,526,526,526,526,526,526,526,526,526,526,526,526,526,526,526,526,526,526,526,526,526,526,526,526,526,526,526,526,526,526,526,526,526,526,526,526,526,526,526,526,526,522,514,497,486,476,451,435,416,400,382,349,331,299,280,258,220,206,192,181,173,157,146,145,142,142,142,140,137,135,133,130,128,123,111,94],"timestamp_mouse":[10,30,50,70,90,110,129,149,170,189,210,230,249,270,289,310,330,349,370,389,409,429,449,470,490,510,529,549,569,590,609,629,650,670,689,709,730,751,770,789,810,831,849,870,889,909,930,949,970,989,1009,1030,1049,1070,1089,1109,1130,1149,1169,1191,1209,1229,1250,1269,1290,1309,1330,1349,1370,1389,1410,1429,1449,1469,1489,1510,1529,1549,1569,1589,1610,1629,1650,1669,1690,1709,1730,1749,1769,1789,1810,1830,1849,1869,1889,1909,1930,1949,1969,1990,2010,2029,2049,2070,2089,2109,2129,2149,2170,2189,2209,2229,2249,2269,2289,2309,2330,2349,2369,2389,2409,2429],"xSR":741.5,"ySR":469.95,"xT1":424.9,"yT1":0,"xT2":1058.1,"yT2":0,"toosoon":0,"cond_shown":"Congruent","ratio_trial":300,"L_num":1,"L_den":5,"R_num":3,"R_den":6,"correct_side":2,"subjID":"sarahsofiacastañedamartinez34","gender":"1","school":"6","age":"11"},{"start_time":1551883202448,"click_time":1551883203636,"finger_time":1551883202895,"fix_duration":570.6142195531797,"trial":45,"RT":447,"MT":741,"sideResp":2,"stimulus":[],"xmouse":[792,792,792,792,792,792,792,792,792,792,792,792,792,792,792,792,792,792,792,795,817,837,850,856,858,858,858,858,858,858,858,858,858,858,858,858,858,858,858,858,858,858,860,879,897,942,956,965,970,973,974,978,982,983,983,995,1011,1039,1065,1086],"ymouse":[506,506,506,506,506,506,506,506,506,506,506,506,506,506,506,506,506,506,506,503,490,476,464,459,457,456,456,456,456,456,456,456,456,456,456,456,456,456,456,456,456,455,451,432,413,359,335,308,281,252,189,167,153,151,151,143,134,119,105,96],"timestamp_mouse":[10,39,48,69,88,107,127,147,167,187,207,227,248,267,289,308,328,348,368,388,407,427,447,467,487,507,527,548,569,588,607,627,647,667,689,709,728,748,767,787,807,827,847,869,888,907,927,947,967,987,1007,1027,1047,1068,1087,1107,1127,1147,1168,1188],"xSR":741.5,"ySR":469.95,"xT1":424.9,"yT1":0,"xT2":1058.1,"yT2":0,"toosoon":0,"cond_shown":"Congruent","ratio_trial":100,"L_num":1,"L_den":2,"R_num":3,"R_den":5,"correct_side":2,"subjID":"sarahsofiacastañedamartinez34","gender":"1","school":"6","age":"11"},{"start_time":1551883204828,"click_time":1551883205655,"finger_time":1551883205515,"fix_duration":250,"trial":46,"RT":687,"MT":140,"sideResp":1,"stimulus":[],"xmouse":[778,778,778,778,778,778,778,778,778,778,778,778,778,778,778,778,778,778,778,778,779,779,779,779,779,779,779,779,779,779,779,770,762,745,729,711,654,615,574,546,530,521],"ymouse":[536,536,536,536,536,536,536,536,536,536,536,536,536,536,536,536,536,535,534,533,532,532,531,531,531,530,529,529,527,526,524,511,501,479,459,432,348,290,230,175,135,87],"timestamp_mouse":[21,40,47,67,88,108,127,147,169,188,208,228,247,267,287,307,327,348,367,387,407,427,447,467,488,508,527,548,568,587,608,627,647,667,687,707,727,747,767,787,808,827],"xSR":741.5,"ySR":469.95,"xT1":424.9,"yT1":0,"xT2":1058.1,"yT2":0,"toosoon":0,"cond_shown":"Incongruent","ratio_trial":100,"L_num":8,"L_den":16,"R_num":6,"R_den":10,"correct_side":2,"subjID":"sarahsofiacastañedamartinez34","gender":"1","school":"6","age":"11"},{"start_time":1551883207326,"click_time":1551883208175,"finger_time":1551883207895,"fix_duration":250,"trial":47,"RT":569,"MT":280,"sideResp":2,"stimulus":[],"xmouse":[803,803,803,803,803,803,803,803,803,803,803,803,803,803,803,803,803,803,806,808,810,814,815,816,818,820,826,830,842,853,868,899,915,929,948,972,1023,1042,1065,1077,1084,1089,1090],"ymouse":[528,528,528,528,528,528,528,528,528,528,528,528,528,528,528,528,528,528,527,524,520,514,510,508,506,503,492,487,473,463,451,426,412,395,371,338,261,230,181,154,132,106,96],"timestamp_mouse":[10,34,49,69,89,109,129,149,170,189,210,229,251,269,290,309,329,349,369,390,409,429,449,469,489,509,529,549,569,590,610,629,649,669,689,711,729,749,769,789,809,829,849],"xSR":741.5,"ySR":469.95,"xT1":424.9,"yT1":0,"xT2":1058.1,"yT2":0,"toosoon":0,"cond_shown":"Congruent","ratio_trial":100,"L_num":10,"L_den":25,"R_num":3,"R_den":10,"correct_side":1,"subjID":"sarahsofiacastañedamartinez34","gender":"1","school":"6","age":"11"},{"start_time":1551883210398,"click_time":1551883211156,"finger_time":1551883211015,"fix_duration":1320.103324962885,"trial":48,"RT":617,"MT":141,"sideResp":2,"stimulus":[],"xmouse":[773,773,773,773,773,773,773,773,773,773,773,773,773,773,773,773,773,773,773,773,773,773,773,773,773,773,773,784,800,821,843,868,921,970,992,1047,1076,1097],"ymouse":[518,518,518,518,518,518,518,518,518,518,518,518,518,518,518,518,518,518,518,518,518,518,518,518,518,518,518,512,503,490,479,463,412,341,306,207,147,78],"timestamp_mouse":[19,37,57,77,99,117,137,157,178,197,218,237,258,277,298,317,337,357,377,397,418,438,457,477,497,517,537,557,577,597,617,638,657,678,697,717,737,757],"xSR":741.5,"ySR":469.95,"xT1":424.9,"yT1":0,"xT2":1058.1,"yT2":0,"toosoon":0,"cond_shown":"Incongruent","ratio_trial":300,"L_num":1,"L_den":2,"R_num":2,"R_den":10,"correct_side":1,"subjID":"sarahsofiacastañedamartinez34","gender":"1","school":"6","age":"11"},{"start_time":1551883212688,"click_time":1551883213715,"finger_time":1551883213275,"fix_duration":250,"trial":49,"RT":587,"MT":440,"sideResp":1,"stimulus":[],"xmouse":[780,780,780,780,780,780,780,780,777,775,774,774,774,774,774,774,774,774,774,774,774,774,774,774,774,774,774,772,761,749,736,710,687,636,616,602,595,591,586,578,572,567,565,560,559,554,549,547,543,537,529,521],"ymouse":[500,500,500,500,500,500,500,501,501,501,501,501,501,501,501,501,501,501,501,501,501,501,501,501,501,501,501,500,485,469,446,402,355,234,186,149,124,108,90,76,68,62,57,47,45,42,40,40,40,41,43,46],"timestamp_mouse":[10,35,47,67,87,107,127,147,167,187,207,228,248,267,287,309,327,348,367,388,408,428,447,467,489,508,527,547,567,587,607,627,647,667,687,707,727,747,767,787,807,828,847,867,887,907,927,948,967,987,1007,1027],"xSR":741.5,"ySR":469.95,"xT1":424.9,"yT1":0,"xT2":1058.1,"yT2":0,"toosoon":0,"cond_shown":"Incongruent","ratio_trial":100,"L_num":10,"L_den":25,"R_num":8,"R_den":16,"correct_side":2,"subjID":"sarahsofiacastañedamartinez34","gender":"1","school":"6","age":"11"},{"start_time":1551883215338,"click_time":1551883216236,"finger_time":1551883215876,"fix_duration":381.43420414566407,"trial":50,"RT":538,"MT":360,"sideResp":1,"stimulus":[],"xmouse":[786,786,786,786,786,786,786,786,788,790,791,793,795,797,798,799,799,799,799,799,799,799,799,798,793,778,765,735,705,673,613,580,545,545,545,545,545,545,545,545,545,545,545,545,455],"ymouse":[521,521,521,521,521,521,521,521,521,521,522,522,522,522,522,522,522,522,522,522,522,522,517,513,503,476,453,401,348,290,147,72,8,8,8,8,8,8,8,8,8,8,8,8,1],"timestamp_mouse":[30,38,57,78,97,118,137,157,177,197,217,237,258,277,298,318,337,357,377,397,417,437,458,477,497,517,538,558,577,597,617,637,657,677,697,718,737,758,777,798,818,838,857,877,898],"xSR":741.5,"ySR":469.95,"xT1":424.9,"yT1":0,"xT2":1058.1,"yT2":0,"toosoon":0,"cond_shown":"Incongruent","ratio_trial":200,"L_num":6,"L_den":20,"R_num":3,"R_den":6,"correct_side":2,"subjID":"sarahsofiacastañedamartinez34","gender":"1","school":"6","age":"11"},{"start_time":1551883220208,"click_time":1551883222055,"finger_time":1551883221755,"fix_duration":531.0767683778521,"trial":51,"RT":1547,"MT":300,"sideResp":1,"stimulus":[],"xmouse":[805,805,805,805,805,805,805,805,805,805,805,805,805,805,805,805,805,805,805,805,805,805,805,805,805,805,805,805,805,805,805,805,805,805,805,805,805,805,805,805,805,805,805,805,805,805,805,805,805,805,805,805,805,805,805,805,805,805,805,805,805,805,805,805,805,805,805,805,805,805,805,805,805,804,802,797,789,766,750,728,707,680,628,576,561,528,516,503,497,491,485,481,477],"ymouse":[504,504,504,504,504,504,504,504,504,504,504,504,504,504,504,504,504,504,504,504,504,504,504,504,504,504,504,504,504,504,504,504,504,504,504,504,504,504,504,504,504,504,504,504,504,504,504,504,504,504,504,504,504,504,504,504,504,504,504,504,504,504,504,504,504,504,504,504,504,504,504,504,504,504,500,490,479,454,439,420,402,379,333,290,276,243,225,185,163,143,121,100,68],"timestamp_mouse":[10,33,47,67,88,107,128,147,167,187,207,228,248,267,287,307,327,347,368,387,408,428,447,467,489,508,527,549,568,588,607,628,647,667,687,708,728,747,767,789,808,827,847,868,887,908,927,947,968,987,1007,1029,1047,1067,1087,1108,1128,1147,1167,1187,1208,1229,1247,1267,1287,1307,1327,1347,1367,1387,1407,1427,1447,1467,1488,1507,1527,1547,1568,1587,1607,1627,1647,1667,1687,1708,1727,1747,1767,1788,1807,1828,1847],"xSR":741.5,"ySR":469.95,"xT1":424.9,"yT1":0,"xT2":1058.1,"yT2":0,"toosoon":0,"cond_shown":"Incongruent","ratio_trial":300,"L_num":4,"L_den":20,"R_num":2,"R_den":4,"correct_side":2,"subjID":"sarahsofiacastañedamartinez34","gender":"1","school":"6","age":"11"},{"start_time":1551883224453,"click_time":1551883225296,"finger_time":1551883224976,"fix_duration":1116.8084350376594,"trial":52,"RT":523,"MT":320,"sideResp":2,"stimulus":[],"xmouse":[808,808,808,808,808,808,808,808,808,808,808,808,808,808,808,808,808,808,808,808,808,808,808,808,809,835,863,912,978,1033,1115,1139,1161,1170,1176,1179,1178,1177,1177,1177,1177,1172,1156],"ymouse":[507,507,507,507,507,507,507,507,507,507,507,507,507,507,507,507,507,507,507,507,507,507,507,507,507,487,465,430,385,343,247,202,136,98,68,38,35,34,34,34,34,34,34],"timestamp_mouse":[9,32,42,62,82,102,123,142,162,182,202,222,242,263,283,302,322,342,363,383,402,423,443,463,482,503,523,542,563,583,602,622,642,662,683,703,722,743,763,783,802,823,842],"xSR":741.5,"ySR":469.95,"xT1":424.9,"yT1":0,"xT2":1058.1,"yT2":0,"toosoon":0,"cond_shown":"Congruent","ratio_trial":200,"L_num":1,"L_den":2,"R_num":21,"R_den":30,"correct_side":2,"subjID":"sarahsofiacastañedamartinez34","gender":"1","school":"6","age":"11"},{"start_time":1551883226707,"click_time":1551883227636,"finger_time":1551883227496,"fix_duration":250,"trial":53,"RT":789,"MT":140,"sideResp":2,"stimulus":[],"xmouse":[827,827,827,827,827,827,827,827,827,826,826,826,826,826,826,826,826,826,826,826,825,825,831,832,833,833,833,833,833,833,833,833,833,833,833,833,833,833,840,858,885,928,1021,1058,1082,1091,1096],"ymouse":[529,529,529,529,529,529,529,529,529,529,529,529,529,529,529,529,529,529,529,529,528,522,509,505,504,502,502,502,502,502,502,502,502,502,502,502,502,502,492,474,450,413,308,244,185,140,99],"timestamp_mouse":[10,34,48,69,88,109,129,148,169,189,208,230,249,268,289,308,328,349,369,389,408,428,448,468,489,508,528,548,568,590,608,629,648,668,690,708,729,749,768,789,809,829,849,868,889,908,929],"xSR":741.5,"ySR":469.95,"xT1":424.9,"yT1":0,"xT2":1058.1,"yT2":0,"toosoon":0,"cond_shown":"Congruent","ratio_trial":200,"L_num":5,"L_den":10,"R_num":14,"R_den":20,"correct_side":2,"subjID":"sarahsofiacastañedamartinez34","gender":"1","school":"6","age":"11"},{"start_time":1551883229828,"click_time":1551883231636,"finger_time":15518832312