[{"start_time":1551891833117,"click_time":1551891834947,"finger_time":1551891834587,"fix_duration":1325.6011126317724,"trial":0,"RT":1470,"MT":360,"sideResp":1,"stimulus":[],"xmouse":[820,820,820,820,820,820,820,820,820,820,820,820,820,820,820,820,820,820,820,820,820,820,820,820,820,820,820,820,820,820,820,820,820,820,820,820,820,820,820,820,820,820,820,820,820,820,820,820,820,820,820,820,820,820,820,820,820,820,820,820,820,820,820,820,820,820,820,820,820,820,820,820,820,815,806,788,737,699,651,651,651,651,651,651,651,651,651,651,651,651,651,482],"ymouse":[508,508,508,508,508,508,508,508,508,508,508,508,508,508,508,508,508,508,508,508,508,508,508,508,508,508,508,508,508,508,508,508,508,508,508,508,508,508,508,508,508,508,508,508,508,508,508,508,508,508,508,508,508,508,508,508,508,508,508,508,508,508,508,508,508,508,508,508,508,508,508,505,485,441,383,308,154,88,20,20,20,20,20,20,20,20,20,20,20,20,20,2],"timestamp_mouse":[9,45,50,71,89,109,130,149,169,190,210,229,250,270,290,310,330,349,371,390,410,430,451,470,490,511,531,551,571,589,611,630,651,671,689,709,730,750,771,790,810,830,851,870,891,911,929,950,969,990,1009,1030,1049,1070,1091,1109,1131,1150,1171,1190,1210,1230,1251,1271,1289,1310,1330,1350,1370,1390,1411,1430,1449,1470,1490,1510,1529,1550,1571,1590,1609,1630,1649,1669,1689,1710,1729,1749,1770,1790,1810,1830],"xSR":741.5,"ySR":469.95,"xT1":424.9,"yT1":0,"xT2":1058.1,"yT2":0,"toosoon":0,"cond_shown":"Congruent","ratio_trial":200,"L_num":12,"L_den":20,"R_num":6,"R_den":15,"correct_side":1,"subjID":"sarasofiagarzonrocha22","gender":"1","age":"11","school":"6","test":{"fix_dur":[250,1500],"timestim":1000,"targets_dim":[100,100],"targets_relative_coord":[0.3,0.7],"size_stim":[880,420],"start_dim":[100,100],"size_start":[300,300],"size_fix":60,"samplingrate":20,"img_types":["Congruent","Incongruent"],"ratios":[100,200,300],"rep_conds":19,"nTrials":120,"trials_to_rest":500,"Trials_order":[2,37,68,96,6,76,89,75,70,13,46,19,14,30,112,10,29,87,107,32,100,15,57,83,51,105,25,1,72,111,21,47,11,44,62,79,63,38,69,34,106,88,104,50,91,48,116,39,33,97,22,23,58,77,71,7,108,110,86,67,41,80,84,4,61,9,103,114,28,59,115,17,65,93,26,60,18,42,5,82,56,99,16,35,73,81,101,49,117,43,102,12,55,8,52,94,85,95,66,64,40,45,24,92,74,98,119,54,53,31,27,109,3,90,118,113,20,36,0,78],"cond_shown":["Congruent","Incongruent","Congruent","Congruent","Congruent","Congruent","Incongruent","Incongruent","Congruent","Incongruent","Congruent","Incongruent","Congruent","Congruent","Congruent","Congruent","Incongruent","Incongruent","Incongruent","Congruent","Congruent","Incongruent","Incongruent","Incongruent","Incongruent","Incongruent","Incongruent","Incongruent","Congruent","Incongruent","Incongruent","Incongruent","Incongruent","Congruent","Congruent","Incongruent","Incongruent","Congruent","Incongruent","Congruent","Congruent","Congruent","Congruent","Congruent","Incongruent","Congruent","Congruent","Incongruent","Incongruent","Incongruent","Congruent","Incongruent","Congruent","Incongruent","Incongruent","Incongruent","Congruent","Congruent","Congruent","Incongruent","Incongruent","Congruent","Congruent","Congruent","Incongruent","Incongruent","Incongruent","Congruent","Congruent","Incongruent","Incongruent","Incongruent","Incongruent","Incongruent","Congruent","Congruent","Congruent","Congruent","Incongruent","Congruent","Congruent","Incongruent","Congruent","Incongruent","Incongruent","Incongruent","Incongruent","Incongruent","Incongruent","Incongruent","Congruent","Congruent","Incongruent","Congruent","Congruent","Congruent","Incongruent","Incongruent","Congruent","Congruent","Congruent","Incongruent","Congruent","Congruent","Congruent","Congruent","Incongruent","Congruent","Incongruent","Incongruent","Incongruent","Incongruent","Incongruent","Congruent","Congruent","Incongruent","Congruent","Congruent","Congruent","Congruent"],"ratio_trial":[200,100,200,100,100,300,300,200,300,100,300,100,200,100,300,300,300,200,300,200,300,200,200,300,200,200,100,100,100,200,200,300,300,200,200,100,200,200,200,300,300,300,200,200,100,100,200,200,200,100,300,300,300,300,300,100,100,200,200,100,300,200,100,300,100,200,100,100,300,300,100,300,300,200,200,100,100,100,300,300,200,200,300,300,100,200,300,100,200,100,100,100,100,200,300,300,100,300,100,300,300,200,100,200,200,200,300,100,300,100,200,100,200,100,300,300,200,100,100,100],"left_num":[12,8,6,7,6,1,13,11,1,9,20,10,15,2,1,4,4,7,13,14,1,11,9,8,3,4,10,13,7,4,7,4,13,16,11,8,14,15,4,8,11,24,15,3,1,1,14,7,3,9,20,3,20,4,4,13,6,12,21,10,7,9,2,4,3,4,6,15,11,4,3,7,13,7,1,1,2,11,13,3,9,1,12,4,13,4,13,6,4,2,9,7,6,16,3,1,1,1,6,3,1,14,11,12,5,3,13,2,4,12,11,13,7,3,5,4,3,6,2,4],"right_num":[6,6,3,15,5,8,12,3,8,6,13,8,4,6,8,1,2,14,12,6,6,3,8,14,1,6,8,12,15,1,6,2,12,9,3,1,12,4,6,10,2,2,4,14,8,18,6,8,11,13,9,4,13,2,2,6,15,6,2,8,8,13,11,13,4,1,13,13,1,2,8,8,12,14,21,18,6,6,12,11,4,3,2,8,12,6,12,3,14,6,8,9,13,9,11,6,8,3,15,4,7,12,6,6,14,14,12,11,2,2,3,12,14,2,6,2,11,15,11,6],"left_den":[20,16,15,14,20,30,26,20,30,18,25,25,25,5,30,10,20,10,26,28,5,20,15,10,10,5,25,26,14,30,15,20,26,30,22,20,30,25,5,15,22,30,25,10,2,2,28,10,4,15,25,6,25,20,20,26,12,15,30,25,10,30,5,20,6,30,10,25,22,20,5,10,26,10,2,2,5,22,26,12,20,2,24,5,26,5,26,12,6,4,15,14,10,30,12,5,2,2,12,6,20,30,22,15,10,10,26,5,20,30,20,26,10,6,25,20,10,12,5,8],"right_den":[15,10,15,25,25,24,15,4,24,10,26,16,10,12,24,10,4,28,15,20,12,4,10,28,2,10,16,20,25,3,9,4,15,27,10,2,18,10,10,12,10,4,10,28,20,30,20,16,20,26,18,20,26,4,4,10,25,10,4,16,20,26,22,26,10,3,26,26,5,4,16,20,15,28,30,30,12,15,15,20,16,10,10,16,20,10,15,5,30,15,16,15,26,27,20,12,20,15,25,5,20,18,15,10,20,28,15,22,4,4,4,20,28,5,12,4,22,25,22,10],"correct_side":[1,2,1,2,1,2,2,2,2,2,1,2,1,2,2,1,2,1,2,1,2,2,2,1,2,1,2,2,2,2,2,2,2,1,1,2,2,1,1,2,1,1,1,2,1,2,1,1,1,1,1,1,1,2,2,2,2,1,1,2,1,2,2,2,1,2,1,1,1,2,1,1,2,1,2,2,2,1,2,2,1,1,1,1,2,1,2,2,1,1,1,2,1,1,2,2,1,1,2,2,2,2,1,1,2,2,2,2,2,2,2,2,1,1,2,2,2,2,2,2],"img_shown":["img2/200/Congruent/L/C_Dist_200_LN_12_LD_20_RN_6_RD_15_0.png","img2/100/Incongruent/R/I_Dist_100_LN_8_LD_16_RN_6_RD_10_1.png","img2/200/Congruent/L/C_Dist_200_LN_6_LD_15_RN_3_RD_15_0.png","img2/100/Congruent/R/C_Dist_100_LN_7_LD_14_RN_15_RD_25_1.png","img2/100/Congruent/L/C_Dist_100_LN_6_LD_20_RN_5_RD_25_0.png","img2/300/Congruent/R/C_Dist_300_LN_1_LD_30_RN_8_RD_24_1.png","img2/300/Incongruent/R/I_Dist_300_LN_13_LD_26_RN_12_RD_15_1.png","img2/200/Incongruent/R/I_Dist_200_LN_11_LD_20_RN_3_RD_4_1.png","img2/300/Congruent/R/C_Dist_300_LN_1_LD_30_RN_8_RD_24_1.png","img2/100/Incongruent/R/I_Dist_100_LN_9_LD_18_RN_6_RD_10_1.png","img2/300/Congruent/L/C_Dist_300_LN_20_LD_25_RN_13_RD_26_0.png","img2/100/Incongruent/R/I_Dist_100_LN_10_LD_25_RN_8_RD_16_1.png","img2/200/Congruent/L/C_Dist_200_LN_15_LD_25_RN_4_RD_10_0.png","img2/100/Congruent/R/C_Dist_100_LN_2_LD_5_RN_6_RD_12_1.png","img2/300/Congruent/R/C_Dist_300_LN_1_LD_30_RN_8_RD_24_1.png","img2/300/Congruent/L/C_Dist_300_LN_4_LD_10_RN_1_RD_10_0.png","img2/300/Incongruent/R/I_Dist_300_LN_4_LD_20_RN_2_RD_4_1.png","img2/200/Incongruent/L/I_Dist_200_LN_7_LD_10_RN_14_RD_28_0.png","img2/300/Incongruent/R/I_Dist_300_LN_13_LD_26_RN_12_RD_15_1.png","img2/200/Congruent/L/C_Dist_200_LN_14_LD_28_RN_6_RD_20_0.png","img2/300/Congruent/R/C_Dist_300_LN_1_LD_5_RN_6_RD_12_1.png","img2/200/Incongruent/R/I_Dist_200_LN_11_LD_20_RN_3_RD_4_1.png","img2/200/Incongruent/R/I_Dist_200_LN_9_LD_15_RN_8_RD_10_1.png","img2/300/Incongruent/L/I_Dist_300_LN_8_LD_10_RN_14_RD_28_0.png","img2/200/Incongruent/R/I_Dist_200_LN_3_LD_10_RN_1_RD_2_1.png","img2/200/Incongruent/L/I_Dist_200_LN_4_LD_5_RN_6_RD_10_0.png","img2/100/Incongruent/R/I_Dist_100_LN_10_LD_25_RN_8_RD_16_1.png","img2/100/Incongruent/R/I_Dist_100_LN_13_LD_26_RN_12_RD_20_1.png","img2/100/Congruent/R/C_Dist_100_LN_7_LD_14_RN_15_RD_25_1.png","img2/200/Incongruent/R/I_Dist_200_LN_4_LD_30_RN_1_RD_3_1.png","img2/200/Incongruent/R/I_Dist_200_LN_7_LD_15_RN_6_RD_9_1.png","img2/300/Incongruent/R/I_Dist_300_LN_4_LD_20_RN_2_RD_4_1.png","img2/300/Incongruent/R/I_Dist_300_LN_13_LD_26_RN_12_RD_15_1.png","img2/200/Congruent/L/C_Dist_200_LN_16_LD_30_RN_9_RD_27_0.png","img2/200/Congruent/L/C_Dist_200_LN_11_LD_22_RN_3_RD_10_0.png","img2/100/Incongruent/R/I_Dist_100_LN_8_LD_20_RN_1_RD_2_1.png","img2/200/Incongruent/R/I_Dist_200_LN_14_LD_30_RN_12_RD_18_1.png","img2/200/Congruent/L/C_Dist_200_LN_15_LD_25_RN_4_RD_10_0.png","img2/200/Incongruent/L/I_Dist_200_LN_4_LD_5_RN_6_RD_10_0.png","img2/300/Congruent/R/C_Dist_300_LN_8_LD_15_RN_10_RD_12_1.png","img2/300/Congruent/L/C_Dist_300_LN_11_LD_22_RN_2_RD_10_0.png","img2/300/Congruent/L/C_Dist_300_LN_24_LD_30_RN_2_RD_4_0.png","img2/200/Congruent/L/C_Dist_200_LN_15_LD_25_RN_4_RD_10_0.png","img2/200/Congruent/R/C_Dist_200_LN_3_LD_10_RN_14_RD_28_1.png","img2/100/Incongruent/L/I_Dist_100_LN_1_LD_2_RN_8_RD_20_0.png","img2/100/Congruent/R/C_Dist_100_LN_1_LD_2_RN_18_RD_30_1.png","img2/200/Congruent/L/C_Dist_200_LN_14_LD_28_RN_6_RD_20_0.png","img2/200/Incongruent/L/I_Dist_200_LN_7_LD_10_RN_8_RD_16_0.png","img2/200/Incongruent/L/I_Dist_200_LN_3_LD_4_RN_11_RD_20_0.png","img2/100/Incongruent/L/I_Dist_100_LN_9_LD_15_RN_13_RD_26_0.png","img2/300/Congruent/L/C_Dist_300_LN_20_LD_25_RN_9_RD_18_0.png","img2/300/Incongruent/L/I_Dist_300_LN_3_LD_6_RN_4_RD_20_0.png","img2/300/Congruent/L/C_Dist_300_LN_20_LD_25_RN_13_RD_26_0.png","img2/300/Incongruent/R/I_Dist_300_LN_4_LD_20_RN_2_RD_4_1.png","img2/300/Incongruent/R/I_Dist_300_LN_4_LD_20_RN_2_RD_4_1.png","img2/100/Incongruent/R/I_Dist_100_LN_13_LD_26_RN_6_RD_10_1.png","img2/100/Congruent/R/C_Dist_100_LN_6_LD_12_RN_15_RD_25_1.png","img2/200/Congruent/L/C_Dist_200_LN_12_LD_15_RN_6_RD_10_0.png","img2/200/Congruent/L/C_Dist_200_LN_21_LD_30_RN_2_RD_4_0.png","img2/100/Incongruent/R/I_Dist_100_LN_10_LD_25_RN_8_RD_16_1.png","img2/300/Incongruent/L/I_Dist_300_LN_7_LD_10_RN_8_RD_20_0.png","img2/200/Congruent/R/C_Dist_200_LN_9_LD_30_RN_13_RD_26_1.png","img2/100/Congruent/R/C_Dist_100_LN_2_LD_5_RN_11_RD_22_1.png","img2/300/Congruent/R/C_Dist_300_LN_4_LD_20_RN_13_RD_26_1.png","img2/100/Incongruent/L/I_Dist_100_LN_3_LD_6_RN_4_RD_10_0.png","img2/200/Incongruent/R/I_Dist_200_LN_4_LD_30_RN_1_RD_3_1.png","img2/100/Incongruent/L/I_Dist_100_LN_6_LD_10_RN_13_RD_26_0.png","img2/100/Congruent/L/C_Dist_100_LN_15_LD_25_RN_13_RD_26_0.png","img2/300/Congruent/L/C_Dist_300_LN_11_LD_22_RN_1_RD_5_0.png","img2/300/Incongruent/R/I_Dist_300_LN_4_LD_20_RN_2_RD_4_1.png","img2/100/Incongruent/L/I_Dist_100_LN_3_LD_5_RN_8_RD_16_0.png","img2/300/Incongruent/L/I_Dist_300_LN_7_LD_10_RN_8_RD_20_0.png","img2/300/Incongruent/R/I_Dist_300_LN_13_LD_26_RN_12_RD_15_1.png","img2/200/Incongruent/L/I_Dist_200_LN_7_LD_10_RN_14_RD_28_0.png","img2/200/Congruent/R/C_Dist_200_LN_1_LD_2_RN_21_RD_30_1.png","img2/100/Congruent/R/C_Dist_100_LN_1_LD_2_RN_18_RD_30_1.png","img2/100/Congruent/R/C_Dist_100_LN_2_LD_5_RN_6_RD_12_1.png","img2/100/Congruent/L/C_Dist_100_LN_11_LD_22_RN_6_RD_15_0.png","img2/300/Incongruent/R/I_Dist_300_LN_13_LD_26_RN_12_RD_15_1.png","img2/300/Congruent/R/C_Dist_300_LN_3_LD_12_RN_11_RD_20_1.png","img2/200/Congruent/L/C_Dist_200_LN_9_LD_20_RN_4_RD_16_0.png","img2/200/Incongruent/L/I_Dist_200_LN_1_LD_2_RN_3_RD_10_0.png","img2/300/Congruent/L/C_Dist_300_LN_12_LD_24_RN_2_RD_10_0.png","img2/300/Incongruent/L/I_Dist_300_LN_4_LD_5_RN_8_RD_16_0.png","img2/100/Incongruent/R/I_Dist_100_LN_13_LD_26_RN_12_RD_20_1.png","img2/200/Incongruent/L/I_Dist_200_LN_4_LD_5_RN_6_RD_10_0.png","img2/300/Incongruent/R/I_Dist_300_LN_13_LD_26_RN_12_RD_15_1.png","img2/100/Incongruent/R/I_Dist_100_LN_6_LD_12_RN_3_RD_5_1.png","img2/200/Incongruent/L/I_Dist_200_LN_4_LD_6_RN_14_RD_30_0.png","img2/100/Incongruent/L/I_Dist_100_LN_2_LD_4_RN_6_RD_15_0.png","img2/100/Congruent/L/C_Dist_100_LN_9_LD_15_RN_8_RD_16_0.png","img2/100/Congruent/R/C_Dist_100_LN_7_LD_14_RN_9_RD_15_1.png","img2/100/Incongruent/L/I_Dist_100_LN_6_LD_10_RN_13_RD_26_0.png","img2/200/Congruent/L/C_Dist_200_LN_16_LD_30_RN_9_RD_27_0.png","img2/300/Congruent/R/C_Dist_300_LN_3_LD_12_RN_11_RD_20_1.png","img2/300/Congruent/R/C_Dist_300_LN_1_LD_5_RN_6_RD_12_1.png","img2/100/Incongruent/L/I_Dist_100_LN_1_LD_2_RN_8_RD_20_0.png","img2/300/Incongruent/L/I_Dist_300_LN_1_LD_2_RN_3_RD_15_0.png","img2/100/Congruent/R/C_Dist_100_LN_6_LD_12_RN_15_RD_25_1.png","img2/300/Congruent/R/C_Dist_300_LN_3_LD_6_RN_4_RD_5_1.png","img2/300/Congruent/R/C_Dist_300_LN_1_LD_20_RN_7_RD_20_1.png","img2/200/Incongruent/R/I_Dist_200_LN_14_LD_30_RN_12_RD_18_1.png","img2/100/Congruent/L/C_Dist_100_LN_11_LD_22_RN_6_RD_15_0.png","img2/200/Congruent/L/C_Dist_200_LN_12_LD_15_RN_6_RD_10_0.png","img2/200/Congruent/R/C_Dist_200_LN_5_LD_10_RN_14_RD_20_1.png","img2/200/Congruent/R/C_Dist_200_LN_3_LD_10_RN_14_RD_28_1.png","img2/300/Incongruent/R/I_Dist_300_LN_13_LD_26_RN_12_RD_15_1.png","img2/100/Congruent/R/C_Dist_100_LN_2_LD_5_RN_11_RD_22_1.png","img2/300/Incongruent/R/I_Dist_300_LN_4_LD_20_RN_2_RD_4_1.png","img2/100/Incongruent/R/I_Dist_100_LN_12_LD_30_RN_2_RD_4_1.png","img2/200/Incongruent/R/I_Dist_200_LN_11_LD_20_RN_3_RD_4_1.png","img2/100/Incongruent/R/I_Dist_100_LN_13_LD_26_RN_12_RD_20_1.png","img2/200/Incongruent/L/I_Dist_200_LN_7_LD_10_RN_14_RD_28_0.png","img2/100/Congruent/L/C_Dist_100_LN_3_LD_6_RN_2_RD_5_0.png","img2/300/Congruent/R/C_Dist_300_LN_5_LD_25_RN_6_RD_12_1.png","img2/300/Incongruent/R/I_Dist_300_LN_4_LD_20_RN_2_RD_4_1.png","img2/200/Congruent/R/C_Dist_200_LN_3_LD_10_RN_11_RD_22_1.png","img2/100/Congruent/R/C_Dist_100_LN_6_LD_12_RN_15_RD_25_1.png","img2/100/Congruent/R/C_Dist_100_LN_2_LD_5_RN_11_RD_22_1.png","img2/100/Congruent/R/C_Dist_100_LN_4_LD_8_RN_6_RD_10_1.png"],"dist100_C":[["C_Dist_100_LN_10_LD_25_RN_3_RD_10_0.png","C_Dist_100_LN_11_LD_22_RN_4_RD_10_0.png","C_Dist_100_LN_11_LD_22_RN_6_RD_15_0.png","C_Dist_100_LN_15_LD_25_RN_13_RD_26_0.png","C_Dist_100_LN_3_LD_6_RN_2_RD_5_0.png","C_Dist_100_LN_6_LD_20_RN_5_RD_25_0.png","C_Dist_100_LN_8_LD_16_RN_2_RD_5_0.png","C_Dist_100_LN_9_LD_15_RN_8_RD_16_0.png"],["C_Dist_100_LN_1_LD_2_RN_18_RD_30_1.png","C_Dist_100_LN_1_LD_2_RN_3_RD_5_1.png","C_Dist_100_LN_12_LD_30_RN_13_RD_26_1.png","C_Dist_100_LN_2_LD_5_RN_11_RD_22_1.png","C_Dist_100_LN_2_LD_5_RN_6_RD_12_1.png","C_Dist_100_LN_3_LD_20_RN_4_RD_16_1.png","C_Dist_100_LN_4_LD_10_RN_15_RD_30_1.png","C_Dist_100_LN_4_LD_8_RN_6_RD_10_1.png","C_Dist_100_LN_6_LD_12_RN_15_RD_25_1.png","C_Dist_100_LN_7_LD_14_RN_15_RD_25_1.png","C_Dist_100_LN_7_LD_14_RN_9_RD_15_1.png"]],"dist100_I":[["I_Dist_100_LN_1_LD_2_RN_8_RD_20_0.png","I_Dist_100_LN_2_LD_4_RN_6_RD_15_0.png","I_Dist_100_LN_2_LD_4_RN_8_RD_20_0.png","I_Dist_100_LN_3_LD_5_RN_11_RD_22_0.png","I_Dist_100_LN_3_LD_5_RN_8_RD_16_0.png","I_Dist_100_LN_3_LD_6_RN_4_RD_10_0.png","I_Dist_100_LN_3_LD_9_RN_7_RD_30_0.png","I_Dist_100_LN_4_LD_8_RN_8_RD_20_0.png","I_Dist_100_LN_6_LD_10_RN_11_RD_22_0.png","I_Dist_100_LN_6_LD_10_RN_13_RD_26_0.png","I_Dist_100_LN_6_LD_10_RN_7_RD_14_0.png","I_Dist_100_LN_9_LD_10_RN_20_RD_25_0.png","I_Dist_100_LN_9_LD_15_RN_13_RD_26_0.png","I_Dist_100_LN_9_LD_15_RN_14_RD_28_0.png"],["I_Dist_100_LN_10_LD_25_RN_8_RD_16_1.png","I_Dist_100_LN_10_LD_25_RN_9_RD_18_1.png","I_Dist_100_LN_11_LD_22_RN_9_RD_15_1.png","I_Dist_100_LN_12_LD_24_RN_9_RD_15_1.png","I_Dist_100_LN_12_LD_30_RN_2_RD_4_1.png","I_Dist_100_LN_13_LD_26_RN_12_RD_20_1.png","I_Dist_100_LN_13_LD_26_RN_6_RD_10_1.png","I_Dist_100_LN_17_LD_30_RN_10_RD_15_1.png","I_Dist_100_LN_6_LD_12_RN_3_RD_5_1.png","I_Dist_100_LN_8_LD_16_RN_6_RD_10_1.png","I_Dist_100_LN_8_LD_20_RN_1_RD_2_1.png","I_Dist_100_LN_9_LD_18_RN_6_RD_10_1.png"]],"dist100_S":[["E_Dist_100_LN_2_LD_12_RN_2_RD_30_0.png","E_Dist_100_LN_6_LD_10_RN_6_RD_12_0.png"],["E_Dist_100_LN_6_LD_12_RN_6_RD_10_1.png"]],"dist200_C":[["C_Dist_200_LN_11_LD_22_RN_3_RD_10_0.png","C_Dist_200_LN_12_LD_15_RN_6_RD_10_0.png","C_Dist_200_LN_12_LD_20_RN_6_RD_15_0.png","C_Dist_200_LN_14_LD_28_RN_6_RD_20_0.png","C_Dist_200_LN_15_LD_25_RN_4_RD_10_0.png","C_Dist_200_LN_16_LD_20_RN_12_RD_20_0.png","C_Dist_200_LN_16_LD_30_RN_9_RD_27_0.png","C_Dist_200_LN_20_LD_25_RN_9_RD_15_0.png","C_Dist_200_LN_21_LD_30_RN_2_RD_4_0.png","C_Dist_200_LN_4_LD_10_RN_3_RD_15_0.png","C_Dist_200_LN_4_LD_8_RN_3_RD_10_0.png","C_Dist_200_LN_6_LD_15_RN_3_RD_15_0.png","C_Dist_200_LN_7_LD_21_RN_2_RD_15_0.png","C_Dist_200_LN_8_LD_15_RN_2_RD_6_0.png","C_Dist_200_LN_8_LD_15_RN_3_RD_9_0.png","C_Dist_200_LN_8_LD_15_RN_7_RD_21_0.png","C_Dist_200_LN_9_LD_20_RN_4_RD_16_0.png"],["C_Dist_200_LN_1_LD_2_RN_21_RD_30_1.png","C_Dist_200_LN_13_LD_26_RN_14_RD_20_1.png","C_Dist_200_LN_3_LD_10_RN_11_RD_22_1.png","C_Dist_200_LN_3_LD_10_RN_14_RD_28_1.png","C_Dist_200_LN_3_LD_10_RN_7_RD_14_1.png","C_Dist_200_LN_3_LD_12_RN_9_RD_20_1.png","C_Dist_200_LN_3_LD_6_RN_14_RD_20_1.png","C_Dist_200_LN_5_LD_10_RN_14_RD_20_1.png","C_Dist_200_LN_6_LD_12_RN_7_RD_10_1.png","C_Dist_200_LN_6_LD_20_RN_11_RD_22_1.png","C_Dist_200_LN_7_LD_15_RN_18_RD_27_1.png","C_Dist_200_LN_9_LD_30_RN_13_RD_26_1.png"]],"dist200_I":[["I_Dist_200_LN_1_LD_2_RN_3_RD_10_0.png","I_Dist_200_LN_1_LD_3_RN_2_RD_15_0.png","I_Dist_200_LN_3_LD_4_RN_11_RD_20_0.png","I_Dist_200_LN_4_LD_5_RN_6_RD_10_0.png","I_Dist_200_LN_4_LD_6_RN_14_RD_30_0.png","I_Dist_200_LN_7_LD_10_RN_12_RD_24_0.png","I_Dist_200_LN_7_LD_10_RN_14_RD_28_0.png","I_Dist_200_LN_7_LD_10_RN_8_RD_16_0.png"],["I_Dist_200_LN_11_LD_20_RN_3_RD_4_1.png","I_Dist_200_LN_14_LD_30_RN_12_RD_18_1.png","I_Dist_200_LN_14_LD_30_RN_6_RD_9_1.png","I_Dist_200_LN_3_LD_10_RN_1_RD_2_1.png","I_Dist_200_LN_4_LD_30_RN_1_RD_3_1.png","I_Dist_200_LN_6_LD_20_RN_3_RD_6_1.png","I_Dist_200_LN_7_LD_15_RN_4_RD_6_1.png","I_Dist_200_LN_7_LD_15_RN_6_RD_9_1.png","I_Dist_200_LN_9_LD_15_RN_8_RD_10_1.png"]],"dist200_S":[["E_Dist_200_LN_3_LD_6_RN_3_RD_10_0.png"],["E_Dist_200_LN_3_LD_10_RN_3_RD_6_1.png"]],"dist300_C":[["C_Dist_300_LN_11_LD_22_RN_1_RD_5_0.png","C_Dist_300_LN_11_LD_22_RN_2_RD_10_0.png","C_Dist_300_LN_11_LD_22_RN_4_RD_20_0.png","C_Dist_300_LN_12_LD_24_RN_2_RD_10_0.png","C_Dist_300_LN_18_LD_20_RN_9_RD_15_0.png","C_Dist_300_LN_20_LD_25_RN_13_RD_26_0.png","C_Dist_300_LN_20_LD_25_RN_14_RD_28_0.png","C_Dist_300_LN_20_LD_25_RN_5_RD_10_0.png","C_Dist_300_LN_20_LD_25_RN_8_RD_16_0.png","C_Dist_300_LN_20_LD_25_RN_9_RD_18_0.png","C_Dist_300_LN_24_LD_30_RN_2_RD_4_0.png","C_Dist_300_LN_24_LD_30_RN_8_RD_16_0.png","C_Dist_300_LN_3_LD_6_RN_2_RD_10_0.png","C_Dist_300_LN_4_LD_10_RN_1_RD_10_0.png","C_Dist_300_LN_4_LD_5_RN_2_RD_4_0.png","C_Dist_300_LN_8_LD_16_RN_1_RD_5_0.png","C_Dist_300_LN_9_LD_10_RN_3_RD_5_0.png"],["C_Dist_300_LN_1_LD_20_RN_7_RD_20_1.png","C_Dist_300_LN_1_LD_3_RN_19_RD_30_1.png","C_Dist_300_LN_1_LD_30_RN_8_RD_24_1.png","C_Dist_300_LN_1_LD_5_RN_11_RD_22_1.png","C_Dist_300_LN_1_LD_5_RN_3_RD_6_1.png","C_Dist_300_LN_1_LD_5_RN_6_RD_12_1.png","C_Dist_300_LN_2_LD_10_RN_12_RD_24_1.png","C_Dist_300_LN_2_LD_20_RN_10_RD_25_1.png","C_Dist_300_LN_3_LD_12_RN_11_RD_20_1.png","C_Dist_300_LN_3_LD_6_RN_4_RD_5_1.png","C_Dist_300_LN_4_LD_20_RN_13_RD_26_1.png","C_Dist_300_LN_5_LD_25_RN_6_RD_12_1.png","C_Dist_300_LN_5_LD_25_RN_7_RD_14_1.png","C_Dist_300_LN_7_LD_14_RN_20_RD_25_1.png","C_Dist_300_LN_8_LD_15_RN_10_RD_12_1.png"]],"dist300_I":[["I_Dist_300_LN_1_LD_2_RN_2_RD_10_0.png","I_Dist_300_LN_1_LD_2_RN_3_RD_15_0.png","I_Dist_300_LN_2_LD_4_RN_6_RD_30_0.png","I_Dist_300_LN_3_LD_6_RN_4_RD_20_0.png","I_Dist_300_LN_4_LD_5_RN_6_RD_12_0.png","I_Dist_300_LN_4_LD_5_RN_8_RD_16_0.png","I_Dist_300_LN_7_LD_10_RN_8_RD_20_0.png","I_Dist_300_LN_8_LD_10_RN_14_RD_28_0.png","I_Dist_300_LN_8_LD_10_RN_9_RD_18_0.png"],["I_Dist_300_LN_13_LD_26_RN_12_RD_15_1.png","I_Dist_300_LN_4_LD_20_RN_2_RD_4_1.png"]],"dist300_S":[["E_Dist_300_LN_9_LD_12_RN_9_RD_20_0.png"],["E_Dist_300_LN_18_LD_30_RN_18_RD_20_1.png","E_Dist_300_LN_3_LD_10_RN_3_RD_5_1.png","E_Dist_300_LN_9_LD_20_RN_9_RD_12_1.png"]],"dist500_C":[["C_Dist_500_LN_10_LD_13_RN_7_RD_26_0.png","C_Dist_500_LN_10_LD_15_RN_4_RD_24_0.png","C_Dist_500_LN_12_LD_16_RN_3_RD_12_0.png","C_Dist_500_LN_12_LD_18_RN_4_RD_24_0.png","C_Dist_500_LN_15_LD_18_RN_5_RD_15_0.png","C_Dist_500_LN_15_LD_20_RN_1_RD_4_0.png","C_Dist_500_LN_18_LD_27_RN_1_RD_6_0.png","C_Dist_500_LN_20_LD_24_RN_1_RD_3_0.png","C_Dist_500_LN_20_LD_24_RN_3_RD_9_0.png","C_Dist_500_LN_20_LD_24_RN_7_RD_21_0.png","C_Dist_500_LN_20_LD_28_RN_3_RD_14_0.png","C_Dist_500_LN_21_LD_28_RN_6_RD_24_0.png","C_Dist_500_LN_22_LD_28_RN_2_RD_7_0.png","C_Dist_500_LN_25_LD_30_RN_9_RD_27_0.png","C_Dist_500_LN_4_LD_6_RN_1_RD_6_0.png","C_Dist_500_LN_5_LD_6_RN_2_RD_6_0.png","C_Dist_500_LN_6_LD_9_RN_1_RD_6_0.png","C_Dist_500_LN_7_LD_10_RN_1_RD_5_0.png","C_Dist_500_LN_8_LD_12_RN_1_RD_6_0.png","C_Dist_500_LN_8_LD_12_RN_4_RD_24_0.png"],["C_Dist_500_LN_1_LD_4_RN_12_RD_16_1.png","C_Dist_500_LN_1_LD_4_RN_9_RD_12_1.png","C_Dist_500_LN_1_LD_9_RN_11_RD_18_1.png","C_Dist_500_LN_10_LD_24_RN_22_RD_24_1.png","C_Dist_500_LN_2_LD_12_RN_10_RD_15_1.png","C_Dist_500_LN_2_LD_12_RN_12_RD_18_1.png","C_Dist_500_LN_2_LD_12_RN_4_RD_6_1.png","C_Dist_500_LN_2_LD_24_RN_7_RD_12_1.png","C_Dist_500_LN_2_LD_5_RN_18_RD_20_1.png","C_Dist_500_LN_2_LD_5_RN_9_RD_10_1.png","C_Dist_500_LN_2_LD_8_RN_12_RD_16_1.png","C_Dist_500_LN_2_LD_8_RN_21_RD_28_1.png","C_Dist_500_LN_3_LD_10_RN_4_RD_5_1.png","C_Dist_500_LN_3_LD_12_RN_15_RD_20_1.png","C_Dist_500_LN_3_LD_30_RN_6_RD_10_1.png","C_Dist_500_LN_3_LD_8_RN_14_RD_16_1.png","C_Dist_500_LN_4_LD_16_RN_15_RD_20_1.png","C_Dist_500_LN_4_LD_24_RN_12_RD_18_1.png","C_Dist_500_LN_5_LD_14_RN_6_RD_7_1.png","C_Dist_500_LN_7_LD_21_RN_20_RD_24_1.png","C_Dist_500_LN_7_LD_28_RN_12_RD_16_1.png","C_Dist_500_LN_7_LD_28_RN_9_RD_12_1.png","C_Dist_500_LN_9_LD_27_RN_20_RD_24_1.png"]],"dist500_I":[["I_Dist_500_LN_2_LD_3_RN_4_RD_24_0.png","I_Dist_500_LN_5_LD_6_RN_6_RD_18_0.png","I_Dist_500_LN_7_LD_8_RN_9_RD_24_0.png"],["I_Dist_500_LN_7_LD_21_RN_5_RD_6_1.png"]],"dist500_S":[["E_Dist_500_LN_6_LD_8_RN_6_RD_24_0.png"],["E_Dist_500_LN_2_LD_12_RN_2_RD_3_1.png","E_Dist_500_LN_6_LD_24_RN_6_RD_8_1.png"]]}},{"start_time":1551891837312,"click_time":1551891839628,"finger_time":1551891838727,"fix_duration":361.32300955909227,"trial":1,"RT":1415,"MT":901,"sideResp":2,"stimulus":[],"xmouse":[786,786,786,786,786,786,786,786,786,786,786,786,786,786,786,786,786,786,786,786,786,786,786,786,786,786,786,786,786,786,786,786,786,786,786,786,786,786,786,786,786,786,786,786,786,786,786,786,786,786,786,786,786,786,786,786,786,786,786,786,786,786,786,786,787,803,811,816,821,828,845,856,863,869,879,891,923,945,970,992,1036,1047,1055,1059,1063,1068,1074,1075,1076,1077,1081,1083,1084,1085,1085,1085,1088,1092,1096,1102,1109,1113,1114,1114,1114,1114,1116,1116,1116,1116,1116,1116,1116,1116,1116,1118],"ymouse":[544,544,544,544,544,544,544,544,544,544,544,544,544,544,544,544,544,544,544,544,544,544,544,544,544,544,544,544,544,544,544,544,544,544,544,544,544,544,544,544,544,544,544,544,544,544,544,544,544,544,544,544,544,544,544,544,544,544,544,544,544,544,544,544,544,544,544,544,544,544,538,530,525,521,514,506,481,462,436,406,345,333,323,318,311,303,285,281,279,278,268,260,257,255,254,252,243,232,217,195,162,140,136,133,129,124,118,116,116,116,116,116,116,115,113,99],"timestamp_mouse":[16,34,55,75,94,115,135,155,175,196,215,235,254,276,294,315,336,355,374,395,415,435,454,475,496,516,535,554,576,594,616,635,655,676,696,714,736,754,775,795,815,835,855,875,896,915,935,954,975,994,1014,1034,1055,1075,1095,1115,1134,1155,1174,1196,1215,1235,1256,1275,1295,1315,1334,1354,1375,1396,1415,1435,1454,1474,1495,1514,1535,1554,1576,1595,1615,1635,1655,1675,1695,1715,1734,1755,1775,1795,1816,1835,1854,1876,1895,1916,1935,1954,1976,1995,2014,2034,2055,2075,2096,2116,2135,2155,2175,2195,2215,2235,2255,2274,2295,2315],"xSR":741.5,"ySR":469.95,"xT1":424.9,"yT1":0,"xT2":1058.1,"yT2":0,"toosoon":0,"cond_shown":"Incongruent","ratio_trial":100,"L_num":8,"L_den":16,"R_num":6,"R_den":10,"correct_side":2,"subjID":"sarasofiagarzonrocha22","gender":"1","school":"6","age":"11"},{"start_time":1551891842726,"click_time":1551891845528,"finger_time":1551891844907,"fix_duration":1058.2200440444722,"trial":2,"RT":2181,"MT":621,"sideResp":1,"stimulus":[],"xmouse":[814,814,814,814,814,814,814,814,814,814,814,814,814,814,814,814,814,814,814,814,814,814,814,814,814,814,814,814,814,814,814,814,814,814,814,814,814,814,814,814,814,814,814,814,814,814,814,814,814,814,814,814,814,814,814,814,814,814,814,814,814,814,814,814,814,814,814,814,814,814,814,814,814,814,814,814,814,814,814,814,814,814,814,814,814,814,814,814,814,814,814,814,814,814,814,814,814,814,814,815,816,818,820,821,822,827,831,834,840,846,851,853,854,855,856,857,858,858,858,858,858,858,858,858,858,858,858,858,858,853,833,823,803,775,733,662,641,620,598,568,517],"ymouse":[498,498,498,498,498,498,498,498,498,498,498,498,498,498,498,498,498,498,498,498,498,498,498,498,498,498,498,498,498,498,498,498,498,498,498,498,498,498,498,498,498,498,498,498,498,498,498,498,498,498,498,498,498,498,498,498,498,498,498,498,498,498,498,498,498,498,498,498,498,498,498,498,498,498,498,498,498,498,498,498,498,498,498,498,498,498,498,498,498,498,498,498,498,498,498,498,498,498,498,497,495,492,491,490,490,487,484,481,476,472,467,463,462,460,455,448,446,442,438,434,429,416,412,410,408,403,400,396,389,378,346,329,302,269,228,171,154,140,123,104,77],"timestamp_mouse":[12,38,42,62,81,100,121,141,161,180,201,222,241,260,282,302,322,342,361,381,400,422,440,461,481,501,521,541,560,580,601,621,642,662,681,700,722,741,762,781,801,820,840,861,882,901,921,941,962,982,1002,1020,1040,1061,1081,1101,1120,1142,1161,1181,1202,1222,1240,1261,1282,1301,1321,1340,1361,1381,1401,1421,1442,1461,1481,1502,1522,1542,1561,1581,1601,1621,1642,1662,1682,1700,1721,1742,1761,1780,1802,1821,1841,1861,1881,1901,1920,1940,1961,1981,2001,2020,2041,2061,2081,2102,2121,2140,2162,2181,2201,2220,2241,2261,2281,2301,2320,2341,2361,2380,2400,2420,2440,2461,2481,2501,2521,2541,2560,2580,2601,2620,2640,2661,2681,2702,2720,2740,2761,2780,2801],"xSR":741.5,"ySR":469.95,"xT1":424.9,"yT1":0,"xT2":1058.1,"yT2":0,"toosoon":0,"cond_shown":"Congruent","ratio_trial":200,"L_num":6,"L_den":15,"R_num":3,"R_den":15,"correct_side":1,"subjID":"sarasofiagarzonrocha22","gender":"1","school":"6","age":"11"},{"start_time":1551891847320,"click_time":1551891848927,"finger_time":1551891848367,"fix_duration":250,"trial":3,"RT":1047,"MT":560,"sideResp":2,"stimulus":[],"xmouse":[800,800,800,800,800,800,800,800,800,800,800,800,800,800,800,800,800,800,800,800,800,800,800,800,800,800,800,800,800,800,800,800,800,800,800,800,800,800,800,800,800,800,800,800,800,800,800,800,800,800,800,818,850,905,965,1022,1113,1143,1162,1176,1197,1205,1209,1213,1215,1215,1206,1204,1202,1201,1192,1188,1185,1183,1183,1180,1179,1178,1174,1163,1158],"ymouse":[531,531,531,531,531,531,531,531,531,531,531,531,531,531,531,531,531,531,531,531,531,531,531,531,531,531,531,531,531,531,531,531,531,531,531,531,531,531,531,531,531,531,531,531,531,531,531,531,531,531,531,524,508,478,439,401,334,307,285,264,231,215,204,187,165,142,111,106,104,101,90,82,76,72,71,68,66,65,63,58,56],"timestamp_mouse":[11,38,47,67,87,107,128,147,168,188,207,228,248,267,288,308,326,348,367,388,406,426,448,467,486,507,526,547,566,588,606,628,646,668,688,706,727,748,767,788,807,826,846,868,886,906,927,947,966,987,1007,1028,1047,1067,1086,1106,1127,1147,1167,1187,1207,1227,1247,1267,1286,1308,1327,1347,1367,1387,1408,1427,1447,1467,1486,1508,1527,1546,1567,1587,1606],"xSR":741.5,"ySR":469.95,"xT1":424.9,"yT1":0,"xT2":1058.1,"yT2":0,"toosoon":0,"cond_shown":"Congruent","ratio_trial":100,"L_num":7,"L_den":14,"R_num":15,"R_den":25,"correct_side":2,"subjID":"sarasofiagarzonrocha22","gender":"1","school":"6","age":"11"},{"start_time":1551891851715,"click_time":1551891854008,"finger_time":1551891853206,"fix_duration":986.5848010870224,"trial":4,"RT":1491,"MT":802,"sideResp":1,"stimulus":[],"xmouse":[808,808,808,808,808,808,808,808,808,808,808,808,808,808,808,808,808,808,808,808,808,808,808,808,808,808,808,808,808,808,808,808,808,808,808,808,808,808,808,808,808,808,808,808,808,808,808,808,808,808,808,808,808,808,808,808,808,808,808,808,808,808,808,808,808,808,808,808,808,808,808,808,812,821,834,862,873,881,891,901,903,907,907,907,907,907,907,907,907,906,883,865,842,804,763,732,707,703,700,697,693,668,652,636,618,601,565,556,550,543,541,533,530,526,522],"ymouse":[499,499,499,499,499,499,499,499,499,499,499,499,499,499,499,499,499,499,499,499,499,499,499,499,499,499,499,499,499,499,499,499,499,499,499,499,499,499,499,499,499,499,499,499,499,499,499,499,499,499,499,499,499,499,499,499,499,499,499,499,499,499,499,499,499,499,499,499,499,499,499,498,486,473,458,431,418,405,388,366,363,351,351,351,351,351,351,347,341,333,295,282,272,263,252,242,229,226,219,214,208,181,168,154,139,128,103,97,95,93,92,86,84,81,78],"timestamp_mouse":[11,32,52,72,93,111,132,152,172,192,213,232,252,272,293,312,332,351,372,393,412,432,451,472,492,511,532,551,571,592,611,632,651,673,693,712,732,753,772,792,812,832,853,871,891,913,931,953,973,992,1013,1033,1051,1072,1091,1113,1133,1152,1171,1192,1213,1232,1252,1272,1293,1312,1332,1351,1372,1392,1412,1432,1452,1472,1491,1513,1531,1553,1572,1592,1611,1632,1652,1673,1692,1713,1732,1753,1772,1792,1813,1832,1852,1871,1891,1912,1931,1952,1972,1992,2011,2032,2052,2072,2091,2112,2131,2151,2171,2193,2211,2232,2252,2273,2293],"xSR":741.5,"ySR":469.95,"xT1":424.9,"yT1":0,"xT2":1058.1,"yT2":0,"toosoon":0,"cond_shown":"Congruent","ratio_trial":100,"L_num":6,"L_den":20,"R_num":5,"R_den":25,"correct_side":1,"subjID":"sarasofiagarzonrocha22","gender":"1","school":"6","age":"11"},{"start_time":1551891856763,"click_time":1551891858428,"finger_time":1551891858247,"fix_duration":1175.8602975837894,"trial":5,"RT":1484,"MT":181,"sideResp":2,"stimulus":[],"xmouse":[796,796,796,796,796,796,796,796,796,796,796,796,796,796,796,796,796,796,796,796,796,796,796,796,796,796,796,796,796,796,796,796,796,796,796,796,796,796,796,796,796,796,796,796,796,796,796,796,796,796,796,796,796,796,796,796,796,796,796,796,796,796,796,796,796,796,796,796,796,796,801,809,815,821,845,860,877,898,927,1013,1044,1063,1074,1084],"ymouse":[508,508,508,508,508,508,508,508,508,508,508,508,508,508,508,508,508,508,508,508,508,508,508,508,508,508,508,508,508,508,508,508,508,508,508,508,508,508,508,508,508,508,508,508,508,508,508,508,508,508,508,508,508,508,508,508,508,508,508,508,508,508,508,508,508,508,508,508,508,508,508,501,495,490,472,459,442,412,371,229,178,144,123,92],"timestamp_mouse":[9,33,43,63,85,104,125,145,164,184,203,225,243,265,283,303,323,344,363,384,403,425,443,465,484,504,524,543,563,585,603,625,644,664,684,703,723,744,765,785,803,823,845,864,884,904,923,945,963,984,1005,1023,1044,1064,1085,1103,1125,1145,1165,1185,1204,1224,1244,1265,1284,1303,1325,1344,1364,1384,1404,1423,1444,1463,1484,1504,1523,1544,1563,1583,1603,1624,1644,1665],"xSR":741.5,"ySR":469.95,"xT1":424.9,"yT1":0,"xT2":1058.1,"yT2":0,"toosoon":0,"cond_shown":"Congruent","ratio_trial":300,"L_num":1,"L_den":30,"R_num":8,"R_den":24,"correct_side":2,"subjID":"sarasofiagarzonrocha22","gender":"1","school":"6","age":"11"},{"start_time":1551891860765,"click_time":1551891862286,"finger_time":1551891861966,"fix_duration":555.9951501275451,"trial":6,"RT":1201,"MT":320,"sideResp":2,"stimulus":[],"xmouse":[782,782,782,782,782,782,782,782,782,782,782,782,782,782,782,782,782,782,782,782,782,782,782,782,782,782,782,782,782,782,782,782,782,782,782,782,782,782,782,782,782,782,782,782,782,782,782,782,782,782,782,782,782,782,783,790,798,806,830,836,840,844,852,881,900,921,945,962,977,998,1004,1010,1020,1036,1077,1097,1111],"ymouse":[510,510,510,510,510,510,510,510,510,510,510,510,510,510,510,510,510,510,510,510,510,510,510,510,510,510,510,510,510,510,510,510,510,510,510,510,510,510,510,510,510,510,510,510,510,510,510,510,510,510,510,510,510,510,510,506,502,496,477,470,465,457,447,410,385,348,308,277,251,209,200,193,183,172,137,117,99],"timestamp_mouse":[11,22,47,62,83,101,122,143,161,182,203,221,242,263,281,301,321,342,362,383,403,422,441,462,483,501,523,542,561,582,603,623,642,662,681,702,722,742,762,782,803,822,842,863,882,903,923,941,962,982,1001,1022,1043,1063,1082,1102,1122,1142,1163,1182,1201,1222,1242,1262,1281,1301,1322,1342,1361,1382,1402,1422,1443,1462,1481,1502,1521],"xSR":741.5,"ySR":469.95,"xT1":424.9,"yT1":0,"xT2":1058.1,"yT2":0,"toosoon":0,"cond_shown":"Incongruent","ratio_trial":300,"L_num":13,"L_den":26,"R_num":12,"R_den":15,"correct_side":2,"subjID":"sarasofiagarzonrocha22","gender":"1","school":"6","age":"11"},{"start_time":1551891865000,"click_time":1551891866607,"finger_time":1551891866147,"fix_duration":850.5136422448437,"trial":7,"RT":1147,"MT":460,"sideResp":2,"stimulus":[],"xmouse":[800,800,800,800,800,800,800,800,800,800,800,800,800,800,800,800,800,800,800,800,800,800,800,800,800,800,800,800,800,800,800,800,800,800,800,800,800,800,800,800,800,800,800,800,800,800,800,800,800,800,800,800,804,807,811,824,835,859,867,878,886,908,919,929,940,950,971,980,987,991,994,996,998,998,998,999,1009,1022,1039,1053,1064],"ymouse":[519,519,519,519,519,519,519,519,519,519,519,519,519,519,519,519,519,519,519,519,519,519,519,519,519,519,519,519,519,519,519,519,519,519,519,519,519,519,519,519,519,519,519,519,519,519,519,519,519,519,519,519,515,508,502,489,474,441,425,408,395,364,344,323,299,272,209,187,168,153,139,127,118,117,116,114,107,98,88,79,71],"timestamp_mouse":[10,41,47,67,87,108,128,147,168,188,207,227,247,267,286,306,327,348,367,387,407,427,446,466,487,507,527,548,568,587,607,626,647,667,687,708,726,747,766,788,807,827,847,867,886,906,928,948,967,987,1007,1028,1047,1066,1087,1107,1127,1147,1166,1187,1208,1228,1247,1267,1287,1306,1328,1346,1367,1387,1407,1427,1447,1466,1487,1506,1528,1547,1567,1588,1607],"xSR":741.5,"ySR":469.95,"xT1":424.9,"yT1":0,"xT2":1058.1,"yT2":0,"toosoon":0,"cond_shown":"Incongruent","ratio_trial":200,"L_num":11,"L_den":20,"R_num":3,"R_den":4,"correct_side":2,"subjID":"sarasofiagarzonrocha22","gender":"1","school":"6","age":"11"},{"start_time":1551891868678,"click_time":1551891870687,"finger_time":1551891869927,"fix_duration":250,"trial":8,"RT":1249,"MT":760,"sideResp":2,"stimulus":[],"xmouse":[813,813,813,813,813,813,813,813,813,813,813,813,813,813,813,813,813,813,813,813,813,813,813,813,813,813,813,813,813,813,813,813,813,813,813,813,813,813,813,813,813,813,813,813,813,813,813,813,813,813,813,813,813,813,813,813,813,813,813,813,816,824,870,911,935,953,971,998,1006,1011,1016,1020,1024,1024,1024,1024,1024,1027,1032,1036,1039,1044,1049,1052,1052,1052,1052,1052,1052,1052,1052,1052,1052,1052,1052,1056,1061,1073,1078,1084,1089],"ymouse":[487,487,487,487,487,487,487,487,487,487,487,487,487,487,487,487,487,487,487,487,487,487,487,487,487,487,487,487,487,487,487,487,487,487,487,487,487,487,487,487,487,487,487,487,487,487,487,487,487,487,487,487,487,487,487,487,487,487,487,487,484,478,452,431,416,398,375,320,296,273,253,237,221,212,207,200,191,175,166,159,149,141,134,131,131,131,131,131,131,131,131,131,131,131,131,127,123,114,109,103,93],"timestamp_mouse":[9,35,49,70,89,110,128,149,170,189,209,229,249,269,289,310,328,350,369,389,409,430,448,469,490,509,529,550,568,590,609,628,649,670,690,709,730,750,769,790,809,832,850,869,888,908,929,948,970,988,1009,1029,1049,1069,1089,1110,1129,1149,1170,1188,1209,1229,1249,1268,1288,1309,1329,1350,1368,1389,1410,1430,1449,1468,1489,1509,1529,1549,1568,1589,1609,1629,1648,1668,1689,1708,1729,1750,1770,1788,1808,1829,1848,1869,1889,1909,1929,1950,1968,1988,2009],"xSR":741.5,"ySR":469.95,"xT1":424.9,"yT1":0,"xT2":1058.1,"yT2":0,"toosoon":0,"cond_shown":"Congruent","ratio_trial":300,"L_num":1,"L_den":30,"R_num":8,"R_den":24,"correct_side":2,"subjID":"sarasofiagarzonrocha22","gender":"1","school":"6","age":"11"},{"start_time":1551891873731,"click_time":1551891875547,"finger_time":1551891875247,"fix_duration":782.4422264624988,"trial":9,"RT":1516,"MT":300,"sideResp":1,"stimulus":[],"xmouse":[816,816,816,816,816,816,816,816,816,816,816,816,816,816,816,816,816,816,816,816,816,816,816,816,816,816,816,816,816,816,816,816,816,816,816,816,816,816,816,816,816,816,816,816,816,816,816,816,816,816,816,816,816,816,816,816,816,816,816,816,816,816,816,816,816,816,816,816,816,816,816,816,816,815,775,708,639,587,547,510,445,429,417,412,410,410,410,413,417,422,443],"ymouse":[521,521,521,521,521,521,521,521,521,521,521,521,521,521,521,521,521,521,521,521,521,521,521,521,521,521,521,521,521,521,521,521,521,521,521,521,521,521,521,521,521,521,521,521,521,521,521,521,521,521,521,521,521,521,521,521,521,521,521,521,521,521,521,521,521,521,521,521,521,521,521,521,521,521,491,454,414,377,337,285,145,110,89,80,77,77,73,67,59,52,31],"timestamp_mouse":[15,36,55,76,95,117,136,155,176,196,216,237,256,276,296,317,335,357,377,396,415,436,455,476,497,516,536,557,576,596,616,637,655,677,696,715,735,757,775,796,815,837,856,876,897,916,937,957,976,996,1016,1036,1057,1076,1096,1116,1136,1157,1176,1197,1216,1236,1256,1276,1296,1317,1336,1356,1377,1397,1415,1437,1457,1476,1496,1516,1536,1556,1576,1595,1615,1636,1656,1676,1697,1715,1736,1756,1776,1795,1815],"xSR":741.5,"ySR":469.95,"xT1":424.9,"yT1":0,"xT2":1058.1,"yT2":0,"toosoon":0,"cond_shown":"Incongruent","ratio_trial":100,"L_num":9,"L_den":18,"R_num":6,"R_den":10,"correct_side":2,"subjID":"sarasofiagarzonrocha22","gender":"1","school":"6","age":"11"},{"start_time":1551891877678,"click_time":1551891879107,"finger_time":1551891878547,"fix_duration":250,"trial":10,"RT":869,"MT":560,"sideResp":1,"stimulus":[],"xmouse":[800,800,800,800,800,800,800,800,800,800,800,800,800,800,800,800,800,800,800,800,800,800,800,800,800,800,800,800,800,800,800,800,800,800,800,800,800,800,800,800,800,797,792,775,753,726,700,681,663,658,653,649,629,619,610,604,597,589,576,569,566,565,565,565,565,565,565,563,557,548,535,520],"ymouse":[493,493,493,493,493,493,493,493,493,493,493,493,493,493,493,493,493,493,493,493,493,493,493,493,493,493,493,493,493,493,493,493,493,493,493,493,493,493,493,493,493,491,486,449,407,362,319,289,254,242,226,219,182,166,151,138,120,104,77,68,63,62,62,62,62,62,62,61,58,57,54,52],"timestamp_mouse":[11,35,48,70,89,110,128,150,170,188,210,230,250,269,290,309,328,349,369,388,408,429,450,469,489,509,530,550,568,590,610,629,648,670,689,708,730,749,770,788,809,829,849,869,889,908,928,948,969,990,1009,1029,1049,1068,1089,1110,1129,1149,1168,1189,1208,1228,1249,1269,1290,1309,1328,1349,1368,1390,1409,1429],"xSR":741.5,"ySR":469.95,"xT1":424.9,"yT1":0,"xT2":1058.1,"yT2":0,"toosoon":0,"cond_shown":"Congruent","ratio_trial":300,"L_num":20,"L_den":25,"R_num":13,"R_den":26,"correct_side":1,"subjID":"sarasofiagarzonrocha22","gender":"1","school":"6","age":"11"},{"start_time":1551891880779,"click_time":1551891882367,"finger_time":1551891881987,"fix_duration":250,"trial":11,"RT":1208,"MT":380,"sideResp":1,"stimulus":[],"xmouse":[787,787,787,787,787,787,787,787,787,787,787,787,787,787,787,787,787,787,787,787,787,787,787,787,787,787,787,787,787,787,787,787,787,787,787,787,787,787,787,787,787,787,787,787,787,787,787,787,787,787,787,787,787,787,787,787,787,787,780,767,748,724,686,676,666,657,648,622,607,601,598,592,586,577,574,569,563,555,532,522],"ymouse":[521,521,521,521,521,521,521,521,521,521,521,521,521,521,521,521,521,521,521,521,521,521,521,521,521,521,521,521,521,521,521,521,521,521,521,521,521,521,521,521,521,521,521,521,521,521,521,521,521,521,521,521,521,521,521,521,521,521,500,471,443,414,367,351,334,314,293,250,229,221,214,204,191,171,163,153,139,124,90,78],"timestamp_mouse":[9,33,49,68,88,109,128,149,168,188,209,229,248,269,287,307,329,348,367,388,409,427,448,469,488,508,528,547,569,588,608,628,648,669,689,708,729,749,769,788,808,828,849,868,889,907,928,948,968,988,1009,1028,1048,1068,1089,1107,1128,1148,1168,1188,1208,1227,1249,1267,1288,1308,1328,1348,1367,1387,1408,1427,1447,1467,1488,1509,1527,1547,1568,1588],"xSR":741.5,"ySR":469.95,"xT1":424.9,"yT1":0,"xT2":1058.1,"yT2":0,"toosoon":0,"cond_shown":"Incongruent","ratio_trial":100,"L_num":10,"L_den":25,"R_num":8,"R_den":16,"correct_side":2,"subjID":"sarasofiagarzonrocha22","gender":"1","school":"6","age":"11"},{"start_time":1551891885201,"click_time":1551891887027,"finger_time":1551891886526,"fix_duration":1472.3029400391042,"trial":12,"RT":1325,"MT":501,"sideResp":1,"stimulus":[],"xmouse":[808,808,808,808,808,808,808,808,808,808,808,808,808,808,808,808,808,808,808,808,808,808,808,808,808,808,808,808,808,808,808,808,808,808,808,808,808,808,808,808,808,808,808,808,808,808,808,808,808,808,808,808,808,808,808,808,808,808,808,808,808,808,808,807,802,785,733,696,674,654,639,625,623,621,619,615,602,594,594,594,594,594,594,594,594,594,594,594,594,594,594,471],"ymouse":[547,547,547,547,547,547,547,547,547,547,547,547,547,547,547,547,547,547,547,547,547,547,547,547,547,547,547,547,547,547,547,547,547,547,547,547,547,547,547,547,547,547,547,547,547,547,547,547,547,547,547,547,547,547,547,547,547,547,547,547,547,547,547,541,530,500,405,327,269,213,169,97,77,63,55,43,15,4,4,4,4,4,4,4,4,4,4,4,4,4,4,16],"timestamp_mouse":[10,43,46,66,85,106,125,145,165,185,206,225,245,265,285,305,326,346,364,385,405,426,445,465,485,504,525,545,564,584,606,624,646,664,684,704,724,745,765,784,805,824,846,864,885,905,924,946,964,984,1005,1025,1044,1064,1085,1106,1125,1145,1164,1185,1205,1225,1246,1264,1285,1306,1325,1344,1364,1385,1404,1426,1444,1465,1485,1505,1526,1544,1564,1584,1604,1626,1644,1664,1684,1705,1725,1746,1766,1785,1804,1826],"xSR":741.5,"ySR":469.95,"xT1":424.9,"yT1":0,"xT2":1058.1,"yT2":0,"toosoon":0,"cond_shown":"Congruent","ratio_trial":200,"L_num":15,"L_den":25,"R_num":4,"R_den":10,"correct_side":1,"subjID":"sarasofiagarzonrocha22","gender":"1","school":"6","age":"11"},{"start_time":1551891890023,"click_time":1551891892546,"finger_time":1551891891806,"fix_duration":1155.063466756556,"trial":13,"RT":1783,"MT":740,"sideResp":2,"stimulus":[],"xmouse":[778,778,778,778,778,778,778,778,778,778,778,778,778,778,778,778,778,778,778,778,778,778,778,778,778,778,778,778,778,778,778,778,778,778,778,778,778,778,778,778,778,778,778,778,778,778,778,778,778,778,778,778,778,778,778,778,778,778,778,778,778,778,778,778,778,778,778,778,778,778,778,778,778,778,778,778,778,778,778,778,778,778,778,778,778,778,794,816,832,848,864,915,953,995,1028,1094,1147,1177,1213,1246,1276,1315,1324,1327,1327,1325,1318,1311,1301,1291,1282,1279,1273,1265,1254,1243,1216,1210,1208,1208,1207,1207,1206,1205,1199,1188,1157],"ymouse":[492,492,492,492,492,492,492,492,492,492,492,492,492,492,492,492,492,492,492,492,492,492,492,492,492,492,492,492,492,492,492,492,492,492,492,492,492,492,492,492,492,492,492,492,492,492,492,492,492,492,492,492,492,492,492,492,492,492,492,492,492,492,492,492,492,492,492,492,492,492,492,492,492,492,492,492,492,492,492,492,492,492,492,492,492,492,489,482,478,476,471,445,420,388,358,302,264,236,204,166,127,65,44,30,23,14,10,7,5,2,1,1,1,1,1,3,10,12,12,12,13,13,13,13,16,21,34],"timestamp_mouse":[8,33,44,63,82,103,122,142,164,182,203,223,243,263,282,304,324,343,364,383,403,422,444,463,484,504,523,544,563,582,604,623,643,662,683,703,723,743,763,782,803,822,843,862,883,902,923,944,962,984,1003,1023,1044,1062,1084,1103,1124,1144,1162,1183,1203,1223,1242,1263,1284,1302,1323,1343,1364,1383,1402,1424,1443,1463,1483,1504,1522,1544,1562,1584,1604,1622,1642,1663,1683,1703,1723,1743,1764,1783,1803,1822,1843,1863,1884,1903,1922,1943,1963,1982,2003,2022,2042,2063,2083,2103,2123,2142,2162,2183,2204,2223,2242,2262,2283,2302,2322,2343,2362,2383,2402,2422,2442,2463,2482,2504,2523],"xSR":741.5,"ySR":469.95,"xT1":424.9,"yT1":0,"xT2":1058.1,"yT2":0,"toosoon":0,"cond_shown":"Congruent","ratio_trial":100,"L_num":2,"L_den":5,"R_num":6,"R_den":12,"correct_side":2,"subjID":"sarasofiagarzonrocha22","gender":"1","school":"6","age":"11"},{"start_time":1551891895468,"click_time":1551891897486,"finger_time":1551891897006,"fix_duration":1360.3555864928912,"trial":14,"RT":1538,"MT":480,"sideResp":1,"stimulus":[],"xmouse":[804,804,804,804,804,804,804,804,804,804,804,804,804,804,804,804,804,804,804,804,804,804,804,804,804,804,804,804,804,804,804,804,804,804,804,804,804,804,804,804,804,804,804,804,804,804,804,804,804,804,804,804,804,804,804,804,804,804,804,804,804,804,804,804,804,804,804,804,804,804,804,804,803,799,797,796,793,790,780,773,764,754,709,689,670,654,641,619,609,595,581,570,548,536,530,525,519,514,504,502,497],"ymouse":[505,505,505,505,505,505,505,505,505,505,505,505,505,505,505,505,505,505,505,505,505,505,505,505,505,505,505,505,505,505,505,505,505,505,505,505,505,505,505,505,505,505,505,505,505,505,505,505,505,505,505,505,505,505,505,505,505,505,505,505,505,505,505,505,505,505,505,505,505,505,496,493,488,478,475,472,468,464,453,446,436,425,387,371,358,346,336,308,286,254,219,192,156,140,131,125,118,113,105,102,94],"timestamp_mouse":[18,43,58,77,99,118,137,158,179,198,219,239,258,279,298,317,337,358,377,398,417,439,458,479,497,518,539,558,579,599,618,638,657,679,697,719,738,757,779,797,819,837,859,879,897,919,939,958,978,998,1018,1039,1057,1078,1098,1117,1138,1157,1177,1198,1218,1237,1259,1279,1297,1319,1339,1359,1378,1397,1418,1439,1457,1477,1498,1519,1538,1557,1577,1597,1619,1639,1658,1677,1697,1719,1738,1758,1778,1798,1819,1838,1858,1877,1898,1917,1938,1957,1977,1999,2018],"xSR":741.5,"ySR":469.95,"xT1":424.9,"yT1":0,"xT2":1058.1,"yT2":0,"toosoon":0,"cond_shown":"Congruent","ratio_trial":300,"L_num":1,"L_den":30,"R_num":8,"R_den":24,"correct_side":2,"subjID":"sarasofiagarzonrocha22","gender":"1","school":"6","age":"11"},{"start_time":1551891899178,"click_time":1551891900606,"finger_time":1551891900246,"fix_duration":250,"trial":15,"RT":1068,"MT":360,"sideResp":1,"stimulus":[],"xmouse":[811,811,811,811,811,811,811,811,811,811,811,811,811,811,811,811,811,811,811,811,811,811,811,811,811,811,811,811,811,811,811,811,811,811,811,811,811,811,811,811,811,811,811,811,811,811,811,811,811,811,811,810,801,797,793,782,767,706,684,655,624,597,578,561,555,548,541,532,529,527,524,522],"ymouse":[508,508,508,508,508,508,508,508,508,508,508,508,508,508,508,508,508,508,508,508,508,508,508,508,508,508,508,508,508,508,508,508,508,508,508,508,508,508,508,508,508,508,508,508,508,508,508,508,508,508,508,509,491,463,434,398,354,250,225,199,178,160,149,137,133,130,125,118,114,109,105,99],"timestamp_mouse":[19,36,48,69,87,108,129,147,169,187,207,228,249,267,288,308,328,348,368,389,407,429,449,467,487,509,527,547,569,587,609,629,647,667,688,708,728,748,769,788,807,829,848,867,887,909,927,949,968,987,1009,1028,1048,1068,1088,1108,1128,1148,1167,1188,1208,1228,1249,1268,1288,1308,1328,1348,1369,1388,1407,1427],"xSR":741.5,"ySR":469.95,"xT1":424.9,"yT1":0,"xT2":1058.1,"yT2":0,"toosoon":0,"cond_shown":"Congruent","ratio_trial":300,"L_num":4,"L_den":10,"R_num":1,"R_den":10,"correct_side":1,"subjID":"sarasofiagarzonrocha22","gender":"1","school":"6","age":"11"},{"start_time":1551891902961,"click_time":1551891904826,"finger_time":1551891904345,"fix_duration":454.0959604974678,"trial":16,"RT":1384,"MT":481,"sideResp":1,"stimulus":[],"xmouse":[769,769,769,769,769,769,769,769,769,769,769,769,769,769,769,769,769,769,769,769,769,769,769,769,769,769,769,769,769,769,769,769,769,769,769,769,769,769,769,769,769,769,769,769,769,769,769,769,769,769,769,769,769,769,769,769,769,769,769,769,769,769,769,769,769,769,769,769,768,760,755,745,733,705,693,685,677,670,653,643,636,626,617,587,572,559,554,550,547,545,543,539,534,513],"ymouse":[521,521,521,521,521,521,521,521,521,521,521,521,521,521,521,521,521,521,521,521,521,521,521,521,521,521,521,521,521,521,521,521,521,521,521,521,521,521,521,521,521,521,521,521,521,521,521,521,521,521,521,521,521,521,521,521,521,521,521,521,521,521,521,521,521,521,521,521,506,464,433,398,369,319,302,287,273,261,239,226,214,198,181,143,126,115,109,105,100,97,93,88,82,70],"timestamp_mouse":[10,34,45,66,85,104,125,145,164,185,204,226,244,264,285,305,324,345,365,384,406,426,444,466,484,505,526,545,566,585,606,625,645,665,685,704,726,744,765,786,805,824,844,865,885,905,925,944,966,985,1004,1026,1045,1065,1086,1105,1126,1146,1165,1185,1204,1226,1246,1265,1285,1305,1326,1345,1365,1384,1404,1425,1445,1465,1484,1506,1525,1545,1566,1584,1605,1626,1646,1666,1684,1705,1725,1744,1765,1785,1805,1826,1846,1865],"xSR":741.5,"ySR":469.95,"xT1":424.9,"yT1":0,"xT2":1058.1,"yT2":0,"toosoon":0,"cond_shown":"Incongruent","ratio_trial":300,"L_num":4,"L_den":20,"R_num":2,"R_den":4,"correct_side":2,"subjID":"sarasofiagarzonrocha22","gender":"1","school":"6","age":"11"},{"start_time":1551891907314,"click_time":1551891908827,"finger_time":1551891908445,"fix_duration":667.591308778433,"trial":17,"RT":1131,"MT":382,"sideResp":2,"stimulus":[],"xmouse":[822,822,822,822,822,822,822,822,822,822,822,822,822,822,822,822,822,822,822,822,822,822,822,822,822,822,822,822,822,822,822,822,822,822,822,822,822,822,822,822,822,822,822,822,822,822,822,822,822,822,822,822,822,824,829,840,853,857,861,865,878,894,917,947,991,1053,1067,1074,1079,1081,1083,1084,1086,1091,1095,1105],"ymouse":[535,535,535,535,535,535,535,535,535,535,535,535,535,535,535,535,535,535,535,535,535,535,535,535,535,535,535,535,535,535,535,535,535,535,535,535,535,535,535,535,535,535,535,535,535,535,535,535,535,535,535,535,535,534,530,525,516,512,508,503,483,455,423,377,309,191,161,145,133,127,123,119,117,112,108,97],"timestamp_mouse":[20,31,52,72,91,113,133,152,173,193,213,232,251,273,292,311,333,352,373,391,411,433,451,472,491,511,533,551,571,593,612,632,653,671,692,711,731,751,771,791,812,831,851,873,891,913,931,951,973,992,1012,1033,1051,1072,1092,1111,1131,1153,1173,1193,1212,1232,1252,1271,1291,1313,1331,1352,1373,1392,1412,1433,1451,1472,1492,1512],"xSR":741.5,"ySR":469.95,"xT1":424.9,"yT1":0,"xT2":1058.1,"yT2":0,"toosoon":0,"cond_shown":"Incongruent","ratio_trial":200,"L_num":7,"L_den":10,"R_num":14,"R_den":28,"correct_side":1,"subjID":"sarasofiagarzonrocha22","gender":"1","school":"6","age":"11"},{"start_time":1551891912006,"click_time":1551891913546,"finger_time":1551891913246,"fix_duration":1380.974621919266,"trial":18,"RT":1240,"MT":300,"sideResp":2,"stimulus":[],"xmouse":[784,784,784,784,784,784,784,784,784,784,784,784,784,784,784,784,784,784,784,784,784,784,784,784,784,784,784,784,784,784,784,784,784,784,784,784,784,784,784,784,784,784,784,784,784,784,784,784,784,784,784,784,784,784,784,784,784,786,797,814,837,904,936,966,993,1040,1052,1060,1064,1064,1065,1069,1076,1081,1085,1087,1087],"ymouse":[515,515,515,515,515,515,515,515,515,515,515,515,515,515,515,515,515,515,515,515,515,515,515,515,515,515,515,515,515,515,515,515,515,515,515,515,515,515,515,515,515,515,515,515,515,515,515,515,515,515,515,515,515,515,515,515,515,514,507,498,485,443,416,383,345,247,219,198,184,178,172,155,143,130,115,103,88],"timestamp_mouse":[38,40,60,79,100,120,139,159,181,200,221,241,259,279,300,319,340,359,381,400,419,440,460,479,501,519,539,560,580,599,619,641,659,681,699,719,741,761,779,799,820,840,859,879,900,919,940,960,980,999,1021,1039,1059,1079,1100,1119,1141,1159,1180,1199,1219,1240,1260,1279,1299,1321,1339,1359,1379,1401,1420,1440,1459,1479,1500,1520,1540],"xSR":741.5,"ySR":469.95,"xT1":424.9,"yT1":0,"xT2":1058.1,"yT2":0,"toosoon":0,"cond_shown":"Incongruent","ratio_trial":300,"L_num":13,"L_den":26,"R_num":12,"R_den":15,"correct_side":2,"subjID":"sarasofiagarzonrocha22","gender":"1","school":"6","age":"11"},{"start_time":1551891916041,"click_time":1551891917827,"finger_time":1551891917346,"fix_duration":1414.8628268526977,"trial":19,"RT":1305,"MT":481,"sideResp":1,"stimulus":[],"xmouse":[769,769,769,769,769,769,769,769,769,769,769,769,769,769,769,769,769,769,769,769,769,769,769,769,769,769,769,769,769,769,769,769,769,769,769,769,769,769,769,769,769,769,769,769,769,769,769,769,769,769,769,769,769,769,769,769,769,769,769,769,769,769,769,769,769,765,756,746,734,704,689,678,672,670,669,650,642,635,632,625,621,614,602,577,555,541,536,532,527,516],"ymouse":[531,531,531,531,531,531,531,531,531,531,531,531,531,531,531,531,531,531,531,531,531,531,531,531,531,531,531,531,531,531,531,531,531,531,531,531,531,531,531,531,531,531,531,531,531,531,531,531,531,531,531,531,531,531,531,531,531,531,531,531,531,531,530,520,471,449,426,401,374,311,287,269,258,250,244,218,209,203,199,187,179,167,151,130,116,107,103,98,93,81],"timestamp_mouse":[11,33,44,65,85,105,126,144,164,185,206,226,244,265,285,304,325,345,366,386,406,425,445,466,484,506,525,544,566,584,605,625,645,666,685,704,724,745,764,785,805,825,844,864,886,906,925,946,965,986,1006,1025,1045,1065,1085,1105,1126,1144,1164,1185,1204,1226,1244,1265,1285,1305,1325,1346,1365,1385,1405,1425,1444,1465,1484,1504,1524,1545,1564,1586,1605,1625,1644,1665,1685,1704,1725,1744,1765,1786],"xSR":741.5,"ySR":469.95,"xT1":424.9,"yT1":0,"xT2":1058.1,"yT2":0,"toosoon":0,"cond_shown":"Congruent","ratio_trial":200,"L_num":14,"L_den":28,"R_num":6,"R_den":20,"correct_side":1,"subjID":"sarasofiagarzonrocha22","gender":"1","school":"6","age":"11"},{"start_time":1551891919833,"click_time":1551891921546,"finger_time":1551891921226,"fix_duration":485.4053165773499,"trial":20,"RT":1393,"MT":320,"sideResp":2,"stimulus":[],"xmouse":[801,801,801,801,801,801,801,801,801,801,801,801,801,801,801,801,801,801,801,801,801,801,801,801,801,801,801,801,801,801,801,801,801,801,801,801,801,801,801,801,801,801,801,801,801,801,801,801,801,801,801,801,801,801,801,801,801,801,801,801,801,801,801,801,801,801,805,813,827,861,882,905,935,972,1017,1120,1137,1142,1142,1142,1139,1139,1139,1139,1138,1134],"ymouse":[495,495,495,495,495,495,495,495,495,495,495,495,495,495,495,495,495,495,495,495,495,495,495,495,495,495,495,495,495,495,495,495,495,495,495,495,495,495,495,495,495,495,495,495,495,495,495,495,495,495,495,495,495,495,495,495,495,495,495,495,495,495,495,495,495,495,494,485,475,446,428,408,384,351,307,200,180,171,165,160,150,142,130,117,106,84],"timestamp_mouse":[12,43,52,73,93,112,133,153,173,193,212,234,252,273,293,312,333,354,372,394,413,433,453,473,492,514,532,552,573,592,612,634,653,673,693,713,732,753,772,794,814,833,853,872,893,914,932,954,972,993,1013,1033,1053,1074,1093,1112,1134,1154,1174,1193,1213,1233,1254,1272,1293,1312,1333,1353,1373,1393,1412,1432,1453,1474,1492,1512,1532,1552,1573,1592,1613,1634,1653,1673,1692,1713],"xSR":741.5,"ySR":469.95,"xT1":424.9,"yT1":0,"xT2":1058.1,"yT2":0,"toosoon":0,"cond_shown":"Congruent","ratio_trial":300,"L_num":1,"L_den":5,"R_num":6,"R_den":12,"correct_side":2,"subjID":"sarasofiagarzonrocha22","gender":"1","school":"6","age":"11"},{"start_time":1551891923544,"click_time":1551891925405,"finger_time":1551891924945,"fix_duration":496.1986873940517,"trial":21,"RT":1401,"MT":460,"sideResp":1,"stimulus":[],"xmouse":[807,807,807,807,807,807,807,807,807,807,807,807,807,807,807,807,807,807,807,807,807,807,807,807,807,807,807,807,807,807,807,807,807,807,807,807,807,807,807,807,807,807,807,807,807,807,807,807,807,807,807,807,807,807,807,814,823,826,826,826,826,826,826,826,826,829,831,831,831,831,828,817,795,772,741,683,653,634,622,613,599,596,595,594,594,594,593,591,587,577,559,546,530,517],"ymouse":[516,516,516,516,516,516,516,516,516,516,516,516,516,516,516,516,516,516,516,516,516,516,516,516,516,516,516,516,516,516,516,516,516,516,516,516,516,516,516,516,516,516,516,516,516,516,516,516,516,516,516,516,516,516,516,513,508,506,506,506,506,506,506,506,506,502,498,496,494,491,463,442,414,389,360,306,273,248,225,206,180,175,174,173,171,169,168,163,155,141,120,110,99,90],"timestamp_mouse":[10,31,42,61,81,103,121,142,162,182,203,221,241,261,282,302,321,341,362,381,402,422,443,461,483,503,521,541,562,581,602,621,642,662,682,702,721,741,762,782,802,821,841,863,881,901,923,942,961,982,1001,1022,1041,1063,1082,1102,1121,1143,1162,1182,1201,1223,1243,1263,1282,1302,1323,1343,1362,1381,1401,1421,1442,1461,1483,1501,1521,1541,1562,1581,1601,1621,1642,1661,1683,1702,1721,1741,1762,1782,1802,1822,1842,1861],"xSR":741.5,"ySR":469.95,"xT1":424.9,"yT1":0,"xT2":1058.1,"yT2":0,"toosoon":0,"cond_shown":"Incongruent","ratio_trial":200,"L_num":11,"L_den":20,"R_num":3,"R_den":4,"correct_side":2,"subjID":"sarasofiagarzonrocha22","gender":"1","school":"6","age":"11"},{"start_time":1551891927447,"click_time":1551891928645,"finger_time":1551891928366,"fix_duration":539.5684863619981,"trial":22,"RT":919,"MT":279,"sideResp":2,"stimulus":[],"xmouse":[808,808,808,808,808,808,808,808,808,808,808,808,808,808,808,808,808,808,808,808,808,808,808,808,808,808,808,808,808,808,808,808,808,808,808,808,808,808,808,808,808,808,808,808,839,873,899,924,948,993,1019,1037,1051,1058,1071,1075,1078,1079,1079,1079],"ymouse":[508,508,508,508,508,508,508,508,508,508,508,508,508,508,508,508,508,508,508,508,508,508,508,508,508,508,508,508,508,508,508,508,508,508,508,508,508,508,508,508,508,508,508,508,481,454,434,416,395,341,299,260,223,196,138,123,114,107,101,92],"timestamp_mouse":[34,39,60,78,100,119,140,159,179,198,220,238,258,280,299,319,339,358,380,400,418,439,459,479,498,520,540,558,580,598,620,639,659,680,698,719,738,758,779,799,819,839,858,879,900,919,940,958,980,999,1019,1038,1058,1078,1098,1118,1138,1159,1180,1198],"xSR":741.5,"ySR":469.95,"xT1":424.9,"yT1":0,"xT2":1058.1,"yT2":0,"toosoon":0,"cond_shown":"Incongruent","ratio_trial":200,"L_num":9,"L_den":15,"R_num":8,"R_den":10,"correct_side":2,"subjID":"sarasofiagarzonrocha22","gender":"1","school":"6","age":"11"},{"start_time":1551891931391,"click_time":1551891933006,"finger_time":1551891932347,"fix_duration":1382.3293247216582,"trial":23,"RT":956,"MT":659,"sideResp":1,"stimulus":[],"xmouse":[823,823,823,823,823,823,823,823,823,823,823,823,823,823,823,823,823,823,823,823,823,823,823,823,823,823,823,823,823,823,823,823,823,823,823,823,823,823,823,823,823,823,823,823,823,823,823,805,784,735,663,584,477,443,417,396,355,347,341,339,338,338,338,338,338,342,358,368,375,380,381,383,386,391,394,398,398,403,411,423,434],"ymouse":[525,525,525,525,525,525,525,525,525,525,525,525,525,525,525,525,525,525,525,525,525,525,525,525,525,525,525,525,525,525,525,525,525,525,525,525,525,525,525,525,525,525,525,525,525,515,498,443,422,389,351,309,248,221,195,167,125,116,110,105,104,103,103,103,99,93,73,69,67,66,66,66,67,67,67,66,66,66,66,66,66],"timestamp_mouse":[14,35,54,75,95,115,135,155,175,195,214,234,254,274,294,315,335,355,375,394,416,434,456,474,494,515,535,554,576,595,616,634,655,674,695,716,734,756,775,794,815,835,854,876,895,914,934,956,975,994,1016,1034,1054,1075,1096,1116,1136,1156,1175,1196,1215,1236,1254,1275,1294,1316,1335,1355,1375,1395,1414,1434,1454,1476,1494,1515,1534,1554,1575,1595,1615],"xSR":741.5,"ySR":469.95,"xT1":424.9,"yT1":0,"xT2":1058.1,"yT2":0,"toosoon":0,"cond_shown":"Incongruent","ratio_trial":300,"L_num":8,"L_den":10,"R_num":14,"R_den":28,"correct_side":1,"subjID":"sarasofiagarzonrocha22","gender":"1","school":"6","age":"11"},{"start_time":1551891935245,"click_time":1551891936806,"finger_time":1551891936526,"fix_duration":817.737800383282,"trial":24,"RT":1281,"MT":280,"sideResp":2,"stimulus":[],"xmouse":[782,782,782,782,782,782,782,782,782,782,782,782,782,782,782,782,782,782,782,782,782,782,782,782,782,782,782,782,782,782,782,782,782,782,782,782,782,782,782,782,782,782,782,782,782,782,782,782,782,782,782,782,782,782,782,782,782,782,782,782,782,790,806,839,899,930,954,973,989,1023,1039,1056,1065,1070,1075,1088,1091,1094,1100],"ymouse":[538,538,538,538,538,538,538,538,538,538,538,538,538,538,538,538,538,538,538,538,538,538,538,538,538,538,538,538,538,538,538,538,538,538,538,538,538,538,538,538,538,538,538,538,538,538,538,538,538,538,538,538,538,538,538,538,538,538,538,538,538,533,524,500,467,452,435,415,387,306,266,231,205,186,170,127,114,106,97],"timestamp_mouse":[11,37,42,60,80,100,122,141,160,181,201,221,240,261,281,302,320,341,361,382,402,420,441,461,481,502,521,540,562,580,601,621,641,660,682,701,721,742,760,782,800,821,840,862,880,902,920,942,961,982,1000,1021,1040,1060,1082,1101,1120,1141,1161,1180,1201,1221,1241,1261,1281,1300,1321,1342,1361,1381,1401,1420,1441,1460,1481,1502,1521,1542,1561],"xSR":741.5,"ySR":469.95,"xT1":424.9,"yT1":0,"xT2":1058.1,"yT2":0,"toosoon":0,"cond_shown":"Incongruent","ratio_trial":200,"L_num":3,"L_den":10,"R_num":1,"R_den":2,"correct_side":2,"subjID":"sarasofiagarzonrocha22","gender":"1","school":"6","age":"11"},{"start_time":1551891939011,"click_time":1551891940227,"finger_time":1551891940027,"fix_duration":784.1226871010574,"trial":25,"RT":1016,"MT":200,"sideResp":1,"stimulus":[],"xmouse":[796,796,796,796,796,796,796,796,796,796,796,796,796,796,796,796,796,796,796,796,796,796,796,796,796,796,796,796,796,796,796,796,796,796,796,796,796,796,796,796,796,796,796,796,796,796,796,796,796,791,763,740,711,673,609,560,550,542,536,529,512],"ymouse":[510,510,510,510,510,510,510,510,510,510,510,510,510,510,510,510,510,510,510,510,510,510,510,510,510,510,510,510,510,510,510,510,510,510,510,510,510,510,510,510,510,510,510,510,510,510,510,510,510,501,458,427,385,335,243,171,151,132,117,100,70],"timestamp_mouse":[14,35,54,76,95,114,136,155,176,196,216,234,256,274,294,315,336,356,374,396,414,436,454,474,494,514,536,556,575,595,616,634,655,676,694,716,734,756,774,794,815,834,856,874,896,915,936,956,974,995,1016,1035,1055,1074,1094,1116,1134,1155,1175,1194,1215],"xSR":741.5,"ySR":469.95,"xT1":424.9,"yT1":0,"xT2":1058.1,"yT2":0,"toosoon":0,"cond_shown":"Incongruent","ratio_trial":200,"L_num":4,"L_den":5,"R_num":6,"R_den":10,"correct_side":1,"subjID":"sarasofiagarzonrocha22","gender":"1","school":"6","age":"11"},{"start_time":1551891942338,"click_time":1551891944306,"finger_time":1551891943905,"fix_duration":250,"trial":26,"RT":1567,"MT":401,"sideResp":1,"stimulus":[],"xmouse":[777,777,777,777,777,777,777,777,777,777,777,777,777,777,777,777,777,777,777,777,777,777,777,777,777,777,777,777,777,777,777,777,777,777,777,777,777,777,777,777,777,777,777,777,777,777,777,777,777,777,777,777,777,777,777,777,777,777,777,777,777,777,777,777,777,777,777,777,777,777,777,777,777,777,777,777,765,756,732,685,672,664,660,658,654,644,637,634,631,621,615,608,601,593,575,563,549,532,516],"ymouse":[504,504,504,504,504,504,504,504,504,504,504,504,504,504,504,504,504,504,504,504,504,504,504,504,504,504,504,504,504,504,504,504,504,504,504,504,504,504,504,504,504,504,504,504,504,504,504,504,504,504,504,504,504,504,504,504,504,504,504,504,504,504,504,504,504,504,504,504,504,504,504,504,504,504,504,504,487,473,440,373,352,332,316,298,277,237,220,209,200,168,158,146,135,124,100,86,75,63,51],"timestamp_mouse":[10,40,48,68,89,108,128,148,169,188,208,229,248,267,288,307,328,347,369,388,409,428,448,468,489,508,527,549,567,589,607,628,647,669,689,708,728,747,768,789,809,829,848,869,887,908,928,949,967,988,1008,1028,1049,1069,1088,1109,1128,1148,1169,1187,1208,1228,1248,1268,1288,1308,1329,1349,1367,1387,1407,1429,1447,1468,1488,1507,1528,1548,1567,1589,1607,1628,1653,1668,1688,1707,1727,1748,1767,1789,1807,1827,1847,1869,1889,1908,1928,1948,1967],"xSR":741.5,"ySR":469.95,"xT1":424.9,"yT1":0,"xT2":1058.1,"yT2":0,"toosoon":0,"cond_shown":"Incongruent","ratio_trial":100,"L_num":10,"L_den":25,"R_num":8,"R_den":16,"correct_side":2,"subjID":"sarasofiagarzonrocha22","gender":"1","school":"6","age":"11"},{"start_time":1551891946195,"click_time":1551891948084,"finger_time":1551891947544,"fix_duration":250,"trial":27,"RT":1349,"MT":540,"sideResp":1,"stimulus":[],"xmouse":[792,792,792,792,792,792,792,792,792,792,792,792,792,792,792,792,792,792,792,792,792,792,792,792,792,792,792,792,792,792,792,792,792,792,792,792,792,792,792,792,792,792,792,792,792,792,792,792,792,792,792,792,792,792,792,792,792,792,792,792,792,792,792,792,792,787,783,741,725,714,704,687,681,680,680,679,666,646,636,629,622,608,598,586,571,560,547,547,547,546,542,534,531,526,522],"ymouse":[506,506,506,506,506,506,506,506,506,506,506,506,506,506,506,506,506,506,506,506,506,506,506,506,506,506,506,506,506,506,506,506,506,506,506,506,506,506,506,506,506,506,506,506,506,506,506,506,506,506,506,506,506,506,506,506,506,506,506,506,506,506,506,506,506,500,488,377,337,301,276,235,220,209,199,186,153,123,111,103,97,85,80,76,72,70,69,69,69,69,69,69,68,67,65],"timestamp_mouse":[10,32,50,69,90,110,129,150,169,188,210,230,250,270,288,310,330,349,369,390,409,430,450,469,490,510,529,549,569,590,609,628,650,668,690,709,729,749,769,789,809,830,848,869,889,909,930,948,969,989,1009,1029,1049,1068,1089,1109,1129,1150,1169,1189,1209,1229,1248,1269,1289,1309,1330,1349,1369,1389,1409,1430,1449,1469,1489,1509,1529,1549,1569,1590,1609,1630,1648,1669,1689,1709,1730,1749,1769,1788,1809,1830,1849,1869,1889],"xSR":741.5,"ySR":469.95,"xT1":424.9,"yT1":0,"xT2":1058.1,"yT2":0,"toosoon":0,"cond_shown":"Incongruent","ratio_trial":100,"L_num":13,"L_den":26,"R_num":12,"R_den":20,"correct_side":2,"subjID":"sarasofiagarzonrocha22","gender":"1","school":"6","age":"11"},{"start_time":1551891949948,"click_time":1551891951324,"finger_time":1551891950884,"fix_duration":422.27453501153656,"trial":28,"RT":936,"MT":440,"sideResp":2,"stimulus":[],"xmouse":[787,787,787,787,787,787,787,787,787,787,787,787,787,787,787,787,787,787,787,787,787,787,787,787,787,787,787,787,787,787,787,787,787,787,787,787,787,787,787,787,787,787,787,799,820,840,857,877,921,937,950,961,972,994,1005,1016,1026,1032,1039,1042,1046,1048,1053,1060,1078,1089,1102,1115,1142],"ymouse":[554,554,554,554,554,554,554,554,554,554,554,554,554,554,554,554,554,554,554,554,554,554,554,554,554,554,554,554,554,554,554,554,554,554,554,554,554,554,554,554,554,554,554,546,536,525,512,497,440,416,395,375,357,321,304,285,268,254,233,223,213,204,193,181,154,138,119,102,64],"timestamp_mouse":[16,43,56,76,97,117,137,157,177,195,216,237,256,275,297,316,336,357,377,396,416,436,456,477,495,516,536,555,576,595,615,637,655,676,696,715,736,757,777,797,815,836,856,877,896,916,936,956,977,995,1016,1036,1057,1077,1095,1115,1136,1157,1177,1196,1216,1237,1257,1277,1295,1317,1337,1357,1376],"xSR":741.5,"ySR":469.95,"xT1":424.9,"yT1":0,"xT2":1058.1,"yT2":0,"toosoon":0,"cond_shown":"Congruent","ratio_trial":100,"L_num":7,"L_den":14,"R_num":15,"R_den":25,"correct_side":2,"subjID":"sarasofiagarzonrocha22","gender":"1","school":"6","age":"11"},{"start_time":1551891952975,"click_time":1551891955044,"finger_time":1551891954525,"fix_duration":250,"trial":29,"RT":1550,"MT":519,"sideResp":1,"stimulus":[],"xmouse":[773,773,773,773,773,773,773,773,773,773,773,773,773,773,773,773,773,773,773,773,773,773,773,773,773,773,773,773,773,773,773,773,773,773,773,773,773,773,773,773,773,773,773,773,773,773,773,773,773,773,773,773,773,773,773,773,773,773,773,773,773,773,773,773,773,773,773,773,773,773,773,773,773,773,773,773,772,753,739,716,692,675,663,660,659,656,654,645,642,637,632,625,607,596,589,581,576,573,547,536,531,528,525,523],"ymouse":[516,516,516,516,516,516,516,516,516,516,516,516,516,516,516,516,516,516,516,516,516,516,516,516,516,516,516,516,516,516,516,516,516,516,516,516,516,516,516,516,516,516,516,516,516,516,516,516,516,516,516,516,516,516,516,516,516,516,516,516,516,516,516,516,516,516,516,516,516,516,516,516,516,516,516,514,509,469,437,393,351,318,279,261,242,223,205,169,152,130,109,91,62,47,39,32,27,23,7,3,1,1,1,1],"timestamp_mouse":[10,33,49,80,90,109,130,148,170,189,209,229,250,269,289,308,330,348,370,389,408,430,449,469,488,509,529,549,568,589,608,630,649,670,690,709,729,750,768,790,809,829,849,870,888,908,929,949,970,989,1008,1029,1049,1068,1089,1108,1129,1148,1170,1189,1209,1228,1249,1270,1290,1308,1329,1348,1370,1390,1409,1429,1449,1470,1488,1509,1529,1550,1569,1589,1610,1630,1650,1669,1689,1709,1729,1750,1768,1789,1810,1829,1850,1869,1889,1910,1928,1949,1970,1989,2008,2029,2050,2069],"xSR":741.5,"ySR":469.95,"xT1":424.9,"yT1":0,"xT2":1058.1,"yT2":0,"toosoon":0,"cond_shown":"Incongruent","ratio_trial":200,"L_num":4,"L_den":30,"R_num":1,"R_den":3,"correct_side":2,"subjID":"sarasofiagarzonrocha22","gender":"1","school":"6","age":"11"},{"start_time":1551891957738,"click_time":1551891959024,"finger_time":1551891958644,"fix_duration":1012.7405988684532,"trial":30,"RT":906,"MT":380,"sideResp":2,"stimulus":[],"xmouse":[775,775,775,775,775,775,775,775,775,775,775,775,775,775,775,775,775,775,775,775,775,775,775,775,775,775,775,775,775,775,775,775,775,775,775,775,775,775,775,775,775,775,775,775,788,852,938,1045,1164,1324,1334,1337,1339,1339,1339,1331,1324,1316,1309,1297,1249,1223,1200,1177,1146],"ymouse":[508,508,508,508,508,508,508,508,508,508,508,508,508,508,508,508,508,508,508,508,508,508,508,508,508,508,508,508,508,508,508,508,508,508,508,508,508,508,508,508,508,508,508,508,505,494,475,435,374,283,268,258,248,234,214,169,152,138,123,107,63,47,36,28,23],"timestamp_mouse":[10,37,46,66,85,106,125,146,166,187,206,226,247,267,285,307,326,346,366,386,406,427,446,466,486,506,527,547,567,585,606,626,645,667,687,705,726,747,765,787,805,826,847,866,886,906,926,947,966,988,1005,1026,1046,1066,1086,1106,1125,1146,1166,1186,1206,1226,1246,1267,1286],"xSR":741.5,"ySR":469.95,"xT1":424.9,"yT1":0,"xT2":1058.1,"yT2":0,"toosoon":0,"cond_shown":"Incongruent","ratio_trial":200,"L_num":7,"L_den":15,"R_num":6,"R_den":9,"correct_side":2,"subjID":"sarasofiagarzonrocha22","gender":"1","school":"6","age":"11"},{"start_time":1551891961005,"click_time":1551891962345,"finger_time":1551891961764,"fix_duration":678.1899043335397,"trial":31,"RT":759,"MT":581,"sideResp":2,"stimulus":[],"xmouse":[815,815,815,815,815,815,815,815,815,815,815,815,815,815,815,815,815,815,815,815,815,815,815,815,815,815,815,815,815,815,815,815,815,815,815,815,815,825,850,867,879,921,946,966,983,994,999,1001,1001,1003,1003,1003,1004,1005,1006,1008,1012,1028,1035,1042,1049,1056,1059,1059,1059,1061,1064,1077],"ymouse":[511,511,511,511,511,511,511,511,511,511,511,511,511,511,511,511,511,511,511,511,511,511,511,511,511,511,511,511,511,511,511,511,511,511,511,511,511,510,498,481,456,372,325,279,238,212,193,151,139,131,124,111,108,104,102,99,98,97,97,98,100,101,101,101,101,101,101,98],"timestamp_mouse":[1,19,40,59,78,100,119,139,160,180,199,218,239,260,279,299,318,340,360,378,400,419,438,458,479,499,518,540,559,578,600,619,638,660,678,698,719,738,759,778,800,820,839,859,879,899,918,938,959,980,998,1020,1039,1059,1079,1099,1119,1140,1159,1179,1200,1219,1239,1259,1278,1299,1319,1340],"xSR":741.5,"ySR":469.95,"xT1":424.9,"yT1":0,"xT2":1058.1,"yT2":0,"toosoon":0,"cond_shown":"Incongruent","ratio_trial":300,"L_num":4,"L_den":20,"R_num":2,"R_den":4,"correct_side":2,"subjID":"sarasofiagarzonrocha22","gender":"1","school":"6","age":"11"},{"start_time":1551891964217,"click_time":1551891965784,"finger_time":1551891965204,"fix_duration":610.3194443884095,"trial":32,"RT":987,"MT":580,"sideResp":2,"stimulus":[],"xmouse":[810,810,810,810,810,810,810,810,810,810,810,810,810,810,810,810,810,810,810,810,810,810,810,810,810,810,810,810,810,810,810,810,810,810,810,810,810,810,810,810,810,810,810,810,810,810,810,811,828,842,869,879,890,901,911,935,943,950,958,964,969,969,970,970,972,973,993,1009,1024,1042,1068,1075,1081,1086,1092,1094,1097,1099,1101],"ymouse":[513,513,513,513,513,513,513,513,513,513,513,513,513,513,513,513,513,513,513,513,513,513,513,513,513,513,513,513,513,513,513,513,513,513,513,513,513,513,513,513,513,513,513,513,513,513,513,513,499,484,436,411,388,361,336,285,268,251,235,226,214,210,206,203,202,200,186,177,168,159,144,137,133,129,124,122,105,101,96],"timestamp_mouse":[11,42,47,66,88,106,127,146,168,187,206,226,247,267,287,307,327,348,367,388,406,428,446,468,486,507,527,547,568,588,606,627,646,667,687,708,726,747,767,787,807,828,846,868,886,907,927,947,967,987,1009,1027,1047,1067,1087,1107,1126,1148,1166,1187,1208,1227,1248,1267,1286,1308,1328,1347,1367,1387,1408,1427,1448,1466,1488,1507,1527,1547,1567],"xSR":741.5,"ySR":469.95,"xT1":424.9,"yT1":0,"xT2":1058.1,"yT2":0,"toosoon":0,"cond_shown":"Incongruent","ratio_trial":300,"L_num":13,"L_den":26,"R_num":12,"R_den":15,"correct_side":2,"subjID":"sarasofiagarzonrocha22","gender":"1","school":"6","age":"11"},{"start_time":1551891968893,"click_time":1551891970825,"finger_time":1551891970444,"fix_duration":767.6794402605877,"trial":33,"RT":1551,"MT":381,"sideResp":1,"stimulus":[],"xmouse":[795,795,795,795,795,795,795,795,795,795,795,795,795,795,795,795,795,795,795,795,795,795,795,795,795,795,795,795,795,795,795,795,795,795,795,795,795,795,795,795,795,795,795,795,795,795,795,795,795,795,795,795,795,795,795,795,795,795,795,795,795,795,795,795,795,795,795,795,795,795,795,795,795,795,795,795,791,746,720,700,684,665,652,645,640,636,625,620,615,608,600,584,578,568,559,549,521],"ymouse":[547,547,547,547,547,547,547,547,547,547,547,547,547,547,547,547,547,547,547,547,547,547,547,547,547,547,547,547,547,547,547,547,547,547,547,547,547,547,547,547,547,547,547,547,547,547,547,547,547,547,547,547,547,547,547,547,547,547,547,547,547,547,547,547,547,547,547,547,547,547,547,547,547,547,547,543,533,463,427,395,368,322,287,267,246,231,196,178,165,152,140,125,120,114,108,100,76],"timestamp_mouse":[19,33,50,70,92,112,131,152,171,192,210,232,252,271,292,311,331,352,370,391,412,431,451,471,491,511,531,551,570,592,611,631,652,671,692,712,732,751,772,790,811,831,852,872,890,911,930,951,970,992,1011,1032,1052,1072,1091,1110,1132,1151,1171,1191,1211,1231,1251,1272,1292,1310,1332,1351,1372,1390,1411,1431,1451,1470,1491,1511,1531,1551,1571,1591,1612,1631,1650,1671,1692,1711,1732,1751,1772,1792,1811,1832,1851,1870,1892,1911,1931],"xSR":741.5,"ySR":469.95,"xT1":424.9,"yT1":0,"xT2":1058.1,"yT2":0,"toosoon":0,"cond_shown":"Congruent","ratio_trial":200,"L_num":16,"L_den":30,"R_num":9,"R_den":27,"correct_side":1,"subjID":"sarasofiagarzonrocha22","gender":"1","school":"6","age":"11"},{"start_time":1551891975052,"click_time":1551891976304,"finger_time":1551891975925,"fix_duration":1106.0754674776013,"trial":34,"RT":873,"MT":379,"sideResp":1,"stimulus":[],"xmouse":[797,797,797,797,797,797,797,797,797,797,797,797,797,797,797,797,797,797,797,797,797,797,797,797,797,797,797,797,797,797,797,797,797,797,797,797,797,797,797,797,785,765,742,641,605,583,571,564,556,554,552,549,545,540,533,532,532,532,532,531,529,525,520],"ymouse":[527,527,527,527,527,527,527,527,527,527,527,527,527,527,527,527,527,527,527,527,527,527,527,527,527,527,527,527,527,527,527,527,527,527,527,527,527,527,527,526,518,503,481,362,315,275,247,227,192,176,160,143,128,111,84,78,74,72,72,69,67,64,60],"timestamp_mouse":[11,45,52,72,93,113,132,153,173,193,213,233,253,272,292,311,332,352,373,393,413,433,452,473,492,512,532,552,572,593,612,632,651,673,693,712,733,753,773,792,812,831,853,873,891,912,933,952,973,992,1012,1032,1052,1072,1093,1112,1133,1152,1172,1192,1212,1231,1251],"xSR":741.5,"ySR":469.95,"xT1":424.9,"yT1":0,"xT2":1058.1,"yT2":0,"toosoon":0,"cond_shown":"Congruent","ratio_trial":200,"L_num":11,"L_den":22,"R_num":3,"R_den":10,"correct_side":1,"subjID":"sarasofiagarzonrocha22","gender":"1","school":"6","age":"11"},{"start_time":1551891977833,"click_time":1551891979604,"finger_time":1551891979124,"fix_duration":387.42640465999744,"trial":35,"RT":1291,"MT":480,"sideResp":2,"stimulus":[],"xmouse":[793,793,793,793,793,793,793,793,793,793,793,793,793,793,793,793,793,793,793,793,793,793,793,793,793,793,793,793,793,793,793,793,793,793,793,793,793,793,793,793,793,793,793,793,793,793,793,793,793,793,793,793,793,793,793,793,793,793,793,794,801,806,813,823,864,878,888,897,905,911,917,918,922,928,954,968,982,993,1003,1012,1028,1036,1042,1047,1048,1054,1055,1056,1059],"ymouse":[496,496,496,496,496,496,496,496,496,496,496,496,496,496,496,496,496,496,496,496,496,496,496,496,496,496,496,496,496,496,496,496,496,496,496,496,496,496,496,496,496,496,496,496,496,496,496,496,496,496,496,496,496,496,496,496,496,496,496,496,494,489,483,473,442,428,414,397,381,369,350,343,336,327,290,271,255,238,222,206,170,154,141,124,118,90,84,79,74],"timestamp_mouse":[10,39,51,72,91,112,132,151,171,191,211,230,252,272,292,310,331,352,371,392,412,430,451,470,492,512,532,552,570,592,612,630,651,672,692,711,731,751,771,790,812,832,852,872,892,912,932,950,972,992,1011,1032,1052,1071,1091,1111,1131,1150,1172,1192,1211,1231,1251,1270,1291,1311,1331,1351,1372,1392,1411,1431,1451,1471,1492,1510,1531,1551,1571,1590,1611,1631,1652,1671,1692,1711,1731,1751,1771],"xSR":741.5,"ySR":469.95,"xT1":424.9,"yT1":0,"xT2":1058.1,"yT2":0,"toosoon":0,"cond_shown":"Incongruent","ratio_trial":100,"L_num":8,"L_den":20,"R_num":1,"R_den":2,"correct_side":2,"subjID":"sarasofiagarzonrocha22","gender":"1","school":"6","age":"11"},{"start_time":1551891981237,"click_time":1551891982644,"finger_time":1551891982204,"fix_duration":250,"trial":36,"RT":967,"MT":440,"sideResp":2,"stimulus":[],"xmouse":[792,792,792,792,792,792,792,792,792,792,792,792,792,792,792,792,792,792,792,792,792,792,792,792,792,792,792,792,792,792,792,792,792,792,792,792,792,792,792,792,792,792,792,792,792,807,823,835,851,873,918,950,981,1004,1020,1044,1049,1050,1052,1055,1058,1060,1061,1061,1061,1064,1066,1070,1074,1077,1088],"ymouse":[542,542,542,542,542,542,542,542,542,542,542,542,542,542,542,542,542,542,542,542,542,542,542,542,542,542,542,542,542,542,542,542,542,542,542,542,542,542,542,542,542,542,542,542,542,536,525,517,505,489,456,428,399,372,347,298,284,272,264,249,239,229,218,205,175,163,151,139,127,112,80],"timestamp_mouse":[8,39,47,66,87,107,127,148,167,186,207,226,247,267,286,307,327,346,367,387,407,427,446,466,486,507,528,548,566,586,608,628,646,667,687,706,728,747,767,787,806,827,846,866,887,907,927,948,967,987,1006,1027,1047,1067,1086,1107,1127,1147,1168,1188,1207,1227,1248,1267,1288,1306,1327,1347,1367,1387,1407],"xSR":741.5,"ySR":469.95,"xT1":424.9,"yT1":0,"xT2":1058.1,"yT2":0,"toosoon":0,"cond_shown":"Incongruent","ratio_trial":200,"L_num":14,"L_den":30,"R_num":12,"R_den":18,"correct_side":2,"subjID":"sarasofiagarzonrocha22","gender":"1","school":"6","age":"11"},{"start_time":1551891985330,"click_time":1551891987164,"finger_time":1551891986625,"fix_duration":965.749910873483,"trial":37,"RT":1295,"MT":539,"sideResp":1,"stimulus":[],"xmouse":[780,780,780,780,780,780,780,780,780,780,780,780,780,780,780,780,780,780,780,780,780,780,780,780,780,780,780,780,780,780,780,780,780,780,780,780,780,780,780,780,780,780,780,780,780,780,780,780,780,780,780,780,780,780,780,780,780,780,780,780,780,781,776,769,760,740,728,719,711,698,692,684,676,671,665,649,639,627,611,574,554,545,538,533,526,525,525,525,525,525,525,524],"ymouse":[510,510,510,510,510,510,510,510,510,510,510,510,510,510,510,510,510,510,510,510,510,510,510,510,510,510,510,510,510,510,510,510,510,510,510,510,510,510,510,510,510,510,510,510,510,510,510,510,510,510,510,510,510,510,510,510,510,510,510,510,510,510,495,478,463,426,401,376,351,312,300,289,277,270,258,229,214,196,174,132,109,96,86,79,73,73,73,73,73,73,73,72],"timestamp_mouse":[20,42,55,75,94,115,135,154,175,193,215,234,253,273,295,315,335,355,374,394,415,435,455,474,495,514,535,555,573,593,615,635,653,675,695,714,735,753,775,795,814,835,854,874,895,915,934,954,973,995,1014,1034,1053,1075,1094,1115,1133,1155,1173,1195,1213,1234,1255,1274,1295,1313,1334,1354,1375,1395,1413,1434,1454,1474,1493,1514,1534,1555,1574,1594,1613,1633,1654,1675,1695,1714,1735,1753,1775,1794,1814,1834],"xSR":741.5,"ySR":469.95,"xT1":424.9,"yT1":0,"xT2":1058.1,"yT2":0,"toosoon":0,"cond_shown":"Congruent","ratio_trial":200,"L_num":15,"L_den":25,"R_num":4,"R_den":10,"correct_side":1,"subjID":"sarasofiagarzonrocha22","gender":"1","school":"6","age":"11"},{"start_time":1551891992044,"click_time":1551891993865,"finger_time":1551891993723,"fix_duration":737.1463635096526,"trial":38,"RT":1679,"MT":142,"sideResp":1,"stimulus":[],"xmouse":[789,789,789,789,789,789,789,789,789,789,789,789,789,789,789,789,789,789,789,789,789,789,789,789,789,789,789,789,789,789,789,789,789,789,789,789,789,789,789,789,789,789,789,789,789,789,789,789,789,789,789,789,789,789,789,789,789,789,789,789,789,789,789,789,789,789,789,789,789,789,789,789,789,789,789,789,789,789,789,789,789,786,777,761,729,627,586,547,509,478,447,436],"ymouse":[523,523,523,523,523,523,523,523,523,523,523,523,523,523,523,523,523,523,523,523,523,523,523,523,523,523,523,523,523,523,523,523,523,523,523,523,523,523,523,523,523,523,523,523,523,523,523,523,523,523,523,523,523,523,523,523,523,523,523,523,523,523,523,523,523,523,523,523,523,523,523,523,523,523,523,523,523,523,523,523,523,515,502,484,455,344,292,239,194,157,114,99],"timestamp_mouse":[8,33,41,60,79,101,120,141,159,179,201,220,239,260,280,300,321,341,361,380,400,421,440,460,481,500,520,539,560,581,600,619,639,660,681,701,721,740,760,779,801,820,840,861,881,899,920,939,961,979,1000,1021,1040,1059,1080,1099,1120,1139,1160,1180,1201,1221,1241,1259,1280,1300,1321,1340,1360,1380,1400,1420,1440,1461,1481,1500,1520,1540,1561,1580,1600,1620,1641,1660,1679,1699,1720,1740,1760,1779,1799,1821],"xSR":741.5,"ySR":469.95,"xT1":424.9,"yT1":0,"xT2":1058.1,"yT2":0,"toosoon":0,"cond_shown":"Incongruent","ratio_trial":200,"L_num":4,"L_den":5,"R_num":6,"R_den":10,"correct_side":1,"subjID":"sarasofiagarzonrocha22","gender":"1","school":"6","age":"11"},{"start_time":1551891998027,"click_time":1551891999265,"finger_time":1551891998804,"fix_duration":841.6286980101642,"trial":39,"RT":777,"MT":461,"sideResp":2,"stimulus":[],"xmouse":[808,808,808,808,808,808,808,808,808,808,808,808,808,808,808,808,808,808,808,808,808,808,808,808,808,808,808,808,808,808,808,808,808,808,808,808,808,822,869,958,994,1024,1042,1051,1058,1062,1065,1069,1071,1072,1072,1072,1072,1072,1072,1072,1076,1080,1085,1092,1104,1106],"ymouse":[520,520,520,520,520,520,520,520,520,520,520,520,520,520,520,520,520,520,520,520,520,520,520,520,520,520,520,520,520,520,520,520,520,520,520,520,520,512,487,403,363,333,313,295,275,221,198,182,170,161,154,154,154,154,154,151,147,143,136,122,100,94],"timestamp_mouse":[32,37,56,76,97,117,137,157,177,197,217,237,258,277,298,318,337,357,378,396,417,438,456,477,497,517,538,556,577,597,618,636,656,678,697,717,736,757,777,798,817,837,858,877,897,916,937,958,977,997,1017,1037,1056,1078,1096,1117,1137,1157,1177,1197,1217,1238],"xSR":741.5,"ySR":469.95,"xT1":424.9,"yT1":0,"xT2":1058.1,"yT2":0,"toosoon":0,"cond_shown":"Congruent","ratio_trial":300,"L_num":8,"L_den":15,"R_num":10,"R_den":12,"correct_side":2,"subjID":"sarasofiagarzonrocha22","gender":"1","school":"6","age":"11"},{"start_time":1551892001646,"click_time":1551892003105,"finger_time":1551892002624,"fix_duration":1060.4031260184736,"trial":40,"RT":978,"MT":481,"sideResp":1,"stimulus":[],"xmouse":[808,808,808,808,808,808,808,808,808,808,808,808,808,808,808,808,808,808,808,808,808,808,808,808,808,808,808,808,808,808,808,808,808,808,808,808,808,808,808,808,808,808,808,808,808,808,797,778,747,687,668,653,638,614,601,591,585,578,573,573,573,574,575,572,567,563,559,552,542,540,539,533,524],"ymouse":[517,517,517,517,517,517,517,517,517,517,517,517,517,517,517,517,517,517,517,517,517,517,517,517,517,517,517,517,517,517,517,517,517,517,517,517,517,517,517,517,517,517,517,517,517,515,495,472,443,394,376,356,314,255,231,214,198,186,176,174,171,166,157,129,120,114,110,106,101,101,100,95,89],"timestamp_mouse":[34,37,59,78,98,118,139,159,177,199,218,239,259,277,299,318,338,358,378,398,417,438,458,478,497,519,538,558,579,597,618,638,657,678,698,718,738,757,778,797,819,838,858,879,899,918,938,959,978,998,1017,1039,1059,1079,1098,1118,1137,1158,1179,1198,1218,1239,1259,1278,1298,1318,1338,1359,1379,1397,1418,1438,1459],"xSR":741.5,"ySR":469.95,"xT1":424.9,"yT1":0,"xT2":1058.1,"yT2":0,"toosoon":0,"cond_shown":"Congruent","ratio_trial":300,"L_num":11,"L_den":22,"R_num":2,"R_den":10,"correct_side":1,"subjID":"sarasofiagarzonrocha22","gender":"1","school":"6","age":"11"},{"start_time":1551892004636,"click_time":1551892006126,"finger_time":1551892005724,"fix_duration":250,"trial":41,"RT":1088,"MT":402,"sideResp":1,"stimulus":[],"xmouse":[799,799,799,799,799,799,799,799,799,799,799,799,799,799,799,799,799,799,799,799,799,799,799,799,799,799,799,799,799,799,799,799,799,799,799,799,799,799,799,799,799,799,799,799,799,799,799,799,799,799,799,793,787,776,764,739,733,725,714,689,680,673,665,660,643,633,622,608,597,583,560,551,540,529,492],"ymouse":[502,502,502,502,502,502,502,502,502,502,502,502,502,502,502,502,502,502,502,502,502,502,502,502,502,502,502,502,502,502,502,502,502,502,502,502,502,502,502,502,502,502,502,502,502,502,502,502,502,502,502,494,488,477,467,445,435,424,408,375,363,352,340,330,293,277,262,248,237,226,197,184,169,152,99],"timestamp_mouse":[8,36,49,68,88,109,129,149,169,189,207,228,248,269,289,308,328,347,368,388,409,428,447,469,487,509,528,548,569,589,609,628,648,667,688,708,728,749,768,788,808,828,848,868,889,909,928,948,968,987,1008,1028,1049,1068,1088,1107,1128,1148,1168,1189,1208,1228,1248,1268,1289,1307,1328,1349,1368,1387,1407,1429,1448,1468,1489],"xSR":741.5,"ySR":469.95,"xT1":424.9,"yT1":0,"xT2":1058.1,"yT2":0,"toosoon":0,"cond_shown":"Congruent","ratio_trial":300,"L_num":24,"L_den":30,"R_num":2,"R_den":4,"correct_side":1,"subjID":"sarasofiagarzonrocha22","gender":"1","school":"6","age":"11"},{"start_time":1551892008135,"click_time":1551892009864,"finger_time":1551892009403,"fix_duration":250,"trial":42,"RT":1268,"MT":461,"sideResp":1,"stimulus":[],"xmouse":[813,813,813,813,813,813,813,813,813,813,813,813,813,813,813,813,813,813,813,813,813,813,813,813,813,813,813,813,813,813,813,813,813,813,813,813,813,813,813,813,813,813,813,813,813,813,813,813,813,813,813,813,813,813,813,813,813,813,810,805,780,767,750,734,721,698,687,675,662,648,610,600,591,580,555,546,539,536,534,532,530,529,526,525,521,521,518],"ymouse":[526,526,526,526,526,526,526,526,526,526,526,526,526,526,526,526,526,526,526,526,526,526,526,526,526,526,526,526,526,526,526,526,526,526,526,526,526,526,526,526,526,526,526,526,526,526,526,526,526,526,526,526,526,526,526,526,525,524,521,516,500,492,483,474,466,440,422,400,377,353,294,277,256,233,191,178,169,164,158,153,140,133,126,122,109,104,96],"timestamp_mouse":[10,40,48,69,89,108,128,148,167,188,208,229,248,269,288,308,328,348,369,388,409,428,448,468,488,508,528,548,568,588,609,629,647,668,689,708,729,749,769,789,808,829,848,868,888,908,928,948,969,988,1009,1028,1049,1067,1088,1108,1129,1149,1169,1188,1208,1227,1249,1268,1288,1308,1328,1348,1369,1388,1408,1428,1448,1468,1488,1508,1528,1548,1568,1588,1608,1628,1649,1669,1688,1708,1729],"xSR":741.5,"ySR":469.95,"xT1":424.9,"yT1":0,"xT2":1058.1,"yT2":0,"toosoon":0,"cond_shown":"Congruent","ratio_trial":200,"L_num":15,"L_den":25,"R_num":4,"R_den":10,"correct_side":1,"subjID":"sarasofiagarzonrocha22","gender":"1","school":"6","age":"11"},{"start_time":1551892012579,"click_time":1551892014303,"finger_time":1551892013904,"fix_duration":1294.7274863320183,"trial":43,"RT":1325,"MT":399,"sideResp":2,"stimulus":[],"xmouse":[800,800,800,800,800,800,800,800,800,800,800,800,800,800,800,800,800,800,800,800,800,800,800,800,800,800,800,800,800,800,800,800,800,800,800,800,800,800,800,800,800,800,800,800,800,800,800,800,800,800,800,800,800,800,800,800,800,800,800,800,800,800,800,800,800,808,848,893,943,963,984,1000,1014,1039,1053,1066,1076,1088,1101,1103,1105,1105,1105,1107,1108,1109,1110],"ymouse":[510,510,510,510,510,510,510,510,510,510,510,510,510,510,510,510,510,510,510,510,510,510,510,510,510,510,510,510,510,510,510,510,510,510,510,510,510,510,510,510,510,510,510,510,510,510,510,510,510,510,510,510,510,510,510,510,510,510,510,510,510,510,510,510,510,505,484,458,424,409,390,373,352,315,297,284,273,252,211,189,172,158,137,125,114,105,95],"timestamp_mouse":[10,32,44,64,84,105,124,145,164,184,205,224,244,264,285,304,325,345,364,384,405,423,445,465,485,504,524,544,564,584,605,623,644,665,685,705,724,745,765,784,804,825,845,864,885,904,924,944,965,985,1004,1024,1044,1065,1084,1104,1125,1144,1165,1185,1204,1224,1244,1265,1284,1304,1325,1344,1364,1384,1404,1424,1444,1464,1484,1505,1525,1544,1564,1585,1604,1624,1645,1664,1684,1705,1724],"xSR":741.5,"ySR":469.95,"xT1":424.9,"yT1":0,"xT2":1058.1,"yT2":0,"toosoon":0,"cond_shown":"Congruent","ratio_trial":200,"L_num":3,"L_den":10,"R_num":14,"R_den":28,"correct_side":2,"subjID":"sarasofiagarzonrocha22","gender":"1","school":"6","age":"11"},{"start_time":1551892017451,"click_time":1551892018824,"finger_time":1551892018443,"fix_duration":1305.1561311263854,"trial":44,"RT":992,"MT":381,"sideResp":1,"stimulus":[],"xmouse":[808,808,808,808,808,808,808,808,808,808,808,808,808,808,808,808,808,808,808,808,808,808,808,808,808,808,808,808,808,808,808,808,808,808,808,808,808,808,808,808,808,808,808,808,808,808,808,804,785,730,696,668,653,634,626,619,607,600,591,588,586,583,581,569,562,552,541,532,523],"ymouse":[555,555,555,555,555,555,555,555,555,555,555,555,555,555,555,555,555,555,555,555,555,555,555,555,555,555,555,555,555,555,555,555,555,555,555,555,555,555,555,555,555,555,555,555,555,555,548,539,505,412,367,322,284,211,189,176,161,153,142,139,137,134,131,124,120,113,107,101,95],"timestamp_mouse":[13,39,52,73,92,111,132,152,172,192,213,233,253,272,293,313,332,352,373,392,412,432,453,473,493,511,532,553,573,592,612,633,652,672,692,712,732,753,773,792,812,832,853,872,893,913,932,952,972,992,1012,1032,1053,1073,1092,1112,1132,1152,1173,1192,1212,1233,1251,1272,1292,1312,1333,1353,1372],"xSR":741.5,"ySR":469.95,"xT1":424.9,"yT1":0,"xT2":1058.1,"yT2":0,"toosoon":0,"cond_shown":"Incongruent","ratio_trial":100,"L_num":1,"L_den":2,"R_num":8,"R_den":20,"correct_side":1,"subjID":"sarasofiagarzonrocha22","gender":"1","school":"6","age":"11"},{"start_time":1551892021451,"click_time":1551892022843,"finger_time":1551892022624,"fix_duration":1147.414461902131,"trial":45,"RT":1173,"MT":219,"sideResp":1,"stimulus":[],"xmouse":[807,807,807,807,807,807,807,807,807,807,807,807,807,807,807,807,807,807,807,807,807,807,807,807,807,807,807,807,807,807,807,807,807,807,807,807,807,807,807,807,807,807,807,807,807,807,807,807,807,807,807,807,807,807,807,807,807,808,790,773,752,731,708,670,628,609,590,570,551,522],"ymouse":[490,490,490,490,490,490,490,490,490,490,490,490,490,490,490,490,490,490,490,490,490,490,490,490,490,490,490,490,490,490,490,490,490,490,490,490,490,490,490,490,490,490,490,490,490,490,490,490,490,490,490,490,490,490,490,490,490,488,449,404,358,325,295,242,172,145,120,97,79,53],"timestamp_mouse":[14,32,52,72,92,112,132,152,172,192,213,232,252,272,292,312,332,352,371,392,411,431,451,471,491,512,531,551,573,592,613,633,653,672,692,713,732,752,773,792,813,832,852,873,892,912,932,953,972,992,1012,1033,1052,1072,1092,1113,1133,1151,1173,1192,1212,1232,1253,1272,1292,1311,1332,1352,1373,1392],"xSR":741.5,"ySR":469.95,"xT1":424.9,"yT1":0,"xT2":1058.1,"yT2":0,"toosoon":0,"cond_shown":"Congruent","ratio_trial":100,"L_num":1,"L_den":2,"R_num":18,"R_den":30,"correct_side":2,"subjID":"sarasofiagarzonrocha22","gender":"1","school":"6","age":"11"},{"start_time":1551892026589,"click_time":1551892028643,"finger_time":1551892028263,"fix_duration":824.7386582795167,"trial":46,"RT":1674,"MT":380,"sideResp":1,"stimulus":[],"xmouse":[804,804,804,804,804,804,804,804,804,804,804,804,804,804,804,804,804,804,804,804,804,804,804,804,804,804,804,804,804,804,804,804,804,804,804,804,804,804,804,804,804,804,804,804,804,804,804,804,804,804,804,804,804,804,804,804,804,804,804,804,804,804,804,804,804,804,804,804,804,804,804,804,804,804,804,804,804,804,804,804,803,801,790,776,756,736,713,678,673,671,669,667,658,653,646,639,629,596,579,564,548,526,519],"ymouse":[527,527,527,527,527,527,527,527,527,527,527,527,527,527,527,527,527,527,527,527,527,527,527,527,527,527,527,527,527,527,527,527,527,527,527,527,527,527,527,527,527,527,527,527,527,527,527,527,527,527,527,527,527,527,527,527,527,527,527,527,527,527,527,527,527,527,527,527,527,527,527,527,527,527,527,527,527,527,527,527,527,521,495,463,417,369,317,243,233,225,220,216,204,197,191,186,178,153,142,130,120,105,99],"timestamp_mouse":[15,36,54,74,95,114,135,154,174,195,214,234,255,274,294,314,334,355,374,395,414,435,455,473,494,514,534,554,574,595,614,635,654,674,694,714,734,754,774,794,814,834,854,875,895,913,933,954,975,994,1015,1035,1054,1075,1095,1114,1135,1155,1174,1194,1215,1235,1255,1275,1295,1315,1335,1355,1374,1394,1414,1434,1454,1475,1495,1514,1535,1555,1575,1595,1614,1634,1654,1674,1695,1715,1735,1755,1774,1794,1814,1834,1854,1874,1894,1914,1935,1954,1974,1994,2014,2034,2054],"xSR":741.5,"ySR":469.95,"xT1":424.9,"yT1":0,"xT2":1058.1,"yT2":0,"toosoon":0,"cond_shown":"Congruent","ratio_trial":200,"L_num":14,"L_den":28,"R_num":6,"R_den":20,"correct_side":1,"subjID":"sarasofiagarzonrocha22","gender":"1","school":"6","age":"11"},{"start_time":1551892030896,"click_time":1551892031943,"finger_time":1551892031783,"fix_duration":870.9176539854366,"trial":47,"RT":887,"MT":160,"sideResp":1,"stimulus":[],"xmouse":[807,807,807,807,807,807,807,807,807,807,807,807,807,807,807,807,807,807,807,807,807,807,807,807,807,807,807,807,807,807,807,807,807,807,807,807,807,807,807,807,807,807,807,807,807,797,775,708,663,613,572,529,523],"ymouse":[493,493,493,493,493,493,493,493,493,493,493,493,493,493,493,493,493,493,493,493,493,493,493,493,493,493,493,493,493,493,493,493,493,493,493,493,493,493,493,493,493,493,493,493,462,424,380,291,242,192,154,96,84],"timestamp_mouse":[10,31,47,67,87,107,127,147,167,188,208,227,247,267,287,307,328,347,367,388,408,427,447,467,488,508,527,547,566,587,607,627,647,667,687,708,727,748,767,788,807,828,848,867,887,908,927,947,968,987,1007,1028,1047],"xSR":741.5,"ySR":469.95,"xT1":424.9,"yT1":0,"xT2":1058.1,"yT2":0,"toosoon":0,"cond_shown":"Incongruent","ratio_trial":200,"L_num":7,"L_den":10,"R_num":8,"R_den":16,"correct_side":1,"subjID":"sarasofiagarzonrocha22","gender":"1","school":"6","age":"11"},{"start_time":1551892034414,"click_time":1551892035684,"finger_time":1551892035223,"fix_duration":250,"trial":48,"RT":809,"MT":461,"sideResp":1,"stimulus":[],"xmouse":[797,797,797,797,797,797,797,797,797,797,797,797,797,797,797,797,797,797,797,797,797,797,797,797,797,797,797,797,797,797,797,797,797,797,797,797,797,795,775,761,746,717,701,688,674,664,648,643,636,624,613,599,595,587,580,561,545,540,537,535,532,527,525,521],"ymouse":[490,490,490,490,490,490,490,490,490,490,490,490,490,490,490,490,490,490,490,490,490,490,490,490,490,490,490,490,490,490,490,490,490,490,490,490,490,490,484,475,461,422,393,368,344,322,283,269,255,236,221,204,195,180,168,144,127,121,116,113,110,103,101,96],"timestamp_mouse":[10,43,49,69,90,109,130,149,169,189,210,230,249,269,289,308,330,349,369,389,410,429,450,469,490,509,529,550,569,589,610,630,650,669,689,709,729,749,769,789,809,829,849,869,889,909,929,949,970,989,1009,1029,1049,1070,1102,1109,1129,1149,1169,1189,1210,1230,1249,1270],"xSR":741.5,"ySR":469.95,"xT1":424.9,"yT1":0,"xT2":1058.1,"yT2":0,"toosoon":0,"cond_shown":"Incongruent","ratio_trial":200,"L_num":3,"L_den":4,"R_num":11,"R_den":20,"correct_side":1,"subjID":"sarasofiagarzonrocha22","gender":"1","school":"6","age":"11"},{"start_time":1551892037934,"click_time":1551892039343,"finger_time":1551892038923,"fix_duration":250,"trial":49,"RT":989,"MT":420,"sideResp":1,"stimulus":[],"xmouse":[806,806,806,806,806,806,806,806,806,806,806,806,806,806,806,806,806,806,806,806,806,806,806,806,806,806,806,806,806,806,806,806,806,806,806,806,806,806,806,806,806,806,806,806,804,800,794,788,770,752,725,713,701,691,684,660,643,626,606,589,577,573,567,561,551,545,541,538,535,528,520],"ymouse":[521,521,521,521,521,521,521,521,521,521,521,521,521,521,521,521,521,521,521,521,521,521,521,521,521,521,521,521,521,521,521,521,521,521,521,521,521,521,521,521,521,521,521,521,521,521,516,505,471,442,390,369,347,323,299,257,237,220,203,184,160,150,138,129,111,101,90,84,75,65,55],"timestamp_mouse":[9,29,49,69,89,109,128,150,169,190,209,229,249,269,289,309,329,349,369,389,409,429,448,468,488,508,528,548,568,589,608,628,648,670,690,710,730,750,770,789,809,829,849,869,889,909,929,949,969,989,1009,1029,1049,1069,1088,1109,1129,1149,1168,1190,1208,1229,1249,1269,1290,1309,1329,1349,1368,1390,1409],"xSR":741.5,"ySR":469.95,"xT1":424.9,"yT1":0,"xT2":1058.1,"yT2":0,"toosoon":0,"cond_shown":"Incongruent","ratio_trial":100,"L_num":9,"L_den":15,"R_num":13,"R_den":26,"correct_side":1,"subjID":"sarasofiagarzonrocha22","gender":"1","school":"6","age":"11"},{"start_time":1551892043184,"click_time":1551892044683,"finger_time":1551892044243,"fix_duration":579.7969520738886,"trial":50,"RT":1059,"MT":440,"sideResp":1,"stimulus":[],"xmouse":[771,771,771,771,771,771,771,771,771,771,771,771,771,771,771,771,771,771,771,771,771,771,771,771,771,771,771,771,771,771,771,771,771,771,771,771,771,771,771,771,771,771,771,771,771,771,771,771,771,771,771,764,741,726,708,688,649,635,626,620,615,612,602,595,584,572,550,538,537,535,534,529,525,520,517],"ymouse":[527,527,527,527,527,527,527,527,527,527,527,527,527,527,527,527,527,527,527,527,527,527,527,527,527,527,527,527,527,527,527,527,527,527,527,527,527,527,527,527,527,527,527,527,527,527,527,527,527,527,527,511,479,460,439,413,354,330,311,297,287,276,254,239,223,204,176,153,148,142,137,124,114,105,99],"timestamp_mouse":[19,40,59,91,99,119,140,160,179,199,219,239,259,279,299,319,339,359,380,399,419,439,460,479,499,519,539,560,580,599,619,640,660,679,699,719,739,760,780,800,819,839,859,880,899,919,939,959,979,1000,1019,1039,1059,1079,1099,1119,1140,1159,1179,1200,1219,1239,1259,1279,1299,1320,1339,1360,1379,1399,1419,1441,1459,1479,1498],"xSR":741.5,"ySR":469.95,"xT1":424.9,"yT1":0,"xT2":1058.1,"yT2":0,"toosoon":0,"cond_shown":"Congruent","ratio_trial":300,"L_num":20,"L_den":25,"R_num":9,"R_den":18,"correct_side":1,"subjID":"sarasofiagarzonrocha22","gender":"1","school":"6","age":"11"},{"start_time":1551892047621,"click_time":1551892048743,"finger_time":1551892048604,"fix_duration":1077.5898184554485,"trial":51,"RT":983,"MT":139,"sideResp":1,"stimulus":[],"xmouse":[816,816,816,816,816,816,816,816,816,816,816,816,816,816,816,816,816,816,816,816,816,816,816,816,816,816,816,816,816,816,816,816,816,816,816,816,816,816,816,816,816,816,816,816,816,816,816,812,802,786,759,658,607,560,539,531,524],"ymouse":[517,517,517,517,517,517,517,517,517,517,517,517,517,517,517,517,517,517,517,517,517,517,517,517,517,517,517,517,517,517,517,517,517,517,517,517,517,517,517,517,517,517,517,517,517,517,517,502,476,440,394,261,207,162,134,117,92],"timestamp_mouse":[11,35,43,62,82,102,122,142,162,181,203,222,242,262,283,303,322,343,362,382,402,421,442,461,482,502,523,542,562,583,603,622,642,663,682,703,722,743,763,783,803,822,843,863,883,902,923,942,963,983,1003,1022,1042,1063,1083,1102,1122],"xSR":741.5,"ySR":469.95,"xT1":424.9,"yT1":0,"xT2":1058.1,"yT2":0,"toosoon":0,"cond_shown":"Incongruent","ratio_trial":300,"L_num":3,"L_den":6,"R_num":4,"R_den":20,"correct_side":1,"subjID":"sarasofiagarzonrocha22","gender":"1","school":"6","age":"11"},{"start_time":1551892050676,"click_time":1551892051984,"finger_time":1551892051624,"fix_duration":250,"trial":52,"RT":948,"MT":360,"sideResp":1,"stimulus":[],"xmouse":[788,788,788,788,788,788,788,788,788,788,788,788,788,788,788,788,788,788,788,788,788,788,788,788,788,788,788,788,788,788,788,788,788,788,788,788,788,788,788,788,788,788,788,788,788,788,778,742,718,689,659,627,618,605,595,587,581,568,559,551,547,546,542,537,531,523],"ymouse":[515,515,515,515,515,515,515,515,515,515,515,515,515,515,515,515,515,515,515,515,515,515,515,515,515,515,515,515,515,515,515,515,515,515,515,515,515,515,515,515,515,515,515,515,515,508,483,417,380,338,303,263,241,202,186,175,167,147,134,123,114,107,81,65,49,36],"timestamp_mouse":[10,34,48,68,87,107,127,148,166,188,208,228,247,268,287,307,328,348,367,387,407,428,447,467,487,508,526,548,567,587,608,627,648,668,687,708,727,748,768,788,807,827,846,867,887,908,928,948,967,986,1008,1028,1047,1067,1087,1107,1127,1149,1167,1187,1207,1228,1248,1267,1287,1308],"xSR":741.5,"ySR":469.95,"xT1":424.9,"yT1":0,"xT2":1058.1,"yT2":0,"toosoon":0,"cond_shown":"Congruent","ratio_trial":300,"L_num":20,"L_den":25,"R_num":13,"R_den":26,"correct_side":1,"subjID":"sarasofiagarzonrocha22","gender":"1","school":"6","age":"11"},{"start_time":1551892053751,"click_time":1551892056684,"finger_time":1551892056343,"fix_duration":405.35348169760556,"trial":53,"RT":2592,"MT":341,"sideResp":1,"stimulus":[],"xmouse":[767,767,767,767,767,767,767,767,767,767,767,767,767,767,767,767,767,767,767,767,767,767,767,767,767,767,767,767,767,767,767,767,767,767,767,767,767,767,767,767,767,767,767,767,767,767,767,767,767,767,767,767,767,767,767,767,767,767,767,767,767,767,767,767,767,767,767,767,767,767,767,767,767,767,767,767,767,767,767,767,767,767,767,767,767,767,767,767,767,767,767,767,767,767,767,767,767,767,767,767,767,767,767,767,767,767,767,767,767,767,767,767,767,767,767,767,767,767,767,767,767,767,767,767,767,764,764,764,759,738,728,717,705,685,643,626,612,599,577,568,561,553,547,543,