[{"start_time":1551789945144,"click_time":1551789947696,"finger_time":1551789946634,"fix_duration":444.05622390763966,"trial":0,"RT":1490,"MT":1062,"sideResp":2,"stimulus":[],"xmouse":[799,799,799,799,799,799,799,799,799,799,799,799,799,799,799,799,799,799,799,799,799,799,799,799,799,799,799,799,799,799,799,799,799,799,799,799,799,799,799,799,799,799,799,799,799,799,799,799,799,799,799,799,799,799,799,799,799,799,799,799,799,799,799,799,799,799,799,799,799,799,799,799,797,797,795,795,796,799,805,810,815,820,823,823,823,823,823,823,823,823,823,823,823,823,823,823,823,823,823,823,823,823,823,823,823,832,877,926,986,1042,1092,1092,1092,1092,1092,1092,1092,1092,1092,1092,1092,1092,1092,1092,1092,1092,1092,1111],"ymouse":[524,524,524,524,524,524,524,524,524,524,524,524,524,524,524,524,524,524,524,524,524,524,524,524,524,524,524,524,524,524,524,524,524,524,524,524,524,524,524,524,524,524,524,524,524,524,524,524,524,524,524,524,524,524,524,524,524,524,524,524,524,524,524,524,524,524,524,524,524,524,524,522,517,508,496,476,430,413,396,383,371,362,355,354,354,354,354,354,354,352,351,350,349,349,349,349,349,349,349,349,349,349,349,349,348,331,250,187,119,50,0,0,0,0,0,0,0,0,0,0,0,0,0,0,0,0,0,17],"timestamp_mouse":[10,42,51,71,90,110,130,150,170,190,210,231,250,270,290,311,330,351,370,390,410,430,450,470,490,511,530,550,571,590,610,630,651,670,691,710,732,750,772,791,811,830,850,870,891,910,932,950,970,990,1010,1031,1050,1071,1090,1110,1130,1151,1170,1190,1210,1232,1250,1270,1290,1311,1330,1351,1370,1391,1410,1431,1450,1470,1490,1510,1531,1550,1570,1590,1610,1631,1650,1670,1691,1711,1730,1751,1770,1790,1811,1831,1850,1871,1890,1911,1931,1951,1970,1991,2010,2031,2051,2071,2090,2111,2130,2150,2170,2192,2211,2231,2250,2270,2290,2310,2330,2351,2370,2391,2410,2432,2451,2470,2491,2511,2530,2551],"xSR":741.5,"ySR":500.5,"xT1":424.9,"yT1":0,"xT2":1058.1,"yT2":0,"toosoon":0,"cond_shown":"Congruent","ratio_trial":300,"L_num":2,"L_den":10,"R_num":12,"R_den":24,"correct_side":2,"subjID":"saravalentinamolinaocampo24","gender":"1","age":"11","school":"6","test":{"fix_dur":[250,1500],"timestim":1000,"targets_dim":[100,100],"targets_relative_coord":[0.3,0.7],"size_stim":[880,420],"start_dim":[100,100],"size_start":[300,300],"size_fix":60,"samplingrate":20,"img_types":["Congruent","Incongruent"],"ratios":[100,200,300],"rep_conds":19,"nTrials":120,"trials_to_rest":500,"Trials_order":[34,23,86,119,48,94,8,7,44,71,62,104,112,64,114,72,55,15,95,58,83,67,47,68,74,76,26,84,93,16,60,113,81,98,33,11,37,5,36,52,35,79,116,45,40,22,59,65,106,80,88,75,77,20,87,42,12,69,19,6,41,63,73,103,2,30,39,117,118,70,57,105,108,21,4,111,50,97,82,32,56,14,10,18,85,1,9,90,101,24,89,99,91,49,31,38,109,92,51,53,25,61,110,115,27,3,78,13,17,29,96,66,28,54,107,0,100,46,102,43],"cond_shown":["Congruent","Incongruent","Congruent","Incongruent","Congruent","Congruent","Congruent","Incongruent","Congruent","Incongruent","Congruent","Congruent","Congruent","Congruent","Congruent","Congruent","Incongruent","Incongruent","Incongruent","Congruent","Incongruent","Incongruent","Incongruent","Congruent","Congruent","Congruent","Congruent","Congruent","Incongruent","Congruent","Congruent","Incongruent","Incongruent","Congruent","Incongruent","Incongruent","Incongruent","Incongruent","Congruent","Congruent","Incongruent","Incongruent","Congruent","Incongruent","Congruent","Congruent","Incongruent","Incongruent","Congruent","Congruent","Congruent","Incongruent","Incongruent","Congruent","Incongruent","Congruent","Congruent","Incongruent","Incongruent","Congruent","Incongruent","Incongruent","Incongruent","Incongruent","Congruent","Congruent","Incongruent","Incongruent","Congruent","Congruent","Incongruent","Incongruent","Congruent","Incongruent","Congruent","Incongruent","Congruent","Incongruent","Congruent","Congruent","Congruent","Congruent","Congruent","Congruent","Incongruent","Incongruent","Incongruent","Congruent","Incongruent","Congruent","Incongruent","Incongruent","Incongruent","Incongruent","Incongruent","Congruent","Incongruent","Congruent","Incongruent","Incongruent","Incongruent","Incongruent","Congruent","Incongruent","Incongruent","Incongruent","Congruent","Incongruent","Incongruent","Incongruent","Congruent","Congruent","Congruent","Congruent","Incongruent","Congruent","Congruent","Congruent","Congruent","Incongruent"],"ratio_trial":[300,300,200,300,100,300,200,100,200,300,200,200,300,300,100,100,100,200,300,300,300,100,300,200,200,300,200,100,200,300,100,300,200,200,200,300,100,300,100,300,300,100,200,200,300,300,300,300,300,200,300,200,300,200,200,100,100,200,100,100,300,200,100,100,200,100,200,200,300,300,200,200,100,200,300,200,200,100,300,200,200,200,300,100,100,100,200,100,300,100,300,200,100,100,100,200,100,200,200,300,100,100,200,100,200,200,100,100,300,300,100,100,300,100,300,100,300,300,100,100],"left_num":[2,1,20,13,9,1,4,17,21,4,3,16,24,3,6,9,6,6,13,9,3,9,3,6,16,3,6,11,4,1,11,4,9,7,4,13,10,4,12,7,8,12,12,7,1,1,7,4,4,21,3,7,2,6,4,8,8,7,3,7,13,4,6,17,3,7,4,7,3,9,14,7,1,14,3,1,12,9,3,6,7,6,11,11,12,3,11,7,4,2,13,4,12,12,6,6,8,6,1,3,6,10,6,9,7,4,1,11,4,4,3,2,20,3,4,12,4,1,7,13],"right_num":[12,3,9,12,8,6,3,10,2,6,14,9,8,4,5,8,7,3,12,3,4,13,4,11,12,4,7,6,1,6,6,6,8,18,1,12,8,2,13,20,9,2,6,8,7,11,8,8,1,2,4,14,6,11,1,2,2,12,11,15,12,1,11,10,14,15,14,12,11,3,6,12,18,12,11,3,6,14,4,11,18,7,1,4,9,7,3,9,8,6,12,6,2,2,13,11,6,11,2,4,7,8,7,13,12,1,3,9,2,2,4,6,8,2,2,13,2,8,15,6],"left_den":[10,2,25,26,15,5,8,30,30,5,6,30,30,6,20,15,10,20,26,10,6,15,6,20,20,6,12,22,30,5,22,5,15,15,30,26,25,20,30,14,10,30,15,10,20,5,10,5,10,30,6,10,4,20,30,16,16,10,5,14,26,30,10,30,10,14,6,10,12,10,30,10,2,30,12,2,15,15,6,20,15,12,22,22,24,9,20,14,5,5,26,5,30,30,10,20,16,20,3,6,10,25,12,15,10,30,2,22,20,20,20,5,25,6,20,30,5,30,14,26],"right_den":[24,15,15,15,16,12,10,15,4,12,20,27,16,5,25,16,14,6,15,5,20,26,20,22,20,5,10,15,3,12,15,12,10,27,3,15,16,4,26,25,18,4,10,16,20,22,20,16,10,4,5,28,30,22,3,5,5,24,22,25,15,3,22,15,28,25,30,24,20,5,9,24,30,18,20,10,10,28,5,22,27,10,5,10,15,30,4,15,16,12,15,10,4,4,26,22,10,22,15,20,14,16,10,26,24,3,5,15,4,4,16,12,16,5,4,26,4,24,25,10],"correct_side":[2,1,1,2,1,2,1,2,1,1,2,1,1,2,1,1,1,2,2,1,1,1,1,2,1,2,2,1,2,2,1,1,2,2,2,2,2,2,2,2,1,2,1,1,2,2,1,1,1,1,2,1,1,2,2,1,1,1,1,2,2,2,1,2,2,2,1,1,2,1,2,1,2,2,2,1,1,1,2,2,2,2,1,1,2,1,2,2,1,2,2,1,2,2,1,2,2,2,1,1,1,2,2,1,1,2,2,2,2,2,2,2,1,1,2,2,1,2,2,2],"img_shown":["img2/300/Congruent/R/C_Dist_300_LN_2_LD_10_RN_12_RD_24_1.png","img2/300/Incongruent/L/I_Dist_300_LN_1_LD_2_RN_3_RD_15_0.png","img2/200/Congruent/L/C_Dist_200_LN_20_LD_25_RN_9_RD_15_0.png","img2/300/Incongruent/R/I_Dist_300_LN_13_LD_26_RN_12_RD_15_1.png","img2/100/Congruent/L/C_Dist_100_LN_9_LD_15_RN_8_RD_16_0.png","img2/300/Congruent/R/C_Dist_300_LN_1_LD_5_RN_6_RD_12_1.png","img2/200/Congruent/L/C_Dist_200_LN_4_LD_8_RN_3_RD_10_0.png","img2/100/Incongruent/R/I_Dist_100_LN_17_LD_30_RN_10_RD_15_1.png","img2/200/Congruent/L/C_Dist_200_LN_21_LD_30_RN_2_RD_4_0.png","img2/300/Incongruent/L/I_Dist_300_LN_4_LD_5_RN_6_RD_12_0.png","img2/200/Congruent/R/C_Dist_200_LN_3_LD_6_RN_14_RD_20_1.png","img2/200/Congruent/L/C_Dist_200_LN_16_LD_30_RN_9_RD_27_0.png","img2/300/Congruent/L/C_Dist_300_LN_24_LD_30_RN_8_RD_16_0.png","img2/300/Congruent/R/C_Dist_300_LN_3_LD_6_RN_4_RD_5_1.png","img2/100/Congruent/L/C_Dist_100_LN_6_LD_20_RN_5_RD_25_0.png","img2/100/Congruent/L/C_Dist_100_LN_9_LD_15_RN_8_RD_16_0.png","img2/100/Incongruent/L/I_Dist_100_LN_6_LD_10_RN_7_RD_14_0.png","img2/200/Incongruent/R/I_Dist_200_LN_6_LD_20_RN_3_RD_6_1.png","img2/300/Incongruent/R/I_Dist_300_LN_13_LD_26_RN_12_RD_15_1.png","img2/300/Congruent/L/C_Dist_300_LN_9_LD_10_RN_3_RD_5_0.png","img2/300/Incongruent/L/I_Dist_300_LN_3_LD_6_RN_4_RD_20_0.png","img2/100/Incongruent/L/I_Dist_100_LN_9_LD_15_RN_13_RD_26_0.png","img2/300/Incongruent/L/I_Dist_300_LN_3_LD_6_RN_4_RD_20_0.png","img2/200/Congruent/R/C_Dist_200_LN_6_LD_20_RN_11_RD_22_1.png","img2/200/Congruent/L/C_Dist_200_LN_16_LD_20_RN_12_RD_20_0.png","img2/300/Congruent/R/C_Dist_300_LN_3_LD_6_RN_4_RD_5_1.png","img2/200/Congruent/R/C_Dist_200_LN_6_LD_12_RN_7_RD_10_1.png","img2/100/Congruent/L/C_Dist_100_LN_11_LD_22_RN_6_RD_15_0.png","img2/200/Incongruent/R/I_Dist_200_LN_4_LD_30_RN_1_RD_3_1.png","img2/300/Congruent/R/C_Dist_300_LN_1_LD_5_RN_6_RD_12_1.png","img2/100/Congruent/L/C_Dist_100_LN_11_LD_22_RN_6_RD_15_0.png","img2/300/Incongruent/L/I_Dist_300_LN_4_LD_5_RN_6_RD_12_0.png","img2/200/Incongruent/R/I_Dist_200_LN_9_LD_15_RN_8_RD_10_1.png","img2/200/Congruent/R/C_Dist_200_LN_7_LD_15_RN_18_RD_27_1.png","img2/200/Incongruent/R/I_Dist_200_LN_4_LD_30_RN_1_RD_3_1.png","img2/300/Incongruent/R/I_Dist_300_LN_13_LD_26_RN_12_RD_15_1.png","img2/100/Incongruent/R/I_Dist_100_LN_10_LD_25_RN_8_RD_16_1.png","img2/300/Incongruent/R/I_Dist_300_LN_4_LD_20_RN_2_RD_4_1.png","img2/100/Congruent/R/C_Dist_100_LN_12_LD_30_RN_13_RD_26_1.png","img2/300/Congruent/R/C_Dist_300_LN_7_LD_14_RN_20_RD_25_1.png","img2/300/Incongruent/L/I_Dist_300_LN_8_LD_10_RN_9_RD_18_0.png","img2/100/Incongruent/R/I_Dist_100_LN_12_LD_30_RN_2_RD_4_1.png","img2/200/Congruent/L/C_Dist_200_LN_12_LD_15_RN_6_RD_10_0.png","img2/200/Incongruent/L/I_Dist_200_LN_7_LD_10_RN_8_RD_16_0.png","img2/300/Congruent/R/C_Dist_300_LN_1_LD_20_RN_7_RD_20_1.png","img2/300/Congruent/R/C_Dist_300_LN_1_LD_5_RN_11_RD_22_1.png","img2/300/Incongruent/L/I_Dist_300_LN_7_LD_10_RN_8_RD_20_0.png","img2/300/Incongruent/L/I_Dist_300_LN_4_LD_5_RN_8_RD_16_0.png","img2/300/Congruent/L/C_Dist_300_LN_4_LD_10_RN_1_RD_10_0.png","img2/200/Congruent/L/C_Dist_200_LN_21_LD_30_RN_2_RD_4_0.png","img2/300/Congruent/R/C_Dist_300_LN_3_LD_6_RN_4_RD_5_1.png","img2/200/Incongruent/L/I_Dist_200_LN_7_LD_10_RN_14_RD_28_0.png","img2/300/Incongruent/L/I_Dist_300_LN_2_LD_4_RN_6_RD_30_0.png","img2/200/Congruent/R/C_Dist_200_LN_6_LD_20_RN_11_RD_22_1.png","img2/200/Incongruent/R/I_Dist_200_LN_4_LD_30_RN_1_RD_3_1.png","img2/100/Congruent/L/C_Dist_100_LN_8_LD_16_RN_2_RD_5_0.png","img2/100/Congruent/L/C_Dist_100_LN_8_LD_16_RN_2_RD_5_0.png","img2/200/Incongruent/L/I_Dist_200_LN_7_LD_10_RN_12_RD_24_0.png","img2/100/Incongruent/L/I_Dist_100_LN_3_LD_5_RN_11_RD_22_0.png","img2/100/Congruent/R/C_Dist_100_LN_7_LD_14_RN_15_RD_25_1.png","img2/300/Incongruent/R/I_Dist_300_LN_13_LD_26_RN_12_RD_15_1.png","img2/200/Incongruent/R/I_Dist_200_LN_4_LD_30_RN_1_RD_3_1.png","img2/100/Incongruent/L/I_Dist_100_LN_6_LD_10_RN_11_RD_22_0.png","img2/100/Incongruent/R/I_Dist_100_LN_17_LD_30_RN_10_RD_15_1.png","img2/200/Congruent/R/C_Dist_200_LN_3_LD_10_RN_14_RD_28_1.png","img2/100/Congruent/R/C_Dist_100_LN_7_LD_14_RN_15_RD_25_1.png","img2/200/Incongruent/L/I_Dist_200_LN_4_LD_6_RN_14_RD_30_0.png","img2/200/Incongruent/L/I_Dist_200_LN_7_LD_10_RN_12_RD_24_0.png","img2/300/Congruent/R/C_Dist_300_LN_3_LD_12_RN_11_RD_20_1.png","img2/300/Congruent/L/C_Dist_300_LN_9_LD_10_RN_3_RD_5_0.png","img2/200/Incongruent/R/I_Dist_200_LN_14_LD_30_RN_6_RD_9_1.png","img2/200/Incongruent/L/I_Dist_200_LN_7_LD_10_RN_12_RD_24_0.png","img2/100/Congruent/R/C_Dist_100_LN_1_LD_2_RN_18_RD_30_1.png","img2/200/Incongruent/R/I_Dist_200_LN_14_LD_30_RN_12_RD_18_1.png","img2/300/Congruent/R/C_Dist_300_LN_3_LD_12_RN_11_RD_20_1.png","img2/200/Incongruent/L/I_Dist_200_LN_1_LD_2_RN_3_RD_10_0.png","img2/200/Congruent/L/C_Dist_200_LN_12_LD_15_RN_6_RD_10_0.png","img2/100/Incongruent/L/I_Dist_100_LN_9_LD_15_RN_14_RD_28_0.png","img2/300/Congruent/R/C_Dist_300_LN_3_LD_6_RN_4_RD_5_1.png","img2/200/Congruent/R/C_Dist_200_LN_6_LD_20_RN_11_RD_22_1.png","img2/200/Congruent/R/C_Dist_200_LN_7_LD_15_RN_18_RD_27_1.png","img2/200/Congruent/R/C_Dist_200_LN_6_LD_12_RN_7_RD_10_1.png","img2/300/Congruent/L/C_Dist_300_LN_11_LD_22_RN_1_RD_5_0.png","img2/100/Congruent/L/C_Dist_100_LN_11_LD_22_RN_4_RD_10_0.png","img2/100/Incongruent/R/I_Dist_100_LN_12_LD_24_RN_9_RD_15_1.png","img2/100/Incongruent/L/I_Dist_100_LN_3_LD_9_RN_7_RD_30_0.png","img2/200/Incongruent/R/I_Dist_200_LN_11_LD_20_RN_3_RD_4_1.png","img2/100/Congruent/R/C_Dist_100_LN_7_LD_14_RN_9_RD_15_1.png","img2/300/Incongruent/L/I_Dist_300_LN_4_LD_5_RN_8_RD_16_0.png","img2/100/Congruent/R/C_Dist_100_LN_2_LD_5_RN_6_RD_12_1.png","img2/300/Incongruent/R/I_Dist_300_LN_13_LD_26_RN_12_RD_15_1.png","img2/200/Incongruent/L/I_Dist_200_LN_4_LD_5_RN_6_RD_10_0.png","img2/100/Incongruent/R/I_Dist_100_LN_12_LD_30_RN_2_RD_4_1.png","img2/100/Incongruent/R/I_Dist_100_LN_12_LD_30_RN_2_RD_4_1.png","img2/100/Incongruent/L/I_Dist_100_LN_6_LD_10_RN_13_RD_26_0.png","img2/200/Congruent/R/C_Dist_200_LN_6_LD_20_RN_11_RD_22_1.png","img2/100/Incongruent/R/I_Dist_100_LN_8_LD_16_RN_6_RD_10_1.png","img2/200/Congruent/R/C_Dist_200_LN_6_LD_20_RN_11_RD_22_1.png","img2/200/Incongruent/L/I_Dist_200_LN_1_LD_3_RN_2_RD_15_0.png","img2/300/Incongruent/L/I_Dist_300_LN_3_LD_6_RN_4_RD_20_0.png","img2/100/Incongruent/L/I_Dist_100_LN_6_LD_10_RN_7_RD_14_0.png","img2/100/Incongruent/R/I_Dist_100_LN_10_LD_25_RN_8_RD_16_1.png","img2/200/Congruent/R/C_Dist_200_LN_6_LD_12_RN_7_RD_10_1.png","img2/100/Incongruent/L/I_Dist_100_LN_9_LD_15_RN_13_RD_26_0.png","img2/200/Incongruent/L/I_Dist_200_LN_7_LD_10_RN_12_RD_24_0.png","img2/200/Incongruent/R/I_Dist_200_LN_4_LD_30_RN_1_RD_3_1.png","img2/100/Congruent/R/C_Dist_100_LN_1_LD_2_RN_3_RD_5_1.png","img2/100/Incongruent/R/I_Dist_100_LN_11_LD_22_RN_9_RD_15_1.png","img2/300/Incongruent/R/I_Dist_300_LN_4_LD_20_RN_2_RD_4_1.png","img2/300/Incongruent/R/I_Dist_300_LN_4_LD_20_RN_2_RD_4_1.png","img2/100/Congruent/R/C_Dist_100_LN_3_LD_20_RN_4_RD_16_1.png","img2/100/Congruent/R/C_Dist_100_LN_2_LD_5_RN_6_RD_12_1.png","img2/300/Congruent/L/C_Dist_300_LN_20_LD_25_RN_8_RD_16_0.png","img2/100/Congruent/L/C_Dist_100_LN_3_LD_6_RN_2_RD_5_0.png","img2/300/Incongruent/R/I_Dist_300_LN_4_LD_20_RN_2_RD_4_1.png","img2/100/Congruent/R/C_Dist_100_LN_12_LD_30_RN_13_RD_26_1.png","img2/300/Congruent/L/C_Dist_300_LN_4_LD_5_RN_2_RD_4_0.png","img2/300/Congruent/R/C_Dist_300_LN_1_LD_30_RN_8_RD_24_1.png","img2/100/Congruent/R/C_Dist_100_LN_7_LD_14_RN_15_RD_25_1.png","img2/100/Incongruent/R/I_Dist_100_LN_13_LD_26_RN_6_RD_10_1.png"],"dist100_C":[["C_Dist_100_LN_10_LD_25_RN_3_RD_10_0.png","C_Dist_100_LN_11_LD_22_RN_4_RD_10_0.png","C_Dist_100_LN_11_LD_22_RN_6_RD_15_0.png","C_Dist_100_LN_15_LD_25_RN_13_RD_26_0.png","C_Dist_100_LN_3_LD_6_RN_2_RD_5_0.png","C_Dist_100_LN_6_LD_20_RN_5_RD_25_0.png","C_Dist_100_LN_8_LD_16_RN_2_RD_5_0.png","C_Dist_100_LN_9_LD_15_RN_8_RD_16_0.png"],["C_Dist_100_LN_1_LD_2_RN_18_RD_30_1.png","C_Dist_100_LN_1_LD_2_RN_3_RD_5_1.png","C_Dist_100_LN_12_LD_30_RN_13_RD_26_1.png","C_Dist_100_LN_2_LD_5_RN_11_RD_22_1.png","C_Dist_100_LN_2_LD_5_RN_6_RD_12_1.png","C_Dist_100_LN_3_LD_20_RN_4_RD_16_1.png","C_Dist_100_LN_4_LD_10_RN_15_RD_30_1.png","C_Dist_100_LN_4_LD_8_RN_6_RD_10_1.png","C_Dist_100_LN_6_LD_12_RN_15_RD_25_1.png","C_Dist_100_LN_7_LD_14_RN_15_RD_25_1.png","C_Dist_100_LN_7_LD_14_RN_9_RD_15_1.png"]],"dist100_I":[["I_Dist_100_LN_1_LD_2_RN_8_RD_20_0.png","I_Dist_100_LN_2_LD_4_RN_6_RD_15_0.png","I_Dist_100_LN_2_LD_4_RN_8_RD_20_0.png","I_Dist_100_LN_3_LD_5_RN_11_RD_22_0.png","I_Dist_100_LN_3_LD_5_RN_8_RD_16_0.png","I_Dist_100_LN_3_LD_6_RN_4_RD_10_0.png","I_Dist_100_LN_3_LD_9_RN_7_RD_30_0.png","I_Dist_100_LN_4_LD_8_RN_8_RD_20_0.png","I_Dist_100_LN_6_LD_10_RN_11_RD_22_0.png","I_Dist_100_LN_6_LD_10_RN_13_RD_26_0.png","I_Dist_100_LN_6_LD_10_RN_7_RD_14_0.png","I_Dist_100_LN_9_LD_10_RN_20_RD_25_0.png","I_Dist_100_LN_9_LD_15_RN_13_RD_26_0.png","I_Dist_100_LN_9_LD_15_RN_14_RD_28_0.png"],["I_Dist_100_LN_10_LD_25_RN_8_RD_16_1.png","I_Dist_100_LN_10_LD_25_RN_9_RD_18_1.png","I_Dist_100_LN_11_LD_22_RN_9_RD_15_1.png","I_Dist_100_LN_12_LD_24_RN_9_RD_15_1.png","I_Dist_100_LN_12_LD_30_RN_2_RD_4_1.png","I_Dist_100_LN_13_LD_26_RN_12_RD_20_1.png","I_Dist_100_LN_13_LD_26_RN_6_RD_10_1.png","I_Dist_100_LN_17_LD_30_RN_10_RD_15_1.png","I_Dist_100_LN_6_LD_12_RN_3_RD_5_1.png","I_Dist_100_LN_8_LD_16_RN_6_RD_10_1.png","I_Dist_100_LN_8_LD_20_RN_1_RD_2_1.png","I_Dist_100_LN_9_LD_18_RN_6_RD_10_1.png"]],"dist100_S":[["E_Dist_100_LN_2_LD_12_RN_2_RD_30_0.png","E_Dist_100_LN_6_LD_10_RN_6_RD_12_0.png"],["E_Dist_100_LN_6_LD_12_RN_6_RD_10_1.png"]],"dist200_C":[["C_Dist_200_LN_11_LD_22_RN_3_RD_10_0.png","C_Dist_200_LN_12_LD_15_RN_6_RD_10_0.png","C_Dist_200_LN_12_LD_20_RN_6_RD_15_0.png","C_Dist_200_LN_14_LD_28_RN_6_RD_20_0.png","C_Dist_200_LN_15_LD_25_RN_4_RD_10_0.png","C_Dist_200_LN_16_LD_20_RN_12_RD_20_0.png","C_Dist_200_LN_16_LD_30_RN_9_RD_27_0.png","C_Dist_200_LN_20_LD_25_RN_9_RD_15_0.png","C_Dist_200_LN_21_LD_30_RN_2_RD_4_0.png","C_Dist_200_LN_4_LD_10_RN_3_RD_15_0.png","C_Dist_200_LN_4_LD_8_RN_3_RD_10_0.png","C_Dist_200_LN_6_LD_15_RN_3_RD_15_0.png","C_Dist_200_LN_7_LD_21_RN_2_RD_15_0.png","C_Dist_200_LN_8_LD_15_RN_2_RD_6_0.png","C_Dist_200_LN_8_LD_15_RN_3_RD_9_0.png","C_Dist_200_LN_8_LD_15_RN_7_RD_21_0.png","C_Dist_200_LN_9_LD_20_RN_4_RD_16_0.png"],["C_Dist_200_LN_1_LD_2_RN_21_RD_30_1.png","C_Dist_200_LN_13_LD_26_RN_14_RD_20_1.png","C_Dist_200_LN_3_LD_10_RN_11_RD_22_1.png","C_Dist_200_LN_3_LD_10_RN_14_RD_28_1.png","C_Dist_200_LN_3_LD_10_RN_7_RD_14_1.png","C_Dist_200_LN_3_LD_12_RN_9_RD_20_1.png","C_Dist_200_LN_3_LD_6_RN_14_RD_20_1.png","C_Dist_200_LN_5_LD_10_RN_14_RD_20_1.png","C_Dist_200_LN_6_LD_12_RN_7_RD_10_1.png","C_Dist_200_LN_6_LD_20_RN_11_RD_22_1.png","C_Dist_200_LN_7_LD_15_RN_18_RD_27_1.png","C_Dist_200_LN_9_LD_30_RN_13_RD_26_1.png"]],"dist200_I":[["I_Dist_200_LN_1_LD_2_RN_3_RD_10_0.png","I_Dist_200_LN_1_LD_3_RN_2_RD_15_0.png","I_Dist_200_LN_3_LD_4_RN_11_RD_20_0.png","I_Dist_200_LN_4_LD_5_RN_6_RD_10_0.png","I_Dist_200_LN_4_LD_6_RN_14_RD_30_0.png","I_Dist_200_LN_7_LD_10_RN_12_RD_24_0.png","I_Dist_200_LN_7_LD_10_RN_14_RD_28_0.png","I_Dist_200_LN_7_LD_10_RN_8_RD_16_0.png"],["I_Dist_200_LN_11_LD_20_RN_3_RD_4_1.png","I_Dist_200_LN_14_LD_30_RN_12_RD_18_1.png","I_Dist_200_LN_14_LD_30_RN_6_RD_9_1.png","I_Dist_200_LN_3_LD_10_RN_1_RD_2_1.png","I_Dist_200_LN_4_LD_30_RN_1_RD_3_1.png","I_Dist_200_LN_6_LD_20_RN_3_RD_6_1.png","I_Dist_200_LN_7_LD_15_RN_4_RD_6_1.png","I_Dist_200_LN_7_LD_15_RN_6_RD_9_1.png","I_Dist_200_LN_9_LD_15_RN_8_RD_10_1.png"]],"dist200_S":[["E_Dist_200_LN_3_LD_6_RN_3_RD_10_0.png"],["E_Dist_200_LN_3_LD_10_RN_3_RD_6_1.png"]],"dist300_C":[["C_Dist_300_LN_11_LD_22_RN_1_RD_5_0.png","C_Dist_300_LN_11_LD_22_RN_2_RD_10_0.png","C_Dist_300_LN_11_LD_22_RN_4_RD_20_0.png","C_Dist_300_LN_12_LD_24_RN_2_RD_10_0.png","C_Dist_300_LN_18_LD_20_RN_9_RD_15_0.png","C_Dist_300_LN_20_LD_25_RN_13_RD_26_0.png","C_Dist_300_LN_20_LD_25_RN_14_RD_28_0.png","C_Dist_300_LN_20_LD_25_RN_5_RD_10_0.png","C_Dist_300_LN_20_LD_25_RN_8_RD_16_0.png","C_Dist_300_LN_20_LD_25_RN_9_RD_18_0.png","C_Dist_300_LN_24_LD_30_RN_2_RD_4_0.png","C_Dist_300_LN_24_LD_30_RN_8_RD_16_0.png","C_Dist_300_LN_3_LD_6_RN_2_RD_10_0.png","C_Dist_300_LN_4_LD_10_RN_1_RD_10_0.png","C_Dist_300_LN_4_LD_5_RN_2_RD_4_0.png","C_Dist_300_LN_8_LD_16_RN_1_RD_5_0.png","C_Dist_300_LN_9_LD_10_RN_3_RD_5_0.png"],["C_Dist_300_LN_1_LD_20_RN_7_RD_20_1.png","C_Dist_300_LN_1_LD_3_RN_19_RD_30_1.png","C_Dist_300_LN_1_LD_30_RN_8_RD_24_1.png","C_Dist_300_LN_1_LD_5_RN_11_RD_22_1.png","C_Dist_300_LN_1_LD_5_RN_3_RD_6_1.png","C_Dist_300_LN_1_LD_5_RN_6_RD_12_1.png","C_Dist_300_LN_2_LD_10_RN_12_RD_24_1.png","C_Dist_300_LN_2_LD_20_RN_10_RD_25_1.png","C_Dist_300_LN_3_LD_12_RN_11_RD_20_1.png","C_Dist_300_LN_3_LD_6_RN_4_RD_5_1.png","C_Dist_300_LN_4_LD_20_RN_13_RD_26_1.png","C_Dist_300_LN_5_LD_25_RN_6_RD_12_1.png","C_Dist_300_LN_5_LD_25_RN_7_RD_14_1.png","C_Dist_300_LN_7_LD_14_RN_20_RD_25_1.png","C_Dist_300_LN_8_LD_15_RN_10_RD_12_1.png"]],"dist300_I":[["I_Dist_300_LN_1_LD_2_RN_2_RD_10_0.png","I_Dist_300_LN_1_LD_2_RN_3_RD_15_0.png","I_Dist_300_LN_2_LD_4_RN_6_RD_30_0.png","I_Dist_300_LN_3_LD_6_RN_4_RD_20_0.png","I_Dist_300_LN_4_LD_5_RN_6_RD_12_0.png","I_Dist_300_LN_4_LD_5_RN_8_RD_16_0.png","I_Dist_300_LN_7_LD_10_RN_8_RD_20_0.png","I_Dist_300_LN_8_LD_10_RN_14_RD_28_0.png","I_Dist_300_LN_8_LD_10_RN_9_RD_18_0.png"],["I_Dist_300_LN_13_LD_26_RN_12_RD_15_1.png","I_Dist_300_LN_4_LD_20_RN_2_RD_4_1.png"]],"dist300_S":[["E_Dist_300_LN_9_LD_12_RN_9_RD_20_0.png"],["E_Dist_300_LN_18_LD_30_RN_18_RD_20_1.png","E_Dist_300_LN_3_LD_10_RN_3_RD_5_1.png","E_Dist_300_LN_9_LD_20_RN_9_RD_12_1.png"]],"dist500_C":[["C_Dist_500_LN_10_LD_13_RN_7_RD_26_0.png","C_Dist_500_LN_10_LD_15_RN_4_RD_24_0.png","C_Dist_500_LN_12_LD_16_RN_3_RD_12_0.png","C_Dist_500_LN_12_LD_18_RN_4_RD_24_0.png","C_Dist_500_LN_15_LD_18_RN_5_RD_15_0.png","C_Dist_500_LN_15_LD_20_RN_1_RD_4_0.png","C_Dist_500_LN_18_LD_27_RN_1_RD_6_0.png","C_Dist_500_LN_20_LD_24_RN_1_RD_3_0.png","C_Dist_500_LN_20_LD_24_RN_3_RD_9_0.png","C_Dist_500_LN_20_LD_24_RN_7_RD_21_0.png","C_Dist_500_LN_20_LD_28_RN_3_RD_14_0.png","C_Dist_500_LN_21_LD_28_RN_6_RD_24_0.png","C_Dist_500_LN_22_LD_28_RN_2_RD_7_0.png","C_Dist_500_LN_25_LD_30_RN_9_RD_27_0.png","C_Dist_500_LN_4_LD_6_RN_1_RD_6_0.png","C_Dist_500_LN_5_LD_6_RN_2_RD_6_0.png","C_Dist_500_LN_6_LD_9_RN_1_RD_6_0.png","C_Dist_500_LN_7_LD_10_RN_1_RD_5_0.png","C_Dist_500_LN_8_LD_12_RN_1_RD_6_0.png","C_Dist_500_LN_8_LD_12_RN_4_RD_24_0.png"],["C_Dist_500_LN_1_LD_4_RN_12_RD_16_1.png","C_Dist_500_LN_1_LD_4_RN_9_RD_12_1.png","C_Dist_500_LN_1_LD_9_RN_11_RD_18_1.png","C_Dist_500_LN_10_LD_24_RN_22_RD_24_1.png","C_Dist_500_LN_2_LD_12_RN_10_RD_15_1.png","C_Dist_500_LN_2_LD_12_RN_12_RD_18_1.png","C_Dist_500_LN_2_LD_12_RN_4_RD_6_1.png","C_Dist_500_LN_2_LD_24_RN_7_RD_12_1.png","C_Dist_500_LN_2_LD_5_RN_18_RD_20_1.png","C_Dist_500_LN_2_LD_5_RN_9_RD_10_1.png","C_Dist_500_LN_2_LD_8_RN_12_RD_16_1.png","C_Dist_500_LN_2_LD_8_RN_21_RD_28_1.png","C_Dist_500_LN_3_LD_10_RN_4_RD_5_1.png","C_Dist_500_LN_3_LD_12_RN_15_RD_20_1.png","C_Dist_500_LN_3_LD_30_RN_6_RD_10_1.png","C_Dist_500_LN_3_LD_8_RN_14_RD_16_1.png","C_Dist_500_LN_4_LD_16_RN_15_RD_20_1.png","C_Dist_500_LN_4_LD_24_RN_12_RD_18_1.png","C_Dist_500_LN_5_LD_14_RN_6_RD_7_1.png","C_Dist_500_LN_7_LD_21_RN_20_RD_24_1.png","C_Dist_500_LN_7_LD_28_RN_12_RD_16_1.png","C_Dist_500_LN_7_LD_28_RN_9_RD_12_1.png","C_Dist_500_LN_9_LD_27_RN_20_RD_24_1.png"]],"dist500_I":[["I_Dist_500_LN_2_LD_3_RN_4_RD_24_0.png","I_Dist_500_LN_5_LD_6_RN_6_RD_18_0.png","I_Dist_500_LN_7_LD_8_RN_9_RD_24_0.png"],["I_Dist_500_LN_7_LD_21_RN_5_RD_6_1.png"]],"dist500_S":[["E_Dist_500_LN_6_LD_8_RN_6_RD_24_0.png"],["E_Dist_500_LN_2_LD_12_RN_2_RD_3_1.png","E_Dist_500_LN_6_LD_24_RN_6_RD_8_1.png"]]}},{"start_time":1551789949387,"click_time":1551789952056,"finger_time":1551789951494,"fix_duration":250,"trial":1,"RT":2107,"MT":562,"sideResp":1,"stimulus":[],"xmouse":[787,787,787,787,787,787,787,787,787,787,787,787,787,787,787,787,787,787,787,787,787,787,787,787,787,787,787,787,787,787,787,787,787,787,787,787,787,787,787,787,787,787,787,787,787,787,787,787,787,787,787,787,787,787,787,787,787,787,787,787,787,787,787,787,787,787,787,787,787,787,787,787,787,787,787,787,787,787,787,787,787,787,787,787,787,787,787,787,787,787,787,787,787,787,787,787,787,787,787,787,787,787,781,775,759,708,668,613,578,529,513,499,489,482,482,482,482,482,482,482,482,482,482,482,482,482,482,482,482,484,490,496,499,501],"ymouse":[558,558,558,558,558,558,558,558,558,558,558,558,558,558,558,558,558,558,558,558,558,558,558,558,558,558,558,558,558,558,558,558,558,558,558,558,558,558,558,558,558,558,558,558,558,558,558,558,558,558,558,558,558,558,558,558,558,558,558,558,558,558,558,558,558,558,558,558,558,558,558,558,558,558,558,558,558,558,558,558,558,558,558,558,558,558,558,558,558,558,558,558,558,558,558,558,558,558,558,558,558,558,551,541,523,458,409,354,318,244,220,201,190,184,183,183,183,183,183,183,183,183,183,183,183,183,183,181,179,163,148,129,111,95],"timestamp_mouse":[8,27,48,67,88,108,127,147,167,187,208,228,247,267,287,308,327,347,367,387,407,427,447,468,487,508,527,547,567,587,607,627,648,668,687,707,728,747,768,788,807,827,848,868,887,907,927,948,967,987,1008,1027,1047,1068,1087,1107,1127,1148,1167,1187,1207,1227,1247,1267,1288,1307,1328,1347,1368,1388,1407,1427,1448,1467,1488,1507,1528,1548,1568,1588,1608,1629,1647,1667,1688,1707,1728,1749,1768,1788,1808,1828,1849,1868,1889,1908,1927,1947,1968,1988,2007,2028,2047,2068,2087,2107,2127,2148,2167,2188,2207,2227,2248,2267,2288,2307,2328,2348,2367,2387,2407,2428,2447,2467,2487,2507,2528,2547,2568,2587,2607,2628,2647,2668],"xSR":741.5,"ySR":501.8,"xT1":424.9,"yT1":0,"xT2":1058.1,"yT2":0,"toosoon":0,"cond_shown":"Incongruent","ratio_trial":300,"L_num":1,"L_den":2,"R_num":3,"R_den":15,"correct_side":1,"subjID":"saravalentinamolinaocampo24","gender":"1","school":"6","age":"11"},{"start_time":1551789954110,"click_time":1551789956174,"finger_time":1551789955574,"fix_duration":953.2198537248784,"trial":2,"RT":1464,"MT":600,"sideResp":1,"stimulus":[],"xmouse":[785,785,785,785,785,785,785,785,785,785,785,785,785,785,785,785,785,785,785,785,785,785,785,785,785,785,785,785,785,785,785,785,785,785,785,785,785,785,785,785,785,785,785,785,785,785,785,785,785,785,785,785,785,785,785,785,785,785,785,785,785,785,785,785,785,785,785,785,785,785,785,780,776,762,737,730,722,716,702,679,665,648,633,619,592,574,549,539,526,521,521,521,521,521,521,521,521,521,521,521,521,521,520,515],"ymouse":[548,548,548,548,548,548,548,548,548,548,548,548,548,548,548,548,548,548,548,548,548,548,548,548,548,548,548,548,548,548,548,548,548,548,548,548,548,548,548,548,548,548,548,548,548,548,548,548,548,548,548,548,548,548,548,548,548,548,548,548,548,548,548,548,548,548,548,548,548,548,548,535,524,490,433,411,392,377,349,320,305,288,273,259,231,212,187,179,162,150,146,142,137,131,121,117,113,109,107,106,106,106,104,98],"timestamp_mouse":[9,24,45,65,84,105,126,145,165,185,205,224,245,265,285,305,326,344,365,385,405,424,444,464,484,505,525,546,564,584,604,625,645,665,684,704,724,744,765,784,804,824,844,864,885,905,925,945,965,984,1004,1026,1045,1064,1085,1105,1125,1144,1164,1184,1205,1224,1245,1265,1284,1304,1325,1345,1364,1384,1404,1425,1444,1464,1484,1504,1524,1544,1564,1584,1604,1624,1644,1665,1684,1705,1725,1744,1764,1784,1805,1824,1844,1864,1884,1905,1926,1945,1965,1985,2004,2024,2045,2064],"xSR":741.5,"ySR":501.8,"xT1":424.9,"yT1":0,"xT2":1058.1,"yT2":0,"toosoon":0,"cond_shown":"Congruent","ratio_trial":200,"L_num":20,"L_den":25,"R_num":9,"R_den":15,"correct_side":1,"subjID":"saravalentinamolinaocampo24","gender":"1","school":"6","age":"11"},{"start_time":1551789957559,"click_time":1551789959355,"finger_time":1551789958874,"fix_duration":263.22174170335467,"trial":3,"RT":1315,"MT":481,"sideResp":2,"stimulus":[],"xmouse":[764,764,764,764,764,764,764,764,764,764,764,764,764,764,764,764,764,764,764,764,764,764,764,764,764,764,764,764,764,764,764,764,764,764,764,764,764,764,764,764,764,764,764,764,764,764,764,764,764,764,764,764,764,764,764,764,764,764,764,764,764,764,764,765,765,777,789,801,815,843,908,940,961,985,1007,1036,1044,1050,1052,1055,1059,1064,1066,1066,1067,1068,1068,1070,1071,1073],"ymouse":[523,523,523,523,523,523,523,523,523,523,523,523,523,523,523,523,523,523,523,523,523,523,523,523,523,523,523,523,523,523,523,523,523,523,523,523,523,523,523,523,523,523,523,523,523,523,523,523,523,523,523,523,523,523,523,523,523,523,523,523,523,523,523,522,520,498,483,462,441,407,327,281,256,231,206,168,158,150,146,138,129,115,111,108,107,106,105,104,101,98],"timestamp_mouse":[16,38,55,75,96,115,135,155,175,196,215,236,255,275,296,315,335,356,376,395,415,435,455,476,495,515,536,555,575,596,616,636,655,675,696,716,736,756,777,796,816,835,855,876,896,915,935,956,976,996,1016,1036,1056,1075,1095,1116,1136,1155,1176,1196,1216,1236,1255,1275,1296,1315,1335,1355,1376,1395,1416,1435,1455,1475,1495,1515,1535,1555,1575,1596,1615,1635,1656,1675,1695,1716,1736,1755,1775,1796],"xSR":741.5,"ySR":501.8,"xT1":424.9,"yT1":0,"xT2":1058.1,"yT2":0,"toosoon":0,"cond_shown":"Incongruent","ratio_trial":300,"L_num":13,"L_den":26,"R_num":12,"R_den":15,"correct_side":2,"subjID":"saravalentinamolinaocampo24","gender":"1","school":"6","age":"11"},{"start_time":1551789960987,"click_time":1551789962734,"finger_time":1551789962394,"fix_duration":250.81044008258846,"trial":4,"RT":1407,"MT":340,"sideResp":1,"stimulus":[],"xmouse":[804,804,804,804,804,804,804,804,804,804,804,804,804,804,804,804,804,804,804,804,804,804,804,804,804,804,804,804,804,804,804,804,804,804,804,804,804,804,804,804,804,804,804,804,804,804,804,804,804,804,804,804,804,804,804,804,804,804,804,804,804,804,804,804,804,804,804,803,802,799,782,768,750,730,718,698,693,682,671,662,636,618,605,581,551,538,528,518],"ymouse":[545,545,545,545,545,545,545,545,545,545,545,545,545,545,545,545,545,545,545,545,545,545,545,545,545,545,545,545,545,545,545,545,545,545,545,545,545,545,545,545,545,545,545,545,545,545,545,545,545,545,545,545,545,545,545,545,545,545,545,545,545,545,545,545,545,545,545,543,539,526,485,457,421,378,349,308,291,271,253,233,183,150,125,89,54,42,32,25],"timestamp_mouse":[9,40,47,68,87,107,128,147,167,187,207,227,248,267,287,307,327,347,367,387,407,427,447,467,487,507,528,547,567,587,607,629,647,667,687,708,728,747,767,787,807,828,847,867,887,907,928,947,968,988,1007,1027,1048,1068,1087,1108,1127,1147,1167,1188,1207,1227,1248,1268,1287,1308,1327,1348,1367,1388,1407,1427,1447,1467,1487,1508,1527,1547,1567,1588,1607,1628,1648,1667,1688,1708,1727,1747],"xSR":741.5,"ySR":501.8,"xT1":424.9,"yT1":0,"xT2":1058.1,"yT2":0,"toosoon":0,"cond_shown":"Congruent","ratio_trial":100,"L_num":9,"L_den":15,"R_num":8,"R_den":16,"correct_side":1,"subjID":"saravalentinamolinaocampo24","gender":"1","school":"6","age":"11"},{"start_time":1551789964949,"click_time":1551789966694,"finger_time":1551789966134,"fix_duration":1393.6689952172562,"trial":5,"RT":1185,"MT":560,"sideResp":2,"stimulus":[],"xmouse":[812,811,809,809,809,808,807,805,803,803,803,803,803,802,802,802,802,802,802,802,802,802,802,802,802,802,802,802,802,802,802,802,802,802,802,802,802,802,802,802,802,802,802,802,801,800,799,796,796,795,795,795,793,792,791,790,788,784,783,781,779,777,776,776,776,779,798,813,835,856,872,886,906,911,914,917,923,927,930,937,949,977,992,1009,1024,1034,1054,1073],"ymouse":[556,556,556,556,556,556,555,555,554,553,553,553,553,553,553,553,553,553,553,553,553,553,553,553,553,553,553,553,553,553,553,553,553,553,553,553,553,553,553,553,553,553,552,551,549,548,545,541,540,539,538,537,533,531,528,525,517,508,502,498,492,477,468,458,445,420,376,350,319,289,269,250,228,221,217,215,208,206,203,199,192,169,158,143,131,122,103,82],"timestamp_mouse":[5,26,46,66,85,106,125,146,165,185,205,225,245,265,286,306,325,345,365,385,405,425,445,466,486,505,525,545,565,586,606,626,645,665,685,705,726,745,765,785,805,825,845,865,885,905,925,946,965,985,1005,1026,1045,1066,1085,1105,1125,1146,1165,1185,1206,1226,1245,1265,1286,1305,1325,1345,1365,1385,1405,1426,1445,1465,1485,1505,1526,1545,1566,1586,1605,1626,1645,1665,1685,1705,1725,1745],"xSR":741.5,"ySR":501.8,"xT1":424.9,"yT1":0,"xT2":1058.1,"yT2":0,"toosoon":0,"cond_shown":"Congruent","ratio_trial":300,"L_num":1,"L_den":5,"R_num":6,"R_den":12,"correct_side":2,"subjID":"saravalentinamolinaocampo24","gender":"1","school":"6","age":"11"},{"start_time":1551789973838,"click_time":1551789975794,"finger_time":1551789975534,"fix_duration":962.939748957118,"trial":6,"RT":1696,"MT":260,"sideResp":1,"stimulus":[],"xmouse":[793,793,793,793,793,793,793,793,793,793,793,793,793,793,793,793,793,793,793,793,793,793,793,793,793,793,793,793,793,793,793,793,793,793,793,793,793,793,793,793,793,793,793,793,793,793,793,793,793,793,793,793,793,793,793,793,793,793,793,793,793,793,793,793,793,793,793,793,793,793,793,793,793,793,793,793,793,793,793,793,792,791,788,782,775,765,754,717,700,681,656,640,607,591,576,564,536,521],"ymouse":[533,533,533,533,533,533,533,533,533,533,533,533,533,533,533,533,533,533,533,533,533,533,533,533,533,533,533,533,533,533,533,533,533,533,533,533,533,533,533,533,533,533,533,533,533,533,533,533,533,533,533,533,533,533,533,533,533,533,533,533,533,533,533,533,533,533,533,533,533,533,533,533,533,533,533,533,533,533,533,533,534,531,522,509,487,459,439,355,307,264,208,175,115,90,69,53,25,12],"timestamp_mouse":[18,36,56,76,97,117,136,156,176,197,216,236,256,276,297,316,337,356,377,397,417,436,456,477,496,517,536,556,577,597,616,636,656,676,697,716,738,756,776,797,816,836,856,876,897,917,938,956,978,997,1017,1036,1057,1077,1096,1117,1137,1156,1177,1196,1217,1237,1256,1277,1296,1316,1337,1357,1377,1396,1416,1436,1457,1477,1497,1516,1536,1557,1576,1596,1617,1636,1657,1677,1696,1716,1736,1756,1776,1798,1816,1836,1857,1876,1896,1916,1938,1956],"xSR":741.5,"ySR":501.8,"xT1":424.9,"yT1":0,"xT2":1058.1,"yT2":0,"toosoon":0,"cond_shown":"Congruent","ratio_trial":200,"L_num":4,"L_den":8,"R_num":3,"R_den":10,"correct_side":1,"subjID":"saravalentinamolinaocampo24","gender":"1","school":"6","age":"11"},{"start_time":1551789985414,"click_time":1551789987815,"finger_time":1551789986554,"fix_duration":539.2930061983614,"trial":7,"RT":1140,"MT":1261,"sideResp":2,"stimulus":[],"xmouse":[776,776,776,776,776,776,776,776,776,776,776,776,776,776,776,776,776,776,776,776,776,776,776,776,776,776,776,776,776,776,776,776,776,776,776,776,776,776,776,776,776,776,776,776,776,776,776,776,776,776,776,776,776,776,776,776,770,750,719,703,690,684,678,660,653,645,638,631,623,622,620,619,616,614,614,614,614,614,612,614,617,622,629,636,654,666,677,696,718,769,798,832,879,937,965,987,1005,1022,1049,1059,1065,1076,1091,1097,1101,1101,1098,1097,1096,1096,1096,1096,1096,1096,1096,1096,1096,1096,1096,1096,1096],"ymouse":[538,538,538,538,538,538,538,538,538,538,538,538,538,538,538,538,538,538,538,538,538,538,538,538,538,538,538,538,538,538,538,538,538,538,538,538,538,538,538,538,538,538,538,538,538,538,538,538,538,538,538,538,538,538,538,537,527,500,460,441,420,402,391,354,334,316,301,288,273,268,264,260,254,252,252,252,252,252,252,269,278,287,299,302,303,297,293,287,284,281,280,277,270,258,252,250,250,250,247,243,237,226,201,181,144,126,112,106,105,105,105,105,105,105,105,105,105,105,105,102,97],"timestamp_mouse":[9,21,53,60,80,101,121,140,160,180,200,221,240,261,280,300,320,341,361,381,400,420,440,460,480,500,521,542,560,581,600,620,640,661,681,701,722,740,761,780,800,821,842,861,880,902,921,940,960,981,1001,1021,1040,1061,1080,1100,1121,1140,1160,1180,1201,1220,1240,1261,1280,1300,1320,1340,1361,1380,1400,1420,1441,1461,1480,1500,1520,1540,1560,1580,1600,1620,1641,1660,1680,1701,1721,1740,1760,1780,1801,1820,1841,1860,1880,1900,1921,1940,1961,1980,2001,2020,2040,2060,2081,2100,2122,2140,2160,2180,2200,2220,2241,2260,2281,2300,2320,2341,2360,2381,2401],"xSR":741.5,"ySR":501.8,"xT1":424.9,"yT1":0,"xT2":1058.1,"yT2":0,"toosoon":0,"cond_shown":"Incongruent","ratio_trial":100,"L_num":17,"L_den":30,"R_num":10,"R_den":15,"correct_side":2,"subjID":"saravalentinamolinaocampo24","gender":"1","school":"6","age":"11"},{"start_time":1551789989090,"click_time":1551789990895,"finger_time":1551789990335,"fix_duration":272.8362391720381,"trial":8,"RT":1245,"MT":560,"sideResp":1,"stimulus":[],"xmouse":[814,814,814,814,814,814,814,814,814,814,815,815,815,815,815,815,815,815,816,816,816,816,816,816,816,816,816,816,816,816,816,816,816,816,816,816,816,816,816,816,816,816,816,816,816,816,816,816,816,816,816,817,817,817,817,817,816,816,814,813,809,806,803,801,795,791,785,777,755,733,684,659,645,633,618,612,607,597,594,579,575,573,571,568,565,555,551,538,536,527,514],"ymouse":[557,557,557,557,557,557,557,556,556,554,552,552,552,552,551,551,551,550,549,549,549,549,549,549,549,549,549,549,549,549,549,549,549,549,549,549,549,549,549,549,549,549,549,549,549,549,549,549,549,548,548,546,546,546,544,543,541,536,532,529,513,505,495,488,474,464,451,437,402,372,321,297,284,270,244,229,214,189,179,145,135,128,122,116,110,99,95,89,89,88,88],"timestamp_mouse":[10,24,44,65,84,104,124,145,164,185,205,224,244,265,285,304,325,345,364,384,404,424,445,464,486,504,526,545,565,584,604,624,645,665,684,704,724,745,764,785,804,824,844,864,884,906,924,945,964,984,1004,1024,1044,1064,1084,1104,1126,1144,1164,1184,1205,1224,1245,1264,1284,1304,1324,1345,1364,1384,1404,1425,1445,1464,1485,1504,1524,1544,1565,1584,1604,1625,1644,1664,1685,1704,1725,1744,1764,1784,1805],"xSR":741.5,"ySR":501.8,"xT1":424.9,"yT1":0,"xT2":1058.1,"yT2":0,"toosoon":0,"cond_shown":"Congruent","ratio_trial":200,"L_num":21,"L_den":30,"R_num":2,"R_den":4,"correct_side":1,"subjID":"saravalentinamolinaocampo24","gender":"1","school":"6","age":"11"},{"start_time":1551789992605,"click_time":1551789994154,"finger_time":1551789993836,"fix_duration":250,"trial":9,"RT":1231,"MT":318,"sideResp":1,"stimulus":[],"xmouse":[781,781,781,781,781,781,781,781,781,781,781,781,781,781,781,781,781,781,781,781,781,781,781,781,781,781,781,781,781,781,781,781,781,781,781,781,781,781,781,781,781,781,781,781,781,781,781,781,781,781,781,781,781,781,781,781,780,780,774,771,769,765,753,743,714,698,676,656,609,578,554,538,522,506,495,492,491,491],"ymouse":[537,537,537,537,537,537,537,537,537,537,537,537,537,537,537,537,537,537,537,537,537,537,537,537,537,537,537,537,537,537,537,537,537,537,537,537,537,537,537,537,537,537,537,537,537,537,537,537,537,537,537,537,537,537,537,537,535,531,522,515,509,500,479,465,422,398,374,345,285,250,219,196,169,138,112,104,100,97],"timestamp_mouse":[9,36,49,69,91,109,129,150,169,189,210,230,249,269,290,309,329,349,370,389,409,430,450,469,490,509,529,550,569,590,609,630,650,669,689,709,730,749,770,790,810,830,849,870,889,910,929,949,969,989,1010,1030,1049,1069,1090,1109,1130,1149,1169,1189,1209,1231,1249,1269,1289,1309,1329,1349,1370,1389,1409,1429,1449,1470,1489,1509,1529,1549],"xSR":741.5,"ySR":501.8,"xT1":424.9,"yT1":0,"xT2":1058.1,"yT2":0,"toosoon":0,"cond_shown":"Incongruent","ratio_trial":300,"L_num":4,"L_den":5,"R_num":6,"R_den":12,"correct_side":1,"subjID":"saravalentinamolinaocampo24","gender":"1","school":"6","age":"11"},{"start_time":1551789996642,"click_time":1551789998414,"finger_time":1551789997794,"fix_duration":1346.0797981956582,"trial":10,"RT":1152,"MT":620,"sideResp":2,"stimulus":[],"xmouse":[757,758,758,758,758,758,759,759,759,759,759,759,759,760,760,760,760,760,760,760,760,760,761,761,761,761,761,761,761,761,761,761,761,761,761,761,761,761,761,761,761,761,761,761,761,761,761,761,761,761,761,761,761,761,761,761,754,740,738,733,733,729,728,728,728,728,733,769,796,833,882,1043,1104,1140,1163,1178,1191,1191,1193,1194,1196,1198,1197,1194,1190,1186,1172,1163,1153],"ymouse":[528,528,528,528,528,528,528,528,528,528,528,528,528,527,527,527,527,527,527,527,527,526,525,525,525,525,525,525,525,525,525,525,525,525,525,525,525,525,525,525,525,525,525,525,525,525,525,525,525,525,525,525,525,525,524,523,519,511,509,505,504,501,493,487,477,462,440,382,357,326,293,226,200,182,165,152,131,121,111,102,93,70,62,57,55,52,47,45,43],"timestamp_mouse":[13,49,52,73,92,112,133,153,173,194,212,233,253,272,293,312,333,353,372,393,412,433,452,473,492,513,532,553,578,593,612,633,653,673,692,713,732,752,772,793,812,832,852,873,892,913,932,952,973,994,1013,1033,1053,1073,1093,1112,1132,1152,1172,1193,1213,1232,1252,1272,1292,1312,1332,1352,1372,1392,1412,1432,1452,1472,1493,1512,1533,1552,1572,1592,1613,1633,1652,1672,1692,1712,1733,1752,1772],"xSR":741.5,"ySR":501.8,"xT1":424.9,"yT1":0,"xT2":1058.1,"yT2":0,"toosoon":0,"cond_shown":"Congruent","ratio_trial":200,"L_num":3,"L_den":6,"R_num":14,"R_den":20,"correct_side":2,"subjID":"saravalentinamolinaocampo24","gender":"1","school":"6","age":"11"},{"start_time":1551790000957,"click_time":1551790002494,"finger_time":1551790002394,"fix_duration":1081.7074042096874,"trial":11,"RT":1437,"MT":100,"sideResp":1,"stimulus":[],"xmouse":[810,810,810,810,810,810,810,810,810,810,810,810,810,810,810,810,810,810,810,810,810,810,810,810,810,810,810,810,810,810,810,810,810,810,810,810,810,810,810,810,810,810,810,810,810,810,810,810,810,810,810,810,810,810,810,810,810,810,810,810,810,810,810,810,810,810,810,810,805,801,790,755,725,690,641,516,479],"ymouse":[551,551,551,551,551,551,551,551,551,551,551,551,551,551,551,551,551,551,551,551,551,551,551,551,551,551,551,551,551,551,551,551,551,551,551,551,551,551,551,551,551,551,551,551,551,551,551,551,551,551,551,551,551,551,551,551,551,551,551,551,551,551,551,551,551,551,551,551,551,543,526,451,386,322,249,100,55],"timestamp_mouse":[18,46,57,77,97,117,137,157,179,198,217,237,258,278,297,317,339,357,378,399,418,437,457,478,498,517,538,557,578,597,617,638,657,679,697,717,737,757,777,797,817,837,857,878,898,917,937,957,977,997,1018,1038,1057,1077,1098,1118,1137,1159,1178,1197,1217,1237,1256,1277,1298,1317,1337,1358,1378,1396,1416,1437,1456,1477,1497,1517,1537],"xSR":741.5,"ySR":501.8,"xT1":424.9,"yT1":0,"xT2":1058.1,"yT2":0,"toosoon":0,"cond_shown":"Congruent","ratio_trial":200,"L_num":16,"L_den":30,"R_num":9,"R_den":27,"correct_side":1,"subjID":"saravalentinamolinaocampo24","gender":"1","school":"6","age":"11"},{"start_time":1551790004576,"click_time":1551790006294,"finger_time":1551790005894,"fix_duration":960.6404892384191,"trial":12,"RT":1318,"MT":400,"sideResp":1,"stimulus":[],"xmouse":[808,808,808,808,808,808,808,808,808,808,808,808,808,808,808,808,808,808,808,808,808,808,808,808,808,808,808,808,808,808,808,808,808,808,808,808,808,808,808,808,808,808,808,808,808,808,808,808,808,808,808,808,808,808,808,808,808,808,807,806,806,806,806,803,799,787,779,767,757,738,699,679,661,641,607,601,594,589,584,575,569,565,560,554,528,514],"ymouse":[540,540,540,540,540,540,540,540,540,540,540,540,540,540,540,540,540,540,540,540,540,540,540,540,540,540,540,540,540,540,540,540,540,540,540,540,540,540,540,540,540,540,540,540,540,540,540,540,540,540,540,540,540,540,539,537,535,534,533,532,532,531,529,524,517,492,472,445,409,356,248,199,163,137,85,77,68,62,56,50,47,47,47,47,47,47],"timestamp_mouse":[18,37,66,79,99,118,138,158,177,197,218,238,257,278,299,319,337,357,378,398,418,437,457,478,499,517,537,558,579,598,619,638,658,679,697,719,739,758,779,797,817,838,857,878,897,918,937,958,977,998,1018,1038,1059,1078,1098,1118,1138,1158,1179,1199,1219,1238,1257,1279,1297,1318,1337,1357,1377,1397,1417,1437,1458,1479,1498,1517,1537,1557,1577,1598,1617,1638,1658,1679,1698,1718],"xSR":741.5,"ySR":501.8,"xT1":424.9,"yT1":0,"xT2":1058.1,"yT2":0,"toosoon":0,"cond_shown":"Congruent","ratio_trial":300,"L_num":24,"L_den":30,"R_num":8,"R_den":16,"correct_side":1,"subjID":"saravalentinamolinaocampo24","gender":"1","school":"6","age":"11"},{"start_time":1551790008499,"click_time":1551790010255,"finger_time":1551790009854,"fix_duration":864.4265296702393,"trial":13,"RT":1355,"MT":401,"sideResp":2,"stimulus":[],"xmouse":[798,798,798,798,798,798,798,798,798,798,798,798,798,798,798,798,798,798,798,798,798,798,798,798,798,798,798,798,798,798,798,798,798,798,798,798,798,798,798,798,798,798,798,798,798,798,798,798,798,797,797,796,795,795,795,795,795,795,795,795,795,795,795,795,795,795,796,801,807,831,851,885,930,981,997,1004,1008,1010,1010,1012,1014,1017,1020,1030,1037,1043,1052,1063],"ymouse":[551,551,551,551,551,551,551,551,551,551,551,551,551,551,551,551,551,551,551,551,551,551,551,551,551,551,551,551,551,551,551,551,551,551,551,551,551,551,551,551,551,551,551,551,551,551,552,551,546,543,543,541,540,540,540,540,540,540,540,540,540,540,540,540,535,532,521,497,476,430,398,349,288,198,165,142,127,113,106,100,97,93,89,77,73,70,64,61],"timestamp_mouse":[20,39,55,74,94,114,134,156,175,195,215,236,254,274,294,315,334,355,375,394,416,435,455,474,494,514,535,555,576,594,614,635,655,676,695,714,735,755,776,794,814,836,854,876,895,915,936,955,975,995,1014,1036,1054,1075,1095,1116,1135,1155,1175,1194,1215,1234,1255,1275,1294,1315,1334,1355,1375,1396,1415,1434,1454,1476,1494,1515,1534,1555,1574,1595,1615,1635,1654,1676,1694,1715,1734,1756],"xSR":741.5,"ySR":501.8,"xT1":424.9,"yT1":0,"xT2":1058.1,"yT2":0,"toosoon":0,"cond_shown":"Congruent","ratio_trial":300,"L_num":3,"L_den":6,"R_num":4,"R_den":5,"correct_side":2,"subjID":"saravalentinamolinaocampo24","gender":"1","school":"6","age":"11"},{"start_time":1551790011665,"click_time":1551790015334,"finger_time":1551790013035,"fix_duration":250,"trial":14,"RT":1370,"MT":2299,"sideResp":1,"stimulus":[],"xmouse":[752,752,752,752,752,752,752,752,752,752,752,752,752,753,753,753,753,753,753,753,753,753,753,753,753,753,753,753,753,753,753,753,753,753,753,753,753,753,753,753,753,753,753,753,753,753,753,753,753,753,753,753,753,753,753,753,753,753,753,753,753,753,753,753,753,753,745,743,738,736,735,735,735,735,735,735,735,735,735,735,735,735,735,735,735,735,735,735,735,735,735,735,735,735,735,735,735,735,735,735,735,735,735,735,735,735,735,735,735,735,735,735,735,735,738,738,739,739,739,741,744,745,745,745,746,751,756,764,784,795,830,884,899,909,914,917,921,921,921,921,921,921,921,921,921,921,921,921,921,921,921,921,921,921,921,921,921,914,899,869,757,757,757,757,757,757,757,757,757,757,757,757,757,757,757,757,757,757,757,757,757,757,757,493],"ymouse":[568,568,568,568,568,568,568,568,568,568,568,568,568,568,568,568,568,568,568,568,568,568,568,568,568,568,568,568,568,568,568,568,568,568,568,568,568,568,568,568,568,568,568,568,568,568,568,568,568,568,568,568,568,568,568,568,568,568,568,568,568,568,568,568,560,557,527,516,509,505,504,504,504,504,504,504,504,504,504,504,504,504,504,504,504,504,504,504,504,504,504,504,504,504,504,504,504,504,504,504,504,504,504,504,504,504,504,504,504,504,504,504,504,503,502,501,501,501,501,500,498,498,497,497,496,494,491,487,470,460,428,366,337,317,301,288,274,272,272,272,272,272,272,272,272,272,272,272,272,272,272,272,272,272,272,271,265,251,220,165,21,21,21,21,21,21,21,21,21,21,21,21,21,21,21,21,21,21,21,21,21,21,21,3],"timestamp_mouse":[8,29,56,69,88,109,129,149,169,189,209,229,248,269,290,310,329,350,368,388,409,429,449,470,488,510,528,548,569,588,610,630,649,670,688,710,729,750,769,789,809,829,848,869,890,908,930,950,968,988,1009,1030,1048,1069,1089,1109,1129,1150,1170,1189,1210,1229,1249,1270,1288,1309,1328,1350,1370,1388,1408,1428,1449,1469,1490,1509,1530,1548,1569,1590,1609,1630,1649,1668,1689,1708,1729,1749,1769,1789,1810,1829,1848,1870,1889,1909,1928,1950,1969,1988,2010,2029,2049,2068,2088,2110,2130,2149,2169,2188,2209,2228,2249,2269,2289,2309,2328,2349,2369,2389,2410,2428,2449,2470,2489,2509,2528,2548,2569,2589,2608,2629,2650,2669,2688,2708,2728,2749,2769,2789,2810,2828,2849,2870,2890,2909,2928,2949,2970,2990,3009,3029,3049,3069,3090,3110,3128,3149,3168,3189,3209,3228,3249,3269,3290,3309,3330,3349,3369,3388,3408,3429,3449,3469,3490,3508,3529,3548,3570,3590,3609,3630,3649,3669],"xSR":741.5,"ySR":501.8,"xT1":424.9,"yT1":0,"xT2":1058.1,"yT2":0,"toosoon":0,"cond_shown":"Congruent","ratio_trial":100,"L_num":6,"L_den":20,"R_num":5,"R_den":25,"correct_side":1,"subjID":"saravalentinamolinaocampo24","gender":"1","school":"6","age":"11"},{"start_time":1551790020275,"click_time":1551790022514,"finger_time":1551790021714,"fix_duration":1339.2168369802114,"trial":15,"RT":1439,"MT":800,"sideResp":2,"stimulus":[],"xmouse":[814,814,814,814,814,814,814,811,808,797,791,791,791,791,791,791,791,791,791,791,791,791,791,791,791,791,791,791,791,791,791,791,791,791,791,791,791,791,791,791,791,791,791,791,791,791,791,791,791,791,791,791,791,791,791,791,791,791,791,791,791,791,791,791,791,791,791,791,795,799,818,832,851,867,920,940,952,957,961,966,971,971,971,971,972,972,973,974,978,979,979,979,979,979,981,992,1003,1012,1023,1027,1037,1044,1050,1053,1054,1055,1055,1055,1057,1058,1058,1059],"ymouse":[566,566,566,566,566,566,566,566,565,562,560,560,560,560,560,560,560,560,560,560,560,560,560,560,560,560,560,560,560,560,560,560,560,560,560,560,560,560,560,560,560,560,560,560,560,560,560,560,560,560,560,560,560,560,560,560,560,560,560,560,560,560,560,560,560,560,558,552,543,535,510,493,471,451,367,324,273,235,209,170,129,114,103,95,86,85,82,79,76,75,74,74,74,74,74,76,78,80,82,83,85,85,86,86,86,86,86,86,86,86,86,85],"timestamp_mouse":[32,40,59,78,98,119,139,159,178,198,219,240,259,279,298,319,338,360,380,398,419,438,459,480,498,520,540,559,580,599,619,638,659,679,700,719,740,758,779,799,820,839,859,879,900,918,938,958,980,1000,1018,1038,1058,1080,1100,1120,1140,1158,1180,1198,1220,1240,1258,1280,1298,1318,1338,1359,1380,1400,1420,1439,1459,1480,1500,1518,1540,1559,1579,1600,1619,1639,1659,1679,1700,1719,1739,1759,1779,1799,1819,1839,1860,1879,1899,1918,1938,1959,1979,1998,2019,2038,2060,2080,2099,2118,2139,2159,2180,2199,2218,2238],"xSR":741.5,"ySR":501.8,"xT1":424.9,"yT1":0,"xT2":1058.1,"yT2":0,"toosoon":0,"cond_shown":"Congruent","ratio_trial":100,"L_num":9,"L_den":15,"R_num":8,"R_den":16,"correct_side":1,"subjID":"saravalentinamolinaocampo24","gender":"1","school":"6","age":"11"},{"start_time":1551790027502,"click_time":1551790031075,"finger_time":1551790029455,"fix_duration":1207.7619579233108,"trial":16,"RT":1953,"MT":1620,"sideResp":2,"stimulus":[],"xmouse":[813,813,813,813,813,813,813,813,813,813,813,813,813,813,813,813,813,813,813,813,813,813,813,813,813,813,813,813,813,813,813,813,813,813,813,813,813,813,813,813,813,813,813,813,813,813,813,813,813,813,813,813,813,813,813,813,813,813,813,813,813,813,813,813,813,813,813,813,813,813,813,813,813,813,813,813,813,813,813,813,813,813,813,813,813,813,813,813,813,812,812,812,810,806,795,788,780,773,751,743,733,724,718,710,709,709,709,709,709,709,709,709,709,709,709,709,709,709,709,709,709,709,709,709,709,709,709,709,709,709,709,709,709,709,708,706,705,704,701,701,700,700,700,700,707,718,732,755,806,878,913,951,975,996,997,998,1001,1010,1026,1050,1053,1053,1053,1054,1054,1054,1054,1054,1054,1054,1054,1054,1055,1057,1058,1058,1058,1058,1059],"ymouse":[544,544,544,544,544,544,544,544,544,544,544,544,544,544,544,544,544,544,544,544,544,544,544,544,544,544,544,544,544,544,544,544,544,544,544,544,544,544,544,544,544,544,544,544,544,544,544,544,544,544,544,544,544,544,544,544,544,544,544,544,544,544,544,544,544,544,544,544,544,544,544,544,544,544,544,544,544,544,544,544,544,544,544,544,544,544,544,544,544,544,544,544,543,539,528,522,510,501,462,443,423,408,397,387,387,387,387,387,387,387,387,387,387,387,387,387,387,387,387,387,387,387,387,387,387,387,386,386,386,386,386,386,386,386,385,381,375,373,359,356,354,353,353,353,342,327,310,281,229,162,131,96,79,64,63,62,62,62,62,62,62,62,62,61,61,61,61,61,61,61,61,61,61,61,61,61,61,61,61],"timestamp_mouse":[11,37,52,73,92,111,132,153,173,191,212,232,252,272,291,312,331,352,371,392,411,432,451,471,492,511,533,551,573,591,613,632,652,672,691,713,731,753,771,792,811,832,851,872,891,912,931,951,973,991,1011,1031,1053,1072,1091,1113,1132,1153,1172,1192,1213,1233,1252,1273,1291,1312,1333,1353,1372,1392,1413,1433,1452,1473,1492,1512,1532,1552,1572,1593,1611,1632,1651,1673,1692,1713,1733,1753,1772,1793,1813,1833,1851,1872,1892,1911,1932,1953,1972,1991,2011,2032,2053,2072,2091,2112,2132,2153,2172,2192,2212,2232,2251,2272,2292,2311,2332,2351,2373,2393,2413,2433,2451,2472,2493,2511,2531,2552,2573,2592,2612,2632,2651,2673,2693,2712,2732,2753,2772,2791,2812,2832,2851,2871,2892,2912,2931,2952,2972,2991,3011,3032,3051,3073,3091,3112,3132,3151,3171,3191,3212,3232,3253,3272,3291,3313,3332,3353,3373,3392,3413,3433,3451,3472,3492,3512,3532,3551,3572],"xSR":741.5,"ySR":501.8,"xT1":424.9,"yT1":0,"xT2":1058.1,"yT2":0,"toosoon":0,"cond_shown":"Incongruent","ratio_trial":100,"L_num":6,"L_den":10,"R_num":7,"R_den":14,"correct_side":1,"subjID":"saravalentinamolinaocampo24","gender":"1","school":"6","age":"11"},{"start_time":1551790035106,"click_time":1551790038254,"finger_time":1551790036815,"fix_duration":250,"trial":17,"RT":1709,"MT":1439,"sideResp":1,"stimulus":[],"xmouse":[796,796,796,796,796,796,796,796,796,796,796,796,796,796,796,796,796,796,796,796,796,796,796,796,796,796,796,796,796,796,796,796,796,796,796,796,796,796,796,796,796,796,796,796,796,796,796,796,796,796,796,796,796,796,796,796,796,796,796,796,796,796,796,796,796,796,796,796,796,796,796,796,796,796,796,796,796,796,796,796,795,794,793,789,787,783,780,775,767,752,745,738,730,715,707,696,684,677,667,655,652,650,649,648,648,647,646,646,646,646,646,646,646,646,646,646,646,646,646,646,646,646,646,646,646,646,646,646,646,646,646,646,646,646,646,646,646,646,646,642,631,622,616,614,614,614,614,614,614,608,600,591,578,569,550,539,529,518],"ymouse":[523,523,523,523,523,523,523,523,523,523,523,523,523,523,523,523,523,523,523,523,523,523,523,523,523,523,523,523,523,523,523,523,523,523,523,523,523,523,523,523,523,523,523,523,523,523,523,523,523,523,523,523,523,523,523,523,523,523,523,523,523,523,523,523,523,523,523,523,523,523,523,523,523,523,523,523,523,523,523,523,522,519,517,510,505,497,488,477,452,405,381,355,328,266,238,205,182,158,136,117,113,111,110,109,109,108,108,108,108,108,108,108,108,108,108,108,108,108,108,108,108,108,108,108,108,108,108,108,108,108,108,108,108,108,108,108,108,108,108,106,99,93,89,88,88,88,88,88,88,87,87,87,87,87,87,85,85,85],"timestamp_mouse":[9,27,48,67,89,109,127,148,167,188,207,228,249,268,288,309,327,347,368,388,408,427,448,468,488,508,528,547,569,587,609,627,649,668,688,708,728,749,767,788,807,828,847,869,887,908,928,948,967,987,1008,1028,1048,1068,1087,1108,1128,1147,1167,1189,1207,1228,1249,1267,1288,1307,1328,1349,1368,1387,1407,1429,1448,1468,1488,1507,1529,1549,1567,1588,1607,1627,1648,1669,1688,1709,1727,1748,1768,1787,1808,1828,1848,1868,1887,1908,1928,1948,1967,1988,2008,2028,2049,2068,2087,2109,2128,2149,2168,2187,2209,2228,2248,2268,2288,2309,2328,2348,2368,2387,2409,2429,2448,2468,2487,2509,2528,2549,2568,2588,2607,2628,2649,2669,2688,2708,2728,2747,2769,2787,2807,2829,2847,2869,2888,2909,2928,2947,2968,2987,3007,3027,3049,3068,3087,3108,3127,3148],"xSR":741.5,"ySR":501.8,"xT1":424.9,"yT1":0,"xT2":1058.1,"yT2":0,"toosoon":0,"cond_shown":"Incongruent","ratio_trial":200,"L_num":6,"L_den":20,"R_num":3,"R_den":6,"correct_side":2,"subjID":"saravalentinamolinaocampo24","gender":"1","school":"6","age":"11"},{"start_time":1551790042115,"click_time":1551790043994,"finger_time":1551790043474,"fix_duration":381.6507928386813,"trial":18,"RT":1359,"MT":520,"sideResp":2,"stimulus":[],"xmouse":[757,757,757,757,757,757,757,757,757,757,757,757,757,757,757,757,757,757,757,757,757,757,757,757,757,757,757,757,757,757,757,757,757,757,757,757,757,757,757,757,757,757,757,757,757,758,758,758,758,758,758,758,758,758,758,758,758,758,758,758,758,759,761,763,766,768,776,801,817,830,847,863,878,908,919,935,941,958,972,975,978,983,999,1011,1020,1029,1035,1042,1043,1044,1047,1054,1063,1082],"ymouse":[561,561,561,561,561,561,561,561,561,561,561,561,561,561,561,561,561,561,561,561,561,561,561,561,561,561,561,561,561,561,561,561,561,561,561,561,561,561,561,561,561,561,561,561,561,560,560,560,560,560,560,560,560,560,560,560,560,560,560,560,560,558,554,549,544,536,518,482,459,439,419,396,373,321,299,268,259,236,214,208,203,195,169,153,140,128,118,109,107,107,106,104,102,97],"timestamp_mouse":[19,43,60,79,99,119,139,159,179,198,219,238,258,279,299,318,340,358,380,398,420,439,458,479,500,520,538,559,580,599,619,640,660,680,699,718,738,759,779,798,819,839,860,880,900,919,939,959,979,998,1018,1040,1059,1078,1100,1118,1139,1159,1178,1199,1219,1238,1259,1279,1299,1318,1340,1359,1378,1399,1419,1439,1458,1479,1499,1519,1539,1560,1579,1598,1620,1638,1660,1678,1698,1718,1740,1759,1778,1798,1818,1839,1860,1879],"xSR":741.5,"ySR":501.8,"xT1":424.9,"yT1":0,"xT2":1058.1,"yT2":0,"toosoon":0,"cond_shown":"Incongruent","ratio_trial":300,"L_num":13,"L_den":26,"R_num":12,"R_den":15,"correct_side":2,"subjID":"saravalentinamolinaocampo24","gender":"1","school":"6","age":"11"},{"start_time":1551790045504,"click_time":1551790047435,"finger_time":1551790046855,"fix_duration":447.2369056659543,"trial":19,"RT":1351,"MT":580,"sideResp":1,"stimulus":[],"xmouse":[766,766,766,767,767,767,767,767,767,767,767,767,767,767,767,767,767,767,767,767,767,767,767,767,767,767,767,767,767,767,767,767,767,767,767,767,767,767,767,767,767,767,767,767,767,767,767,767,767,767,768,768,768,768,768,768,768,768,769,769,769,768,768,766,763,759,754,745,714,703,691,680,668,658,645,643,639,636,627,620,614,607,597,587,582,577,574,565,556,545,540,538,537,536,530,526,520],"ymouse":[554,554,554,554,554,554,554,554,554,554,554,554,554,554,554,554,554,554,554,554,554,554,554,554,554,554,554,554,554,554,554,554,554,554,554,554,554,554,554,554,554,554,554,554,554,554,554,554,554,554,553,553,553,553,553,553,553,552,550,548,547,546,544,535,527,517,502,481,412,387,361,337,318,303,282,276,270,263,244,233,224,217,207,194,189,183,177,161,130,95,85,81,79,77,72,69,66],"timestamp_mouse":[10,38,50,70,90,109,130,151,170,191,210,229,250,270,290,311,330,350,371,389,410,430,449,470,490,509,531,551,570,590,609,631,651,670,689,711,729,751,771,790,811,830,850,870,890,909,931,951,971,990,1010,1029,1051,1070,1090,1110,1130,1151,1170,1190,1211,1229,1250,1270,1290,1309,1329,1351,1370,1390,1409,1429,1450,1470,1489,1510,1530,1551,1570,1589,1610,1631,1650,1670,1689,1710,1730,1750,1769,1791,1810,1831,1850,1869,1889,1909,1931],"xSR":741.5,"ySR":501.8,"xT1":424.9,"yT1":0,"xT2":1058.1,"yT2":0,"toosoon":0,"cond_shown":"Congruent","ratio_trial":300,"L_num":9,"L_den":10,"R_num":3,"R_den":5,"correct_side":1,"subjID":"saravalentinamolinaocampo24","gender":"1","school":"6","age":"11"},{"start_time":1551790048917,"click_time":1551790051014,"finger_time":1551790050494,"fix_duration":401.3084087380886,"trial":20,"RT":1577,"MT":520,"sideResp":1,"stimulus":[],"xmouse":[797,797,797,797,797,797,797,797,797,797,797,797,797,797,797,797,797,797,797,797,797,797,797,797,797,797,797,797,797,797,797,797,797,797,797,797,797,797,797,797,797,797,797,797,797,797,797,797,797,797,797,797,797,797,797,797,797,797,797,797,797,797,797,797,797,797,797,797,797,797,797,797,797,797,797,797,797,797,779,763,746,730,712,688,678,664,659,645,624,612,599,587,560,546,536,529,525,522,521,521,521,519,517,512,510],"ymouse":[521,521,521,521,521,521,521,521,521,521,521,521,521,521,521,521,521,521,521,521,521,521,521,521,521,521,521,521,521,521,521,521,521,521,521,521,521,521,521,521,521,521,521,521,521,521,521,521,521,521,521,521,521,521,521,521,521,521,521,521,521,521,521,521,521,521,521,521,521,521,521,521,521,521,521,521,521,520,484,456,428,399,369,328,312,293,288,275,258,249,240,231,212,200,191,184,177,168,162,157,148,136,123,103,97],"timestamp_mouse":[19,44,58,77,98,117,137,156,178,196,218,237,257,278,297,317,336,357,376,398,416,436,458,476,498,518,537,557,576,598,616,638,656,676,698,717,737,757,776,797,816,838,856,878,898,916,937,958,977,998,1018,1037,1057,1078,1097,1118,1137,1157,1178,1197,1216,1237,1258,1276,1298,1316,1336,1357,1378,1397,1416,1437,1458,1476,1497,1518,1537,1557,1576,1597,1617,1636,1656,1676,1696,1717,1736,1756,1776,1796,1817,1836,1857,1876,1896,1917,1937,1956,1978,1998,2016,2036,2058,2077,2097],"xSR":741.5,"ySR":501.8,"xT1":424.9,"yT1":0,"xT2":1058.1,"yT2":0,"toosoon":0,"cond_shown":"Incongruent","ratio_trial":300,"L_num":3,"L_den":6,"R_num":4,"R_den":20,"correct_side":1,"subjID":"saravalentinamolinaocampo24","gender":"1","school":"6","age":"11"},{"start_time":1551790052467,"click_time":1551790054575,"finger_time":1551790053494,"fix_duration":512.4251912565277,"trial":21,"RT":1027,"MT":1081,"sideResp":1,"stimulus":[],"xmouse":[790,790,790,790,790,790,790,790,790,790,790,790,790,790,790,790,790,790,790,790,790,790,790,790,790,790,790,790,790,790,790,790,790,790,790,790,790,789,789,788,786,786,785,783,782,777,776,773,769,768,764,762,761,759,759,758,757,756,756,756,755,754,754,753,752,752,752,752,752,752,752,750,749,747,743,728,714,696,666,639,548,528,528,528,528,528,528,528,528,528,528,528,528,528,528,528,528,528,528,528,356,382,394,407,419,432],"ymouse":[581,581,581,581,581,581,581,581,581,581,581,581,581,581,580,580,580,580,580,580,580,580,580,580,580,580,580,580,580,580,580,580,580,580,580,580,578,578,577,576,572,571,570,567,564,552,544,536,523,518,505,488,481,474,469,464,457,454,453,450,447,438,434,427,423,413,394,379,368,352,342,322,311,297,283,243,219,192,155,121,25,8,8,8,8,8,8,8,8,8,8,8,8,8,8,8,8,8,8,8,12,31,36,43,48,53],"timestamp_mouse":[8,26,46,68,87,108,126,146,168,187,207,227,248,267,286,308,327,347,366,388,407,428,448,466,487,508,526,548,567,587,607,626,648,666,686,707,726,747,767,788,807,826,846,867,887,907,926,946,967,988,1006,1027,1046,1066,1087,1108,1127,1148,1167,1186,1207,1227,1247,1267,1286,1306,1326,1347,1366,1386,1407,1427,1447,1468,1486,1508,1526,1546,1566,1588,1607,1628,1647,1666,1686,1708,1727,1748,1767,1788,1807,1827,1847,1867,1887,1906,1928,1947,1967,1987,2007,2026,2047,2066,2086,2107],"xSR":741.5,"ySR":501.8,"xT1":424.9,"yT1":0,"xT2":1058.1,"yT2":0,"toosoon":0,"cond_shown":"Incongruent","ratio_trial":100,"L_num":9,"L_den":15,"R_num":13,"R_den":26,"correct_side":1,"subjID":"saravalentinamolinaocampo24","gender":"1","school":"6","age":"11"},{"start_time":1551790056779,"click_time":1551790059834,"finger_time":1551790059135,"fix_duration":1084.4392176510407,"trial":22,"RT":2356,"MT":699,"sideResp":1,"stimulus":[],"xmouse":[760,760,760,760,760,760,760,760,760,760,760,760,760,760,760,760,760,760,760,760,760,760,760,760,760,760,760,760,760,760,760,760,760,760,760,760,760,760,760,760,760,760,760,760,760,760,760,760,760,760,760,760,760,760,760,760,760,760,760,760,760,760,760,760,760,760,760,760,760,760,760,760,760,760,760,760,760,760,760,760,760,760,760,760,760,760,760,760,760,760,760,760,760,760,760,760,760,760,760,760,760,760,760,760,760,760,760,760,760,760,760,760,760,760,760,760,754,744,730,696,680,669,658,649,642,639,639,637,637,635,629,625,619,611,595,571,560,553,548,541,536,534,533,530,522,520,518,515,514,510,508,505,504],"ymouse":[522,522,522,522,522,522,522,522,522,522,522,522,522,522,522,522,522,522,522,522,522,522,522,522,522,522,522,522,522,522,522,522,522,522,522,522,522,522,522,522,522,522,522,522,522,522,522,522,522,522,522,522,522,522,522,522,522,522,522,522,522,522,522,522,522,522,522,522,522,522,522,522,522,522,522,522,522,522,522,522,522,522,522,522,522,522,522,522,522,522,522,522,522,522,522,522,522,522,522,522,522,522,522,522,522,522,522,522,522,522,522,522,522,522,522,518,510,496,481,449,431,414,397,375,355,348,345,341,335,329,308,292,273,255,225,188,176,170,166,159,155,152,151,146,133,130,126,123,121,112,107,102,97],"timestamp_mouse":[15,34,54,74,95,115,136,156,175,196,215,234,256,275,296,315,334,356,376,395,415,435,456,475,495,515,536,556,574,596,616,636,656,675,695,716,736,754,774,795,815,835,856,876,895,914,935,954,975,995,1015,1035,1055,1075,1095,1115,1135,1154,1176,1196,1214,1235,1256,1276,1294,1314,1334,1356,1376,1396,1416,1435,1455,1475,1496,1516,1534,1556,1576,1595,1615,1636,1654,1675,1696,1715,1734,1755,1775,1795,1816,1836,1855,1875,1896,1915,1935,1955,1976,1996,2015,2035,2055,2076,2095,2115,2136,2155,2175,2195,2215,2235,2255,2275,2295,2315,2335,2356,2374,2396,2414,2435,2454,2475,2496,2514,2535,2554,2575,2594,2614,2635,2655,2675,2695,2716,2735,2756,2775,2795,2815,2834,2855,2875,2896,2914,2935,2955,2974,2996,3014,3035,3055],"xSR":741.5,"ySR":501.8,"xT1":424.9,"yT1":0,"xT2":1058.1,"yT2":0,"toosoon":0,"cond_shown":"Incongruent","ratio_trial":300,"L_num":3,"L_den":6,"R_num":4,"R_den":20,"correct_side":1,"subjID":"saravalentinamolinaocampo24","gender":"1","school":"6","age":"11"},{"start_time":1551790096771,"click_time":1551790100313,"finger_time":1551790098913,"fix_duration":1396.7708945444983,"trial":23,"RT":2142,"MT":1400,"sideResp":2,"stimulus":[],"xmouse":[834,834,834,833,832,825,824,822,822,821,821,821,821,821,821,821,821,821,821,821,821,821,820,820,820,820,820,820,820,820,820,820,820,820,820,820,819,819,818,818,818,818,818,818,818,818,818,818,818,818,818,818,818,818,818,818,818,818,818,818,818,818,818,818,818,818,818,818,818,818,818,818,818,818,818,818,818,818,818,818,818,818,818,818,818,818,818,818,818,817,816,816,816,816,816,816,815,815,814,814,813,812,812,811,811,810,809,809,809,809,809,806,802,791,781,757,757,757,757,757,757,757,757,757,757,757,757,757,757,757,757,757,757,757,757,757,757,562,564,565,567,573,577,582,586,603,612,622,632,647,674,688,708,730,759,780,814,824,838,849,875,890,910,934,966,999,1011,1019,1023,1023,1024,1024,1026,1032,1041,1046,1056,1060],"ymouse":[574,574,574,574,574,573,572,572,571,571,571,571,571,571,571,571,571,571,571,571,571,571,570,570,570,570,570,570,570,570,570,570,570,570,570,570,569,569,569,569,569,569,568,568,568,568,568,568,568,568,568,568,568,568,568,568,568,568,568,568,568,568,568,568,568,568,568,568,568,568,568,568,568,568,568,568,568,568,568,568,568,568,568,568,568,568,568,568,568,566,563,560,557,554,552,545,543,539,536,532,524,521,518,514,511,506,502,497,490,477,428,393,339,271,195,21,21,21,21,21,21,21,21,21,21,21,21,21,21,21,21,21,21,21,21,21,21,4,12,15,19,25,28,29,31,35,38,39,41,44,55,60,69,78,92,99,110,113,116,116,116,114,114,113,113,113,113,113,111,111,111,111,110,108,104,101,92,89],"timestamp_mouse":[8,22,48,62,82,102,121,142,162,181,201,223,243,263,282,302,321,342,363,381,402,421,442,462,481,503,522,543,563,581,602,622,642,662,683,701,721,742,762,781,801,822,842,863,882,901,923,941,962,983,1002,1021,1042,1063,1081,1102,1122,1141,1163,1182,1202,1222,1242,1263,1282,1301,1322,1343,1363,1381,1402,1423,1442,1462,1482,1503,1522,1542,1562,1583,1602,1623,1641,1662,1682,1703,1722,1742,1762,1782,1802,1821,1843,1862,1881,1902,1922,1941,1962,1981,2002,2022,2041,2062,2083,2101,2122,2142,2162,2182,2203,2221,2242,2262,2282,2302,2322,2341,2362,2382,2402,2423,2442,2462,2482,2502,2521,2542,2561,2581,2602,2623,2642,2661,2682,2702,2721,2742,2762,2781,2802,2821,2841,2862,2883,2902,2922,2954,2961,2982,3003,3022,3042,3062,3081,3102,3122,3141,3163,3182,3202,3222,3241,3262,3281,3303,3321,3341,3362,3382,3402,3421,3442,3461,3481,3501,3522,3542],"xSR":741.5,"ySR":501.8,"xT1":424.9,"yT1":0,"xT2":1058.1,"yT2":0,"toosoon":0,"cond_shown":"Congruent","ratio_trial":200,"L_num":6,"L_den":20,"R_num":11,"R_den":22,"correct_side":2,"subjID":"saravalentinamolinaocampo24","gender":"1","school":"6","age":"11"},{"start_time":1551790102142,"click_time":1551790104014,"finger_time":1551790103633,"fix_duration":407.4592126781298,"trial":24,"RT":1491,"MT":381,"sideResp":1,"stimulus":[],"xmouse":[795,795,795,795,795,795,795,795,795,795,795,795,795,795,795,795,795,795,795,795,795,795,795,795,795,795,795,795,795,795,795,795,795,795,795,795,795,795,795,795,795,795,795,795,795,795,795,795,795,795,795,795,795,795,795,795,795,795,795,795,795,795,795,795,795,795,795,795,795,795,795,795,794,794,790,788,762,745,724,696,673,639,629,626,622,618,615,606,599,591,582,568,538,524],"ymouse":[515,515,515,515,515,515,515,515,515,515,515,515,515,515,515,515,515,515,515,515,515,515,515,515,515,515,515,515,515,515,515,515,515,515,515,515,515,515,515,515,515,515,515,515,515,515,515,515,515,515,515,515,515,515,515,515,515,515,515,515,515,515,515,515,515,515,515,515,515,515,515,515,511,510,497,490,431,390,346,296,252,187,167,159,149,143,134,120,109,97,86,76,65,61],"timestamp_mouse":[12,31,51,70,90,111,130,151,170,191,212,230,252,272,292,310,332,350,372,391,411,432,451,470,491,511,531,551,572,592,611,630,652,670,691,710,731,751,772,791,812,832,851,870,892,912,930,951,971,991,1010,1031,1052,1072,1091,1112,1131,1152,1171,1192,1211,1231,1252,1271,1292,1312,1332,1350,1370,1391,1410,1432,1450,1471,1491,1511,1531,1551,1571,1591,1610,1632,1650,1671,1691,1711,1730,1752,1772,1791,1811,1831,1851,1871],"xSR":741.5,"ySR":501.8,"xT1":424.9,"yT1":0,"xT2":1058.1,"yT2":0,"toosoon":0,"cond_shown":"Congruent","ratio_trial":200,"L_num":16,"L_den":20,"R_num":12,"R_den":20,"correct_side":1,"subjID":"saravalentinamolinaocampo24","gender":"1","school":"6","age":"11"},{"start_time":1551790106334,"click_time":1551790108493,"finger_time":1551790107793,"fix_duration":1140.5772705998743,"trial":25,"RT":1459,"MT":700,"sideResp":2,"stimulus":[],"xmouse":[805,805,805,805,805,805,805,805,805,805,805,805,805,805,805,805,805,805,805,805,805,805,805,805,805,805,805,805,805,805,805,805,805,805,805,805,805,805,805,805,805,805,805,805,805,805,805,805,805,805,805,805,805,805,805,805,805,805,805,805,805,805,805,805,805,805,805,805,805,805,810,831,847,861,878,894,914,937,952,976,999,1017,1017,1018,1019,1020,1026,1027,1028,1031,1033,1035,1041,1045,1052,1062,1066,1074,1077,1078,1078,1078,1080,1082,1084,1088,1091,1095],"ymouse":[549,549,549,549,549,549,549,549,549,549,549,549,549,549,549,549,549,549,549,549,549,549,549,549,549,549,549,549,549,549,549,549,549,549,549,549,549,549,549,549,549,549,549,549,549,549,549,549,549,549,549,549,549,549,549,549,549,549,549,549,549,549,549,549,549,549,549,549,549,549,542,523,508,492,477,462,438,390,359,307,263,226,219,213,207,203,192,189,185,181,175,171,163,157,150,140,135,124,120,120,120,120,119,117,115,110,106,95],"timestamp_mouse":[18,38,59,80,98,120,140,158,178,198,220,240,259,279,300,320,339,359,380,399,420,439,460,479,499,520,540,558,578,600,618,639,659,679,699,720,740,758,779,798,820,839,858,880,900,918,939,960,980,998,1019,1040,1060,1079,1100,1118,1139,1159,1178,1200,1220,1240,1260,1279,1300,1320,1338,1360,1379,1398,1419,1440,1459,1478,1499,1519,1540,1559,1578,1598,1618,1640,1659,1678,1698,1719,1739,1760,1779,1798,1818,1840,1859,1879,1898,1918,1940,1958,1978,1998,2019,2040,2059,2079,2098,2119,2138,2159],"xSR":741.5,"ySR":501.8,"xT1":424.9,"yT1":0,"xT2":1058.1,"yT2":0,"toosoon":0,"cond_shown":"Congruent","ratio_trial":300,"L_num":3,"L_den":6,"R_num":4,"R_den":5,"correct_side":2,"subjID":"saravalentinamolinaocampo24","gender":"1","school":"6","age":"11"},{"start_time":1551790109940,"click_time":1551790111453,"finger_time":1551790111333,"fix_duration":405.7917164564928,"trial":26,"RT":1393,"MT":120,"sideResp":2,"stimulus":[],"xmouse":[765,765,765,765,765,765,765,765,765,765,765,765,765,765,765,765,765,765,765,765,765,765,765,765,765,765,765,765,765,765,765,765,765,765,765,765,765,765,765,765,765,765,765,765,765,765,765,765,765,765,765,765,765,765,765,765,765,765,765,765,765,765,765,765,766,766,769,779,792,816,862,974,1027,1075,1118,1154],"ymouse":[571,571,571,571,571,571,571,571,571,571,571,571,571,571,571,571,571,571,571,571,571,571,571,571,571,571,571,571,571,571,571,571,571,571,571,571,571,571,571,571,571,571,571,571,571,571,571,571,571,571,571,571,571,571,571,571,571,571,571,571,571,571,571,571,569,566,561,536,514,467,399,263,201,161,125,90],"timestamp_mouse":[12,45,54,73,93,113,132,152,172,193,213,234,254,273,292,314,333,354,372,392,414,433,453,472,493,513,532,553,573,592,613,633,653,672,693,714,732,754,774,794,813,833,852,872,894,912,934,954,974,992,1013,1033,1052,1074,1093,1112,1134,1152,1173,1193,1214,1232,1254,1273,1293,1313,1333,1354,1373,1393,1413,1434,1453,1472,1493,1513],"xSR":741.5,"ySR":501.8,"xT1":424.9,"yT1":0,"xT2":1058.1,"yT2":0,"toosoon":0,"cond_shown":"Congruent","ratio_trial":200,"L_num":6,"L_den":12,"R_num":7,"R_den":10,"correct_side":2,"subjID":"saravalentinamolinaocampo24","gender":"1","school":"6","age":"11"},{"start_time":1551790114102,"click_time":1551790115974,"finger_time":1551790115673,"fix_duration":1108.826499547221,"trial":27,"RT":1571,"MT":301,"sideResp":1,"stimulus":[],"xmouse":[797,797,797,797,797,797,797,797,797,797,797,797,797,797,797,797,797,797,797,797,797,797,797,797,797,797,797,797,797,797,797,797,797,797,797,797,797,797,797,797,797,797,797,797,797,797,797,797,797,797,797,797,797,797,797,797,797,797,797,797,797,797,797,797,797,797,797,797,797,797,797,797,797,797,796,794,791,788,784,768,755,729,697,666,625,609,598,586,570,551,538,522,508,483],"ymouse":[526,526,526,526,526,526,526,526,526,526,526,526,526,526,526,526,526,526,526,526,526,526,526,526,526,526,526,526,526,526,526,526,526,526,526,526,526,526,526,526,526,526,526,526,526,526,526,526,526,526,526,526,526,526,526,526,526,526,526,526,526,526,526,526,526,526,526,526,526,526,526,526,526,526,526,525,519,513,497,444,405,353,306,257,192,171,159,150,141,131,125,118,111,95],"timestamp_mouse":[11,31,51,71,92,110,132,150,170,192,210,230,252,271,290,312,331,350,371,390,410,431,450,471,492,511,531,551,571,591,611,630,651,672,691,710,731,751,771,790,812,830,850,871,890,911,930,951,971,990,1010,1031,1051,1071,1090,1111,1132,1151,1172,1191,1211,1231,1252,1270,1291,1312,1332,1350,1372,1391,1412,1432,1451,1472,1491,1510,1531,1551,1571,1591,1610,1630,1651,1671,1691,1711,1731,1751,1770,1791,1811,1831,1851,1872],"xSR":741.5,"ySR":501.8,"xT1":424.9,"yT1":0,"xT2":1058.1,"yT2":0,"toosoon":0,"cond_shown":"Congruent","ratio_trial":100,"L_num":11,"L_den":22,"R_num":6,"R_den":15,"correct_side":1,"subjID":"saravalentinamolinaocampo24","gender":"1","school":"6","age":"11"},{"start_time":1551790119369,"click_time":1551790123533,"finger_time":1551790123073,"fix_duration":753.5959219723344,"trial":28,"RT":3704,"MT":460,"sideResp":2,"stimulus":[],"xmouse":[761,761,761,761,761,761,761,761,761,761,761,761,761,761,761,761,761,761,761,761,761,761,761,761,761,761,761,761,761,761,761,761,761,761,761,761,761,761,761,761,761,761,761,761,761,761,761,761,761,761,761,761,761,761,761,761,761,761,761,761,761,761,761,761,761,761,761,761,761,761,761,761,761,761,761,761,761,761,761,761,761,761,761,761,761,761,761,761,761,761,761,761,761,761,761,761,761,761,761,761,761,761,761,761,761,761,761,761,761,761,761,761,761,761,761,761,761,761,761,761,761,761,761,761,761,761,761,761,761,761,761,761,761,761,761,761,761,761,761,761,761,761,761,761,761,761,761,761,761,761,761,761,761,761,761,761,761,761,761,761,761,761,761,761,761,761,761,761,761,761,761,761,761,761,761,761,761,761,761,761,761,761,761,768,783,817,877,908,933,954,971,992,998,1001,1003,1005,1012,1017,1023,1028,1033,1044,1047,1051,1054,1056,1056,1057,1059],"ymouse":[543,543,543,543,543,543,543,543,543,543,543,543,543,543,543,543,543,543,543,543,543,543,543,543,543,543,543,543,543,543,543,543,543,543,543,543,543,543,543,543,543,543,543,543,543,543,543,543,543,543,543,543,543,543,543,543,543,543,543,543,543,543,543,543,543,543,543,543,543,543,543,543,543,543,543,543,543,543,543,543,543,543,543,543,543,543,543,543,543,543,543,543,543,543,543,543,543,543,543,543,543,543,543,543,543,543,543,543,543,543,543,543,543,543,543,543,543,543,543,543,543,543,543,543,543,543,543,543,543,543,543,543,543,543,543,543,543,543,543,543,543,543,543,543,543,543,543,543,543,543,543,543,543,543,543,543,543,543,543,543,543,543,543,543,543,543,543,543,543,543,543,543,543,543,543,543,543,543,543,543,543,543,541,534,517,482,416,381,347,319,296,268,259,255,249,245,234,226,218,208,198,174,155,135,111,90,80,71,62],"timestamp_mouse":[8,39,45,65,85,104,123,144,164,185,204,223,243,265,284,303,323,343,365,385,403,424,445,465,483,503,523,545,565,583,604,623,645,665,684,704,724,743,764,783,805,824,845,864,885,905,925,943,964,985,1004,1023,1045,1065,1085,1104,1123,1144,1165,1184,1205,1223,1244,1264,1283,1305,1324,1344,1365,1383,1404,1425,1445,1464,1484,1505,1523,1544,1563,1585,1604,1623,1644,1664,1683,1705,1724,1744,1764,1783,1804,1824,1845,1865,1885,1905,1923,1945,1963,1983,2005,2023,2044,2064,2085,2104,2124,2145,2165,2184,2204,2223,2244,2265,2284,2304,2325,2345,2364,2384,2404,2425,2445,2464,2483,2505,2525,2544,2563,2584,2605,2625,2644,2665,2684,2705,2724,2745,2765,2784,2805,2824,2843,2865,2885,2903,2925,2944,2965,2984,3005,3024,3044,3064,3085,3104,3123,3143,3165,3185,3203,3224,3245,3265,3284,3305,3325,3343,3363,3384,3405,3424,3443,3464,3484,3504,3524,3543,3565,3585,3604,3625,3645,3665,3683,3704,3725,3743,3763,3784,3803,3824,3844,3863,3884,3904,3925,3945,3963,3983,4003,4024,4043,4063,4085,4104,4124,4144,4164],"xSR":741.5,"ySR":501.8,"xT1":424.9,"yT1":0,"xT2":1058.1,"yT2":0,"toosoon":0,"cond_shown":"Incongruent","ratio_trial":200,"L_num":4,"L_den":30,"R_num":1,"R_den":3,"correct_side":2,"subjID":"saravalentinamolinaocampo24","gender":"1","school":"6","age":"11"},{"start_time":1551790125006,"click_time":1551790127613,"finger_time":1551790127072,"fix_duration":250,"trial":29,"RT":2066,"MT":541,"sideResp":2,"stimulus":[],"xmouse":[780,780,780,780,780,780,780,780,780,780,780,780,780,780,780,780,780,780,780,780,780,780,780,780,780,780,780,780,780,780,780,780,780,780,780,780,780,780,780,779,779,779,779,779,779,779,779,779,779,779,779,779,779,779,779,779,779,779,779,779,779,779,779,779,779,779,779,779,779,779,779,779,779,779,779,779,779,779,779,779,779,779,779,779,779,779,779,779,779,779,779,779,779,779,779,779,779,779,779,784,788,798,810,831,866,888,912,932,947,972,976,980,985,999,1005,1013,1018,1023,1028,1030,1034,1037,1041,1043,1046,1046,1047,1047,1047,1053,1061],"ymouse":[552,552,552,552,552,552,552,552,552,552,552,552,552,552,552,552,552,552,552,552,552,552,552,552,552,552,552,552,552,552,552,552,552,552,552,552,552,552,552,553,553,553,553,553,553,553,553,553,553,553,553,553,553,553,553,553,553,553,553,553,553,553,553,553,553,553,553,553,553,553,553,553,553,553,553,553,553,553,553,553,553,553,553,553,553,553,553,553,553,553,553,553,553,553,553,553,553,553,553,547,541,527,512,483,431,398,363,330,304,252,232,216,199,161,146,130,116,102,80,73,65,60,54,52,49,49,49,49,49,51,53],"timestamp_mouse":[10,31,47,67,88,107,126,148,167,186,206,227,247,266,287,307,327,346,366,388,407,426,447,466,487,506,527,546,567,587,607,627,646,667,688,706,727,748,767,788,807,828,848,868,887,908,927,947,967,987,1008,1027,1047,1067,1088,1107,1126,1146,1167,1187,1207,1226,1248,1267,1287,1307,1328,1347,1367,1387,1408,1427,1446,1467,1486,1506,1527,1547,1567,1586,1607,1627,1648,1667,1688,1706,1727,1747,1766,1786,1806,1827,1848,1866,1886,1907,1926,1948,1966,1986,2006,2027,2047,2066,2086,2106,2126,2147,2166,2186,2206,2227,2248,2267,2286,2307,2328,2346,2368,2387,2406,2426,2447,2468,2488,2506,2528,2548,2567,2587,2607],"xSR":741.5,"ySR":501.8,"xT1":424.9,"yT1":0,"xT2":1058.1,"yT2":0,"toosoon":0,"cond_shown":"Congruent","ratio_trial":300,"L_num":1,"L_den":5,"R_num":6,"R_den":12,"correct_side":2,"subjID":"saravalentinamolinaocampo24","gender":"1","school":"6","age":"11"},{"start_time":1551790130388,"click_time":1551790132733,"finger_time":1551790132454,"fix_duration":1452.1242643673984,"trial":30,"RT":2066,"MT":279,"sideResp":2,"stimulus":[],"xmouse":[778,778,778,778,778,778,778,778,778,778,778,778,778,778,778,778,778,778,778,778,778,778,778,778,778,778,778,778,778,778,778,778,778,778,778,778,778,778,778,778,778,778,778,778,778,778,778,778,778,778,778,778,778,778,778,778,778,778,778,778,778,778,778,778,778,778,778,778,778,778,778,778,778,778,778,778,778,778,778,778,778,778,778,778,778,778,778,778,778,778,778,778,778,778,778,778,778,778,778,778,782,786,799,826,894,937,976,1010,1038,1076,1089,1100,1113,1119,1128,1131,1131,1132],"ymouse":[563,563,563,563,563,563,563,563,563,563,563,563,563,563,563,563,563,563,563,563,563,563,563,563,563,563,563,563,563,563,563,563,563,563,563,563,563,563,563,563,563,563,563,563,563,563,563,563,563,563,563,563,563,563,563,563,563,563,563,563,563,563,563,563,563,563,563,563,563,563,563,563,563,563,563,563,563,563,563,563,563,563,563,563,563,563,563,563,563,563,563,563,563,563,563,563,563,563,563,563,556,550,529,486,396,350,312,281,252,211,194,179,158,145,123,113,104,95],"timestamp_mouse":[10,33,45,64,86,106,125,146,164,185,206,225,246,264,286,305,324,346,366,385,405,426,445,464,485,506,524,546,564,584,605,624,646,666,686,704,725,745,765,784,806,825,844,865,886,905,925,946,964,985,1005,1026,1045,1065,1084,1106,1125,1145,1166,1186,1205,1226,1245,1265,1284,1305,1324,1344,1366,1384,1406,1424,1444,1465,1485,1506,1525,1544,1566,1586,1604,1624,1646,1666,1686,1706,1726,1746,1766,1785,1805,1825,1846,1865,1886,1904,1926,1945,1966,1986,2004,2024,2044,2066,2085,2104,2124,2145,2165,2185,2204,2225,2245,2265,2286,2304,2324,2345],"xSR":741.5,"ySR":501.8,"xT1":424.9,"yT1":0,"xT2":1058.1,"yT2":0,"toosoon":0,"cond_shown":"Congruent","ratio_trial":100,"L_num":11,"L_den":22,"R_num":6,"R_den":15,"correct_side":1,"subjID":"saravalentinamolinaocampo24","gender":"1","school":"6","age":"11"},{"start_time":1551790137112,"click_time":1551790138493,"finger_time":1551790138273,"fix_duration":638.1913833023806,"trial":31,"RT":1161,"MT":220,"sideResp":1,"stimulus":[],"xmouse":[790,790,790,790,790,790,790,790,790,790,790,790,790,790,790,790,790,790,790,790,790,790,790,790,790,790,790,790,790,790,790,790,790,790,790,790,790,790,790,790,790,790,790,790,790,790,790,789,785,784,784,784,783,779,776,770,764,752,727,714,700,684,668,650,607,581,558,526,510,483],"ymouse":[568,568,568,568,568,568,568,568,568,568,568,568,568,568,568,568,568,568,568,568,568,568,568,568,568,568,568,568,568,568,568,568,568,568,568,568,568,568,568,568,568,568,568,568,568,565,563,560,554,554,554,552,551,545,542,537,531,517,487,469,450,428,402,372,300,258,220,162,133,88],"timestamp_mouse":[9,34,40,61,81,102,120,142,161,180,202,220,241,262,281,302,322,342,361,382,402,422,441,461,481,501,522,542,560,582,600,621,641,662,680,702,720,740,762,780,800,821,842,861,881,901,921,942,961,981,1000,1022,1041,1061,1081,1102,1120,1141,1161,1181,1200,1220,1241,1260,1281,1301,1320,1341,1360,1381],"xSR":741.5,"ySR":501.8,"xT1":424.9,"yT1":0,"xT2":1058.1,"yT2":0,"toosoon":0,"cond_shown":"Incongruent","ratio_trial":300,"L_num":4,"L_den":5,"R_num":6,"R_den":12,"correct_side":1,"subjID":"saravalentinamolinaocampo24","gender":"1","school":"6","age":"11"},{"start_time":1551790140360,"click_time":1551790142072,"finger_time":1551790141433,"fix_duration":726.8610176928826,"trial":32,"RT":1073,"MT":639,"sideResp":2,"stimulus":[],"xmouse":[799,799,799,799,799,799,799,799,799,799,799,799,799,799,799,799,799,799,799,799,799,800,800,800,800,800,800,800,800,800,800,800,800,800,800,800,800,800,800,800,800,800,800,800,800,800,801,802,802,803,809,811,813,814,816,816,816,816,816,816,816,816,816,817,817,821,833,841,854,864,893,907,921,938,965,991,1037,1054,1066,1076,1083,1100,1109,1121,1126,1132],"ymouse":[543,543,543,543,543,543,543,543,543,543,543,543,543,543,543,543,543,543,543,543,543,544,544,544,544,544,544,544,544,544,544,544,544,544,544,544,544,544,544,544,544,544,544,544,543,542,538,534,531,526,515,508,504,500,497,494,494,494,494,494,494,494,494,493,493,488,472,460,445,429,392,375,356,338,305,279,234,218,202,189,179,149,136,113,105,90],"timestamp_mouse":[14,44,52,73,93,114,134,152,173,193,213,232,252,274,293,312,333,353,374,392,414,433,452,473,492,514,532,553,573,593,613,632,652,674,692,712,734,752,772,793,813,832,854,872,893,912,933,953,973,993,1015,1032,1053,1073,1092,1113,1133,1154,1173,1193,1214,1232,1253,1273,1294,1312,1333,1353,1374,1392,1414,1432,1453,1472,1493,1512,1533,1553,1573,1594,1613,1632,1653,1673,1694,1712],"xSR":741.5,"ySR":501.8,"xT1":424.9,"yT1":0,"xT2":1058.1,"yT2":0,"toosoon":0,"cond_shown":"Incongruent","ratio_trial":200,"L_num":9,"L_den":15,"R_num":8,"R_den":10,"correct_side":2,"subjID":"saravalentinamolinaocampo24","gender":"1","school":"6","age":"11"},{"start_time":1551790144080,"click_time":1551790145792,"finger_time":1551790145374,"fix_duration":1025.356067877034,"trial":33,"RT":1294,"MT":418,"sideResp":2,"stimulus":[],"xmouse":[775,775,775,775,775,775,775,775,775,775,775,775,775,775,775,775,775,775,775,775,775,775,775,775,775,775,775,775,775,775,775,775,775,775,775,775,775,775,775,775,775,775,775,775,775,775,775,775,775,775,775,775,775,775,775,775,775,775,775,776,776,776,777,778,782,786,791,800,816,834,895,913,926,932,935,948,961,976,992,1029,1036,1040,1044,1047,1052,1060],"ymouse":[529,529,529,529,529,529,529,529,529,529,529,529,529,529,529,529,529,529,529,529,529,529,529,529,529,529,529,529,529,529,529,529,529,529,529,529,529,529,529,529,529,529,529,529,529,529,529,529,529,529,529,529,529,529,529,529,529,527,526,519,516,513,509,504,481,465,446,422,377,329,228,202,186,179,175,158,139,121,99,55,47,41,37,34,32,29],"timestamp_mouse":[14,32,52,72,92,113,133,153,172,194,214,233,254,272,293,313,332,353,372,394,413,434,453,474,492,514,533,553,574,593,612,633,652,672,694,712,733,752,773,792,813,832,852,873,894,914,932,954,974,992,1012,1033,1053,1074,1092,1114,1133,1153,1173,1194,1213,1232,1254,1272,1294,1313,1333,1352,1372,1392,1413,1432,1453,1472,1494,1513,1532,1553,1574,1594,1612,1632,1652,1672,1692,1712],"xSR":741.5,"ySR":501.8,"xT1":424.9,"yT1":0,"xT2":1058.1,"yT2":0,"toosoon":0,"cond_shown":"Congruent","ratio_trial":200,"L_num":7,"L_den":15,"R_num":18,"R_den":27,"correct_side":2,"subjID":"saravalentinamolinaocampo24","gender":"1","school":"6","age":"11"},{"start_time":1551790148057,"click_time":1551790150934,"finger_time":1551790150393,"fix_duration":1122.1027542700187,"trial":34,"RT":2336,"MT":541,"sideResp":2,"stimulus":[],"xmouse":[769,769,769,769,769,769,769,769,769,769,769,769,769,769,769,769,769,769,769,769,769,769,769,769,769,769,769,769,769,769,769,769,769,769,769,769,769,769,769,769,769,769,769,769,769,769,769,769,769,769,769,769,769,769,769,769,769,769,769,769,769,769,769,769,769,769,769,769,769,769,769,769,769,769,769,769,769,769,769,769,769,769,769,769,769,769,769,769,769,769,769,769,769,769,769,769,769,769,769,769,769,769,769,769,769,769,769,769,769,769,769,769,769,769,769,793,845,910,979,1051,1134,1139,1141,1141,1141,1141,1145,1150,1154,1158,1169,1173,1176,1177,1177,1174,1172,1171,1171,1171,1171,1170,1161,1148],"ymouse":[554,554,554,554,554,554,554,554,554,554,554,554,554,554,554,554,554,554,554,554,554,554,554,554,554,554,554,554,554,554,554,554,554,554,554,554,554,554,554,554,554,554,554,554,554,554,554,554,554,554,554,554,554,554,554,554,554,554,554,554,554,554,554,554,554,554,554,554,554,554,554,554,554,554,554,554,554,554,554,554,554,554,554,554,554,554,554,554,554,554,554,554,554,554,554,554,554,554,554,554,554,554,554,554,554,554,554,554,554,554,554,554,554,554,554,515,446,361,292,233,149,138,135,135,135,135,131,127,123,120,102,88,72,54,34,9,6,4,4,4,4,4,6,14],"timestamp_mouse":[16,37,56,76,95,116,136,156,175,196,216,236,255,276,296,316,336,355,377,396,415,436,456,476,495,516,537,557,577,596,615,635,656,675,697,717,735,757,776,795,817,837,857,876,896,917,935,956,977,995,1017,1035,1057,1075,1095,1116,1136,1156,1176,1195,1216,1236,1256,1276,1296,1316,1337,1357,1375,1397,1417,1437,1457,1476,1497,1516,1536,1556,1576,1595,1616,1635,1656,1676,1696,1715,1736,1757,1776,1795,1817,1836,1857,1877,1896,1915,1935,1955,1976,1997,2016,2036,2056,2076,2096,2115,2136,2156,2176,2197,2216,2236,2256,2276,2295,2316,2336,2356,2376,2396,2416,2436,2455,2475,2497,2515,2536,2556,2576,2596,2617,2636,2656,2675,2696,2717,2736,2756,2775,2796,2817,2835,2855,2876],"xSR":741.5,"ySR":501.8,"xT1":424.9,"yT1":0,"xT2":1058.1,"yT2":0,"toosoon":0,"cond_shown":"Incongruent","ratio_trial":200,"L_num":4,"L_den":30,"R_num":1,"R_den":3,"correct_side":2,"subjID":"saravalentinamolinaocampo24","gender":"1","school":"6","age":"11"},{"start_time":1551790153633,"click_time":1551790155232,"finger_time":1551790154872,"fix_duration":1358.4414059228056,"trial":35,"RT":1239,"MT":360,"sideResp":2,"stimulus":[],"xmouse":[798,798,798,798,798,798,798,798,798,798,798,798,798,798,798,798,798,798,798,798,798,798,798,798,798,798,798,798,798,798,798,798,798,798,798,798,798,798,798,798,798,798,798,798,798,798,798,798,798,798,798,798,798,798,798,798,798,798,798,798,797,796,794,794,797,805,817,846,859,871,890,908,955,972,985,995,1004,1024,1036,1049,1061],"ymouse":[538,538,538,538,538,538,538,538,538,538,538,538,538,538,538,538,538,538,538,538,538,538,538,538,538,538,538,538,538,538,538,538,538,538,538,538,538,538,538,538,538,538,538,538,538,538,538,538,538,538,538,538,538,538,538,538,538,538,531,529,518,508,492,467,452,430,399,315,273,235,194,168,138,131,127,124,118,102,94,86,80],"timestamp_mouse":[8,21,40,60,80,100,119,140,159,179,201,221,241,260,279,300,320,340,359,379,401,419,440,461,480,501,520,539,560,579,601,621,639,659,679,701,721,739,759,781,801,820,839,860,879,900,920,940,959,980,999,1019,1041,1060,1081,1100,1121,1140,1159,1180,1200,1221,1239,1259,1279,1300,1320,1340,1359,1380,1400,1421,1440,1460,1479,1501,1519,1541,1559,1580,1599],"xSR":741.5,"ySR":501.8,"xT1":424.9,"yT1":0,"xT2":1058.1,"yT2":0,"toosoon":0,"cond_shown":"Incongruent","ratio_trial":300,"L_num":13,"L_den":26,"R_num":12,"R_den":15,"correct_side":2,"subjID":"saravalentinamolinaocampo24","gender":"1","school":"6","age":"11"},{"start_time":1551790157261,"click_time":1551790159274,"finger_time":1551790158773,"fix_duration":387.9892414314099,"trial":36,"RT":1512,"MT":501,"sideResp":2,"stimulus":[],"xmouse":[791,791,791,791,791,791,791,791,791,791,791,791,791,791,791,791,791,791,791,791,791,791,791,791,791,792,792,793,793,793,793,793,791,790,789,786,784,784,784,784,784,784,784,784,784,784,784,784,784,784,784,784,784,784,784,784,784,784,784,784,784,784,784,784,784,784,784,784,784,784,784,784,784,784,784,822,855,884,909,930,990,1018,1031,1031,1031,1031,1031,1031,1031,1031,1031,1031,1031,1031,1031,1031,1031,1031,1031,1031,1111],"ymouse":[526,526,526,526,526,526,526,526,526,526,526,526,526,526,526,526,526,526,526,526,526,526,526,526,526,526,526,527,528,529,530,531,532,532,533,534,535,535,535,535,535,535,535,535,535,535,535,535,535,535,535,535,535,535,535,535,535,535,535,535,535,535,535,535,535,535,535,535,535,535,535,535,535,530,516,402,329,269,222,187,75,27,8,8,8,8,8,8,8,8,8,8,8,8,8,8,8,8,8,8,23],"timestamp_mouse":[11,31,60,72,92,111,132,151,173,192,212,233,251,271,292,311,332,352,372,392,412,431,452,472,491,512,532,551,572,592,611,632,652,671,692,711,731,752,772,791,812,831,851,872,893,912,931,953,971,991,1011,1032,1052,1073,1092,1112,1131,1153,1173,1192,1211,1231,1252,1272,1291,1311,1333,1351,1371,1392,1411,1432,1453,1472,1491,1512,1531,1552,1572,1592,1612,1631,1652,1671,1691,1713,1731,1751,1773,1791,1812,1831,1851,1872,1892,1912,1932,1952,1971,1991,2013],"xSR":741.5,"ySR":501.8,"xT1":424.9,"yT1":0,"xT2":1058.1,"yT2":0,"toosoon":0,"cond_shown":"Incongruent","ratio_trial":100,"L_num":10,"L_den":25,"R_num":8,"R_den":16,"correct_side":2,"subjID":"saravalentinamolinaocampo24","gender":"1","school":"6","age":"11"},{"start_time":1551790161949,"click_time":1551790164393,"finger_time":1551790163473,"fix_duration":1234.3941568125892,"trial":37,"RT":1524,"MT":920,"sideResp":2,"stimulus":[],"xmouse":[826,826,826,826,826,826,826,826,826,826,826,826,826,826,826,826,826,826,826,826,826,826,826,826,826,826,826,826,826,826,826,826,826,826,826,826,826,826,826,826,825,821,817,815,815,815,815,815,815,815,815,815,815,815,815,815,815,815,815,815,815,815,815,815,815,815,815,815,815,815,815,815,815,816,817,818,828,845,854,863,871,876,876,877,877,878,879,881,881,881,882,882,883,885,887,889,899,904,911,919,928,937,959,968,975,982,989,990,990,990,990,994,996,997,999,1003,1015,1022,1034,1048,1065,1082,1115],"ymouse":[572,572,572,572,572,572,572,572,572,572,572,572,572,572,572,572,572,572,572,572,572,572,572,572,572,572,572,572,572,572,572,572,572,572,572,572,572,572,572,564,562,554,543,539,537,537,537,537,537,537,537,537,537,537,537,537,536,535,534,533,532,531,531,531,531,531,531,531,530,530,529,528,525,521,515,504,478,437,419,403,392,385,385,385,385,384,384,381,381,380,378,376,371,367,357,347,324,309,292,277,261,247,216,202,189,173,163,161,161,161,161,158,157,157,155,154,149,145,139,131,124,118,99],"timestamp_mouse":[8,23,43,64,85,104,124,143,163,185,205,223,243,263,285,304,323,343,363,383,405,423,443,464,483,503,523,543,564,584,603,623,643,663,684,705,725,743,765,784,803,825,843,863,884,903,923,945,965,983,1005,1024,1043,1064,1085,1104,1123,1144,1164,1183,1203,1224,1244,1263,1284,1305,1324,1345,1363,1384,1404,1423,1443,1463,1483,1504,1524,1544,1563,1584,1604,1625,1643,1663,1683,1704,1725,1744,1764,1783,1803,1823,1843,1864,1884,1905,1924,1943,1963,1983,2003,2023,2043,2063,2085,2105,2124,2143,2163,2184,2203,2225,2244,2263,2285,2304,2323,2343,2363,2385,2403,2424,2444],"xSR":741.5,"ySR":501.8,"xT1":424.9,"yT1":0,"xT2":1058.1,"yT2":0,"toosoon":0,"cond_shown":"Incongruent","ratio_trial":300,"L_num":4,"L_den":20,"R_num":2,"R_den":4,"correct_side":2,"subjID":"saravalentinamolinaocampo24","gender":"1","school":"6","age":"11"},{"start_time":1551790166902,"click_time":1551790168773,"finger_time":1551790168293,"fix_duration":1068.8730154421603,"trial":38,"RT":1391,"MT":480,"sideResp":2,"stimulus":[],"xmouse":[806,806,806,806,806,806,806,806,806,806,806,806,806,806,806,806,806,806,806,806,806,806,806,806,806,806,806,806,806,806,806,806,806,806,806,806,806,806,806,806,806,806,806,806,806,806,806,806,806,806,806,806,806,806,806,806,806,806,806,806,806,806,806,806,806,805,805,810,816,832,839,846,852,857,860,863,868,876,917,935,955,975,996,1038,1055,1070,1083,1099,1107,1118,1121,1122,1124,1127],"ymouse":[560,560,560,560,560,560,560,560,560,560,560,560,560,560,560,560,560,560,560,560,560,560,560,560,560,560,560,560,560,560,560,560,560,560,560,560,560,560,560,560,560,560,560,560,560,560,560,560,560,560,560,560,560,560,560,560,560,560,560,560,560,560,560,560,560,561,551,534,513,452,423,398,380,358,353,349,343,336,312,302,293,283,272,246,233,219,205,179,164,135,122,114,105,95],"timestamp_mouse":[10,43,51,70,92,112,131,151,171,191,211,230,251,270,292,310,331,350,371,391,410,432,450,470,492,510,531,550,571,591,610,630,651,671,691,710,731,751,771,792,810,832,852,870,891,911,932,951,971,991,1011,1030,1052,1071,1090,1111,1131,1150,1171,1191,1211,1232,1251,1270,1290,1312,1330,1350,1371,1391,1411,1430,1450,1471,1490,1511,1531,1551,1572,1590,1610,1631,1650,1671,1691,1711,1730,1750,1770,1790,1810,1832,1852,1871],"xSR":741.5,"ySR":501.8,"xT1":424.9,"yT1":0,"xT2":1058.1,"yT2":0,"toosoon":0,"cond_shown":"Congruent","ratio_trial":100,"L_num":12,"L_den":30,"R_num":13,"R_den":26,"correct_side":2,"subjID":"saravalentinamolinaocampo24","gender":"1","school":"6","age":"11"},{"start_time":1551790170263,"click_time":1551790172173,"finger_time":1551790171593,"fix_duration":288.5597948893475,"trial":39,"RT":1330,"MT":580,"sideResp":2,"stimulus":[],"xmouse":[814,814,814,814,814,814,814,814,814,814,814,814,814,814,814,814,814,814,814,814,814,814,814,814,814,814,814,814,814,814,814,814,814,813,813,813,813,813,813,813,813,813,813,813,813,813,813,813,813,813,813,813,813,813,813,813,813,813,813,813,813,813,813,813,813,816,822,831,854,872,900,912,921,930,938,961,973,981,993,1009,1040,1050,1055,1059,1061,1061,1062,1064,1065,1068,1072,1080,1083,1086,1090,1095],"ymouse":[532,532,532,532,532,532,532,532,532,532,532,532,532,532,532,532,532,532,532,532,532,532,532,532,532,532,532,532,532,532,532,532,532,532,532,532,532,532,532,532,532,532,532,532,532,532,532,532,532,532,532,532,532,532,532,532,532,532,532,532,532,532,532,532,530,517,498,473,420,386,329,309,295,285,277,262,256,248,241,232,213,204,197,190,187,184,181,178,172,165,151,132,124,116,108,96],"timestamp_mouse":[9,29,51,69,91,110,130,149,170,191,209,229,250,269,291,309,330,350,369,389,410,429,449,471,489,510,530,551,570,589,611,630,649,671,689,711,729,749,770,791,811,830,850,870,890,909,930,951,969,991,1010,1029,1050,1069,1089,1110,1130,1151,1170,1190,1210,1229,1249,1270,1289,1310,1330,1349,1369,1390,1410,1430,1449,1469,1490,1510,1529,1549,1569,1591,1610,1629,1649,1669,1690,1711,1729,1750,1769,1790,1809,1830,1850,1871,1889,1910],"xSR":741.5,"ySR":501.8,"xT1":424.9,"yT1":0,"xT2":1058.1,"yT2":0,"toosoon":0,"cond_shown":"Congruent","ratio_trial":300,"L_num":7,"L_den":14,"R_num":20,"R_den":25,"correct_side":2,"subjID":"saravalentinamolinaocampo24","gender":"1","school":"6","age":"11"},{"start_time":1551790174510,"click_time":1551790176092,"finger_time":1551790175593,"fix_duration":935.2231794847239,"trial":40,"RT":1083,"MT":499,"sideResp":1,"stimulus":[],"xmouse":[770,770,770,770,770,770,770,770,770,770,770,770,770,770,770,770,770,770,770,770,770,770,770,770,770,770,770,770,770,770,770,770,770,770,770,770,770,770,770,770,770,770,770,770,770,770,770,770,769,764,762,758,753,744,737,731,717,713,696,673,664,654,644,624,614,606,598,591,579,574,572,569,567,562,559,557,554,547,539,517],"ymouse":[547,547,547,547,547,547,547,547,547,547,547,547,547,547,547,547,547,547,547,547,547,547,547,547,547,547,547,547,547,547,547,547,547,547,547,547,547,547,547,547,547,547,547,547,547,547,547,547,547,543,541,537,532,519,507,492,461,451,415,367,345,323,302,250,224,202,178,159,121,111,104,100,96,92,91,89,88,85,83,81],"timestamp_mouse":[8,38,44,64,82,102,122,143,163,184,202,222,244,262,283,304,322,344,362,383,404,422,442,463,484,502,522,544,563,583,602,624,643,662,683,702,723,744,762,783,803,824,842,863,883,902,922,943,962,983,1003,1022,1042,1063,1083,1102,1122,1143,1162,1182,1203,1222,1244,1264,1282,1302,1323,1343,1363,1383,1402,1423,1442,1464,1482,1503,1522,1542,1562,1582],"xSR":741.5,"ySR":501.8,"xT1":424.9,"yT1":0,"xT2":1058.1,"yT2":0,"toosoon":0,"cond_shown":"Incongruent","ratio_trial":300,"L_num":8,"L_den":10,"R_num":9,"R_den":18,"correct_side":1,"subjID":"saravalentinamolinaocampo24","gender":"1","school":"6","age":"11"},{"start_time":1551790177864,"click_time":1551790179812,"finger_time":1551790179273,"fix_duration":250,"trial":41,"RT":1409,"MT":539,"sideResp":2,"stimulus":[],"xmouse":[807,808,808,808,809,811,812,813,814,814,814,814,814,814,814,814,814,814,814,814,814,814,814,814,814,814,814,814,814,814,814,814,814,814,814,814,814,814,814,814,814,814,814,814,814,814,814,814,814,814,814,814,814,814,814,814,814,814,814,814,814,814,814,814,814,814,814,814,814,814,815,821,829,841,853,870,933,971,998,1015,1038,1042,1045,1047,1048,1053,1055,1058,1062,1065,1069,1073,1076,1077,1079,1081,1084,1085],"ymouse":[545,544,542,542,534,528,516,512,508,506,506,506,506,506,506,506,506,506,506,506,506,506,506,506,506,506,506,506,506,506,506,506,506,506,506,506,506,506,506,506,506,506,506,506,506,506,506,506,506,506,506,506,506,506,506,506,506,506,506,506,506,506,506,506,506,506,506,506,506,505,495,482,465,446,426,403,339,303,276,255,216,205,199,195,190,180,174,166,158,150,139,125,121,116,111,108,100,98],"timestamp_mouse":[8,28,61,69,88,110,129,148,168,189,209,229,248,270,288,309,330,348,368,390,408,428,450,468,489,508,529,550,568,589,608,628,648,670,689,709,728,750,769,790,809,829,849,870,889,908,930,948,968,989,1010,1029,1049,1069,1088,1108,1130,1149,1169,1190,1210,1228,1248,1270,1289,1308,1329,1350,1369,1390,1409,1428,1448,1468,1488,1508,1528,1548,1569,1590,1609,1629,1649,1669,1689,1709,1728,1748,1768,1788,1808,1828,1849,1868,1888,1909,1928,1948],"xSR":741.5,"ySR":501.8,"xT1":424.9,"yT1":0,"xT2":1058.1,"yT2":0,"toosoon":0,"cond_shown":"Incongruent","ratio_trial":100,"L_num":12,"L_den":30,"R_num":2,"R_den":4,"correct_side":2,"subjID":"saravalentinamolinaocampo24","gender":"1","school":"6","age":"11"},{"start_time":1551790182817,"click_time":1551790184312,"finger_time":1551790183593,"fix_duration":523.3649337705768,"trial":42,"RT":776,"MT":719,"sideResp":1,"stimulus":[],"xmouse":[767,767,767,767,767,767,767,767,767,767,767,767,767,767,767,767,767,767,767,767,767,767,767,767,767,767,767,767,767,767,767,767,767,767,765,761,754,747,733,724,717,709,708,708,708,707,703,684,668,653,637,616,596,590,587,587,587,586,575,567,561,549,545,538,537,537,536,532,531,528,526,523,519,510,505],"ymouse":[580,580,580,580,580,580,580,580,580,580,580,580,580,580,580,580,580,580,580,580,580,580,580,580,580,580,580,580,580,580,580,580,580,577,569,562,551,536,511,503,495,492,491,491,491,491,488,479,469,461,453,439,419,402,382,357,329,300,235,208,186,163,153,143,141,140,139,135,133,129,127,125,120,108,99],"timestamp_mouse":[16,38,57,75,96,116,135,155,177,195,217,236,256,276,296,316,336,357,376,397,415,437,455,477,495,517,535,555,576,595,616,636,655,675,695,716,737,755,776,796,817,835,856,877,895,916,935,957,975,996,1016,1035,1056,1075,1095,1115,1135,1155,1176,1196,1215,1236,1257,1275,1296,1315,1336,1355,1375,1396,1416,1435,1455,1476,1495],"xSR":741.5,"ySR":501.8,"xT1":424.9,"yT1":0,"xT2":1058.1,"yT2":0,"toosoon":0,"cond_shown":"Congruent","ratio_trial":200,"L_num":12,"L_den":15,"R_num":6,"R_den":10,"correct_side":1,"subjID":"saravalentinamolinaocampo24","gender":"1","school":"6","age":"11"},{"start_time":1551790186716,"click_time":1551790188893,"finger_time":1551790188373,"fix_duration":1260.0964586112339,"trial":43,"RT":1657,"MT":520,"sideResp":1,"stimulus":[],"xmouse":[835,835,835,835,835,835,835,835,835,835,835,835,835,835,835,835,835,835,835,835,835,835,835,835,835,835,835,835,835,835,835,835,835,835,835,835,835,835,835,835,835,835,835,835,835,835,835,835,835,835,835,835,835,835,835,835,835,835,835,835,835,835,835,835,835,835,835,835,835,833,832,830,828,824,822,820,817,813,810,806,801,794,782,775,768,756,752,735,709,693,680,666,643,631,622,616,607,603,595,586,575,560,534,521,511,503,498,491,479],"ymouse":[553,553,553,553,553,553,553,553,553,553,553,553,553,553,553,553,553,553,553,553,553,553,553,553,553,553,553,553,553,553,553,553,553,553,553,553,553,553,553,553,553,553,553,553,553,553,553,553,553,553,553,553,553,553,553,553,553,553,553,553,553,553,553,553,553,553,553,552,550,549,549,547,546,544,543,542,541,537,536,531,527,516,484,462,439,403,391,354,300,273,251,229,194,179,170,163,157,155,151,147,142,137,130,126,122,119,117,110,88],"timestamp_mouse":[16,44,57,77,96,117,136,156,177,197,217,238,257,276,296,316,337,357,378,396,417,437,458,476,497,518,536,558