[{"start_time":1551899998816,"click_time":1551900008109,"finger_time":1551899998831,"fix_duration":901.3610412480672,"trial":0,"RT":15,"MT":9278,"sideResp":1,"stimulus":[],"xmouse":[785,785,785,785,785,785,785,785,785,785,785,785,785,785,785,785,785,785,785,785,785,785,785,785,785,785,785,785,785,785,785,785,785,785,785,785,785,785,785,785,785,785,785,786,786,786,786,786,787,787,788,788,788,788,788,788,788,788,788,788,788,788,788,788,788,788,788,788,788,788,788,788,788,788,788,788,788,788,788,788,788,788,788,788,789,791,793,793,793,793,793,793,793,793,793,793,794,794,794,794,794,794,796,796,796,796,796,796,796,796,793,789,788,785,784,784,784,784,784,785,787,787,787,787,789,789,789,789,789,779,756,707,690,674,664,659,659,659,659,659,658,674,706,741,769,799,826,827,827,827,827,827,827,827,827,827,827,825,823,822,822,822,821,819,818,816,814,813,812,812,812,812,812,812,812,812,812,812,812,812,812,812,812,812,812,812,813,813,813,813,813,813,813,813,813,813,813,813,813,813,813,813,813,813,813,813,813,813,813,813,813,813,813,813,813,813,813,813,813,813,813,813,813,814,815,815,815,815,815,815,815,817,818,818,818,818,815,814,814,814,813,813,813,812,812,812,812,812,812,811,811,811,810,810,809,808,807,806,806,806,805,803,801,800,800,799,799,799,799,798,798,798,800,800,803,807,812,812,812,812,812,812,812,813,813,814,814,815,815,815,815,815,815,816,817,817,817,817,817,814,811,808,807,806,805,805,805,805,805,805,805,805,805,805,805,805,805,805,805,805,805,805,805,805,805,805,805,805,805,805,805,805,805,805,805,805,805,805,805,805,805,805,805,805,805,804,804,803,803,803,803,803,803,803,803,803,801,799,797,793,790,787,787,787,787,787,787,787,788,790,791,792,792,792,792,792,792,792,792,792,792,792,792,792,792,792,792,792,792,792,793,794,794,794,795,796,800,803,806,811,813,817,817,817,817,817,815,815,812,810,809,809,809,809,809,809,806,806,806,806,805,805,805,804,801,796,794,793,790,788,779,768,762,752,744,733,732,728,720,716,716,656,635,606,552,421,379,350,327,290,269,238,228,215,193,157,155,155,155,155,169,195,255,350,485],"ymouse":[504,504,504,504,504,504,504,504,504,504,504,504,504,504,504,504,504,504,504,504,504,504,504,504,504,504,504,504,504,504,504,504,504,504,505,510,514,517,520,525,531,551,561,571,575,577,582,586,589,593,594,594,594,594,594,594,594,594,594,594,594,594,594,594,594,594,594,594,594,594,594,594,594,594,595,595,595,595,595,595,595,595,595,591,587,580,574,574,574,574,574,574,574,574,574,573,566,562,560,556,550,534,524,520,520,520,520,520,520,525,536,564,586,602,613,620,620,620,619,604,586,559,546,530,516,461,435,411,394,357,313,239,219,201,191,187,187,187,187,187,188,230,281,335,390,441,505,516,527,534,534,534,534,534,534,534,535,537,543,555,566,577,583,589,595,602,613,616,616,616,616,616,616,616,616,616,616,616,616,616,616,617,617,617,617,617,616,615,615,615,615,615,614,614,614,614,614,614,614,614,614,614,614,614,614,614,614,614,614,614,614,614,614,614,614,614,614,614,614,616,617,621,624,629,633,635,636,636,636,636,636,632,625,622,619,617,613,613,613,613,612,612,612,612,612,612,612,612,612,612,612,612,612,612,613,613,613,613,613,613,613,613,613,612,612,612,612,612,612,611,610,607,603,598,587,577,557,553,552,550,547,536,530,527,525,523,521,518,517,517,517,516,512,507,502,490,480,469,456,446,432,422,419,417,416,416,416,416,416,416,416,416,416,416,416,416,416,416,416,416,416,416,416,416,416,416,416,416,416,416,416,417,418,419,421,423,424,424,425,426,428,428,429,430,431,434,434,435,435,435,435,435,435,434,433,430,422,419,414,408,403,395,393,392,392,389,387,385,382,379,378,376,376,376,376,376,376,376,376,376,376,376,376,376,376,376,376,376,376,376,378,382,384,388,393,402,431,443,456,473,482,504,513,518,519,520,533,544,552,559,597,611,616,618,620,631,656,658,658,658,658,651,641,629,618,595,590,584,574,558,528,462,403,340,280,172,128,88,41,20,20,0,0,0,0,0,0,0,0,0,2,10,11,11,12,23,24,25,25,29,54,64,72,74,74],"timestamp_mouse":[14,33,54,75,93,114,133,153,174,193,214,233,253,273,294,314,333,353,373,394,414,435,454,474,493,514,533,553,574,595,614,634,654,674,693,714,733,753,773,794,814,835,855,874,893,915,934,954,973,994,1015,1034,1053,1075,1093,1114,1133,1155,1174,1193,1213,1234,1253,1275,1293,1314,1334,1355,1374,1395,1414,1433,1455,1473,1493,1514,1533,1555,1574,1593,1615,1633,1653,1674,1694,1715,1733,1754,1773,1793,1813,1835,1853,1874,1894,1913,1933,1953,1974,1995,2014,2034,2053,2073,2093,2113,2134,2155,2173,2195,2214,2235,2253,2274,2294,2315,2334,2354,2374,2394,2414,2433,2454,2473,2494,2515,2533,2553,2573,2594,2614,2633,2653,2674,2694,2714,2734,2755,2774,2794,2813,2833,2854,2874,2895,2914,2934,2955,2973,2993,3015,3034,3054,3074,3094,3114,3133,3154,3174,3193,3214,3234,3253,3275,3293,3314,3334,3353,3374,3394,3414,3433,3454,3473,3493,3513,3534,3553,3575,3594,3614,3635,3653,3674,3695,3713,3734,3754,3773,3793,3814,3835,3854,3874,3895,3913,3935,3953,3973,3993,4013,4034,4053,4074,4093,4114,4133,4153,4174,4193,4214,4234,4253,4275,4293,4313,4333,4353,4373,4394,4414,4434,4453,4474,4493,4513,4533,4554,4573,4593,4615,4634,4653,4675,4694,4713,4734,4754,4773,4795,4815,4834,4853,4874,4894,4913,4935,4953,4973,4995,5014,5033,5055,5073,5093,5113,5134,5154,5173,5193,5213,5233,5253,5273,5293,5313,5333,5354,5373,5393,5413,5434,5453,5474,5494,5514,5534,5555,5575,5594,5614,5634,5653,5674,5694,5713,5734,5754,5774,5794,5814,5833,5853,5873,5894,5915,5933,5955,5974,5994,6014,6033,6053,6075,6094,6114,6134,6153,6174,6194,6214,6233,6253,6273,6293,6313,6333,6353,6373,6395,6414,6433,6454,6474,6495,6514,6533,6555,6575,6595,6613,6633,6653,6673,6693,6715,6733,6754,6774,6793,6814,6833,6853,6875,6895,6913,6933,6954,6973,6995,7014,7034,7053,7074,7093,7114,7134,7153,7173,7193,7213,7233,7254,7274,7294,7314,7333,7354,7374,7393,7414,7433,7453,7474,7495,7514,7534,7553,7574,7593,7614,7634,7655,7673,7694,7713,7733,7754,7773,7793,7813,7835,7853,7875,7895,7913,7933,7955,7974,7995,8014,8033,8053,8074,8093,8114,8134,8154,8174,8194,8214,8234,8253,8274,8294,8314,8334,8354,8374,8394,8413,8433,8453,8475,8494,8514,8533,8554,8574,8593,8614,8635,8653,8673,8693,8715,8733,8754,8774,8793,8814,8833,8854,8873,8895,8915,8934,8955,8974,8994,9014,9033,9053,9073,9093,9115,9133,9154,9175,9195,9214,9233,9255,9274,9293],"xSR":741.5,"ySR":469.95,"xT1":424.9,"yT1":0,"xT2":1058.1,"yT2":0,"toosoon":0,"cond_shown":"Congruent","ratio_trial":100,"L_num":8,"L_den":16,"R_num":2,"R_den":5,"correct_side":1,"subjID":"SARAVALENTINARUBIOGAMEZ1","gender":"1","age":"11","school":"6","test":{"fix_dur":[250,1500],"timestim":1000,"targets_dim":[100,100],"targets_relative_coord":[0.3,0.7],"size_stim":[880,420],"start_dim":[100,100],"size_start":[300,300],"size_fix":60,"samplingrate":20,"img_types":["Congruent","Incongruent"],"ratios":[100,200,300],"rep_conds":19,"nTrials":120,"trials_to_rest":500,"Trials_order":[42,62,86,64,8,47,89,29,117,94,34,71,44,51,104,27,15,113,110,70,11,54,14,111,102,84,12,6,101,115,52,50,31,106,1,69,57,39,91,17,63,76,56,30,112,43,38,93,45,58,78,75,16,66,3,13,98,4,90,33,95,107,73,26,74,83,46,9,24,5,85,116,118,36,19,35,92,53,2,97,23,10,41,20,108,59,7,96,109,55,88,40,77,60,22,65,25,49,81,32,48,119,103,61,72,0,99,114,100,79,87,37,67,18,105,21,68,82,28,80],"cond_shown":["Congruent","Congruent","Congruent","Congruent","Congruent","Incongruent","Incongruent","Incongruent","Incongruent","Congruent","Congruent","Incongruent","Congruent","Incongruent","Congruent","Incongruent","Incongruent","Incongruent","Congruent","Congruent","Incongruent","Congruent","Congruent","Incongruent","Congruent","Congruent","Congruent","Congruent","Incongruent","Incongruent","Congruent","Congruent","Incongruent","Congruent","Incongruent","Incongruent","Incongruent","Incongruent","Incongruent","Incongruent","Incongruent","Congruent","Congruent","Congruent","Congruent","Incongruent","Congruent","Incongruent","Incongruent","Congruent","Congruent","Incongruent","Congruent","Congruent","Incongruent","Incongruent","Congruent","Congruent","Congruent","Incongruent","Incongruent","Incongruent","Incongruent","Congruent","Congruent","Incongruent","Congruent","Incongruent","Congruent","Incongruent","Incongruent","Congruent","Congruent","Congruent","Incongruent","Incongruent","Congruent","Incongruent","Congruent","Incongruent","Incongruent","Congruent","Incongruent","Congruent","Congruent","Incongruent","Incongruent","Congruent","Incongruent","Incongruent","Congruent","Congruent","Incongruent","Congruent","Congruent","Incongruent","Incongruent","Incongruent","Incongruent","Congruent","Congruent","Incongruent","Incongruent","Incongruent","Congruent","Congruent","Incongruent","Congruent","Congruent","Incongruent","Incongruent","Incongruent","Incongruent","Congruent","Incongruent","Incongruent","Congruent","Congruent","Congruent","Congruent"],"ratio_trial":[100,200,200,300,200,300,300,300,200,300,300,300,200,200,200,200,200,300,200,300,300,100,200,200,100,100,100,100,300,100,300,200,100,300,100,200,200,200,100,300,200,300,200,100,300,100,200,200,200,300,100,200,300,100,200,100,200,300,100,200,300,300,100,200,200,300,300,200,100,300,100,200,300,100,100,300,200,300,200,100,300,300,300,200,100,300,100,100,100,100,300,300,300,100,300,300,100,100,200,200,100,300,100,100,100,100,200,100,300,100,200,100,100,100,200,200,200,300,300,200],"left_num":[8,9,3,7,3,4,4,4,1,11,2,1,3,7,6,9,1,4,7,3,3,11,14,7,6,4,11,1,1,8,3,7,3,7,3,3,7,4,6,4,7,3,21,11,11,3,4,9,9,7,11,1,5,10,7,12,21,11,7,4,3,8,17,6,3,8,11,7,6,4,6,3,1,6,12,13,4,4,12,8,1,11,1,8,7,4,10,1,12,3,1,5,13,12,3,4,4,12,1,13,6,4,12,9,11,15,7,2,5,9,3,3,6,10,1,14,9,1,4,6],"right_num":[2,4,14,20,14,6,8,2,3,2,12,3,7,6,3,8,2,2,18,2,4,4,6,14,5,15,6,18,2,1,2,18,8,20,11,1,8,6,3,2,14,4,2,6,4,4,3,8,8,20,6,2,6,3,8,2,2,2,9,14,4,14,10,7,14,14,4,8,5,2,13,7,6,5,9,12,3,2,6,1,3,2,3,2,15,2,8,18,9,8,8,6,12,13,4,8,8,2,2,14,5,2,2,20,4,13,6,11,7,13,11,4,11,3,3,6,13,19,13,7],"left_den":[16,20,10,14,10,5,5,20,2,22,10,2,10,15,15,15,3,20,15,6,6,22,28,10,20,10,22,2,2,20,6,15,5,14,5,10,10,5,12,20,10,6,30,22,22,6,10,15,15,14,22,3,25,25,10,30,30,22,14,6,6,10,30,12,10,10,22,10,20,20,10,10,5,20,24,26,8,20,20,20,2,22,2,15,14,20,25,2,24,5,30,25,26,30,6,5,8,30,3,26,20,20,30,10,22,25,15,5,25,15,4,6,10,25,2,30,30,3,20,12],"right_den":[5,16,28,25,28,12,16,4,10,10,24,15,14,9,15,10,15,4,27,10,20,10,20,28,25,30,15,30,10,2,10,27,16,25,22,2,16,10,5,4,28,5,4,15,20,10,15,10,10,25,15,15,12,10,16,4,4,10,15,30,20,28,15,10,28,28,20,16,25,4,26,14,12,25,15,15,10,4,15,2,15,10,15,6,25,4,16,30,15,16,24,12,15,26,5,16,20,4,15,20,25,4,4,25,10,26,9,22,14,26,20,10,22,10,10,9,26,30,26,10],"correct_side":[1,1,2,2,2,1,1,2,1,1,2,1,2,2,1,2,1,2,2,1,1,1,1,1,1,2,1,2,1,2,1,2,1,2,1,2,1,1,2,2,1,2,1,1,1,1,1,2,2,2,1,1,2,1,1,2,1,1,2,1,1,1,2,2,2,1,1,1,1,2,1,2,2,1,2,2,1,2,1,2,1,1,1,1,2,2,2,2,2,1,2,2,2,2,2,1,1,2,1,2,1,2,2,1,1,1,2,2,2,1,1,1,1,1,1,2,2,2,2,2],"img_shown":["img2/100/Congruent/L/C_Dist_100_LN_8_LD_16_RN_2_RD_5_0.png","img2/200/Congruent/L/C_Dist_200_LN_9_LD_20_RN_4_RD_16_0.png","img2/200/Congruent/R/C_Dist_200_LN_3_LD_10_RN_14_RD_28_1.png","img2/300/Congruent/R/C_Dist_300_LN_7_LD_14_RN_20_RD_25_1.png","img2/200/Congruent/R/C_Dist_200_LN_3_LD_10_RN_14_RD_28_1.png","img2/300/Incongruent/L/I_Dist_300_LN_4_LD_5_RN_6_RD_12_0.png","img2/300/Incongruent/L/I_Dist_300_LN_4_LD_5_RN_8_RD_16_0.png","img2/300/Incongruent/R/I_Dist_300_LN_4_LD_20_RN_2_RD_4_1.png","img2/200/Incongruent/L/I_Dist_200_LN_1_LD_2_RN_3_RD_10_0.png","img2/300/Congruent/L/C_Dist_300_LN_11_LD_22_RN_2_RD_10_0.png","img2/300/Congruent/R/C_Dist_300_LN_2_LD_10_RN_12_RD_24_1.png","img2/300/Incongruent/L/I_Dist_300_LN_1_LD_2_RN_3_RD_15_0.png","img2/200/Congruent/R/C_Dist_200_LN_3_LD_10_RN_7_RD_14_1.png","img2/200/Incongruent/R/I_Dist_200_LN_7_LD_15_RN_6_RD_9_1.png","img2/200/Congruent/L/C_Dist_200_LN_6_LD_15_RN_3_RD_15_0.png","img2/200/Incongruent/R/I_Dist_200_LN_9_LD_15_RN_8_RD_10_1.png","img2/200/Incongruent/L/I_Dist_200_LN_1_LD_3_RN_2_RD_15_0.png","img2/300/Incongruent/R/I_Dist_300_LN_4_LD_20_RN_2_RD_4_1.png","img2/200/Congruent/R/C_Dist_200_LN_7_LD_15_RN_18_RD_27_1.png","img2/300/Congruent/L/C_Dist_300_LN_3_LD_6_RN_2_RD_10_0.png","img2/300/Incongruent/L/I_Dist_300_LN_3_LD_6_RN_4_RD_20_0.png","img2/100/Congruent/L/C_Dist_100_LN_11_LD_22_RN_4_RD_10_0.png","img2/200/Congruent/L/C_Dist_200_LN_14_LD_28_RN_6_RD_20_0.png","img2/200/Incongruent/L/I_Dist_200_LN_7_LD_10_RN_14_RD_28_0.png","img2/100/Congruent/L/C_Dist_100_LN_6_LD_20_RN_5_RD_25_0.png","img2/100/Congruent/R/C_Dist_100_LN_4_LD_10_RN_15_RD_30_1.png","img2/100/Congruent/L/C_Dist_100_LN_11_LD_22_RN_6_RD_15_0.png","img2/100/Congruent/R/C_Dist_100_LN_1_LD_2_RN_18_RD_30_1.png","img2/300/Incongruent/L/I_Dist_300_LN_1_LD_2_RN_2_RD_10_0.png","img2/100/Incongruent/R/I_Dist_100_LN_8_LD_20_RN_1_RD_2_1.png","img2/300/Congruent/L/C_Dist_300_LN_3_LD_6_RN_2_RD_10_0.png","img2/200/Congruent/R/C_Dist_200_LN_7_LD_15_RN_18_RD_27_1.png","img2/100/Incongruent/L/I_Dist_100_LN_3_LD_5_RN_8_RD_16_0.png","img2/300/Congruent/R/C_Dist_300_LN_7_LD_14_RN_20_RD_25_1.png","img2/100/Incongruent/L/I_Dist_100_LN_3_LD_5_RN_11_RD_22_0.png","img2/200/Incongruent/R/I_Dist_200_LN_3_LD_10_RN_1_RD_2_1.png","img2/200/Incongruent/L/I_Dist_200_LN_7_LD_10_RN_8_RD_16_0.png","img2/200/Incongruent/L/I_Dist_200_LN_4_LD_5_RN_6_RD_10_0.png","img2/100/Incongruent/R/I_Dist_100_LN_6_LD_12_RN_3_RD_5_1.png","img2/300/Incongruent/R/I_Dist_300_LN_4_LD_20_RN_2_RD_4_1.png","img2/200/Incongruent/L/I_Dist_200_LN_7_LD_10_RN_14_RD_28_0.png","img2/300/Congruent/R/C_Dist_300_LN_3_LD_6_RN_4_RD_5_1.png","img2/200/Congruent/L/C_Dist_200_LN_21_LD_30_RN_2_RD_4_0.png","img2/100/Congruent/L/C_Dist_100_LN_11_LD_22_RN_6_RD_15_0.png","img2/300/Congruent/L/C_Dist_300_LN_11_LD_22_RN_4_RD_20_0.png","img2/100/Incongruent/L/I_Dist_100_LN_3_LD_6_RN_4_RD_10_0.png","img2/200/Congruent/L/C_Dist_200_LN_4_LD_10_RN_3_RD_15_0.png","img2/200/Incongruent/R/I_Dist_200_LN_9_LD_15_RN_8_RD_10_1.png","img2/200/Incongruent/R/I_Dist_200_LN_9_LD_15_RN_8_RD_10_1.png","img2/300/Congruent/R/C_Dist_300_LN_7_LD_14_RN_20_RD_25_1.png","img2/100/Congruent/L/C_Dist_100_LN_11_LD_22_RN_6_RD_15_0.png","img2/200/Incongruent/L/I_Dist_200_LN_1_LD_3_RN_2_RD_15_0.png","img2/300/Congruent/R/C_Dist_300_LN_5_LD_25_RN_6_RD_12_1.png","img2/100/Congruent/L/C_Dist_100_LN_10_LD_25_RN_3_RD_10_0.png","img2/200/Incongruent/L/I_Dist_200_LN_7_LD_10_RN_8_RD_16_0.png","img2/100/Incongruent/R/I_Dist_100_LN_12_LD_30_RN_2_RD_4_1.png","img2/200/Congruent/L/C_Dist_200_LN_21_LD_30_RN_2_RD_4_0.png","img2/300/Congruent/L/C_Dist_300_LN_11_LD_22_RN_2_RD_10_0.png","img2/100/Congruent/R/C_Dist_100_LN_7_LD_14_RN_9_RD_15_1.png","img2/200/Incongruent/L/I_Dist_200_LN_4_LD_6_RN_14_RD_30_0.png","img2/300/Incongruent/L/I_Dist_300_LN_3_LD_6_RN_4_RD_20_0.png","img2/300/Incongruent/L/I_Dist_300_LN_8_LD_10_RN_14_RD_28_0.png","img2/100/Incongruent/R/I_Dist_100_LN_17_LD_30_RN_10_RD_15_1.png","img2/200/Congruent/R/C_Dist_200_LN_6_LD_12_RN_7_RD_10_1.png","img2/200/Congruent/R/C_Dist_200_LN_3_LD_10_RN_14_RD_28_1.png","img2/300/Incongruent/L/I_Dist_300_LN_8_LD_10_RN_14_RD_28_0.png","img2/300/Congruent/L/C_Dist_300_LN_11_LD_22_RN_4_RD_20_0.png","img2/200/Incongruent/L/I_Dist_200_LN_7_LD_10_RN_8_RD_16_0.png","img2/100/Congruent/L/C_Dist_100_LN_6_LD_20_RN_5_RD_25_0.png","img2/300/Incongruent/R/I_Dist_300_LN_4_LD_20_RN_2_RD_4_1.png","img2/100/Incongruent/L/I_Dist_100_LN_6_LD_10_RN_13_RD_26_0.png","img2/200/Congruent/R/C_Dist_200_LN_3_LD_10_RN_7_RD_14_1.png","img2/300/Congruent/R/C_Dist_300_LN_1_LD_5_RN_6_RD_12_1.png","img2/100/Congruent/L/C_Dist_100_LN_6_LD_20_RN_5_RD_25_0.png","img2/100/Incongruent/R/I_Dist_100_LN_12_LD_24_RN_9_RD_15_1.png","img2/300/Incongruent/R/I_Dist_300_LN_13_LD_26_RN_12_RD_15_1.png","img2/200/Congruent/L/C_Dist_200_LN_4_LD_8_RN_3_RD_10_0.png","img2/300/Incongruent/R/I_Dist_300_LN_4_LD_20_RN_2_RD_4_1.png","img2/200/Congruent/L/C_Dist_200_LN_12_LD_20_RN_6_RD_15_0.png","img2/100/Incongruent/R/I_Dist_100_LN_8_LD_20_RN_1_RD_2_1.png","img2/300/Incongruent/L/I_Dist_300_LN_1_LD_2_RN_3_RD_15_0.png","img2/300/Congruent/L/C_Dist_300_LN_11_LD_22_RN_2_RD_10_0.png","img2/300/Incongruent/L/I_Dist_300_LN_1_LD_2_RN_3_RD_15_0.png","img2/200/Congruent/L/C_Dist_200_LN_8_LD_15_RN_2_RD_6_0.png","img2/100/Congruent/R/C_Dist_100_LN_7_LD_14_RN_15_RD_25_1.png","img2/300/Incongruent/R/I_Dist_300_LN_4_LD_20_RN_2_RD_4_1.png","img2/100/Incongruent/R/I_Dist_100_LN_10_LD_25_RN_8_RD_16_1.png","img2/100/Congruent/R/C_Dist_100_LN_1_LD_2_RN_18_RD_30_1.png","img2/100/Incongruent/R/I_Dist_100_LN_12_LD_24_RN_9_RD_15_1.png","img2/100/Incongruent/L/I_Dist_100_LN_3_LD_5_RN_8_RD_16_0.png","img2/300/Congruent/R/C_Dist_300_LN_1_LD_30_RN_8_RD_24_1.png","img2/300/Congruent/R/C_Dist_300_LN_5_LD_25_RN_6_RD_12_1.png","img2/300/Incongruent/R/I_Dist_300_LN_13_LD_26_RN_12_RD_15_1.png","img2/100/Congruent/R/C_Dist_100_LN_12_LD_30_RN_13_RD_26_1.png","img2/300/Congruent/R/C_Dist_300_LN_3_LD_6_RN_4_RD_5_1.png","img2/300/Incongruent/L/I_Dist_300_LN_4_LD_5_RN_8_RD_16_0.png","img2/100/Incongruent/L/I_Dist_100_LN_4_LD_8_RN_8_RD_20_0.png","img2/100/Incongruent/R/I_Dist_100_LN_12_LD_30_RN_2_RD_4_1.png","img2/200/Incongruent/L/I_Dist_200_LN_1_LD_3_RN_2_RD_15_0.png","img2/200/Congruent/R/C_Dist_200_LN_13_LD_26_RN_14_RD_20_1.png","img2/100/Congruent/L/C_Dist_100_LN_6_LD_20_RN_5_RD_25_0.png","img2/300/Incongruent/R/I_Dist_300_LN_4_LD_20_RN_2_RD_4_1.png","img2/100/Incongruent/R/I_Dist_100_LN_12_LD_30_RN_2_RD_4_1.png","img2/100/Incongruent/L/I_Dist_100_LN_9_LD_10_RN_20_RD_25_0.png","img2/100/Congruent/L/C_Dist_100_LN_11_LD_22_RN_4_RD_10_0.png","img2/100/Congruent/L/C_Dist_100_LN_15_LD_25_RN_13_RD_26_0.png","img2/200/Incongruent/R/I_Dist_200_LN_7_LD_15_RN_6_RD_9_1.png","img2/100/Congruent/R/C_Dist_100_LN_2_LD_5_RN_11_RD_22_1.png","img2/300/Congruent/R/C_Dist_300_LN_5_LD_25_RN_7_RD_14_1.png","img2/100/Incongruent/L/I_Dist_100_LN_9_LD_15_RN_13_RD_26_0.png","img2/200/Incongruent/L/I_Dist_200_LN_3_LD_4_RN_11_RD_20_0.png","img2/100/Incongruent/L/I_Dist_100_LN_3_LD_6_RN_4_RD_10_0.png","img2/100/Incongruent/L/I_Dist_100_LN_6_LD_10_RN_11_RD_22_0.png","img2/100/Congruent/L/C_Dist_100_LN_10_LD_25_RN_3_RD_10_0.png","img2/200/Incongruent/L/I_Dist_200_LN_1_LD_2_RN_3_RD_10_0.png","img2/200/Incongruent/R/I_Dist_200_LN_14_LD_30_RN_6_RD_9_1.png","img2/200/Congruent/R/C_Dist_200_LN_9_LD_30_RN_13_RD_26_1.png","img2/300/Congruent/R/C_Dist_300_LN_1_LD_3_RN_19_RD_30_1.png","img2/300/Congruent/R/C_Dist_300_LN_4_LD_20_RN_13_RD_26_1.png","img2/200/Congruent/R/C_Dist_200_LN_6_LD_12_RN_7_RD_10_1.png"],"dist100_C":[["C_Dist_100_LN_10_LD_25_RN_3_RD_10_0.png","C_Dist_100_LN_11_LD_22_RN_4_RD_10_0.png","C_Dist_100_LN_11_LD_22_RN_6_RD_15_0.png","C_Dist_100_LN_15_LD_25_RN_13_RD_26_0.png","C_Dist_100_LN_3_LD_6_RN_2_RD_5_0.png","C_Dist_100_LN_6_LD_20_RN_5_RD_25_0.png","C_Dist_100_LN_8_LD_16_RN_2_RD_5_0.png","C_Dist_100_LN_9_LD_15_RN_8_RD_16_0.png"],["C_Dist_100_LN_1_LD_2_RN_18_RD_30_1.png","C_Dist_100_LN_1_LD_2_RN_3_RD_5_1.png","C_Dist_100_LN_12_LD_30_RN_13_RD_26_1.png","C_Dist_100_LN_2_LD_5_RN_11_RD_22_1.png","C_Dist_100_LN_2_LD_5_RN_6_RD_12_1.png","C_Dist_100_LN_3_LD_20_RN_4_RD_16_1.png","C_Dist_100_LN_4_LD_10_RN_15_RD_30_1.png","C_Dist_100_LN_4_LD_8_RN_6_RD_10_1.png","C_Dist_100_LN_6_LD_12_RN_15_RD_25_1.png","C_Dist_100_LN_7_LD_14_RN_15_RD_25_1.png","C_Dist_100_LN_7_LD_14_RN_9_RD_15_1.png"]],"dist100_I":[["I_Dist_100_LN_1_LD_2_RN_8_RD_20_0.png","I_Dist_100_LN_2_LD_4_RN_6_RD_15_0.png","I_Dist_100_LN_2_LD_4_RN_8_RD_20_0.png","I_Dist_100_LN_3_LD_5_RN_11_RD_22_0.png","I_Dist_100_LN_3_LD_5_RN_8_RD_16_0.png","I_Dist_100_LN_3_LD_6_RN_4_RD_10_0.png","I_Dist_100_LN_3_LD_9_RN_7_RD_30_0.png","I_Dist_100_LN_4_LD_8_RN_8_RD_20_0.png","I_Dist_100_LN_6_LD_10_RN_11_RD_22_0.png","I_Dist_100_LN_6_LD_10_RN_13_RD_26_0.png","I_Dist_100_LN_6_LD_10_RN_7_RD_14_0.png","I_Dist_100_LN_9_LD_10_RN_20_RD_25_0.png","I_Dist_100_LN_9_LD_15_RN_13_RD_26_0.png","I_Dist_100_LN_9_LD_15_RN_14_RD_28_0.png"],["I_Dist_100_LN_10_LD_25_RN_8_RD_16_1.png","I_Dist_100_LN_10_LD_25_RN_9_RD_18_1.png","I_Dist_100_LN_11_LD_22_RN_9_RD_15_1.png","I_Dist_100_LN_12_LD_24_RN_9_RD_15_1.png","I_Dist_100_LN_12_LD_30_RN_2_RD_4_1.png","I_Dist_100_LN_13_LD_26_RN_12_RD_20_1.png","I_Dist_100_LN_13_LD_26_RN_6_RD_10_1.png","I_Dist_100_LN_17_LD_30_RN_10_RD_15_1.png","I_Dist_100_LN_6_LD_12_RN_3_RD_5_1.png","I_Dist_100_LN_8_LD_16_RN_6_RD_10_1.png","I_Dist_100_LN_8_LD_20_RN_1_RD_2_1.png","I_Dist_100_LN_9_LD_18_RN_6_RD_10_1.png"]],"dist100_S":[["E_Dist_100_LN_2_LD_12_RN_2_RD_30_0.png","E_Dist_100_LN_6_LD_10_RN_6_RD_12_0.png"],["E_Dist_100_LN_6_LD_12_RN_6_RD_10_1.png"]],"dist200_C":[["C_Dist_200_LN_11_LD_22_RN_3_RD_10_0.png","C_Dist_200_LN_12_LD_15_RN_6_RD_10_0.png","C_Dist_200_LN_12_LD_20_RN_6_RD_15_0.png","C_Dist_200_LN_14_LD_28_RN_6_RD_20_0.png","C_Dist_200_LN_15_LD_25_RN_4_RD_10_0.png","C_Dist_200_LN_16_LD_20_RN_12_RD_20_0.png","C_Dist_200_LN_16_LD_30_RN_9_RD_27_0.png","C_Dist_200_LN_20_LD_25_RN_9_RD_15_0.png","C_Dist_200_LN_21_LD_30_RN_2_RD_4_0.png","C_Dist_200_LN_4_LD_10_RN_3_RD_15_0.png","C_Dist_200_LN_4_LD_8_RN_3_RD_10_0.png","C_Dist_200_LN_6_LD_15_RN_3_RD_15_0.png","C_Dist_200_LN_7_LD_21_RN_2_RD_15_0.png","C_Dist_200_LN_8_LD_15_RN_2_RD_6_0.png","C_Dist_200_LN_8_LD_15_RN_3_RD_9_0.png","C_Dist_200_LN_8_LD_15_RN_7_RD_21_0.png","C_Dist_200_LN_9_LD_20_RN_4_RD_16_0.png"],["C_Dist_200_LN_1_LD_2_RN_21_RD_30_1.png","C_Dist_200_LN_13_LD_26_RN_14_RD_20_1.png","C_Dist_200_LN_3_LD_10_RN_11_RD_22_1.png","C_Dist_200_LN_3_LD_10_RN_14_RD_28_1.png","C_Dist_200_LN_3_LD_10_RN_7_RD_14_1.png","C_Dist_200_LN_3_LD_12_RN_9_RD_20_1.png","C_Dist_200_LN_3_LD_6_RN_14_RD_20_1.png","C_Dist_200_LN_5_LD_10_RN_14_RD_20_1.png","C_Dist_200_LN_6_LD_12_RN_7_RD_10_1.png","C_Dist_200_LN_6_LD_20_RN_11_RD_22_1.png","C_Dist_200_LN_7_LD_15_RN_18_RD_27_1.png","C_Dist_200_LN_9_LD_30_RN_13_RD_26_1.png"]],"dist200_I":[["I_Dist_200_LN_1_LD_2_RN_3_RD_10_0.png","I_Dist_200_LN_1_LD_3_RN_2_RD_15_0.png","I_Dist_200_LN_3_LD_4_RN_11_RD_20_0.png","I_Dist_200_LN_4_LD_5_RN_6_RD_10_0.png","I_Dist_200_LN_4_LD_6_RN_14_RD_30_0.png","I_Dist_200_LN_7_LD_10_RN_12_RD_24_0.png","I_Dist_200_LN_7_LD_10_RN_14_RD_28_0.png","I_Dist_200_LN_7_LD_10_RN_8_RD_16_0.png"],["I_Dist_200_LN_11_LD_20_RN_3_RD_4_1.png","I_Dist_200_LN_14_LD_30_RN_12_RD_18_1.png","I_Dist_200_LN_14_LD_30_RN_6_RD_9_1.png","I_Dist_200_LN_3_LD_10_RN_1_RD_2_1.png","I_Dist_200_LN_4_LD_30_RN_1_RD_3_1.png","I_Dist_200_LN_6_LD_20_RN_3_RD_6_1.png","I_Dist_200_LN_7_LD_15_RN_4_RD_6_1.png","I_Dist_200_LN_7_LD_15_RN_6_RD_9_1.png","I_Dist_200_LN_9_LD_15_RN_8_RD_10_1.png"]],"dist200_S":[["E_Dist_200_LN_3_LD_6_RN_3_RD_10_0.png"],["E_Dist_200_LN_3_LD_10_RN_3_RD_6_1.png"]],"dist300_C":[["C_Dist_300_LN_11_LD_22_RN_1_RD_5_0.png","C_Dist_300_LN_11_LD_22_RN_2_RD_10_0.png","C_Dist_300_LN_11_LD_22_RN_4_RD_20_0.png","C_Dist_300_LN_12_LD_24_RN_2_RD_10_0.png","C_Dist_300_LN_18_LD_20_RN_9_RD_15_0.png","C_Dist_300_LN_20_LD_25_RN_13_RD_26_0.png","C_Dist_300_LN_20_LD_25_RN_14_RD_28_0.png","C_Dist_300_LN_20_LD_25_RN_5_RD_10_0.png","C_Dist_300_LN_20_LD_25_RN_8_RD_16_0.png","C_Dist_300_LN_20_LD_25_RN_9_RD_18_0.png","C_Dist_300_LN_24_LD_30_RN_2_RD_4_0.png","C_Dist_300_LN_24_LD_30_RN_8_RD_16_0.png","C_Dist_300_LN_3_LD_6_RN_2_RD_10_0.png","C_Dist_300_LN_4_LD_10_RN_1_RD_10_0.png","C_Dist_300_LN_4_LD_5_RN_2_RD_4_0.png","C_Dist_300_LN_8_LD_16_RN_1_RD_5_0.png","C_Dist_300_LN_9_LD_10_RN_3_RD_5_0.png"],["C_Dist_300_LN_1_LD_20_RN_7_RD_20_1.png","C_Dist_300_LN_1_LD_3_RN_19_RD_30_1.png","C_Dist_300_LN_1_LD_30_RN_8_RD_24_1.png","C_Dist_300_LN_1_LD_5_RN_11_RD_22_1.png","C_Dist_300_LN_1_LD_5_RN_3_RD_6_1.png","C_Dist_300_LN_1_LD_5_RN_6_RD_12_1.png","C_Dist_300_LN_2_LD_10_RN_12_RD_24_1.png","C_Dist_300_LN_2_LD_20_RN_10_RD_25_1.png","C_Dist_300_LN_3_LD_12_RN_11_RD_20_1.png","C_Dist_300_LN_3_LD_6_RN_4_RD_5_1.png","C_Dist_300_LN_4_LD_20_RN_13_RD_26_1.png","C_Dist_300_LN_5_LD_25_RN_6_RD_12_1.png","C_Dist_300_LN_5_LD_25_RN_7_RD_14_1.png","C_Dist_300_LN_7_LD_14_RN_20_RD_25_1.png","C_Dist_300_LN_8_LD_15_RN_10_RD_12_1.png"]],"dist300_I":[["I_Dist_300_LN_1_LD_2_RN_2_RD_10_0.png","I_Dist_300_LN_1_LD_2_RN_3_RD_15_0.png","I_Dist_300_LN_2_LD_4_RN_6_RD_30_0.png","I_Dist_300_LN_3_LD_6_RN_4_RD_20_0.png","I_Dist_300_LN_4_LD_5_RN_6_RD_12_0.png","I_Dist_300_LN_4_LD_5_RN_8_RD_16_0.png","I_Dist_300_LN_7_LD_10_RN_8_RD_20_0.png","I_Dist_300_LN_8_LD_10_RN_14_RD_28_0.png","I_Dist_300_LN_8_LD_10_RN_9_RD_18_0.png"],["I_Dist_300_LN_13_LD_26_RN_12_RD_15_1.png","I_Dist_300_LN_4_LD_20_RN_2_RD_4_1.png"]],"dist300_S":[["E_Dist_300_LN_9_LD_12_RN_9_RD_20_0.png"],["E_Dist_300_LN_18_LD_30_RN_18_RD_20_1.png","E_Dist_300_LN_3_LD_10_RN_3_RD_5_1.png","E_Dist_300_LN_9_LD_20_RN_9_RD_12_1.png"]],"dist500_C":[["C_Dist_500_LN_10_LD_13_RN_7_RD_26_0.png","C_Dist_500_LN_10_LD_15_RN_4_RD_24_0.png","C_Dist_500_LN_12_LD_16_RN_3_RD_12_0.png","C_Dist_500_LN_12_LD_18_RN_4_RD_24_0.png","C_Dist_500_LN_15_LD_18_RN_5_RD_15_0.png","C_Dist_500_LN_15_LD_20_RN_1_RD_4_0.png","C_Dist_500_LN_18_LD_27_RN_1_RD_6_0.png","C_Dist_500_LN_20_LD_24_RN_1_RD_3_0.png","C_Dist_500_LN_20_LD_24_RN_3_RD_9_0.png","C_Dist_500_LN_20_LD_24_RN_7_RD_21_0.png","C_Dist_500_LN_20_LD_28_RN_3_RD_14_0.png","C_Dist_500_LN_21_LD_28_RN_6_RD_24_0.png","C_Dist_500_LN_22_LD_28_RN_2_RD_7_0.png","C_Dist_500_LN_25_LD_30_RN_9_RD_27_0.png","C_Dist_500_LN_4_LD_6_RN_1_RD_6_0.png","C_Dist_500_LN_5_LD_6_RN_2_RD_6_0.png","C_Dist_500_LN_6_LD_9_RN_1_RD_6_0.png","C_Dist_500_LN_7_LD_10_RN_1_RD_5_0.png","C_Dist_500_LN_8_LD_12_RN_1_RD_6_0.png","C_Dist_500_LN_8_LD_12_RN_4_RD_24_0.png"],["C_Dist_500_LN_1_LD_4_RN_12_RD_16_1.png","C_Dist_500_LN_1_LD_4_RN_9_RD_12_1.png","C_Dist_500_LN_1_LD_9_RN_11_RD_18_1.png","C_Dist_500_LN_10_LD_24_RN_22_RD_24_1.png","C_Dist_500_LN_2_LD_12_RN_10_RD_15_1.png","C_Dist_500_LN_2_LD_12_RN_12_RD_18_1.png","C_Dist_500_LN_2_LD_12_RN_4_RD_6_1.png","C_Dist_500_LN_2_LD_24_RN_7_RD_12_1.png","C_Dist_500_LN_2_LD_5_RN_18_RD_20_1.png","C_Dist_500_LN_2_LD_5_RN_9_RD_10_1.png","C_Dist_500_LN_2_LD_8_RN_12_RD_16_1.png","C_Dist_500_LN_2_LD_8_RN_21_RD_28_1.png","C_Dist_500_LN_3_LD_10_RN_4_RD_5_1.png","C_Dist_500_LN_3_LD_12_RN_15_RD_20_1.png","C_Dist_500_LN_3_LD_30_RN_6_RD_10_1.png","C_Dist_500_LN_3_LD_8_RN_14_RD_16_1.png","C_Dist_500_LN_4_LD_16_RN_15_RD_20_1.png","C_Dist_500_LN_4_LD_24_RN_12_RD_18_1.png","C_Dist_500_LN_5_LD_14_RN_6_RD_7_1.png","C_Dist_500_LN_7_LD_21_RN_20_RD_24_1.png","C_Dist_500_LN_7_LD_28_RN_12_RD_16_1.png","C_Dist_500_LN_7_LD_28_RN_9_RD_12_1.png","C_Dist_500_LN_9_LD_27_RN_20_RD_24_1.png"]],"dist500_I":[["I_Dist_500_LN_2_LD_3_RN_4_RD_24_0.png","I_Dist_500_LN_5_LD_6_RN_6_RD_18_0.png","I_Dist_500_LN_7_LD_8_RN_9_RD_24_0.png"],["I_Dist_500_LN_7_LD_21_RN_5_RD_6_1.png"]],"dist500_S":[["E_Dist_500_LN_6_LD_8_RN_6_RD_24_0.png"],["E_Dist_500_LN_2_LD_12_RN_2_RD_3_1.png","E_Dist_500_LN_6_LD_24_RN_6_RD_8_1.png"]]}},{"start_time":1551900009957,"click_time":1551900012531,"finger_time":1551900010589,"fix_duration":366.0687531849076,"trial":1,"RT":632,"MT":1942,"sideResp":2,"stimulus":[],"xmouse":[809,809,809,809,809,808,808,808,808,808,808,808,808,808,808,808,808,808,808,808,808,808,808,808,808,808,808,808,808,808,811,819,825,834,807,777,763,747,740,731,723,717,712,712,733,764,786,795,803,804,803,802,802,793,793,793,792,787,782,782,782,782,782,782,782,782,782,782,784,784,784,784,784,784,784,784,784,784,786,792,799,803,803,804,804,804,804,807,811,813,813,813,813,813,813,813,813,819,916,962,991,1005,1008,1008,1010,1012,1012,1012,1012,1012,1012,1012,1012,1012,1012,1012,1012,1012,1012,1012,1013,1016,1025,1034,1065,1069,1069,1074,1078],"ymouse":[622,622,622,620,619,618,618,618,618,617,617,617,617,617,617,617,617,617,617,617,617,617,617,617,617,617,617,617,617,617,595,551,499,434,280,234,215,202,199,201,208,214,224,236,290,332,357,368,383,393,417,477,499,544,547,553,565,582,598,598,598,598,598,599,601,601,602,606,612,612,612,612,612,612,612,612,612,612,612,600,588,578,577,575,575,575,571,564,557,551,551,551,551,551,551,551,550,545,480,439,408,387,370,353,333,329,328,328,328,328,328,328,328,328,327,327,327,327,327,327,325,322,309,292,208,168,135,101,71],"timestamp_mouse":[12,41,53,72,92,112,134,152,172,194,212,232,253,272,294,313,332,354,374,393,414,432,454,474,493,514,532,553,574,592,613,632,652,672,693,712,734,753,772,792,812,833,854,873,893,912,932,953,974,993,1013,1032,1053,1074,1092,1113,1133,1153,1174,1193,1214,1232,1253,1273,1293,1312,1334,1353,1374,1393,1412,1432,1454,1473,1493,1512,1532,1552,1574,1593,1613,1632,1654,1672,1693,1712,1733,1753,1774,1793,1812,1832,1853,1872,1893,1912,1932,1953,1974,1992,2012,2032,2052,2073,2092,2112,2132,2152,2174,2194,2213,2233,2252,2274,2293,2312,2332,2353,2374,2393,2413,2433,2454,2472,2492,2512,2533,2553,2573],"xSR":741.5,"ySR":573.95,"xT1":424.9,"yT1":0,"xT2":1058.1,"yT2":0,"toosoon":0,"cond_shown":"Congruent","ratio_trial":200,"L_num":9,"L_den":20,"R_num":4,"R_den":16,"correct_side":1,"subjID":"SARAVALENTINARUBIOGAMEZ1","gender":"1","school":"6","age":"11"},{"start_time":1551900015462,"click_time":1551900020190,"finger_time":1551900015829,"fix_duration":250,"trial":2,"RT":367,"MT":4361,"sideResp":2,"stimulus":[],"xmouse":[792,792,792,792,792,792,792,792,792,792,792,791,790,790,788,785,779,772,757,728,709,701,700,700,707,729,758,797,836,859,864,875,885,893,920,933,936,936,936,937,944,957,967,968,969,969,969,969,961,922,846,758,679,630,613,610,607,607,606,606,606,606,605,602,601,600,602,618,649,675,713,751,783,800,800,800,800,794,789,789,789,790,796,813,825,827,827,827,821,792,774,760,751,747,744,739,734,732,729,729,729,729,729,729,729,732,741,751,771,776,777,779,780,782,783,784,784,787,787,787,787,787,788,788,788,788,788,788,788,788,788,788,788,788,788,788,788,788,788,788,788,788,787,784,784,784,784,784,784,784,784,784,784,784,784,784,784,784,784,784,783,782,782,780,778,778,776,775,773,772,771,771,770,770,770,768,761,758,732,725,721,717,717,717,717,717,717,717,717,717,717,717,717,717,717,717,717,717,717,717,717,717,717,717,717,717,717,717,717,717,717,717,716,716,716,716,718,722,730,742,761,790,823,848,913,956,993,1039,1118,1127,1138,1145,1147,1147,1141,1128,1117],"ymouse":[646,646,646,646,646,646,646,646,646,646,646,643,641,639,629,618,604,587,560,497,467,451,448,448,447,444,434,423,413,399,392,381,374,367,351,344,342,342,342,341,335,326,319,318,317,314,312,304,298,286,275,258,231,198,167,144,109,100,85,80,80,80,80,81,90,100,116,139,151,153,153,153,153,152,152,151,151,151,153,154,157,160,165,172,182,186,187,190,193,205,216,226,235,249,261,278,290,300,311,311,311,311,312,314,316,317,320,323,329,330,330,331,332,332,332,333,333,333,333,333,333,333,333,333,333,333,333,333,333,333,333,333,333,333,333,333,333,333,333,333,333,333,333,333,333,333,333,333,333,333,333,333,333,333,333,333,333,333,333,333,333,333,332,331,329,328,325,323,321,319,317,317,316,316,316,316,314,312,299,295,291,289,289,289,289,289,289,289,289,289,289,289,289,289,289,289,289,289,289,289,289,289,289,289,289,289,289,289,289,289,289,289,289,290,292,293,296,299,303,307,312,315,319,319,312,302,287,269,227,208,187,166,149,126,114,101,96],"timestamp_mouse":[10,35,47,68,88,108,128,149,168,187,209,228,248,267,287,309,328,348,367,388,407,427,447,467,487,509,527,547,567,588,607,628,648,667,687,708,729,747,767,787,807,827,847,867,887,908,928,949,968,989,1007,1028,1048,1067,1087,1107,1128,1147,1167,1188,1208,1228,1248,1267,1288,1307,1328,1348,1368,1387,1409,1428,1448,1468,1489,1508,1528,1548,1568,1587,1607,1629,1648,1667,1688,1707,1727,1748,1767,1788,1807,1828,1848,1869,1888,1909,1929,1948,1968,1989,2008,2028,2048,2068,2087,2107,2128,2148,2168,2187,2207,2228,2248,2269,2287,2307,2328,2348,2368,2388,2407,2428,2447,2468,2488,2508,2529,2548,2569,2587,2608,2628,2649,2667,2688,2707,2727,2748,2768,2787,2807,2827,2848,2868,2888,2908,2928,2947,2967,2987,3008,3027,3047,3068,3088,3107,3127,3147,3167,3189,3209,3228,3248,3268,3289,3307,3328,3348,3367,3388,3408,3429,3449,3469,3488,3509,3528,3548,3568,3587,3607,3628,3649,3669,3689,3707,3727,3747,3767,3788,3807,3828,3849,3868,3888,3908,3927,3947,3967,3989,4008,4028,4047,4067,4087,4109,4128,4148,4167,4188,4208,4228,4247,4269,4287,4308,4328,4347,4367,4387,4408,4429,4448,4468,4487,4509,4528,4547,4568,4587,4609,4628,4649,4669,4687,4707,4728],"xSR":741.5,"ySR":573.95,"xT1":424.9,"yT1":0,"xT2":1058.1,"yT2":0,"toosoon":0,"cond_shown":"Congruent","ratio_trial":200,"L_num":3,"L_den":10,"R_num":14,"R_den":28,"correct_side":2,"subjID":"SARAVALENTINARUBIOGAMEZ1","gender":"1","school":"6","age":"11"},{"start_time":1551900022138,"click_time":1551900023350,"finger_time":1551900023229,"fix_duration":426.50233544594397,"trial":3,"RT":1091,"MT":121,"sideResp":2,"stimulus":[],"xmouse":[769,769,769,769,769,770,771,772,772,772,772,772,772,772,772,772,772,772,772,772,772,772,772,772,772,772,772,772,772,772,772,772,772,772,772,772,772,772,772,772,772,772,772,772,772,772,772,772,772,772,772,779,786,808,866,975,1010,1041,1067,1118,1143],"ymouse":[621,621,621,621,621,621,621,621,621,621,621,621,621,621,621,621,621,621,621,621,621,621,621,621,621,621,621,621,621,621,621,621,621,621,621,621,621,621,621,621,621,621,621,621,621,621,621,621,621,621,621,619,611,582,520,412,360,302,250,141,94],"timestamp_mouse":[16,42,53,71,91,112,131,151,173,192,211,232,252,272,292,312,332,351,372,392,411,431,453,473,492,513,532,551,572,593,612,632,652,671,692,712,733,751,771,792,811,831,853,872,891,913,931,952,971,993,1012,1032,1051,1071,1091,1112,1131,1152,1172,1192,1212],"xSR":741.5,"ySR":573.95,"xT1":424.9,"yT1":0,"xT2":1058.1,"yT2":0,"toosoon":0,"cond_shown":"Congruent","ratio_trial":300,"L_num":7,"L_den":14,"R_num":20,"R_den":25,"correct_side":2,"subjID":"SARAVALENTINARUBIOGAMEZ1","gender":"1","school":"6","age":"11"},{"start_time":1551900029150,"click_time":1551900030949,"finger_time":1551900029549,"fix_duration":1497.0490362258436,"trial":4,"RT":399,"MT":1400,"sideResp":2,"stimulus":[],"xmouse":[805,805,805,805,805,805,805,805,805,805,805,805,805,806,809,821,822,822,822,822,831,843,852,862,866,868,868,868,868,868,868,868,868,868,868,866,864,862,861,857,852,850,848,847,846,841,840,839,838,837,835,834,833,831,831,831,831,830,830,829,829,829,829,829,828,828,828,828,828,828,828,828,828,828,828,830,852,906,994,1178,1250,1290,1305,1306,1306,1306,1306,1291,1264,1228,1144],"ymouse":[637,637,637,637,637,637,637,637,637,637,637,637,635,629,620,592,590,588,588,588,573,556,541,529,523,519,518,517,517,517,517,517,517,517,517,519,520,521,522,527,534,536,539,543,548,559,562,563,566,568,572,575,579,582,582,582,583,584,586,587,587,588,588,588,589,589,589,589,589,589,589,589,589,589,589,587,557,490,380,123,20,0,0,0,0,0,0,0,0,5,30],"timestamp_mouse":[9,20,39,60,81,99,119,140,160,179,201,219,239,260,280,299,319,339,359,379,399,421,439,459,479,500,521,540,559,579,600,621,640,660,679,700,720,739,760,779,799,819,840,860,881,900,919,940,959,979,999,1020,1039,1061,1080,1101,1119,1140,1159,1181,1200,1221,1240,1259,1280,1300,1319,1340,1359,1379,1400,1420,1439,1461,1479,1500,1519,1540,1559,1581,1600,1620,1639,1659,1680,1699,1719,1740,1760,1779,1799],"xSR":741.5,"ySR":573.95,"xT1":424.9,"yT1":0,"xT2":1058.1,"yT2":0,"toosoon":0,"cond_shown":"Congruent","ratio_trial":200,"L_num":3,"L_den":10,"R_num":14,"R_den":28,"correct_side":2,"subjID":"SARAVALENTINARUBIOGAMEZ1","gender":"1","school":"6","age":"11"},{"start_time":1551900033303,"click_time":1551900035049,"finger_time":1551900034549,"fix_duration":652.3636832260936,"trial":5,"RT":1246,"MT":500,"sideResp":1,"stimulus":[],"xmouse":[806,806,806,806,806,806,806,806,806,806,806,806,806,806,806,806,806,806,806,806,806,806,806,806,806,806,806,806,806,806,806,806,806,806,806,806,806,806,806,806,806,806,806,806,806,806,806,806,806,806,806,806,806,806,806,806,806,806,806,806,804,794,784,758,709,645,576,551,550,550,550,551,555,554,549,549,548,540,534,527,519,514,512,512,512,512,512,522],"ymouse":[601,601,601,601,601,601,601,601,601,601,601,601,601,601,601,601,601,601,601,601,601,601,601,601,601,601,601,601,601,601,601,601,601,601,601,601,601,601,601,601,601,601,601,601,601,601,601,601,601,601,601,601,601,601,601,601,601,601,601,601,601,587,571,538,486,431,365,325,320,319,316,300,216,194,176,171,170,160,150,139,131,126,125,125,125,122,118,95],"timestamp_mouse":[9,28,47,67,87,108,126,147,167,187,206,226,248,266,288,307,326,347,367,386,406,427,446,468,488,506,527,546,567,588,606,627,647,666,687,706,726,747,768,787,806,826,846,867,886,906,926,947,966,987,1006,1026,1048,1066,1087,1106,1128,1147,1166,1186,1206,1228,1246,1267,1286,1307,1327,1347,1367,1388,1407,1427,1448,1467,1486,1507,1526,1547,1567,1586,1607,1626,1646,1666,1686,1707,1727,1746],"xSR":741.5,"ySR":573.95,"xT1":424.9,"yT1":0,"xT2":1058.1,"yT2":0,"toosoon":0,"cond_shown":"Incongruent","ratio_trial":300,"L_num":4,"L_den":5,"R_num":6,"R_den":12,"correct_side":1,"subjID":"SARAVALENTINARUBIOGAMEZ1","gender":"1","school":"6","age":"11"},{"start_time":1551900037863,"click_time":1551900039510,"finger_time":1551900039230,"fix_duration":250,"trial":6,"RT":1367,"MT":280,"sideResp":2,"stimulus":[],"xmouse":[798,798,798,798,798,798,798,798,798,798,798,798,798,798,798,798,798,798,798,798,798,798,798,798,798,798,798,798,798,798,798,798,798,798,798,798,798,798,798,798,798,798,798,798,798,798,798,798,798,798,798,798,798,798,798,798,798,798,798,798,798,798,798,798,798,798,803,814,861,946,980,1002,1015,1024,1024,1024,1024,1024,1024,1032,1041,1049,1059],"ymouse":[633,633,633,633,633,633,633,633,633,633,633,633,633,633,633,633,633,633,633,633,633,633,633,633,633,633,633,633,633,633,633,633,633,633,633,633,633,633,633,633,633,633,633,633,633,633,633,633,633,633,633,633,633,633,633,633,633,633,633,633,633,633,633,633,633,633,625,606,540,353,287,231,184,123,110,104,101,100,98,78,71,68,66],"timestamp_mouse":[8,34,47,67,87,107,126,146,168,187,206,227,247,267,287,307,327,348,367,387,407,426,447,466,486,507,528,547,567,587,608,628,647,666,686,706,727,748,768,786,808,827,847,867,888,908,927,947,967,988,1007,1028,1047,1067,1088,1106,1126,1147,1167,1187,1206,1227,1247,1267,1287,1308,1326,1346,1367,1387,1406,1427,1446,1467,1486,1508,1526,1547,1566,1588,1606,1628,1647],"xSR":741.5,"ySR":573.95,"xT1":424.9,"yT1":0,"xT2":1058.1,"yT2":0,"toosoon":0,"cond_shown":"Incongruent","ratio_trial":300,"L_num":4,"L_den":5,"R_num":8,"R_den":16,"correct_side":1,"subjID":"SARAVALENTINARUBIOGAMEZ1","gender":"1","school":"6","age":"11"},{"start_time":1551900042735,"click_time":1551900044570,"finger_time":1551900044229,"fix_duration":641.206640211454,"trial":7,"RT":1494,"MT":341,"sideResp":1,"stimulus":[],"xmouse":[767,767,767,767,767,767,767,767,767,767,767,767,767,767,767,767,767,767,767,767,767,767,767,767,767,767,767,767,767,767,767,767,767,767,767,767,767,767,767,767,767,767,767,767,767,767,767,767,767,767,767,767,767,767,767,767,767,767,767,767,767,767,767,767,767,767,767,767,767,767,767,765,760,752,732,687,646,604,579,567,562,562,562,571,577,586,580,571,560,538,528,519],"ymouse":[631,631,631,631,631,631,631,631,631,631,631,631,631,631,631,631,631,631,631,631,631,631,631,631,631,631,631,631,631,631,631,631,631,631,631,631,631,631,631,631,631,631,631,631,631,631,631,631,631,631,631,631,631,631,631,631,631,631,631,631,631,631,631,631,631,631,631,631,631,631,631,625,614,596,567,516,476,434,396,369,332,309,285,239,223,142,120,106,94,78,72,66],"timestamp_mouse":[15,43,54,74,96,114,134,154,174,194,214,234,255,274,295,315,334,356,375,394,416,434,455,474,494,514,535,554,576,596,615,634,654,676,695,714,734,754,775,795,814,835,855,875,894,916,934,955,975,994,1015,1035,1054,1075,1094,1116,1134,1155,1175,1194,1216,1234,1256,1275,1295,1314,1336,1354,1374,1395,1414,1435,1455,1475,1494,1515,1535,1555,1575,1594,1614,1634,1655,1674,1694,1715,1735,1754,1774,1796,1814,1835],"xSR":741.5,"ySR":573.95,"xT1":424.9,"yT1":0,"xT2":1058.1,"yT2":0,"toosoon":0,"cond_shown":"Incongruent","ratio_trial":300,"L_num":4,"L_den":20,"R_num":2,"R_den":4,"correct_side":2,"subjID":"SARAVALENTINARUBIOGAMEZ1","gender":"1","school":"6","age":"11"},{"start_time":1551900046784,"click_time":1551900048269,"finger_time":1551900048190,"fix_duration":1033.5852717262705,"trial":8,"RT":1406,"MT":79,"sideResp":2,"stimulus":[],"xmouse":[817,817,817,817,817,817,817,817,817,817,817,817,817,817,817,817,817,817,817,817,817,817,817,817,817,817,817,817,817,817,817,817,817,817,817,817,817,817,817,817,817,817,817,817,817,817,817,817,817,817,817,817,817,817,817,817,817,817,817,817,817,817,817,817,817,817,817,817,817,827,877,959,981,1057,1071],"ymouse":[641,641,641,641,641,641,641,641,641,641,641,641,641,641,641,641,641,641,641,641,641,641,641,641,641,641,641,641,641,641,641,641,641,641,641,641,641,641,641,641,641,641,641,641,641,641,641,641,641,641,641,641,641,641,641,641,641,641,641,641,641,641,641,641,641,641,641,641,641,617,549,412,360,92,36],"timestamp_mouse":[8,34,46,66,85,105,126,146,165,185,205,227,246,267,285,306,325,345,366,387,407,426,445,465,486,505,527,546,566,587,606,626,646,665,685,707,726,745,766,785,806,825,845,867,886,905,927,945,965,987,1005,1026,1045,1065,1085,1106,1126,1146,1167,1185,1205,1227,1246,1265,1285,1307,1325,1345,1365,1385,1406,1425,1445,1465,1485],"xSR":741.5,"ySR":573.95,"xT1":424.9,"yT1":0,"xT2":1058.1,"yT2":0,"toosoon":0,"cond_shown":"Incongruent","ratio_trial":200,"L_num":1,"L_den":2,"R_num":3,"R_den":10,"correct_side":1,"subjID":"SARAVALENTINARUBIOGAMEZ1","gender":"1","school":"6","age":"11"},{"start_time":1551900050081,"click_time":1551900055630,"finger_time":1551900055010,"fix_duration":691.1234843886123,"trial":9,"RT":4929,"MT":620,"sideResp":1,"stimulus":[],"xmouse":[802,802,802,802,802,802,802,801,800,800,800,800,800,800,800,800,800,800,800,800,800,800,800,800,800,800,800,800,800,800,800,800,800,800,800,800,800,800,800,800,800,800,800,800,800,800,800,800,800,800,800,800,799,799,799,799,799,799,799,799,799,799,799,799,799,799,799,799,799,799,799,799,799,799,799,799,799,799,799,799,799,799,799,799,799,799,799,799,799,799,799,799,799,798,797,796,795,795,795,795,795,795,795,795,795,795,795,795,795,795,795,795,795,795,795,795,795,795,796,796,796,797,797,797,798,799,800,802,806,811,814,814,815,815,815,815,815,815,815,815,815,815,815,815,815,814,812,811,810,811,812,814,815,816,816,815,815,814,814,814,814,814,814,810,807,805,804,804,802,800,798,795,792,790,790,790,790,789,789,789,789,789,789,789,789,789,789,789,789,789,789,789,789,789,789,789,789,789,789,789,789,789,789,789,789,789,789,789,789,789,789,789,789,789,789,789,789,789,789,789,789,789,789,789,789,789,789,789,789,789,789,789,789,789,789,789,789,789,789,789,789,789,789,789,789,789,797,806,811,811,811,811,811,811,811,811,808,786,776,768,765,763,763,761,759,756,755,755,755,754,752,734,642,598,563,540,525,518],"ymouse":[636,636,636,636,636,636,636,637,637,637,637,637,637,637,637,637,637,637,637,637,637,637,637,637,637,637,637,637,637,637,637,637,637,637,637,637,637,637,637,637,637,637,637,637,637,637,637,637,637,637,637,637,637,637,637,637,637,637,637,637,637,637,637,637,637,637,637,637,637,637,637,637,637,637,637,637,637,637,637,637,637,637,637,637,637,637,637,637,637,637,637,637,637,637,636,635,633,632,630,629,628,627,625,624,624,624,624,624,624,624,624,624,624,624,622,620,620,620,618,618,618,617,617,616,615,613,613,610,606,602,600,599,599,598,598,598,598,598,598,598,598,598,598,600,604,615,624,634,645,650,656,661,664,667,670,672,673,673,673,673,673,673,672,665,661,659,657,656,652,649,646,640,637,633,633,633,632,631,631,631,631,630,628,625,623,621,619,617,615,615,615,615,615,615,615,615,615,615,615,615,615,615,615,615,615,615,615,615,615,615,615,615,615,615,615,615,615,615,615,615,615,615,615,615,615,615,615,615,615,615,615,615,615,615,615,615,615,615,615,615,615,615,615,615,610,601,569,546,520,516,516,516,516,516,516,518,525,562,582,596,604,608,611,617,624,631,632,632,632,618,601,549,413,343,270,191,112,7],"timestamp_mouse":[13,36,49,69,88,110,128,148,169,188,209,230,248,269,288,309,328,348,368,388,408,429,450,469,490,508,530,548,569,589,608,629,650,669,688,709,728,748,770,788,809,829,850,870,888,909,930,948,969,989,1009,1028,1050,1069,1088,1108,1129,1148,1168,1189,1209,1229,1248,1268,1290,1308,1329,1348,1368,1389,1408,1429,1449,1470,1488,1508,1529,1548,1570,1588,1609,1629,1648,1670,1690,1708,1729,1748,1769,1789,1809,1829,1848,1869,1890,1908,1928,1948,1968,1990,2008,2028,2050,2069,2089,2109,2130,2148,2169,2189,2209,2229,2249,2269,2290,2310,2328,2349,2369,2388,2408,2429,2448,2468,2490,2508,2528,2548,2568,2588,2609,2628,2649,2669,2688,2709,2728,2749,2768,2788,2810,2828,2850,2868,2889,2908,2928,2949,2969,2988,3009,3029,3048,3068,3090,3108,3129,3150,3169,3189,3208,3228,3248,3268,3289,3309,3329,3348,3369,3388,3410,3429,3448,3469,3490,3509,3530,3548,3568,3588,3609,3628,3649,3669,3689,3708,3729,3748,3768,3789,3810,3828,3848,3870,3889,3910,3929,3950,3969,3989,4008,4029,4048,4069,4089,4108,4130,4148,4168,4190,4208,4229,4249,4270,4289,4308,4329,4348,4368,4390,4409,4429,4448,4469,4490,4509,4530,4548,4570,4590,4610,4629,4649,4670,4690,4709,4729,4750,4768,4789,4808,4829,4848,4868,4888,4909,4929,4950,4969,4989,5010,5029,5049,5070,5088,5108,5129,5149,5168,5188,5208,5228,5249,5268,5288,5308,5328,5349,5369,5388,5409,5429,5450,5468,5489,5509,5529,5549],"xSR":741.5,"ySR":573.95,"xT1":424.9,"yT1":0,"xT2":1058.1,"yT2":0,"toosoon":0,"cond_shown":"Congruent","ratio_trial":300,"L_num":11,"L_den":22,"R_num":2,"R_den":10,"correct_side":1,"subjID":"SARAVALENTINARUBIOGAMEZ1","gender":"1","school":"6","age":"11"},{"start_time":1551900058722,"click_time":1551900060348,"finger_time":1551900060109,"fix_duration":491.22982564774907,"trial":10,"RT":1387,"MT":239,"sideResp":2,"stimulus":[],"xmouse":[785,785,785,785,785,785,785,785,785,785,785,785,785,785,785,785,785,785,785,785,785,785,785,785,785,785,785,785,785,785,785,785,785,785,785,785,785,785,785,785,785,785,785,785,785,785,785,785,785,785,785,785,785,785,785,785,785,785,785,785,785,785,785,785,785,785,785,789,802,834,893,1030,1090,1142,1191,1203,1207,1207,1206,1201,1192,1143],"ymouse":[653,653,653,653,653,653,653,653,653,653,653,653,653,653,653,653,653,653,653,653,653,653,653,653,653,653,653,653,653,653,653,653,653,653,653,653,653,653,653,653,653,653,653,653,653,653,653,653,653,653,653,653,653,653,653,653,653,653,653,653,653,653,653,653,653,653,653,647,620,571,499,352,278,216,145,122,112,109,105,98,91,81],"timestamp_mouse":[13,34,48,67,86,106,127,147,166,186,206,226,246,266,288,307,327,348,367,387,408,427,447,467,487,508,528,547,566,586,606,626,646,667,686,706,727,747,766,788,808,828,846,867,888,907,927,947,968,987,1007,1026,1047,1066,1086,1108,1127,1146,1166,1188,1206,1228,1248,1267,1288,1307,1327,1346,1368,1387,1407,1426,1447,1466,1487,1508,1527,1547,1566,1587,1606,1626],"xSR":741.5,"ySR":573.95,"xT1":424.9,"yT1":0,"xT2":1058.1,"yT2":0,"toosoon":0,"cond_shown":"Congruent","ratio_trial":300,"L_num":2,"L_den":10,"R_num":12,"R_den":24,"correct_side":2,"subjID":"SARAVALENTINARUBIOGAMEZ1","gender":"1","school":"6","age":"11"},{"start_time":1551900062296,"click_time":1551900063630,"finger_time":1551900063529,"fix_duration":906.8070609174184,"trial":11,"RT":1233,"MT":101,"sideResp":2,"stimulus":[],"xmouse":[778,778,778,778,778,778,778,778,778,778,778,778,778,778,778,778,778,778,778,778,778,778,778,778,778,778,778,778,778,778,778,778,778,778,778,778,778,778,778,778,778,778,778,778,778,778,778,778,778,778,778,778,778,778,778,778,778,778,778,779,782,797,858,909,990,1031,1059],"ymouse":[633,633,633,633,633,633,633,633,633,633,633,633,633,633,633,633,633,633,633,633,633,633,633,633,633,633,633,633,633,633,633,633,633,633,633,633,633,633,633,633,633,633,633,633,633,633,633,633,633,633,633,633,633,633,633,633,633,633,633,615,600,548,384,293,169,116,83],"timestamp_mouse":[13,33,53,72,93,114,132,152,173,193,213,232,253,272,293,314,333,352,372,394,412,433,453,474,494,513,533,553,572,593,614,632,653,673,694,713,733,754,772,794,813,833,853,872,892,914,933,952,973,992,1013,1033,1052,1073,1092,1113,1133,1152,1172,1193,1213,1233,1252,1272,1292,1313,1334],"xSR":741.5,"ySR":573.95,"xT1":424.9,"yT1":0,"xT2":1058.1,"yT2":0,"toosoon":0,"cond_shown":"Incongruent","ratio_trial":300,"L_num":1,"L_den":2,"R_num":3,"R_den":15,"correct_side":1,"subjID":"SARAVALENTINARUBIOGAMEZ1","gender":"1","school":"6","age":"11"},{"start_time":1551900065820,"click_time":1551900067569,"finger_time":1551900067168,"fix_duration":988.9074651235996,"trial":12,"RT":1348,"MT":401,"sideResp":2,"stimulus":[],"xmouse":[788,788,788,788,788,788,788,788,788,788,788,788,788,788,788,788,788,788,788,788,788,788,788,788,788,788,788,788,788,788,788,788,788,788,788,788,788,788,788,788,788,788,788,788,788,788,788,788,788,788,788,788,788,788,788,788,788,788,788,788,788,788,788,788,788,789,799,824,854,883,896,943,975,1000,1011,1015,1016,1016,1016,1016,1018,1038,1045,1047,1050,1051,1054,1061],"ymouse":[644,644,644,644,644,644,644,644,644,644,644,644,644,644,644,644,644,644,644,644,644,644,644,644,644,644,644,644,644,644,644,644,644,644,644,644,644,644,644,644,644,644,644,644,644,644,644,644,644,644,644,644,644,644,644,644,644,644,644,644,644,644,644,644,644,642,618,573,508,392,310,170,114,76,58,48,44,43,43,43,43,44,45,46,47,48,49,49],"timestamp_mouse":[14,43,48,69,89,109,129,148,169,189,209,228,248,270,289,308,329,348,368,388,408,430,449,468,489,510,528,548,569,589,609,629,649,669,688,708,728,749,769,788,810,828,849,868,890,909,928,948,969,988,1008,1029,1049,1069,1088,1109,1129,1148,1169,1189,1208,1228,1249,1268,1288,1308,1328,1348,1369,1388,1409,1429,1448,1468,1489,1508,1528,1549,1568,1588,1609,1629,1648,1668,1689,1709,1728,1749],"xSR":741.5,"ySR":573.95,"xT1":424.9,"yT1":0,"xT2":1058.1,"yT2":0,"toosoon":0,"cond_shown":"Congruent","ratio_trial":200,"L_num":3,"L_den":10,"R_num":7,"R_den":14,"correct_side":2,"subjID":"SARAVALENTINARUBIOGAMEZ1","gender":"1","school":"6","age":"11"},{"start_time":1551900071007,"click_time":1551900077749,"finger_time":1551900077348,"fix_duration":1117.959804362467,"trial":13,"RT":6341,"MT":401,"sideResp":2,"stimulus":[],"xmouse":[812,812,812,812,812,812,812,812,812,812,812,812,812,812,812,812,812,812,812,812,812,812,812,812,812,812,812,812,812,812,812,812,812,812,812,812,812,812,812,812,812,812,812,812,812,812,812,812,812,812,812,812,812,812,812,812,812,812,812,812,812,812,812,812,812,812,812,812,812,812,812,812,812,812,812,812,812,812,812,812,812,812,812,812,812,812,812,812,812,812,812,812,812,812,812,812,812,812,812,812,812,812,812,812,812,812,812,812,811,810,810,810,810,810,810,810,810,810,810,810,810,810,810,810,809,809,809,809,809,809,809,809,809,808,808,808,808,808,808,808,808,808,808,808,808,808,808,808,808,808,808,808,808,808,808,808,808,808,808,808,808,808,808,808,808,808,808,808,808,808,808,808,808,808,808,808,808,808,808,808,808,808,808,808,808,808,808,808,808,808,808,808,808,808,808,808,808,808,808,808,808,808,808,808,808,808,808,808,808,808,808,808,808,808,808,808,808,808,808,808,808,808,808,808,808,808,808,808,808,808,808,808,808,808,808,808,808,808,808,808,808,808,808,808,808,808,808,808,808,808,808,808,808,808,808,808,808,808,808,808,808,808,808,808,808,808,808,808,808,808,808,808,808,808,808,808,808,808,808,808,808,808,808,808,808,808,808,808,808,808,808,808,808,808,808,808,808,808,808,808,808,808,808,808,808,808,808,808,808,808,808,808,808,808,808,808,811,820,830,847,861,878,925,946,968,996,1032,1115,1144,1160,1163,1163,1163,1165,1166,1166,1165,1154],"ymouse":[656,656,656,656,656,656,656,656,656,656,656,656,656,656,656,656,656,656,656,656,656,656,656,656,656,656,656,656,656,656,656,656,656,656,656,656,656,656,656,656,656,656,656,656,656,656,656,656,656,656,656,656,656,656,656,656,656,656,656,656,656,656,656,656,656,656,656,656,656,656,656,656,656,656,656,656,656,656,656,656,656,656,656,656,656,656,656,656,656,656,656,656,656,656,656,656,656,656,656,656,656,656,656,656,656,656,653,649,647,647,647,647,647,647,647,647,647,647,647,647,647,647,647,647,646,646,646,646,643,642,639,635,635,635,635,635,635,635,635,635,635,635,635,635,635,635,635,635,635,635,635,635,635,635,635,635,635,635,635,635,635,635,635,635,635,635,635,635,635,635,635,635,635,635,635,635,635,635,635,635,635,635,635,635,635,635,635,635,635,635,635,635,635,635,635,635,635,635,635,635,635,635,635,635,635,635,635,635,635,635,635,635,635,635,635,635,635,635,635,635,635,635,635,635,635,635,635,635,635,635,635,635,635,635,635,635,635,635,635,635,635,635,635,635,635,635,635,635,635,635,635,635,635,635,635,635,635,635,635,635,635,635,635,635,635,635,635,635,635,635,635,635,635,635,635,635,635,635,635,635,635,635,635,635,635,635,635,635,635,635,635,635,635,635,635,635,635,635,635,635,635,635,635,635,635,635,635,635,635,635,635,635,635,635,633,630,614,569,544,494,445,392,266,218,167,99,21,0,0,0,0,0,0,0,1,4,9,17],"timestamp_mouse":[10,21,41,63,83,102,123,142,163,183,201,221,242,262,282,303,323,341,362,382,401,423,443,461,482,503,522,541,563,582,603,622,642,662,681,701,722,743,761,783,802,821,842,861,883,902,921,942,961,982,1001,1022,1043,1062,1082,1101,1123,1143,1161,1182,1203,1222,1243,1261,1283,1301,1321,1343,1361,1382,1402,1423,1441,1462,1481,1501,1521,1541,1563,1583,1602,1622,1641,1662,1683,1703,1722,1741,1762,1782,1803,1822,1842,1863,1881,1902,1921,1943,1962,1981,2002,2023,2042,2062,2083,2101,2122,2141,2162,2183,2202,2222,2243,2262,2282,2301,2321,2343,2363,2382,2403,2423,2442,2462,2481,2503,2522,2541,2563,2581,2603,2623,2642,2663,2683,2703,2723,2742,2763,2782,2802,2822,2842,2861,2882,2902,2921,2946,2963,2982,3002,3021,3042,3062,3082,3102,3121,3141,3163,3181,3202,3222,3241,3263,3281,3302,3322,3341,3361,3383,3401,3421,3442,3462,3482,3501,3522,3542,3562,3582,3603,3623,3642,3662,3681,3703,3722,3743,3762,3781,3801,3822,3842,3862,3882,3902,3922,3941,3961,3982,4001,4022,4042,4062,4082,4101,4123,4141,4161,4193,4202,4222,4243,4262,4282,4303,4321,4342,4361,4382,4402,4422,4441,4461,4482,4502,4521,4542,4562,4581,4602,4622,4643,4661,4682,4703,4722,4742,4762,4782,4801,4822,4842,4861,4882,4902,4922,4941,4962,4981,5001,5021,5041,5062,5081,5101,5123,5142,5161,5181,5203,5223,5241,5262,5281,5302,5322,5342,5363,5381,5402,5422,5442,5461,5481,5501,5522,5542,5562,5581,5603,5621,5642,5661,5683,5701,5721,5742,5762,5782,5802,5821,5842,5862,5883,5902,5921,5942,5961,5983,6002,6021,6042,6062,6081,6103,6122,6142,6161,6183,6202,6223,6241,6261,6282,6302,6323,6341,6362,6381,6402,6422,6442,6462,6482,6502,6522,6541,6562,6581,6601,6622,6642,6661,6682,6703,6722,6742],"xSR":741.5,"ySR":573.95,"xT1":424.9,"yT1":0,"xT2":1058.1,"yT2":0,"toosoon":0,"cond_shown":"Incongruent","ratio_trial":200,"L_num":7,"L_den":15,"R_num":6,"R_den":9,"correct_side":2,"subjID":"SARAVALENTINARUBIOGAMEZ1","gender":"1","school":"6","age":"11"},{"start_time":1551900079060,"click_time":1551900080570,"finger_time":1551900079948,"fix_duration":250,"trial":14,"RT":888,"MT":622,"sideResp":1,"stimulus":[],"xmouse":[780,780,780,780,780,780,780,780,780,780,780,780,780,780,780,780,780,780,780,780,780,780,780,780,780,780,780,780,780,780,780,780,780,780,780,780,780,780,780,780,780,780,778,775,743,692,670,594,556,539,539,539,539,539,544,548,553,567,575,578,578,578,578,578,578,578,577,577,577,573,572,570,564,548,513,470],"ymouse":[600,600,600,600,600,600,600,600,600,600,600,600,600,600,600,600,600,600,600,600,600,600,600,600,600,600,600,600,600,600,600,600,600,600,600,600,600,600,600,600,600,600,599,588,533,464,431,346,305,267,259,256,253,250,237,228,215,188,175,170,170,169,168,168,167,163,160,160,160,160,159,159,153,143,107,60],"timestamp_mouse":[9,36,50,70,89,109,129,150,169,188,210,228,248,270,288,308,329,348,369,388,410,429,448,468,488,510,529,549,569,588,610,628,649,668,689,709,728,750,768,788,810,828,848,869,888,909,929,949,969,989,1008,1030,1049,1068,1088,1108,1129,1148,1169,1189,1208,1229,1250,1269,1288,1308,1328,1349,1368,1388,1408,1428,1449,1468,1489,1510],"xSR":741.5,"ySR":573.95,"xT1":424.9,"yT1":0,"xT2":1058.1,"yT2":0,"toosoon":0,"cond_shown":"Congruent","ratio_trial":200,"L_num":6,"L_den":15,"R_num":3,"R_den":15,"correct_side":1,"subjID":"SARAVALENTINARUBIOGAMEZ1","gender":"1","school":"6","age":"11"},{"start_time":1551900082726,"click_time":1551900084369,"finger_time":1551900084109,"fix_duration":576.6551449213221,"trial":15,"RT":1383,"MT":260,"sideResp":2,"stimulus":[],"xmouse":[772,772,772,773,773,773,773,773,773,773,773,773,773,773,773,773,773,773,773,773,773,773,773,773,773,773,773,773,773,773,773,773,773,773,773,773,773,773,773,773,773,773,773,773,773,773,773,773,773,773,773,773,773,773,773,773,773,772,772,772,772,772,771,771,771,771,776,790,818,876,962,1129,1198,1237,1255,1256,1249,1243,1234,1219,1177,1165,1157],"ymouse":[642,642,642,641,641,641,641,641,641,641,641,641,641,641,641,641,641,641,641,641,641,641,641,641,641,641,641,641,641,641,641,641,641,641,641,641,641,641,641,641,641,641,641,641,641,641,641,641,641,641,641,641,641,641,641,641,641,641,641,641,641,641,641,641,641,640,630,616,592,544,472,296,213,148,95,83,58,47,38,31,26,26,26],"timestamp_mouse":[3,39,43,62,83,103,124,142,163,182,204,223,243,262,282,304,322,344,362,382,404,423,443,462,482,503,522,543,563,582,603,624,642,663,682,704,723,742,762,782,802,822,843,863,884,904,922,944,963,982,1003,1022,1042,1063,1082,1103,1123,1142,1163,1183,1203,1222,1243,1263,1283,1302,1323,1342,1363,1383,1403,1422,1444,1463,1483,1502,1524,1543,1563,1582,1604,1623,1643],"xSR":741.5,"ySR":573.95,"xT1":424.9,"yT1":0,"xT2":1058.1,"yT2":0,"toosoon":0,"cond_shown":"Incongruent","ratio_trial":200,"L_num":9,"L_den":15,"R_num":8,"R_den":10,"correct_side":2,"subjID":"SARAVALENTINARUBIOGAMEZ1","gender":"1","school":"6","age":"11"},{"start_time":1551900089638,"click_time":1551900090608,"finger_time":1551900090330,"fix_duration":427.92152630919634,"trial":16,"RT":692,"MT":278,"sideResp":2,"stimulus":[],"xmouse":[780,780,780,780,780,780,780,780,780,780,780,780,780,780,780,780,780,780,780,780,780,780,780,780,780,780,780,780,780,780,780,780,785,801,890,947,991,1014,1014,1012,1018,1029,1035,1040,1043,1043,1046,1056,1063],"ymouse":[623,623,623,623,623,623,623,623,623,623,623,623,623,623,623,623,623,623,623,623,623,623,623,623,623,623,623,623,623,623,623,623,613,592,462,360,255,126,96,38,7,0,0,0,0,0,1,19,35],"timestamp_mouse":[11,41,51,70,90,112,130,151,171,191,210,230,251,270,292,310,330,351,372,391,411,431,451,471,492,511,530,551,570,591,611,630,652,671,692,710,731,750,770,791,811,831,852,871,892,911,931,950,970],"xSR":741.5,"ySR":573.95,"xT1":424.9,"yT1":0,"xT2":1058.1,"yT2":0,"toosoon":0,"cond_shown":"Incongruent","ratio_trial":200,"L_num":1,"L_den":3,"R_num":2,"R_den":15,"correct_side":1,"subjID":"SARAVALENTINARUBIOGAMEZ1","gender":"1","school":"6","age":"11"},{"start_time":1551900093449,"click_time":1551900094930,"finger_time":1551900094688,"fix_duration":1040.4302368061446,"trial":17,"RT":1239,"MT":242,"sideResp":1,"stimulus":[],"xmouse":[796,796,796,796,796,796,796,796,796,796,796,796,796,796,796,796,796,796,796,796,796,796,796,796,796,796,796,796,796,796,796,796,796,796,796,796,796,796,796,796,796,796,796,796,796,796,796,796,796,796,796,796,796,796,796,796,796,796,796,796,796,785,767,710,669,641,628,623,622,622,619,602,580,521],"ymouse":[619,619,619,619,619,619,619,619,619,619,619,619,619,619,619,619,619,619,619,619,619,619,619,619,619,619,619,619,619,619,619,619,619,619,619,619,619,619,619,619,619,619,619,619,619,619,619,619,619,619,619,619,619,619,619,619,619,619,619,603,575,524,467,332,270,206,164,144,132,130,118,100,84,75],"timestamp_mouse":[31,40,59,80,101,120,140,161,181,199,221,241,259,281,300,319,339,361,379,400,419,440,459,481,500,519,540,561,580,600,621,639,660,681,699,721,740,759,779,801,819,840,859,879,900,919,940,959,981,1000,1019,1039,1060,1080,1100,1119,1140,1159,1179,1200,1219,1239,1260,1281,1299,1320,1339,1361,1381,1400,1420,1439,1459,1481],"xSR":741.5,"ySR":573.95,"xT1":424.9,"yT1":0,"xT2":1058.1,"yT2":0,"toosoon":0,"cond_shown":"Incongruent","ratio_trial":300,"L_num":4,"L_den":20,"R_num":2,"R_den":4,"correct_side":2,"subjID":"SARAVALENTINARUBIOGAMEZ1","gender":"1","school":"6","age":"11"},{"start_time":1551900097241,"click_time":1551900098130,"finger_time":1551900098048,"fix_duration":1011.3437762567378,"trial":18,"RT":807,"MT":82,"sideResp":2,"stimulus":[],"xmouse":[787,787,787,787,787,787,787,787,787,787,787,787,787,787,787,787,787,787,787,787,787,787,787,787,787,787,787,787,787,787,787,787,787,787,787,787,787,787,787,799,867,931,993,1045,1124],"ymouse":[634,634,634,634,634,634,634,634,634,634,634,634,634,634,634,634,634,634,634,634,634,634,634,634,634,634,634,634,634,634,634,634,634,634,634,634,634,634,632,609,484,380,268,174,26],"timestamp_mouse":[9,28,47,68,87,108,128,147,168,188,209,227,248,269,287,308,328,348,369,387,407,429,447,468,487,508,528,548,567,587,607,627,647,667,689,708,727,748,768,788,807,827,848,868,889],"xSR":741.5,"ySR":573.95,"xT1":424.9,"yT1":0,"xT2":1058.1,"yT2":0,"toosoon":0,"cond_shown":"Congruent","ratio_trial":200,"L_num":7,"L_den":15,"R_num":18,"R_den":27,"correct_side":2,"subjID":"SARAVALENTINARUBIOGAMEZ1","gender":"1","school":"6","age":"11"},{"start_time":1551900100606,"click_time":1551900102648,"finger_time":1551900102189,"fix_duration":896.0959058431494,"trial":19,"RT":1583,"MT":459,"sideResp":1,"stimulus":[],"xmouse":[810,810,810,810,810,810,810,810,810,810,810,810,810,810,810,810,810,810,810,810,810,810,810,810,810,810,810,810,810,810,810,810,810,810,810,810,810,810,810,810,810,810,810,810,810,810,810,810,810,810,810,810,810,810,810,810,810,810,810,810,810,810,810,810,810,810,810,810,810,810,810,810,810,810,810,810,811,814,821,831,839,842,842,842,842,844,846,852,856,862,869,872,872,871,869,863,843,813,742,658,562,529,507],"ymouse":[630,630,630,630,630,630,630,630,630,630,630,630,630,630,630,630,630,630,630,630,630,630,630,630,630,630,630,630,630,630,630,630,630,630,630,630,630,630,630,630,630,630,630,630,630,630,630,630,630,630,630,630,630,630,630,630,630,630,630,630,630,630,630,630,630,630,630,630,630,630,630,630,630,630,630,630,624,608,585,541,484,398,284,240,207,183,166,142,130,117,104,92,89,86,84,81,75,71,68,68,68,68,68],"timestamp_mouse":[8,22,42,63,82,102,123,143,163,182,202,222,243,262,283,302,322,342,363,382,404,422,442,462,483,503,523,542,562,583,602,622,642,663,682,703,724,743,762,784,803,823,843,862,883,903,924,944,963,983,1002,1024,1042,1062,1083,1102,1124,1142,1164,1182,1204,1222,1243,1263,1283,1303,1322,1343,1362,1383,1402,1422,1443,1462,1482,1502,1523,1542,1562,1583,1602,1623,1643,1663,1682,1702,1723,1742,1764,1782,1803,1823,1843,1864,1884,1903,1924,1942,1964,1983,2002,2022,2042],"xSR":741.5,"ySR":573.95,"xT1":424.9,"yT1":0,"xT2":1058.1,"yT2":0,"toosoon":0,"cond_shown":"Congruent","ratio_trial":300,"L_num":3,"L_den":6,"R_num":2,"R_den":10,"correct_side":1,"subjID":"SARAVALENTINARUBIOGAMEZ1","gender":"1","school":"6","age":"11"},{"start_time":1551900104142,"click_time":1551900105589,"finger_time":1551900105489,"fix_duration":293.4038087724071,"trial":20,"RT":1347,"MT":100,"sideResp":2,"stimulus":[],"xmouse":[797,797,797,797,797,797,797,797,797,797,797,797,797,797,797,797,797,797,797,797,797,797,797,797,797,797,797,797,797,797,797,797,797,797,797,797,797,797,797,797,797,797,797,797,797,797,797,797,797,797,797,797,797,797,797,797,797,797,797,797,797,797,797,797,797,803,813,831,850,914,966,1034,1096],"ymouse":[610,610,610,610,610,610,610,610,610,610,610,610,610,610,610,610,610,610,610,610,610,610,610,610,610,610,610,610,610,610,610,610,610,610,610,610,610,610,610,610,610,610,610,610,610,610,610,610,610,610,610,610,610,610,610,610,610,610,610,610,610,610,610,610,610,601,583,558,515,374,276,166,56],"timestamp_mouse":[9,37,46,67,86,108,128,146,168,187,206,227,246,267,286,307,328,346,367,386,408,427,447,467,486,507,527,547,567,587,607,626,647,666,686,707,727,747,766,787,807,827,847,866,888,907,927,948,968,987,1006,1026,1046,1067,1088,1106,1126,1147,1167,1187,1207,1228,1247,1267,1287,1306,1326,1347,1366,1387,1406,1427,1447],"xSR":741.5,"ySR":573.95,"xT1":424.9,"yT1":0,"xT2":1058.1,"yT2":0,"toosoon":0,"cond_shown":"Incongruent","ratio_trial":300,"L_num":3,"L_den":6,"R_num":4,"R_den":20,"correct_side":1,"subjID":"SARAVALENTINARUBIOGAMEZ1","gender":"1","school":"6","age":"11"},{"start_time":1551900107758,"click_time":1551900110050,"finger_time":1551900109348,"fix_duration":1127.2298842302102,"trial":21,"RT":1590,"MT":702,"sideResp":1,"stimulus":[],"xmouse":[818,818,818,818,818,818,818,818,818,818,818,818,818,818,818,818,818,818,818,818,818,818,818,818,818,818,818,818,818,818,818,818,818,818,818,818,818,818,818,818,818,818,818,818,818,818,818,818,818,818,818,818,818,818,818,818,818,818,818,818,818,818,818,818,818,818,818,818,818,818,818,817,817,816,815,814,813,812,811,805,794,763,677,601,410,327,260,226,212,217,241,271,304,320,330,330,333,344,354,380,388,388,388,389,389,389,390,392,393,395,403,408,414,424,443],"ymouse":[618,618,617,617,617,617,617,617,617,617,617,617,617,617,617,617,617,617,617,617,617,617,617,617,617,617,617,617,617,617,617,617,617,617,617,617,617,617,617,617,617,617,617,617,617,617,617,617,617,617,617,617,617,617,617,617,617,617,617,617,617,617,617,617,617,617,617,617,617,617,616,613,612,609,605,602,599,594,586,566,537,479,381,325,204,154,114,89,75,42,12,0,0,0,0,0,0,0,3,8,12,12,12,15,18,20,23,27,35,41,50,55,59,60,60],"timestamp_mouse":[11,36,50,70,92,110,132,150,171,192,211,231,250,272,292,311,331,352,372,390,410,431,451,471,492,510,531,551,572,591,612,631,651,672,691,712,731,751,772,792,811,830,851,872,892,911,931,952,971,990,1011,1032,1051,1070,1091,1112,1131,1151,1170,1191,1210,1230,1251,1271,1291,1310,1330,1352,1372,1390,1410,1430,1452,1470,1491,1510,1530,1550,1570,1590,1610,1631,1651,1671,1690,1711,1730,1750,1771,1790,1810,1832,1850,1871,1892,1911,1931,1952,1971,1990,2010,2031,2050,2071,2090,2110,2132,2151,2171,2190,2211,2231,2250,2271,2292],"xSR":741.5,"ySR":573.95,"xT1":424.9,"yT1":0,"xT2":1058.1,"yT2":0,"toosoon":0,"cond_shown":"Congruent","ratio_trial":100,"L_num":11,"L_den":22,"R_num":4,"R_den":10,"correct_side":1,"subjID":"SARAVALENTINARUBIOGAMEZ1","gender":"1","school":"6","age":"11"},{"start_time":1551900114047,"click_time":1551900115848,"finger_time":1551900115268,"fix_duration":1277.4983067734818,"trial":22,"RT":1221,"MT":580,"sideResp":1,"stimulus":[],"xmouse":[782,782,782,782,782,782,782,782,782,782,782,782,782,782,782,782,782,782,782,782,782,782,782,782,782,782,782,782,782,782,782,782,782,782,782,782,782,782,782,782,782,782,782,782,782,782,782,782,782,782,782,782,782,782,782,782,782,782,782,782,782,780,772,756,737,724,714,695,675,655,652,652,652,652,651,641,623,586,571,542,533,533,533,533,533,533,533,533,533,532,523],"ymouse":[625,625,625,625,625,625,625,625,625,625,625,625,625,625,625,625,625,625,625,625,625,625,625,625,625,625,625,625,625,625,625,625,625,625,625,625,625,625,625,625,625,625,625,625,625,625,625,625,625,625,625,625,625,625,625,625,625,625,625,625,596,571,540,483,415,296,230,178,134,87,81,81,81,81,80,82,84,88,90,90,90,90,90,90,90,90,90,90,90,90,90],"timestamp_mouse":[8,34,42,61,82,103,121,141,163,183,201,222,241,262,282,301,322,341,361,382,401,421,443,461,483,503,521,541,561,583,602,621,642,663,682,701,723,742,762,781,802,821,842,862,882,902,921,943,962,982,1001,1022,1041,1063,1081,1101,1121,1143,1162,1181,1202,1221,1241,1262,1281,1301,1321,1341,1363,1382,1401,1421,1443,1461,1483,1501,1521,1541,1561,1582,1601,1621,1643,1663,1682,1702,1721,1743,1762,1781,1801],"xSR":741.5,"ySR":573.95,"xT1":424.9,"yT1":0,"xT2":1058.1,"yT2":0,"toosoon":0,"cond_shown":"Congruent","ratio_trial":200,"L_num":14,"L_den":28,"R_num":6,"R_den":20,"correct_side":1,"subjID":"SARAVALENTINARUBIOGAMEZ1","gender":"1","school":"6","age":"11"},{"start_time":1551900117956,"click_time":1551900119649,"finger_time":1551900119330,"fix_duration":566.4022514781539,"trial":23,"RT":1374,"MT":319,"sideResp":2,"stimulus":[],"xmouse":[775,775,775,775,775,775,775,775,775,775,775,775,775,775,775,775,775,775,775,775,775,775,775,775,775,775,775,775,775,775,775,775,775,775,775,775,775,775,775,775,775,775,775,775,775,775,775,775,775,775,775,775,775,775,775,775,775,775,775,775,775,775,775,775,775,775,781,788,809,883,926,961,995,1025,1057,1060,1060,1060,1060,1062,1064,1064,1064,1064,1069],"ymouse":[613,613,613,613,613,613,613,613,613,613,613,613,613,613,613,613,613,613,613,613,613,613,613,613,613,613,613,613,613,613,613,613,613,613,613,613,613,613,613,613,613,613,613,613,613,613,613,613,613,613,613,613,613,613,613,613,613,613,613,613,613,613,613,613,613,613,608,599,566,396,306,228,147,80,11,0,0,0,0,0,0,0,0,0,22],"timestamp_mouse":[14,38,53,73,92,113,132,153,173,193,212,234,252,272,292,313,332,353,374,392,413,433,453,473,492,513,533,553,572,592,613,633,652,673,692,713,732,753,773,794,814,834,853,873,894,915,933,953,973,995,1014,1033,1053,1073,1093,1115,1133,1153,1175,1193,1213,1233,1253,1273,1293,1313,1334,1354,1374,1393,1414,1433,1453,1474,1493,1513,1534,1553,1573,1594,1613,1633,1653,1673,1693],"xSR":741.5,"ySR":573.95,"xT1":424.9,"yT1":0,"xT2":1058.1,"yT2":0,"toosoon":0,"cond_shown":"Incongruent","ratio_trial":200,"L_num":7,"L_den":10,"R_num":14,"R_den":28,"correct_side":1,"subjID":"SARAVALENTINARUBIOGAMEZ1","gender":"1","school":"6","age":"11"},{"start_time":1551900121741,"click_time":1551900123650,"finger_time":1551900123210,"fix_duration":770.077268889002,"trial":24,"RT":1469,"MT":440,"sideResp":1,"stimulus":[],"xmouse":[782,782,782,782,782,782,782,782,782,782,782,782,782,782,782,782,782,782,782,782,782,782,782,782,782,782,782,782,782,782,782,782,782,782,782,782,782,782,782,782,782,782,782,782,782,782,782,782,782,782,782,782,782,782,782,782,782,782,782,782,782,782,782,782,782,782,782,782,782,782,781,782,782,781,771,754,740,722,705,681,669,658,648,635,609,575,569,561,554,550,524,504,486,468,458,445],"ymouse":[600,600,600,600,600,600,600,600,600,600,600,600,600,600,600,600,600,600,600,600,600,600,600,600,600,600,600,600,600,600,600,600,600,600,600,600,600,600,600,600,600,600,600,600,600,600,600,600,600,600,600,600,600,600,600,600,600,600,600,600,600,600,600,600,600,600,600,600,600,600,599,590,577,560,529,467,418,358,311,268,255,246,238,229,214,193,187,180,173,168,150,139,128,115,104,76],"timestamp_mouse":[15,36,48,68,88,108,128,149,168,188,208,228,248,269,288,308,328,349,369,389,409,428,449,468,489,509,528,549,568,589,610,628,648,668,689,709,728,749,769,789,810,828,850,868,889,908,930,949,969,989,1008,1029,1048,1068,1088,1109,1128,1149,1168,1188,1209,1228,1248,1269,1288,1308,1328,1348,1369,1388,1408,1428,1448,1469,1488,1508,1528,1550,1568,1590,1608,1629,1648,1668,1688,1710,1729,1748,1768,1788,1808,1828,1848,1870,1890,1909],"xSR":741.5,"ySR":573.95,"xT1":424.9,"yT1":0,"xT2":1058.1,"yT2":0,"toosoon":0,"cond_shown":"Congruent","ratio_trial":100,"L_num":6,"L_den":20,"R_num":5,"R_den":25,"correct_side":1,"subjID":"SARAVALENTINARUBIOGAMEZ1","gender":"1","school":"6","age":"11"},{"start_time":1551900125917,"click_time":1551900127109,"finger_time":1551900126669,"fix_duration":1146.4246141964268,"trial":25,"RT":752,"MT":440,"sideResp":2,"stimulus":[],"xmouse":[754,754,754,754,754,754,754,754,754,754,754,754,754,755,756,757,758,758,758,758,758,758,758,759,759,759,760,760,760,760,760,760,760,761,766,777,808,825,838,848,860,897,917,938,960,989,1012,1021,1028,1034,1040,1044,1045,1045,1045,1046,1046,1046,1056,1087],"ymouse":[609,609,609,609,609,609,609,609,609,609,609,610,610,611,611,611,611,611,611,611,611,611,611,611,611,611,611,611,611,611,611,611,611,610,607,599,575,558,542,528,507,450,415,367,318,247,185,167,150,133,111,82,75,75,75,74,74,74,70,61],"timestamp_mouse":[13,33,52,73,93,112,132,152,173,193,214,233,252,273,292,313,333,352,372,392,412,432,452,472,493,514,532,552,573,592,613,632,652,672,693,713,732,752,774,793,813,832,852,872,892,913,934,952,973,993,1013,1032,1053,1072,1093,1113,1132,1152,1172,1192],"xSR":741.5,"ySR":573.95,"xT1":424.9,"yT1":0,"xT2":1058.1,"yT2":0,"toosoon":0,"cond_shown":"Congruent","ratio_trial":100,"L_num":4,"L_den":10,"R_num":15,"R_den":30,"correct_side":2,"subjID":"SARAVALENTINARUBIOGAMEZ1","gender":"1","school":"6","age":"11"},{"start_time":1551900128901,"click_time":1551900130769,"finger_time":1551900130269,"fix_duration":830.24933384668,"trial":26,"RT":1368,"MT":500,"sideResp":1,"stimulus":[],"xmouse":[795,795,795,795,795,795,795,795,795,795,795,795,795,795,795,795,795,795,795,795,795,795,795,795,795,795,795,795,795,795,795,795,795,795,795,795,795,795,795,795,795,795,795,795,795,795,795,795,795,795,795,795,795,795,795,795,795,795,795,795,795,795,795,795,795,794,794,793,789,778,751,722,648,612,588,579,568,567,567,565,560,550,547,540,521,498,459,456,455,455,455,455,455,456],"ymouse":[610,610,610,610,610,610,610,610,610,610,610,610,610,610,610,610,610,610,610,610,610,610,610,610,610,610,610,610,610,610,610,610,610,610,610,610,610,610,610,610,610,610,610,610,610,610,610,610,610,610,610,610,610,610,610,610,610,610,610,610,610,610,610,610,610,610,601,575,552,524,478,428,302,248,212,193,162,159,158,152,146,138,136,135,131,127,106,103,103,103,103,103,100,96],"timestamp_mouse":[13,28,48,68,88,108,129,149,168,188,208,228,248,269,288,309,329,348,368,388,408,428,448,469,488,508,528,549,568,589,609,628,648,668,689,708,728,748,769,789,809,828,848,868,888,909,929,949,968,988,1008,1028,1048,1068,1088,1108,1128,1149,1169,1188,1209,1228,1248,1269,1288,1308,1328,1348,1368,1388,1409,1428,1448,1468,1488,1510,1530,1548,1568,1589,1609,1630,1648,1669,1688,1708,1730,1748,1769,1788,1810,1829,1848,1868],"xSR":741.5,"ySR":573.95,"xT1":424.9,"yT1":0,"xT2":1058.1,"yT2":0,"toosoon":0,"cond_shown":"Congruent","ratio_trial":100,"L_num":11,"L_den":22,"R_num":6,"R_den":15,"correct_side":1,"subjID":"SARAVALENTINARUBIOGAMEZ1","gender":"1","school":"6","age":"11"},{"start_time":1551900135295,"click_time":1551900136150,"finger_time":1551900135869,"fix_duration":423.70567334545575,"trial":27,"RT":574,"MT":281,"sideResp":2,"stimulus":[],"xmouse":[806,806,806,806,806,806,806,806,806,806,806,806,806,806,806,806,806,806,806,806,806,806,806,806,806,806,806,821,894,957,1015,1083,1200,1220,1224,1224,1221,1221,1221,1221,1214,1194,1156],"ymouse":[635,635,635,635,635,635,635,635,635,635,635,635,635,635,635,635,635,635,635,635,635,635,635,635,635,635,635,615,552,479,399,309,136,78,40,17,0,0,0,0,1,9,30],"timestamp_mouse":[15,34,54,75,95,114,134,156,174,196,215,234,254,276,294,314,335,355,374,396,414,434,454,474,496,514,535,555,574,596,615,634,654,674,695,715,736,755,774,795,816,835,854],"xSR":741.5,"ySR":573.95,"xT1":424.9,"yT1":0,"xT2":1058.1,"yT2":0,"toosoon":0,"cond_shown":"Congruent","ratio_trial":100,"L_num":1,"L_den":2,"R_num":18,"R_den":30,"correct_side":2,"subjID":"SARAVALENTINARUBIOGAMEZ1","gender":"1","school":"6","age":"11"},{"start_time":1551900137261,"click_time":1551900138729,"finger_time":1551900138370,"fix_duration":250,"trial":28,"RT":1109,"MT":359,"sideResp":2,"stimulus":[],"xmouse":[783,783,783,783,783,783,783,783,783,783,783,783,783,783,783,783,783,783,783,783,783,783,783,783,783,783,783,783,783,783,783,783,783,783,783,783,783,783,783,783,783,783,783,783,783,783,783,783,783,783,783,783,783,788,819,859,936,959,1005,1045,1056,1065,1071,1081,1081,1081,1076,1072,1071,1069,1069,1069,1073,1079],"ymouse":[613,613,613,613,613,613,613,613,613,613,613,613,613,613,613,613,613,613,613,613,613,613,613,613,613,613,613,613,613,613,613,613,613,613,613,613,613,613,613,613,613,613,613,613,613,613,613,613,613,613,613,613,613,610,585,551,483,461,393,326,305,285,264,224,209,190,167,155,146,134,127,119,109,99],"timestamp_mouse":[8,37,48,70,90,109,128,149,168,190,208,228,248,268,289,310,328,348,370,389,409,428,448,468,488,508,528,549,568,589,609,628,648,668,689,708,728,748,770,789,810,829,849,868,888,909,928,948,968,988,1009,1028,1048,1068,1088,1109,1128,1149,1169,1188,1208,1228,1248,1269,1288,1308,1328,1348,1368,1389,1409,1428,1449,1468],"xSR":741.5,"ySR":573.95,"xT1":424.9,"yT1":0,"xT2":1058.1,"yT2":0,"toosoon":0,"cond_shown":"Incongruent","ratio_trial":300,"L_num":1,"L_den":2,"R_num":2,"R_den":10,"correct_side":1,"subjID":"SARAVALENTINARUBIOGAMEZ1","gender":"1","school":"6","age":"11"},{"start_time":1551900140301,"click_time":1551900141310,"finger_time":1551900140829,"fix_duration":250,"trial":29,"RT":528,"MT":481,"sideResp":1,"stimulus":[],"xmouse":[790,790,790,790,790,790,790,790,790,790,790,790,790,790,790,790,790,790,790,790,790,790,790,790,790,790,774,670,613,574,552,534,532,532,531,531,531,531,531,532,533,533,533,533,532,527,520,510,504,495,486],"ymouse":[649,649,649,649,649,649,649,649,649,649,649,649,649,649,649,649,649,649,649,649,649,649,649,644,636,590,520,349,275,229,204,183,178,176,173,172,170,168,167,165,164,161,159,156,153,148,142,131,121,109,95],"timestamp_mouse":[9,32,48,68,88,109,128,148,168,190,209,228,248,268,289,308,328,348,368,389,410,428,448,468,488,508,528,550,568,588,608,630,648,668,688,709,729,748,768,790,808,830,848,870,889,908,929,949,968,990,1009],"xSR":741.5,"ySR":573.95,"xT1":424.9,"yT1":0,"xT2":1058.1,"yT2":0,"toosoon":0,"cond_shown":"Incongruent","ratio_trial":100,"L_num":8,"L_den":20,"R_num":1,"R_den":2,"correct_side":2,"subjID":"SARAVALENTINARUBIOGAMEZ1","gender":"1","school":"6","age":"11"},{"start_time":1551900144433,"click_time":1551900244089,"finger_time":1551900243910,"fix_duration":722.1924526640912,"trial":30,"RT":99477,"MT":179,"sideResp":1,"stimulus":[],"xmouse":[803,803,803,803,803,803,803,803,803,803,803,803,803,803,803,803,803,803,803,803,803,803,803,803,803,803,803,803,803,803,803,803,803,803,803,803,803,803,803,803,803,803,803,803,803,803,803,803,803,803,803,803,803,803,803,803,803,803,803,803,803,803,803,803,803,803,803,803,803,803,803,803,803,803,803,803,803,803,803,803,803,803,803,803,803,803,803,803,803,803,803,803,803,803,803,803,803,803,803,803,803,803,803,803,803,803,803,803,803,803,803,803,803,803,803,803,803,803,803,803,803,803,803,803,803,803,803,803,803,803,803,803,803,803,803,803,803,803,803,803,803,803,803,803,803,803,803,803,803,803,803,803,803,803,803,803,803,803,803,803,803,803,803,803,803,803,803,803,803,803,803,803,803,803,803,803,803,803,803,803,803,803,803,803,803,803,803,803,803,803,803,803,803,803,803,803,803,803,803,803,803,803,803,803,803,803,803,803,803,803,803,803,803,803,803,803,803,803,803,803,803,803,803,803,803,803,803,803,803,803,803,803,803,803,803,803,803,803,803,803,803,803,803,803,803,803,803,803,803,803,803,803,803,803,803,803,803,803,803,803,803,803,803,803,803,803,803,803,803,803,803,803,803,803,803,803,803,803,803,803,803,803,803,803,803,803,803,803,803,803,803,803,803,803,803,803,803,803,803,803,803,803,803,803,803,803,803,803,803,803,803,803,803,803,803,803,803,803,803,803,803,803,803,803,803,803,803,803,803,803,803,803,803,803,803,803,803,803,803,803,803,803,803,803,803,803,803,803,803,803,803,803,803,803,803,803,803,803,803,803,803,803,803,803,803,803,803,803,803,803,803,803,803,803,803,803,803,803,803,803,803,803,803,803,803,803,803,803,803,803,803,803,803,803,803,803,803,803,803,803,803,803,803,803,803,803,803,803,803,803,803,803,803,803,803,803,803,803,803,803,803,803,803,803,803,803,803,803,803,803,803,803,803,803,803,803,803,803,803,803,803,803,803,803,803,803,803,803,803,803,803,803,803,803,803,803,803,803,803,803,803,803,803,803,803,803,803,803,803,803,803,803,803,803,803,803,803,803,803,803,803,803,803,803,803,803,803,803,803,803,803,803,803,803,803,803,803,803,803,803,803,803,803,803,803,803,803,803,803,803,803,803,803,803,803,803,803,803,803,803,803,803,803,803,803,803,803,803,803,803,803,803,803,803,803,803,803,803,803,803,803,803,803,803,803,803,803,803,803,803,803,803,803,803,803,803,803,803,803,803,803,803,803,803,803,803,803,803,803,803,803,803,803,803,803,803,803,803,803,803,803,803,803,803,803,803,803,803,803,803,803,803,803,803,803,803,803,803,803,803,803,803,803,803,803,803,803,803,803,803,803,803,803,803,803,803,803,803,803,803,803,803,803,803,803,803,803,803,803,803,803,803,803,803,803,803,803,803,803,803,803,803,803,803,803,803,803,803,803,803,803,803,803,803,803,803,803,803,803,803,803,803,803,803,803,803,803,803,803,803,803,803,803,803,803,803,803,803,803,803,803,803,803,803,803,803,803,803,803,803,803,803,803,803,803,803,803,803,803,803,803,803,803,803,803,803,803,803,803,803,803,803,803,803,803,803,803,803,803,803,803,803,803,803,803,803,803,803,803,803,803,803,803,803,803,803,803,803,803,803,803,803,803,803,803,803,803,803,803,803,803,803,803,803,803,803,803,803,803,803,803,803,803,803,803,803,803,803,803,803,803,803,803,803,803,803,803,803,803,803,803,803,803,803,803,803,803,803,803,803,803,803,803,803,803,803,803,803,803,803,803,803,803,803,803,803,803,803,803,803,803,803,803,803,803,803,803,803,803,803,803,803,803,803,803,803,803,803,803,803,803,803,803,803,803,803,803,803,803,803,803,803,803,803,803,803,803,803,803,803,803,803,803,803,803,803,803,803,803,803,803,803,803,803,803,803,803,803,803,803,803,803,803,803,803,803,803,803,803,803,803,803,803,803,803,803,803,803,803,803,803,803,803,803,803,803,803,803,803,803,803,803,803,803,803,803,803,803,803,803,803,803,803,803,803,803,803,803,803,803,803,803,803,803,803,803,803,803,803,803,803,803,803,803,803,803,803,803,803,803,803,803,803,803,803,803,803,803,803,803,803,803,803,803,803,803,803,803,803,803,803,803,803,803,803,803,803,803,803,803,803,803,803,803,803,803,803,803,803,803,803,803,803,803,803,803,803,803,803,803,803,803,803,803,803,803,803,803,803,803,803,803,803,803,803,803,803,803,803,803,803,803,803,803,803,803,803,803,803,803,803,803,803,803,803,803,803,803,803,803,803,803,803,803,803,803,803,803,803,803,803,803,803,803,803,803,803,803,803,803,803,803,803,803,803,803,803,803,803,803,803,803,803,803,803,803,803,803,803,803,803,803,803,803,803,803,803,803,803,803,803,803,803,803,803,803,803,803,803,803,803,803,803,803,803,803,803,803,803,803,803,803,803,803,803,803,803,803,803,803,803,803,803,803,803,803,803,803,803,803,803,803,803,803,803,803,803,803,803,803,803,803,803,803,803,803,803,803,803,803,803,803,803,803,803,803,803,803,803,803,803,803,803,803,803,803,803,803,803,803,803,803,803,803,803,803,803,803,803,803,803,803,803,803,803,803,803,803,803,803,803,803,803,803,803,803,803,803,803,803,803,803,803,803,803,803,803,803,803,803,803,803,803,803,803,803,803,803,803,803,803,803,803,803,803,803,803,803,803,803,803,803,803,803,803,803,803,803,803,803,803,803,803,803,803,803,803,803,803,803,803,803,803,803,803,803,803,803,803,803,803,803,803,803,803,803,803,803,803,803,803,803,803,803,803,803,803,803,803,803,803,803,803,803,803,803,803,803,803,803,803,803,803,803,803,803,803,803,803,803,803,803,803,803,803,803,803,803,803,803,803,803,803,803,803,803,803,803,803,803,803,803,803,803,803,803,803,803,803,803,803,803,803,803,803,803,803,803,803,803,803,803,803,803,803,803,803,803,803,803,803,803,803,803,803,803,803,803,803,803,803,803,803,803,803,803,803,803,803,803,803,803,803,803,803,803,803,803,803,803,803,803,803,803,803,803,803,803,803,803,803,803,803,803,803,803,803,803,803,803,803,803,803,803,803,803,803,803,803,803,803,803,803,803,803,803,803,803,803,803,803,803,803,803,803,803,803,803,803,803,803,803,803,803,803,803,803,803,803,803,803,803,803,803,803,803,803,803,803,803,803,803,803,803,803,803,803,803,803,803,803,803,803,803,803,803,803,803,803,803,803,803,803,803,803,803,803,803,803,803,803,803,803,803,803,803,803,803,803,803,803,803,803,803,803,803,803,803,803,803,803,803,803,803,803,803,803,803,803,803,803,803,803,803,803,803,803,803,803,803,803,803,803,803,803,803,803,803,803,803,803,803,803,803,803,803,803,803,803,803,803,803,803,803,803,803,803,803,803,803,803,803,803,803,803,803,803,803,803,803,803,803,803,803,803,803,803,803,803,803,803,803,803,803,803,803,803,803,803,803,803,803,803,803,803,803,803,803,803,803,803,803,803,803,803,803,803,803,803,803,803,803,803,803,803,803,803,803,803,803,803,803,803,803,803,803,803,803,803,803,803,803,803,803,803,803,803,803,803,803,803,803,803,803,803,803,803,803,803,803,803,803,803,803,803,803,803,803,803,803,803,803,803,803,803,803,803,803,803,803,803,803,803,803,803,803,803,803,803,803,803,803,803,803,803,803,803,803,803,803,803,803,803,803,803,803,803,803,803,803,803,803,803,803,803,803,803,803,803,803,803,803,803,803,803,803,803,803,803,803,803,803,803,803,803,803,803,803,803,803,803,803,803,803,803,803,803,803,803,803,803,803,803,803,803,803,803,803,803,803,803,803,803,803,803,803,803,803,803,803,803,803,803,803,803,803,803,803,803,803,803,803,803,803,803,803,803,803,803,803,803,803,803,803,803,803,803,803,803,803,803,803,803,803,803,803,803,803,803,803,803,803,803,803,803,803,803,803,803,803,803,803,803,803,803,803,803,803,803,803,803,803,803,803,803,803,803,803,803,803,803,803,803,803,803,803,803,803,803,803,803,803,803,803,803,803,803,803,803,803,803,803,803,803,803,803,803,803,803,803,803,803,803,803,803,803,803,803,803,803,803,803,803,803,803,803,803,803,803,803,803,803,803,803,803,803,803,803,803,803,803,803,803,803,803,803,803,803,803,803,803,803,803,803,803,803,803,803,803,803,803,803,803,803,803,803,803,803,803,803,803,803,803,803,803,803,803,803,803,803,803,803,803,803,803,803,803,803,803,803,803,803,803,803,803,803,803,803,803,803,803,803,803,803,803,803,803,803,803,803,803,803,803,803,803,803,803,803,803,803,803,803,803,803,803,803,803,803,803,803,803,803,803,803,803,803,803,803,803,803,803,803,803,803,803,803,803,803,803,803,803,803,803,803,803,803,803,803,803,803,803,803,803,803,803,803,803,803,803,803,803,803,803,803,803,803,803,803,803,803,803,803,803,803,803,803,803,803,803,803,803,803,803,803,803,803,803,803,803,803,803,803,803,803,803,803,803,803,803,803,803,803,803,803,803,803,803,803,803,803,803,803,803,803,803,803,803,803,803,803,803,803,803,803,803,803,803,803,803,803,803,803,803,803,803,803,803,803,803,803,803,803,803,803,803,803,803,803,803,803,803,803,803,803,803,803,803,803,803,803,803,803,803,803,803,803,803,803,803,803,803,803,803,803,803,803,803,803,803,803,803,803,803,803,803,803,803,803,803,803,803,803,803,803,803,803,803,803,803,803,803,803,803,803,803,803,803,803,803,803,803,803,803,803,803,803,803,803,803,803,803,803,803,803,803,803,803,803,803,803,803,803,803,803,803,803,803,803,803,803,803,803,803,803,803,803,803,803,803,803,803,803,803,803,803,803,803,803,803,803,803,803,803,803,803,803,803,803,803,803,803,803,803,803,803,803,803,803,803,803,803,803,803,803,803,803,803,803,803,803,803,803,803,803,803,803,803,803,803,803,803,803,803,803,803,803,803,803,803,803,803,803,803,803,803,803,803,803,803,803,803,803,803,803,803,803,803,803,803,803,803,803,803,803,803,803,803,803,803,803,803,803,803,803,803,803,803,803,803,803,803,803,803,803,803,803,803,803,803,803,803,803,803,803,803,803,803,803,803,803,803,803,803,803,803,803,803,803,803,803,803,803,803,803,803,803,803,803,803,803,803,803,803,803,803,803,803,803,803,803,803,803,803,803,803,803,803,803,803,803,803,803,803,803,803,803,803,803,803,803,803,803,803,803,803,803,803,803,803,803,803,803,803,803,803,803,803,803,803,803,803,803,803,803,803,803,803,803,803,803,803,803,803,803,803,803,803,803,803,803,803,803,803,803,803,803,803,803,803,803,803,803,803,803,803,803,803,803,803,803,803,803,803,803,803,803,803,803,803,803,803,803,803,803,803,803,803,803,803,803,803,803,803,803,803,803,803,803,803,803,803,803,803,803,803,803,803,803,803,803,803,803,803,803,803,803,803,803,803,803,803,803,803,803,803,803,803,803,803,803,803,803,803,803,803,803,803,803,803,803,803,803,803,803,803,803,803,803,803,803,803,803,803,803,803,803,803,803,803,803,803,803,803,803,803,803,803,803,803,803,803,803,803,803,803,803,803,803,803,803,803,803,803,803,803,803,803,803,803,803,803,803,803,803,803,803,803,803,803,803,803,803,803,803,803,803,803,803,803,803,803,803,803,803,803,803,803,803,803,803,803,803,803,803,803,803,803,803,803,803,803,803,803,803,803,803,803,803,803,803,803,803,803,803,803,803,803,803,803,803,803,803,803,803,803,803,803,803,803,803,803,803,803,803,803,803,803,803,803,803,803,803,803,803,803,803,803,803,803,803,803,803,803,803,803,803,803,803,803,803,803,803,803,803,803,803,803,803,803,803,803,803,803,803,803,803,803,803,803,803,803,803,803,803,803,803,803,803,803,803,803,803,803,803,803,803,803,803,803,803,803,803,803,803,803,803,803,803,803,803,803,803,803,803,803,803,803,803,803,803,803,803,803,803,803,803,803,803,803,803,803,803,803,803,803,803,803,803,803,803,803,803,803,803,803,803,803,803,803,803,803,803,803,803,803,803,803,803,803,803,803,803,803,803,803,803,803,803,803,803,803,803,803,803,803,803,803,803,803,803,803,803,803,803,803,803,803,803,803,803,803,803,803,803,803,803,803,803,803,803,803,803,803,803,803,803,803,803,803,803,803,803,803,803,803,803,803,803,803,803,803,803,803,803,803,803,803,803,803,803,803,803,803,803,803,803,803,803,803,803,803,803,803,803,803,803,803,803,803,803,803,803,803,803,803,803,803,803,803,803,803,803,803,803,803,803,803,803,803,803,803,803,803,803,803,803,803,803,803,803,803,803,803,803,803,803,803,803,803,803,803,803,803,803,803,803,803,803,803,803,803,803,803,803,803,803,803,803,803,803,803,803,803,803,803,803,803,803,803,803,803,803,803,803,803,803,803,803,803,803,803,803,803,803,803,803,803,803,803,803,803,803,803,803,803,803,803,803,803,803,803,803,803,803,803,803,803,803,803,803,803,803,803,803,803,803,803,803,803,803,803,803,803,803,803,803,803,803,803,803,803,803,803,803,803,803,803,803,803,803,803,803,803,803,803,803,803,803,803,803,803,803,803,803,803,803,803,803,803,803,803,803,803,803,803,803,803,803,803,803,803,803,803,803,803,803,803,803,803,803,803,803,803,803,803,803,803,803,803,803,803,803,803,803,803,803,803,803,803,803,803,803,803,803,803,803,803,803,803,803,803,803,803,803,803,803,803,803,803,803,803,803,803,803,803,803,803,803,803,803,803,803,803,803,803,803,803,803,803,803,803,803,803,803,803,803,803,803,803,803,803,803,803,803,803,803,803,803,803,803,803,803,803,803,803,803,803,803,803,803,803,803,803,803,803,803,803,803,803,803,803,803,803,803,803,803,803,803,803,803,803,803,803,803,803,803,803,803,803,803,803,803,803,803,803,803,803,803,803,803,803,803,803,803,803,803,803,803,803,803,803,803,803,803,803,803,803,803,803,803,803,803,803,803,803,803,803,803,803,803,803,803,803,803,803,803,803,803,803,803,803,803,803,803,803,803,803,803,803,803,803,803,803,803,803,803,803,803,803,803,803,803,803,803,803,803,803,803,803,803,803,803,803,803,803,803,803,803,803,803,803,803,803,803,803,803,803,803,803,803,803,803,803,803,803,803,803,803,803,803,803,803,803,803,803,803,803,803,803,803,803,803,803,803,803,803,803,803,803,803,803,803,803,803,803,803,803,803,803,803,803,803,803,803,803,803,803,803,803,803,803,803,803,803,803,803,803,803,803,803,803,803,803,803,803,803,803,803,803,803,803,803,803,803,803,803,803,803,803,803,803,803,803,803,803,803,803,803,803,803,803,803,803,803,803,803,803,803,803,803,803,803,803,803,803,803,803,803,803,803,803,803,803,803,803,803,803,803,803,803,803,803,803,803,803,803,803,803,803,803,803,803,803,803,803,803,803,803,803,803,803,803,803,803,803,803,803,803,803,803,803,803,803,803,803,803,803,803,803,803,803,803,803,803,803,803,803,803,803,803,803,803,803,803,803,803,803,803,803,803,803,803,803,803,803,803,803,803,803,803,803,803,803,803,803,803,803,803,803,803,803,803,803,803,803,803,803,803,803,803,803,803,803,803,803,803,803,803,803,803,803,803,803,803,803,803,803,803,803,803,803,803,803,803,803,803,803,803,803,803,803,803,803,803,803,803,803,803,803,803,803,803,803,803,803,803,803,803,803,803,803,803,803,803,803,803,803,803,803,803,803,803,803,803,803,803,803,803,803,803,803,803,803,803,803,803,803,803,803,803,803,803,803,803,803,803,803,803,803,803,803,803,803,803,803,803,803,803,803,803,803,803,803,803,803,803,803,803,803,803,803,803,803,803,803,803,803,803,803,803,803,803,803,803,803,803,803,803,803,803,803,803,803,803,803,803,803,803,803,803,803,803,803,803,803,803,803,803,803,803,803,803,803,803,803,803,803,803,803,803,803,803,803,803,803,803,803,803,803,803,803,803,803,803,803,803,803,803,803,803,803,803,803,803,803,803,803,803,803,803,803,803,803,803,803,803,803,803,803,803,803,803,803,803,803,803,803,803,803,803,803,803,803,803,803,803,803,803,803,803,803,803,803,803,803,803,803,803,803,803,803,803,803,803,803,803,803,803,803,803,803,803,803,803,803,803,803,803,803,803,803,803,803,803,803,803,803,803,803,803,803,803,803,803,803,803,803,803,803,803,803,803,803,803,803,803,803,803,803,803,803,803,803,803,803,803,803,803,803,803,803,803,803,803,803,803,803,803,803,803,803,803,803,803,803,803,803,803,803,803,803,803,803,803,803,803,803,803,803,803,803,803,803,803,803,803,803,803,803,803,803,803,803,803,803,803,803,803,803,803,803,803,803,803,803,803,803,803,803,803,803,803,803,803,803,803,803,803,803,803,803,803,803,803,803,803,803,803,803,803,803,803,803,803,803,803,803,803,803,803,803,803,803,803,803,803,803,803,803,803,803,803,803,803,803,803,803,803,803,803,803,803,803,803,803,803,803,803,803,803,803,803,803,803,803,803,803,803,803,803,803,803,803,803,803,803,803,803,803,803,803,803,803,803,803,803,803,803,803,803,803,803,803,803,803,803,803,803,803,803,803,803,803,803,803,803,803,803,803,803,803,803,803,803,803,803,803,803,803,803,803,803,803,803,803,803,803,803,803,803,803,803,803,803,803,803,803,803,803,803,803,803,803,803,803,803,803,803,803,803,803,803,803,803,803,803,803,803,803,803,803,803,803,803,803,803,803,803,803,803,803,803,803,803,803,803,803,803,803,803,803,803,803,803,803,803,803,803,803,803,803,803,803,803,803,803,803,803,803,803,803,803,803,803,803,803,803,803,803,803,803,803,803,803,803,803,803,803,803,803,803,803,803,803,803,803,803,803,803,803,803,803,803,803,803,803,803,803,803,803,803,803,803,803,803,803,803,803,803,803,803,803,803,803,803,803,803,803,803,803,803,803,803,803,803,803,803,803,803,803,803,803,803,803,803,803,803,803,803,803,803,803,803,803,803,803,803,803,803,803,803,803,803,803,803,803,803,803,803,803,803,803,803,803,803,803,803,803,803,803,803,803,803,803,803,803,803,803,803,803,803,803,803,803,803,803,803,803,803,803,803,803,803,803,803,803,803,803,803,803,803,803,803,803,803,803,803,803,803,803,803,803,803,803,803,803,803,803,803,803,803,803,803,803,803,803,803,803,803,803,803,803,803,803,803,803,803,803,803,803,803,803,803,803,803,803,803,803,803,803,803,803,803,803,803,803,803,803,803,803,803,803,803,803,803,803,803,803,803,803,803,803,803,803,803,803,803,803,803,803,803,803,803,803,803,803,803,803,803,803,803,803,803,803,803,803,803,803,803,803,803,803,803,803,803,803,803,803,803,803,803,803,803,803,803,803,803,803,803,803,803,803,803,803,803,803,803,803,803,803,803,803,803,803,803,803,803,803,803,803,803,803,803,803,803,803,803,803,803,803,803,803,803,803,803,803,803,803,803,803,803,803,803,803,803,803,803,803,803,803,803,803,803,803,803,803,803,803,803,803,803,803,803,803,803,803,803,803,803,803,803,803,803,803,803,803,803,803,803,803,803,803,803,803,803,803,803,803,803,803,803,803,803,803,803,803,803,803,803,803,803,803,803,803,803,803,803,803,803,803,803,803,803,803,803,803,803,803,803,803,803,803,803,803,803,803,803,803,803,803,803,803,803,803,803,803,803,803,803,803,803,803,803,803,803,803,803,803,803,803,803,803,803,803,803,803,803,803,803,803,803,803,803,803,803,803,803,803,803,803,803,803,803,803,803,803,803,803,803,803,803,803,803,803,803,803,803,803,803,803,803,803,803,803,803,803,803,803,803,803,803,803,803,803,803,803,803,803,803,803,803,803,803,803,803,803,803,803,803,803,803,803,803,803,803,803,803,803,803,803,803,803,803,803,803,803,803,803,803,803,803,803,803,803,803,803,803,803,803,803,803,803,803,803,803,803,803,803,803,803,803,803,803,803,803,803,803,803,803,803,803,803,803,803,803,803,803,803,803,803,803,803,803,803,803,803,803,803,803,803,803,803,803,803,803,803,803,803,803,803,803,803,803,803,803,803,803,803,803,803,803,803,803,803,803,803,803,803,803,803,803,803,803,803,803,803,803,803,803,803,803,803,803,803,803,803,803,803,803,803,803,803,803,803,803,803,803,803,803,803,803,803,803,803,803,803,803,803,803,803,803,803,803,803,803,803,803,803,803,803,803,803,803,803,803,803,803,803,803,803,803,803,803,803,803,803,803,803,803,803,803,803,803,803,803,803,803,803,803,803,803,803,803,803,803,803,803,803,803,803,803,803,803,803,803,803,803,803,803,803,803,803,803,803,803,803,803,803,803,803,803,803,803,803,803,803,803,803,803,803,803,803,803,803,803,803,803,803,803,803,803,803,803,803,803,803,803,803,803,803,803,803,803,803,803,803,803,803,803,803,803,803,803,803,803,803,803,803,803,803,803,803,803,803,803,803,803,803,803,803,803,803,803,803,803,803,803,803,803,803,803,803,803,803,803,803,803,803,803,803,803,803,803,803,803,803,803,803,803,803,803,803,803,803,803,803,803,803,803,803,803,803,803,803,803,803,803,803,803,803,803,803,803,803,803,803,803,803,803,803,803,803,803,803,803,803,803,803,803,803,803,803,803,803,803,803,803,803,803,803,803,803,803,803,803,803,803,803,803,803,803,803,803,803,803,803,803,803,803,803,803,803,803,803,803,803,803,803,803,803,803,803,803,803,803,803,803,803,803,803,803,803,803,803,803,803,803,803,803,803,803,803,803,803,803,803,803,803,803,803,803,803,803,803,803,803,803,803,803,803,803,803,803,803,803,803,803,803,803,803,803,803,803,803,803,803,803,803,803,803,803,803,803,803,803,803,803,803,803,803,803,803,803,803,803,803,803,803,803,803,803,803,803,803,803,803,803,803,803,803,803,803,803,803,803,803,803,803,803,803,794,789,783,783,783,782,782,782,782,782,782,782,782,782,781,781,782,782,785,785,785,790,791,714,656,587,529,509,493,491,489,485,481],"ymouse":[648,648,648,648,648,648,648,648,648,648,648,648,648,648,648,648,648,648,648,648,648,648,648,648,648,648,648,648,648,648,648,648,648,648,648,648,648,648,648,648,648,648,648,648,648,648,648,648,648,648,648,648,648,648,648,648,648,648,648,648,648,648,648,648,648,648,648,648,648,648,648,648,648,648,648,648,648,648,648,648,648,648,648,648,648,648,648,648,648,648,648,648,648,648,648,648,648,648,648,648,648,648,648,648,648,648,648,648,648,648,648,648,648,648,648,648,648,648,648,648,648,648,648,648,648,648,648,648,648,648,648,648,648,648,648,648,648,648,648,648,648,648,648,648,648,648,648,648,648,648,648,648,648,648,648,648,648,648,648,648,648,648,648,648,648,648,648,648,648,648,648,648,648,648,648,648,648,648,648,648,648,648,648,648,648,648,648,648,648,648,648,648,648,648,648,648,648,648,648,648,648,648,648,648,648,648,648,648,648,648,648,648,648,648,648,648,648,648,648,648,648,648,648,648,648,648,648,648,648,648,648,648,648,648,648,648,648,648,648,648,648,648,648,648,648,648,648,648,648,648,648,648,648,648,648,648,648,648,648,648,648,648,648,648,648,648,648,648,648,648,648,648,648,648,648,648,648,648,648,648,648,648,648,648,648,648,648,648,648,648,648,648,648,648,648,648,648,648,648,648,648,648,648,648,648,648,648,648,648,648,648,648,648,648,648,648,648,648,648,648,648,648,648,648,648,648,648,648,648,648,648,648,648,648,648,648,648,648,648,648,648,648,648,648,648,648,648,648,648,648,648,648,648,648,648,648,648,648,648,648,648,648,648,648,648,648,648,648,648,648,648,648,648,648,648,648,648,648,648,648,648,648,648,648,648,648,648,648,648,648,648,648,648,648,648,648,648,648,648,648,648,648,648,648,648,648,648,648,648,648,648,648,648,648,648,648,648,648,648,648,648,648,648,648,648,648,648,648,648,648,648,648,648,648,648,648,648,648,648,648,648,648,648,648,648,648,648,648,648,648,648,648,648,648,648,648,648,648,648,648,648,648,648,648,648,648,648,648,648,648,648,648,648,648,648,648,648,648,648,648,648,648,648,648,648,648,648,648,648,648,648,648,648,648,648,648,648,648,648,648,648,648,648,648,648,648,648,648,648,648,648,648,648,648,648,648,648,648,648,648,648,648,648,648,648,648,648,648,648,648,648,648,648,648,648,648,648,648,648,648,648,648,648,648,648,648,648,648,648,648,648,648,648,648,648,648,648,648,648,648,648,648,648,648,648,648,648,648,648,648,648,648,648,648,648,648,648,648,648,648,648,648,648,648,648,648,648,648,648,648,648,648,648,648,648,648,648,648,648,648,648,648,648,648,648,648,648,648,648,648,648,648,648,648,648,648,648,648,648,648,648,648,648,648,648,648,648,648,648,648,648,648,648,648,648,648,648,648,648,648,648,648,648,648,648,648,648,648,648,648,648,648,648,648,648,648,648,648,648,648,648,648,648,648,648,648,648,648,648,648,648,648,648,648,648,648,648,648,648,648,648,648,648,648,648,648,648,648,648,648,648,648,648,648,648,648,648,648,648,648,648,648,648,648,648,648,648,648,648,648,648,648,648,648,648,648,648,648,648,648,648,648,648,648,648,648,648,648,648,648,648,648,648,648,648,648,648,648,648,648,648,648,648,648,648,648,648,648,648,648,648,648,648,648,648,648,648,648,648,648,648,648,648,648,648,648,648,648,648,648,648,648,648,648,648,648,648,648,648,648,648,648,648,648,648,648,648,648,648,648,648,648,648,648,648,648,648,648,648,648,648,648,648,648,648,648,648,648,648,648,648,648,648,648,648,648,648,648,648,648,648,648,648,648,648,648,648,648,648,648,648,648,648,648,648,648,648,648,648,648,648,648,648,648,648,648,648,648,648,648,648,648,648,648,648,648,648,648,648,648,648,648,648,648,648,648,648,648,648,648,648,648,648,648,648,648,648,648,648,648,648,648,648,648,648,648,648,648,6