[{"start_time":1551901121720,"click_time":1551901135379,"finger_time":1551901121729,"fix_duration":835.3036303160767,"trial":0,"RT":9,"MT":13650,"sideResp":1,"stimulus":"img/750/equaldotanddens/L/8_Ratio_750_L_4_R_3.png","xmouse":[816,816,816,815,815,815,815,815,815,815,815,815,815,815,815,815,815,815,815,815,815,815,815,815,815,815,815,815,815,815,815,814,813,813,810,804,803,803,803,803,803,802,801,801,801,801,801,801,801,801,801,801,801,801,801,801,801,801,801,801,801,801,801,801,801,801,801,801,801,801,801,801,801,801,801,801,801,801,801,801,801,801,802,805,809,820,822,822,822,822,822,822,822,822,822,822,822,822,822,822,822,822,821,821,821,820,819,819,819,819,819,819,819,819,819,817,815,815,815,815,815,815,815,815,815,815,815,815,813,813,813,813,813,813,813,813,812,809,807,807,807,807,807,807,807,807,807,807,807,807,807,807,807,807,806,805,805,805,805,805,805,805,805,805,805,805,805,805,805,804,810,818,824,827,827,817,812,809,807,807,805,805,805,805,805,805,804,800,799,795,786,779,772,770,770,770,770,767,767,767,767,767,767,767,767,767,774,785,795,802,808,809,809,809,804,795,795,795,795,794,790,789,789,789,789,789,789,789,789,789,789,789,790,791,792,793,793,793,793,793,793,793,793,793,793,793,793,793,793,793,793,793,793,793,793,793,793,793,793,794,797,798,799,799,799,801,803,803,803,803,799,793,784,768,757,752,752,752,752,752,752,752,752,752,751,757,766,782,799,812,825,829,832,835,836,839,839,839,839,839,839,839,839,839,838,820,803,786,778,777,777,777,777,777,777,777,777,777,777,777,777,777,777,777,782,812,824,825,823,809,754,720,695,677,663,657,657,657,657,657,657,661,666,673,690,744,783,831,871,890,898,898,896,879,869,851,845,837,832,829,828,828,828,828,828,824,816,803,788,780,772,772,772,772,772,772,772,772,772,772,772,772,772,772,772,772,771,770,770,770,770,770,771,773,773,774,774,774,774,774,774,774,776,783,787,794,779,749,708,661,603,601,601,601,601,601,601,601,601,601,618,640,672,729,782,828,828,828,830,835,864,871,872,873,873,873,872,871,868,866,858,849,836,819,815,810,810,810,810,810,810,810,810,810,810,810,810,810,810,810,810,810,810,810,810,810,810,810,810,810,810,810,810,810,810,810,810,810,810,810,810,810,810,810,810,810,810,810,810,810,810,810,810,810,810,810,810,810,810,810,810,810,810,810,810,810,810,810,810,810,810,810,810,810,810,810,810,810,810,810,810,810,810,810,810,810,810,810,810,810,810,810,810,810,810,810,810,810,810,810,810,810,810,810,810,810,810,810,810,810,810,810,810,810,810,810,810,810,810,810,810,810,810,810,810,810,810,810,809,809,809,809,809,808,808,808,808,806,804,804,797,792,788,786,786,786,786,786,787,787,790,795,802,806,809,813,816,821,826,828,829,829,829,829,829,829,829,829,829,829,829,829,829,829,829,829,829,829,829,826,818,813,808,802,799,794,793,791,790,790,790,790,790,790,790,790,790,790,790,793,801,801,801,801,803,807,807,795,784,782,782,782,782,782,782,780,779,779,779,779,779,779,779,780,786,801,801,793,771,739,677,671,672,678,683,688,689,689,689,686,652,615,575,524],"ymouse":[543,543,543,543,543,543,543,543,543,543,543,543,543,543,543,543,543,543,543,543,543,543,543,543,543,543,543,543,543,543,543,544,544,545,547,568,577,585,590,592,592,593,594,594,594,594,594,594,594,594,594,594,594,594,594,594,594,594,594,594,594,594,594,594,594,594,594,594,594,594,594,594,594,594,594,594,594,594,594,594,594,594,594,592,582,543,522,504,493,483,474,471,471,471,471,471,471,471,471,471,471,471,471,471,471,472,472,472,472,472,472,472,472,472,472,474,477,484,495,505,528,539,549,563,569,577,591,595,598,599,599,599,599,599,599,600,601,605,608,609,610,610,610,610,610,610,610,610,610,610,610,610,610,610,611,611,611,611,611,611,611,611,611,611,611,611,611,611,611,611,602,577,537,519,474,431,416,406,396,389,383,381,380,378,378,375,372,360,357,347,324,312,301,297,296,294,287,283,283,283,283,283,283,283,283,283,294,311,328,345,382,416,474,539,576,618,622,622,622,622,627,629,634,637,638,638,638,638,638,638,638,638,638,638,637,636,636,636,636,636,636,636,636,636,636,636,636,636,636,636,636,636,636,636,636,636,636,636,636,635,633,631,630,630,630,627,615,601,576,551,509,487,454,399,352,336,336,336,336,336,336,336,336,339,345,375,403,458,518,564,606,614,619,622,624,635,638,639,639,639,639,639,639,639,639,639,639,638,636,636,636,636,636,633,629,626,626,625,625,624,624,624,624,622,613,557,516,456,397,326,189,145,115,94,71,60,59,59,59,59,59,59,65,76,101,164,216,287,354,407,472,501,531,577,600,627,634,640,642,643,644,644,644,644,644,644,638,629,621,617,612,612,612,612,612,612,612,612,612,612,612,612,612,612,612,612,612,612,612,612,612,613,614,614,615,615,615,615,615,615,615,615,615,609,603,537,468,383,318,272,242,242,242,242,242,242,242,242,242,243,274,306,351,427,501,564,564,564,564,542,474,455,448,445,445,440,437,436,432,430,427,422,415,406,403,396,393,390,390,390,390,390,390,390,390,390,390,390,390,390,390,390,390,390,390,390,390,390,390,390,390,390,390,390,390,390,390,390,390,390,390,390,390,390,390,390,390,390,390,390,390,390,390,390,390,390,390,390,390,390,390,390,390,390,390,390,390,390,390,390,390,390,390,390,390,390,390,390,390,390,390,390,390,390,390,390,390,390,390,390,390,390,390,390,390,390,390,390,390,390,390,390,390,390,390,390,390,390,390,390,390,390,390,390,390,390,390,390,390,390,390,390,390,390,390,390,390,390,390,390,390,390,390,389,389,389,391,406,432,461,500,513,520,522,522,522,522,522,522,522,519,514,507,503,500,476,458,441,425,411,392,383,378,377,377,377,377,377,377,377,377,377,377,377,377,377,377,380,384,394,422,440,457,480,490,508,514,518,520,521,521,521,521,521,521,521,521,521,519,509,462,453,452,452,474,557,604,638,654,661,661,661,661,660,654,638,633,630,630,630,630,630,629,624,607,537,470,399,321,233,70,0,0,0,0,0,0,0,0,0,9,26,36,39],"timestamp_mouse":[9,21,37,57,78,98,118,137,158,178,198,218,238,258,279,297,318,338,357,378,398,417,438,458,479,498,518,538,558,577,598,618,638,658,678,698,718,739,758,778,798,817,839,859,878,898,918,939,957,977,999,1018,1038,1059,1077,1098,1119,1138,1158,1178,1198,1219,1237,1257,1278,1297,1319,1339,1359,1378,1398,1419,1438,1457,1479,1499,1518,1538,1559,1577,1599,1618,1638,1659,1678,1697,1718,1737,1757,1779,1798,1818,1837,1859,1878,1898,1918,1938,1959,1978,1998,2017,2037,2059,2078,2098,2118,2138,2157,2178,2198,2218,2238,2257,2278,2298,2318,2337,2357,2378,2397,2418,2438,2457,2477,2497,2517,2538,2558,2578,2599,2618,2639,2658,2679,2697,2717,2738,2758,2779,2798,2818,2837,2857,2878,2897,2919,2937,2959,2977,2999,3019,3038,3058,3077,3098,3117,3139,3159,3177,3197,3219,3237,3257,3278,3299,3318,3339,3357,3378,3398,3418,3437,3458,3477,3498,3518,3539,3559,3578,3597,3618,3638,3658,3677,3697,3718,3739,3759,3778,3798,3818,3838,3858,3878,3898,3917,3938,3958,3978,3998,4017,4037,4058,4079,4098,4118,4137,4157,4178,4198,4219,4238,4257,4277,4297,4318,4338,4358,4378,4398,4417,4438,4458,4477,4499,4518,4537,4559,4578,4599,4618,4637,4657,4679,4698,4718,4738,4759,4777,4797,4818,4838,4857,4877,4897,4918,4939,4958,4979,4998,5018,5039,5058,5077,5098,5118,5137,5157,5178,5198,5218,5238,5258,5277,5298,5317,5338,5358,5379,5399,5417,5437,5457,5478,5498,5518,5537,5558,5578,5598,5618,5638,5657,5677,5697,5718,5738,5758,5778,5797,5817,5838,5859,5878,5898,5918,5938,5958,5977,5999,6017,6038,6058,6077,6097,6118,6138,6157,6179,6199,6218,6238,6258,6277,6298,6318,6339,6358,6377,6397,6418,6439,6459,6478,6497,6519,6538,6558,6577,6598,6618,6639,6657,6677,6697,6718,6739,6758,6778,6797,6817,6838,6858,6877,6898,6919,6938,6958,6978,6998,7019,7039,7058,7077,7097,7117,7138,7157,7177,7199,7219,7237,7258,7279,7297,7317,7339,7358,7379,7398,7419,7439,7458,7479,7498,7518,7539,7558,7577,7599,7617,7638,7657,7678,7698,7717,7738,7758,7777,7797,7819,7837,7858,7877,7898,7918,7938,7958,7979,7999,8017,8037,8059,8077,8098,8118,8138,8158,8177,8198,8219,8238,8257,8277,8299,8319,8338,8359,8378,8398,8417,8439,8458,8479,8499,8517,8538,8559,8579,8597,8618,8638,8658,8678,8697,8719,8738,8759,8778,8797,8817,8838,8858,8878,8899,8918,8938,8957,8978,8998,9017,9038,9058,9078,9098,9119,9137,9157,9179,9198,9218,9239,9259,9279,9298,9318,9337,9358,9378,9399,9417,9437,9457,9478,9498,9518,9538,9557,9578,9598,9619,9638,9658,9678,9697,9717,9738,9758,9778,9799,9819,9838,9858,9878,9897,9918,9938,9958,9978,9998,10018,10038,10057,10078,10099,10118,10138,10158,10178,10198,10217,10237,10258,10278,10298,10318,10338,10357,10377,10399,10418,10438,10458,10477,10498,10518,10539,10559,10578,10598,10618,10637,10658,10678,10698,10718,10739,10759,10779,10799,10818,10837,10858,10878,10898,10919,10938,10958,10977,10998,11019,11038,11057,11077,11098,11118,11137,11157,11178,11198,11217,11237,11257,11278,11299,11318,11338,11357,11378,11399,11418,11438,11459,11478,11499,11518,11538,11557,11577,11597,11619,11638,11659,11679,11698,11717,11739,11758,11777,11797,11818,11838,11858,11878,11898,11918,11938,11958,11978,11998,12017,12037,12058,12079,12099,12119,12138,12159,12179,12198,12217,12237,12258,12279,12298,12318,12339,12358,12377,12397,12418,12438,12458,12478,12498,12519,12539,12557,12578,12598,12618,12639,12658,12678,12698,12718,12738,12757,12778,12797,12818,12838,12858,12877,12897,12918,12939,12958,12979,12998,13018,13039,13058,13078,13097,13118,13138,13157,13179,13197,13218,13239,13259,13277,13298,13317,13339,13359,13378,13398,13417,13438,13458,13478,13497,13517,13537,13558,13579,13598,13617,13638,13659],"xSR":741.5,"ySR":469.95,"xT1":424.9,"yT1":0,"xT2":1058.1,"yT2":0,"toosoon":0,"cond_shown":"equaldotanddens","ratio_trial":750,"smaller_num":"3","larger_num":"4","correct_side":1,"subjID":"SARAVALENTINARUBIOGAMEZ1","gender":"0","age":"11","school":"6","test":{"fix_dur":[250,1500],"timestim":300,"targets_dim":[100,100],"targets_relative_coord":[0.3,0.7],"size_stim":[880,420],"start_dim":[100,100],"size_start":[300,300],"size_fix":60,"samplingrate":20,"img_types":["equaldotsize","equaldotanddens","randomdotsizeEA"],"ratios":[250,500,750,900],"rep_conds":9,"nTrials":120,"trials_to_rest":500,"Trials_order":[115,55,17,72,34,5,119,26,100,29,18,38,110,88,112,30,60,54,91,44,117,19,4,47,105,81,24,12,75,77,80,8,107,51,78,106,95,59,37,1,61,36,65,23,13,103,57,52,97,108,113,46,2,101,42,62,33,6,86,25,45,58,41,83,92,71,93,9,90,7,99,66,76,53,50,67,74,98,79,111,35,73,3,43,27,32,104,85,116,10,102,82,56,96,20,48,15,22,39,68,69,63,64,89,16,118,31,11,84,0,87,49,114,94,109,21,28,14,70,40],"cond_shown":["equaldotanddens","equaldotanddens","randomdotsizeEA","equaldotsize","equaldotanddens","randomdotsizeEA","randomdotsizeEA","randomdotsizeEA","equaldotanddens","randomdotsizeEA","equaldotsize","randomdotsizeEA","randomdotsizeEA","equaldotanddens","equaldotanddens","equaldotsize","equaldotsize","equaldotsize","equaldotanddens","randomdotsizeEA","equaldotsize","equaldotanddens","equaldotanddens","randomdotsizeEA","equaldotsize","equaldotsize","equaldotsize","equaldotsize","equaldotsize","randomdotsizeEA","randomdotsizeEA","randomdotsizeEA","randomdotsizeEA","equaldotsize","equaldotsize","equaldotanddens","randomdotsizeEA","randomdotsizeEA","equaldotanddens","equaldotanddens","equaldotanddens","equaldotsize","randomdotsizeEA","randomdotsizeEA","equaldotanddens","equaldotanddens","equaldotsize","equaldotanddens","equaldotanddens","equaldotsize","randomdotsizeEA","equaldotanddens","randomdotsizeEA","randomdotsizeEA","equaldotsize","randomdotsizeEA","equaldotsize","equaldotsize","randomdotsizeEA","equaldotanddens","equaldotsize","equaldotanddens","randomdotsizeEA","randomdotsizeEA","randomdotsizeEA","randomdotsizeEA","equaldotsize","equaldotsize","equaldotsize","equaldotanddens","equaldotsize","equaldotsize","equaldotanddens","randomdotsizeEA","randomdotsizeEA","equaldotanddens","randomdotsizeEA","randomdotsizeEA","equaldotanddens","equaldotsize","randomdotsizeEA","equaldotanddens","equaldotsize","equaldotanddens","equaldotsize","randomdotsizeEA","randomdotsizeEA","equaldotanddens","randomdotsizeEA","equaldotanddens","equaldotsize","equaldotanddens","randomdotsizeEA","equaldotsize","randomdotsizeEA","equaldotsize","equaldotsize","equaldotanddens","equaldotsize","randomdotsizeEA","equaldotsize","equaldotsize","equaldotanddens","randomdotsizeEA","equaldotanddens","equaldotanddens","equaldotanddens","randomdotsizeEA","equaldotsize","equaldotsize","equaldotsize","equaldotanddens","equaldotsize","equaldotanddens","equaldotanddens","equaldotsize","equaldotanddens","randomdotsizeEA","equaldotanddens","equaldotanddens"],"ratio_trial":[750,750,500,250,900,500,900,250,500,500,750,250,250,500,500,750,250,750,750,750,900,750,500,900,900,900,250,250,500,500,750,750,900,500,750,900,900,900,250,250,250,250,500,900,250,750,900,500,250,250,500,900,250,500,750,250,900,750,250,250,900,900,500,900,750,900,900,900,750,750,500,750,500,500,250,750,250,250,750,500,900,250,500,750,500,750,750,250,750,900,750,900,750,250,750,250,500,900,500,750,900,500,500,500,500,900,750,900,250,250,500,250,750,900,250,900,500,250,900,500],"smaller_num":["3","3","9","2","18","1","18","3","2","9","3","2","4","9","5","3","1","3","3","6","18","3","4","18","18","18","5","2","6","2","12","15","18","2","6","9","18","18","2","2","2","1","9","9","5","6","18","6","2","6","2","9","6","4","15","6","18","3","2","3","9","18","5","9","15","9","9","18","6","6","2","15","1","9","3","6","2","6","15","10","18","3","2","6","6","15","3","6","6","9","3","18","18","2","3","1","4","9","6","9","9","9","10","1","9","9","6","9","6","3","6","3","18","18","4","9","6","2","18","9"],"larger_num":["4","4","18","8","20","2","20","12","4","18","4","8","16","18","10","4","4","4","4","8","20","4","8","20","20","20","20","8","12","4","16","20","20","4","8","10","20","20","8","8","8","4","18","10","20","8","20","12","8","24","4","10","24","8","20","24","20","4","8","12","10","20","10","10","20","10","10","20","8","8","4","20","2","18","12","8","8","24","20","20","20","12","4","8","12","20","4","24","8","10","4","20","24","8","4","4","8","10","12","12","10","18","20","2","18","10","8","10","24","12","12","12","24","20","16","10","12","8","20","18"],"correct_side":[1,1,1,2,1,2,2,1,1,2,1,1,2,2,1,1,2,2,1,1,2,1,1,2,1,2,2,1,1,1,2,2,1,2,2,2,2,1,1,1,2,2,1,2,2,2,2,1,1,2,2,2,2,1,2,1,1,1,1,1,2,2,1,2,2,1,2,1,1,1,2,1,2,2,2,2,1,1,2,2,1,1,1,1,1,2,1,2,2,1,2,1,1,1,2,2,1,2,1,2,1,2,2,2,2,2,2,2,1,1,1,2,1,1,2,1,1,1,2,1],"img_shown":["img/750/equaldotanddens/L/8_Ratio_750_L_4_R_3.png","img/750/equaldotanddens/L/9_Ratio_750_L_4_R_3.png","img/500/randomdotsizeEA/L/4_Ratio_500_L_18_R_9.png","img/250/equaldotsize/R/13_Ratio_250_L_2_R_8.png","img/900/equaldotanddens/L/8_Ratio_900_L_20_R_18.png","img/500/randomdotsizeEA/R/15_Ratio_500_L_1_R_2.png","img/900/randomdotsizeEA/R/9_Ratio_900_L_18_R_20.png","img/250/randomdotsizeEA/L/15_Ratio_250_L_12_R_3.png","img/500/equaldotanddens/L/5_Ratio_500_L_4_R_2.png","img/500/randomdotsizeEA/R/1_Ratio_500_L_9_R_18.png","img/750/equaldotsize/L/10_Ratio_750_L_4_R_3.png","img/250/randomdotsizeEA/L/7_Ratio_250_L_8_R_2.png","img/250/randomdotsizeEA/R/10_Ratio_250_L_4_R_16.png","img/500/equaldotanddens/R/1_Ratio_500_L_9_R_18.png","img/500/equaldotanddens/L/7_Ratio_500_L_10_R_5.png","img/750/equaldotsize/L/10_Ratio_750_L_4_R_3.png","img/250/equaldotsize/R/8_Ratio_250_L_1_R_4.png","img/750/equaldotsize/R/12_Ratio_750_L_3_R_4.png","img/750/equaldotanddens/L/9_Ratio_750_L_4_R_3.png","img/750/randomdotsizeEA/L/14_Ratio_750_L_8_R_6.png","img/900/equaldotsize/R/13_Ratio_900_L_18_R_20.png","img/750/equaldotanddens/L/9_Ratio_750_L_4_R_3.png","img/500/equaldotanddens/L/8_Ratio_500_L_8_R_4.png","img/900/randomdotsizeEA/R/13_Ratio_900_L_18_R_20.png","img/900/equaldotsize/L/2_Ratio_900_L_20_R_18.png","img/900/equaldotsize/R/11_Ratio_900_L_18_R_20.png","img/250/equaldotsize/R/12_Ratio_250_L_5_R_20.png","img/250/equaldotsize/L/7_Ratio_250_L_8_R_2.png","img/500/equaldotsize/L/13_Ratio_500_L_12_R_6.png","img/500/randomdotsizeEA/L/5_Ratio_500_L_4_R_2.png","img/750/randomdotsizeEA/R/11_Ratio_750_L_12_R_16.png","img/750/randomdotsizeEA/R/3_Ratio_750_L_15_R_20.png","img/900/randomdotsizeEA/L/10_Ratio_900_L_20_R_18.png","img/500/equaldotsize/R/9_Ratio_500_L_2_R_4.png","img/750/equaldotsize/R/2_Ratio_750_L_6_R_8.png","img/900/equaldotanddens/R/6_Ratio_900_L_9_R_10.png","img/900/randomdotsizeEA/R/9_Ratio_900_L_18_R_20.png","img/900/randomdotsizeEA/L/2_Ratio_900_L_20_R_18.png","img/250/equaldotanddens/L/3_Ratio_250_L_8_R_2.png","img/250/equaldotanddens/L/3_Ratio_250_L_8_R_2.png","img/250/equaldotanddens/R/13_Ratio_250_L_2_R_8.png","img/250/equaldotsize/R/8_Ratio_250_L_1_R_4.png","img/500/randomdotsizeEA/L/4_Ratio_500_L_18_R_9.png","img/900/randomdotsizeEA/R/5_Ratio_900_L_9_R_10.png","img/250/equaldotanddens/R/12_Ratio_250_L_5_R_20.png","img/750/equaldotanddens/R/2_Ratio_750_L_6_R_8.png","img/900/equaldotsize/R/13_Ratio_900_L_18_R_20.png","img/500/equaldotanddens/L/13_Ratio_500_L_12_R_6.png","img/250/equaldotanddens/L/7_Ratio_250_L_8_R_2.png","img/250/equaldotsize/R/6_Ratio_250_L_6_R_24.png","img/500/randomdotsizeEA/R/9_Ratio_500_L_2_R_4.png","img/900/equaldotanddens/R/6_Ratio_900_L_9_R_10.png","img/250/randomdotsizeEA/R/6_Ratio_250_L_6_R_24.png","img/500/randomdotsizeEA/L/8_Ratio_500_L_8_R_4.png","img/750/equaldotsize/R/5_Ratio_750_L_15_R_20.png","img/250/randomdotsizeEA/L/5_Ratio_250_L_24_R_6.png","img/900/equaldotsize/L/2_Ratio_900_L_20_R_18.png","img/750/equaldotsize/L/8_Ratio_750_L_4_R_3.png","img/250/randomdotsizeEA/L/7_Ratio_250_L_8_R_2.png","img/250/equaldotanddens/L/14_Ratio_250_L_12_R_3.png","img/900/equaldotsize/R/3_Ratio_900_L_9_R_10.png","img/900/equaldotanddens/R/14_Ratio_900_L_18_R_20.png","img/500/randomdotsizeEA/L/7_Ratio_500_L_10_R_5.png","img/900/randomdotsizeEA/R/3_Ratio_900_L_9_R_10.png","img/750/randomdotsizeEA/R/5_Ratio_750_L_15_R_20.png","img/900/randomdotsizeEA/L/1_Ratio_900_L_10_R_9.png","img/900/equaldotsize/R/3_Ratio_900_L_9_R_10.png","img/900/equaldotsize/L/2_Ratio_900_L_20_R_18.png","img/750/equaldotsize/L/13_Ratio_750_L_8_R_6.png","img/750/equaldotanddens/L/13_Ratio_750_L_8_R_6.png","img/500/equaldotsize/R/9_Ratio_500_L_2_R_4.png","img/750/equaldotsize/L/1_Ratio_750_L_20_R_15.png","img/500/equaldotanddens/R/12_Ratio_500_L_1_R_2.png","img/500/randomdotsizeEA/R/1_Ratio_500_L_9_R_18.png","img/250/randomdotsizeEA/R/9_Ratio_250_L_3_R_12.png","img/750/equaldotanddens/R/2_Ratio_750_L_6_R_8.png","img/250/randomdotsizeEA/L/7_Ratio_250_L_8_R_2.png","img/250/randomdotsizeEA/L/5_Ratio_250_L_24_R_6.png","img/750/equaldotanddens/R/3_Ratio_750_L_15_R_20.png","img/500/equaldotsize/R/3_Ratio_500_L_10_R_20.png","img/900/randomdotsizeEA/L/4_Ratio_900_L_20_R_18.png","img/250/equaldotanddens/L/14_Ratio_250_L_12_R_3.png","img/500/equaldotsize/L/10_Ratio_500_L_4_R_2.png","img/750/equaldotanddens/L/13_Ratio_750_L_8_R_6.png","img/500/equaldotsize/L/11_Ratio_500_L_12_R_6.png","img/750/randomdotsizeEA/R/5_Ratio_750_L_15_R_20.png","img/750/randomdotsizeEA/L/8_Ratio_750_L_4_R_3.png","img/250/equaldotanddens/R/6_Ratio_250_L_6_R_24.png","img/750/randomdotsizeEA/R/2_Ratio_750_L_6_R_8.png","img/900/equaldotanddens/L/1_Ratio_900_L_10_R_9.png","img/750/equaldotsize/R/7_Ratio_750_L_3_R_4.png","img/900/equaldotanddens/L/10_Ratio_900_L_20_R_18.png","img/750/randomdotsizeEA/L/6_Ratio_750_L_24_R_18.png","img/250/equaldotsize/L/7_Ratio_250_L_8_R_2.png","img/750/randomdotsizeEA/R/7_Ratio_750_L_3_R_4.png","img/250/equaldotsize/R/8_Ratio_250_L_1_R_4.png","img/500/equaldotsize/L/8_Ratio_500_L_8_R_4.png","img/900/equaldotanddens/R/6_Ratio_900_L_9_R_10.png","img/500/equaldotsize/L/11_Ratio_500_L_12_R_6.png","img/750/randomdotsizeEA/R/15_Ratio_750_L_9_R_12.png","img/900/equaldotsize/L/1_Ratio_900_L_10_R_9.png","img/500/equaldotsize/R/1_Ratio_500_L_9_R_18.png","img/500/equaldotanddens/R/3_Ratio_500_L_10_R_20.png","img/500/randomdotsizeEA/R/12_Ratio_500_L_1_R_2.png","img/500/equaldotanddens/R/1_Ratio_500_L_9_R_18.png","img/900/equaldotanddens/R/5_Ratio_900_L_9_R_10.png","img/750/equaldotanddens/R/2_Ratio_750_L_6_R_8.png","img/900/randomdotsizeEA/R/7_Ratio_900_L_9_R_10.png","img/250/equaldotsize/L/5_Ratio_250_L_24_R_6.png","img/250/equaldotsize/L/15_Ratio_250_L_12_R_3.png","img/500/equaldotsize/L/13_Ratio_500_L_12_R_6.png","img/250/equaldotanddens/R/9_Ratio_250_L_3_R_12.png","img/750/equaldotsize/L/6_Ratio_750_L_24_R_18.png","img/900/equaldotanddens/L/10_Ratio_900_L_20_R_18.png","img/250/equaldotanddens/R/10_Ratio_250_L_4_R_16.png","img/900/equaldotsize/L/1_Ratio_900_L_10_R_9.png","img/500/equaldotanddens/L/13_Ratio_500_L_12_R_6.png","img/250/randomdotsizeEA/L/7_Ratio_250_L_8_R_2.png","img/900/equaldotanddens/R/13_Ratio_900_L_18_R_20.png","img/500/equaldotanddens/L/4_Ratio_500_L_18_R_9.png"],"Rat0":[["12_Ratio_0_L_9_R_0.png","13_Ratio_0_L_6_R_0.png","5_Ratio_0_L_2_R_0.png","6_Ratio_0_L_4_R_0.png","8_Ratio_0_L_6_R_0.png"],["1_Ratio_0_L_0_R_17.png","10_Ratio_0_L_0_R_22.png","11_Ratio_0_L_0_R_1.png","14_Ratio_0_L_0_R_24.png","15_Ratio_0_L_0_R_4.png","2_Ratio_0_L_0_R_5.png","3_Ratio_0_L_0_R_17.png","4_Ratio_0_L_0_R_7.png","7_Ratio_0_L_0_R_19.png","9_Ratio_0_L_0_R_15.png"]],"Rat250":[["1_Ratio_250_L_8_R_2.png","14_Ratio_250_L_12_R_3.png","15_Ratio_250_L_12_R_3.png","2_Ratio_250_L_16_R_4.png","3_Ratio_250_L_8_R_2.png","5_Ratio_250_L_24_R_6.png","7_Ratio_250_L_8_R_2.png"],["10_Ratio_250_L_4_R_16.png","11_Ratio_250_L_3_R_12.png","12_Ratio_250_L_5_R_20.png","13_Ratio_250_L_2_R_8.png","4_Ratio_250_L_3_R_12.png","6_Ratio_250_L_6_R_24.png","8_Ratio_250_L_1_R_4.png","9_Ratio_250_L_3_R_12.png"]],"Rat500":[["10_Ratio_500_L_4_R_2.png","11_Ratio_500_L_12_R_6.png","13_Ratio_500_L_12_R_6.png","4_Ratio_500_L_18_R_9.png","5_Ratio_500_L_4_R_2.png","7_Ratio_500_L_10_R_5.png","8_Ratio_500_L_8_R_4.png"],["1_Ratio_500_L_9_R_18.png","12_Ratio_500_L_1_R_2.png","14_Ratio_500_L_5_R_10.png","15_Ratio_500_L_1_R_2.png","2_Ratio_500_L_3_R_6.png","3_Ratio_500_L_10_R_20.png","6_Ratio_500_L_9_R_18.png","9_Ratio_500_L_2_R_4.png"]],"Rat750":[["1_Ratio_750_L_20_R_15.png","10_Ratio_750_L_4_R_3.png","13_Ratio_750_L_8_R_6.png","14_Ratio_750_L_8_R_6.png","6_Ratio_750_L_24_R_18.png","8_Ratio_750_L_4_R_3.png","9_Ratio_750_L_4_R_3.png"],["11_Ratio_750_L_12_R_16.png","12_Ratio_750_L_3_R_4.png","15_Ratio_750_L_9_R_12.png","2_Ratio_750_L_6_R_8.png","3_Ratio_750_L_15_R_20.png","4_Ratio_750_L_15_R_20.png","5_Ratio_750_L_15_R_20.png","7_Ratio_750_L_3_R_4.png"]],"Rat900":[["1_Ratio_900_L_10_R_9.png","10_Ratio_900_L_20_R_18.png","2_Ratio_900_L_20_R_18.png","4_Ratio_900_L_20_R_18.png","8_Ratio_900_L_20_R_18.png"],["11_Ratio_900_L_18_R_20.png","12_Ratio_900_L_18_R_20.png","13_Ratio_900_L_18_R_20.png","14_Ratio_900_L_18_R_20.png","15_Ratio_900_L_9_R_10.png","3_Ratio_900_L_9_R_10.png","5_Ratio_900_L_9_R_10.png","6_Ratio_900_L_9_R_10.png","7_Ratio_900_L_9_R_10.png","9_Ratio_900_L_18_R_20.png"]],"Rat1000":[["10_Ratio_1000_L_16_R_16.png","11_Ratio_1000_L_6_R_6.png","12_Ratio_1000_L_14_R_14.png","13_Ratio_1000_L_20_R_20.png","15_Ratio_1000_L_15_R_15.png","2_Ratio_1000_L_17_R_17.png","4_Ratio_1000_L_9_R_9.png","5_Ratio_1000_L_6_R_6.png","6_Ratio_1000_L_19_R_19.png","8_Ratio_1000_L_14_R_14.png","9_Ratio_1000_L_25_R_25.png"],["1_Ratio_1000_L_1_R_1.png","14_Ratio_1000_L_17_R_17.png","3_Ratio_1000_L_17_R_17.png","7_Ratio_1000_L_6_R_6.png"]]}},{"start_time":1551901137562,"click_time":1551901139538,"finger_time":1551901139258,"fix_duration":1122.2778660599529,"trial":1,"RT":1696,"MT":280,"sideResp":2,"stimulus":"img/750/equaldotanddens/L/9_Ratio_750_L_4_R_3.png","xmouse":[787,787,787,787,787,787,787,787,787,787,787,787,787,787,787,787,787,787,787,787,787,787,787,787,787,787,787,787,787,787,787,787,787,787,787,787,787,787,787,787,787,787,787,787,787,787,787,787,787,787,787,787,787,787,787,787,787,787,787,787,787,787,787,787,787,787,788,794,798,803,804,804,804,804,804,804,804,804,804,804,804,804,804,814,845,906,991,1158,1197,1212,1216,1216,1216,1216,1216,1215,1212,1180,1128],"ymouse":[644,644,644,644,644,644,644,644,644,644,644,644,644,644,644,644,644,644,644,644,644,644,644,644,644,644,644,644,644,644,644,644,644,644,644,644,644,644,644,644,644,644,644,644,644,644,644,644,644,644,644,644,644,644,644,644,644,644,644,644,644,644,644,644,644,644,642,630,624,619,616,616,616,616,616,616,616,616,616,616,616,616,616,603,556,472,367,144,80,47,26,4,0,0,0,0,1,13,29],"timestamp_mouse":[17,39,57,76,95,116,136,156,175,197,216,235,256,277,297,316,337,357,377,396,415,436,456,476,496,517,536,556,575,595,616,636,656,676,695,716,735,756,775,795,816,836,856,877,895,915,936,955,977,996,1016,1036,1055,1077,1095,1117,1135,1157,1177,1196,1217,1235,1255,1277,1295,1317,1336,1355,1376,1396,1417,1436,1456,1476,1495,1516,1536,1555,1577,1595,1617,1637,1655,1676,1696,1716,1736,1756,1776,1797,1815,1836,1856,1875,1896,1915,1936,1956,1975],"xSR":741.5,"ySR":573.95,"xT1":424.9,"yT1":0,"xT2":1058.1,"yT2":0,"toosoon":0,"cond_shown":"equaldotanddens","ratio_trial":750,"smaller_num":"3","larger_num":"4","correct_side":1,"subjID":"SARAVALENTINARUBIOGAMEZ1","gender":"0","age":"11","school":"6"},{"start_time":1551901141002,"click_time":1551901142078,"finger_time":1551901141718,"fix_duration":402.7046191557675,"trial":2,"RT":716,"MT":360,"sideResp":1,"stimulus":"img/500/randomdotsizeEA/L/4_Ratio_500_L_18_R_9.png","xmouse":[800,800,800,800,800,800,800,800,800,800,800,800,800,800,800,800,800,800,800,800,800,800,800,800,800,800,800,800,800,800,800,800,800,800,799,791,785,771,741,724,692,673,651,637,624,596,589,581,581,579,568,553,537,517],"ymouse":[599,599,599,599,599,599,599,599,599,599,599,599,599,599,599,599,599,599,599,599,599,599,599,599,599,599,599,599,599,599,599,599,599,599,585,530,486,430,339,301,230,189,141,114,92,43,29,18,17,17,17,21,27,32],"timestamp_mouse":[16,41,56,76,96,115,136,156,177,196,215,236,257,275,297,316,336,356,375,395,415,437,456,475,496,517,535,555,576,596,616,637,656,677,696,716,736,757,775,797,815,836,855,876,895,915,936,957,977,997,1016,1035,1055,1076],"xSR":741.5,"ySR":573.95,"xT1":424.9,"yT1":0,"xT2":1058.1,"yT2":0,"toosoon":0,"cond_shown":"randomdotsizeEA","ratio_trial":500,"smaller_num":"9","larger_num":"18","correct_side":1,"subjID":"SARAVALENTINARUBIOGAMEZ1","gender":"0","age":"11","school":"6"},{"start_time":1551901145169,"click_time":1551901146177,"finger_time":1551901145878,"fix_duration":548.6822243142661,"trial":3,"RT":709,"MT":299,"sideResp":2,"stimulus":"img/250/equaldotsize/R/13_Ratio_250_L_2_R_8.png","xmouse":[789,789,789,789,789,789,789,789,789,789,789,789,789,789,789,789,789,789,789,789,789,789,789,789,789,789,789,789,789,789,789,789,789,793,833,896,974,1080,1095,1103,1112,1127,1138,1138,1138,1138,1138,1138,1138,1138,1135],"ymouse":[635,635,635,635,635,635,635,635,635,635,635,635,635,635,635,635,635,635,635,635,635,635,635,635,635,635,635,635,635,635,635,635,635,622,574,501,420,263,216,191,172,137,114,112,112,112,112,112,111,107,82],"timestamp_mouse":[15,30,48,69,89,109,130,149,169,189,209,230,248,268,290,309,329,348,368,389,409,430,448,468,489,509,530,549,569,588,608,629,648,668,689,709,729,749,769,789,808,828,848,870,890,909,929,948,969,989,1008],"xSR":741.5,"ySR":573.95,"xT1":424.9,"yT1":0,"xT2":1058.1,"yT2":0,"toosoon":0,"cond_shown":"equaldotsize","ratio_trial":250,"smaller_num":"2","larger_num":"8","correct_side":2,"subjID":"SARAVALENTINARUBIOGAMEZ1","gender":"0","age":"11","school":"6"},{"start_time":1551901149338,"click_time":1551901150318,"finger_time":1551901149999,"fix_duration":797.9275501078251,"trial":4,"RT":661,"MT":319,"sideResp":1,"stimulus":"img/900/equaldotanddens/L/8_Ratio_900_L_20_R_18.png","xmouse":[804,804,804,804,804,804,804,804,804,804,804,804,804,804,804,804,804,804,804,804,804,804,804,804,804,804,804,804,804,804,804,804,804,804,748,717,676,626,583,559,557,557,557,556,543,542,541,538,529,485],"ymouse":[635,635,635,635,635,635,635,635,635,635,635,635,635,635,635,635,635,635,635,635,635,635,635,635,635,635,635,635,635,635,629,616,591,529,355,285,208,125,53,12,9,8,8,6,0,0,0,0,2,28],"timestamp_mouse":[1,20,41,60,80,101,121,140,160,180,199,219,241,259,281,299,320,339,360,381,400,420,440,461,481,500,521,540,559,580,601,620,640,661,680,700,721,740,760,780,800,821,839,861,880,900,921,941,961,979],"xSR":741.5,"ySR":573.95,"xT1":424.9,"yT1":0,"xT2":1058.1,"yT2":0,"toosoon":0,"cond_shown":"equaldotanddens","ratio_trial":900,"smaller_num":"18","larger_num":"20","correct_side":1,"subjID":"SARAVALENTINARUBIOGAMEZ1","gender":"0","age":"11","school":"6"},{"start_time":1551901151570,"click_time":1551901152918,"finger_time":1551901152277,"fix_duration":250,"trial":5,"RT":707,"MT":641,"sideResp":2,"stimulus":"img/500/randomdotsizeEA/R/15_Ratio_500_L_1_R_2.png","xmouse":[779,779,779,779,779,779,779,779,779,779,779,779,779,779,779,779,779,779,779,779,779,779,779,779,779,779,779,779,779,779,779,779,779,779,779,779,779,772,744,714,650,612,574,572,572,570,568,564,563,562,562,560,559,561,588,703,908,1267,1369,1402,1402,1401,1387,1372,1335,1262,1189,1070],"ymouse":[609,609,609,609,609,609,609,609,609,609,609,609,609,609,609,609,609,609,609,609,609,609,609,609,609,609,609,609,609,609,609,609,609,604,584,556,523,417,332,255,121,61,6,0,0,0,0,0,0,0,0,0,3,11,23,52,81,127,139,139,139,139,133,127,118,95,66,32],"timestamp_mouse":[11,35,49,68,87,109,128,148,168,189,207,228,248,267,288,308,327,348,367,389,407,428,449,469,488,509,529,548,569,587,608,628,648,667,688,707,729,748,768,789,807,829,848,867,888,908,927,949,968,988,1008,1029,1049,1068,1089,1108,1128,1148,1167,1188,1208,1228,1248,1268,1288,1307,1328,1348],"xSR":741.5,"ySR":573.95,"xT1":424.9,"yT1":0,"xT2":1058.1,"yT2":0,"toosoon":0,"cond_shown":"randomdotsizeEA","ratio_trial":500,"smaller_num":"1","larger_num":"2","correct_side":2,"subjID":"SARAVALENTINARUBIOGAMEZ1","gender":"0","age":"11","school":"6"},{"start_time":1551901154150,"click_time":1551901155537,"finger_time":1551901155238,"fix_duration":250,"trial":6,"RT":1088,"MT":299,"sideResp":1,"stimulus":"img/900/randomdotsizeEA/R/9_Ratio_900_L_18_R_20.png","xmouse":[775,775,775,775,775,775,775,775,775,775,775,775,775,775,775,775,775,775,775,775,775,775,775,775,775,775,775,775,775,775,775,775,775,775,775,775,775,775,775,775,775,775,775,775,775,775,775,775,775,775,775,775,775,775,776,776,770,747,660,606,549,489,448,445,445,445,445,445,445,445],"ymouse":[606,606,606,606,606,606,606,606,606,606,606,606,606,606,606,606,606,606,606,606,606,606,606,606,606,606,606,606,606,606,606,606,606,605,604,604,603,603,603,603,603,603,603,603,603,603,603,603,603,603,603,603,603,593,571,516,436,344,167,86,12,0,0,0,0,0,0,0,0,2],"timestamp_mouse":[9,30,48,68,89,108,128,147,169,188,208,228,247,267,289,307,329,347,369,387,409,427,448,467,489,507,527,549,569,588,607,629,647,668,687,709,729,748,768,789,808,829,848,868,888,908,929,947,968,989,1008,1027,1048,1067,1088,1108,1128,1147,1169,1189,1208,1228,1247,1268,1288,1309,1327,1348,1367,1387],"xSR":741.5,"ySR":573.95,"xT1":424.9,"yT1":0,"xT2":1058.1,"yT2":0,"toosoon":0,"cond_shown":"randomdotsizeEA","ratio_trial":900,"smaller_num":"18","larger_num":"20","correct_side":2,"subjID":"SARAVALENTINARUBIOGAMEZ1","gender":"0","age":"11","school":"6"},{"start_time":1551901160290,"click_time":1551901161018,"finger_time":1551901160917,"fix_duration":250,"trial":7,"RT":627,"MT":101,"sideResp":2,"stimulus":"img/250/randomdotsizeEA/L/15_Ratio_250_L_12_R_3.png","xmouse":[796,796,796,796,796,796,796,796,796,796,796,796,796,796,796,796,796,796,796,796,796,796,796,796,796,796,796,796,796,796,800,830,860,911,962,1027,1075],"ymouse":[615,615,615,615,615,615,615,615,615,615,615,615,615,615,615,615,615,615,615,615,615,615,615,615,615,615,615,615,615,612,608,552,489,404,310,174,51],"timestamp_mouse":[9,27,48,67,88,107,127,148,167,187,207,228,247,267,288,309,328,349,367,388,408,427,447,469,489,507,529,548,567,588,609,627,647,669,688,708,728],"xSR":741.5,"ySR":573.95,"xT1":424.9,"yT1":0,"xT2":1058.1,"yT2":0,"toosoon":0,"cond_shown":"randomdotsizeEA","ratio_trial":250,"smaller_num":"3","larger_num":"12","correct_side":1,"subjID":"SARAVALENTINARUBIOGAMEZ1","gender":"0","age":"11","school":"6"},{"start_time":1551901163946,"click_time":1551901165398,"finger_time":1551901165099,"fix_duration":1306.1950533214435,"trial":8,"RT":1153,"MT":299,"sideResp":1,"stimulus":"img/500/equaldotanddens/L/5_Ratio_500_L_4_R_2.png","xmouse":[809,809,809,809,809,809,809,809,809,809,809,809,809,809,809,809,809,809,809,809,809,809,809,809,809,809,809,809,809,809,809,809,809,809,809,809,810,810,810,810,810,810,810,810,810,810,810,810,810,810,810,810,810,810,810,810,802,792,703,648,558,537,512,511,510,509,504,499,498,498,498,496,490],"ymouse":[613,613,613,613,613,613,613,613,613,613,613,613,613,613,613,613,613,613,613,613,613,613,613,613,613,613,613,613,613,613,613,613,613,613,613,613,612,612,612,612,612,612,612,612,612,612,612,612,612,612,612,612,612,612,612,612,575,548,378,287,176,153,127,125,125,124,123,122,121,119,114,107,98],"timestamp_mouse":[11,34,51,72,92,111,133,151,171,192,212,232,253,272,293,311,333,352,373,393,411,432,453,471,493,512,531,552,571,593,612,632,653,673,692,713,732,752,773,792,811,831,853,871,893,912,932,951,973,991,1012,1032,1053,1072,1092,1111,1132,1153,1172,1193,1211,1231,1251,1273,1292,1311,1331,1352,1371,1392,1413,1432,1452],"xSR":741.5,"ySR":573.95,"xT1":424.9,"yT1":0,"xT2":1058.1,"yT2":0,"toosoon":0,"cond_shown":"equaldotanddens","ratio_trial":500,"smaller_num":"2","larger_num":"4","correct_side":1,"subjID":"SARAVALENTINARUBIOGAMEZ1","gender":"0","age":"11","school":"6"},{"start_time":1551901167391,"click_time":1551901169298,"finger_time":1551901168818,"fix_duration":871.301168604655,"trial":9,"RT":1427,"MT":480,"sideResp":2,"stimulus":"img/500/randomdotsizeEA/R/1_Ratio_500_L_9_R_18.png","xmouse":[806,806,806,806,806,806,806,806,806,806,806,806,806,806,806,806,806,806,806,806,806,806,806,806,806,806,806,806,806,806,806,806,806,806,806,806,806,806,806,806,806,806,806,806,806,806,806,806,806,806,806,806,806,806,806,806,806,806,806,806,806,806,806,806,806,806,806,806,806,806,806,805,804,793,788,788,798,809,826,857,921,971,979,982,983,983,1023,1114,1120,1123,1123,1123,1122,1122,1122,1123],"ymouse":[610,610,610,610,610,610,610,610,610,610,610,610,610,610,610,610,610,610,610,610,610,610,610,610,610,610,610,610,610,610,610,610,610,610,610,610,610,610,610,610,610,610,610,610,610,610,610,610,610,610,610,610,610,610,610,610,610,610,610,610,610,610,610,610,610,610,610,610,610,610,602,554,506,438,377,328,277,264,255,249,239,222,216,213,212,210,192,153,146,133,124,115,111,108,104,99],"timestamp_mouse":[9,41,48,67,87,107,126,147,167,187,207,228,247,267,287,308,326,348,367,386,406,427,447,467,487,508,526,546,568,586,608,628,647,667,688,706,727,748,766,788,808,827,846,868,888,907,927,946,966,987,1007,1027,1047,1066,1086,1106,1128,1146,1167,1188,1207,1226,1248,1266,1287,1307,1326,1348,1367,1387,1407,1427,1447,1467,1486,1507,1527,1548,1568,1587,1607,1627,1647,1668,1686,1708,1727,1751,1768,1787,1807,1827,1846,1867,1887,1907],"xSR":741.5,"ySR":573.95,"xT1":424.9,"yT1":0,"xT2":1058.1,"yT2":0,"toosoon":0,"cond_shown":"randomdotsizeEA","ratio_trial":500,"smaller_num":"9","larger_num":"18","correct_side":2,"subjID":"SARAVALENTINARUBIOGAMEZ1","gender":"0","age":"11","school":"6"},{"start_time":1551901171862,"click_time":1551901173538,"finger_time":1551901172997,"fix_duration":1342.9982695399747,"trial":10,"RT":1135,"MT":541,"sideResp":2,"stimulus":"img/750/equaldotsize/L/10_Ratio_750_L_4_R_3.png","xmouse":[812,812,812,812,812,812,812,812,812,812,812,812,812,812,812,812,812,812,812,812,812,812,812,812,812,812,812,812,812,812,812,812,812,812,812,812,812,812,812,812,812,812,812,812,812,812,812,812,812,812,812,812,812,813,818,829,847,886,891,893,900,906,916,918,920,924,937,961,972,978,979,979,984,1006,1026,1039,1045,1045,1045,1046,1047,1048,1056,1062],"ymouse":[639,639,639,639,639,639,639,639,639,639,639,639,639,639,639,639,639,639,639,639,639,639,639,639,639,639,639,639,639,639,639,639,639,639,639,639,639,639,639,639,639,639,639,639,639,639,639,639,639,639,639,639,639,635,630,619,601,471,412,365,307,266,228,220,214,204,179,145,133,125,125,125,123,120,117,113,110,108,107,106,105,102,89,79],"timestamp_mouse":[16,35,55,77,96,116,135,157,175,197,217,236,256,277,295,316,336,356,377,396,416,435,455,476,495,517,536,555,576,595,615,637,655,677,697,716,736,756,775,797,815,835,855,877,896,916,935,957,976,997,1015,1037,1056,1077,1095,1117,1135,1155,1175,1195,1215,1235,1256,1276,1297,1316,1337,1356,1376,1396,1417,1436,1457,1476,1495,1515,1537,1556,1576,1595,1615,1635,1656,1676],"xSR":741.5,"ySR":573.95,"xT1":424.9,"yT1":0,"xT2":1058.1,"yT2":0,"toosoon":0,"cond_shown":"equaldotsize","ratio_trial":750,"smaller_num":"3","larger_num":"4","correct_side":1,"subjID":"SARAVALENTINARUBIOGAMEZ1","gender":"0","age":"11","school":"6"},{"start_time":1551901177155,"click_time":1551901178118,"finger_time":1551901177917,"fix_duration":496.8703538640378,"trial":11,"RT":762,"MT":201,"sideResp":1,"stimulus":"img/250/randomdotsizeEA/L/7_Ratio_250_L_8_R_2.png","xmouse":[793,793,793,793,793,793,793,793,793,793,793,793,793,793,793,793,793,793,793,793,793,793,793,793,793,793,793,793,793,793,793,793,793,793,793,793,790,785,744,702,652,601,537,497,494,492,491,489,479],"ymouse":[615,615,615,615,615,615,615,615,615,615,615,615,615,615,615,615,615,615,615,615,615,615,615,615,615,615,615,615,615,615,615,615,615,615,615,611,601,577,445,341,212,79,0,0,0,0,0,0,8],"timestamp_mouse":[23,24,43,62,84,102,124,143,163,183,203,222,242,264,283,303,323,343,363,383,403,422,444,462,482,503,524,542,562,583,602,623,642,663,684,702,724,743,762,782,803,822,842,863,883,902,923,943,963],"xSR":741.5,"ySR":573.95,"xT1":424.9,"yT1":0,"xT2":1058.1,"yT2":0,"toosoon":0,"cond_shown":"randomdotsizeEA","ratio_trial":250,"smaller_num":"2","larger_num":"8","correct_side":1,"subjID":"SARAVALENTINARUBIOGAMEZ1","gender":"0","age":"11","school":"6"},{"start_time":1551901180477,"click_time":1551901181459,"finger_time":1551901181199,"fix_duration":1059.194367817122,"trial":12,"RT":722,"MT":260,"sideResp":2,"stimulus":"img/250/randomdotsizeEA/R/10_Ratio_250_L_4_R_16.png","xmouse":[779,779,779,779,779,779,779,779,779,779,779,779,779,779,779,779,779,779,779,779,779,779,779,779,779,779,779,779,779,779,779,779,779,785,798,819,855,937,965,982,996,1006,1027,1035,1041,1042,1042,1048,1053,1061],"ymouse":[626,626,626,626,626,626,626,626,626,626,626,626,626,626,626,626,626,626,626,626,626,626,626,626,626,626,626,626,626,626,626,626,626,623,607,579,523,376,309,247,195,153,82,62,52,51,51,41,36,34],"timestamp_mouse":[9,21,42,62,80,101,122,140,162,182,200,221,242,261,282,302,322,341,362,381,402,420,441,462,480,500,521,541,562,582,602,621,640,661,682,701,722,741,761,781,800,820,840,862,881,901,920,941,961,982],"xSR":741.5,"ySR":573.95,"xT1":424.9,"yT1":0,"xT2":1058.1,"yT2":0,"toosoon":0,"cond_shown":"randomdotsizeEA","ratio_trial":250,"smaller_num":"4","larger_num":"16","correct_side":2,"subjID":"SARAVALENTINARUBIOGAMEZ1","gender":"0","age":"11","school":"6"},{"start_time":1551901183492,"click_time":1551901184818,"finger_time":1551901184598,"fix_duration":772.9613882634924,"trial":13,"RT":1106,"MT":220,"sideResp":2,"stimulus":"img/500/equaldotanddens/R/1_Ratio_500_L_9_R_18.png","xmouse":[789,789,789,789,789,789,789,789,789,789,789,789,789,789,789,789,789,789,789,789,789,789,789,789,789,789,789,789,789,789,789,789,789,789,789,789,789,789,789,789,789,789,789,789,789,789,789,789,789,789,789,789,795,800,815,860,951,994,1041,1077,1095,1104,1104,1106,1111,1119,1136],"ymouse":[629,629,629,629,629,629,629,629,629,629,629,629,629,629,629,629,629,629,629,629,629,629,629,629,629,629,629,629,629,629,629,629,629,629,629,629,629,629,629,629,629,629,629,629,629,629,629,629,629,629,629,629,622,617,602,540,409,337,271,224,192,171,169,164,149,122,72],"timestamp_mouse":[15,41,46,66,87,106,126,147,166,187,207,226,246,266,287,305,326,347,366,386,407,427,447,465,487,507,526,547,566,585,606,627,646,665,686,707,727,747,765,786,807,827,846,867,887,906,926,947,967,986,1007,1027,1046,1067,1087,1106,1126,1146,1166,1186,1205,1225,1246,1265,1286,1306,1326],"xSR":741.5,"ySR":573.95,"xT1":424.9,"yT1":0,"xT2":1058.1,"yT2":0,"toosoon":0,"cond_shown":"equaldotanddens","ratio_trial":500,"smaller_num":"9","larger_num":"18","correct_side":2,"subjID":"SARAVALENTINARUBIOGAMEZ1","gender":"0","age":"11","school":"6"},{"start_time":1551901186477,"click_time":1551901188038,"finger_time":1551901187658,"fix_duration":597.2691756346893,"trial":14,"RT":1181,"MT":380,"sideResp":1,"stimulus":"img/500/equaldotanddens/L/7_Ratio_500_L_10_R_5.png","xmouse":[805,805,805,805,805,805,805,805,805,805,805,805,805,805,805,805,805,805,805,805,805,805,805,805,805,805,805,805,805,805,805,805,805,805,805,805,805,805,805,805,805,805,805,805,805,805,805,805,805,805,805,805,805,805,805,805,805,804,797,782,765,748,688,642,605,582,546,517,511,505,498,494,492,492,492,492,492,491,489],"ymouse":[609,609,609,609,609,609,609,612,614,614,614,614,614,614,614,614,614,614,614,614,614,614,614,614,614,614,614,614,614,614,614,614,614,614,614,614,614,614,614,614,614,614,614,614,614,614,614,614,614,614,614,614,614,614,614,614,614,615,593,546,484,421,304,236,157,103,35,0,0,0,0,0,0,0,0,0,0,0,5],"timestamp_mouse":[9,21,42,69,82,100,132,141,161,181,201,221,241,260,280,301,321,342,361,381,402,420,440,461,481,501,521,542,560,582,600,621,640,662,682,700,721,741,761,781,800,820,841,861,882,901,922,940,960,981,1001,1021,1041,1062,1081,1101,1122,1140,1162,1181,1201,1220,1241,1262,1280,1300,1321,1341,1360,1381,1402,1422,1442,1462,1481,1501,1522,1542,1561],"xSR":741.5,"ySR":573.95,"xT1":424.9,"yT1":0,"xT2":1058.1,"yT2":0,"toosoon":0,"cond_shown":"equaldotanddens","ratio_trial":500,"smaller_num":"5","larger_num":"10","correct_side":1,"subjID":"SARAVALENTINARUBIOGAMEZ1","gender":"0","age":"11","school":"6"},{"start_time":1551901190870,"click_time":1551901193718,"finger_time":1551901193218,"fix_duration":250,"trial":15,"RT":2348,"MT":500,"sideResp":2,"stimulus":"img/750/equaldotsize/L/10_Ratio_750_L_4_R_3.png","xmouse":[787,787,787,787,787,787,787,787,787,787,787,787,787,787,787,787,787,787,787,787,787,787,787,787,787,787,787,787,787,787,787,787,787,787,787,787,787,787,787,787,787,787,787,787,787,787,787,787,787,787,787,787,787,787,787,787,787,787,787,787,787,787,787,787,787,787,787,787,787,787,787,787,787,787,787,787,787,787,787,787,787,787,787,787,787,787,787,787,787,787,787,787,787,787,787,787,787,787,787,787,787,787,787,787,787,787,787,787,787,787,787,787,787,787,787,787,797,853,888,922,956,980,999,1002,1004,1004,1005,1020,1025,1027,1029,1030,1032,1033,1034,1037,1039,1046,1050,1055,1056,1057,1063],"ymouse":[630,630,630,630,630,630,630,630,630,630,630,630,630,630,630,630,630,630,630,630,630,630,630,630,630,630,630,630,630,630,630,630,630,630,630,630,630,630,630,630,630,630,630,630,630,630,630,630,630,630,630,630,630,630,630,630,630,630,630,630,630,630,630,630,630,630,630,630,630,630,630,630,630,630,630,630,630,630,630,630,630,630,630,630,630,630,630,630,630,630,630,630,630,630,630,630,630,630,630,630,630,630,630,630,630,630,630,630,630,630,630,630,630,630,630,621,584,460,384,301,235,186,138,126,120,119,117,100,94,90,87,85,83,82,81,79,77,73,71,70,69,69,69],"timestamp_mouse":[10,33,48,68,87,109,127,149,169,187,209,228,248,269,288,309,328,347,369,388,407,428,448,468,489,508,528,548,569,587,607,627,648,667,687,709,728,749,769,788,808,827,847,868,888,908,928,948,968,988,1008,1029,1048,1067,1089,1107,1127,1148,1168,1188,1207,1228,1249,1269,1288,1309,1327,1347,1368,1388,1407,1427,1447,1469,1487,1508,1529,1548,1567,1588,1608,1627,1649,1669,1689,1708,1727,1749,1769,1788,1808,1828,1848,1868,1887,1908,1929,1949,1968,1988,2008,2028,2048,2068,2089,2108,2127,2148,2168,2188,2209,2227,2248,2269,2288,2308,2328,2348,2369,2388,2409,2428,2448,2467,2488,2508,2528,2547,2569,2587,2609,2629,2649,2669,2687,2708,2729,2748,2769,2789,2809,2828,2848],"xSR":741.5,"ySR":573.95,"xT1":424.9,"yT1":0,"xT2":1058.1,"yT2":0,"toosoon":0,"cond_shown":"equaldotsize","ratio_trial":750,"smaller_num":"3","larger_num":"4","correct_side":1,"subjID":"SARAVALENTINARUBIOGAMEZ1","gender":"0","age":"11","school":"6"},{"start_time":1551901197367,"click_time":1551901201078,"finger_time":1551901200518,"fix_duration":1127.1825172688154,"trial":16,"RT":3151,"MT":560,"sideResp":2,"stimulus":"img/250/equaldotsize/R/8_Ratio_250_L_1_R_4.png","xmouse":[768,768,768,768,768,768,768,768,768,768,768,768,768,768,768,768,768,768,768,768,768,768,768,768,768,768,768,768,768,768,768,768,768,768,768,768,768,768,768,768,768,768,768,768,768,768,768,768,768,768,768,768,768,768,768,768,768,768,768,768,768,768,768,768,768,768,768,768,768,768,768,768,768,768,768,768,768,768,768,768,768,768,768,768,768,768,768,768,768,768,768,768,768,768,768,768,768,768,768,768,768,768,768,768,768,768,768,768,768,768,768,768,768,768,768,768,768,768,768,768,768,768,768,768,768,768,768,768,768,768,768,768,768,768,768,768,768,768,768,768,768,768,768,768,768,768,768,768,768,768,768,768,768,768,769,772,782,855,906,962,1007,1054,1080,1086,1088,1092,1100,1106,1106,1103,1102,1102,1102,1102,1102,1103,1103,1103,1103,1103,1103,1104,1105,1105,1105,1105],"ymouse":[630,630,630,630,630,630,630,630,630,630,630,630,630,630,630,630,630,630,630,630,630,630,630,630,630,630,630,630,630,630,630,630,630,630,630,630,630,630,630,630,630,630,630,630,630,630,630,630,630,630,630,630,630,630,630,630,630,630,630,630,630,630,630,630,630,630,630,630,630,630,630,630,630,630,630,630,630,630,630,630,630,630,630,630,630,630,630,630,630,630,630,630,630,630,630,630,630,630,630,630,630,630,630,630,630,630,630,630,630,630,630,630,630,630,630,630,630,630,630,630,630,630,630,630,630,630,630,630,630,630,630,630,630,630,630,630,630,630,630,630,630,630,630,630,630,630,630,630,630,630,630,630,630,630,630,627,613,548,502,445,391,316,259,241,221,195,172,144,136,129,127,127,127,126,122,119,116,114,112,109,107,105,103,102,100,99],"timestamp_mouse":[10,33,50,72,91,112,132,151,171,192,210,231,251,272,291,312,331,351,371,391,410,432,451,472,491,510,532,551,572,591,610,632,652,671,691,711,730,751,772,792,810,830,851,871,891,912,931,952,971,992,1011,1031,1052,1072,1091,1111,1131,1152,1170,1191,1212,1231,1251,1272,1290,1311,1331,1352,1371,1392,1411,1430,1451,1472,1492,1510,1531,1551,1570,1591,1612,1631,1651,1671,1692,1711,1732,1751,1772,1792,1812,1830,1852,1871,1892,1910,1932,1952,1971,1991,2012,2032,2051,2072,2092,2112,2132,2150,2171,2190,2210,2232,2252,2270,2292,2312,2332,2350,2371,2391,2412,2430,2452,2472,2490,2511,2531,2552,2572,2590,2612,2631,2651,2671,2692,2712,2731,2751,2772,2792,2811,2831,2851,2872,2892,2910,2931,2952,2972,2992,3010,3032,3052,3070,3090,3111,3132,3151,3172,3192,3212,3232,3250,3271,3291,3311,3331,3350,3372,3391,3411,3432,3451,3470,3491,3511,3531,3552,3571,3590,3611,3632,3651,3670,3691,3711],"xSR":741.5,"ySR":573.95,"xT1":424.9,"yT1":0,"xT2":1058.1,"yT2":0,"toosoon":0,"cond_shown":"equaldotsize","ratio_trial":250,"smaller_num":"1","larger_num":"4","correct_side":2,"subjID":"SARAVALENTINARUBIOGAMEZ1","gender":"0","age":"11","school":"6"},{"start_time":1551901204576,"click_time":1551901205378,"finger_time":1551901205297,"fix_duration":715.1221982762394,"trial":17,"RT":721,"MT":81,"sideResp":2,"stimulus":"img/750/equaldotsize/R/12_Ratio_750_L_3_R_4.png","xmouse":[801,801,801,801,801,801,801,801,801,801,801,801,801,801,801,801,801,801,801,801,801,801,801,801,801,801,801,801,801,801,801,801,801,801,804,820,862,1003,1069,1112,1133],"ymouse":[631,631,631,631,631,631,631,631,631,631,631,631,631,631,631,631,631,631,631,631,631,631,631,631,631,631,631,631,631,631,631,631,631,631,614,593,523,310,200,116,60],"timestamp_mouse":[8,23,43,61,83,103,121,142,162,181,203,221,243,261,282,301,323,341,362,382,401,423,442,462,483,501,521,542,562,581,603,622,643,662,682,702,721,742,763,783,802],"xSR":741.5,"ySR":573.95,"xT1":424.9,"yT1":0,"xT2":1058.1,"yT2":0,"toosoon":0,"cond_shown":"equaldotsize","ratio_trial":750,"smaller_num":"3","larger_num":"4","correct_side":2,"subjID":"SARAVALENTINARUBIOGAMEZ1","gender":"0","age":"11","school":"6"},{"start_time":1551901206977,"click_time":1551901208639,"finger_time":1551901208258,"fix_duration":377.7594022939248,"trial":18,"RT":1281,"MT":381,"sideResp":2,"stimulus":"img/750/equaldotanddens/L/9_Ratio_750_L_4_R_3.png","xmouse":[802,802,802,802,802,802,802,802,802,802,802,802,802,802,802,802,802,802,802,802,802,802,802,802,802,802,802,802,802,802,802,802,802,802,802,802,802,802,802,802,802,802,802,802,802,802,802,802,802,802,802,802,802,802,802,802,802,802,802,802,802,802,803,834,870,914,963,1025,1036,1042,1044,1047,1050,1050,1050,1050,1048,1042,1042,1042,1042,1042,1051,1062],"ymouse":[609,609,609,609,609,609,609,609,609,609,609,609,609,609,609,609,609,609,609,609,609,609,609,609,609,609,609,609,609,609,609,609,609,609,609,609,609,609,609,609,609,609,609,609,609,609,609,609,609,609,609,609,609,609,609,609,609,609,609,609,609,609,608,581,548,504,440,312,278,254,240,225,208,191,170,151,137,123,122,122,122,120,107,93],"timestamp_mouse":[8,20,40,62,82,101,122,140,161,181,201,222,241,261,282,300,321,342,360,381,401,422,442,462,481,502,521,541,561,582,602,622,640,662,682,701,722,742,761,780,802,822,841,862,882,900,921,941,961,981,1001,1022,1041,1061,1080,1100,1122,1141,1161,1180,1200,1221,1241,1262,1281,1301,1321,1342,1361,1381,1400,1421,1441,1461,1481,1502,1521,1540,1562,1581,1602,1622,1640,1661],"xSR":741.5,"ySR":573.95,"xT1":424.9,"yT1":0,"xT2":1058.1,"yT2":0,"toosoon":0,"cond_shown":"equaldotanddens","ratio_trial":750,"smaller_num":"3","larger_num":"4","correct_side":1,"subjID":"SARAVALENTINARUBIOGAMEZ1","gender":"0","age":"11","school":"6"},{"start_time":1551901209849,"click_time":1551901210838,"finger_time":1551901210719,"fix_duration":250,"trial":19,"RT":870,"MT":119,"sideResp":2,"stimulus":"img/750/randomdotsizeEA/L/14_Ratio_750_L_8_R_6.png","xmouse":[813,813,813,813,813,812,810,809,807,806,806,805,805,805,805,805,804,804,804,804,804,804,804,804,804,804,804,804,804,804,804,804,804,804,804,804,804,804,804,804,804,815,829,910,921,929,955,990,1061,1082],"ymouse":[636,636,636,636,636,636,636,637,638,638,638,638,638,638,638,638,638,637,637,637,637,637,637,637,637,637,637,637,637,637,637,637,637,637,637,637,637,637,637,637,637,624,610,491,438,386,297,221,113,74],"timestamp_mouse":[9,34,49,69,88,110,130,148,169,189,209,229,249,269,289,309,329,349,369,390,409,428,450,469,488,509,529,550,568,589,608,629,649,669,688,708,729,749,769,788,808,828,850,870,890,910,928,948,969,989],"xSR":741.5,"ySR":573.95,"xT1":424.9,"yT1":0,"xT2":1058.1,"yT2":0,"toosoon":0,"cond_shown":"randomdotsizeEA","ratio_trial":750,"smaller_num":"6","larger_num":"8","correct_side":1,"subjID":"SARAVALENTINARUBIOGAMEZ1","gender":"0","age":"11","school":"6"},{"start_time":1551901215976,"click_time":1551901217898,"finger_time":1551901217617,"fix_duration":637.2875935434873,"trial":20,"RT":1641,"MT":281,"sideResp":2,"stimulus":"img/900/equaldotsize/R/13_Ratio_900_L_18_R_20.png","xmouse":[797,797,797,797,797,797,797,797,797,797,797,797,797,797,797,797,797,797,797,797,797,797,797,797,797,797,797,797,797,797,797,797,797,797,797,797,797,797,797,797,797,797,797,797,797,797,797,797,797,797,797,797,797,797,797,797,797,797,797,797,797,797,797,797,797,797,797,797,797,797,797,797,797,797,797,797,797,797,797,798,802,814,911,969,1021,1056,1085,1142,1164,1179,1186,1186,1186,1186,1184,1176,1157],"ymouse":[608,608,608,608,608,608,608,608,608,608,608,608,608,608,608,608,608,608,608,608,608,608,608,608,608,608,608,608,608,608,608,608,608,608,608,608,608,608,608,608,608,608,608,608,608,608,608,608,608,608,608,608,608,608,608,608,608,608,608,608,608,608,608,608,608,608,608,608,608,608,608,608,608,608,608,608,608,608,608,608,605,591,479,409,331,267,207,116,92,77,65,64,62,62,61,61,61],"timestamp_mouse":[8,22,43,62,82,103,123,143,161,181,201,221,242,262,282,302,321,342,362,381,402,423,441,462,482,503,522,543,561,583,601,622,643,661,681,702,722,742,763,782,802,823,843,862,882,902,923,943,961,982,1003,1023,1042,1063,1082,1103,1122,1143,1163,1181,1202,1223,1242,1263,1283,1301,1321,1343,1362,1382,1402,1423,1441,1463,1481,1502,1521,1543,1563,1583,1602,1622,1641,1662,1682,1703,1722,1741,1763,1783,1802,1821,1842,1862,1883,1902,1922],"xSR":741.5,"ySR":573.95,"xT1":424.9,"yT1":0,"xT2":1058.1,"yT2":0,"toosoon":0,"cond_shown":"equaldotsize","ratio_trial":900,"smaller_num":"18","larger_num":"20","correct_side":2,"subjID":"SARAVALENTINARUBIOGAMEZ1","gender":"0","age":"11","school":"6"},{"start_time":1551901219331,"click_time":1551901220638,"finger_time":1551901220298,"fix_duration":412.3744479426209,"trial":21,"RT":967,"MT":340,"sideResp":1,"stimulus":"img/750/equaldotanddens/L/9_Ratio_750_L_4_R_3.png","xmouse":[805,805,805,805,805,805,805,805,805,805,805,805,805,805,805,805,805,805,805,805,805,805,805,805,805,805,805,805,805,805,805,805,805,805,805,805,805,805,805,805,805,805,805,805,805,805,803,799,789,683,630,589,554,535,526,526,526,526,526,526,526,526,526,522,510,506],"ymouse":[618,618,618,618,618,618,618,618,618,618,618,618,618,618,618,618,618,618,618,618,618,618,618,618,618,618,618,618,618,618,618,618,618,618,618,618,618,618,618,618,618,618,618,618,618,618,606,586,550,393,315,243,182,141,114,113,113,113,113,113,113,113,113,109,100,97],"timestamp_mouse":[9,35,48,66,86,107,128,146,167,187,206,227,247,267,287,307,328,347,367,387,407,427,447,466,486,506,528,546,568,587,606,627,647,666,687,708,726,746,767,788,806,826,846,867,887,908,927,948,967,988,1007,1028,1047,1067,1086,1106,1127,1148,1166,1186,1206,1227,1247,1267,1287,1307],"xSR":741.5,"ySR":573.95,"xT1":424.9,"yT1":0,"xT2":1058.1,"yT2":0,"toosoon":0,"cond_shown":"equaldotanddens","ratio_trial":750,"smaller_num":"3","larger_num":"4","correct_side":1,"subjID":"SARAVALENTINARUBIOGAMEZ1","gender":"0","age":"11","school":"6"},{"start_time":1551901222813,"click_time":1551901223878,"finger_time":1551901223498,"fix_duration":952.4501917285307,"trial":22,"RT":685,"MT":380,"sideResp":1,"stimulus":"img/500/equaldotanddens/L/8_Ratio_500_L_8_R_4.png","xmouse":[785,785,785,785,785,785,785,785,785,785,785,785,785,785,785,785,785,785,785,785,785,785,785,785,785,785,785,785,785,785,785,785,785,782,773,727,704,680,654,633,611,609,607,603,599,591,589,585,573,549,492,480,473,470],"ymouse":[621,621,621,621,621,621,621,621,621,621,621,621,621,621,621,621,621,621,621,621,621,621,621,621,621,621,621,621,621,621,621,619,601,576,539,422,361,318,282,262,244,242,239,232,221,200,188,181,171,158,123,112,100,92],"timestamp_mouse":[10,33,44,65,84,104,126,145,166,186,206,226,246,265,285,304,324,344,366,386,404,426,446,465,485,506,526,544,564,585,606,625,645,666,685,706,725,746,766,785,805,826,844,865,886,906,925,946,966,986,1005,1025,1046,1065],"xSR":741.5,"ySR":573.95,"xT1":424.9,"yT1":0,"xT2":1058.1,"yT2":0,"toosoon":0,"cond_shown":"equaldotanddens","ratio_trial":500,"smaller_num":"4","larger_num":"8","correct_side":1,"subjID":"SARAVALENTINARUBIOGAMEZ1","gender":"0","age":"11","school":"6"},{"start_time":1551901225109,"click_time":1551901226279,"finger_time":1551901226118,"fix_duration":250,"trial":23,"RT":1009,"MT":161,"sideResp":1,"stimulus":"img/900/randomdotsizeEA/R/13_Ratio_900_L_18_R_20.png","xmouse":[797,797,797,797,797,797,797,797,797,797,797,797,797,797,797,797,797,797,797,797,797,797,797,797,797,797,797,797,797,797,797,797,797,797,797,797,797,797,797,797,797,797,797,797,797,797,797,798,795,791,774,757,734,706,670,607,573,534,518],"ymouse":[609,609,609,609,609,609,609,609,609,609,609,609,609,609,609,609,609,609,609,609,609,609,609,609,609,609,609,609,609,609,609,609,609,609,609,609,609,609,609,609,609,609,609,609,609,609,609,607,599,578,518,470,411,349,252,112,65,27,12],"timestamp_mouse":[8,40,49,70,89,109,129,149,168,189,210,229,250,269,290,310,328,349,368,388,410,428,448,470,488,508,530,548,570,589,610,629,648,668,690,709,728,749,770,790,809,830,849,869,889,908,928,949,969,990,1009,1029,1049,1069,1090,1109,1129,1148,1170],"xSR":741.5,"ySR":573.95,"xT1":424.9,"yT1":0,"xT2":1058.1,"yT2":0,"toosoon":0,"cond_shown":"randomdotsizeEA","ratio_trial":900,"smaller_num":"18","larger_num":"20","correct_side":2,"subjID":"SARAVALENTINARUBIOGAMEZ1","gender":"0","age":"11","school":"6"},{"start_time":1551901230634,"click_time":1551901231578,"finger_time":1551901231359,"fix_duration":1313.0102202051012,"trial":24,"RT":725,"MT":219,"sideResp":1,"stimulus":"img/900/equaldotsize/L/2_Ratio_900_L_20_R_18.png","xmouse":[796,796,796,796,796,796,796,796,796,796,796,796,796,796,796,796,796,796,796,796,796,796,796,796,796,796,796,796,796,796,796,796,796,796,796,796,782,771,717,681,612,580,548,527,512,506,497,491],"ymouse":[623,623,623,623,623,623,623,623,623,623,623,623,623,623,623,623,623,623,623,623,623,623,623,623,623,623,623,623,623,623,623,623,623,623,623,599,537,499,366,280,124,58,12,0,0,0,0,1],"timestamp_mouse":[14,35,43,65,85,104,124,144,165,185,203,224,245,264,283,305,324,343,365,384,403,425,443,465,483,504,524,544,564,584,603,625,644,664,684,704,725,744,763,783,804,825,844,865,884,905,925,944],"xSR":741.5,"ySR":573.95,"xT1":424.9,"yT1":0,"xT2":1058.1,"yT2":0,"toosoon":0,"cond_shown":"equaldotsize","ratio_trial":900,"smaller_num":"18","larger_num":"20","correct_side":1,"subjID":"SARAVALENTINARUBIOGAMEZ1","gender":"0","age":"11","school":"6"},{"start_time":1551901232753,"click_time":1551901233598,"finger_time":1551901233439,"fix_duration":255.48281492517233,"trial":25,"RT":686,"MT":159,"sideResp":1,"stimulus":"img/900/equaldotsize/R/11_Ratio_900_L_18_R_20.png","xmouse":[769,769,769,769,769,769,769,769,769,769,769,769,769,769,769,769,769,769,769,769,769,769,769,769,769,769,769,769,769,769,769,769,769,769,764,750,725,682,584,537,508,483,474],"ymouse":[600,600,600,600,600,600,600,600,600,600,600,600,600,600,600,600,600,600,600,600,600,600,600,600,600,600,600,600,600,600,600,600,600,581,556,509,448,375,227,173,138,109,96],"timestamp_mouse":[9,34,46,65,86,105,126,144,166,184,206,224,245,265,285,305,324,345,365,386,405,425,446,464,485,506,525,546,566,584,606,625,644,664,686,705,725,745,764,785,804,826,845],"xSR":741.5,"ySR":573.95,"xT1":424.9,"yT1":0,"xT2":1058.1,"yT2":0,"toosoon":0,"cond_shown":"equaldotsize","ratio_trial":900,"smaller_num":"18","larger_num":"20","correct_side":2,"subjID":"SARAVALENTINARUBIOGAMEZ1","gender":"0","age":"11","school":"6"},{"start_time":1551901235768,"click_time":1551901236519,"finger_time":1551901236418,"fix_duration":827.7374404365122,"trial":26,"RT":650,"MT":101,"sideResp":2,"stimulus":"img/250/equaldotsize/R/12_Ratio_250_L_5_R_20.png","xmouse":[804,804,804,804,804,804,804,804,804,804,804,804,804,804,804,804,804,804,804,804,804,804,804,804,804,804,804,804,804,804,804,808,914,978,1023,1060,1082,1105],"ymouse":[616,616,616,616,616,616,616,616,616,616,616,616,616,616,616,616,616,616,616,616,616,616,616,616,616,616,616,616,616,616,616,611,490,412,328,249,176,46],"timestamp_mouse":[13,35,50,70,90,110,130,150,169,189,210,231,250,270,290,310,331,349,369,390,410,430,451,471,489,510,530,551,571,590,610,630,650,671,689,710,731,751],"xSR":741.5,"ySR":573.95,"xT1":424.9,"yT1":0,"xT2":1058.1,"yT2":0,"toosoon":0,"cond_shown":"equaldotsize","ratio_trial":250,"smaller_num":"5","larger_num":"20","correct_side":2,"subjID":"SARAVALENTINARUBIOGAMEZ1","gender":"0","age":"11","school":"6"},{"start_time":1551901237670,"click_time":1551901238439,"finger_time":1551901238279,"fix_duration":250,"trial":27,"RT":609,"MT":160,"sideResp":1,"stimulus":"img/250/equaldotsize/L/7_Ratio_250_L_8_R_2.png","xmouse":[806,806,806,806,806,806,806,806,806,806,806,806,806,806,806,806,806,806,806,806,806,806,806,806,806,806,806,806,806,806,802,787,713,669,632,602,561,532,523],"ymouse":[592,592,592,592,592,592,592,592,592,592,592,592,592,592,592,592,592,592,592,592,592,592,592,592,592,592,592,592,592,588,572,528,380,301,239,190,137,102,96],"timestamp_mouse":[7,29,47,69,88,107,127,149,169,188,208,227,249,268,287,307,328,348,367,388,408,427,447,469,488,508,529,548,567,588,609,628,648,669,689,708,727,747,769],"xSR":741.5,"ySR":573.95,"xT1":424.9,"yT1":0,"xT2":1058.1,"yT2":0,"toosoon":0,"cond_shown":"equaldotsize","ratio_trial":250,"smaller_num":"2","larger_num":"8","correct_side":1,"subjID":"SARAVALENTINARUBIOGAMEZ1","gender":"0","age":"11","school":"6"},{"start_time":1551901240652,"click_time":1551901241598,"finger_time":1551901241199,"fix_duration":1073.987800914916,"trial":28,"RT":547,"MT":399,"sideResp":1,"stimulus":"img/500/equaldotsize/L/13_Ratio_500_L_12_R_6.png","xmouse":[816,816,816,816,816,816,816,816,816,816,816,816,816,816,816,816,816,816,816,816,816,816,816,816,813,811,807,794,719,663,606,544,473,377,364,361,359,359,359,363,392,445,484,494,494,494,494,494],"ymouse":[618,618,618,618,618,618,618,618,618,618,618,618,618,618,618,618,618,618,618,618,618,618,618,618,612,606,592,549,417,338,261,194,131,48,33,26,24,24,23,18,6,0,0,0,0,0,0,7],"timestamp_mouse":[13,33,46,65,87,106,126,146,166,186,206,226,246,266,286,306,325,346,367,386,405,427,446,466,486,505,526,547,565,586,606,625,646,666,686,705,725,746,766,787,806,826,847,866,885,905,926,946],"xSR":741.5,"ySR":573.95,"xT1":424.9,"yT1":0,"xT2":1058.1,"yT2":0,"toosoon":0,"cond_shown":"equaldotsize","ratio_trial":500,"smaller_num":"6","larger_num":"12","correct_side":1,"subjID":"SARAVALENTINARUBIOGAMEZ1","gender":"0","age":"11","school":"6"},{"start_time":1551901243328,"click_time":1551901244038,"finger_time":1551901243817,"fix_duration":409.8767328370655,"trial":29,"RT":489,"MT":221,"sideResp":2,"stimulus":"img/500/randomdotsizeEA/L/5_Ratio_500_L_4_R_2.png","xmouse":[764,764,764,764,764,764,764,764,764,764,764,764,764,764,764,764,764,764,764,764,764,764,764,769,821,864,885,899,910,950,985,1011,1034,1054,1062,1064],"ymouse":[590,590,590,590,590,590,590,590,590,590,590,590,590,590,590,590,590,590,590,590,590,590,590,589,554,529,511,492,473,406,339,280,224,148,100,86],"timestamp_mouse":[10,38,49,70,91,111,131,149,169,191,209,230,251,270,291,310,330,351,371,390,409,429,450,470,489,510,530,550,569,591,610,631,650,671,690,710],"xSR":741.5,"ySR":573.95,"xT1":424.9,"yT1":0,"xT2":1058.1,"yT2":0,"toosoon":0,"cond_shown":"randomdotsizeEA","ratio_trial":500,"smaller_num":"2","larger_num":"4","correct_side":1,"subjID":"SARAVALENTINARUBIOGAMEZ1","gender":"0","age":"11","school":"6"},{"start_time":1551901247098,"click_time":1551901247918,"finger_time":1551901247858,"fix_duration":258.84763278115787,"trial":30,"RT":760,"MT":60,"sideResp":2,"stimulus":"img/750/randomdotsizeEA/R/11_Ratio_750_L_12_R_16.png","xmouse":[789,789,789,789,789,789,789,789,789,789,789,789,789,789,789,789,789,789,789,789,789,789,789,789,789,789,789,789,789,789,789,789,789,789,789,789,789,798,840,904,977,1086],"ymouse":[619,619,619,619,619,619,619,619,619,619,619,619,619,619,619,619,619,619,619,619,619,619,619,619,619,619,619,619,619,619,619,619,619,619,619,619,619,601,522,412,278,64],"timestamp_mouse":[1,32,40,59,79,101,121,139,161,180,199,219,240,259,279,299,320,339,360,381,400,421,441,461,480,500,520,540,560,579,600,620,641,660,681,699,721,740,760,781,800,820],"xSR":741.5,"ySR":573.95,"xT1":424.9,"yT1":0,"xT2":1058.1,"yT2":0,"toosoon":0,"cond_shown":"randomdotsizeEA","ratio_trial":750,"smaller_num":"12","larger_num":"16","correct_side":2,"subjID":"SARAVALENTINARUBIOGAMEZ1","gender":"0","age":"11","school":"6"},{"start_time":1551901249330,"click_time":1551901250518,"finger_time":1551901250438,"fix_duration":250,"trial":31,"RT":1108,"MT":80,"sideResp":2,"stimulus":"img/750/randomdotsizeEA/R/3_Ratio_750_L_15_R_20.png","xmouse":[800,800,800,800,800,800,800,800,800,800,800,800,800,800,800,800,800,800,800,800,800,800,800,800,800,800,800,800,800,800,800,800,800,800,800,800,800,800,800,800,800,800,800,800,800,800,800,800,800,800,800,800,800,800,815,865,921,973,1020,1094],"ymouse":[595,595,595,595,595,595,595,595,595,595,595,595,595,595,595,595,595,595,595,595,595,595,595,595,595,595,595,595,595,595,595,595,595,595,595,595,595,595,595,595,595,595,595,595,595,595,595,595,595,595,595,595,595,595,578,519,459,391,288,50],"timestamp_mouse":[9,37,48,69,87,108,127,147,168,187,208,228,248,269,288,308,328,348,367,388,408,428,449,467,489,509,528,548,568,588,608,628,648,669,688,708,728,747,769,787,809,827,847,868,887,909,929,947,967,988,1009,1028,1049,1067,1087,1108,1128,1147,1168,1188],"xSR":741.5,"ySR":573.95,"xT1":424.9,"yT1":0,"xT2":1058.1,"yT2":0,"toosoon":0,"cond_shown":"randomdotsizeEA","ratio_trial":750,"smaller_num":"15","larger_num":"20","correct_side":2,"subjID":"SARAVALENTINARUBIOGAMEZ1","gender":"0","age":"11","school":"6"},{"start_time":1551901252426,"click_time":1551901253418,"finger_time":1551901253118,"fix_duration":566.7726374180193,"trial":32,"RT":692,"MT":300,"sideResp":1,"stimulus":"img/900/randomdotsizeEA/L/10_Ratio_900_L_20_R_18.png","xmouse":[792,792,792,792,792,792,792,792,792,792,792,792,792,792,792,792,792,792,792,792,792,792,792,792,792,792,792,792,792,792,792,792,792,792,769,730,690,657,610,542,521,508,501,498,498,498,498,498,500,506],"ymouse":[613,613,613,613,613,613,613,613,613,613,613,613,613,613,613,613,613,613,613,613,613,613,613,613,613,613,613,613,613,613,613,609,598,585,504,430,358,302,229,155,138,130,126,124,124,124,124,123,117,95],"timestamp_mouse":[12,46,52,72,91,112,132,151,173,193,211,231,253,272,293,313,331,351,373,393,411,432,451,473,492,512,532,552,571,593,613,631,652,673,692,712,732,753,772,792,812,831,851,871,893,912,932,952,971,992],"xSR":741.5,"ySR":573.95,"xT1":424.9,"yT1":0,"xT2":1058.1,"yT2":0,"toosoon":0,"cond_shown":"randomdotsizeEA","ratio_trial":900,"smaller_num":"18","larger_num":"20","correct_side":1,"subjID":"SARAVALENTINARUBIOGAMEZ1","gender":"0","age":"11","school":"6"},{"start_time":1551901254841,"click_time":1551901255918,"finger_time":1551901255798,"fix_duration":422.05152695315405,"trial":33,"RT":957,"MT":120,"sideResp":2,"stimulus":"img/500/equaldotsize/R/9_Ratio_500_L_2_R_4.png","xmouse":[817,817,817,817,817,817,817,817,817,817,817,817,817,817,817,817,817,817,817,817,817,817,817,817,817,817,817,817,817,817,817,817,817,817,817,817,817,817,817,817,817,817,817,817,817,817,830,863,963,1002,1038,1062,1089,1129],"ymouse":[615,615,615,615,615,615,615,615,615,615,615,615,615,615,615,615,615,615,615,615,615,615,615,615,615,615,615,615,615,615,615,615,615,615,615,615,615,615,615,615,615,615,615,615,615,615,596,551,390,304,230,169,121,69],"timestamp_mouse":[17,41,58,77,97,116,138,157,178,198,216,236,257,276,296,318,337,357,378,398,417,437,457,477,497,517,537,556,576,598,617,637,657,676,697,717,737,756,778,797,818,836,858,877,896,917,936,957,977,998,1017,1037,1057,1077],"xSR":741.5,"ySR":573.95,"xT1":424.9,"yT1":0,"xT2":1058.1,"yT2":0,"toosoon":0,"cond_shown":"equaldotsize","ratio_trial":500,"smaller_num":"2","larger_num":"4","correct_side":2,"subjID":"SARAVALENTINARUBIOGAMEZ1","gender":"0","age":"11","school":"6"},{"start_time":1551901257491,"click_time":1551901258778,"finger_time":1551901258159,"fix_duration":610.9242893255455,"trial":34,"RT":668,"MT":619,"sideResp":2,"stimulus":"img/750/equaldotsize/R/2_Ratio_750_L_6_R_8.png","xmouse":[793,793,793,793,793,793,793,793,793,793,793,793,793,793,793,793,793,793,793,793,793,793,793,793,793,793,793,793,793,793,793,802,820,854,863,871,895,919,949,973,983,981,980,980,980,980,995,998,998,998,1001,1010,1021,1025,1025,1025,1026,1030,1035,1039,1039,1039,1041,1053,1060],"ymouse":[642,642,642,642,642,642,642,642,642,642,642,642,642,642,642,642,642,642,642,642,642,642,642,642,642,642,642,642,642,642,642,631,603,542,520,465,379,318,263,213,177,141,136,136,136,134,115,112,108,107,104,96,88,85,85,85,84,80,75,72,72,72,71,65,62],"timestamp_mouse":[10,37,47,67,86,107,127,147,168,186,206,227,248,267,287,307,327,346,368,387,406,428,448,467,487,506,528,546,568,586,607,626,647,668,688,706,726,747,767,788,807,827,847,867,888,907,927,948,966,987,1008,1028,1046,1067,1087,1107,1126,1148,1167,1187,1207,1227,1246,1267,1287],"xSR":741.5,"ySR":573.95,"xT1":424.9,"yT1":0,"xT2":1058.1,"yT2":0,"toosoon":0,"cond_shown":"equaldotsize","ratio_trial":750,"smaller_num":"6","larger_num":"8","correct_side":2,"subjID":"SARAVALENTINARUBIOGAMEZ1","gender":"0","age":"11","school":"6"},{"start_time":1551901260849,"click_time":1551901261698,"finger_time":1551901261578,"fix_duration":1029.3763093055807,"trial":35,"RT":729,"MT":120,"sideResp":2,"stimulus":"img/900/equaldotanddens/R/6_Ratio_900_L_9_R_10.png","xmouse":[797,797,797,797,797,797,797,797,797,797,797,797,797,797,797,797,797,797,797,797,797,797,797,797,797,797,797,797,797,797,797,797,797,799,809,831,871,903,936,1003,1031,1051,1061],"ymouse":[636,636,636,636,636,636,636,636,636,636,636,636,636,636,636,636,636,636,636,636,636,636,636,636,636,636,636,636,636,636,636,636,636,633,615,578,507,439,363,207,143,97,72],"timestamp_mouse":[9,37,49,69,88,110,129,149,169,190,209,229,248,269,290,309,329,348,368,389,408,428,450,468,488,508,529,548,570,588,609,628,648,669,688,709,729,749,768,789,809,830,849],"xSR":741.5,"ySR":573.95,"xT1":424.9,"yT1":0,"xT2":1058.1,"yT2":0,"toosoon":0,"cond_shown":"equaldotanddens","ratio_trial":900,"smaller_num":"9","larger_num":"10","correct_side":2,"subjID":"SARAVALENTINARUBIOGAMEZ1","gender":"0","age":"11","school":"6"},{"start_time":1551901265570,"click_time":1551901267557,"finger_time":1551901266719,"fix_duration":1371.5028883281832,"trial":36,"RT":1149,"MT":838,"sideResp":1,"stimulus":"img/900/randomdotsizeEA/R/9_Ratio_900_L_18_R_20.png","xmouse":[786,786,786,786,786,786,786,786,786,786,786,786,786,786,786,786,786,786,786,786,786,786,786,786,786,786,786,786,786,786,786,786,786,786,786,786,786,786,786,786,786,786,786,786,786,786,786,786,786,786,786,786,786,786,786,786,787,794,794,794,793,782,762,760,760,760,760,751,736,723,701,680,630,605,575,548,531,510,502,500,500,500,500,500,500,500,500,500,500,500,500,500,500,500,500,500,500,500,499,497],"ymouse":[633,633,633,633,633,633,633,633,633,633,633,633,633,633,633,633,633,633,633,633,633,633,633,633,633,633,633,633,633,633,633,633,633,633,633,633,633,633,633,633,633,633,633,633,633,633,633,633,633,633,633,633,633,633,633,616,607,549,500,456,417,373,335,333,332,332,332,322,309,297,278,260,207,175,148,129,118,108,105,103,102,102,102,102,102,102,102,102,102,102,102,102,102,102,102,102,102,102,100,93],"timestamp_mouse":[10,32,48,67,87,108,128,147,168,188,207,228,247,267,289,308,327,349,367,389,407,428,447,467,489,507,528,548,568,588,607,629,647,669,688,708,728,748,768,788,808,827,849,867,889,907,928,948,967,989,1007,1029,1049,1067,1088,1108,1128,1149,1168,1188,1209,1228,1248,1269,1288,1307,1328,1347,1369,1387,1407,1429,1447,1467,1488,1507,1527,1548,1569,1588,1609,1627,1647,1668,1688,1709,1727,1749,1768,1788,1808,1827,1848,1869,1887,1907,1928,1948,1968,1987],"xSR":741.5,"ySR":573.95,"xT1":424.9,"yT1":0,"xT2":1058.1,"yT2":0,"toosoon":0,"cond_shown":"randomdotsizeEA","ratio_trial":900,"smaller_num":"18","larger_num":"20","correct_side":2,"subjID":"SARAVALENTINARUBIOGAMEZ1","gender":"0","age":"11","school":"6"},{"start_time":1551901268941,"click_time":1551901270117,"finger_time":1551901269759,"fix_duration":261.4173121158314,"trial":37,"RT":818,"MT":358,"sideResp":1,"stimulus":"img/900/randomdotsizeEA/L/2_Ratio_900_L_20_R_18.png","xmouse":[817,817,817,817,817,817,817,817,817,817,817,817,817,817,817,817,817,817,817,817,817,817,817,817,817,817,817,817,817,817,817,817,817,817,817,817,817,817,815,804,782,743,693,609,582,561,545,536,533,533,533,533,533,533,533,532,531,527,521],"ymouse":[626,626,626,626,626,626,626,626,626,626,626,626,626,626,626,626,626,626,626,626,626,626,626,626,626,626,626,626,626,626,626,626,626,626,626,626,626,626,613,580,519,443,367,209,152,101,65,48,38,38,38,38,38,38,38,37,37,40,44],"timestamp_mouse":[21,42,57,76,96,117,137,157,176,198,217,236,256,278,296,316,337,357,376,398,416,436,457,477,497,517,537,558,577,596,618,637,656,678,696,718,738,758,776,797,818,836,857,876,898,916,938,957,978,997,1017,1038,1057,1078,1096,1117,1138,1157,1176],"xSR":741.5,"ySR":573.95,"xT1":424.9,"yT1":0,"xT2":1058.1,"yT2":0,"toosoon":0,"cond_shown":"randomdotsizeEA","ratio_trial":900,"smaller_num":"18","larger_num":"20","correct_side":1,"subjID":"SARAVALENTINARUBIOGAMEZ1","gender":"0","age":"11","school":"6"},{"start_time":1551901273218,"click_time":1551901274518,"finger_time":1551901273897,"fix_duration":680.079513148256,"trial":38,"RT":679,"MT":621,"sideResp":1,"stimulus":"img/250/equaldotanddens/L/3_Ratio_250_L_8_R_2.png","xmouse":[791,791,791,791,791,791,791,791,791,791,791,791,791,791,791,791,791,791,791,791,791,791,791,791,791,791,791,791,791,791,791,789,782,769,705,667,639,616,599,568,564,564,564,564,564,564,564,560,526,457,431,407,392,383,381,381,384,391,397,414,414,414,416,422,432],"ymouse":[619,619,619,619,619,619,619,619,619,619,619,619,619,619,619,619,619,619,619,619,619,619,619,619,619,619,619,619,619,619,619,609,590,561,452,385,320,267,226,176,169,169,169,169,169,169,169,166,157,127,110,94,82,73,70,66,64,57,53,38,38,38,38,38,38],"timestamp_mouse":[30,40,60,80,101,120,141,160,180,201,220,240,261,280,299,320,339,361,380,400,421,439,459,479,500,519,541,559,579,601,619,640,660,679,699,719,740,761,781,800,820,841,860,880,900,919,939,960,981,999,1020,1040,1060,1080,1101,1120,1140,1161,1180,1200,1220,1240,1260,1280,1300],"xSR":741.5,"ySR":573.95,"xT1":424.9,"yT1":0,"xT2":1058.1,"yT2":0,"toosoon":0,"cond_shown":"equaldotanddens","ratio_trial":250,"smaller_num":"2","larger_num":"8","correct_side":1,"subjID":"SARAVALENTINARUBIOGAMEZ1","gender":"0","age":"11","school":"6"},{"start_time":1551901277381,"click_time":1551901278119,"finger_time":1551901278018,"fix_duration":1441.0131405359123,"trial":39,"RT":637,"MT":101,"sideResp":1,"stimulus":"img/250/equaldotanddens/L/3_Ratio_250_L_8_R_2.png","xmouse":[818,818,818,818,818,818,818,818,818,818,818,818,818,818,818,818,818,818,818,818,818,818,818,818,818,818,818,818,818,814,810,750,700,638,583,540,495],"ymouse":[619,619,619,619,619,619,619,619,619,619,619,619,619,619,619,619,619,619,619,619,619,619,619,619,619,619,619,619,619,612,597,452,357,265,188,135,86],"timestamp_mouse":[18,38,56,77,98,117,138,156,176,197,216,237,257,277,296,316,338,357,376,398,416,438,456,477,498,516,537,557,577,597,617,637,657,676,697,718,738],"xSR":741.5,"ySR":573.95,"xT1":424.9,"yT1":0,"xT2":1058.1,"yT2":0,"toosoon":0,"cond_shown":"equaldotanddens","ratio_trial":250,"smaller_num":"2","larger_num":"8","correct_side":1,"subjID":"SARAVALENTINARUBIOGAMEZ1","gender":"0","age":"11","school":"6"},{"start_time":1551901279439,"click_time":1551901280239,"finger_time":1551901279999,"fix_duration":259.2878363205474,"trial":40,"RT":560,"MT":240,"sideResp":2,"stimulus":"img/250/equaldotanddens/R/13_Ratio_250_L_2_R_8.png","xmouse":[796,796,796,796,796,796,796,796,796,796,796,796,796,796,796,796,796,796,796,796,796,796,796,796,796,796,808,825,895,957,988,1026,1051,1062,1066,1066,1066,1066,1066,1072,1076],"ymouse":[618,618,618,618,618,618,618,618,618,618,618,618,618,618,618,618,618,618,618,618,618,618,618,618,618,618,601,582,500,391,321,255,198,164,128,121,119,119,119,105,95],"timestamp_mouse":[1,20,42,60,80,100,118,140,160,178,198,218,238,259,278,300,319,338,359,378,400,420,439,460,479,500,520,539,560,578,599,618,639,659,679,699,719,739,759,778,800],"xSR":741.5,"ySR":573.95,"xT1":424.9,"yT1":0,"xT2":1058.1,"yT2":0,"toosoon":0,"cond_shown":"equaldotanddens","ratio_trial":250,"smaller_num":"2","larger_num":"8","correct_side":2,"subjID":"SARAVALENTINARUBIOGAMEZ1","gender":"0","age":"11","school":"6"},{"start_time":1551901281691,"click_time":1551901282797,"finger_time":1551901282378,"fix_duration":471.2981947858419,"trial":41,"RT":687,"MT":419,"sideResp":2,"stimulus":"img/250/equaldotsize/R/8_Ratio_250_L_1_R_4.png","xmouse":[774,774,774,774,774,774,774,774,774,775,775,775,775,775,775,775,775,775,775,775,775,775,775,775,775,775,775,775,775,775,775,784,791,796,797,797,797,797,797,797,797,797,797,797,797,797,797,803,829,892,961,1045,1068,1080,1084,1084],"ymouse":[612,612,612,612,612,612,612,612,612,612,612,612,612,612,612,612,612,612,612,612,612,612,612,612,612,612,612,612,612,612,611,596,583,574,571,570,570,570,570,570,570,570,570,570,570,570,570,559,521,451,368,221,170,131,107,96],"timestamp_mouse":[9,38,46,66,86,107,126,148,168,186,206,226,247,266,288,307,326,348,366,388,407,427,448,466,486,506,528,546,568,587,607,627,648,666,687,707,728,747,768,786,806,826,847,867,887,906,927,948,966,986,1008,1027,1047,1067,1088,1106],"xSR":741.5,"ySR":573.95,"xT1":424.9,"yT1":0,"xT2":1058.1,"yT2":0,"toosoon":0,"cond_shown":"equaldotsize","ratio_trial":250,"smaller_num":"1","larger_num":"4","correct_side":2,"subjID":"SARAVALENTINARUBIOGAMEZ1","gender":"0","age":"11","school":"6"},{"start_time":1551901284689,"click_time":1551901285937,"finger_time":1551901285818,"fix_duration":989.5820315915871,"trial":42,"RT":1129,"MT":119,"sideResp":1,"stimulus":"img/500/randomdotsizeEA/L/4_Ratio_500_L_18_R_9.png","xmouse":[805,805,805,805,805,805,805,805,805,805,805,805,805,805,805,805,805,805,805,805,805,805,805,805,805,805,805,805,805,805,805,805,805,805,805,805,805,805,805,805,805,805,805,805,805,805,805,805,805,805,805,805,805,805,805,803,787,755,708,650,592,495,466],"ymouse":[617,617,617,617,617,617,617,617,617,617,617,617,617,617,617,617,617,617,617,617,617,617,617,617,617,617,617,617,617,617,617,617,617,617,617,617,617,617,617,617,617,617,617,617,617,617,617,617,617,617,617,617,617,617,611,602,550,482,406,327,248,107,65],"timestamp_mouse":[9,43,49,68,90,108,130,149,169,189,210,228,250,269,288,309,329,350,368,389,409,428,449,468,488,509,530,549,569,590,610,630,650,669,689,710,728,749,768,788,809,830,849,870,889,908,929,950,969,989,1010,1028,1049,1070,1089,1108,1129,1149,1169,1190,1210,1230,1248],"xSR":741.5,"ySR":573.95,"xT1":424.9,"yT1":0,"xT2":1058.1,"yT2":0,"toosoon":0,"cond_shown":"randomdotsizeEA","ratio_trial":500,"smaller_num":"9","larger_num":"18","correct_side":1,"subjID":"SARAVALENTINARUBIOGAMEZ1","gender":"0","age":"11","school":"6"},{"start_time":1551901288159,"click_time":1551901289458,"finger_time":1551901289358,"fix_duration":760.0238573913188,"trial":43,"RT":1199,"MT":100,"sideResp":2,"stimulus":"img/900/randomdotsizeEA/R/5_Ratio_900_L_9_R_10.png","xmouse":[769,769,769,769,769,769,769,769,769,769,769,769,769,769,769,769,769,769,769,769,769,769,769,769,769,769,769,769,769,769,769,769,769,769,769,769,769,769,769,769,769,769,769,769,769,769,769,769,769,769,769,769,769,769,769,769,770,774,778,789,806,834,977,1046,1103],"ymouse":[617,617,617,617,617,617,617,617,617,617,617,617,617,617,617,617,617,617,617,617,617,617,617,617,617,617,617,617,617,617,617,617,617,617,617,617,617,617,617,617,617,617,617,617,617,617,617,617,617,617,617,617,617,617,617,617,613,605,593,572,532,465,244,164,97],"timestamp_mouse":[18,38,59,79,99,120,139,159,179,200,218,238,259,279,299,319,339,359,379,399,419,438,459,480,498,518,539,559,579,598,620,638,660,679,699,719,740,759,779,798,818,838,860,878,899,919,938,958,980,998,1020,1039,1058,1080,1099,1119,1140,1160,1179,1199,1220,1239,1260,1279,1299],"xSR":741.5,"ySR":573.95,"xT1":424.9,"yT1":0,"xT2":1058.1,"yT2":0,"toosoon":0,"cond_shown":"randomdotsizeEA","ratio_trial":900,"smaller_num":"9","larger_num":"10","correct_side":2,"subjID":"SARAVALENTINARUBIOGAMEZ1","gender":"0","age":"11","school":"6"},{"start_time":1551901291270,"click_time":1551901291978,"finger_time":1551901291819,"fix_duration":250,"trial":44,"RT":549,"MT":159,"sideResp":2,"stimulus":"img/250/equaldotanddens/R/12_Ratio_250_L_5_R_20.png","xmouse":[813,813,812,810,809,808,808,808,808,808,808,808,808,808,808,808,808,808,808,808,808,808,808,808,808,808,808,840,888,944,997,1042,1105,1125,1131,1140],"ymouse":[612,612,611,610,610,610,610,610,610,610,610,610,610,610,610,610,610,610,610,610,610,610,610,610,610,610,609,568,511,442,371,303,177,136,111,85],"timestamp_mouse":[8,34,48,68,87,108,127,149,168,189,207,227,249,268,287,308,327,347,367,388,407,429,447,468,488,509,528,549,567,588,609,628,648,668,687,708],"xSR":741.5,"ySR":573.95,"xT1":424.9,"yT1":0,"xT2":1058.1,"yT2":0,"toosoon":0,"cond_shown":"equaldotanddens","ratio_trial":250,"smaller_num":"5","larger_num":"20","correct_side":2,"subjID":"SARAVALENTINARUBIOGAMEZ1","gender":"0","age":"11","school":"6"},{"start_time":1551901294399,"click_time":1551901296839,"finger_time":1551901295078,"fix_duration":1261.1561286792485,"trial":45,"RT":679,"MT":1761,"sideResp":1,"stimulus":"img/750/equaldotanddens/R/2_Ratio_750_L_6_R_8.png","xmouse":[798,798,798,798,798,798,798,798,798,798,798,798,798,798,798,798,798,798,798,798,798,798,798,798,798,798,798,798,798,798,801,806,815,827,853,955,1006,1043,1072,1095,1103,1104,1104,1104,1104,1104,1104,1104,1104,1103,1103,1103,1103,1103,1103,1103,1103,1103,1102,1102,1101,1101,1100,1100,1100,1100,1099,1099,1098,1098,1094,1088,1081,1073,1068,1062,1061,1059,1059,1058,1057,1057,1055,1055,1055,1054,1054,1054,1054,1054,1054,1054,1054,1054,1054,1050,1042,1027,1002,929,805,717,631,549,474,382,370,369,372,377,383,388,392,395,397,404,404,404,404,408,420,434],"ymouse":[613,613,613,613,613,613,613,613,613,613,613,613,613,613,613,613,613,613,613,613,613,613,613,613,613,613,613,613,613,613,607,599,585,563,528,400,329,263,210,157,124,118,116,116,116,116,116,115,112,107,106,106,106,106,106,106,106,106,106,106,106,106,106,106,106,106,108,108,108,108,112,121,130,139,145,150,151,152,153,154,155,155,157,158,158,158,158,158,158,158,158,158,158,158,159,163,173,185,198,214,219,203,177,137,106,67,62,61,57,52,45,40,36,34,32,27,27,27,27,26,26,26],"timestamp_mouse":[32,40,60,79,99,119,139,160,180,199,220,239,260,279,298,319,338,358,379,399,420,438,458,479,499,518,539,559,580,598,619,640,659,679,700,719,738,759,778,800,818,839,859,879,899,919,939,959,979,1000,1019,1038,1059,1079,1099,1120,1139,1160,1180,1200,1219,1239,1259,1278,1299,1320,1339,1359,1378,1399,1419,1440,1459,1480,1499,1518,1539,1559,1579,1600,1619,1639,1660,1679,1698,1719,1738,1759,1780,1799,1819,1838,1859,1879,1899,1920,1939,1958,1980,2000,2019,2040,2060,2080,2099,2118,2139,2160,2178,2199,2219,2238,2259,2280,2299,2318,2340,2360,2378,2400,2419,2440],"xSR":741.5,"ySR":573.95,"xT1":424.9,"yT1":0,"xT2":1058.1,"yT2":0,"toosoon":0,"cond_shown":"equaldotanddens","ratio_trial":750,"smaller_num":"6","larger_num":"8","correct_side":2,"subjID":"SARAVALENTINARUBIOGAMEZ1","gender":"0","age":"11","school":"6"},{"start_time":1551901301624,"click_time":1551901303378,"finger_time":1551901303018,"fix_duration":805.2617636253191,"trial":46,"RT":1394,"MT":360,"sideResp":2,"stimulus":"img/900/equaldotsize/R/13_Ratio_900_L_18_R_20.png","xmouse":[780,780,780,780,780,780,780,780,780,780,780,780,780,780,780,780,780,780,780,780,780,780,780,780,780,780,780,780,780,780,780,780,780,780,780,780,780,780,780,780,780,780,780,780,780,780,780,780,780,780,780,780,780,780,780,780,780,780,780,780,780,780,780,780,780,780,780,791,828,918,959,994,1023,1045,1081,1095,1103,1107,1108,1108,1108,1108,1108,1108,1108,1108,1108,1109],"ymouse":[609,609,609,609,609,609,609,609,609,609,609,609,609,609,609,609,609,609,609,609,609,609,609,609,609,609,609,609,609,609,609,609,609,609,609,609,609,609,609,609,609,609,609,609,609,609,609,609,609,609,609,609,609,609,609,609,609,609,609,609,609,609,609,609,609,609,609,598,574,475,412,351,301,254,180,156,137,124,119,119,119,119,119,119,118,112,105,87],"timestamp_mouse":[14,42,53,75,93,115,135,154,175,193,215,233,255,274,293,314,333,355,374,393,415,433,453,474,493,515,533,553,574,594,615,633,654,675,693,713,733,753,773,793,814,833,853,874,894,914,933,953,975,994,1014,1033,1053,1073,1093,1114,1134,1153,1174,1195,1215,1234,1253,1273,1295,1313,1334,1355,1374,1394,1413,1433,1455,1474,1494,1514,1533,1553,1575,1594,1614,1634,1654,1673,1694,1714,1733,1754],"xSR":741.5,"ySR":573.95,"xT1":424.9,"yT1":0,"xT2":1058.1,"yT2":0,"toosoon":0,"cond_shown":"equaldotsize","ratio_trial":900,"smaller_num":"18","larger_num":"20","correct_side":2,"subjID":"SARAVALENTINARUBIOGAMEZ1","gender":"0","age":"11","school":"6"},{"start_time":1551901305248,"click_time":1551901306156,"finger_time":1551901305838,"fix_duration":1130.58207488258,"trial":47,"RT":590,"MT":318,"sideResp":1,"stimulus":"img/500/equaldotanddens/L/13_Ratio_500_L_12_R_6.png","xmouse":[769,769,769,769,769,769,769,769,769,769,769,769,769,769,769,769,769,769,769,769,769,769,769,769,769,769,769,769,769,760,742,706,670,614,585,562,550,546,543,543,543,543,543,541,535,523],"ymouse":[634,634,634,634,634,634,634,634,634,634,634,634,634,634,634,634,634,634,634,634,634,634,634,634,634,634,634,632,596,556,501,432,369,273,222,178,151,136,120,119,118,118,118,115,108,99],"timestamp_mouse":[9,32,50,70,90,109,130,149,170,190,209,228,249,269,290,310,329,349,369,389,408,428,449,468,489,510,530,550,569,590,609,628,650,668,690,709,729,748,769,788,810,829,848,869,890,908],"xSR":741.5,"ySR":573.95,"xT1":424.9,"yT1":0,"xT2":1058.1,"yT2":0,"toosoon":0,"cond_shown":"equaldotanddens","ratio_trial":500,"smaller_num":"6","larger_num":"12","correct_side":1,"subjID":"SARAVALENTINARUBIOGAMEZ1","gender":"0","age":"11","school":"6"},{"start_time":1551901308226,"click_time":1551901309097,"finger_time":1551901308697,"fix_duration":1267.145556775467,"trial":48,"RT":471,"MT":400,"sideResp":1,"stimulus":"img/250/equaldotanddens/L/7_Ratio_250_L_8_R_2.png","xmouse":[790,790,790,790,790,790,790,790,790,790,790,790,790,790,790,790,790,790,790,790,789,787,783,776,736,709,680,652,634,613,609,605,604,604,604,604,604,604,604,569,544,526,517,514],"ymouse":[634,634,634,634,634,634,634,634,634,634,634,634,634,634,634,634,634,632,631,628,623,612,593,568,466,408,346,281,226,144,128,114,105,101,101,101,101,100,100,100,100,100,100,99],"timestamp_mouse":[11,39,51,70,91,111,132,150,171,191,212,231,251,271,292,310,332,351,371,390,412,431,451,471,491,511,531,551,571,590,612,632,651,672,691,711,732,750,771,791,812,831,851,871],"xSR":741.5,"ySR":573.95,"xT1":424.9,"yT1":0,"xT2":1058.1,"yT2":0,"toosoon":0,"cond_shown":"equaldotanddens","ratio_trial":250,"smaller_num":"2","larger_num":"8","correct_side":1,"subjID":"SARAVALENTINARUBIOGAMEZ1","gender":"0","age":"11","school":"6"},{"start_time":1551901311002,"click_time":1551901311597,"finger_time":1551901311458,"fix_duration":984.419111643792,"trial":49,"RT":456,"MT":139,"sideResp":2,"stimulus":"img/250/equaldotsize/R/6_Ratio_250_L_6_R_24.png","xmouse":[774,774,774,774,774,774,774,774,774,774,774,774,774,774,774,774,774,774,774,774,775,785,817,875,947,1058,1094,1120,1134,1145],"ymouse":[623,623,623,623,623,623,623,623,623,623,623,623,623,623,623,623,623,623,623,623,617,600,563,503,420,262,196,144,113,89],"timestamp_mouse":[15,34,55,76,96,116,134,155,176,196,215,236,255,276,294,315,336,355,376,395,415,436,456,475,496,516,534,555,576,595],"xSR":741.5,"ySR":573.95,"xT1":424.9,"yT1":0,"xT2":1058.1,"yT2":0,"toosoon":0,"cond_shown":"equaldotsize","ratio_trial":250,"smaller_num":"6","larger_num":"24","correct_side":2,"subjID":"SARAVALENTINARUBIOGAMEZ1","gender":"0","age":"11","school":"6"},{"start_time":1551901313400,"click_time":1551901314557,"finger_time":1551901314218,"fix_duration":681.3064841690659,"trial":50,"RT":818,"MT":339,"sideResp":2,"stimulus":"img/500/randomdotsizeEA/R/9_Ratio_500_L_2_R_4.png","xmouse":[795,795,795,795,795,795,795,795,795,795,795,795,795,795,795,795,795,795,795,795,795,795,795,795,795,795,795,795,795,795,795,795,795,795,795,795,795,796,799,810,925,975,996,1000,1000,1023,1066,1107,1132,1143,1146,1146,1146,1146,1146,1140,1134,1129],"ymouse":[611,611,611,611,611,611,611,611,611,611,611,611,611,611,611,611,611,611,611,611,611,611,611,611,611,611,611,611,611,611,611,611,611,611,611,611,611,611,606,589,472,413,362,330,305,254,219,188,167,156,148,148,147,143,137,124,112,98],"timestamp_mouse":[18,38,64,77,97,118,138,158,178,198,217,237,257,278,297,317,336,358,376,398,417,438,456,478,497,517,538,558,576,598,617,637,657,678,697,717,736,757,778,798,818,836,857,877,898,917,938,957,977,997,1017,1038,1057,1077,1097,1117,1137,1157],"xSR":741.5,"ySR":573.95,"xT1":424.9,"yT1":0,"xT2":1058.1,"yT2":0,"toosoon":0,"cond_shown":"randomdotsizeEA","ratio_trial":500,"smaller_num":"2","larger_num":"4","correct_side":2,"subjID":"SARAVALENTINARUBIOGAMEZ1","gender":"0","age":"11","school":"6"},{"start_time":1551901317660,"click_time":1551901320078,"finger_time":1551901318778,"fix_duration":461.80978280483896,"trial":51,"RT":1118,"MT":1300,"sideResp":2,"stimulus":"img/900/equaldotanddens/R/6_Ratio_900_L_9_R_10.png","xmouse":[803,803,803,803,803,803,803,803,803,803,803,803,803,803,803,803,803,803,803,803,803,803,803,803,803,803,803,803,803,803,803,803,803,803,803,803,803,803,803,803,803,803,803,803,803,803,803,803,803,803,803,803,803,801,800,799,776,712,685,654,617,581,537,532,531,531,531,531,531,531,531,531,531,531,531,531,530,527,527,527,527,527,527,527,527,527,527,527,527,527,527,527,527,527,527,527,527,527,527,527,527,531,605,740,912,1050,1172,1172,1172,1172,1172,1172,1172,1172,1172,1172,1172,1172,1172,1166,1158],"ymouse":[618,618,618,618,618,618,618,618,618,618,618,618,618,618,618,618,618,618,618,618,618,618,618,618,618,618,618,618,618,618,618,618,618,618,618,618,618,618,618,618,618,618,618,618,618,618,618,618,618,618,618,618,612,601,589,571,520,373,316,265,213,172,121,111,108,107,107,107,107,107,107,107,107,107,107,107,106,105,105,105,105,105,105,105,105,105,105,105,105,105,105,105,105,105,105,105,105,105,105,105,105,105,105,105,94,69,26,26,26,26,26,26,26,26,26,26,26,26,28,33,38],"timestamp_mouse":[19,37,57,78,98,117,138,157,177,197,217,237,257,277,297,318,337,356,377,397,417,437,458,477,498,517,537,557,577,597,618,637,657,676,698,718,737,757,778,797,817,837,858,878,897,917,938,957,977,997,1017,1038,1058,1077,1097,1118,1138,1158,1177,1198,1217,1238,1258,1277,1297,1318,1338,1357,1377,1397,1416,1437,1457,1477,1497,1517,1537,1557,1576,1598,1617,1638,1657,1677,1697,1718,1738,1757,1777,1797,1816,1838,1857,1878,1896,1917,1937,1958,1977,1997,2017,2037,2058,2077,2098,2118,2138,2156,2177,2197,2218,2236,2257,2278,2297,2317,2337,2358,2377,2397,2418],"xSR":741.5,"ySR":573.95,"xT1":424.9,"yT1":0,"xT2":1058.1,"yT2":0,"toosoon":0,"cond_shown":"equaldotanddens","ratio_trial":900,"smaller_num":"9","larger_num":"10","correct_side":2,"subjID":"SARAVALENTINARUBIOGAMEZ1","gender":"0","age":"11","school":"6"},{"start_time":1551901322727,"click_time":1551901323658,"finger_time":1551901323377,"fix_duration":1487.90215862022,"trial":52,"RT":650,"MT":281,"sideResp":2,"stimulus":"img/250/randomdotsizeEA/R/6_Ratio_250_L_6_R_24.png","xmouse":[810,810,810,810,810,810,810,810,810,810,810,810,810,810,810,810,810,810,810,810,810,810,810,810,810,810,810,810,810,810,809,814,849,880,931,962,990,1010,1023,1031,1032,1034,1035,1036,1037,1050,1076],"ymouse":[616,616,616,616,616,616,616,616,616,616,616,616,616,616,616,616,616,616,616,616,616,616,616,616,616,616,616,616,616,616,606,581,492,419,283,223,170,127,97,71,66,62,60,59,59,59,59],"timestamp_mouse":[10,38,51,70,89,111,130,151,170,191,210,231,251,269,290,311,329,351,371,390,411,431,451,470,490,511,529,550,570,591,611,630,650,671,689,710,731,750,770,791,810,830,850,869,890,910,931],"xSR":741.5,"ySR":573.95,"xT1":424.9,"yT1":0,"xT2":1058.1,"yT2":0,"toosoon":0,"cond_shown":"randomdotsizeEA","ratio_trial":250,"smaller_num":"6","larger_num":"24","correct_side":2,"subjID":"SARAVALENTINARUBIOGAMEZ1","gender":"0","age":"11","school":"6"},{"start_time":1551901325015,"click_time":1551901325798,"finger_time":1551901325678,"fix_duration":335.9755648372658,"trial":53,"RT":663,"MT":120,"sideResp":1,"stimulus":"img/500/randomdotsizeEA/L/8_Ratio_500_L_8_R_4.png","xmouse":[774,774,774,774,774,774,774,774,774,774,774,774,774,774,774,774,774,774,774,774,774,774,774,774,774,774,774,774,774,774,774,771,769,765,760,736,698,634,605,516],"ymouse":[595,595,595,595,595,595,595,595,595,595,595,595,595,595,595,595,595,595,595,595,595,595,595,595,595,595,595,595,595,595,595,592,585,570,548,445,363,246,208,93],"timestamp_mouse":[14,35,42,62,83,102,122,143,162,182,202,223,241,262,282,302,322,343,363,381,402,423,443,461,482,503,522,543,563,582,603,621,643,663,683,702,722,742,762,783],"xSR":741.5,"ySR":573.95,"xT1":424.9,"yT1":0,"xT2":1058.1,"yT2":0,"toosoon":0,"cond_shown":"randomdotsizeEA","ratio_trial":500,"smaller_num":"4","larger_num":"8","correct_side":1,"subjID":"SARAVALENTINARUBIOGAMEZ1","gender":"0","age":"11","school":"6"},{"start_time":1551901327149,"click_time":1551901328317,"finger_time":1551901328216,"fix_duration":250,"trial":54,"RT":1067,"MT":101,"sideResp":2,"stimulus":"img/750/equaldotsize/R/5_Ratio_750_L_15_R_20.png","xmouse":[788,788,788,788,788,788,788,788,788,788,788,788,788,788,788,788,788,788,788,788,788,788,788,788,788,788,788,788,788,788,788,788,788,788,788,788,788,788,788,788,788,788,787,787,787,787,787,787,787,787,787,787,788,843,909,974,1017,1046,1079],"ymouse":[601,601,601,601,601,601,601,601,601,601,601,601,601,601,601,601,601,601,601,601,601,601,601,601,601,601,601,601,601,601,601,601,601,601,601,601,601,601,601,601,601,601,601,601,601,599,599,599,599,598,598,597,585,516,441,358,281,209,90],"timestamp_mouse":[8,36,48,69,88,107,128,148,169,188,208,228,249,269,288,309,327,348,368,389,408,429,448,467,489,508,527,548,568,587,609,628,647,668,688,709,727,748,767,787,807,827,849,869,887,908,929,948,968,988,1008,1027,1048,1067,1089,1108,1128,1149,1168],"xSR":741.5,"ySR":573.95,"xT1":424.9,"yT1":0,"xT2":1058.1,"yT2":0,"toosoon":0,"cond_shown":"equaldotsize","ratio_trial":750,"smaller_num":"15","larger_num":"20","correct_side":2,"subjID":"SARAVALENTINARUBIOGAMEZ1","gender":"0","age":"11","school":"6"},{"start_time":1551901329750,"click_time":1551901330758,"finger_time":1551901330197,"fix_duration":250,"trial":55,"RT":447,"MT":561,"sideResp":1,"stimulus":"img/250/randomdotsizeEA/L/5_Ratio_250_L_24_R_6.png","xmouse":[792,792,792,792,792,792,792,792,792,792,792,792,792,792,792,792,792,792,792,791,790,780,773,753,746,738,712,677,645,635,627,611,601,585,579,574,564,553,530,525,525,525,525,525,525,525,525,525,525,525,524],"ymouse":[599,599,599,599,599,599,599,599,599,599,599,599,599,599,599,599,599,599,599,598,595,574,556,509,485,459,407,346,270,240,212,173,149,119,112,107,105,104,104,104,103,103,103,101,100,100,99,99,99,99,98],"timestamp_mouse":[14,37,47,67,87,106,128,147,166,187,207,227,247,267,288,307,327,347,367,387,407,427,447,466,487,507,527,547,566,588,608,628,647,667,686,707,728,748,767,786,807,828,848,867,886,907,927,948,968,987,1008],"xSR":741.5,"ySR":573.95,"xT1":424.9,"yT1":0,"xT2":1058.1,"yT2":0,"toosoon":0,"cond_shown":"randomdotsizeEA","ratio_trial":250,"smaller_num":"6","larger_num":"24","correct_side":1,"subjID":"SARAVALENTINARUBIOGAMEZ1","gender":"0","age":"11","school":"6"},{"start_time":1551901332509,"click_time":1551901333637,"finger_time":1551901332838,"fix_duration":870.2397968533428,"trial":56,"RT":329,"MT":799,"sideResp":1,"stimulus":"img/900/equaldotsize/L/2_Ratio_900_L_20_R_18.png","xmouse":[810,810,810,810,810,810,810,810,810,810,810,810,810,807,805,801,801,801,803,804,804,804,804,804,804,804,804,804,804,804,804,804,804,804,804,804,804,804,804,804,804,804,804,804,804,751,704,656,605,547,479,473,472,472,472,472,471],"ymouse":[608,608,608,608,608,608,608,608,608,608,608,608,608,606,599,581,572,563,553,549,543,543,543,543,543,543,543,543,543,543,543,543,543,543,543,543,543,543,543,543,543,543,542,509,457,301,211,131,64,6,0,0,0,0,0,0,6],"timestamp_mouse":[10,41,47,69,89,108,128,149,167,188,207,229,249,268,288,309,329,347,369,388,408,428,448,468,487,509,529,548,568,589,609,628,648,668,688,708,728,748,768,789,808,829,847,868,888,908,928,948,969,989,1008,1029,1048,1068,1087,1109,1128],"xSR":741.5,"ySR":573.95,"xT1":424.9,"yT1":0,"xT2":1058.1,"yT2":0,"toosoon":0,"cond_shown":"equaldotsize","ratio_trial":900,"smaller_num":"18","larger_num":"20","correct_side":1,"subjID":"SARAVALENTINARUBIOGAMEZ1","gender":"0","age":"11","school":"6"},{"start_time":1551901337752,"click_time":1551901338917,"finger_time":1551901338678,"fix_duration":1493.0491750452445,"trial":57,"RT":926,"MT":239,"sideResp":1,"stimulus":"img/750/equaldotsize/L/8_Ratio_750_L_4_R_3.png","xmouse":[787,787,787,787,787,787,787,787,787,787,787,787,787,787,787,787,787,787,787,787,787,787,787,787,787,787,787,787,787,787,787,787,787,787,787,787,787,787,787,787,787,787,787,786,782,777,772,766,759,759,755,720,674,607,576,559,551,538,516],"ymouse":[609,609,609,609,609,609,609,609,609,609,609,609,609,609,609,609,609,609,609,609,609,609,609,609,609,609,609,609,609,609,609,609,609,609,609,609,609,609,609,609,609,609,609,608,597,577,547,503,413,379,349,282,216,140,117,108,103,99,94],"timestamp_mouse":[9,31,44,66,86,106,125,144,165,185,205,225,246,265,286,305,326,345,364,386,405,425,445,466,486,505,525,545,565,586,605,625,645,666,685,705,725,745,766,785,805,825,845,865,885,905,926,945,964,985,1006,1026,1046,1065,1085,1106,1125,1145,1165],"xSR":741.5,"ySR":573.95,"xT1":424.9,"yT1":0,"xT2":1058.1,"yT2":0,"toosoon":0,"cond_shown":"equaldotsize","ratio_trial":750,"smaller_num":"3","larger_num":"4","correct_side":1,"subjID":"SARAVALENTINARUBIOGAMEZ1","gender":"0","age":"11","school":"6"},{"start_time":1551901341570,"click_time":1551901342418,"finger_time":1551901342017,"fix_duration":250,"trial":58,"RT":447,"MT":401,"sideResp":1,"stimulus":"img/250/randomdotsizeEA/L/7_Ratio_250_L_8_R_2.png","xmouse":[802,802,802,802,802,802,802,802,802,802,802,802,802,802,802,802,802,802,802,802,801,796,771,751,731,710,686,650,636,625,609,601,587,584,578,569,555,530,514,503,496,494,488],"ymouse":[619,619,619,619,619,619,619,619,619,619,619,619,619,619,619,619,619,619,619,619,617,603,548,502,453,405,356,274,244,219,192,180,171,170,169,169,167,153,141,129,110,100,81],"timestamp_mouse":[13,37,47,67,87,108,127,147,167,188,208,227,246,268,287,307,327,347,368,387,408,428,447,468,487,507,528,547,567,587,608,627,647,666,687,707,728,747,768,788,808,827,848],"xSR":741.5,"ySR":573.95,"xT1":424.9,"yT1":0,"xT2":1058.1,"yT2":0,"toosoon":0,"cond_shown":"randomdotsizeEA","ratio_trial":250,"smaller_num":"2","larger_num":"8","correct_side":1,"subjID":"SARAVALENTINARUBIOGAMEZ1","gender":"0","age":"11","school":"6"},{"start_time":1551901343608,"click_time":1551901344257,"finger_time":1551901344017,"fix_duration":250,"trial":59,"RT":409,"MT":240,"sideResp":1,"stimulus":"img/250/equaldotanddens/L/14_Ratio_250_L_12_R_3.png","xmouse":[780,780,780,780,780,780,780,780,780,780,780,780,780,780,780,780,780,780,779,778,769,762,753,745,738,707,682,651,640,607,563,540,519],"ymouse":[594,594,594,594,594,594,594,594,594,594,594,594,594,594,594,594,594,594,595,593,571,554,537,516,493,410,355,272,249,172,93,66,42],"timestamp_mouse":[9,37,48,69,89,110,129,149,170,190,209,230,249,269,289,309,330,349,369,389,409,430,450,470,490,509,530,550,569,589,609,629,649],"xSR":741.5,"ySR":573.95,"xT1":424.9,"yT1":0,"xT2":1058.1,"yT2":0,"toosoon":0,"cond_shown":"equaldotanddens","ratio_trial":250,"smaller_num":"3","larger_num":"12","correct_side":1,"subjID":"SARAVALENTINARUBIOGAMEZ1","gender":"0","age":"11","school":"6"},{"start_time":1551901345897,"click_time":1551901347297,"finger_time":1551901346197,"fix_duration":580.9610070758148,"trial":60,"RT":300,"MT":1100,"sideResp":1,"stimulus":"img/900/equaldotsize/R/3_Ratio_900_L_9_R_10.png","xmouse":[775,775,775,775,775,775,775,775,775,775,775,775,775,776,773,752,737,716,687,645,557,530,511,509,506,506,506,506,506,506,506,506,506,506,506,506,506,506,506,506,506,506,506,506,506,506,506,506,506,506,506,506,506,506,506,506,506,506,506,506,506,506,506,506,506,506,506,504,503,500],"ymouse":[596,596,596,596,596,596,596,596,596,596,596,596,596,586,566,504,469,428,380,319,206,172,140,134,123,118,118,118,118,118,118,118,118,118,118,118,118,118,118,118,118,118,118,118,118,118,118,118,118,118,118,118,118,118,118,118,118,118,118,118,118,118,118,118,118,118,112,109,103,97],"timestamp_mouse":[21,39,60,81,101,119,140,161,180,200,220,240,260,280,300,319,340,361,380,400,421,441,460,480,499,519,540,560,580,601,620,640,661,680,701,719,739,760,780,800,821,840,860,880,901,921,940,960,980,1000,1019,1040,1061,1081,1100,1120,1140,1161,1180,1200,1220,1241,1260,1281,1301,1320,1340,1360,1380,1400],"xSR":741.5,"ySR":573.95,"xT1":424.9,"yT1":0,"xT2":1058.1,"yT2":0,"toosoon":0,"cond_shown":"equaldotsize","ratio_trial":900,"smaller_num":"9","larger_num":"10","correct_side":2,"subjID":"SARAVALENTINARUBIOGAMEZ1","gender":"0","age":"11","school":"6"},{"start_time":1551901349997,"click_time":1551901351338,"finger_time":1551901350318,"fix_duration":1058.9911843731397,"trial":61,"RT":321,"MT":1020,"sideResp":1,"stimulus":"img/900/equaldotanddens/R/14_Ratio_900_L_18_R_20.png","xmouse":[802,802,802,803,803,803,803,803,803,803,803,803,803,808,811,820,844,860,890,925,979,1008,1013,1015,1016,1016,1018,1018,1018,1018,1018,1018,1018,1018,1018,1018,1018,1018,1018,1018,1018,1018,1011,998,982,958,893,848,783,683,642,614,610,607,606,603,593,584,580,574,