[{"start_time":1551887033697,"click_time":1551887037526,"finger_time":1551887035565,"fix_duration":1325.9469650522165,"trial":0,"RT":1868,"MT":1961,"sideResp":2,"stimulus":[],"xmouse":[785,785,785,777,775,774,774,774,774,774,774,774,774,774,774,774,774,774,774,774,774,774,774,774,774,774,774,774,774,774,774,774,774,774,774,774,774,774,774,774,774,774,774,774,774,774,774,774,774,774,774,774,774,774,774,774,774,774,774,774,774,774,774,774,774,774,774,774,774,774,774,774,774,774,774,774,774,774,774,774,774,774,774,764,760,756,755,754,753,751,751,750,746,737,731,726,717,705,685,684,684,684,679,669,668,668,668,668,668,668,668,668,668,668,668,668,668,668,668,668,668,668,668,668,618,616,613,611,609,605,603,601,600,599,599,598,598,598,598,598,598,597,597,595,595,595,594,594,591,589,588,587,587,587,586,585,584,583,582,582,586,591,599,639,693,759,837,926,1039,1051,1054,1055,1055,1064,1070,1075,1079,1081,1083,1083,1083,1083,1083,1083,1083,1083,1083,1084,1084,1084,1085,1085],"ymouse":[568,567,567,547,543,541,541,541,541,541,541,541,541,541,541,541,541,541,541,540,540,540,540,540,540,540,540,540,540,540,540,540,540,540,540,540,540,540,540,540,540,540,540,540,540,540,540,540,540,540,540,540,540,540,540,540,540,540,540,540,540,540,540,540,540,540,540,540,540,540,540,540,540,540,540,540,540,540,540,540,533,531,526,502,494,487,486,484,482,481,480,478,473,464,458,449,436,418,366,313,253,183,89,14,3,3,3,3,3,3,3,3,3,3,3,3,3,3,3,3,3,3,3,3,1,2,4,5,7,9,11,14,15,17,17,17,17,17,17,18,18,19,19,21,21,22,22,24,27,29,30,31,31,31,31,31,33,34,35,37,38,39,41,52,67,85,107,132,152,152,152,152,152,152,150,146,144,140,134,133,127,123,120,119,118,116,113,111,107,105,103,99],"timestamp_mouse":[9,37,49,70,90,109,128,150,170,188,209,229,249,270,288,310,330,348,369,389,410,428,450,470,489,510,529,549,568,589,609,630,650,670,689,708,729,749,770,788,809,830,850,870,889,909,930,950,969,989,1008,1028,1048,1068,1089,1109,1130,1150,1168,1189,1209,1229,1249,1268,1289,1309,1328,1349,1370,1389,1410,1429,1449,1469,1489,1509,1529,1550,1569,1589,1609,1630,1649,1669,1690,1709,1729,1749,1768,1789,1809,1829,1849,1868,1889,1909,1929,1949,1970,1988,2009,2029,2050,2069,2090,2110,2129,2149,2169,2189,2210,2230,2250,2270,2289,2309,2329,2348,2369,2389,2409,2429,2449,2469,2489,2510,2529,2550,2569,2590,2610,2629,2649,2669,2690,2708,2729,2749,2770,2789,2809,2829,2849,2869,2888,2909,2930,2949,2969,2988,3010,3030,3049,3069,3088,3109,3129,3149,3169,3189,3209,3229,3248,3269,3289,3309,3330,3349,3370,3389,3409,3428,3449,3469,3488,3509,3530,3549,3570,3588,3609,3629,3650,3670,3690,3709,3729,3749,3770,3788,3809,3829],"xSR":741.5,"ySR":469.95,"xT1":424.9,"yT1":0,"xT2":1058.1,"yT2":0,"toosoon":0,"cond_shown":"Congruent","ratio_trial":300,"L_num":1,"L_den":20,"R_num":7,"R_den":20,"correct_side":2,"subjID":"saravalentinasilvagutierrez11","gender":"mujer","age":"11","school":"6g","test":{"fix_dur":[250,1500],"timestim":1000,"targets_dim":[100,100],"targets_relative_coord":[0.3,0.7],"size_stim":[880,420],"start_dim":[100,100],"size_start":[300,300],"size_fix":60,"samplingrate":20,"img_types":["Congruent","Incongruent"],"ratios":[100,200,300],"rep_conds":19,"nTrials":120,"trials_to_rest":500,"Trials_order":[52,92,77,32,2,66,78,34,90,75,69,43,109,26,115,100,83,47,114,1,70,15,74,30,110,3,27,68,80,63,73,89,79,6,103,9,99,35,107,65,18,116,88,96,112,14,7,22,55,117,111,51,36,101,28,81,72,58,106,97,94,46,11,104,91,102,0,57,49,71,42,118,4,40,33,20,108,23,17,37,84,44,113,39,31,86,67,24,19,38,64,41,119,29,62,98,45,48,12,25,82,8,87,76,53,61,93,95,56,105,10,13,16,60,85,5,50,59,21,54],"cond_shown":["Congruent","Congruent","Incongruent","Congruent","Congruent","Congruent","Congruent","Congruent","Congruent","Incongruent","Incongruent","Incongruent","Incongruent","Congruent","Incongruent","Congruent","Incongruent","Incongruent","Congruent","Incongruent","Congruent","Incongruent","Congruent","Congruent","Congruent","Incongruent","Incongruent","Congruent","Congruent","Incongruent","Incongruent","Incongruent","Incongruent","Congruent","Incongruent","Incongruent","Incongruent","Incongruent","Incongruent","Incongruent","Congruent","Congruent","Congruent","Congruent","Congruent","Congruent","Incongruent","Congruent","Incongruent","Incongruent","Incongruent","Incongruent","Congruent","Incongruent","Congruent","Incongruent","Congruent","Congruent","Congruent","Incongruent","Congruent","Congruent","Incongruent","Congruent","Incongruent","Congruent","Congruent","Incongruent","Incongruent","Incongruent","Congruent","Congruent","Congruent","Congruent","Incongruent","Congruent","Congruent","Incongruent","Incongruent","Incongruent","Congruent","Congruent","Incongruent","Incongruent","Incongruent","Congruent","Incongruent","Congruent","Incongruent","Congruent","Congruent","Incongruent","Incongruent","Incongruent","Congruent","Congruent","Incongruent","Congruent","Congruent","Incongruent","Congruent","Congruent","Incongruent","Congruent","Incongruent","Incongruent","Incongruent","Incongruent","Congruent","Incongruent","Congruent","Incongruent","Congruent","Congruent","Incongruent","Incongruent","Congruent","Incongruent","Incongruent","Congruent"],"ratio_trial":[300,200,300,200,200,100,100,300,100,200,200,100,100,200,100,300,300,300,100,100,300,200,200,100,200,200,200,200,200,200,100,300,100,100,100,200,200,300,300,300,100,200,300,100,300,200,100,300,100,200,200,200,100,300,300,200,100,300,300,100,300,300,300,200,100,100,100,200,100,300,100,300,300,300,200,200,100,300,300,100,100,200,300,200,100,200,100,100,100,200,300,300,300,300,200,200,200,100,100,100,300,200,200,300,300,100,200,300,200,200,300,100,300,100,100,300,200,300,200,100],"left_num":[1,5,8,5,12,6,10,8,7,4,4,13,6,5,2,4,8,4,6,17,20,7,3,1,13,7,7,9,11,7,9,3,3,8,11,14,7,4,2,4,7,16,24,7,20,3,4,20,3,7,7,4,2,13,20,7,9,11,2,9,1,20,4,12,3,1,2,14,10,13,8,24,20,2,1,4,8,4,8,4,11,9,4,9,12,20,13,4,13,7,1,8,2,13,15,3,1,3,12,2,18,6,1,3,13,12,3,13,8,14,24,6,18,1,9,4,14,13,1,7],"right_num":[7,14,9,14,6,5,3,1,9,6,14,12,3,14,8,1,9,2,15,10,5,8,11,3,14,14,6,4,3,4,20,4,4,2,9,12,8,2,6,2,9,12,2,15,13,11,8,5,7,14,8,14,11,12,9,8,8,2,10,6,8,8,8,6,11,18,11,6,8,12,2,8,14,12,2,3,2,6,14,8,4,13,8,8,2,9,6,15,6,2,6,14,6,12,4,14,3,4,13,6,9,3,2,4,12,9,1,12,7,6,8,13,9,18,14,6,6,12,3,15],"left_den":[20,10,10,10,20,20,25,16,14,5,6,26,12,10,4,10,10,20,12,30,25,10,10,2,26,10,15,20,22,15,10,6,6,16,22,30,10,20,4,20,14,20,30,14,25,10,8,25,9,10,10,6,5,26,25,10,15,22,20,18,30,25,5,15,5,2,5,30,25,26,16,30,25,10,3,8,16,5,10,8,22,30,5,15,30,25,26,10,26,21,5,10,4,26,25,10,2,20,30,4,20,15,3,6,26,24,10,26,15,30,30,10,20,2,15,5,28,26,2,14],"right_den":[20,20,18,20,15,25,10,5,15,10,30,20,5,20,20,10,18,4,25,15,10,16,22,5,20,28,9,16,10,6,25,20,10,5,15,18,16,4,30,4,15,20,4,25,26,22,20,10,30,28,16,30,22,15,18,16,16,10,25,10,24,16,16,10,22,30,22,9,16,15,5,16,28,24,15,10,5,12,28,20,10,26,16,10,4,15,10,30,10,15,12,28,30,15,10,28,10,16,26,15,15,15,15,5,15,15,2,15,21,9,16,26,15,30,28,12,20,15,10,25],"correct_side":[2,2,1,2,1,1,1,1,2,1,1,2,2,2,1,1,1,2,2,2,1,1,2,2,2,1,2,1,1,2,1,1,1,1,2,2,1,2,1,2,2,1,1,2,1,2,1,1,1,1,1,1,2,2,1,1,1,1,2,2,2,1,1,1,1,2,2,2,2,2,1,1,1,2,1,1,1,1,1,1,1,2,1,2,2,1,2,2,2,1,2,1,1,2,1,2,1,2,2,1,1,1,1,2,2,2,2,2,1,2,1,1,1,2,1,1,1,2,1,2],"img_shown":["img2/300/Congruent/R/C_Dist_300_LN_1_LD_20_RN_7_RD_20_1.png","img2/200/Congruent/R/C_Dist_200_LN_5_LD_10_RN_14_RD_20_1.png","img2/300/Incongruent/L/I_Dist_300_LN_8_LD_10_RN_9_RD_18_0.png","img2/200/Congruent/R/C_Dist_200_LN_5_LD_10_RN_14_RD_20_1.png","img2/200/Congruent/L/C_Dist_200_LN_12_LD_20_RN_6_RD_15_0.png","img2/100/Congruent/L/C_Dist_100_LN_6_LD_20_RN_5_RD_25_0.png","img2/100/Congruent/L/C_Dist_100_LN_10_LD_25_RN_3_RD_10_0.png","img2/300/Congruent/L/C_Dist_300_LN_8_LD_16_RN_1_RD_5_0.png","img2/100/Congruent/R/C_Dist_100_LN_7_LD_14_RN_9_RD_15_1.png","img2/200/Incongruent/L/I_Dist_200_LN_4_LD_5_RN_6_RD_10_0.png","img2/200/Incongruent/L/I_Dist_200_LN_4_LD_6_RN_14_RD_30_0.png","img2/100/Incongruent/R/I_Dist_100_LN_13_LD_26_RN_12_RD_20_1.png","img2/100/Incongruent/R/I_Dist_100_LN_6_LD_12_RN_3_RD_5_1.png","img2/200/Congruent/R/C_Dist_200_LN_5_LD_10_RN_14_RD_20_1.png","img2/100/Incongruent/L/I_Dist_100_LN_2_LD_4_RN_8_RD_20_0.png","img2/300/Congruent/L/C_Dist_300_LN_4_LD_10_RN_1_RD_10_0.png","img2/300/Incongruent/L/I_Dist_300_LN_8_LD_10_RN_9_RD_18_0.png","img2/300/Incongruent/R/I_Dist_300_LN_4_LD_20_RN_2_RD_4_1.png","img2/100/Congruent/R/C_Dist_100_LN_6_LD_12_RN_15_RD_25_1.png","img2/100/Incongruent/R/I_Dist_100_LN_17_LD_30_RN_10_RD_15_1.png","img2/300/Congruent/L/C_Dist_300_LN_20_LD_25_RN_5_RD_10_0.png","img2/200/Incongruent/L/I_Dist_200_LN_7_LD_10_RN_8_RD_16_0.png","img2/200/Congruent/R/C_Dist_200_LN_3_LD_10_RN_11_RD_22_1.png","img2/100/Congruent/R/C_Dist_100_LN_1_LD_2_RN_3_RD_5_1.png","img2/200/Congruent/R/C_Dist_200_LN_13_LD_26_RN_14_RD_20_1.png","img2/200/Incongruent/L/I_Dist_200_LN_7_LD_10_RN_14_RD_28_0.png","img2/200/Incongruent/R/I_Dist_200_LN_7_LD_15_RN_6_RD_9_1.png","img2/200/Congruent/L/C_Dist_200_LN_9_LD_20_RN_4_RD_16_0.png","img2/200/Congruent/L/C_Dist_200_LN_11_LD_22_RN_3_RD_10_0.png","img2/200/Incongruent/R/I_Dist_200_LN_7_LD_15_RN_4_RD_6_1.png","img2/100/Incongruent/L/I_Dist_100_LN_9_LD_10_RN_20_RD_25_0.png","img2/300/Incongruent/L/I_Dist_300_LN_3_LD_6_RN_4_RD_20_0.png","img2/100/Incongruent/L/I_Dist_100_LN_3_LD_6_RN_4_RD_10_0.png","img2/100/Congruent/L/C_Dist_100_LN_8_LD_16_RN_2_RD_5_0.png","img2/100/Incongruent/R/I_Dist_100_LN_11_LD_22_RN_9_RD_15_1.png","img2/200/Incongruent/R/I_Dist_200_LN_14_LD_30_RN_12_RD_18_1.png","img2/200/Incongruent/L/I_Dist_200_LN_7_LD_10_RN_8_RD_16_0.png","img2/300/Incongruent/R/I_Dist_300_LN_4_LD_20_RN_2_RD_4_1.png","img2/300/Incongruent/L/I_Dist_300_LN_2_LD_4_RN_6_RD_30_0.png","img2/300/Incongruent/R/I_Dist_300_LN_4_LD_20_RN_2_RD_4_1.png","img2/100/Congruent/R/C_Dist_100_LN_7_LD_14_RN_9_RD_15_1.png","img2/200/Congruent/L/C_Dist_200_LN_16_LD_20_RN_12_RD_20_0.png","img2/300/Congruent/L/C_Dist_300_LN_24_LD_30_RN_2_RD_4_0.png","img2/100/Congruent/R/C_Dist_100_LN_7_LD_14_RN_15_RD_25_1.png","img2/300/Congruent/L/C_Dist_300_LN_20_LD_25_RN_13_RD_26_0.png","img2/200/Congruent/R/C_Dist_200_LN_3_LD_10_RN_11_RD_22_1.png","img2/100/Incongruent/L/I_Dist_100_LN_4_LD_8_RN_8_RD_20_0.png","img2/300/Congruent/L/C_Dist_300_LN_20_LD_25_RN_5_RD_10_0.png","img2/100/Incongruent/L/I_Dist_100_LN_3_LD_9_RN_7_RD_30_0.png","img2/200/Incongruent/L/I_Dist_200_LN_7_LD_10_RN_14_RD_28_0.png","img2/200/Incongruent/L/I_Dist_200_LN_7_LD_10_RN_8_RD_16_0.png","img2/200/Incongruent/L/I_Dist_200_LN_4_LD_6_RN_14_RD_30_0.png","img2/100/Congruent/R/C_Dist_100_LN_2_LD_5_RN_11_RD_22_1.png","img2/300/Incongruent/R/I_Dist_300_LN_13_LD_26_RN_12_RD_15_1.png","img2/300/Congruent/L/C_Dist_300_LN_20_LD_25_RN_9_RD_18_0.png","img2/200/Incongruent/L/I_Dist_200_LN_7_LD_10_RN_8_RD_16_0.png","img2/100/Congruent/L/C_Dist_100_LN_9_LD_15_RN_8_RD_16_0.png","img2/300/Congruent/L/C_Dist_300_LN_11_LD_22_RN_2_RD_10_0.png","img2/300/Congruent/R/C_Dist_300_LN_2_LD_20_RN_10_RD_25_1.png","img2/100/Incongruent/R/I_Dist_100_LN_9_LD_18_RN_6_RD_10_1.png","img2/300/Congruent/R/C_Dist_300_LN_1_LD_30_RN_8_RD_24_1.png","img2/300/Congruent/L/C_Dist_300_LN_20_LD_25_RN_8_RD_16_0.png","img2/300/Incongruent/L/I_Dist_300_LN_4_LD_5_RN_8_RD_16_0.png","img2/200/Congruent/L/C_Dist_200_LN_12_LD_15_RN_6_RD_10_0.png","img2/100/Incongruent/L/I_Dist_100_LN_3_LD_5_RN_11_RD_22_0.png","img2/100/Congruent/R/C_Dist_100_LN_1_LD_2_RN_18_RD_30_1.png","img2/100/Congruent/R/C_Dist_100_LN_2_LD_5_RN_11_RD_22_1.png","img2/200/Incongruent/R/I_Dist_200_LN_14_LD_30_RN_6_RD_9_1.png","img2/100/Incongruent/R/I_Dist_100_LN_10_LD_25_RN_8_RD_16_1.png","img2/300/Incongruent/R/I_Dist_300_LN_13_LD_26_RN_12_RD_15_1.png","img2/100/Congruent/L/C_Dist_100_LN_8_LD_16_RN_2_RD_5_0.png","img2/300/Congruent/L/C_Dist_300_LN_24_LD_30_RN_8_RD_16_0.png","img2/300/Congruent/L/C_Dist_300_LN_20_LD_25_RN_14_RD_28_0.png","img2/300/Congruent/R/C_Dist_300_LN_2_LD_10_RN_12_RD_24_1.png","img2/200/Incongruent/L/I_Dist_200_LN_1_LD_3_RN_2_RD_15_0.png","img2/200/Congruent/L/C_Dist_200_LN_4_LD_8_RN_3_RD_10_0.png","img2/100/Congruent/L/C_Dist_100_LN_8_LD_16_RN_2_RD_5_0.png","img2/300/Incongruent/L/I_Dist_300_LN_4_LD_5_RN_6_RD_12_0.png","img2/300/Incongruent/L/I_Dist_300_LN_8_LD_10_RN_14_RD_28_0.png","img2/100/Incongruent/L/I_Dist_100_LN_4_LD_8_RN_8_RD_20_0.png","img2/100/Congruent/L/C_Dist_100_LN_11_LD_22_RN_4_RD_10_0.png","img2/200/Congruent/R/C_Dist_200_LN_9_LD_30_RN_13_RD_26_1.png","img2/300/Incongruent/L/I_Dist_300_LN_4_LD_5_RN_8_RD_16_0.png","img2/200/Incongruent/R/I_Dist_200_LN_9_LD_15_RN_8_RD_10_1.png","img2/100/Incongruent/R/I_Dist_100_LN_12_LD_30_RN_2_RD_4_1.png","img2/200/Congruent/L/C_Dist_200_LN_20_LD_25_RN_9_RD_15_0.png","img2/100/Incongruent/R/I_Dist_100_LN_13_LD_26_RN_6_RD_10_1.png","img2/100/Congruent/R/C_Dist_100_LN_4_LD_10_RN_15_RD_30_1.png","img2/100/Incongruent/R/I_Dist_100_LN_13_LD_26_RN_6_RD_10_1.png","img2/200/Congruent/L/C_Dist_200_LN_7_LD_21_RN_2_RD_15_0.png","img2/300/Congruent/R/C_Dist_300_LN_1_LD_5_RN_6_RD_12_1.png","img2/300/Incongruent/L/I_Dist_300_LN_8_LD_10_RN_14_RD_28_0.png","img2/300/Incongruent/L/I_Dist_300_LN_2_LD_4_RN_6_RD_30_0.png","img2/300/Incongruent/R/I_Dist_300_LN_13_LD_26_RN_12_RD_15_1.png","img2/200/Congruent/L/C_Dist_200_LN_15_LD_25_RN_4_RD_10_0.png","img2/200/Congruent/R/C_Dist_200_LN_3_LD_10_RN_14_RD_28_1.png","img2/200/Incongruent/L/I_Dist_200_LN_1_LD_2_RN_3_RD_10_0.png","img2/100/Congruent/R/C_Dist_100_LN_3_LD_20_RN_4_RD_16_1.png","img2/100/Congruent/R/C_Dist_100_LN_12_LD_30_RN_13_RD_26_1.png","img2/100/Incongruent/L/I_Dist_100_LN_2_LD_4_RN_6_RD_15_0.png","img2/300/Congruent/L/C_Dist_300_LN_18_LD_20_RN_9_RD_15_0.png","img2/200/Congruent/L/C_Dist_200_LN_6_LD_15_RN_3_RD_15_0.png","img2/200/Incongruent/L/I_Dist_200_LN_1_LD_3_RN_2_RD_15_0.png","img2/300/Congruent/R/C_Dist_300_LN_3_LD_6_RN_4_RD_5_1.png","img2/300/Incongruent/R/I_Dist_300_LN_13_LD_26_RN_12_RD_15_1.png","img2/100/Incongruent/R/I_Dist_100_LN_12_LD_24_RN_9_RD_15_1.png","img2/200/Incongruent/R/I_Dist_200_LN_3_LD_10_RN_1_RD_2_1.png","img2/300/Incongruent/R/I_Dist_300_LN_13_LD_26_RN_12_RD_15_1.png","img2/200/Congruent/L/C_Dist_200_LN_8_LD_15_RN_7_RD_21_0.png","img2/200/Incongruent/R/I_Dist_200_LN_14_LD_30_RN_6_RD_9_1.png","img2/300/Congruent/L/C_Dist_300_LN_24_LD_30_RN_8_RD_16_0.png","img2/100/Incongruent/L/I_Dist_100_LN_6_LD_10_RN_13_RD_26_0.png","img2/300/Congruent/L/C_Dist_300_LN_18_LD_20_RN_9_RD_15_0.png","img2/100/Congruent/R/C_Dist_100_LN_1_LD_2_RN_18_RD_30_1.png","img2/100/Incongruent/L/I_Dist_100_LN_9_LD_15_RN_14_RD_28_0.png","img2/300/Incongruent/L/I_Dist_300_LN_4_LD_5_RN_6_RD_12_0.png","img2/200/Congruent/L/C_Dist_200_LN_14_LD_28_RN_6_RD_20_0.png","img2/300/Incongruent/R/I_Dist_300_LN_13_LD_26_RN_12_RD_15_1.png","img2/200/Incongruent/L/I_Dist_200_LN_1_LD_2_RN_3_RD_10_0.png","img2/100/Congruent/R/C_Dist_100_LN_7_LD_14_RN_15_RD_25_1.png"],"dist100_C":[["C_Dist_100_LN_10_LD_25_RN_3_RD_10_0.png","C_Dist_100_LN_11_LD_22_RN_4_RD_10_0.png","C_Dist_100_LN_11_LD_22_RN_6_RD_15_0.png","C_Dist_100_LN_15_LD_25_RN_13_RD_26_0.png","C_Dist_100_LN_3_LD_6_RN_2_RD_5_0.png","C_Dist_100_LN_6_LD_20_RN_5_RD_25_0.png","C_Dist_100_LN_8_LD_16_RN_2_RD_5_0.png","C_Dist_100_LN_9_LD_15_RN_8_RD_16_0.png"],["C_Dist_100_LN_1_LD_2_RN_18_RD_30_1.png","C_Dist_100_LN_1_LD_2_RN_3_RD_5_1.png","C_Dist_100_LN_12_LD_30_RN_13_RD_26_1.png","C_Dist_100_LN_2_LD_5_RN_11_RD_22_1.png","C_Dist_100_LN_2_LD_5_RN_6_RD_12_1.png","C_Dist_100_LN_3_LD_20_RN_4_RD_16_1.png","C_Dist_100_LN_4_LD_10_RN_15_RD_30_1.png","C_Dist_100_LN_4_LD_8_RN_6_RD_10_1.png","C_Dist_100_LN_6_LD_12_RN_15_RD_25_1.png","C_Dist_100_LN_7_LD_14_RN_15_RD_25_1.png","C_Dist_100_LN_7_LD_14_RN_9_RD_15_1.png"]],"dist100_I":[["I_Dist_100_LN_1_LD_2_RN_8_RD_20_0.png","I_Dist_100_LN_2_LD_4_RN_6_RD_15_0.png","I_Dist_100_LN_2_LD_4_RN_8_RD_20_0.png","I_Dist_100_LN_3_LD_5_RN_11_RD_22_0.png","I_Dist_100_LN_3_LD_5_RN_8_RD_16_0.png","I_Dist_100_LN_3_LD_6_RN_4_RD_10_0.png","I_Dist_100_LN_3_LD_9_RN_7_RD_30_0.png","I_Dist_100_LN_4_LD_8_RN_8_RD_20_0.png","I_Dist_100_LN_6_LD_10_RN_11_RD_22_0.png","I_Dist_100_LN_6_LD_10_RN_13_RD_26_0.png","I_Dist_100_LN_6_LD_10_RN_7_RD_14_0.png","I_Dist_100_LN_9_LD_10_RN_20_RD_25_0.png","I_Dist_100_LN_9_LD_15_RN_13_RD_26_0.png","I_Dist_100_LN_9_LD_15_RN_14_RD_28_0.png"],["I_Dist_100_LN_10_LD_25_RN_8_RD_16_1.png","I_Dist_100_LN_10_LD_25_RN_9_RD_18_1.png","I_Dist_100_LN_11_LD_22_RN_9_RD_15_1.png","I_Dist_100_LN_12_LD_24_RN_9_RD_15_1.png","I_Dist_100_LN_12_LD_30_RN_2_RD_4_1.png","I_Dist_100_LN_13_LD_26_RN_12_RD_20_1.png","I_Dist_100_LN_13_LD_26_RN_6_RD_10_1.png","I_Dist_100_LN_17_LD_30_RN_10_RD_15_1.png","I_Dist_100_LN_6_LD_12_RN_3_RD_5_1.png","I_Dist_100_LN_8_LD_16_RN_6_RD_10_1.png","I_Dist_100_LN_8_LD_20_RN_1_RD_2_1.png","I_Dist_100_LN_9_LD_18_RN_6_RD_10_1.png"]],"dist100_S":[["E_Dist_100_LN_2_LD_12_RN_2_RD_30_0.png","E_Dist_100_LN_6_LD_10_RN_6_RD_12_0.png"],["E_Dist_100_LN_6_LD_12_RN_6_RD_10_1.png"]],"dist200_C":[["C_Dist_200_LN_11_LD_22_RN_3_RD_10_0.png","C_Dist_200_LN_12_LD_15_RN_6_RD_10_0.png","C_Dist_200_LN_12_LD_20_RN_6_RD_15_0.png","C_Dist_200_LN_14_LD_28_RN_6_RD_20_0.png","C_Dist_200_LN_15_LD_25_RN_4_RD_10_0.png","C_Dist_200_LN_16_LD_20_RN_12_RD_20_0.png","C_Dist_200_LN_16_LD_30_RN_9_RD_27_0.png","C_Dist_200_LN_20_LD_25_RN_9_RD_15_0.png","C_Dist_200_LN_21_LD_30_RN_2_RD_4_0.png","C_Dist_200_LN_4_LD_10_RN_3_RD_15_0.png","C_Dist_200_LN_4_LD_8_RN_3_RD_10_0.png","C_Dist_200_LN_6_LD_15_RN_3_RD_15_0.png","C_Dist_200_LN_7_LD_21_RN_2_RD_15_0.png","C_Dist_200_LN_8_LD_15_RN_2_RD_6_0.png","C_Dist_200_LN_8_LD_15_RN_3_RD_9_0.png","C_Dist_200_LN_8_LD_15_RN_7_RD_21_0.png","C_Dist_200_LN_9_LD_20_RN_4_RD_16_0.png"],["C_Dist_200_LN_1_LD_2_RN_21_RD_30_1.png","C_Dist_200_LN_13_LD_26_RN_14_RD_20_1.png","C_Dist_200_LN_3_LD_10_RN_11_RD_22_1.png","C_Dist_200_LN_3_LD_10_RN_14_RD_28_1.png","C_Dist_200_LN_3_LD_10_RN_7_RD_14_1.png","C_Dist_200_LN_3_LD_12_RN_9_RD_20_1.png","C_Dist_200_LN_3_LD_6_RN_14_RD_20_1.png","C_Dist_200_LN_5_LD_10_RN_14_RD_20_1.png","C_Dist_200_LN_6_LD_12_RN_7_RD_10_1.png","C_Dist_200_LN_6_LD_20_RN_11_RD_22_1.png","C_Dist_200_LN_7_LD_15_RN_18_RD_27_1.png","C_Dist_200_LN_9_LD_30_RN_13_RD_26_1.png"]],"dist200_I":[["I_Dist_200_LN_1_LD_2_RN_3_RD_10_0.png","I_Dist_200_LN_1_LD_3_RN_2_RD_15_0.png","I_Dist_200_LN_3_LD_4_RN_11_RD_20_0.png","I_Dist_200_LN_4_LD_5_RN_6_RD_10_0.png","I_Dist_200_LN_4_LD_6_RN_14_RD_30_0.png","I_Dist_200_LN_7_LD_10_RN_12_RD_24_0.png","I_Dist_200_LN_7_LD_10_RN_14_RD_28_0.png","I_Dist_200_LN_7_LD_10_RN_8_RD_16_0.png"],["I_Dist_200_LN_11_LD_20_RN_3_RD_4_1.png","I_Dist_200_LN_14_LD_30_RN_12_RD_18_1.png","I_Dist_200_LN_14_LD_30_RN_6_RD_9_1.png","I_Dist_200_LN_3_LD_10_RN_1_RD_2_1.png","I_Dist_200_LN_4_LD_30_RN_1_RD_3_1.png","I_Dist_200_LN_6_LD_20_RN_3_RD_6_1.png","I_Dist_200_LN_7_LD_15_RN_4_RD_6_1.png","I_Dist_200_LN_7_LD_15_RN_6_RD_9_1.png","I_Dist_200_LN_9_LD_15_RN_8_RD_10_1.png"]],"dist200_S":[["E_Dist_200_LN_3_LD_6_RN_3_RD_10_0.png"],["E_Dist_200_LN_3_LD_10_RN_3_RD_6_1.png"]],"dist300_C":[["C_Dist_300_LN_11_LD_22_RN_1_RD_5_0.png","C_Dist_300_LN_11_LD_22_RN_2_RD_10_0.png","C_Dist_300_LN_11_LD_22_RN_4_RD_20_0.png","C_Dist_300_LN_12_LD_24_RN_2_RD_10_0.png","C_Dist_300_LN_18_LD_20_RN_9_RD_15_0.png","C_Dist_300_LN_20_LD_25_RN_13_RD_26_0.png","C_Dist_300_LN_20_LD_25_RN_14_RD_28_0.png","C_Dist_300_LN_20_LD_25_RN_5_RD_10_0.png","C_Dist_300_LN_20_LD_25_RN_8_RD_16_0.png","C_Dist_300_LN_20_LD_25_RN_9_RD_18_0.png","C_Dist_300_LN_24_LD_30_RN_2_RD_4_0.png","C_Dist_300_LN_24_LD_30_RN_8_RD_16_0.png","C_Dist_300_LN_3_LD_6_RN_2_RD_10_0.png","C_Dist_300_LN_4_LD_10_RN_1_RD_10_0.png","C_Dist_300_LN_4_LD_5_RN_2_RD_4_0.png","C_Dist_300_LN_8_LD_16_RN_1_RD_5_0.png","C_Dist_300_LN_9_LD_10_RN_3_RD_5_0.png"],["C_Dist_300_LN_1_LD_20_RN_7_RD_20_1.png","C_Dist_300_LN_1_LD_3_RN_19_RD_30_1.png","C_Dist_300_LN_1_LD_30_RN_8_RD_24_1.png","C_Dist_300_LN_1_LD_5_RN_11_RD_22_1.png","C_Dist_300_LN_1_LD_5_RN_3_RD_6_1.png","C_Dist_300_LN_1_LD_5_RN_6_RD_12_1.png","C_Dist_300_LN_2_LD_10_RN_12_RD_24_1.png","C_Dist_300_LN_2_LD_20_RN_10_RD_25_1.png","C_Dist_300_LN_3_LD_12_RN_11_RD_20_1.png","C_Dist_300_LN_3_LD_6_RN_4_RD_5_1.png","C_Dist_300_LN_4_LD_20_RN_13_RD_26_1.png","C_Dist_300_LN_5_LD_25_RN_6_RD_12_1.png","C_Dist_300_LN_5_LD_25_RN_7_RD_14_1.png","C_Dist_300_LN_7_LD_14_RN_20_RD_25_1.png","C_Dist_300_LN_8_LD_15_RN_10_RD_12_1.png"]],"dist300_I":[["I_Dist_300_LN_1_LD_2_RN_2_RD_10_0.png","I_Dist_300_LN_1_LD_2_RN_3_RD_15_0.png","I_Dist_300_LN_2_LD_4_RN_6_RD_30_0.png","I_Dist_300_LN_3_LD_6_RN_4_RD_20_0.png","I_Dist_300_LN_4_LD_5_RN_6_RD_12_0.png","I_Dist_300_LN_4_LD_5_RN_8_RD_16_0.png","I_Dist_300_LN_7_LD_10_RN_8_RD_20_0.png","I_Dist_300_LN_8_LD_10_RN_14_RD_28_0.png","I_Dist_300_LN_8_LD_10_RN_9_RD_18_0.png"],["I_Dist_300_LN_13_LD_26_RN_12_RD_15_1.png","I_Dist_300_LN_4_LD_20_RN_2_RD_4_1.png"]],"dist300_S":[["E_Dist_300_LN_9_LD_12_RN_9_RD_20_0.png"],["E_Dist_300_LN_18_LD_30_RN_18_RD_20_1.png","E_Dist_300_LN_3_LD_10_RN_3_RD_5_1.png","E_Dist_300_LN_9_LD_20_RN_9_RD_12_1.png"]],"dist500_C":[["C_Dist_500_LN_10_LD_13_RN_7_RD_26_0.png","C_Dist_500_LN_10_LD_15_RN_4_RD_24_0.png","C_Dist_500_LN_12_LD_16_RN_3_RD_12_0.png","C_Dist_500_LN_12_LD_18_RN_4_RD_24_0.png","C_Dist_500_LN_15_LD_18_RN_5_RD_15_0.png","C_Dist_500_LN_15_LD_20_RN_1_RD_4_0.png","C_Dist_500_LN_18_LD_27_RN_1_RD_6_0.png","C_Dist_500_LN_20_LD_24_RN_1_RD_3_0.png","C_Dist_500_LN_20_LD_24_RN_3_RD_9_0.png","C_Dist_500_LN_20_LD_24_RN_7_RD_21_0.png","C_Dist_500_LN_20_LD_28_RN_3_RD_14_0.png","C_Dist_500_LN_21_LD_28_RN_6_RD_24_0.png","C_Dist_500_LN_22_LD_28_RN_2_RD_7_0.png","C_Dist_500_LN_25_LD_30_RN_9_RD_27_0.png","C_Dist_500_LN_4_LD_6_RN_1_RD_6_0.png","C_Dist_500_LN_5_LD_6_RN_2_RD_6_0.png","C_Dist_500_LN_6_LD_9_RN_1_RD_6_0.png","C_Dist_500_LN_7_LD_10_RN_1_RD_5_0.png","C_Dist_500_LN_8_LD_12_RN_1_RD_6_0.png","C_Dist_500_LN_8_LD_12_RN_4_RD_24_0.png"],["C_Dist_500_LN_1_LD_4_RN_12_RD_16_1.png","C_Dist_500_LN_1_LD_4_RN_9_RD_12_1.png","C_Dist_500_LN_1_LD_9_RN_11_RD_18_1.png","C_Dist_500_LN_10_LD_24_RN_22_RD_24_1.png","C_Dist_500_LN_2_LD_12_RN_10_RD_15_1.png","C_Dist_500_LN_2_LD_12_RN_12_RD_18_1.png","C_Dist_500_LN_2_LD_12_RN_4_RD_6_1.png","C_Dist_500_LN_2_LD_24_RN_7_RD_12_1.png","C_Dist_500_LN_2_LD_5_RN_18_RD_20_1.png","C_Dist_500_LN_2_LD_5_RN_9_RD_10_1.png","C_Dist_500_LN_2_LD_8_RN_12_RD_16_1.png","C_Dist_500_LN_2_LD_8_RN_21_RD_28_1.png","C_Dist_500_LN_3_LD_10_RN_4_RD_5_1.png","C_Dist_500_LN_3_LD_12_RN_15_RD_20_1.png","C_Dist_500_LN_3_LD_30_RN_6_RD_10_1.png","C_Dist_500_LN_3_LD_8_RN_14_RD_16_1.png","C_Dist_500_LN_4_LD_16_RN_15_RD_20_1.png","C_Dist_500_LN_4_LD_24_RN_12_RD_18_1.png","C_Dist_500_LN_5_LD_14_RN_6_RD_7_1.png","C_Dist_500_LN_7_LD_21_RN_20_RD_24_1.png","C_Dist_500_LN_7_LD_28_RN_12_RD_16_1.png","C_Dist_500_LN_7_LD_28_RN_9_RD_12_1.png","C_Dist_500_LN_9_LD_27_RN_20_RD_24_1.png"]],"dist500_I":[["I_Dist_500_LN_2_LD_3_RN_4_RD_24_0.png","I_Dist_500_LN_5_LD_6_RN_6_RD_18_0.png","I_Dist_500_LN_7_LD_8_RN_9_RD_24_0.png"],["I_Dist_500_LN_7_LD_21_RN_5_RD_6_1.png"]],"dist500_S":[["E_Dist_500_LN_6_LD_8_RN_6_RD_24_0.png"],["E_Dist_500_LN_2_LD_12_RN_2_RD_3_1.png","E_Dist_500_LN_6_LD_24_RN_6_RD_8_1.png"]]}},{"start_time":1551887039518,"click_time":1551887045866,"finger_time":1551887045346,"fix_duration":250,"trial":1,"RT":5828,"MT":520,"sideResp":2,"stimulus":[],"xmouse":[809,809,809,809,809,809,809,809,809,809,809,809,809,809,809,809,809,809,809,809,809,809,809,809,809,809,809,809,809,809,809,809,809,809,809,809,809,809,809,809,809,809,809,809,809,809,809,809,809,809,809,809,809,809,809,809,809,809,809,809,809,809,809,809,809,809,809,809,809,809,809,809,809,809,809,809,809,809,809,809,809,809,809,809,809,809,809,809,809,809,809,809,809,809,809,809,809,809,809,809,809,809,809,809,809,809,809,809,809,809,809,809,809,809,809,809,809,809,809,809,809,809,809,809,809,809,809,809,809,809,809,809,809,809,809,809,809,809,809,809,809,809,809,809,809,809,809,809,809,809,809,809,809,809,809,809,809,809,809,809,809,809,809,809,809,809,809,809,809,809,809,809,809,809,809,809,809,809,809,809,809,809,809,809,809,811,813,821,824,824,824,824,824,824,824,824,824,824,824,824,824,824,824,824,824,824,824,824,824,824,824,824,824,824,824,824,824,824,824,824,824,824,824,824,824,824,824,824,824,824,824,824,824,824,824,824,824,824,824,824,824,824,824,824,824,824,824,824,824,824,824,824,824,824,824,824,824,824,824,824,824,824,824,824,824,824,824,824,824,824,824,824,824,824,824,825,825,825,828,831,833,835,835,835,835,835,831,809,786,770,761,761,788,810,852,913,976,1113,1180,1241,1283,1290,1291,1291,1293,1293,1293,1288,1283,1278,1272,1269,1245,1235,1220,1198,1173,1108],"ymouse":[496,496,496,496,496,496,496,496,496,496,496,496,496,496,496,496,496,496,496,496,496,496,496,496,496,496,496,496,496,496,496,496,496,496,496,496,496,496,496,496,496,496,496,496,496,496,496,496,496,496,496,496,496,496,496,496,496,496,496,496,496,496,496,496,496,496,496,496,496,496,496,496,496,496,496,496,496,496,496,496,496,496,496,496,496,496,496,496,496,496,496,496,496,496,496,496,496,496,496,496,496,496,496,496,496,496,496,496,496,496,496,496,496,496,496,496,496,496,496,496,496,496,496,496,496,496,496,496,496,496,496,496,496,496,496,496,496,496,496,496,496,496,496,496,496,496,496,496,496,496,496,496,496,496,496,496,496,496,496,496,496,496,496,496,496,496,496,496,496,496,496,496,496,496,496,496,496,496,496,496,496,496,496,496,496,496,495,492,491,490,490,490,490,490,490,490,490,490,490,490,490,490,490,490,490,490,490,490,490,490,490,490,490,490,490,490,490,490,490,490,490,490,490,490,490,490,490,490,490,490,490,490,490,490,490,490,490,490,490,490,490,490,490,490,490,490,490,490,490,490,490,490,490,490,490,490,490,490,490,490,490,490,490,490,490,490,490,490,490,490,490,490,490,490,490,490,490,490,488,485,482,480,480,480,480,480,480,480,480,476,471,462,427,411,391,368,338,266,228,193,162,153,148,146,142,136,127,107,101,96,94,94,89,86,82,75,68,49],"timestamp_mouse":[8,28,62,68,87,107,128,148,169,188,208,228,247,268,289,308,329,349,369,389,409,428,448,469,488,508,529,547,567,589,608,628,649,668,688,709,728,748,768,787,809,829,849,868,887,909,928,948,969,988,1008,1027,1048,1068,1089,1109,1129,1148,1169,1189,1208,1229,1248,1268,1288,1308,1328,1349,1368,1389,1408,1429,1448,1469,1487,1509,1529,1548,1569,1589,1609,1629,1648,1669,1688,1708,1729,1748,1769,1787,1808,1828,1849,1867,1888,1908,1929,1949,1968,1988,2009,2027,2049,2067,2088,2108,2127,2148,2168,2188,2208,2228,2248,2269,2289,2309,2328,2348,2368,2388,2408,2429,2448,2469,2489,2509,2528,2548,2568,2589,2608,2629,2649,2669,2688,2709,2727,2748,2769,2788,2808,2828,2848,2868,2889,2909,2928,2949,2968,2988,3008,3028,3047,3068,3088,3109,3129,3148,3168,3188,3208,3229,3247,3268,3289,3308,3328,3349,3369,3387,3408,3429,3448,3469,3488,3508,3527,3549,3567,3588,3608,3628,3648,3668,3688,3708,3728,3748,3768,3789,3809,3828,3848,3869,3888,3908,3928,3948,3968,3989,4009,4028,4048,4068,4088,4108,4128,4148,4168,4188,4208,4228,4248,4267,4288,4308,4329,4348,4368,4389,4409,4427,4449,4469,4488,4508,4528,4549,4568,4588,4608,4628,4648,4668,4689,4708,4729,4748,4769,4787,4809,4828,4849,4868,4889,4909,4927,4949,4969,4988,5009,5028,5049,5069,5088,5108,5129,5148,5168,5188,5208,5229,5249,5269,5288,5308,5329,5348,5368,5389,5409,5428,5449,5468,5487,5509,5528,5548,5568,5588,5607,5628,5649,5668,5688,5709,5728,5748,5769,5788,5808,5828,5848,5867,5889,5908,5929,5948,5968,5988,6009,6028,6048,6068,6088,6108,6129,6148,6168,6188,6207,6227,6248,6267,6288,6308,6329,6347],"xSR":741.5,"ySR":469.95,"xT1":424.9,"yT1":0,"xT2":1058.1,"yT2":0,"toosoon":0,"cond_shown":"Congruent","ratio_trial":200,"L_num":5,"L_den":10,"R_num":14,"R_den":20,"correct_side":2,"subjID":"saravalentinasilvagutierrez11","gender":"mujer","school":"6g","age":"11"},{"start_time":1551887048011,"click_time":1551887050006,"finger_time":1551887049547,"fix_duration":681.5842732803303,"trial":2,"RT":1536,"MT":459,"sideResp":2,"stimulus":[],"xmouse":[786,786,786,786,786,786,786,786,786,786,786,786,786,786,786,786,786,786,786,786,786,786,786,786,786,786,786,786,786,786,786,786,786,786,786,786,786,786,786,786,786,786,786,786,786,786,786,786,786,786,786,786,786,786,786,786,786,786,786,786,786,786,786,786,786,786,786,786,786,788,790,791,795,801,806,824,843,975,1037,1086,1113,1136,1164,1173,1183,1194,1202,1218,1224,1227,1227,1224,1196,1180,1169,1162,1160,1159,1159,1157],"ymouse":[547,547,547,547,547,547,547,547,547,547,547,547,547,547,547,547,547,547,547,547,547,547,547,547,547,547,547,547,547,547,547,547,547,547,547,547,547,547,547,547,547,547,547,547,547,547,547,547,547,547,547,547,547,547,547,547,547,547,547,547,547,547,547,547,547,547,547,547,546,543,541,540,538,533,530,519,508,400,345,297,259,224,175,159,145,131,120,86,73,67,66,66,73,76,78,78,78,78,78,78],"timestamp_mouse":[16,38,55,76,96,115,135,155,175,195,214,238,255,275,295,315,335,356,375,396,415,435,455,475,496,515,535,555,575,595,616,636,654,676,694,715,735,755,775,795,816,836,854,875,895,916,935,955,974,995,1015,1035,1055,1076,1096,1116,1135,1155,1175,1195,1214,1235,1254,1275,1296,1315,1335,1355,1375,1395,1416,1435,1455,1474,1495,1516,1536,1555,1576,1595,1615,1636,1655,1674,1695,1715,1735,1755,1775,1795,1815,1836,1855,1876,1895,1915,1935,1955,1975,1994],"xSR":741.5,"ySR":469.95,"xT1":424.9,"yT1":0,"xT2":1058.1,"yT2":0,"toosoon":0,"cond_shown":"Incongruent","ratio_trial":300,"L_num":8,"L_den":10,"R_num":9,"R_den":18,"correct_side":1,"subjID":"saravalentinasilvagutierrez11","gender":"mujer","school":"6g","age":"11"},{"start_time":1551887053329,"click_time":1551887055947,"finger_time":1551887055586,"fix_duration":1381.4323357761102,"trial":3,"RT":2257,"MT":361,"sideResp":1,"stimulus":[],"xmouse":[784,784,784,784,784,784,784,784,784,784,784,784,784,784,784,784,784,784,784,784,784,784,784,784,784,784,784,784,784,784,784,784,784,784,784,784,784,784,784,784,784,784,784,784,784,784,784,784,784,784,784,784,784,784,784,784,784,784,784,784,784,784,784,784,784,784,784,784,784,784,784,784,784,784,784,784,784,784,784,784,784,784,784,784,784,784,784,784,784,784,784,784,784,784,784,784,784,784,784,784,784,784,784,784,784,784,784,784,784,784,780,774,716,662,601,551,516,516,518,519,521,524,526,527,529,530,526,518,510,503,494],"ymouse":[505,505,505,505,505,505,505,505,505,505,505,505,505,505,505,505,505,505,505,505,505,505,505,505,505,505,505,505,505,505,505,505,505,505,505,505,505,505,505,505,505,505,505,505,505,505,505,505,505,505,505,505,505,505,505,505,505,505,505,505,505,505,505,505,505,505,505,505,505,505,505,505,505,505,505,505,505,505,505,505,505,505,505,505,505,505,505,505,505,505,505,505,505,505,505,505,505,505,505,505,505,505,505,505,505,505,505,505,505,505,504,499,446,395,332,283,230,221,217,214,211,205,199,192,181,168,142,126,113,100,89],"timestamp_mouse":[17,36,57,78,98,118,138,158,178,197,216,237,258,277,298,317,337,357,377,396,418,437,457,477,498,516,537,556,577,597,617,636,656,678,697,717,737,757,777,797,817,838,856,877,898,918,938,957,977,997,1017,1037,1057,1076,1098,1117,1138,1158,1178,1197,1217,1238,1258,1277,1297,1317,1336,1357,1377,1398,1417,1437,1457,1477,1497,1517,1537,1557,1577,1597,1617,1638,1657,1677,1697,1717,1738,1757,1776,1797,1818,1836,1858,1877,1897,1917,1937,1956,1978,1997,2017,2037,2058,2078,2097,2117,2138,2156,2177,2198,2218,2237,2257,2277,2297,2318,2337,2357,2377,2397,2417,2437,2456,2478,2497,2518,2537,2558,2577,2596,2617],"xSR":741.5,"ySR":469.95,"xT1":424.9,"yT1":0,"xT2":1058.1,"yT2":0,"toosoon":0,"cond_shown":"Congruent","ratio_trial":200,"L_num":5,"L_den":10,"R_num":14,"R_den":20,"correct_side":2,"subjID":"saravalentinasilvagutierrez11","gender":"mujer","school":"6g","age":"11"},{"start_time":1551887058380,"click_time":1551887066247,"finger_time":1551887065766,"fix_duration":871.8699296233858,"trial":4,"RT":7386,"MT":481,"sideResp":1,"stimulus":[],"xmouse":[776,776,776,776,776,776,776,776,776,776,776,776,776,776,776,776,776,776,776,776,776,776,776,776,776,776,776,776,776,776,776,776,776,776,776,776,776,776,776,776,776,776,776,776,776,776,776,776,776,776,776,776,776,776,776,776,776,776,776,776,776,776,776,776,776,776,776,776,776,776,776,776,776,776,776,776,776,776,776,776,776,776,776,776,776,776,776,776,776,776,776,776,776,776,776,776,776,776,776,776,776,776,776,776,776,776,776,776,776,776,776,776,776,776,776,776,776,776,776,776,776,776,776,776,776,776,776,776,776,776,776,776,776,776,776,776,776,776,776,776,776,776,776,776,776,776,776,776,776,776,776,776,776,776,776,776,776,776,776,776,776,776,776,776,776,776,776,776,776,776,776,776,776,776,776,776,776,776,776,776,776,776,776,776,776,776,776,776,776,776,776,776,776,776,776,776,776,776,776,776,776,776,776,776,776,776,776,776,776,776,776,776,776,776,776,776,776,776,776,776,776,776,776,776,776,776,776,776,776,776,776,776,776,776,776,776,776,776,776,776,776,776,776,776,776,776,776,776,776,776,776,776,776,776,776,776,776,776,776,776,776,776,776,776,776,776,776,776,776,776,776,776,776,776,776,776,776,776,776,776,776,776,776,776,776,776,776,776,776,776,776,776,776,776,776,776,776,776,776,776,776,776,776,776,776,776,776,776,776,776,776,776,776,776,776,776,776,776,776,776,776,776,776,776,776,776,776,776,776,776,776,776,776,776,776,776,776,776,776,776,776,776,776,776,776,776,776,776,776,776,776,776,776,776,776,776,776,776,776,776,776,776,776,776,772,770,769,767,766,754,746,734,721,689,619,598,584,578,575,572,572,570,563,557,552,551,548,543,536,529,528,528,528,524],"ymouse":[502,502,502,502,502,502,502,502,502,502,502,502,502,502,502,502,502,502,502,502,502,502,502,502,502,502,502,502,502,502,502,502,502,502,502,502,502,502,502,502,502,502,502,502,502,502,502,502,502,502,502,502,502,502,502,502,502,502,502,502,502,502,502,502,502,502,502,502,502,502,502,502,502,502,502,502,502,502,502,502,502,502,502,502,502,502,502,502,502,502,502,502,502,502,502,502,502,502,502,502,502,502,502,502,502,502,502,502,502,502,502,502,502,502,502,502,502,502,502,502,502,502,502,502,502,502,502,502,502,502,502,502,502,502,502,502,502,502,502,502,502,502,502,502,502,502,502,502,502,502,502,502,502,502,502,502,502,502,502,502,502,502,502,502,502,502,502,502,502,502,502,502,502,502,502,502,502,502,502,502,502,502,502,502,502,502,502,502,502,502,502,502,502,502,502,502,502,502,502,502,502,502,502,502,502,502,502,502,502,502,502,502,502,502,502,502,502,502,502,502,502,502,502,502,502,502,502,502,502,502,502,502,502,502,502,502,502,502,502,502,502,502,502,502,502,502,502,502,502,502,502,502,502,502,502,502,502,502,502,502,502,502,502,502,502,502,502,502,502,502,502,502,502,502,502,502,502,502,502,502,502,502,502,502,502,502,502,502,502,502,502,502,502,502,502,502,502,502,502,502,502,502,502,502,502,502,502,502,502,502,502,502,502,502,502,502,502,502,502,502,502,502,502,502,502,502,502,502,502,502,502,502,502,502,502,502,502,502,502,502,502,502,502,502,502,502,502,502,502,502,502,502,502,502,502,502,502,502,502,502,502,500,497,493,486,483,480,478,476,462,447,428,402,355,252,195,168,148,135,117,115,111,104,97,87,86,86,85,84,83,83,83,83,83],"timestamp_mouse":[8,37,46,66,86,106,126,147,166,186,205,227,247,266,286,306,326,347,366,386,406,426,447,465,486,506,526,546,566,586,607,625,647,666,686,706,726,746,766,786,807,827,846,866,886,906,926,947,966,986,1007,1027,1046,1065,1087,1105,1127,1146,1166,1186,1206,1226,1247,1267,1285,1306,1326,1345,1366,1385,1407,1427,1445,1467,1485,1506,1527,1546,1565,1585,1606,1627,1646,1666,1685,1707,1725,1747,1765,1786,1807,1826,1846,1866,1886,1906,1927,1946,1965,1986,2006,2026,2046,2066,2085,2106,2127,2147,2166,2186,2206,2226,2245,2266,2286,2306,2325,2347,2365,2386,2406,2427,2447,2465,2485,2507,2527,2547,2567,2586,2606,2626,2645,2665,2687,2706,2727,2746,2766,2786,2806,2826,2846,2866,2886,2906,2927,2946,2967,2985,3006,3027,3046,3066,3085,3107,3126,3146,3166,3185,3206,3226,3246,3267,3285,3305,3326,3347,3366,3386,3406,3426,3446,3465,3486,3507,3527,3546,3566,3586,3606,3625,3646,3666,3686,3706,3725,3746,3765,3786,3806,3826,3846,3867,3886,3907,3926,3945,3966,3987,4006,4026,4046,4065,4086,4105,4126,4147,4167,4186,4206,4226,4247,4266,4286,4306,4327,4345,4366,4385,4407,4425,4447,4466,4486,4506,4526,4546,4566,4585,4607,4625,4646,4665,4685,4706,4725,4747,4767,4785,4807,4825,4847,4866,4887,4906,4926,4945,4967,4986,5006,5026,5045,5067,5086,5106,5126,5146,5167,5187,5207,5226,5247,5266,5287,5306,5327,5346,5367,5386,5405,5426,5445,5466,5486,5506,5525,5546,5567,5587,5605,5626,5647,5665,5687,5706,5726,5745,5767,5786,5806,5827,5847,5865,5887,5905,5926,5946,5965,5986,6006,6027,6045,6066,6085,6107,6125,6147,6166,6187,6207,6226,6246,6266,6287,6307,6327,6346,6366,6385,6407,6425,6446,6466,6487,6506,6526,6545,6567,6586,6606,6627,6647,6666,6686,6706,6727,6747,6765,6787,6806,6827,6846,6867,6886,6906,6926,6946,6966,6986,7006,7026,7046,7066,7085,7107,7126,7146,7165,7186,7206,7226,7247,7266,7286,7306,7326,7347,7366,7386,7405,7426,7446,7466,7486,7506,7526,7547,7566,7587,7605,7627,7646,7667,7687,7705,7726,7746,7766,7786,7806,7826,7846,7867],"xSR":741.5,"ySR":469.95,"xT1":424.9,"yT1":0,"xT2":1058.1,"yT2":0,"toosoon":0,"cond_shown":"Congruent","ratio_trial":200,"L_num":12,"L_den":20,"R_num":6,"R_den":15,"correct_side":1,"subjID":"saravalentinasilvagutierrez11","gender":"mujer","school":"6g","age":"11"},{"start_time":1551887067678,"click_time":1551887070506,"finger_time":1551887070186,"fix_duration":250,"trial":5,"RT":2508,"MT":320,"sideResp":2,"stimulus":[],"xmouse":[792,792,792,792,792,793,794,794,794,794,794,794,794,794,794,794,794,794,794,794,794,794,794,794,794,794,794,794,794,794,794,794,794,794,794,794,794,794,794,794,794,794,794,794,794,794,794,794,794,794,794,794,794,794,794,794,794,794,794,794,794,794,794,794,794,794,794,794,794,794,794,794,794,794,794,794,794,794,794,794,794,794,794,794,794,794,794,794,794,794,794,794,794,794,794,794,794,794,794,794,794,794,794,794,794,794,794,794,794,794,794,794,794,794,794,794,794,794,795,798,801,805,806,812,837,854,873,891,914,954,967,975,984,986,1002,1012,1024,1045,1059,1072,1079,1084],"ymouse":[503,503,503,503,503,504,504,504,504,504,504,504,504,504,504,504,504,504,504,504,504,504,504,504,504,504,504,504,504,504,504,504,504,504,504,504,504,504,504,504,504,504,504,504,504,504,504,504,504,504,504,504,504,504,504,504,504,504,504,504,504,504,504,504,504,504,504,504,504,504,504,504,504,504,504,504,504,504,504,504,504,504,504,504,504,504,504,504,504,504,504,504,504,504,504,504,504,504,504,504,504,504,504,504,504,504,504,504,504,504,504,504,504,504,504,504,504,504,503,501,499,496,494,491,475,465,452,438,422,391,376,364,349,344,317,299,276,240,201,129,109,95],"timestamp_mouse":[11,35,48,68,88,108,128,147,168,188,208,229,248,267,289,309,329,349,368,389,409,428,449,467,488,508,527,549,568,588,609,628,648,668,688,708,729,749,768,788,808,828,848,867,888,908,928,948,968,988,1008,1028,1048,1068,1088,1107,1128,1148,1168,1188,1208,1227,1247,1268,1288,1308,1329,1348,1367,1388,1407,1429,1448,1469,1489,1508,1529,1548,1569,1588,1608,1628,1648,1669,1689,1708,1728,1748,1767,1788,1809,1828,1848,1868,1887,1909,1928,1948,1969,1989,2008,2029,2048,2069,2089,2109,2128,2147,2169,2189,2208,2229,2247,2269,2288,2308,2328,2348,2369,2388,2409,2429,2448,2467,2488,2508,2528,2547,2568,2589,2607,2628,2648,2669,2687,2707,2728,2748,2768,2788,2809,2828],"xSR":741.5,"ySR":469.95,"xT1":424.9,"yT1":0,"xT2":1058.1,"yT2":0,"toosoon":0,"cond_shown":"Congruent","ratio_trial":100,"L_num":6,"L_den":20,"R_num":5,"R_den":25,"correct_side":1,"subjID":"saravalentinasilvagutierrez11","gender":"mujer","school":"6g","age":"11"},{"start_time":1551887072971,"click_time":1551887084907,"finger_time":1551887083325,"fix_duration":1364.8144101211597,"trial":6,"RT":10354,"MT":1582,"sideResp":2,"stimulus":[],"xmouse":[809,809,809,809,809,809,809,809,809,809,809,809,809,809,809,809,809,809,809,809,809,809,809,809,809,809,809,809,809,809,809,809,809,809,809,809,809,809,809,809,809,809,809,809,809,809,809,809,809,809,809,809,809,809,809,809,809,809,809,809,809,809,809,809,809,809,809,809,809,809,809,809,809,809,809,809,809,809,809,809,809,809,809,809,809,809,809,809,809,809,809,809,809,809,809,809,809,809,809,809,809,809,809,809,809,809,809,809,809,809,809,809,809,809,809,809,809,809,809,809,809,809,809,809,809,809,809,809,809,809,809,809,809,809,809,809,809,809,809,809,809,809,809,809,809,809,809,809,809,809,809,809,809,809,809,809,809,809,809,809,809,809,809,809,809,809,809,809,809,809,809,809,809,809,809,809,809,809,809,809,809,809,809,809,809,809,809,809,809,809,809,809,809,809,809,809,809,809,809,809,809,809,809,809,809,809,809,809,809,809,809,809,809,809,809,809,809,809,809,809,809,809,809,809,809,809,809,809,809,809,809,809,809,809,809,809,809,809,809,809,809,809,809,809,809,809,809,809,809,809,809,809,809,809,809,809,809,809,809,809,809,809,809,809,809,809,809,809,809,809,809,809,809,809,809,809,809,809,809,809,809,809,809,809,809,809,809,809,809,809,809,809,809,809,809,809,809,809,809,809,809,809,809,809,809,809,809,809,809,809,809,809,809,809,809,809,809,809,809,809,809,809,809,809,809,809,809,809,809,809,809,809,809,809,809,809,809,809,809,809,809,809,809,809,809,809,809,809,809,809,809,809,809,809,809,809,809,809,809,809,809,809,809,809,809,809,809,809,809,809,809,809,809,809,809,809,809,809,809,809,809,809,809,809,809,809,809,809,809,809,809,809,809,809,809,809,809,809,809,809,809,809,809,809,809,809,809,809,809,809,809,809,809,809,809,809,809,809,809,809,809,809,809,809,809,809,809,809,809,809,809,809,809,809,809,809,809,809,809,809,809,809,809,809,809,809,809,809,809,809,809,809,809,809,809,809,809,809,809,809,809,809,809,809,809,809,809,809,809,809,809,809,809,809,809,809,809,809,809,809,809,809,809,809,809,809,809,809,809,809,809,809,809,809,809,809,809,809,809,809,809,809,809,809,809,809,809,809,809,809,809,809,809,809,809,809,799,743,658,607,607,607,607,607,607,607,607,607,607,607,607,607,607,607,607,607,607,607,607,607,607,607,607,607,607,607,607,607,607,607,607,607,607,607,607,607,607,607,607,607,607,607,607,607,607,607,607,607,607,607,607,607,607,607,607,607,607,607,607,607,607,951,986,1007,1027,1028,1028,1028,1030,1036,1049,1051,1051,1052,1055,1058,1060],"ymouse":[533,533,533,533,533,533,533,533,533,533,533,533,533,533,533,533,533,533,533,533,533,533,533,533,533,533,533,533,533,533,533,533,533,533,533,533,533,533,533,533,533,533,533,533,533,533,533,533,533,533,533,533,533,533,533,533,533,533,533,533,533,533,533,533,533,533,533,533,533,533,533,533,533,533,533,533,533,533,533,533,533,533,533,533,533,533,533,533,533,533,533,533,533,533,533,533,533,533,533,533,533,533,533,533,533,533,533,533,533,533,533,533,533,533,533,533,533,533,533,533,533,533,533,533,533,533,533,533,533,533,533,533,533,533,533,533,533,533,533,533,533,533,533,533,533,533,533,533,533,533,533,533,533,533,533,533,533,533,533,533,533,533,533,533,533,533,533,533,533,533,533,533,533,533,533,533,533,533,533,533,533,533,533,533,533,533,533,533,533,533,533,533,533,533,533,533,533,533,533,533,533,533,533,533,533,533,533,533,533,533,533,533,533,533,533,533,533,533,533,533,533,533,533,533,533,533,533,533,533,533,533,533,533,533,533,533,533,533,533,533,533,533,533,533,533,533,533,533,533,533,533,533,533,533,533,533,533,533,533,533,533,533,533,533,533,533,533,533,533,533,533,533,533,533,533,533,533,533,533,533,533,533,533,533,533,533,533,533,533,533,533,533,533,533,533,533,533,533,533,533,533,533,533,533,533,533,533,533,533,533,533,533,533,533,533,533,533,533,533,533,533,533,533,533,533,533,533,533,533,533,533,533,533,533,533,533,533,533,533,533,533,533,533,533,533,533,533,533,533,533,533,533,533,533,533,533,533,533,533,533,533,533,533,533,533,533,533,533,533,533,533,533,533,533,533,533,533,533,533,533,533,533,533,533,533,533,533,533,533,533,533,533,533,533,533,533,533,533,533,533,533,533,533,533,533,533,533,533,533,533,533,533,533,533,533,533,533,533,533,533,533,533,533,533,533,533,533,533,533,533,533,533,533,533,533,533,533,533,533,533,533,533,533,533,533,533,533,533,533,533,533,533,533,533,533,533,533,533,533,533,533,533,533,533,533,533,533,533,533,533,533,533,533,533,533,533,533,533,533,533,533,533,533,533,533,533,533,533,533,533,533,533,533,533,533,533,533,533,533,533,533,533,533,533,533,533,533,533,533,533,533,533,533,533,533,528,492,353,113,1,1,1,1,1,1,1,1,1,1,1,1,1,1,1,1,1,1,1,1,1,1,1,1,1,1,1,1,1,1,1,1,1,1,1,1,1,1,1,1,1,1,1,1,1,1,1,1,1,1,1,1,1,1,1,1,1,1,1,1,1,1,2,23,35,49,49,49,49,49,49,44,43,43,43,41,41,40],"timestamp_mouse":[15,35,54,75,95,115,136,154,176,195,216,236,255,274,296,315,336,355,375,395,414,435,456,476,494,516,534,554,576,596,616,635,655,676,696,715,735,754,776,796,815,835,855,876,896,915,935,955,976,995,1015,1035,1054,1076,1096,1114,1135,1155,1175,1196,1214,1236,1255,1274,1296,1314,1335,1356,1375,1395,1415,1435,1455,1475,1494,1515,1535,1555,1576,1596,1615,1635,1654,1676,1695,1715,1735,1755,1776,1796,1815,1835,1855,1874,1896,1915,1936,1956,1976,1996,2018,2036,2054,2075,2095,2115,2135,2156,2176,2194,2216,2235,2255,2275,2296,2316,2335,2354,2376,2396,2415,2435,2454,2475,2495,2516,2536,2555,2575,2596,2615,2636,2656,2676,2696,2715,2736,2755,2775,2795,2815,2835,2855,2875,2895,2916,2936,2956,2976,2996,3015,3035,3054,3076,3096,3115,3134,3155,3176,3196,3214,3236,3256,3276,3295,3315,3335,3355,3376,3394,3415,3435,3454,3475,3495,3514,3536,3555,3574,3596,3616,3636,3655,3676,3695,3714,3735,3755,3775,3796,3814,3835,3856,3874,3895,3914,3935,3955,3976,3996,4014,4035,4054,4076,4094,4115,4136,4155,4174,4195,4216,4234,4254,4276,4296,4315,4335,4356,4375,4396,4416,4435,4456,4475,4495,4516,4535,4556,4576,4594,4615,4635,4654,4676,4696,4715,4735,4755,4775,4794,4815,4835,4855,4875,4895,4914,4936,4956,4975,4995,5015,5036,5056,5075,5095,5116,5135,5155,5175,5196,5215,5236,5256,5275,5296,5315,5335,5355,5374,5396,5415,5435,5456,5474,5495,5516,5535,5555,5575,5595,5616,5635,5655,5676,5695,5716,5736,5755,5775,5795,5816,5835,5855,5876,5894,5916,5935,5956,5974,5996,6015,6035,6055,6075,6096,6114,6136,6155,6175,6195,6215,6235,6254,6275,6294,6315,6335,6355,6375,6396,6415,6434,6456,6475,6494,6515,6535,6555,6575,6595,6615,6636,6654,6676,6695,6714,6735,6755,6775,6795,6814,6835,6856,6875,6895,6916,6935,6956,6976,6996,7016,7035,7055,7076,7096,7115,7136,7156,7176,7196,7214,7235,7254,7276,7295,7314,7335,7354,7375,7396,7415,7435,7454,7475,7496,7515,7536,7555,7575,7595,7615,7634,7655,7675,7696,7716,7735,7754,7775,7795,7815,7834,7856,7875,7894,7916,7934,7955,7976,7995,8016,8035,8054,8076,8095,8116,8136,8154,8176,8194,8214,8236,8255,8275,8295,8315,8335,8355,8375,8394,8415,8434,8455,8475,8496,8515,8535,8555,8575,8595,8615,8635,8655,8674,8696,8715,8735,8755,8775,8796,8814,8835,8854,8875,8895,8916,8935,8955,8976,8995,9016,9034,9055,9075,9094,9115,9136,9155,9174,9195,9214,9235,9255,9274,9296,9316,9335,9356,9375,9396,9415,9435,9455,9474,9496,9514,9535,9555,9575,9595,9615,9635,9654,9675,9696,9715,9735,9754,9776,9796,9815,9835,9855,9875,9896,9916,9935,9954,9976,9995,10014,10035,10055,10075,10096,10115,10136,10155,10174,10196,10215,10236,10254,10275,10296,10314,10335,10354,10375,10394,10415,10436,10456,10476,10496,10514,10535,10556,10575,10596,10614,10634,10655,10676,10696,10715,10735,10755,10775,10795,10816,10836,10856,10875,10895,10914,10935,10956,10975,10995,11014,11035,11056,11075,11096,11115,11135,11155,11175,11196,11216,11235,11255,11275,11296,11315,11335,11355,11375,11396,11416,11436,11454,11475,11496,11514,11535,11555,11575,11595,11615,11635,11656,11675,11695,11714,11736,11755,11776,11795,11816,11835,11854,11875,11895,11914,11935],"xSR":741.5,"ySR":469.95,"xT1":424.9,"yT1":0,"xT2":1058.1,"yT2":0,"toosoon":0,"cond_shown":"Congruent","ratio_trial":100,"L_num":10,"L_den":25,"R_num":3,"R_den":10,"correct_side":1,"subjID":"saravalentinasilvagutierrez11","gender":"mujer","school":"6g","age":"11"},{"start_time":1551887086453,"click_time":1551887088366,"finger_time":1551887088007,"fix_duration":326.2220186197882,"trial":7,"RT":1554,"MT":359,"sideResp":1,"stimulus":[],"xmouse":[790,790,790,790,791,791,791,791,791,791,791,791,791,791,791,791,791,791,791,791,791,791,791,791,791,791,791,791,791,791,791,791,791,791,791,791,791,791,791,791,791,791,791,791,791,791,791,791,791,791,791,791,791,791,791,791,791,791,791,791,791,791,791,791,791,791,791,791,791,791,791,791,791,791,791,776,750,684,602,543,500,492,486,480,473,472,472,476,481,485,497,501,502,502,499,491],"ymouse":[484,484,484,484,485,488,488,489,489,490,492,494,500,505,507,507,507,507,507,507,507,507,507,507,507,507,507,507,507,507,507,507,507,507,507,507,507,507,507,507,507,507,507,507,507,507,507,507,507,507,507,507,507,507,507,507,507,507,507,507,507,507,507,507,507,507,507,507,507,507,507,507,507,507,507,496,472,423,367,328,285,267,248,229,207,192,187,180,173,166,152,144,136,124,109,98],"timestamp_mouse":[14,33,53,73,93,112,133,154,174,193,213,233,253,272,294,314,333,353,374,393,414,433,454,474,494,513,533,553,573,594,613,633,653,673,693,713,733,753,773,793,813,834,854,873,893,913,933,953,972,993,1013,1033,1053,1073,1094,1113,1133,1153,1173,1192,1213,1233,1253,1274,1294,1313,1332,1354,1372,1394,1412,1433,1452,1473,1494,1513,1533,1554,1573,1594,1614,1633,1652,1673,1694,1713,1734,1753,1773,1793,1813,1834,1852,1873,1893,1913],"xSR":741.5,"ySR":469.95,"xT1":424.9,"yT1":0,"xT2":1058.1,"yT2":0,"toosoon":0,"cond_shown":"Congruent","ratio_trial":300,"L_num":8,"L_den":16,"R_num":1,"R_den":5,"correct_side":1,"subjID":"saravalentinasilvagutierrez11","gender":"mujer","school":"6g","age":"11"},{"start_time":1551887090381,"click_time":1551887092566,"finger_time":1551887092047,"fix_duration":1093.2085629230542,"trial":8,"RT":1666,"MT":519,"sideResp":2,"stimulus":[],"xmouse":[784,784,784,784,784,784,784,784,784,784,784,784,784,784,784,784,784,784,784,784,784,784,784,784,784,784,784,784,784,784,784,784,784,784,784,784,784,784,784,784,784,784,784,784,784,784,784,784,784,784,784,784,784,784,784,784,784,784,784,784,784,784,784,784,784,784,784,784,784,784,784,784,784,784,784,784,784,784,784,784,786,791,799,809,840,854,872,891,924,957,966,969,970,972,990,1012,1030,1051,1068,1069,1069,1069,1070,1071,1071,1071,1071,1071,1071,1071],"ymouse":[498,498,498,498,498,498,498,498,498,498,498,498,498,498,498,498,498,498,498,498,498,498,498,498,498,498,498,498,498,498,498,498,498,498,498,498,498,498,498,498,498,498,498,498,498,498,498,498,498,498,498,498,498,498,498,498,498,498,498,498,498,498,498,498,498,498,498,498,498,498,498,498,498,498,498,498,498,498,498,498,493,487,478,466,422,396,364,336,298,258,245,234,228,220,179,151,133,120,109,108,108,108,107,106,104,103,103,103,103,97],"timestamp_mouse":[10,34,46,65,85,105,126,146,165,185,206,225,245,264,285,305,325,345,366,385,405,425,445,465,486,506,525,546,566,585,605,625,645,666,686,705,726,747,765,786,807,825,846,866,886,905,925,947,967,985,1005,1026,1046,1066,1085,1106,1126,1145,1165,1187,1206,1226,1247,1266,1287,1305,1326,1347,1365,1385,1407,1425,1447,1465,1487,1506,1527,1546,1566,1586,1606,1626,1646,1666,1686,1705,1726,1745,1766,1786,1805,1825,1846,1865,1886,1907,1926,1946,1965,1986,2007,2026,2046,2066,2085,2105,2127,2146,2165,2185],"xSR":741.5,"ySR":469.95,"xT1":424.9,"yT1":0,"xT2":1058.1,"yT2":0,"toosoon":0,"cond_shown":"Congruent","ratio_trial":100,"L_num":7,"L_den":14,"R_num":9,"R_den":15,"correct_side":2,"subjID":"saravalentinasilvagutierrez11","gender":"mujer","school":"6g","age":"11"},{"start_time":1551887093639,"click_time":1551887095448,"finger_time":1551887095086,"fix_duration":250,"trial":9,"RT":1447,"MT":362,"sideResp":1,"stimulus":[],"xmouse":[764,764,764,764,764,764,764,764,764,764,764,764,764,764,764,764,764,764,764,764,764,764,764,764,764,764,764,764,764,764,764,764,764,764,764,764,764,764,764,764,764,764,764,764,764,764,764,764,764,764,764,764,764,764,764,764,764,764,764,764,764,764,764,764,764,764,764,764,762,760,757,751,739,710,637,586,528,510,493,482,479,478,477,477,477,479,488,490,491,492,492],"ymouse":[517,517,517,517,517,517,517,517,517,517,517,517,517,517,517,517,517,517,517,517,517,517,517,517,517,517,517,517,517,517,517,517,517,517,517,517,517,517,517,517,517,517,517,517,517,517,517,517,517,517,517,517,517,517,517,517,517,517,517,517,517,517,517,517,517,517,517,517,512,507,502,479,454,406,309,255,186,160,139,128,125,124,121,119,118,113,110,108,105,102,96],"timestamp_mouse":[10,41,48,68,87,107,128,147,168,188,208,229,247,268,288,309,328,349,367,387,409,428,449,469,488,508,529,547,569,587,609,627,648,668,687,709,727,748,768,789,807,827,847,869,888,907,928,947,969,988,1008,1028,1048,1069,1088,1107,1128,1148,1168,1188,1207,1229,1248,1267,1287,1308,1327,1348,1368,1389,1409,1428,1447,1468,1488,1508,1527,1548,1567,1588,1608,1628,1647,1667,1688,1709,1728,1747,1767,1788,1808],"xSR":741.5,"ySR":469.95,"xT1":424.9,"yT1":0,"xT2":1058.1,"yT2":0,"toosoon":0,"cond_shown":"Incongruent","ratio_trial":200,"L_num":4,"L_den":5,"R_num":6,"R_den":10,"correct_side":1,"subjID":"saravalentinasilvagutierrez11","gender":"mujer","school":"6g","age":"11"},{"start_time":1551887097268,"click_time":1551887099067,"finger_time":1551887098787,"fix_duration":1038.4029455061832,"trial":10,"RT":1519,"MT":280,"sideResp":1,"stimulus":[],"xmouse":[792,792,792,792,792,792,792,792,792,792,792,792,792,792,792,792,792,792,792,792,792,792,792,792,792,792,792,792,792,792,792,793,793,793,793,793,793,793,793,793,793,793,793,794,794,794,794,794,794,794,794,794,794,794,794,794,794,794,794,794,794,794,794,794,794,794,794,794,794,794,794,794,794,794,793,786,736,702,680,665,622,593,565,553,547,546,546,545,541,531,498],"ymouse":[494,494,494,494,494,494,494,494,494,494,494,494,494,494,494,494,494,494,494,494,494,494,494,494,494,494,494,494,494,494,494,494,494,494,494,494,494,494,494,494,494,494,494,493,493,493,493,493,493,493,493,493,493,493,493,493,493,493,493,493,493,493,493,493,493,493,493,493,493,493,493,493,493,489,483,472,412,379,353,334,265,223,187,164,149,138,134,131,124,112,82],"timestamp_mouse":[1,33,38,58,79,98,119,138,158,180,199,218,239,259,279,298,318,338,359,379,399,419,439,459,480,498,520,540,558,578,599,618,639,660,678,700,718,740,759,780,800,820,838,859,879,900,918,939,958,980,1011,1019,1040,1059,1078,1098,1118,1139,1159,1179,1199,1219,1239,1259,1279,1299,1318,1338,1359,1379,1399,1419,1439,1459,1479,1498,1519,1540,1559,1578,1599,1618,1639,1659,1678,1699,1718,1739,1758,1778,1799],"xSR":741.5,"ySR":469.95,"xT1":424.9,"yT1":0,"xT2":1058.1,"yT2":0,"toosoon":0,"cond_shown":"Incongruent","ratio_trial":200,"L_num":4,"L_den":6,"R_num":14,"R_den":30,"correct_side":1,"subjID":"saravalentinasilvagutierrez11","gender":"mujer","school":"6g","age":"11"},{"start_time":1551887101057,"click_time":1551887103267,"finger_time":1551887103147,"fix_duration":1129.9181556651138,"trial":11,"RT":2090,"MT":120,"sideResp":2,"stimulus":[],"xmouse":[809,809,809,809,809,809,809,809,809,809,809,809,809,809,809,809,809,809,809,809,809,809,809,809,809,809,809,809,809,809,809,809,809,809,809,809,809,809,809,809,809,809,809,809,809,809,809,809,809,809,809,809,809,809,809,809,809,809,809,809,809,809,809,809,809,809,809,809,809,809,809,809,809,809,809,809,809,809,809,809,809,809,809,809,809,809,809,809,809,809,809,809,809,809,809,809,809,809,809,809,809,811,816,827,841,919,969,1016,1046,1065,1087],"ymouse":[500,500,500,500,500,500,500,500,500,500,500,500,500,500,500,500,500,500,500,500,500,500,500,500,500,500,500,500,500,500,500,500,500,500,500,500,500,500,500,500,500,500,500,500,500,500,500,500,500,500,500,500,500,500,500,500,500,500,500,500,500,500,500,500,500,500,500,500,500,500,500,500,500,500,500,500,500,500,500,500,500,500,500,500,500,500,500,500,500,500,500,500,500,500,500,500,500,500,500,500,500,493,486,472,460,399,340,262,188,120,29],"timestamp_mouse":[10,40,50,70,91,110,130,151,171,189,211,230,251,269,289,311,329,350,370,391,410,430,450,470,491,511,529,551,571,591,610,630,651,669,690,711,730,749,770,791,811,829,850,871,891,911,930,951,970,990,1010,1030,1051,1071,1090,1110,1130,1149,1169,1189,1210,1231,1250,1270,1290,1311,1329,1351,1370,1390,1409,1431,1450,1470,1489,1510,1529,1551,1570,1589,1611,1629,1650,1669,1689,1710,1729,1750,1770,1789,1811,1830,1849,1871,1889,1909,1930,1949,1970,1990,2009,2030,2051,2070,2090,2109,2129,2149,2170,2189,2209],"xSR":741.5,"ySR":469.95,"xT1":424.9,"yT1":0,"xT2":1058.1,"yT2":0,"toosoon":0,"cond_shown":"Incongruent","ratio_trial":100,"L_num":13,"L_den":26,"R_num":12,"R_den":20,"correct_side":2,"subjID":"saravalentinasilvagutierrez11","gender":"mujer","school":"6g","age":"11"},{"start_time":1551887106382,"click_time":1551887108166,"finger_time":1551887107826,"fix_duration":1294.422210904849,"trial":12,"RT":1444,"MT":340,"sideResp":2,"stimulus":[],"xmouse":[826,826,826,826,826,826,826,826,826,826,826,826,826,826,826,826,826,826,826,826,826,826,826,826,826,826,826,826,826,826,826,826,826,826,826,826,826,826,826,826,826,826,826,826,826,826,826,826,826,826,826,826,826,826,826,826,826,826,826,826,826,826,826,826,826,826,826,826,826,826,828,836,847,859,896,920,950,975,995,996,993,991,990,990,995,999,1003,1007,1016,1059],"ymouse":[498,498,498,498,498,498,498,498,498,498,498,498,498,498,498,498,498,498,498,498,498,498,498,498,498,498,498,498,498,498,498,498,498,498,498,498,498,498,498,498,498,498,498,498,498,498,498,498,498,498,498,498,498,498,498,498,498,498,498,498,498,498,498,498,498,498,498,498,497,494,490,481,469,455,391,327,260,193,127,90,77,69,62,51,32,26,24,24,24,39],"timestamp_mouse":[8,40,44,64,85,104,124,144,164,186,204,225,244,264,284,306,325,344,365,385,405,425,444,465,485,504,525,545,565,585,604,624,646,664,685,705,725,745,765,785,804,826,844,864,886,905,924,944,965,985,1004,1024,1044,1064,1085,1106,1125,1145,1165,1186,1205,1224,1244,1264,1285,1304,1324,1346,1365,1384,1404,1425,1444,1464,1485,1506,1525,1545,1564,1584,1605,1624,1645,1665,1685,1704,1725,1746,1764,1784],"xSR":741.5,"ySR":469.95,"xT1":424.9,"yT1":0,"xT2":1058.1,"yT2":0,"toosoon":0,"cond_shown":"Incongruent","ratio_trial":100,"L_num":6,"L_den":12,"R_num":3,"R_den":5,"correct_side":2,"subjID":"saravalentinasilvagutierrez11","gender":"mujer","school":"6g","age":"11"},{"start_time":1551887111270,"click_time":1551887114467,"finger_time":1551887114067,"fix_duration":580.8532527835855,"trial":13,"RT":2797,"MT":400,"sideResp":1,"stimulus":[],"xmouse":[776,776,776,776,776,776,776,776,776,776,776,776,776,776,776,776,776,776,776,776,776,776,776,776,776,776,776,776,776,776,776,776,776,776,776,776,776,776,776,776,776,776,776,776,776,776,776,776,776,776,776,776,776,776,776,776,776,776,776,776,776,776,776,776,776,776,776,776,776,776,776,776,776,776,776,776,776,776,776,776,776,776,776,776,776,776,776,776,776,776,776,776,776,776,776,776,776,776,776,776,776,776,776,776,776,776,776,776,776,776,776,776,776,776,776,776,776,776,776,776,776,776,776,776,776,776,776,776,776,776,776,776,776,776,776,776,776,776,774,740,698,666,648,636,622,616,611,607,595,578,575,575,572,549,524,523,518,516,516,511],"ymouse":[549,549,549,549,549,549,549,549,549,549,549,549,549,549,549,549,549,549,549,549,549,549,549,549,549,549,549,549,549,549,549,549,549,549,549,549,549,549,549,549,549,549,549,549,549,549,549,549,549,549,549,549,549,549,549,549,549,549,549,549,549,549,549,549,549,549,549,549,549,549,549,549,549,549,549,549,549,549,549,549,549,549,549,549,549,549,549,549,549,549,549,549,549,549,549,549,549,549,549,549,549,549,549,549,549,549,549,549,549,549,549,549,549,549,549,549,549,549,549,549,549,549,549,549,549,549,549,549,549,549,549,549,549,549,549,549,549,549,546,525,494,475,458,408,322,291,266,247,227,206,194,180,152,114,100,100,100,100,100,94],"timestamp_mouse":[21,43,56,76,97,117,136,157,178,196,216,237,257,278,297,317,337,356,376,397,416,438,456,477,497,517,538,557,578,597,617,636,656,677,697,716,736,756,777,798,816,837,857,876,897,918,936,957,976,998,1018,1036,1057,1076,1096,1117,1137,1156,1178,1197,1216,1237,1256,1278,1298,1317,1337,1357,1377,1397,1417,1436,1457,1476,1497,1517,1537,1556,1578,1597,1618,1637,1656,1678,1697,1716,1737,1758,1776,1797,1818,1836,1856,1878,1896,1918,1937,1956,1977,1998,2018,2036,2057,2077,2097,2117,2137,2157,2176,2197,2217,2236,2257,2276,2298,2318,2336,2358,2378,2396,2418,2437,2458,2478,2496,2516,2537,2556,2576,2597,2616,2637,2657,2677,2697,2716,2737,2757,2776,2797,2817,2836,2856,2877,2897,2916,2937,2957,2977,2997,3017,3036,3056,3076,3097,3118,3137,3156,3177,3197],"xSR":741.5,"ySR":469.95,"xT1":424.9,"yT1":0,"xT2":1058.1,"yT2":0,"toosoon":0,"cond_shown":"Congruent","ratio_trial":200,"L_num":5,"L_den":10,"R_num":14,"R_den":20,"correct_side":2,"subjID":"saravalentinasilvagutierrez11","gender":"mujer","school":"6g","age":"11"},{"start_time":1551887116540,"click_time":1551887118587,"finger_time":1551887118226,"fix_duration":1130.3255764101648,"trial":14,"RT":1686,"MT":361,"sideResp":2,"stimulus":[],"xmouse":[806,806,806,806,806,806,806,806,806,806,806,806,806,806,806,806,806,806,806,806,806,806,806,806,806,806,806,806,806,806,806,806,806,806,806,806,806,806,806,806,806,806,806,806,806,806,806,806,806,806,806,806,806,806,806,806,806,806,806,806,806,806,806,806,806,806,806,806,806,806,806,806,806,806,806,806,806,806,806,806,806,810,820,831,842,854,886,903,915,923,928,937,943,947,954,961,975,981,987,1004,1031,1057,1062],"ymouse":[508,508,508,508,508,508,508,508,508,508,508,508,508,508,508,508,508,508,508,508,508,508,508,508,508,508,508,508,508,508,508,508,508,508,508,508,508,508,508,508,508,508,508,508,508,508,508,508,508,508,508,508,508,508,508,508,508,508,508,508,508,508,508,508,508,508,508,508,508,508,508,508,508,508,508,508,508,508,508,508,508,501,489,475,461,441,384,355,331,313,298,269,258,252,240,228,197,172,139,101,72,53,49],"timestamp_mouse":[9,43,48,67,87,107,127,147,167,186,206,227,247,268,287,308,327,347,366,386,407,426,448,466,486,508,526,546,568,588,607,627,646,666,688,708,726,747,767,787,808,827,847,867,886,907,926,947,967,988,1007,1026,1047,1066,1086,1108,1128,1147,1166,1188,1207,1226,1247,1266,1288,1306,1327,1347,1366,1386,1407,1427,1447,1466,1487,1506,1527,1546,1568,1587,1606,1626,1646,1667,1686,1707,1726,1746,1767,1787,1806,1826,1846,1866,1886,1906,1928,1947,1967,1986,2007,2027,2047],"xSR":741.5,"ySR":469.95,"xT1":424.9,"yT1":0,"xT2":1058.1,"yT2":0,"toosoon":0,"cond_shown":"Incongruent","ratio_trial":100,"L_num":2,"L_den":4,"R_num":8,"R_den":20,"correct_side":1,"subjID":"saravalentinasilvagutierrez11","gender":"mujer","school":"6g","age":"11"},{"start_time":1551887120209,"click_time":1551887123766,"finger_time":1551887122188,"fix_duration":841.8179464425999,"trial":15,"RT":1979,"MT":1578,"sideResp":1,"stimulus":[],"xmouse":[800,800,800,800,800,800,800,800,800,800,800,800,800,800,800,800,800,800,800,800,800,800,800,800,800,800,800,800,800,800,800,800,800,800,800,800,800,800,800,800,800,800,800,800,800,800,800,800,800,800,800,800,800,800,800,800,800,800,800,800,800,800,800,800,800,800,800,800,800,800,800,800,800,800,800,800,800,800,800,800,800,800,800,800,800,800,800,800,800,800,800,800,800,800,800,799,791,746,715,683,663,646,624,613,606,598,596,596,595,594,589,584,578,577,575,574,571,569,568,566,564,563,560,557,554,551,549,543,541,539,538,538,538,538,538,537,536,532,530,527,526,525,525,522,521,520,517,517,515,514,514,513,513,513,512,511,510,509,508,507,506,506,506,506,506,506,506,506,506,506,506,506,502,500,498,495,494,493],"ymouse":[558,558,558,558,558,558,558,558,558,558,558,558,558,558,558,558,558,558,558,558,558,558,558,558,558,558,558,558,558,558,558,558,558,558,558,558,558,558,558,558,558,558,558,558,558,558,558,558,558,558,558,558,558,558,558,558,558,558,558,558,558,558,558,558,558,558,558,558,558,558,558,558,558,558,558,558,558,558,558,558,558,558,558,558,558,558,558,558,558,558,558,558,558,558,558,559,550,513,486,450,424,392,347,323,308,291,278,263,253,240,228,213,198,195,192,191,189,187,187,185,184,183,181,179,177,174,174,169,168,167,166,166,166,166,166,166,164,161,158,156,154,153,151,147,144,141,136,132,126,125,124,124,122,121,119,118,116,114,113,111,110,110,110,110,110,110,110,110,110,110,110,109,105,104,102,101,100,99],"timestamp_mouse":[17,40,59,78,98,119,137,158,179,199,219,237,258,279,298,318,338,357,379,397,418,438,459,478,499,517,539,558,579,597,618,638,657,677,699,717,737,757,779,799,818,837,858,879,898,918,937,959,977,999,1017,1039,1058,1077,1098,1118,1138,1158,1177,1198,1217,1239,1258,1277,1299,1318,1337,1359,1377,1397,1418,1438,1459,1478,1497,1519,1538,1557,1578,1599,1618,1637,1658,1678,1697,1718,1738,1758,1778,1799,1818,1838,1858,1879,1897,1918,1937,1957,1979,1997,2018,2038,2059,2079,2098,2117,2137,2158,2178,2198,2218,2238,2258,2279,2297,2318,2338,2358,2377,2398,2418,2438,2457,2477,2497,2518,2539,2558,2577,2598,2618,2638,2658,2677,2697,2718,2739,2757,2777,2799,2818,2837,2857,2877,2898,2917,2938,2958,2978,2998,3018,3037,3058,3079,3097,3117,3138,3158,3178,3197,3217,3237,3258,3279,3298,3319,3338,3359,3378,3399,3419,3437,3457,3477,3498,3518,3538,3557],"xSR":741.5,"ySR":469.95,"xT1":424.9,"yT1":0,"xT2":1058.1,"yT2":0,"toosoon":0,"cond_shown":"Congruent","ratio_trial":300,"L_num":4,"L_den":10,"R_num":1,"R_den":10,"correct_side":1,"subjID":"saravalentinasilvagutierrez11","gender":"mujer","school":"6g","age":"11"},{"start_time":1551887126437,"click_time":1551887128207,"finger_time":1551887127866,"fix_duration":1289.9629311112983,"trial":16,"RT":1429,"MT":341,"sideResp":1,"stimulus":[],"xmouse":[786,786,786,786,786,786,786,786,786,786,786,786,786,786,786,786,786,786,786,786,786,786,786,786,786,786,786,786,786,786,786,786,786,786,786,786,786,786,786,786,786,786,786,786,786,786,786,786,786,786,786,786,786,786,786,786,786,786,786,786,786,786,786,786,786,786,786,786,786,786,786,774,733,684,645,624,581,572,566,565,562,552,545,539,538,535,528,520,508],"ymouse":[481,481,481,481,481,481,481,481,481,481,481,481,481,481,481,481,481,481,481,481,481,481,481,481,481,481,481,481,481,481,481,481,481,481,481,481,481,481,481,481,481,481,481,481,481,481,481,481,481,481,481,481,481,481,481,481,481,481,481,481,481,481,481,481,481,481,481,481,481,481,481,467,421,379,342,310,244,228,214,202,185,152,138,126,120,113,104,101,95],"timestamp_mouse":[11,30,49,71,90,110,129,151,171,191,209,230,249,270,291,310,330,351,369,391,409,431,450,470,490,509,530,551,570,591,610,630,649,670,691,710,729,750,770,789,810,830,851,870,891,909,930,950,969,989,1011,1030,1049,1069,1090,1109,1131,1150,1170,1189,1210,1230,1249,1270,1289,1310,1330,1350,1370,1390,1411,1429,1449,1470,1490,1509,1529,1549,1569,1590,1610,1630,1650,1671,1690,1710,1730,1750,1770],"xSR":741.5,"ySR":469.95,"xT1":424.9,"yT1":0,"xT2":1058.1,"yT2":0,"toosoon":0,"cond_shown":"Incongruent","ratio_trial":300,"L_num":8,"L_den":10,"R_num":9,"R_den":18,"correct_side":1,"subjID":"saravalentinasilvagutierrez11","gender":"mujer","school":"6g","age":"11"},{"start_time":1551887130466,"click_time":1551887136847,"finger_time":1551887136507,"fix_duration":1338.8526532463686,"trial":17,"RT":6041,"MT":340,"sideResp":2,"stimulus":[],"xmouse":[808,808,808,808,808,808,808,808,808,808,808,808,808,808,808,808,808,808,808,808,808,808,808,808,808,808,808,808,808,808,808,808,808,808,808,808,808,808,808,808,808,808,808,808,808,808,808,808,808,808,808,808,808,808,808,808,808,808,808,808,808,808,808,808,808,808,808,808,808,808,808,808,808,808,808,808,808,808,808,808,808,808,808,808,808,808,808,808,808,808,808,808,808,808,808,808,808,808,808,808,808,808,808,808,808,808,808,808,808,808,808,808,808,808,808,808,808,808,808,808,808,808,808,808,808,808,808,808,808,808,808,808,808,808,808,808,808,808,808,808,808,808,808,808,808,808,808,808,808,808,808,808,808,808,808,808,808,808,808,808,808,808,808,808,808,808,808,808,808,808,808,808,808,808,808,808,808,808,808,808,808,808,808,808,808,808,808,808,808,808,808,808,808,808,808,808,808,808,808,808,808,808,808,808,808,808,808,808,808,808,808,808,808,808,808,808,808,808,808,808,808,808,808,808,808,808,808,808,808,808,808,808,808,808,808,808,808,808,808,808,808,808,808,808,808,808,808,808,808,808,808,808,808,808,808,808,808,808,808,808,808,808,808,808,808,808,808,808,808,808,808,808,808,808,808,808,808,808,808,808,808,808,808,808,808,808,808,808,808,808,808,808,808,808,808,808,808,808,810,811,820,825,831,840,851,880,894,913,930,949,979,992,1005,1025,1040,1066,1077,1087,1095,1106],"ymouse":[502,502,502,502,502,502,502,502,502,502,502,502,502,502,502,502,502,502,502,502,502,502,502,502,502,502,502,502,502,502,502,502,502,502,502,502,502,502,502,502,502,502,502,502,502,502,502,502,502,502,502,502,502,502,502,502,502,502,502,502,502,502,502,502,502,502,502,502,502,502,502,502,502,502,502,502,502,502,502,502,502,502,502,502,502,502,502,502,502,502,502,502,502,502,502,502,502,502,502,502,502,502,502,502,502,502,502,502,502,502,502,502,502,502,502,502,502,502,502,502,502,502,502,502,502,502,502,502,502,502,502,502,502,502,502,502,502,502,502,502,502,502,502,502,502,502,502,502,502,502,502,502,502,502,502,502,502,502,502,502,502,502,502,502,502,502,502,502,502,502,502,502,502,502,502,502,502,502,502,502,502,502,502,502,502,502,502,502,502,502,502,502,502,502,502,502,502,502,502,502,502,502,502,502,502,502,502,502,502,502,502,502,502,502,502,502,502,502,502,502,502,502,502,502,502,502,502,502,502,502,502,502,502,502,502,502,502,502,502,502,502,502,502,502,502,502,502,502,502,502,502,502,502,502,502,502,502,502,502,502,502,502,502,502,502,502,502,502,502,502,502,502,502,502,502,502,502,502,502,502,502,502,502,502,502,502,502,502,502,502,502,502,502,502,502,502,502,502,502,497,480,470,461,445,431,396,376,353,330,308,273,257,240,211,192,156,141,127,114,98],"timestamp_mouse":[12,36,40,60,80,102,122,142,161,180,200,221,240,261,282,302,320,342,362,380,401,422,441,462,481,502,521,541,560,580,600,620,641,661,682,702,720,742,762,782,801,821,841,862,882,900,920,941,960,981,1002,1021,1040,1062,1081,1101,1121,1142,1162,1180,1200,1221,1240,1261,1281,1301,1320,1341,1361,1381,1401,1420,1442,1460,1481,1501,1521,1541,1560,1580,1600,1620,1640,1661,1681,1701,1720,1742,1760,1781,1801,1820,1841,1862,1880,1900,1922,1941,1960,1982,2001,2021,2041,2062,2080,2100,2121,2141,2162,2181,2201,2220,2241,2262,2282,2301,2321,2341,2362,2380,2400,2420,2441,2462,2480,2500,2521,2541,2561,2580,2600,2620,2642,2660,2681,2702,2721,2740,2760,2780,2800,2822,2840,2862,2880,2900,2921,2941,2962,2981,3001,3022,3041,3062,3081,3100,3121,3142,3160,3182,3202,3221,3241,3262,3280,3300,3322,3341,3361,3381,3402,3421,3441,3461,3482,3500,3520,3542,3560,3581,3601,3622,3641,3660,3681,3701,3722,3741,3760,3782,3802,3821,3841,3860,3881,3901,3921,3940,3961,3981,4000,4022,4042,4061,4080,4101,4121,4141,4160,4181,4200,4221,4241,4260,4280,4301,4320,4341,4362,4381,4402,4421,4441,4460,4481,4501,4521,4542,4560,4581,4600,4621,4641,4661,4681,4702,4720,4741,4761,4780,4800,4822,4840,4861,4881,4901,4920,4941,4961,4981,5000,5020,5042,5062,5080,5101,5121,5141,5162,5180,5200,5220,5242,5260,5280,5301,5320,5341,5361,5380,5400,5422,5440,5460,5482,5502,5520,5541,5562,5580,5601,5620,5641,5662,5682,5701,5720,5741,5760,5782,5801,5820,5841,5860,5880,5902,5921,5941,5961,5981,6001,6022,6041,6060,6082,6101,6121,6141,6160,6180,6202,6222,6242,6261,6281,6301,6321,6340,6360,6381],"xSR":741.5,"ySR":469.95,"xT1":424.9,"yT1":0,"xT2":1058.1,"yT2":0,"toosoon":0,"cond_shown":"Incongruent","ratio_trial":300,"L_num":4,"L_den":20,"R_num":2,"R_den":4,"correct_side":2,"subjID":"saravalentinasilvagutierrez11","gender":"mujer","school":"6g","age":"11"},{"start_time":1551887138079,"click_time":1551887140027,"finger_time":1551887139627,"fix_duration":250,"trial":18,"RT":1548,"MT":400,"sideResp":2,"stimulus":[],"xmouse":[800,800,800,800,800,800,800,800,800,800,800,800,800,800,800,800,800,800,800,800,800,800,800,800,800,800,800,800,800,800,800,800,800,800,800,800,800,800,800,800,800,800,800,800,800,800,800,800,800,800,800,800,800,800,800,800,800,800,800,800,800,800,800,800,800,800,800,800,800,800,800,800,800,800,818,832,839,839,839,836,834,834,839,856,902,902,902,902,902,902,902,902,902,902,902,902,902,1139],"ymouse":[562,562,562,562,562,562,562,562,562,562,562,562,562,562,562,562,562,562,562,562,562,562,562,562,562,562,562,562,562,562,562,562,562,562,562,562,562,562,562,562,562,562,562,562,562,562,562,562,562,562,562,562,562,562,562,562,562,562,562,562,562,562,562,562,562,562,562,562,562,562,562,562,562,562,524,497,480,469,457,404,346,281,203,134,11,11,11,11,11,11,11,11,11,11,11,11,11,3],"timestamp_mouse":[10,38,47,68,87,107,129,147,167,187,208,227,249,267,288,308,329,347,368,387,409,428,447,468,488,508,528,548,567,589,607,629,648,668,688,708,729,747,768,798,807,827,848,869,888,907,928,947,968,987,1007,1028,1048,1068,1088,1107,1132,1148,1168,1187,1208,1227,1248,1268,1288,1309,1327,1349,1367,1387,1409,1427,1447,1468,1487,1509,1527,1548,1568,1588,1607,1627,1648,1668,1689,1708,1727,1747,1767,1789,1807,1828,1848,1868,1889,1909,1928,1948],"xSR":741.5,"ySR":469.95,"xT1":424.9,"yT1":0,"xT2":1058.1,"yT2":0,"toosoon":0,"cond_shown":"Congruent","ratio_trial":100,"L_num":6,"L_den":12,"R_num":15,"R_den":25,"correct_side":2,"subjID":"saravalentinasilvagutierrez11","gender":"mujer","school":"6g","age":"11"},{"start_time":1551887141706,"click_time":1551887143266,"finger_time":1551887142728,"fix_duration":338.37387453100484,"trial":19,"RT":1022,"MT":538,"sideResp":2,"stimulus":[],"xmouse":[773,773,773,773,773,773,773,773,773,773,773,773,773,773,773,773,773,773,773,773,773,773,773,773,773,773,773,773,773,773,773,773,773,773,773,773,773,773,773,773,773,773,773,773,773,773,773,773,773,773,776,790,809,859,890,926,968,1006,1055,1066,1071,1071,1071,1076,1082,1088,1091,1092,1091,1091,1091,1091,1091,1091,1091,1091,1091,1091,1091],"ymouse":[487,487,487,487,487,487,487,487,487,487,487,487,487,487,487,487,487,487,487,487,487,487,487,487,487,487,487,487,487,487,487,487,487,487,487,487,487,487,487,487,487,487,487,487,487,487,487,487,487,487,479,464,445,401,370,334,294,250,199,188,181,179,179,163,150,138,129,125,120,120,120,120,120,120,118,113,109,105,95],"timestamp_mouse":[8,21,41,61,80,102,122,140,162,181,200,222,241,262,282,301,320,340,362,380,401,422,442,460,481,502,521,541,560,582,600,620,640,662,681,700,722,742,760,780,802,822,841,860,882,901,920,941,960,981,1000,1022,1042,1060,1080,1100,1121,1142,1160,1181,1201,1221,1241,1260,1281,1301,1321,1340,1360,1381,1401,1422,1442,1460,1480,1500,1521,1540,1560],"xSR":741.5,"ySR":469.95,"xT1":424.9,"yT1":0,"xT2":1058.1,"yT2":0,"toosoon":0,"cond_shown":"Incongruent","ratio_trial":100,"L_num":17,"L_den":30,"R_num":10,"R_den":15,"correct_side":2,"subjID":"saravalentinasilvagutierrez11","gender":"mujer","school":"6g","age":"11"},{"start_time":1551887145781,"click_time":1551887147366,"finger_time":1551887146687,"fix_duration":1192.1845679007495,"trial":20,"RT":906,"MT":679,"sideResp":1,"stimulus":[],"xmouse":[809,809,809,809,809,809,809,809,809,809,809,809,809,809,809,809,809,809,809,809,809,809,809,809,809,809,809,809,809,809,809,809,809,809,809,809,809,808,807,805,800,794,789,777,749,731,714,698,683,675,671,668,664,659,652,649,644,640,628,615,589,578,568,559,539,531,528,530,536,538,538,538,537,537,537,537,537,534,529,515],"ymouse":[511,511,511,511,511,511,511,511,511,511,511,511,511,511,511,511,511,511,511,511,511,511,511,511,511,511,511,511,511,511,511,511,511,511,511,511,511,512,512,512,512,512,511,505,489,478,468,460,450,440,431,423,414,404,383,372,358,344,323,306,275,259,240,223,177,155,130,107,85,61,52,47,45,45,45,45,44,44,44,46],"timestamp_mouse":[8,39,47,65,86,107,125,146,166,186,205,227,245,265,286,306,326,346,365,387,407,427,445,467,485,507,527,547,567,586,606,627,645,667,687,705,725,746,766,785,806,826,847,866,885,906,926,946,967,985,1005,1025,1046,1065,1085,1105,1126,1145,1165,1186,1206,1225,1246,1265,1286,1307,1326,1346,1367,1385,1405,1426,1446,1466,1486,1507,1527,1546,1566,1585],"xSR":741.5,"ySR":469.95,"xT1":424.9,"yT1":0,"xT2":1058.1,"yT2":0,"toosoon":0,"cond_shown":"Congruent","ratio_trial":300,"L_num":20,"L_den":25,"R_num":5,"R_den":10,"correct_side":1,"subjID":"saravalentinasilvagutierrez11","gender":"mujer","school":"6g","age":"11"},{"start_time":1551887148767,"click_time":1551887150647,"finger_time":1551887150266,"fix_duration":299.6606667764767,"trial":21,"RT":1499,"MT":381,"sideResp":1,"stimulus":[],"xmouse":[790,790,790,790,790,790,790,790,790,790,790,790,790,790,790,790,790,790,790,790,790,790,790,790,790,790,790,790,790,790,790,790,790,790,790,790,790,790,790,790,790,790,790,790,790,790,790,790,790,790,790,790,790,790,790,790,790,790,790,790,790,790,790,790,790,790,790,790,790,790,790,790,791,787,775,757,694,654,597,523,481,473,470,469,469,469,469,473,474,479,484,485,486,486,486],"ymouse":[502,502,502,502,502,502,502,502,502,502,502,502,502,502,502,502,502,502,502,502,502,502,502,502,502,502,502,502,502,502,502,502,502,502,502,502,502,502,502,502,502,502,502,502,502,502,502,502,502,502,502,502,502,502,502,502,502,502,502,502,502,502,502,502,502,502,502,502,502,502,502,502,501,497,484,460,383,335,282,218,175,164,159,157,154,144,139,131,129,122,112,110,105,102,97],"timestamp_mouse":[1,31,39,60,81,99,121,139,161,179,199,221,239,260,279,300,321,339,360,381,400,419,439,459,480,500,519,539,561,579,601,620,639,660,680,700,721,739,760,781,799,819,841,861,881,900,920,939,959,979,999,1019,1040,1059,1080,1099,1119,1140,1159,1179,1199,1221,1239,1259,1280,1301,1319,1341,1361,1380,1399,1419,1439,1459,1479,1499,1519,1539,1559,1579,1600,1621,1640,1659,1679,1701,1721,1740,1761,1779,1799,1819,1839,1860,1880],"xSR":741.5,"ySR":469.95,"xT1":424.9,"yT1":0,"xT2":1058.1,"yT2":0,"toosoon":0,"cond_shown":"Incongruent","ratio_trial":200,"L_num":7,"L_den":10,"R_num":8,"R_den":16,"correct_side":1,"subjID":"saravalentinasilvagutierrez11","gender":"mujer","school":"6g","age":"11"},{"start_time":1551887152250,"click_time":1551887154286,"finger_time":1551887153346,"fix_duration":682.6433926971189,"trial":22,"RT":1096,"MT":940,"sideResp":2,"stimulus":[],"xmouse":[803,803,803,803,803,803,803,803,803,803,803,803,803,803,803,803,803,803,803,803,803,803,803,803,803,803,803,803,803,803,803,803,803,803,803,803,803,803,803,803,803,803,803,803,803,803,803,803,803,803,803,803,808,823,841,861,873,888,899,910,936,945,950,954,959,966,972,979,987,997,1014,1021,1023,1026,1029,1032,1033,1033,1033,1033,1034,1036,1036,1037,1038,1042,1046,1049,1052,1053,1053,1053,1053,1053,1053,1053,1054,1054,1055,1056,1059,1062],"ymouse":[494,494,494,494,494,494,494,494,494,494,494,494,494,494,494,494,494,494,494,494,494,494,494,494,494,494,494,494,494,494,494,494,494,494,494,494,494,494,494,494,494,494,494,494,494,494,494,494,494,494,494,494,494,482,469,453,442,430,417,403,367,356,346,336,322,302,290,280,266,254,226,214,203,192,183,168,157,149,142,138,136,132,131,130,129,127,124,121,119,118,117,117,117,116,116,114,112,111,110,107,100,94],"timestamp_mouse":[34,36,56,77,95,116,136,155,176,196,216,236,257,276,296,316,336,357,376,396,416,436,456,476,496,516,536,557,576,596,616,636,656,675,697,715,736,757,776,796,816,836,855,877,896,916,936,956,977,997,1016,1037,1056,1075,1096,1116,1136,1155,1176,1196,1217,1236,1256,1276,1295,1316,1337,1356,1376,1396,1416,1435,1457,1476,1496,1516,1536,1556,1576,1596,1616,1636,1656,1675,1696,1716,1736,1756,1776,1797,1817,1836,1857,1877,1897,1916,1936,1956,1976,1997,2015,2036],"xSR":741.5,"ySR":469.95,"xT1":424.9,"yT1":0,"xT2":1058.1,"yT2":0,"toosoon":0,"cond_shown":"Congruent","ratio_trial":200,"L_num":3,"L_den":10,"R_num":11,"R_den":22,"correct_side":2,"subjID":"saravalentinasilvagutierrez11","gender":"mujer","school":"6g","age":"11"},{"start_time":1551887156130,"click_time":1551887159285,"finger_time":1551887158946,"fix_duration":502.1923310567522,"trial":23,"RT":2816,"MT":339,"sideResp":2,"stimulus":[],"xmouse":[797,797,797,797,797,797,797,797,797,797,797,797,797,797,797,797,797,797,797,797,797,797,797,797,797,797,797,797,797,797,797,797,797,797,797,797,797,797,797,797,797,797,797,797,797,797,797,797,797,797,797,797,797,797,797,797,797,797,797,797,797,797,797,797,797,797,797,797,797,797,797,797,797,797,797,797,797,797,797,797,797,797,797,797,797,797,797,797,797,797,797,797,797,797,797,797,797,797,797,797,797,797,797,797,797,797,797,797,792,791,791,791,791,791,791,791,791,791,791,791,791,791,791,791,791,791,791,791,791,791,791,791,791,791,791,791,791,796,804,811,863,986,1041,1079,1103,1116,1130,1136,1141,1145,1155,1158,1158,1155,1153,1151,1146,1145],"ymouse":[491,491,491,491,491,491,491,491,491,491,491,491,491,491,491,491,491,491,491,491,491,491,491,491,491,491,491,491,491,491,491,491,491,491,491,491,491,491,491,491,491,491,491,491,491,491,491,491,491,491,491,491,491,491,491,491,491,491,491,491,491,491,491,491,491,491,491,491,491,491,491,491,491,491,491,491,491,491,491,491,491,491,491,491,491,491,491,491,491,491,491,491,491,491,491,491,491,491,491,491,491,491,491,491,491,491,491,492,498,499,499,499,499,499,499,499,499,499,499,499,499,499,499,499,499,499,499,499,499,499,499,499,499,499,499,499,499,496,487,477,433,349,310,277,248,229,208,199,194,187,167,140,132,128,123,118,101,91],"timestamp_mouse":[16,36,57,77,95,116,136,156,177,196,216,235,257,276,296,316,336,356,375,397,416,436,457,476,496,515,536,556,575,596,617,635,656,677,695,716,736,755,777,797,815,836,856,875,897,917,935,956,976,996,1016,1036,1056,1076,1097,1115,1136,1156,1176,1196,1216,1237,1256,1277,1296,1315,1336,1355,1377,1396,1416,1435,1456,1476,1496,1517,1537,1556,1576,1597,1615,1636,1657,1677,1697,1716,1735,1756,1776,1797,1816,1837,1856,1876,1896,1915,1936,1955,1977,1996,2016,2036,2055,2076,2097,2115,2136,2156,2176,2196,2216,2236,2257,2276,2296,2317,2335,2356,2377,2396,2416,2436,2455,2476,2496,2516,2536,2557,2575,2596,2616,2636,2657,2677,2696,2717,2737,2756,2776,2795,2816,2836,2855,2877,2896,2916,2936,2957,2976,2995,3015,3036,3056,3076,3096,3117,3136,3155],"xSR":741.5,"ySR":469.95,"xT1":424.9,"yT1":0,"xT2":1058.1,"yT2":0,"toosoon":0,"cond_shown":"Congruent","ratio_trial":100,"L_num":1,"L_den":2,"R_num":3,"R_den":5,"correct_side":2,"subjID":"saravalentinasilvagutierrez11","gender":"mujer","school":"6g","age":"11"},{"start_time":1551887161834,"click_time":1551887163827,"finger_time":1551887163406,"fix_duration":1447.4590725049277,"trial":24,"RT":1572,"MT":421,"sideResp":2,"stimulus":[],"xmouse":[804,804,804,804,804,804,804,804,804,804,804,804,804,804,804,804,804,804,804,804,804,804,804,804,804,804,804,804,804,804,804,804,804,804,804,804,804,804,804,804,804,804,804,804,804,804,804,804,804,804,804,804,804,804,804,804,804,804,804,804,804,804,804,804,804,804,804,804,804,804,804,804,804,804,804,804,804,815,831,851,874,909,990,1065,1090,1147,1172,1174,1174,1174,1175,1181,1182,1182,1182,1179,1172,1168,1163,1156],"ymouse":[494,494,494,494,494,494,494,494,494,494,494,494,494,494,494,494,494,494,494,494,494,494,494,494,494,494,494,494,494,494,494,494,494,494,494,494,494,494,494,494,494,494,494,494,494,494,494,494,494,494,494,494,494,494,494,494,494,494,494,494,494,494,494,494,494,494,494,494,494,494,494,494,494,494,494,494,494,480,460,440,418,385,294,224,202,148,112,109,109,109,107,100,94,92,90,88,87,87,86,82],"timestamp_mouse":[13,36,52,72,92,113,132,153,172,192,211,231,251,273,293,313,333,353,373,393,413,432,452,473,492,512,532,552,573,591,613,631,653,672,692,712,733,752,773,793,812,832,853,872,893,913,932,951,973,993,1013,1031,1051,1072,1091,1113,1132,1153,1173,1193,1212,1232,1253,1272,1293,1313,1331,1353,1372,1392,1412,1432,1453,1472,1492,1512,1532,1552,1572,1592,1612,1632,1653,1672,1693,1712,1732,1753,1772,1791,1812,1832,1853,1872,1892,1912,1932,1951,1972,1993],"xSR":741.5,"ySR":469.95,"xT1":424.9,"yT1":0,"xT2":1058.1,"yT2":0,"toosoon":0,"cond_shown":"Congruent","ratio_trial":200,"L_num":13,"L_den":26,"R_num":14,"R_den":20,"correct_side":2,"subjID":"saravalentinasilvagutierrez11","gender":"mujer","school":"6g","age":"11"},{"start_time":1551887164937,"click_time":1551887166566,"finger_time":1551887166266,"fix_duration":250,"trial":25,"RT":1329,"MT":300,"sideResp":1,"stimulus":[],"xmouse":[830,830,830,830,830,830,830,830,830,830,830,830,830,830,830,830,830,830,830,830,830,830,830,830,830,830,830,830,830,830,830,830,830,830,830,830,830,830,830,830,830,830,830,830,830,830,830,830,830,830,830,830,830,830,830,830,830,830,830,830,830,830,830,829,823,815,754,707,646,598,575,570,569,572,577,580,577,565,551,547,536,520],"ymouse":[506,506,506,506,506,506,506,506,506,506,506,506,506,506,506,506,506,506,506,506,506,506,506,506,506,506,506,506,506,506,506,506,506,506,506,506,506,506,506,506,506,506,506,506,506,506,506,506,506,506,506,506,506,506,506,506,506,506,506,506,506,506,506,506,506,500,466,430,377,341,318,298,289,280,268,253,188,157,124,115,91,65],"timestamp_mouse":[14,44,49,69,89,109,128,149,169,189,208,229,249,269,289,310,330,349,370,389,409,430,449,469,489,508,529,549,570,589,609,629,650,669,688,710,728,750,769,789,809,829,850,870,889,910,929,949,969,990,1009,1029,1048,1070,1090,1110,1130,1149,1169,1189,1208,1230,1249,1269,1290,1310,1329,1349,1368,1390,1408,1429,1449,1469,1490,1509,1529,1550,1569,1589,1609,1628],"xSR":741.5,"ySR":469.95,"xT1":424.9,"yT1":0,"xT2":1058.1,"yT2":0,"toosoon":0,"cond_shown":"Incongruent","ratio_trial":200,"L_num":7,"L_den":10,"R_num":14,"R_den":28,"correct_side":1,"subjID":"saravalentinasilvagutierrez11","gender":"mujer","school":"6g","age":"11"},{"start_time":1551887167746,"click_time":1551887168946,"finger_time":1551887168747,"fix_duration":298.4459716188455,"trial":26,"RT":1001,"MT":199,"sideResp":2,"stimulus":[],"xmouse":[803,804,804,804,804,804,804,804,804,804,804,804,804,804,804,804,804,804,804,804,804,804,804,804,804,804,804,804,804,804,804,804,804,804,804,804,804,804,804,804,804,804,804,804,804,806,809,816,824,838,861,906,934,977,1017,1052,1092,1097,1098,1100,1108],"ymouse":[524,522,522,520,519,518,518,518,518,518,518,518,518,518,518,518,518,518,518,518,518,518,518,518,518,518,518,518,518,518,518,518,518,518,518,518,518,518,518,518,518,518,518,518,518,516,512,508,501,492,474,428,389,338,288,238,171,149,133,119,94],"timestamp_mouse":[1,35,39,60,80,101,121,141,159,179,201,220,240,261,281,300,320,339,361,380,401,420,440,461,480,500,520,541,561,580,600,620,640,661,680,700,721,741,759,781,801,820,841,861,881,900,920,940,961,980,1001,1020,1040,1060,1080,1099,1120,1140,1160,1180,1199],"xSR":741.5,"ySR":469.95,"xT1":424.9,"yT1":0,"xT2":1058.1,"yT2":0,"toosoon":0,"cond_shown":"Incongruent","ratio_trial":200,"L_num":7,"L_den":15,"R_num":6,"R_den":9,"correct_side":2,"subjID":"saravalentinasilvagutierrez11","gender":"mujer","school":"6g","age":"11"},{"start_time":1551887171107,"click_time":1551887173387,"finger_time":1551887172846,"fix_duration":1298.3894330462813,"trial":27,"RT":1739,"MT":541,"sideResp":1,"stimulus":[],"xmouse":[811,811,811,811,811,811,811,811,811,811,811,811,811,811,811,811,811,811,811,811,811,811,811,811,811,811,811,811,811,811,811,811,811,811,811,811,811,811,811,811,811,811,811,811,811,811,811,811,811,811,811,811,811,811,811,811,811,811,811,811,811,811,811,811,811,811,811,811,811,811,811,811,811,811,811,811,811,811,811,811,811,811,811,811,811,804,789,766,740,730,718,708,683,662,653,641,628,617,597,595,588,572,567,542,537,534,533,533,532,530,530,530,529,526,523],"ymouse":[506,506,506,506,506,506,506,506,506,506,506,506,506,506,506,506,506,506,506,506,506,506,506,506,506,506,506,506,506,506,506,506,506,506,506,506,506,506,506,506,506,506,506,506,506,506,506,506,506,506,506,506,506,506,506,506,506,506,506,506,506,506,506,506,506,506,506,506,506,506,506,506,506,506,506,506,506,506,506,506,506,506,506,506,506,500,478,456,439,430,415,396,354,307,284,261,240,223,182,174,153,113,101,61,57,55,55,55,55,55,55,55,55,60,63],"timestamp_mouse":[1,18,40,59,80,99,120,139,160,179,199,220,239,259,279,298,319,340,358,379,398,420,439,459,479,499,519,539,559,579,599,619,639,659,679,699,718,740,759,780,799,819,840,859,880,900,919,940,959,979,999,1020,1039,1059,1079,1100,1119,1139,1159,1179,1199,1220,1238,1259,1280,1299,1318,1340,1360,1379,1399,1418,1440,1459,1478,1499,1520,1539,1559,1580,1600,1619,1640,1659,1679,1699,1719,1739,1760,1779,1798,1820,1840,1859,1880,1899,1919,1940,1964,1979,1998,2020,2039,2058,2078,2099,2119,2139,2159,2178,2199,2220,2239,2259,2279],"xSR":741.5,"ySR":469.95,"xT1":424.9,"yT1":0,"xT2":1058.1,"yT2":0,"toosoon":0,"cond_shown":"Congruent","ratio_trial":200,"L_num":9,"L_den":20,"R_num":4,"R_den":16,"correct_side":1,"subjID":"saravalentinasilvagutierrez11","gender":"mujer","school":"6g","age":"11"},{"start_time":1551887174967,"click_time":1551887176706,"finger_time":1551887176366,"fix_duration":599.65781018913,"trial":28,"RT":1399,"MT":340,"sideResp":1,"stimulus":[],"xmouse":[825,825,825,825,825,825,825,825,825,825,825,825,825,825,825,825,825,825,825,825,825,825,825,825,825,825,825,825,825,825,825,825,825,825,825,825,825,825,825,825,825,825,825,825,825,825,825,825,825,825,825,825,825,825,825,825,825,825,825,825,825,825,825,825,825,825,825,817,800,764,748,736,721,692,607,588,579,578,576,566,551,529,509,502,498,496,495],"ymouse":[497,497,497,497,497,497,497,497,497,497,497,497,497,497,497,497,497,497,497,497,497,497,497,497,497,497,497,497,497,497,497,497,497,497,497,497,497,497,497,497,497,497,497,497,497,497,497,497,497,497,497,497,497,497,497,497,497,497,497,497,497,497,497,497,497,497,497,490,471,441,427,408,386,350,289,274,255,251,236,214,195,169,148,135,117,107,96],"timestamp_mouse":[19,38,60,78,99,119,139,160,178,199,219,239,259,280,300,320,338,359,379,399,419,440,459,479,499,520,540,559,580,600,619,640,660,679,699,718,739,759,779,799,820,839,859,879,899,919,940,959,979,998,1019,1039,1059,1079,1099,1119,1139,1159,1179,1198,1219,1238,1259,1280,1299,1320,1339,1359,1380,1399,1418,1438,1460,1480,1499,1520,1539,1559,1578,1599,1620,1639,1658,1680,1700,1720,1739],"xSR":741.5,"ySR":469.95,"xT1":424.9,"yT1":0,"xT2":1058.1,"yT2":0,"toosoon":0,"cond_shown":"Congruent","ratio_trial":200,"L_num":11,"L_den":22,"R_num":3,"R_den":10,"correct_side":1,"subjID":"saravalentinasilvagutierrez11","gender":"mujer","school":"6g","age":"11"},{"start_time":1551887178972,"click_time":1551887180166,"finger_time":1551887180026,"fix_duration":1322.5873148573899,"trial":29,"RT":1054,"MT":140,"sideResp":2,"stimulus":[],"xmouse":[786,786,786,786,786,786,786,786,786,786,786,786,786,786,786,786,786,786,786,786,786,786,786,786,786,786,786,786,786,786,786,786,786,786,786,786,786,786,786,786,786,786,786,786,786,786,786,786,786,786,791,803,820,834,888,924,967,1011,1065,1084],"ymouse":[506,506,506,506,506,506,506,506,506,506,506,506,506,506,506,506,506,506,506,506,506,506,506,506,506,506,506,506,506,506,506,506,506,506,506,506,506,506,506,506,506,506,506,506,506,506,506,506,506,506,504,480,444,405,323,269,209,158,104,86],"timestamp_mouse":[14,40,54,75,94,113,135,154,174,194,215,233,254,274,295,314,334,355,374,394,414,434,454,474,494,515,534,553,574,594,613,635,655,674,695,713,735,755,775,794,814,834,855,873,894,915,934,954,975,995,1014,1034,1054,1073,1094,1115,1134,1154,1175,1194],"xSR":741.5,"ySR":469.95,"xT1":424.9,"yT1":0,"xT2":1058.1,"yT2":0,"toosoon":0,"cond_shown":"Incongruent","ratio_trial":200,"L_num":7,"L_den":15,"R_num":4,"R_den":6,"correct_side":2,"subjID":"saravalentinasilvagutierrez11","gender":"mujer","school":"6g","age":"11"},{"start_time":1551887182499,"click_time":1551887184606,"finger_time":1551887184266,"fix_duration":1010.6415456941372,"trial":30,"RT":1767,"MT":340,"sideResp":1,"stimulus":[],"xmouse":[800,800,800,800,800,800,800,800,800,800,800,800,800,800,800,800,800,800,800,800,800,800,800,800,800,800,800,800,800,800,800,800,800,800,800,800,800,800,800,800,800,800,800,800,800,800,800,800,800,800,800,800,800,800,800,800,800,800,800,800,800,800,800,800,800,800,800,800,800,800,800,800,800,800,800,800,800,800,800,800,800,800,800,800,800,795,787,759,686,663,652,650,650,645,639,633,630,625,609,591,563,538,512,476,463,452],"ymouse":[492,492,492,492,492,492,492,492,492,492,492,492,492,492,492,492,492,492,492,492,492,492,492,492,492,492,492,492,492,492,492,492,492,492,492,492,492,492,492,492,492,492,492,492,492,492,492,492,492,492,492,492,492,492,492,492,492,492,492,492,492,492,492,492,492,492,492,492,492,492,492,492,492,492,492,492,492,492,492,492,492,492,492,492,492,492,489,475,434,417,406,396,379,355,344,337,331,319,288,260,234,210,181,136,112,92],"timestamp_mouse":[14,38,47,67,87,108,127,147,166,187,207,228,248,267,287,308,327,348,368,387,407,426,448,466,487,508,527,547,567,587,608,628,647,667,687,707,727,747,768,787,807,828,846,867,887,908,926,947,967,986,1007,1027,1047,1068,1088,1108,1127,1148,1168,1187,1208,1228,1247,1267,1287,1307,1328,1347,1367,1387,1407,1428,1447,1467,1488,1508,1528,1548,1567,1588,1607,1626,1648,1667,1687,1707,1728,1748,1767,1788,1807,1828,1846,1867,1887,1907,1926,1946,1967,1988,2008,2028,2048,2067,2086,2107],"xSR":741.5,"ySR":469.95,"xT1":424.9,"yT1":0,"xT2":1058.1,"yT2":0,"toosoon":0,"cond_shown":"Incongruent","ratio_trial":100,"L_num":9,"L_den":10,"R_num":20,"R_den":25,"correct_side":1,"subjID":"saravalentinasilvagutierrez11","gender":"mujer","school":"6g","age":"11"},{"start_time":1551887185997,"click_time":1551887188627,"finger_time":1551887188166,"fix_duration":250,"trial":31,"RT":2169,"MT":461,"sideResp":2,"stimulus":[],"xmouse":[795,795,795,795,795,795,795,795,795,795,795,795,795,795,795,795,795,795,795,795,795,795,795,795,795,795,795,795,795,795,795,795,795,795,795,795,795,795,795,795,795,795,795,795,795,795,795,795,795,795,795,795,795,795,795,795,795,795,795,795,795,795,795,795,795,795,795,795,795,795,795,795,795,795,795,795,795,795,795,795,795,795,795,795,795,795,795,795,795,795,795,795,795,795,795,795,795,795,795,795,795,795,795,795,795,796,798,805,823,831,839,850,869,922,944,956,964,970,974,975,976,978,981,991,997,1003,1009,1019,1034,1044,1052,1060],"ymouse":[502,502,502,502,502,502,502,502,502,502,502,502,502,502,502,502,502,502,502,502,502,502,502,502,502,502,502,502,502,502,502,502,502,502,502,502,502,502,502,502,502,502,502,502,502,502,502,502,502,502,502,502,502,502,502,502,502,502,502,502,502,502,502,502,502,502,502,502,502,502,502,502,502,502,502,502,502,502,502,502,502,502,502,502,502,502,502,502,502,502,502,502,502,502,502,502,502,502,502,502,502,502,502,502,502,501,498,482,445,424,406,382,350,284,257,238,222,207,198,196,192,189,185,168,153,138,125,104,74,57,45,32],"timestamp_mouse":[10,32,49,69,90,109,129,149,169,189,210,230,249,270,289,310,329,349,369,389,409,429,448,470,489,509,530,550,569,588,609,630,648,669,690,709,729,749,768,789,810,828,850,868,890,910,929,949,969,990,1009,1029,1049,1069,1089,1110,1129,1149,1170,1189,1210,1229,1249,1270,1289,1309,1330,1349,1369,1389,1409,1429,1448,1469,1489,1510,1530,1550,1569,1590,1609,1629,1649,1669,1689,1709,1729,1749,1769,1789,1809,1830,1850,1869,1889,1909,1930,1949,1969,1989,2008,2029,2049,2069,2089,2110,2128,2149,2169,2188,2209,2228,2248,2269,2289,2308,2329,2349,2369,2389,2410,2429,2450,2468,2489,2510,2529,2549,2569,2588,2609,2630],"xSR":741.5,"ySR":469.95,"xT1":424.9,"yT1":0,"xT2":1058.1,"yT2":0,"toosoon":0,"cond_shown":"Incongruent","ratio_trial":300,"L_num":3,"L_den":6,"R_num":4,"R_den":20,"correct_side":1,"subjID":"saravalentinasilvagutierrez11","gender":"mujer","school":"6g","age":"11"},{"start_time":1551887191057,"click_time":1551887194866,"finger_time":1551887194566,"fix_duration":1108.6396035385328,"trial":32,"RT":3509,"MT":300,"sideResp":1,"stimulus":[],"xmouse":[799,799,799,799,799,799,799,799,799,799,799,799,799,799,799,799,799,799,799,799,799,799,799,799,799,799,799,799,799,799,799,799,799,799,799,799,799,799,799,799,799,799,799,799,799,799,799,799,799,799,799,799,799,799,799,799,799,799,799,799,799,799,799,799,799,799,799,799,799,799,799,799,799,799,799,799,799,799,799,799,799,799,799,799,799,799,799,799,799,799,799,799,799,799,799,799,799,799,799,799,799,799,799,799,799,799,799,799,799,799,799,799,799,799,799,799,799,799,799,799,799,799,799,799,799,799,799,799,799,799,799,799,799,799,799,799,799,799,799,799,799,799,799,799,799,799,799,799,799,799,799,799,799,799,799,799,799,799,799,799,799,799,799,799,799,799,799,799,799,799,799,799,799,799,798,773,753,740,726,720,693,663,634,600,584,570,565,557,547,532,493],"ymouse":[494,494,494,494,494,494,494,494,494,494,494,494,494,494,494,494,494,494,494,494,494,494,494,494,494,494,494,494,494,494,494,494,494,494,494,494,494,494,494,494,494,494,494,494,494,494,494,494,494,494,494,494,494,494,494,494,494,494,494,494,494,494,494,494,494,494,494,494,494,494,494,494,494,494,494,494,494,494,494,494,494,494,494,494,494,494,494,494,494,494,494,494,494,494,494,494,494,494,494,494,494,494,494,494,494,494,494,494,494,494,494,494,494,494,494,494,494,494,494,494,494,494,494,494,494,494,494,494,494,494,494,494,494,494,494,494,494,494,494,494,494,494,494,494,494,494,494,494,494,494,494,494,494,494,494,494,494,494,494,494,494,494,494,494,494,494,494,494,494,494,494,494,494,494,494,461,442,428,416,404,364,327,296,264,250,231,219,202,185,159,79],"timestamp_mouse":[8,41,50,70,89,110,128,149,169,189,210,230,250,269,290,310,328,350,369,390,410,429,449,470,489,510,528,549,569,589,609,629,649,669,688,709,729,749,769,790,809,828,849,870,890,909,929,948,970,989,1010,1030,1049,1069,1089,1109,1129,1149,1170,1189,1209,1230,1249,1270,1289,1310,1329,1349,1369,1388,1410,1429,1449,1470,1489,1509,1529,1549,1568,1589,1609,1630,1648,1669,1689,1709,1729,1749,1769,1789,1809,1829,1849,1869,1889,1910,1929,1949,1970,1989,2009,2029,2049,2069,2089,2109,2129,2150,2170,2189,2209,2230,2250,2270,2288,2309,2329,2350,2369,2389,2409,2428,2449,2469,2488,2509,2530,2549,2570,2589,2609,2629,2649,2669,2689,2709,2728,2750,2768,2790,2809,2829,2850,2869,2890,2909,2929,2948,2970,2989,3010,3030,3048,3070,3088,3109,3129,3150,3170,3189,3209,3230,3250,3268,3290,3309,3329,3349,3368,3390,3410,3429,3450,3470,3490,3509,3528,3549,3569,3590,3609,3629,3649,3669,3690,3709,3728,3749,3769,3789,3808],"xSR":741.5,"ySR":469.95,"xT1":424.9,"yT1":0,"xT2":1058.1,"yT2":0,"toosoon":0,"cond_shown":"Incongruent","ratio_trial":100,"L_num":3,"L_den":6,"R_num":4,"R_den":10,"correct_side":1,"subjID":"saravalentinasilvagutierrez11","gender":"mujer","school":"6g","age":"11"},{"start_time":1551887197033,"click_time":1551887198887,"finger_time":1551887198566,"fix_duration":1366.5531817875756,"trial":33,"RT":1533,"MT":321,"sideResp":1,"stimulus":[],"xmouse":[781,781,781,781,781,781,781,781,781,781,781,781,781,781,781,781,781,781,781,781,781,781,781,781,781,781,781,781,781,781,781,781,781,781,781,781,781,781,781,781,781,781,781,781,781,781,781,781,781,781,781,781,781,781,781,781,781,781,781,781,781,781,781,781,781,781,781,781,781,781,781,781,781,781,778,770,742,726,716,704,692,677,676,676,675,673,664,654,636,616,585,533,512],"ymouse":[502,502,502,502,502,502,502,502,502,502,502,502,502,502,502,502,502,502,502,502,502,502,502,502,502,502,502,502,502,502,502,502,502,502,502,502,502,502,502,502,502,502,502,502,502,502,502,502,502,502,502,502,502,502,502,502,502,502,502,502,502,502,502,502,502,502,502,502,502,502,502,502,502,502,493,476,422,395,371,343,317,290,287,286,283,277,260,245,222,193,152,90,67],"timestamp_mouse":[13,33,53,74,93,114,134,154,172,192,213,233,252,273,293,314,332,353,374,393,413,433,453,474,494,513,533,553,573,593,614,633,653,672,693,713,734,753,774,794,813,833,853,872,892,914,933,952,973,993,1014,1033,1053,1074,1094,1112,1134,1153,1173,1193,1214,1234,1254,1273,1294,1313,1333,1353,1373,1393,1413,1433,1454,1473,1494,1513,1533,1553,1573,1593,1613,1633,1652,1673,1694,1713,1733,1754,1774,1793,1814,1833,1854],"xSR":741.5,"ySR":469.95,"xT1":424.9,"yT1":0,"xT2":1058.1,"yT2":0,"toosoon":0,"cond_shown":"Congruent","ratio_trial":100,"L_num":8,"L_den":16,"R_num":2,"R_den":5,"correct_side":1,"subjID":"saravalentinasilvagutierrez11","gender":"mujer","school":"6g","age":"11"},{"start_time":1551887200218,"click_time":1551887201946,"finger_time":1551887201626,"fix_duration":250,"trial":34,"RT":1408,"MT":320,"sideResp":2,"stimulus":[],"xmouse":[826,826,826,826,826,826,826,826,826,826,826,826,826,826,826,826,826,826,826,826,826,826,826,826,826,826,826,826,826,826,826,826,826,826,826,826,826,826,826,826,826,826,826,826,826,826,826,826,826,826,826,826,826,826,826,826,826,826,826,826,826,826,826,826,826,826,826,826,827,835,843,858,882,893,910,927,955,977,983,985,985,985,991,999,1020,1045,1080],"ymouse":[496,496,496,496,496,496,496,496,496,496,496,496,496,496,496,496,496,496,496,496,496,496,496,496,496,496,496,496,496,496,496,496,496,496,496,496,496,496,496,496,496,496,496,496,496,496,496,496,496,496,496,496,496,496,496,496,496,496,496,496,496,496,496,496,496,496,496,496,496,492,485,474,447,431,416,401,380,345,323,301,282,267,238,218,174,129,54],"timestamp_mouse":[10,34,49,69,89,109,127,148,168,189,208,228,248,268,288,308,328,348,369,388,408,428,448,468,489,508,528,548,568,588,608,628,648,668,688,707,728,748,768,788,807,828,848,869,888,908,929,948,968,988,1009,1028,1048,1067,1088,1109,1129,1148,1169,1188,1208,1229,1248,1268,1289,1308,1329,1348,1368,1388,1408,1429,1448,1469