[{"start_time":1551887675664,"click_time":1551887677647,"finger_time":1551887677127,"fix_duration":571.8604458247129,"trial":0,"RT":1463,"MT":520,"sideResp":1,"stimulus":"img/750/randomdotsizeEA/L/9_Ratio_750_L_4_R_3.png","xmouse":[806,806,806,806,806,806,806,806,806,806,806,806,806,806,806,806,806,806,806,806,806,806,806,806,806,806,806,806,806,806,806,806,806,806,806,806,806,806,806,806,806,806,806,806,806,806,806,806,806,806,806,806,806,806,806,806,806,806,806,806,806,806,806,806,806,806,806,806,806,806,806,806,806,805,798,780,715,697,675,657,643,635,635,634,631,625,614,609,598,587,567,553,553,552,551,551,550,544,529,505],"ymouse":[532,532,532,532,532,532,532,532,532,532,532,532,532,532,532,532,532,532,532,532,532,532,532,532,532,532,532,532,532,532,532,532,532,532,532,532,532,532,532,532,532,532,532,532,532,532,532,532,532,532,532,532,532,532,532,532,532,532,532,532,532,532,532,532,532,532,532,532,532,532,532,532,513,468,429,374,264,228,195,171,155,147,147,146,144,141,136,133,127,121,115,108,107,107,106,106,105,102,96,89],"timestamp_mouse":[9,34,44,64,82,104,122,143,162,183,203,223,243,262,283,302,323,344,363,384,404,424,443,463,483,503,524,543,563,582,604,623,642,663,683,702,723,743,763,783,802,823,844,864,883,902,923,944,963,983,1003,1023,1044,1063,1084,1103,1123,1143,1163,1184,1203,1223,1244,1263,1283,1303,1323,1344,1363,1384,1402,1423,1443,1463,1483,1504,1522,1543,1563,1583,1603,1622,1642,1663,1683,1703,1723,1743,1763,1782,1804,1822,1843,1863,1882,1903,1922,1942,1963,1983],"xSR":741.5,"ySR":469.95,"xT1":424.9,"yT1":0,"xT2":1058.1,"yT2":0,"toosoon":0,"cond_shown":"randomdotsizeEA","ratio_trial":750,"smaller_num":"3","larger_num":"4","correct_side":1,"subjID":"saravalentinasilva11","gender":"1","age":"11","school":"6g","test":{"fix_dur":[250,1500],"timestim":300,"targets_dim":[100,100],"targets_relative_coord":[0.3,0.7],"size_stim":[880,420],"start_dim":[100,100],"size_start":[300,300],"size_fix":60,"samplingrate":20,"img_types":["equaldotsize","equaldotanddens","randomdotsizeEA"],"ratios":[250,500,750,900],"rep_conds":9,"nTrials":120,"trials_to_rest":500,"Trials_order":[32,73,3,76,108,39,47,111,17,79,57,19,106,49,50,1,20,117,60,116,93,9,44,78,10,34,0,65,53,112,99,29,41,70,67,14,91,31,28,77,54,88,58,38,113,7,27,86,62,109,6,74,82,5,95,42,119,59,66,68,114,2,89,46,102,45,52,26,115,55,83,101,33,8,97,23,18,21,36,56,110,22,118,48,71,100,64,104,15,84,61,75,103,81,13,90,25,92,72,94,85,96,80,16,35,12,37,4,107,69,63,30,51,105,87,11,98,40,43,24],"cond_shown":["randomdotsizeEA","equaldotanddens","equaldotsize","equaldotanddens","equaldotsize","equaldotsize","randomdotsizeEA","equaldotsize","randomdotsizeEA","equaldotanddens","equaldotsize","equaldotanddens","equaldotanddens","equaldotanddens","randomdotsizeEA","equaldotanddens","randomdotsizeEA","equaldotsize","equaldotsize","randomdotsizeEA","equaldotsize","equaldotsize","randomdotsizeEA","equaldotsize","equaldotanddens","equaldotanddens","equaldotsize","randomdotsizeEA","randomdotsizeEA","equaldotanddens","equaldotsize","randomdotsizeEA","randomdotsizeEA","equaldotanddens","equaldotanddens","randomdotsizeEA","equaldotanddens","equaldotanddens","equaldotanddens","randomdotsizeEA","equaldotsize","equaldotanddens","equaldotanddens","randomdotsizeEA","randomdotsizeEA","equaldotanddens","equaldotsize","randomdotsizeEA","randomdotsizeEA","equaldotanddens","equaldotsize","randomdotsizeEA","equaldotanddens","randomdotsizeEA","randomdotsizeEA","equaldotsize","randomdotsizeEA","randomdotsizeEA","equaldotsize","randomdotsizeEA","equaldotsize","randomdotsizeEA","randomdotsizeEA","equaldotanddens","equaldotsize","equaldotsize","equaldotanddens","randomdotsizeEA","equaldotanddens","equaldotanddens","randomdotsizeEA","randomdotsizeEA","equaldotsize","randomdotsizeEA","equaldotanddens","randomdotsizeEA","equaldotsize","equaldotsize","equaldotsize","randomdotsizeEA","randomdotsizeEA","equaldotanddens","equaldotanddens","equaldotsize","randomdotsizeEA","equaldotanddens","equaldotanddens","randomdotsizeEA","equaldotsize","equaldotsize","equaldotanddens","equaldotsize","equaldotanddens","equaldotsize","equaldotanddens","equaldotsize","equaldotanddens","randomdotsizeEA","equaldotsize","equaldotanddens","equaldotanddens","equaldotsize","randomdotsizeEA","equaldotanddens","randomdotsizeEA","equaldotsize","equaldotanddens","equaldotanddens","randomdotsizeEA","equaldotsize","equaldotsize","equaldotsize","equaldotsize","equaldotsize","equaldotsize","randomdotsizeEA","randomdotsizeEA","equaldotanddens","equaldotanddens","equaldotsize"],"ratio_trial":[750,250,500,500,250,500,900,500,500,750,900,750,900,250,250,250,750,900,250,750,900,900,750,750,900,900,250,500,500,500,500,500,500,900,750,250,750,750,500,500,750,500,900,250,500,750,500,250,250,250,750,250,900,500,900,750,900,900,750,750,750,250,500,900,750,900,500,250,750,750,900,500,900,750,250,900,750,900,250,750,250,900,900,250,900,500,500,750,500,250,250,500,750,900,250,750,250,750,250,900,250,250,750,500,900,250,250,500,900,900,500,750,500,900,500,900,250,500,750,250],"smaller_num":["3","2","1","1","3","4","9","4","1","12","9","12","9","3","2","4","18","9","2","15","9","18","6","3","18","18","3","5","6","10","5","3","9","18","3","4","15","6","6","2","3","5","18","3","9","3","3","6","3","2","15","3","9","9","18","6","18","18","3","15","3","2","2","18","15","18","1","3","12","15","18","9","9","6","3","18","3","18","3","18","5","18","9","5","9","6","4","9","2","3","3","9","18","18","3","15","3","15","2","18","2","1","9","4","18","2","2","5","9","9","9","6","4","18","3","9","6","2","3","6"],"larger_num":["4","8","2","2","12","8","10","8","2","16","10","16","10","12","8","16","24","10","8","20","10","20","8","4","20","20","12","10","12","20","10","6","18","20","4","16","20","8","12","4","4","10","20","12","18","4","6","24","12","8","20","12","10","18","20","8","20","20","4","20","4","8","4","20","20","20","2","12","16","20","20","18","10","8","12","20","4","20","12","24","20","20","10","20","10","12","8","12","4","12","12","18","24","20","12","20","12","20","8","20","8","4","12","8","20","8","8","10","10","10","18","8","8","20","6","10","24","4","4","24"],"correct_side":[1,1,2,2,1,1,2,1,2,2,1,2,1,1,2,1,1,2,2,2,2,2,1,1,1,2,2,2,1,2,1,2,1,1,1,2,2,1,1,2,2,2,1,1,1,2,2,2,2,2,2,2,1,1,2,2,2,1,1,1,1,1,1,1,2,2,2,2,2,1,1,2,2,1,2,2,1,2,2,1,2,1,1,2,1,1,1,2,1,2,2,2,1,2,2,2,2,2,1,2,1,2,2,1,2,2,1,2,2,2,1,2,1,1,2,2,1,1,1,2],"img_shown":["img/750/randomdotsizeEA/L/9_Ratio_750_L_4_R_3.png","img/250/equaldotanddens/L/3_Ratio_250_L_8_R_2.png","img/500/equaldotsize/R/15_Ratio_500_L_1_R_2.png","img/500/equaldotanddens/R/15_Ratio_500_L_1_R_2.png","img/250/equaldotsize/L/15_Ratio_250_L_12_R_3.png","img/500/equaldotsize/L/8_Ratio_500_L_8_R_4.png","img/900/randomdotsizeEA/R/7_Ratio_900_L_9_R_10.png","img/500/equaldotsize/L/8_Ratio_500_L_8_R_4.png","img/500/randomdotsizeEA/R/15_Ratio_500_L_1_R_2.png","img/750/equaldotanddens/R/11_Ratio_750_L_12_R_16.png","img/900/equaldotsize/L/1_Ratio_900_L_10_R_9.png","img/750/equaldotanddens/R/11_Ratio_750_L_12_R_16.png","img/900/equaldotanddens/L/1_Ratio_900_L_10_R_9.png","img/250/equaldotanddens/L/15_Ratio_250_L_12_R_3.png","img/250/randomdotsizeEA/R/13_Ratio_250_L_2_R_8.png","img/250/equaldotanddens/L/2_Ratio_250_L_16_R_4.png","img/750/randomdotsizeEA/L/6_Ratio_750_L_24_R_18.png","img/900/equaldotsize/R/7_Ratio_900_L_9_R_10.png","img/250/equaldotsize/R/13_Ratio_250_L_2_R_8.png","img/750/randomdotsizeEA/R/5_Ratio_750_L_15_R_20.png","img/900/equaldotsize/R/3_Ratio_900_L_9_R_10.png","img/900/equaldotsize/R/14_Ratio_900_L_18_R_20.png","img/750/randomdotsizeEA/L/14_Ratio_750_L_8_R_6.png","img/750/equaldotsize/L/10_Ratio_750_L_4_R_3.png","img/900/equaldotanddens/L/4_Ratio_900_L_20_R_18.png","img/900/equaldotanddens/R/12_Ratio_900_L_18_R_20.png","img/250/equaldotsize/R/4_Ratio_250_L_3_R_12.png","img/500/randomdotsizeEA/R/14_Ratio_500_L_5_R_10.png","img/500/randomdotsizeEA/L/13_Ratio_500_L_12_R_6.png","img/500/equaldotanddens/R/3_Ratio_500_L_10_R_20.png","img/500/equaldotsize/L/7_Ratio_500_L_10_R_5.png","img/500/randomdotsizeEA/R/2_Ratio_500_L_3_R_6.png","img/500/randomdotsizeEA/L/4_Ratio_500_L_18_R_9.png","img/900/equaldotanddens/L/8_Ratio_900_L_20_R_18.png","img/750/equaldotanddens/L/10_Ratio_750_L_4_R_3.png","img/250/randomdotsizeEA/R/10_Ratio_250_L_4_R_16.png","img/750/equaldotanddens/R/4_Ratio_750_L_15_R_20.png","img/750/equaldotanddens/L/14_Ratio_750_L_8_R_6.png","img/500/equaldotanddens/L/13_Ratio_500_L_12_R_6.png","img/500/randomdotsizeEA/R/9_Ratio_500_L_2_R_4.png","img/750/equaldotsize/R/7_Ratio_750_L_3_R_4.png","img/500/equaldotanddens/R/14_Ratio_500_L_5_R_10.png","img/900/equaldotanddens/L/8_Ratio_900_L_20_R_18.png","img/250/randomdotsizeEA/L/14_Ratio_250_L_12_R_3.png","img/500/randomdotsizeEA/L/4_Ratio_500_L_18_R_9.png","img/750/equaldotanddens/R/12_Ratio_750_L_3_R_4.png","img/500/equaldotsize/R/2_Ratio_500_L_3_R_6.png","img/250/randomdotsizeEA/R/6_Ratio_250_L_6_R_24.png","img/250/randomdotsizeEA/R/11_Ratio_250_L_3_R_12.png","img/250/equaldotanddens/R/13_Ratio_250_L_2_R_8.png","img/750/equaldotsize/R/3_Ratio_750_L_15_R_20.png","img/250/randomdotsizeEA/R/11_Ratio_250_L_3_R_12.png","img/900/equaldotanddens/L/1_Ratio_900_L_10_R_9.png","img/500/randomdotsizeEA/L/4_Ratio_500_L_18_R_9.png","img/900/randomdotsizeEA/R/12_Ratio_900_L_18_R_20.png","img/750/equaldotsize/R/2_Ratio_750_L_6_R_8.png","img/900/randomdotsizeEA/R/13_Ratio_900_L_18_R_20.png","img/900/randomdotsizeEA/L/10_Ratio_900_L_20_R_18.png","img/750/equaldotsize/L/8_Ratio_750_L_4_R_3.png","img/750/randomdotsizeEA/L/1_Ratio_750_L_20_R_15.png","img/750/equaldotsize/L/9_Ratio_750_L_4_R_3.png","img/250/randomdotsizeEA/L/1_Ratio_250_L_8_R_2.png","img/500/randomdotsizeEA/L/5_Ratio_500_L_4_R_2.png","img/900/equaldotanddens/L/8_Ratio_900_L_20_R_18.png","img/750/equaldotsize/R/3_Ratio_750_L_15_R_20.png","img/900/equaldotsize/R/9_Ratio_900_L_18_R_20.png","img/500/equaldotanddens/R/12_Ratio_500_L_1_R_2.png","img/250/randomdotsizeEA/R/11_Ratio_250_L_3_R_12.png","img/750/equaldotanddens/R/11_Ratio_750_L_12_R_16.png","img/750/equaldotanddens/L/1_Ratio_750_L_20_R_15.png","img/900/randomdotsizeEA/L/4_Ratio_900_L_20_R_18.png","img/500/randomdotsizeEA/R/1_Ratio_500_L_9_R_18.png","img/900/equaldotsize/R/7_Ratio_900_L_9_R_10.png","img/750/randomdotsizeEA/L/13_Ratio_750_L_8_R_6.png","img/250/equaldotanddens/R/9_Ratio_250_L_3_R_12.png","img/900/randomdotsizeEA/R/14_Ratio_900_L_18_R_20.png","img/750/equaldotsize/L/8_Ratio_750_L_4_R_3.png","img/900/equaldotsize/R/12_Ratio_900_L_18_R_20.png","img/250/equaldotsize/R/9_Ratio_250_L_3_R_12.png","img/750/randomdotsizeEA/L/6_Ratio_750_L_24_R_18.png","img/250/randomdotsizeEA/R/12_Ratio_250_L_5_R_20.png","img/900/equaldotanddens/L/4_Ratio_900_L_20_R_18.png","img/900/equaldotanddens/L/1_Ratio_900_L_10_R_9.png","img/250/equaldotsize/R/12_Ratio_250_L_5_R_20.png","img/900/randomdotsizeEA/L/1_Ratio_900_L_10_R_9.png","img/500/equaldotanddens/L/13_Ratio_500_L_12_R_6.png","img/500/equaldotanddens/L/8_Ratio_500_L_8_R_4.png","img/750/randomdotsizeEA/R/15_Ratio_750_L_9_R_12.png","img/500/equaldotsize/L/10_Ratio_500_L_4_R_2.png","img/250/equaldotsize/R/9_Ratio_250_L_3_R_12.png","img/250/equaldotanddens/R/4_Ratio_250_L_3_R_12.png","img/500/equaldotsize/R/6_Ratio_500_L_9_R_18.png","img/750/equaldotanddens/L/6_Ratio_750_L_24_R_18.png","img/900/equaldotsize/R/14_Ratio_900_L_18_R_20.png","img/250/equaldotanddens/R/9_Ratio_250_L_3_R_12.png","img/750/equaldotsize/R/4_Ratio_750_L_15_R_20.png","img/250/equaldotanddens/R/11_Ratio_250_L_3_R_12.png","img/750/randomdotsizeEA/R/5_Ratio_750_L_15_R_20.png","img/250/equaldotsize/L/3_Ratio_250_L_8_R_2.png","img/900/equaldotanddens/R/9_Ratio_900_L_18_R_20.png","img/250/equaldotanddens/L/1_Ratio_250_L_8_R_2.png","img/250/equaldotsize/R/8_Ratio_250_L_1_R_4.png","img/750/randomdotsizeEA/R/15_Ratio_750_L_9_R_12.png","img/500/equaldotanddens/L/8_Ratio_500_L_8_R_4.png","img/900/randomdotsizeEA/R/11_Ratio_900_L_18_R_20.png","img/250/equaldotsize/R/13_Ratio_250_L_2_R_8.png","img/250/equaldotanddens/L/7_Ratio_250_L_8_R_2.png","img/500/equaldotanddens/R/14_Ratio_500_L_5_R_10.png","img/900/randomdotsizeEA/R/3_Ratio_900_L_9_R_10.png","img/900/equaldotsize/R/6_Ratio_900_L_9_R_10.png","img/500/equaldotsize/L/4_Ratio_500_L_18_R_9.png","img/750/equaldotsize/R/2_Ratio_750_L_6_R_8.png","img/500/equaldotsize/L/8_Ratio_500_L_8_R_4.png","img/900/equaldotsize/L/4_Ratio_900_L_20_R_18.png","img/500/equaldotsize/R/2_Ratio_500_L_3_R_6.png","img/900/randomdotsizeEA/R/5_Ratio_900_L_9_R_10.png","img/250/randomdotsizeEA/L/5_Ratio_250_L_24_R_6.png","img/500/equaldotanddens/L/5_Ratio_500_L_4_R_2.png","img/750/equaldotanddens/L/10_Ratio_750_L_4_R_3.png","img/250/equaldotsize/R/6_Ratio_250_L_6_R_24.png"],"Rat0":[["12_Ratio_0_L_9_R_0.png","13_Ratio_0_L_6_R_0.png","5_Ratio_0_L_2_R_0.png","6_Ratio_0_L_4_R_0.png","8_Ratio_0_L_6_R_0.png"],["1_Ratio_0_L_0_R_17.png","10_Ratio_0_L_0_R_22.png","11_Ratio_0_L_0_R_1.png","14_Ratio_0_L_0_R_24.png","15_Ratio_0_L_0_R_4.png","2_Ratio_0_L_0_R_5.png","3_Ratio_0_L_0_R_17.png","4_Ratio_0_L_0_R_7.png","7_Ratio_0_L_0_R_19.png","9_Ratio_0_L_0_R_15.png"]],"Rat250":[["1_Ratio_250_L_8_R_2.png","14_Ratio_250_L_12_R_3.png","15_Ratio_250_L_12_R_3.png","2_Ratio_250_L_16_R_4.png","3_Ratio_250_L_8_R_2.png","5_Ratio_250_L_24_R_6.png","7_Ratio_250_L_8_R_2.png"],["10_Ratio_250_L_4_R_16.png","11_Ratio_250_L_3_R_12.png","12_Ratio_250_L_5_R_20.png","13_Ratio_250_L_2_R_8.png","4_Ratio_250_L_3_R_12.png","6_Ratio_250_L_6_R_24.png","8_Ratio_250_L_1_R_4.png","9_Ratio_250_L_3_R_12.png"]],"Rat500":[["10_Ratio_500_L_4_R_2.png","11_Ratio_500_L_12_R_6.png","13_Ratio_500_L_12_R_6.png","4_Ratio_500_L_18_R_9.png","5_Ratio_500_L_4_R_2.png","7_Ratio_500_L_10_R_5.png","8_Ratio_500_L_8_R_4.png"],["1_Ratio_500_L_9_R_18.png","12_Ratio_500_L_1_R_2.png","14_Ratio_500_L_5_R_10.png","15_Ratio_500_L_1_R_2.png","2_Ratio_500_L_3_R_6.png","3_Ratio_500_L_10_R_20.png","6_Ratio_500_L_9_R_18.png","9_Ratio_500_L_2_R_4.png"]],"Rat750":[["1_Ratio_750_L_20_R_15.png","10_Ratio_750_L_4_R_3.png","13_Ratio_750_L_8_R_6.png","14_Ratio_750_L_8_R_6.png","6_Ratio_750_L_24_R_18.png","8_Ratio_750_L_4_R_3.png","9_Ratio_750_L_4_R_3.png"],["11_Ratio_750_L_12_R_16.png","12_Ratio_750_L_3_R_4.png","15_Ratio_750_L_9_R_12.png","2_Ratio_750_L_6_R_8.png","3_Ratio_750_L_15_R_20.png","4_Ratio_750_L_15_R_20.png","5_Ratio_750_L_15_R_20.png","7_Ratio_750_L_3_R_4.png"]],"Rat900":[["1_Ratio_900_L_10_R_9.png","10_Ratio_900_L_20_R_18.png","2_Ratio_900_L_20_R_18.png","4_Ratio_900_L_20_R_18.png","8_Ratio_900_L_20_R_18.png"],["11_Ratio_900_L_18_R_20.png","12_Ratio_900_L_18_R_20.png","13_Ratio_900_L_18_R_20.png","14_Ratio_900_L_18_R_20.png","15_Ratio_900_L_9_R_10.png","3_Ratio_900_L_9_R_10.png","5_Ratio_900_L_9_R_10.png","6_Ratio_900_L_9_R_10.png","7_Ratio_900_L_9_R_10.png","9_Ratio_900_L_18_R_20.png"]],"Rat1000":[["10_Ratio_1000_L_16_R_16.png","11_Ratio_1000_L_6_R_6.png","12_Ratio_1000_L_14_R_14.png","13_Ratio_1000_L_20_R_20.png","15_Ratio_1000_L_15_R_15.png","2_Ratio_1000_L_17_R_17.png","4_Ratio_1000_L_9_R_9.png","5_Ratio_1000_L_6_R_6.png","6_Ratio_1000_L_19_R_19.png","8_Ratio_1000_L_14_R_14.png","9_Ratio_1000_L_25_R_25.png"],["1_Ratio_1000_L_1_R_1.png","14_Ratio_1000_L_17_R_17.png","3_Ratio_1000_L_17_R_17.png","7_Ratio_1000_L_6_R_6.png"]]}},{"start_time":1551887679710,"click_time":1551887680887,"finger_time":1551887680447,"fix_duration":1062.6379942594847,"trial":1,"RT":737,"MT":440,"sideResp":1,"stimulus":"img/250/equaldotanddens/L/3_Ratio_250_L_8_R_2.png","xmouse":[819,819,819,819,819,819,819,819,819,819,819,819,819,819,819,819,819,819,819,819,819,819,819,819,819,819,819,819,819,819,819,819,819,819,817,815,808,796,764,723,705,648,618,590,583,575,567,562,558,557,553,553,553,553,553,552,550,543,513],"ymouse":[528,528,528,528,528,528,528,528,528,528,528,528,528,528,528,528,528,528,528,528,528,528,528,528,528,528,528,528,528,528,528,528,528,526,510,494,469,430,345,262,235,153,114,78,69,55,45,38,30,27,22,22,22,22,22,22,23,25,27],"timestamp_mouse":[17,36,58,76,96,116,138,156,176,196,217,237,258,277,297,318,337,357,377,397,417,437,458,477,497,517,537,557,577,596,618,638,657,677,697,717,737,757,777,796,817,837,857,877,897,917,936,958,976,996,1016,1037,1057,1077,1097,1117,1138,1157,1176],"xSR":741.5,"ySR":469.95,"xT1":424.9,"yT1":0,"xT2":1058.1,"yT2":0,"toosoon":0,"cond_shown":"equaldotanddens","ratio_trial":250,"smaller_num":"2","larger_num":"8","correct_side":1,"subjID":"saravalentinasilva11","gender":"1","age":"11","school":"6g"},{"start_time":1551887682678,"click_time":1551887683966,"finger_time":1551887683486,"fix_duration":590.6817354603705,"trial":2,"RT":808,"MT":480,"sideResp":2,"stimulus":"img/500/equaldotsize/R/15_Ratio_500_L_1_R_2.png","xmouse":[782,782,782,782,782,782,782,782,782,782,782,782,782,782,782,782,782,782,782,782,782,782,782,782,782,782,782,782,782,782,782,782,782,782,782,782,782,789,802,819,862,899,912,951,966,982,985,986,989,994,1005,1014,1033,1044,1046,1047,1047,1048,1051,1056,1066,1071,1074,1076,1079],"ymouse":[531,531,531,531,531,531,531,531,531,531,531,531,531,531,531,531,531,531,531,531,531,531,531,531,531,531,531,531,531,531,531,531,531,531,531,531,531,525,509,486,422,356,334,270,246,215,208,203,200,196,185,178,161,151,149,147,147,145,142,135,119,109,106,101,97],"timestamp_mouse":[22,35,50,69,88,108,130,149,169,189,209,230,248,269,288,310,329,350,370,388,409,429,448,468,489,509,530,548,569,589,608,628,649,668,690,710,729,749,769,789,808,828,849,869,889,909,928,950,969,989,1009,1028,1048,1069,1089,1109,1128,1148,1170,1188,1208,1228,1249,1268,1288],"xSR":741.5,"ySR":469.95,"xT1":424.9,"yT1":0,"xT2":1058.1,"yT2":0,"toosoon":0,"cond_shown":"equaldotsize","ratio_trial":500,"smaller_num":"1","larger_num":"2","correct_side":2,"subjID":"saravalentinasilva11","gender":"1","age":"11","school":"6g"},{"start_time":1551887685978,"click_time":1551887687286,"finger_time":1551887686846,"fix_duration":889.3746033059313,"trial":3,"RT":868,"MT":440,"sideResp":2,"stimulus":"img/500/equaldotanddens/R/15_Ratio_500_L_1_R_2.png","xmouse":[812,812,812,812,812,812,812,812,812,812,812,812,812,812,812,812,812,812,812,812,812,812,812,812,812,812,812,812,812,812,812,812,812,812,812,812,812,812,812,812,812,816,839,872,908,969,986,998,1025,1038,1058,1068,1077,1083,1091,1093,1094,1099,1101,1102,1104,1105,1106,1106,1108,1109],"ymouse":[494,494,494,494,494,494,494,494,494,494,494,494,494,494,494,494,494,494,494,494,494,494,494,494,494,494,494,494,494,494,494,494,494,494,494,494,494,494,494,494,494,494,483,470,454,413,396,375,326,289,225,201,181,166,154,143,137,128,123,118,113,110,108,105,101,90],"timestamp_mouse":[9,34,48,69,90,108,130,148,168,189,209,230,248,269,288,310,330,349,368,388,410,430,449,470,489,509,530,548,569,590,608,629,648,669,689,709,730,748,769,788,809,829,848,868,889,908,929,949,968,989,1008,1028,1050,1069,1090,1108,1128,1148,1169,1189,1209,1229,1248,1268,1289,1308],"xSR":741.5,"ySR":469.95,"xT1":424.9,"yT1":0,"xT2":1058.1,"yT2":0,"toosoon":0,"cond_shown":"equaldotanddens","ratio_trial":500,"smaller_num":"1","larger_num":"2","correct_side":2,"subjID":"saravalentinasilva11","gender":"1","age":"11","school":"6g"},{"start_time":1551887691646,"click_time":1551887692946,"finger_time":1551887692486,"fix_duration":878.4177423866228,"trial":4,"RT":840,"MT":460,"sideResp":1,"stimulus":"img/250/equaldotsize/L/15_Ratio_250_L_12_R_3.png","xmouse":[772,772,772,772,772,772,772,772,772,772,772,772,772,772,772,772,772,772,772,772,772,772,772,772,772,772,772,772,772,772,772,772,772,772,772,772,772,772,772,773,767,761,743,727,683,645,623,613,612,612,612,609,594,587,576,568,559,544,534,525,518,512,505,501,495,493],"ymouse":[514,514,514,514,514,514,514,514,514,514,514,514,514,514,514,514,514,514,514,514,514,514,514,514,514,514,514,514,514,514,514,514,514,514,514,514,514,514,514,507,490,472,441,424,402,385,373,363,362,360,358,352,330,318,293,273,252,211,193,174,157,143,122,112,101,97],"timestamp_mouse":[8,20,41,60,80,100,121,142,160,182,202,220,241,261,280,300,322,342,361,382,401,421,441,461,480,501,520,540,560,581,600,621,640,660,681,701,721,740,760,781,801,821,840,861,880,900,920,941,961,980,1000,1021,1041,1061,1081,1102,1121,1141,1161,1181,1202,1221,1241,1260,1280,1300],"xSR":741.5,"ySR":469.95,"xT1":424.9,"yT1":0,"xT2":1058.1,"yT2":0,"toosoon":0,"cond_shown":"equaldotsize","ratio_trial":250,"smaller_num":"3","larger_num":"12","correct_side":1,"subjID":"saravalentinasilva11","gender":"1","age":"11","school":"6g"},{"start_time":1551887694431,"click_time":1551887695287,"finger_time":1551887695028,"fix_duration":422.92156348765985,"trial":5,"RT":597,"MT":259,"sideResp":1,"stimulus":"img/500/equaldotsize/L/8_Ratio_500_L_8_R_4.png","xmouse":[792,792,792,792,792,792,792,792,792,792,792,792,792,792,792,792,792,792,792,792,792,792,792,792,792,792,786,762,744,718,685,638,590,583,579,577,575,572,569,564,552,536,518],"ymouse":[540,540,540,540,540,540,540,540,540,540,540,540,540,540,540,540,540,540,540,540,540,540,540,540,540,536,526,495,472,442,407,373,332,318,309,302,296,275,254,222,166,111,47],"timestamp_mouse":[17,36,56,77,96,115,136,156,175,196,217,236,255,276,295,317,335,356,376,395,415,436,457,475,496,516,537,556,576,597,616,635,655,677,696,716,736,756,775,795,817,837,856],"xSR":741.5,"ySR":469.95,"xT1":424.9,"yT1":0,"xT2":1058.1,"yT2":0,"toosoon":0,"cond_shown":"equaldotsize","ratio_trial":500,"smaller_num":"4","larger_num":"8","correct_side":1,"subjID":"saravalentinasilva11","gender":"1","age":"11","school":"6g"},{"start_time":1551887696602,"click_time":1551887698468,"finger_time":1551887697787,"fix_duration":353.639402624394,"trial":6,"RT":1185,"MT":681,"sideResp":1,"stimulus":"img/900/randomdotsizeEA/R/7_Ratio_900_L_9_R_10.png","xmouse":[775,775,775,775,775,775,775,775,775,775,775,775,775,775,775,775,775,775,775,775,775,775,775,775,775,775,775,775,775,775,775,775,775,775,775,775,775,775,775,775,775,775,775,775,775,775,775,775,775,775,775,775,775,775,775,775,775,775,774,754,735,712,685,647,563,542,534,530,530,528,527,524,519,515,508,505,500,496,492,491,490,490,490,490,490,490,490,490,490,490,490,490,490,490],"ymouse":[496,496,496,496,496,496,496,496,496,496,496,496,496,496,496,496,496,496,496,496,496,496,496,496,496,496,496,496,496,496,496,496,496,496,496,496,496,496,496,496,496,496,496,496,496,496,496,496,496,496,496,496,496,496,496,496,496,496,496,467,442,415,385,351,288,261,249,240,237,232,226,217,206,197,175,164,144,133,125,115,111,109,106,105,103,102,102,102,102,102,102,101,100,99],"timestamp_mouse":[9,24,44,64,85,105,126,144,164,186,205,226,246,265,285,304,325,345,364,384,405,425,444,464,486,504,526,545,565,585,606,625,644,664,686,705,725,744,766,784,805,825,844,865,884,904,925,946,964,986,1006,1025,1046,1066,1086,1105,1124,1145,1165,1185,1204,1225,1245,1265,1284,1306,1325,1345,1365,1385,1404,1425,1445,1465,1485,1505,1524,1545,1566,1584,1604,1626,1644,1665,1684,1706,1726,1744,1766,1785,1805,1824,1845,1866],"xSR":741.5,"ySR":469.95,"xT1":424.9,"yT1":0,"xT2":1058.1,"yT2":0,"toosoon":0,"cond_shown":"randomdotsizeEA","ratio_trial":900,"smaller_num":"9","larger_num":"10","correct_side":2,"subjID":"saravalentinasilva11","gender":"1","age":"11","school":"6g"},{"start_time":1551887699858,"click_time":1551887700827,"finger_time":1551887700687,"fix_duration":250,"trial":7,"RT":829,"MT":140,"sideResp":1,"stimulus":"img/500/equaldotsize/L/8_Ratio_500_L_8_R_4.png","xmouse":[775,775,775,775,775,775,775,775,775,775,775,775,775,775,775,775,775,775,775,775,775,775,775,775,775,775,775,775,775,775,775,775,775,775,775,775,775,775,775,776,769,705,668,613,579,552,524,517,515],"ymouse":[519,519,519,519,519,519,519,519,519,519,519,519,519,519,519,519,519,519,519,519,519,519,519,519,519,519,519,519,519,519,519,519,519,519,519,519,519,519,519,519,508,432,382,294,237,190,125,108,99],"timestamp_mouse":[8,28,49,69,89,108,129,148,169,190,209,229,250,268,289,309,329,349,369,389,409,428,450,470,488,509,529,549,569,590,609,630,650,668,689,709,729,748,770,788,808,829,848,868,889,910,929,948,968],"xSR":741.5,"ySR":469.95,"xT1":424.9,"yT1":0,"xT2":1058.1,"yT2":0,"toosoon":0,"cond_shown":"equaldotsize","ratio_trial":500,"smaller_num":"4","larger_num":"8","correct_side":1,"subjID":"saravalentinasilva11","gender":"1","age":"11","school":"6g"},{"start_time":1551887702609,"click_time":1551887703887,"finger_time":1551887703546,"fix_duration":821.6819883672702,"trial":8,"RT":937,"MT":341,"sideResp":2,"stimulus":"img/500/randomdotsizeEA/R/15_Ratio_500_L_1_R_2.png","xmouse":[764,764,764,764,764,764,764,764,764,764,764,764,764,764,764,764,764,764,764,764,764,764,764,764,764,764,764,764,764,764,764,764,764,764,764,764,764,764,764,764,764,764,764,771,803,816,874,897,946,975,1000,1014,1021,1032,1036,1040,1041,1042,1045,1047,1051,1055,1058,1068],"ymouse":[533,533,533,533,533,533,533,533,533,533,533,533,533,533,533,533,533,533,533,533,533,533,533,533,533,533,533,533,533,533,533,533,533,533,533,533,533,533,533,533,533,533,533,531,517,510,480,463,405,364,323,289,261,220,206,187,180,172,157,149,138,126,112,83],"timestamp_mouse":[18,38,58,79,97,118,138,158,177,197,218,238,257,278,297,317,338,358,378,397,418,437,458,478,497,518,538,558,578,598,619,639,658,678,699,718,738,758,779,799,817,837,857,878,898,918,937,959,979,998,1018,1037,1059,1078,1097,1117,1138,1158,1177,1197,1217,1238,1258,1278],"xSR":741.5,"ySR":469.95,"xT1":424.9,"yT1":0,"xT2":1058.1,"yT2":0,"toosoon":0,"cond_shown":"randomdotsizeEA","ratio_trial":500,"smaller_num":"1","larger_num":"2","correct_side":2,"subjID":"saravalentinasilva11","gender":"1","age":"11","school":"6g"},{"start_time":1551887705058,"click_time":1551887706768,"finger_time":1551887706087,"fix_duration":250,"trial":9,"RT":1029,"MT":681,"sideResp":2,"stimulus":"img/750/equaldotanddens/R/11_Ratio_750_L_12_R_16.png","xmouse":[821,821,821,821,821,821,821,821,821,821,821,821,821,821,821,821,821,821,821,821,821,821,821,821,821,821,821,821,821,821,821,821,821,821,821,821,821,821,821,821,821,821,821,821,821,821,821,821,826,830,837,852,867,874,896,912,941,954,966,976,987,1005,1011,1013,1017,1021,1028,1032,1036,1042,1047,1056,1058,1064,1065,1065,1065,1065,1065,1065,1065,1065,1065,1065,1069,1074],"ymouse":[537,537,537,537,537,537,537,537,537,537,537,537,537,537,537,537,537,537,537,537,537,537,537,537,537,537,537,537,537,537,537,537,537,537,537,537,537,537,537,537,537,537,537,537,537,537,537,537,535,531,525,514,497,488,461,438,398,381,364,346,328,296,278,272,251,237,211,195,181,168,155,129,123,109,107,107,107,107,107,107,107,107,107,107,102,96],"timestamp_mouse":[10,38,50,69,88,108,128,149,169,189,209,229,249,269,288,309,330,350,368,389,409,429,450,470,488,509,529,549,569,589,610,628,649,668,689,710,728,750,768,789,809,830,850,870,889,909,929,949,968,989,1010,1028,1048,1069,1090,1109,1128,1148,1169,1188,1209,1228,1249,1269,1289,1308,1328,1348,1368,1390,1410,1429,1449,1468,1489,1510,1529,1549,1569,1589,1608,1628,1649,1668,1689,1710],"xSR":741.5,"ySR":469.95,"xT1":424.9,"yT1":0,"xT2":1058.1,"yT2":0,"toosoon":0,"cond_shown":"equaldotanddens","ratio_trial":750,"smaller_num":"12","larger_num":"16","correct_side":2,"subjID":"saravalentinasilva11","gender":"1","age":"11","school":"6g"},{"start_time":1551887708098,"click_time":1551887709406,"finger_time":1551887709126,"fix_duration":250,"trial":10,"RT":1028,"MT":280,"sideResp":1,"stimulus":"img/900/equaldotsize/L/1_Ratio_900_L_10_R_9.png","xmouse":[826,826,826,826,826,826,826,826,826,826,826,826,826,826,826,826,826,826,826,826,826,826,826,826,826,826,826,826,826,826,826,826,826,826,826,826,826,826,826,826,826,826,826,826,826,826,826,826,826,809,746,669,598,543,485,475,472,471,470,466,464,461,460,460,460,460],"ymouse":[528,528,528,528,528,528,528,528,528,528,528,528,528,528,528,528,528,528,528,528,528,528,528,528,528,528,528,528,528,528,528,528,528,528,528,528,528,528,528,528,528,528,528,528,528,528,528,528,528,517,475,436,397,362,304,283,266,249,233,199,182,157,140,125,100,90],"timestamp_mouse":[8,31,49,68,89,109,129,150,169,188,210,228,248,268,290,310,330,349,369,390,408,428,449,468,489,509,529,550,568,588,610,629,650,668,689,708,728,748,769,788,808,828,850,869,889,908,930,949,969,988,1009,1028,1050,1069,1089,1108,1129,1149,1168,1188,1208,1228,1249,1269,1289,1308],"xSR":741.5,"ySR":469.95,"xT1":424.9,"yT1":0,"xT2":1058.1,"yT2":0,"toosoon":0,"cond_shown":"equaldotsize","ratio_trial":900,"smaller_num":"9","larger_num":"10","correct_side":1,"subjID":"saravalentinasilva11","gender":"1","age":"11","school":"6g"},{"start_time":1551887711178,"click_time":1551887712868,"finger_time":1551887712506,"fix_duration":629.9792663727019,"trial":11,"RT":1328,"MT":362,"sideResp":2,"stimulus":"img/750/equaldotanddens/R/11_Ratio_750_L_12_R_16.png","xmouse":[743,743,743,743,743,743,743,743,743,743,743,743,743,743,743,743,743,743,743,743,743,743,743,743,743,743,743,743,743,743,743,743,743,743,743,743,743,743,743,743,743,743,743,743,743,743,743,743,743,743,743,743,743,743,743,743,743,743,743,743,743,743,743,743,744,767,816,851,882,895,921,936,954,969,982,1013,1036,1043,1046,1048,1050,1051,1054,1058,1061],"ymouse":[500,500,500,500,500,500,500,500,500,500,500,500,500,500,500,500,500,500,500,500,500,500,500,500,500,500,500,500,500,500,500,500,500,500,500,500,500,500,500,500,500,500,500,500,500,500,500,500,500,500,500,500,500,500,500,500,500,500,500,500,500,500,500,500,500,485,442,399,357,339,304,287,269,251,235,190,144,127,118,114,111,109,102,94,84],"timestamp_mouse":[9,29,49,68,89,109,130,149,169,189,209,230,249,270,288,309,328,349,369,388,409,429,448,470,488,508,529,549,570,588,609,628,650,669,689,709,729,748,769,789,808,829,850,868,889,909,930,948,968,989,1010,1029,1049,1069,1089,1109,1129,1150,1170,1189,1208,1229,1249,1269,1289,1309,1328,1349,1369,1389,1408,1428,1449,1469,1489,1509,1528,1548,1569,1589,1609,1629,1648,1670,1690],"xSR":741.5,"ySR":469.95,"xT1":424.9,"yT1":0,"xT2":1058.1,"yT2":0,"toosoon":0,"cond_shown":"equaldotanddens","ratio_trial":750,"smaller_num":"12","larger_num":"16","correct_side":2,"subjID":"saravalentinasilva11","gender":"1","age":"11","school":"6g"},{"start_time":1551887714876,"click_time":1551887719386,"finger_time":1551887719166,"fix_duration":968.1245452576543,"trial":12,"RT":4290,"MT":220,"sideResp":2,"stimulus":"img/900/equaldotanddens/L/1_Ratio_900_L_10_R_9.png","xmouse":[801,801,801,801,801,801,801,801,801,801,801,801,801,801,801,801,801,801,801,801,801,801,801,801,801,801,801,801,801,801,801,801,801,801,801,801,801,801,801,801,801,801,801,801,801,801,801,801,801,801,801,801,801,801,801,801,801,801,801,801,801,801,801,801,801,801,801,801,801,801,801,801,801,801,801,801,801,801,801,801,801,801,801,801,801,801,801,801,801,801,801,801,801,801,801,802,802,802,802,802,802,802,802,802,802,802,802,802,802,802,802,802,802,802,802,802,802,802,802,802,802,802,802,802,802,802,802,802,802,802,802,802,802,802,802,802,802,802,802,802,802,802,802,802,802,802,802,802,802,802,802,802,802,802,802,802,802,802,802,802,802,802,802,802,802,802,802,802,802,802,802,802,802,802,802,802,802,802,802,802,802,802,802,802,802,802,802,802,802,802,802,802,802,802,802,802,802,802,802,802,802,802,802,802,802,802,802,802,802,802,802,802,816,840,874,947,972,994,1011,1027,1063,1086,1101,1110,1116,1121],"ymouse":[517,517,517,517,517,517,517,517,517,517,517,517,517,517,517,517,517,517,517,517,517,517,517,517,517,517,517,517,517,517,517,517,517,517,517,517,517,517,517,517,517,517,517,517,517,517,517,517,517,517,517,517,517,517,517,517,517,517,517,517,517,517,517,517,517,517,517,517,517,517,517,517,517,517,517,517,517,517,517,517,517,517,517,517,517,517,517,517,517,517,517,517,517,517,517,517,517,517,517,517,517,517,517,517,517,517,517,517,517,517,517,517,517,517,517,517,517,517,517,517,517,517,517,517,517,517,517,517,517,517,517,517,517,517,517,517,517,517,517,517,517,517,517,517,517,517,517,517,517,517,517,517,517,517,517,517,517,517,517,517,517,517,517,517,517,517,517,517,517,517,517,517,517,517,517,517,517,517,517,517,517,517,517,517,517,517,517,517,517,517,517,517,517,517,517,517,517,517,517,517,517,517,517,517,517,517,517,517,517,517,517,517,506,488,465,407,384,360,337,314,252,206,173,147,123,84],"timestamp_mouse":[10,39,50,71,90,112,130,151,171,191,211,231,252,270,292,312,330,351,372,391,411,432,450,472,491,512,531,551,572,590,611,632,651,671,691,710,732,752,770,791,811,831,852,871,890,911,932,951,970,990,1011,1032,1051,1072,1091,1111,1132,1150,1171,1190,1211,1232,1250,1271,1291,1311,1331,1350,1371,1392,1411,1430,1451,1470,1490,1510,1530,1551,1571,1591,1611,1631,1650,1672,1690,1710,1731,1750,1770,1791,1810,1831,1851,1870,1891,1910,1931,1951,1970,1991,2011,2031,2051,2072,2091,2111,2131,2152,2170,2191,2211,2231,2251,2270,2292,2311,2331,2350,2372,2391,2410,2430,2451,2471,2491,2511,2532,2551,2570,2591,2610,2632,2651,2671,2691,2711,2732,2750,2770,2792,2810,2831,2851,2871,2891,2911,2931,2950,2971,2991,3010,3031,3051,3071,3090,3111,3131,3151,3171,3191,3210,3231,3251,3270,3290,3311,3330,3350,3371,3391,3411,3431,3450,3471,3490,3510,3531,3551,3571,3590,3610,3632,3650,3671,3690,3710,3731,3750,3771,3790,3811,3832,3850,3871,3890,3910,3931,3951,3970,3992,4011,4032,4051,4072,4090,4111,4130,4150,4172,4190,4211,4230,4250,4271,4290,4311,4330,4350,4370,4390,4411,4436,4450,4472,4492,4510],"xSR":741.5,"ySR":469.95,"xT1":424.9,"yT1":0,"xT2":1058.1,"yT2":0,"toosoon":0,"cond_shown":"equaldotanddens","ratio_trial":900,"smaller_num":"9","larger_num":"10","correct_side":1,"subjID":"saravalentinasilva11","gender":"1","age":"11","school":"6g"},{"start_time":1551887721878,"click_time":1551887722987,"finger_time":1551887722706,"fix_duration":1489.6322231652568,"trial":13,"RT":828,"MT":281,"sideResp":1,"stimulus":"img/250/equaldotanddens/L/15_Ratio_250_L_12_R_3.png","xmouse":[775,775,775,775,775,775,775,775,775,775,775,775,775,775,775,775,775,775,775,775,775,775,775,775,775,775,775,775,775,775,775,775,775,775,775,775,775,775,775,775,775,761,734,707,680,645,621,581,545,527,519,517,517,513,502,485],"ymouse":[507,507,507,507,507,507,507,507,507,507,507,507,507,507,507,507,507,507,507,507,507,507,507,507,507,507,507,507,507,507,507,507,507,507,507,507,507,507,507,506,480,443,402,352,295,178,126,92,87,91,107,109,109,109,101,93],"timestamp_mouse":[10,34,48,68,89,109,129,150,168,189,209,230,248,268,289,309,330,348,369,389,408,429,448,470,489,509,528,548,569,589,608,630,649,668,689,708,729,748,768,790,808,828,848,868,889,909,928,948,969,988,1009,1029,1048,1070,1088,1108],"xSR":741.5,"ySR":469.95,"xT1":424.9,"yT1":0,"xT2":1058.1,"yT2":0,"toosoon":0,"cond_shown":"equaldotanddens","ratio_trial":250,"smaller_num":"3","larger_num":"12","correct_side":1,"subjID":"saravalentinasilva11","gender":"1","age":"11","school":"6g"},{"start_time":1551887724856,"click_time":1551887726367,"finger_time":1551887726027,"fix_duration":806.8232815955386,"trial":14,"RT":1171,"MT":340,"sideResp":2,"stimulus":"img/250/randomdotsizeEA/R/13_Ratio_250_L_2_R_8.png","xmouse":[829,829,829,829,829,829,829,829,829,829,829,829,829,829,829,829,829,829,829,829,829,829,829,829,829,829,829,829,829,829,829,829,829,829,829,829,829,829,829,829,829,829,829,829,829,829,829,829,829,829,829,829,829,829,829,829,829,839,868,896,920,969,985,1000,1009,1015,1023,1027,1030,1031,1033,1036,1044,1047,1057,1067],"ymouse":[497,497,497,497,497,497,497,497,497,497,497,497,497,497,497,497,497,497,497,497,497,497,497,497,497,497,497,497,497,497,497,497,497,497,497,497,497,497,497,497,497,497,497,497,497,497,497,497,497,497,497,497,497,497,497,497,497,486,457,420,378,272,236,201,181,165,135,122,116,113,110,98,83,77,64,53],"timestamp_mouse":[10,31,51,71,90,110,131,152,170,192,211,230,251,272,292,311,330,350,371,390,411,430,450,471,490,512,532,551,571,591,611,631,651,671,692,710,731,752,772,790,812,831,852,871,890,912,931,950,971,991,1011,1032,1050,1070,1091,1110,1131,1150,1171,1190,1211,1230,1251,1270,1291,1311,1331,1351,1371,1391,1411,1430,1450,1471,1491,1511],"xSR":741.5,"ySR":469.95,"xT1":424.9,"yT1":0,"xT2":1058.1,"yT2":0,"toosoon":0,"cond_shown":"randomdotsizeEA","ratio_trial":250,"smaller_num":"2","larger_num":"8","correct_side":2,"subjID":"saravalentinasilva11","gender":"1","age":"11","school":"6g"},{"start_time":1551887728547,"click_time":1551887730086,"finger_time":1551887729347,"fix_duration":1099.6196503761594,"trial":15,"RT":800,"MT":739,"sideResp":1,"stimulus":"img/250/equaldotanddens/L/2_Ratio_250_L_16_R_4.png","xmouse":[779,779,779,779,779,779,779,779,779,779,779,779,779,779,779,779,779,779,779,779,779,779,779,779,779,779,779,779,779,779,779,779,779,779,779,779,779,779,778,777,773,768,768,768,767,760,756,754,743,743,743,743,743,743,743,743,743,743,743,374,374,372,371,371,371,372,377,394,398,398,401,404,412,414,414,415,418,428],"ymouse":[499,499,499,499,499,499,499,499,499,499,499,499,499,499,499,499,499,499,499,499,499,499,499,499,499,499,499,499,499,499,499,499,499,499,499,499,499,499,488,478,448,401,281,229,180,138,105,48,13,13,13,13,13,13,13,13,13,13,13,10,43,60,75,78,81,87,90,95,95,95,95,93,88,88,87,87,86,84],"timestamp_mouse":[2,22,40,60,80,100,120,140,161,181,200,220,240,260,280,300,319,339,360,379,400,419,439,461,479,500,519,540,559,581,599,619,640,661,679,701,720,739,761,780,800,819,839,860,880,900,920,939,960,981,1000,1020,1040,1060,1080,1100,1121,1140,1160,1180,1201,1220,1239,1259,1280,1300,1321,1340,1359,1379,1401,1420,1441,1459,1480,1499,1520,1539],"xSR":741.5,"ySR":469.95,"xT1":424.9,"yT1":0,"xT2":1058.1,"yT2":0,"toosoon":0,"cond_shown":"equaldotanddens","ratio_trial":250,"smaller_num":"4","larger_num":"16","correct_side":1,"subjID":"saravalentinasilva11","gender":"1","age":"11","school":"6g"},{"start_time":1551887732593,"click_time":1551887734286,"finger_time":1551887734107,"fix_duration":1084.7639221929417,"trial":16,"RT":1514,"MT":179,"sideResp":1,"stimulus":"img/750/randomdotsizeEA/L/6_Ratio_750_L_24_R_18.png","xmouse":[763,763,763,763,763,763,763,763,763,763,763,763,763,763,763,763,763,764,764,765,765,765,765,765,765,765,765,765,765,765,765,765,765,765,765,765,765,765,765,765,765,765,765,765,765,765,765,765,765,765,765,765,765,765,765,765,765,765,765,765,765,765,765,765,765,765,765,765,765,765,765,765,765,765,761,741,708,684,657,618,597,580,562,548,508],"ymouse":[519,519,519,519,519,519,519,519,519,519,519,519,519,519,519,519,519,519,519,519,519,519,519,519,519,519,519,519,519,519,519,519,519,519,519,519,519,519,519,519,519,519,519,519,519,519,519,519,519,519,519,519,519,519,519,519,519,519,519,519,519,519,519,519,519,519,519,519,519,519,519,519,519,519,500,466,408,365,320,247,212,181,151,129,73],"timestamp_mouse":[14,38,54,75,93,113,135,154,173,193,214,234,254,274,294,314,334,354,373,393,415,435,455,474,493,513,534,555,573,594,615,634,653,675,694,715,733,755,775,794,814,834,853,873,894,915,933,954,974,993,1014,1035,1054,1074,1093,1114,1133,1154,1174,1194,1214,1235,1255,1274,1293,1314,1333,1354,1373,1394,1414,1433,1455,1473,1493,1514,1533,1555,1574,1594,1613,1633,1653,1673,1693],"xSR":741.5,"ySR":469.95,"xT1":424.9,"yT1":0,"xT2":1058.1,"yT2":0,"toosoon":0,"cond_shown":"randomdotsizeEA","ratio_trial":750,"smaller_num":"18","larger_num":"24","correct_side":1,"subjID":"saravalentinasilva11","gender":"1","age":"11","school":"6g"},{"start_time":1551887735717,"click_time":1551887737446,"finger_time":1551887736806,"fix_duration":410.1677419646216,"trial":17,"RT":1089,"MT":640,"sideResp":2,"stimulus":"img/900/equaldotsize/R/7_Ratio_900_L_9_R_10.png","xmouse":[764,764,764,764,764,764,764,764,764,764,764,764,764,764,764,764,764,764,764,764,764,764,764,764,764,764,764,764,764,764,764,764,764,764,764,764,764,764,764,764,764,764,764,764,764,764,764,764,764,764,764,764,767,790,818,862,917,981,1097,1167,1191,1191,1191,1191,1191,1191,1191,1191,1191,1191,1191,1191,1191,1224,1215,1208,1204,1202,1202,1202,1202,1202,1202,1201,1189,1169,1156],"ymouse":[506,506,506,506,506,506,506,506,506,506,506,506,506,506,506,506,506,506,506,506,506,506,506,506,506,506,506,506,506,506,506,506,506,506,506,506,506,506,506,506,506,506,506,506,506,506,506,506,506,506,506,506,505,476,441,393,338,274,147,53,20,20,20,20,20,20,20,20,20,20,20,20,20,31,44,53,57,59,59,59,59,59,59,60,60,60,59],"timestamp_mouse":[9,29,48,70,89,109,129,150,169,190,208,229,249,270,290,309,329,349,369,390,409,429,450,469,490,509,530,549,569,588,609,630,649,669,688,710,729,749,769,790,808,828,849,868,889,909,929,950,970,989,1008,1030,1048,1068,1089,1109,1129,1149,1169,1190,1209,1228,1248,1270,1290,1309,1330,1349,1370,1388,1409,1428,1449,1469,1490,1509,1528,1550,1577,1588,1610,1629,1650,1669,1688,1710,1729],"xSR":741.5,"ySR":469.95,"xT1":424.9,"yT1":0,"xT2":1058.1,"yT2":0,"toosoon":0,"cond_shown":"equaldotsize","ratio_trial":900,"smaller_num":"9","larger_num":"10","correct_side":2,"subjID":"saravalentinasilva11","gender":"1","age":"11","school":"6g"},{"start_time":1551887739756,"click_time":1551887740787,"finger_time":1551887740406,"fix_duration":1088.032235324589,"trial":18,"RT":650,"MT":381,"sideResp":2,"stimulus":"img/250/equaldotsize/R/13_Ratio_250_L_2_R_8.png","xmouse":[832,832,832,832,832,832,832,832,832,832,832,832,832,832,832,832,832,832,832,832,832,832,832,832,832,832,832,832,832,832,832,838,845,857,880,908,966,984,995,1012,1023,1040,1045,1050,1054,1057,1063,1064,1064,1064,1064,1068],"ymouse":[496,496,496,496,496,496,496,496,496,496,496,496,496,496,496,496,496,496,496,496,496,496,496,496,496,496,496,496,496,496,496,490,470,444,400,345,262,235,214,183,163,134,126,120,114,110,102,101,101,101,101,95],"timestamp_mouse":[11,33,50,70,91,110,130,150,170,190,210,230,251,270,290,311,329,350,370,391,410,431,450,469,491,510,530,550,570,590,610,629,650,670,690,711,730,751,770,790,810,830,850,870,890,910,930,950,970,990,1010,1030],"xSR":741.5,"ySR":469.95,"xT1":424.9,"yT1":0,"xT2":1058.1,"yT2":0,"toosoon":0,"cond_shown":"equaldotsize","ratio_trial":250,"smaller_num":"2","larger_num":"8","correct_side":2,"subjID":"saravalentinasilva11","gender":"1","age":"11","school":"6g"},{"start_time":1551887742878,"click_time":1551887744806,"finger_time":1551887744086,"fix_duration":250,"trial":19,"RT":1208,"MT":720,"sideResp":2,"stimulus":"img/750/randomdotsizeEA/R/5_Ratio_750_L_15_R_20.png","xmouse":[829,829,829,829,829,829,829,829,829,829,829,829,829,829,829,829,829,829,829,829,829,829,829,829,829,829,829,829,829,829,829,829,829,829,829,829,829,829,829,829,829,829,829,829,829,829,829,829,829,829,829,829,829,829,829,829,829,832,836,840,848,854,862,883,891,893,896,901,907,916,934,940,951,959,969,993,1006,1020,1031,1039,1046,1046,1046,1046,1046,1046,1046,1046,1046,1046,1046,1046,1047,1051,1054,1057,1061],"ymouse":[539,539,539,539,539,539,539,539,539,539,539,539,539,539,539,539,539,539,539,539,539,539,539,539,539,539,539,539,539,539,539,539,539,539,539,539,539,539,539,539,539,539,539,539,539,539,539,539,539,539,539,539,539,539,539,539,536,524,510,495,456,429,400,350,325,295,284,273,263,251,218,205,184,170,153,112,91,72,56,48,39,38,38,38,38,38,38,38,38,38,38,38,38,38,39,40,41],"timestamp_mouse":[8,34,48,68,88,109,128,148,167,189,209,228,249,269,289,309,328,348,367,387,409,428,447,469,488,508,528,548,568,589,608,628,648,667,688,709,728,748,769,789,807,828,849,868,888,907,928,948,968,988,1008,1028,1048,1068,1088,1108,1128,1148,1169,1188,1208,1228,1248,1268,1288,1308,1328,1348,1369,1389,1408,1429,1448,1469,1488,1508,1527,1548,1569,1588,1608,1628,1649,1669,1689,1708,1728,1748,1768,1788,1808,1828,1849,1867,1888,1907,1928],"xSR":741.5,"ySR":469.95,"xT1":424.9,"yT1":0,"xT2":1058.1,"yT2":0,"toosoon":0,"cond_shown":"randomdotsizeEA","ratio_trial":750,"smaller_num":"15","larger_num":"20","correct_side":2,"subjID":"saravalentinasilva11","gender":"1","age":"11","school":"6g"},{"start_time":1551887747352,"click_time":1551887749166,"finger_time":1551887748907,"fix_duration":1225.499052760189,"trial":20,"RT":1555,"MT":259,"sideResp":2,"stimulus":"img/900/equaldotsize/R/3_Ratio_900_L_9_R_10.png","xmouse":[759,759,759,759,759,759,759,759,759,759,759,759,759,759,759,759,759,759,759,759,759,759,759,759,759,759,759,759,759,759,759,759,759,759,759,759,759,759,759,759,759,759,759,759,759,759,759,759,759,759,759,759,759,759,759,759,759,759,759,759,759,759,759,759,759,759,759,759,759,759,759,759,759,759,763,768,792,804,813,822,840,885,919,958,994,1019,1059,1072,1091,1104,1114],"ymouse":[511,511,511,511,511,511,511,511,511,511,511,511,511,511,511,511,511,511,511,511,511,511,511,511,511,511,511,511,511,511,511,511,511,511,511,511,511,511,511,511,511,511,511,511,511,511,511,511,511,511,511,511,511,511,511,511,511,511,511,511,511,511,511,511,511,511,511,511,511,511,511,511,511,511,506,501,477,464,453,445,427,386,352,307,266,236,190,167,134,113,94],"timestamp_mouse":[14,34,54,74,94,114,134,154,175,195,213,234,254,275,294,315,333,355,374,395,414,433,455,474,494,514,534,554,574,593,615,633,655,675,695,714,734,755,773,793,814,834,854,873,895,913,934,953,974,995,1014,1034,1053,1074,1093,1114,1135,1154,1174,1194,1214,1234,1255,1273,1295,1315,1335,1355,1374,1394,1414,1434,1454,1474,1494,1514,1533,1555,1574,1595,1614,1634,1653,1674,1694,1715,1734,1754,1773,1794,1814],"xSR":741.5,"ySR":469.95,"xT1":424.9,"yT1":0,"xT2":1058.1,"yT2":0,"toosoon":0,"cond_shown":"equaldotsize","ratio_trial":900,"smaller_num":"9","larger_num":"10","correct_side":2,"subjID":"saravalentinasilva11","gender":"1","age":"11","school":"6g"},{"start_time":1551887751444,"click_time":1551887753247,"finger_time":1551887752426,"fix_duration":1096.7691150719681,"trial":21,"RT":982,"MT":821,"sideResp":2,"stimulus":"img/900/equaldotsize/R/14_Ratio_900_L_18_R_20.png","xmouse":[833,833,833,833,833,833,833,833,833,833,833,833,833,833,833,833,833,833,833,833,833,833,833,833,833,833,833,833,833,833,833,833,833,833,833,833,833,833,833,833,833,833,833,833,833,833,833,832,839,848,860,880,906,913,915,925,933,961,976,990,1001,1006,1017,1022,1033,1039,1043,1049,1051,1053,1054,1057,1058,1058,1058,1058,1058,1058,1058,1058,1058,1058,1058,1058,1058,1058,1058,1058,1058,1058,1059],"ymouse":[518,518,518,518,518,518,518,518,518,518,518,518,518,518,518,518,518,518,518,518,518,518,518,518,518,518,518,518,518,518,518,518,518,518,518,518,518,518,518,518,518,518,518,518,518,518,518,515,500,479,451,403,341,317,310,289,272,221,195,171,153,140,118,109,97,92,88,83,82,80,79,78,78,78,78,78,78,78,78,78,78,78,78,78,78,78,78,78,78,78,78],"timestamp_mouse":[11,22,42,61,83,102,122,141,162,182,202,222,242,262,282,301,323,342,362,382,401,422,442,461,482,502,522,541,563,582,602,622,642,663,682,701,722,742,761,782,802,822,841,862,882,902,922,943,962,982,1002,1022,1042,1062,1082,1102,1122,1141,1162,1183,1202,1222,1242,1262,1281,1301,1321,1342,1361,1383,1403,1422,1442,1463,1484,1501,1523,1543,1562,1583,1602,1623,1643,1663,1681,1701,1723,1743,1763,1782,1803],"xSR":741.5,"ySR":469.95,"xT1":424.9,"yT1":0,"xT2":1058.1,"yT2":0,"toosoon":0,"cond_shown":"equaldotsize","ratio_trial":900,"smaller_num":"18","larger_num":"20","correct_side":2,"subjID":"saravalentinasilva11","gender":"1","age":"11","school":"6g"},{"start_time":1551887755245,"click_time":1551887756686,"finger_time":1551887756286,"fix_duration":896.2209585077958,"trial":22,"RT":1041,"MT":400,"sideResp":1,"stimulus":"img/750/randomdotsizeEA/L/14_Ratio_750_L_8_R_6.png","xmouse":[792,792,792,792,792,792,792,792,792,792,792,792,792,792,792,792,792,792,792,792,792,792,792,792,792,792,792,792,792,792,792,792,792,792,792,792,792,792,792,792,792,792,792,792,792,788,787,777,770,761,752,744,733,712,695,684,671,643,630,619,610,598,572,562,546,536,524,512,508,503,500,493,478],"ymouse":[530,530,530,530,530,530,530,530,530,530,530,530,530,530,530,530,530,530,530,530,530,530,530,530,530,530,530,530,530,530,530,530,530,530,530,530,530,530,530,530,530,530,530,530,530,527,526,514,504,496,491,484,468,451,437,424,406,364,340,317,296,274,235,221,198,184,170,151,146,138,131,120,97],"timestamp_mouse":[9,21,40,62,82,101,122,142,162,182,200,221,241,261,281,301,321,342,360,381,402,421,441,461,480,502,520,540,562,581,601,621,641,662,681,702,722,740,761,781,801,821,842,860,881,902,921,940,961,981,1000,1021,1041,1061,1080,1101,1122,1141,1161,1181,1201,1221,1241,1260,1281,1301,1320,1340,1360,1380,1402,1422,1441],"xSR":741.5,"ySR":469.95,"xT1":424.9,"yT1":0,"xT2":1058.1,"yT2":0,"toosoon":0,"cond_shown":"randomdotsizeEA","ratio_trial":750,"smaller_num":"6","larger_num":"8","correct_side":1,"subjID":"saravalentinasilva11","gender":"1","age":"11","school":"6g"},{"start_time":1551887759118,"click_time":1551887761626,"finger_time":1551887761227,"fix_duration":1291.7862106092075,"trial":23,"RT":2109,"MT":399,"sideResp":2,"stimulus":"img/750/equaldotsize/L/10_Ratio_750_L_4_R_3.png","xmouse":[751,751,751,751,751,751,751,751,751,751,751,751,751,751,751,751,751,751,751,751,751,751,751,751,751,751,751,751,751,751,751,751,751,751,751,751,751,751,751,751,751,751,751,751,751,751,751,751,751,751,751,751,751,751,751,751,751,751,751,751,751,751,751,751,751,751,751,751,751,751,751,751,751,751,751,751,751,751,751,751,751,751,751,751,751,751,751,751,751,751,751,751,751,751,751,751,751,751,751,751,751,751,752,764,777,791,801,813,848,884,948,991,1020,1064,1077,1086,1090,1092,1095,1098,1102,1105,1108,1114,1119,1123],"ymouse":[500,500,500,500,500,500,500,500,500,500,500,500,500,500,500,500,500,500,500,500,500,500,500,500,500,500,500,500,500,500,500,500,500,500,500,500,500,500,500,500,500,500,500,500,500,500,500,500,500,500,500,500,500,500,500,500,500,500,500,500,500,500,500,500,500,500,500,500,500,500,500,500,500,500,500,500,500,500,500,500,500,500,500,500,500,500,500,500,500,500,500,500,500,500,500,500,500,500,500,500,500,500,500,492,481,467,456,441,402,367,304,262,231,187,171,160,154,152,146,142,133,128,123,111,102,87],"timestamp_mouse":[11,28,48,68,88,108,127,148,168,188,208,228,247,268,287,308,329,348,367,389,408,428,449,468,487,508,528,549,568,588,609,628,647,667,688,708,728,749,768,789,808,828,848,868,888,908,928,947,967,987,1007,1027,1047,1067,1087,1107,1128,1147,1167,1188,1207,1227,1248,1268,1288,1307,1327,1348,1367,1387,1407,1427,1448,1469,1489,1508,1528,1548,1568,1588,1608,1628,1648,1668,1688,1709,1727,1749,1768,1788,1808,1828,1848,1867,1889,1909,1929,1949,1969,1988,2009,2029,2048,2068,2088,2109,2128,2147,2168,2188,2207,2229,2248,2267,2288,2308,2328,2348,2368,2388,2407,2429,2448,2468,2487,2508],"xSR":741.5,"ySR":469.95,"xT1":424.9,"yT1":0,"xT2":1058.1,"yT2":0,"toosoon":0,"cond_shown":"equaldotsize","ratio_trial":750,"smaller_num":"3","larger_num":"4","correct_side":1,"subjID":"saravalentinasilva11","gender":"1","age":"11","school":"6g"},{"start_time":1551887764525,"click_time":1551887766266,"finger_time":1551887765526,"fix_duration":1177.8192316439831,"trial":24,"RT":1001,"MT":740,"sideResp":1,"stimulus":"img/900/equaldotanddens/L/4_Ratio_900_L_20_R_18.png","xmouse":[802,802,802,802,802,802,802,802,802,802,802,802,802,802,802,802,802,802,802,802,802,802,802,802,802,802,802,802,802,802,802,802,802,802,802,802,802,802,802,802,802,802,802,802,802,802,802,800,790,771,762,733,710,634,572,519,463,409,341,321,300,280,272,259,256,251,248,247,247,248,253,263,270,284,293,301,307,316,327,331,338,348,366,394,403,413,423,433],"ymouse":[499,499,499,499,499,499,499,499,499,499,499,499,499,499,499,499,499,499,499,499,499,499,499,499,499,499,499,499,499,499,499,499,499,499,499,499,499,499,499,499,499,499,499,499,499,499,499,499,489,471,463,442,430,396,370,340,308,273,216,194,168,138,124,101,91,82,73,67,66,64,60,57,57,53,52,50,49,49,49,49,51,54,59,67,70,73,75,76],"timestamp_mouse":[11,24,41,61,82,102,121,141,161,181,201,221,241,261,281,301,321,341,361,380,401,421,441,461,481,501,521,541,562,580,600,621,640,661,681,702,720,742,762,781,802,821,840,861,881,901,921,942,960,982,1001,1020,1041,1061,1081,1100,1122,1141,1161,1182,1201,1222,1241,1261,1281,1300,1322,1342,1361,1381,1400,1421,1441,1461,1481,1501,1521,1540,1560,1582,1601,1621,1641,1661,1680,1701,1721,1741],"xSR":741.5,"ySR":469.95,"xT1":424.9,"yT1":0,"xT2":1058.1,"yT2":0,"toosoon":0,"cond_shown":"equaldotanddens","ratio_trial":900,"smaller_num":"18","larger_num":"20","correct_side":1,"subjID":"saravalentinasilva11","gender":"1","age":"11","school":"6g"},{"start_time":1551887767835,"click_time":1551887769546,"finger_time":1551887769146,"fix_duration":467.1335854596815,"trial":25,"RT":1311,"MT":400,"sideResp":1,"stimulus":"img/900/equaldotanddens/R/12_Ratio_900_L_18_R_20.png","xmouse":[768,768,769,769,769,769,769,769,769,769,769,769,769,769,769,769,769,769,769,769,769,769,769,769,769,769,769,769,769,769,769,769,769,769,769,769,769,769,769,769,769,769,769,769,769,770,770,770,770,770,770,770,770,770,770,770,770,771,771,771,772,774,775,774,774,764,754,728,716,704,694,686,666,657,645,639,637,628,616,597,580,564,523,508,492,482],"ymouse":[508,508,508,508,508,508,508,508,508,508,508,508,508,508,508,508,508,508,508,508,508,508,508,508,508,508,508,508,508,508,508,508,508,508,508,508,508,508,508,508,508,508,508,508,508,508,508,508,508,508,508,508,508,508,508,508,508,507,507,506,506,503,491,478,474,454,435,390,370,352,335,319,285,269,245,233,219,182,166,153,144,137,120,111,103,98],"timestamp_mouse":[10,35,51,72,91,111,131,152,171,191,210,232,251,271,291,311,331,351,372,390,411,432,452,471,491,511,532,552,572,592,612,631,651,672,691,711,732,751,770,792,811,832,851,872,892,912,931,951,970,991,1011,1031,1051,1070,1091,1112,1130,1151,1172,1192,1210,1232,1250,1272,1291,1311,1331,1350,1370,1391,1411,1432,1451,1471,1490,1512,1531,1551,1571,1591,1610,1632,1650,1671,1691,1711],"xSR":741.5,"ySR":469.95,"xT1":424.9,"yT1":0,"xT2":1058.1,"yT2":0,"toosoon":0,"cond_shown":"equaldotanddens","ratio_trial":900,"smaller_num":"18","larger_num":"20","correct_side":2,"subjID":"saravalentinasilva11","gender":"1","age":"11","school":"6g"},{"start_time":1551887772578,"click_time":1551887773526,"finger_time":1551887773466,"fix_duration":250,"trial":26,"RT":888,"MT":60,"sideResp":2,"stimulus":"img/250/equaldotsize/R/4_Ratio_250_L_3_R_12.png","xmouse":[786,786,786,786,786,786,786,786,786,786,786,786,786,786,786,786,786,786,786,786,786,786,786,786,786,786,786,786,786,786,786,786,786,786,786,786,786,786,786,786,786,786,786,796,825,936,1028,1075],"ymouse":[512,512,512,512,512,512,512,512,512,512,512,512,512,512,512,512,512,512,512,512,512,512,512,512,512,512,512,512,512,512,512,512,512,512,512,512,512,512,512,512,512,512,499,475,415,240,102,24],"timestamp_mouse":[14,34,47,68,88,108,128,148,168,188,208,228,248,268,288,308,327,349,367,388,408,429,447,468,489,508,528,548,568,588,608,629,649,669,689,708,729,749,767,788,808,828,848,868,888,907,929,948],"xSR":741.5,"ySR":469.95,"xT1":424.9,"yT1":0,"xT2":1058.1,"yT2":0,"toosoon":0,"cond_shown":"equaldotsize","ratio_trial":250,"smaller_num":"3","larger_num":"12","correct_side":2,"subjID":"saravalentinasilva11","gender":"1","age":"11","school":"6g"},{"start_time":1551887775919,"click_time":1551887777525,"finger_time":1551887777046,"fix_duration":1211.5264347436885,"trial":27,"RT":1127,"MT":479,"sideResp":2,"stimulus":"img/500/randomdotsizeEA/R/14_Ratio_500_L_5_R_10.png","xmouse":[810,810,810,810,810,810,810,810,810,810,810,810,810,810,810,810,810,810,810,810,810,810,810,810,810,810,810,810,810,810,810,810,810,810,810,810,810,810,810,810,810,810,810,810,810,810,810,810,810,810,810,810,810,810,809,815,829,851,906,927,945,970,986,1003,1006,1007,1009,1010,1014,1017,1019,1020,1022,1029,1035,1040,1045,1048,1055,1057,1059],"ymouse":[486,486,486,486,486,486,486,486,486,486,486,486,486,486,486,486,486,486,486,486,486,486,486,486,486,486,486,486,486,486,486,486,486,486,486,486,486,486,486,486,486,486,486,486,486,486,486,486,486,486,486,486,486,486,485,473,453,429,365,338,313,280,260,234,228,225,222,218,204,195,187,184,178,153,137,121,108,99,88,84,81],"timestamp_mouse":[9,27,47,67,87,107,127,147,167,186,207,227,246,267,287,308,328,346,367,388,406,427,447,468,488,507,527,547,567,586,608,628,647,667,687,708,727,747,766,788,806,827,847,867,886,907,927,947,967,988,1006,1027,1048,1067,1087,1106,1127,1148,1167,1186,1207,1227,1247,1267,1287,1307,1326,1347,1367,1387,1406,1426,1447,1466,1487,1507,1527,1547,1567,1587,1606],"xSR":741.5,"ySR":469.95,"xT1":424.9,"yT1":0,"xT2":1058.1,"yT2":0,"toosoon":0,"cond_shown":"randomdotsizeEA","ratio_trial":500,"smaller_num":"5","larger_num":"10","correct_side":2,"subjID":"saravalentinasilva11","gender":"1","age":"11","school":"6g"},{"start_time":1551887779053,"click_time":1551887780886,"finger_time":1551887780285,"fix_duration":385.0355111262548,"trial":28,"RT":1232,"MT":601,"sideResp":1,"stimulus":"img/500/randomdotsizeEA/L/13_Ratio_500_L_12_R_6.png","xmouse":[812,812,812,812,812,812,812,812,812,812,812,812,812,812,812,812,812,812,812,812,812,812,812,812,812,812,812,812,812,812,812,812,812,812,812,812,812,812,812,812,812,812,812,812,812,812,812,812,812,812,812,812,812,812,808,801,789,783,776,768,761,744,735,723,699,680,640,632,622,613,607,596,586,568,556,548,538,535,532,529,527,524,524,524,524,524,521,520,519,518,517,515],"ymouse":[521,521,521,521,521,521,521,521,521,521,521,521,521,521,521,521,521,521,521,521,521,521,521,521,521,521,521,521,521,521,521,521,521,521,521,521,521,521,521,521,521,521,521,521,521,521,521,521,521,521,521,521,521,521,519,515,505,500,496,489,481,454,439,420,392,374,339,324,308,290,274,238,219,190,173,161,145,138,134,128,124,119,119,118,118,118,113,110,108,103,101,98],"timestamp_mouse":[13,33,53,73,94,113,133,154,173,193,213,233,254,273,294,313,333,354,374,393,413,433,453,474,494,514,532,553,573,593,613,632,654,673,693,713,733,753,773,793,814,833,853,872,893,912,934,953,974,994,1013,1034,1053,1072,1093,1113,1133,1152,1173,1194,1213,1232,1252,1273,1294,1313,1333,1353,1373,1394,1414,1432,1453,1473,1494,1514,1533,1553,1573,1593,1612,1633,1662,1673,1693,1713,1732,1753,1772,1794,1813,1833],"xSR":741.5,"ySR":469.95,"xT1":424.9,"yT1":0,"xT2":1058.1,"yT2":0,"toosoon":0,"cond_shown":"randomdotsizeEA","ratio_trial":500,"smaller_num":"6","larger_num":"12","correct_side":1,"subjID":"saravalentinasilva11","gender":"1","age":"11","school":"6g"},{"start_time":1551887782791,"click_time":1551887784247,"finger_time":1551887783646,"fix_duration":784.8520948342768,"trial":29,"RT":855,"MT":601,"sideResp":2,"stimulus":"img/500/equaldotanddens/R/3_Ratio_500_L_10_R_20.png","xmouse":[820,820,820,820,820,820,820,821,821,821,821,821,821,821,821,821,821,821,821,821,821,821,821,821,821,821,821,821,821,821,821,821,821,821,821,821,821,821,821,821,824,835,847,856,881,903,913,957,980,989,992,993,995,996,1006,1012,1019,1020,1023,1031,1037,1044,1049,1053,1053,1053,1056,1058,1061,1066,1067,1068,1069],"ymouse":[509,509,509,509,509,509,509,509,509,510,511,511,511,511,511,511,511,511,511,511,511,511,511,511,511,511,511,511,511,511,511,511,511,511,511,511,511,511,511,511,508,495,480,468,443,416,401,347,318,300,293,290,283,278,253,240,224,218,209,186,169,155,145,137,134,133,127,123,115,105,102,101,99],"timestamp_mouse":[15,35,55,75,95,115,135,155,174,195,216,236,256,274,296,315,335,355,375,396,416,436,455,475,496,515,534,555,575,595,615,636,656,675,695,715,735,756,775,795,815,834,855,876,895,914,935,955,975,996,1014,1035,1055,1076,1095,1115,1134,1156,1175,1194,1215,1235,1255,1275,1295,1315,1334,1355,1375,1395,1415,1435,1456],"xSR":741.5,"ySR":469.95,"xT1":424.9,"yT1":0,"xT2":1058.1,"yT2":0,"toosoon":0,"cond_shown":"equaldotanddens","ratio_trial":500,"smaller_num":"10","larger_num":"20","correct_side":2,"subjID":"saravalentinasilva11","gender":"1","age":"11","school":"6g"},{"start_time":1551887785919,"click_time":1551887786926,"finger_time":1551887786786,"fix_duration":250,"trial":30,"RT":867,"MT":140,"sideResp":1,"stimulus":"img/500/equaldotsize/L/7_Ratio_500_L_10_R_5.png","xmouse":[824,824,824,824,824,824,824,824,824,824,824,824,824,824,824,824,824,824,824,824,824,824,824,824,824,824,824,824,824,824,824,824,824,824,824,824,824,824,824,824,824,823,812,779,739,690,645,612,535,500,461],"ymouse":[505,505,505,505,505,505,505,505,505,505,505,505,505,505,505,505,505,505,505,505,505,505,505,505,505,505,505,505,505,505,505,505,505,505,505,505,505,505,505,505,505,501,480,438,408,371,328,286,165,106,55],"timestamp_mouse":[10,27,48,66,87,108,128,147,167,187,207,227,247,266,287,307,327,347,368,387,407,428,447,467,487,508,527,547,568,587,606,626,647,667,688,708,727,747,767,787,807,827,847,867,888,906,927,946,967,987,1006],"xSR":741.5,"ySR":469.95,"xT1":424.9,"yT1":0,"xT2":1058.1,"yT2":0,"toosoon":0,"cond_shown":"equaldotsize","ratio_trial":500,"smaller_num":"5","larger_num":"10","correct_side":1,"subjID":"saravalentinasilva11","gender":"1","age":"11","school":"6g"},{"start_time":1551887788496,"click_time":1551887790086,"finger_time":1551887789786,"fix_duration":408.6166177261731,"trial":31,"RT":1290,"MT":300,"sideResp":2,"stimulus":"img/500/randomdotsizeEA/R/2_Ratio_500_L_3_R_6.png","xmouse":[808,808,808,808,808,808,808,808,808,808,808,808,808,808,808,808,808,808,808,808,808,808,808,808,808,808,808,808,808,808,808,808,808,808,808,808,808,808,808,808,808,808,808,808,808,808,808,808,808,808,808,808,808,808,808,808,808,808,808,808,808,808,812,821,846,860,885,917,951,1040,1077,1103,1125,1130,1131,1131,1131,1131,1131,1134],"ymouse":[510,510,510,510,510,510,510,510,510,510,510,510,510,510,510,510,510,510,510,510,510,510,510,510,510,510,510,510,510,510,510,510,510,510,510,510,510,510,510,510,510,510,510,510,510,510,510,510,510,510,510,510,510,510,510,510,510,510,510,510,510,510,507,495,461,439,404,367,331,246,192,151,120,111,109,109,109,109,108,97],"timestamp_mouse":[11,34,51,70,90,110,130,149,170,191,210,230,249,270,291,309,331,350,370,390,409,431,450,470,491,511,530,549,570,591,610,630,650,670,689,710,730,750,771,790,811,831,850,870,890,910,931,951,970,990,1010,1030,1051,1070,1089,1110,1131,1150,1170,1190,1210,1229,1251,1270,1290,1309,1330,1351,1371,1390,1411,1430,1451,1471,1490,1510,1531,1550,1571,1590],"xSR":741.5,"ySR":469.95,"xT1":424.9,"yT1":0,"xT2":1058.1,"yT2":0,"toosoon":0,"cond_shown":"randomdotsizeEA","ratio_trial":500,"smaller_num":"3","larger_num":"6","correct_side":2,"subjID":"saravalentinasilva11","gender":"1","age":"11","school":"6g"},{"start_time":1551887792010,"click_time":1551887793446,"finger_time":1551887792986,"fix_duration":1162.430854762288,"trial":32,"RT":976,"MT":460,"sideResp":1,"stimulus":"img/500/randomdotsizeEA/L/4_Ratio_500_L_18_R_9.png","xmouse":[797,797,797,797,797,797,797,797,797,797,797,797,797,797,797,797,797,797,797,797,797,797,797,797,797,797,797,797,798,798,798,798,798,798,798,798,798,798,798,798,798,798,798,795,788,783,778,771,748,741,733,727,719,693,680,670,659,657,650,647,644,642,640,632,625,622,612,603,576,558,540,518],"ymouse":[545,545,545,545,545,545,545,545,545,545,545,545,545,545,545,545,545,545,545,545,545,545,545,545,545,545,545,545,545,545,545,545,545,545,545,545,545,545,545,545,545,545,545,537,523,512,499,483,444,433,422,415,404,372,356,345,333,328,311,302,295,291,285,269,252,245,220,200,153,128,102,74],"timestamp_mouse":[16,36,56,76,96,116,136,156,176,197,216,236,257,276,296,316,336,356,377,396,417,437,457,477,496,516,535,555,576,596,617,635,656,676,697,716,736,756,776,795,816,835,856,876,896,915,937,956,976,996,1016,1036,1056,1075,1096,1116,1136,1156,1176,1195,1216,1236,1255,1276,1297,1316,1337,1356,1377,1395,1416,1436],"xSR":741.5,"ySR":469.95,"xT1":424.9,"yT1":0,"xT2":1058.1,"yT2":0,"toosoon":0,"cond_shown":"randomdotsizeEA","ratio_trial":500,"smaller_num":"9","larger_num":"18","correct_side":1,"subjID":"saravalentinasilva11","gender":"1","age":"11","school":"6g"},{"start_time":1551887795618,"click_time":1551887796886,"finger_time":1551887796686,"fix_duration":770.2694539895277,"trial":33,"RT":1068,"MT":200,"sideResp":1,"stimulus":"img/900/equaldotanddens/L/8_Ratio_900_L_20_R_18.png","xmouse":[821,821,821,821,821,821,821,821,821,821,821,821,821,821,821,821,821,821,821,821,821,821,821,821,821,821,821,821,821,821,821,821,821,821,821,821,821,821,821,821,821,821,821,821,821,821,821,821,822,818,813,808,803,785,770,744,728,711,668,641,610,570,535,486],"ymouse":[510,510,510,510,510,510,510,510,510,510,510,510,510,510,510,510,510,510,510,510,510,510,510,510,510,510,510,510,510,510,510,510,510,510,510,510,510,510,510,510,510,510,510,510,510,510,510,510,510,504,495,483,471,440,420,388,369,351,301,267,225,175,126,34],"timestamp_mouse":[10,30,48,68,87,110,129,148,168,188,209,229,249,269,289,309,329,349,369,388,409,428,449,469,489,508,529,549,568,589,609,628,648,669,688,709,730,748,769,789,809,828,849,869,888,909,929,949,969,988,1016,1029,1049,1068,1090,1108,1128,1149,1168,1188,1209,1229,1250,1268],"xSR":741.5,"ySR":469.95,"xT1":424.9,"yT1":0,"xT2":1058.1,"yT2":0,"toosoon":0,"cond_shown":"equaldotanddens","ratio_trial":900,"smaller_num":"18","larger_num":"20","correct_side":1,"subjID":"saravalentinasilva11","gender":"1","age":"11","school":"6g"},{"start_time":1551887799280,"click_time":1551887802286,"finger_time":1551887801066,"fix_duration":250,"trial":34,"RT":1786,"MT":1220,"sideResp":1,"stimulus":"img/750/equaldotanddens/L/10_Ratio_750_L_4_R_3.png","xmouse":[805,805,805,805,805,805,805,805,805,805,805,805,805,805,805,805,805,805,805,805,805,805,805,805,805,805,805,805,805,805,805,805,805,805,805,805,805,805,805,805,805,805,805,805,805,805,805,805,805,805,805,805,805,805,805,805,805,805,805,805,805,805,805,805,805,805,805,805,805,805,805,805,805,805,805,805,805,805,805,805,805,805,805,805,805,805,806,811,819,824,826,826,826,826,826,826,826,826,826,826,826,826,826,822,811,777,759,741,725,703,642,589,537,499,458,395,373,352,335,311,311,311,311,311,311,311,311,311,311,311,311,311,311,311,311,363,373,387,400,408,413,415,415,415,415,415,415,415,416,419,435],"ymouse":[505,505,505,505,505,503,501,500,500,499,499,499,499,499,499,499,499,499,499,499,499,499,499,499,499,499,499,499,499,499,499,499,499,499,499,499,499,499,499,499,499,499,499,499,499,499,499,499,499,499,499,499,499,499,499,499,499,499,499,499,499,499,499,499,499,499,499,499,499,499,499,499,499,499,499,499,499,499,499,499,499,499,499,499,499,499,495,485,473,463,459,459,459,459,459,459,459,459,459,459,459,459,459,459,459,448,441,433,424,409,371,343,308,275,237,156,116,79,50,7,7,7,7,7,7,7,7,7,7,7,7,7,7,7,7,9,16,25,33,37,40,40,40,40,40,40,40,40,40,42,47],"timestamp_mouse":[9,33,47,66,88,107,126,146,167,187,207,226,248,267,286,308,327,346,367,388,406,428,447,468,486,507,526,548,577,588,607,627,647,668,687,707,728,746,768,788,806,828,848,867,888,907,926,947,968,988,1006,1027,1048,1067,1086,1107,1126,1148,1167,1187,1207,1227,1247,1268,1288,1306,1328,1346,1368,1386,1406,1426,1447,1468,1486,1507,1526,1548,1566,1586,1607,1627,1647,1666,1686,1707,1726,1748,1767,1786,1806,1828,1847,1866,1886,1906,1928,1948,1968,1988,2007,2026,2046,2068,2087,2107,2126,2146,2167,2186,2207,2228,2246,2267,2287,2307,2327,2347,2367,2388,2406,2427,2447,2467,2488,2508,2528,2547,2567,2587,2608,2627,2646,2667,2686,2707,2727,2747,2767,2787,2806,2826,2847,2867,2887,2906,2928,2947,2967,2988,3006],"xSR":741.5,"ySR":469.95,"xT1":424.9,"yT1":0,"xT2":1058.1,"yT2":0,"toosoon":0,"cond_shown":"equaldotanddens","ratio_trial":750,"smaller_num":"3","larger_num":"4","correct_side":1,"subjID":"saravalentinasilva11","gender":"1","age":"11","school":"6g"},{"start_time":1551887804551,"click_time":1551887806407,"finger_time":1551887805708,"fix_duration":1103.087991894868,"trial":35,"RT":1157,"MT":699,"sideResp":2,"stimulus":"img/250/randomdotsizeEA/R/10_Ratio_250_L_4_R_16.png","xmouse":[797,797,797,797,797,797,797,797,797,797,797,797,797,797,797,797,797,797,797,797,797,797,797,797,797,797,797,797,797,797,797,797,797,797,797,797,797,797,797,797,797,797,797,797,797,797,797,797,797,797,797,797,797,797,798,803,826,845,876,893,908,927,940,952,961,971,974,975,976,977,977,981,987,991,997,1006,1017,1022,1030,1035,1037,1040,1040,1041,1041,1041,1041,1041,1041,1041,1044,1058,1064],"ymouse":[527,527,527,527,527,527,527,527,527,527,527,527,527,527,527,527,527,527,527,527,527,527,527,527,527,527,527,527,527,527,527,527,527,527,527,528,528,528,528,528,528,528,528,528,528,528,528,528,528,528,528,528,525,521,518,511,481,456,420,404,393,361,330,303,286,273,270,267,265,264,263,258,243,224,204,189,159,142,115,100,90,82,80,78,78,78,78,78,78,78,73,52,43],"timestamp_mouse":[17,36,57,76,96,115,136,155,176,197,217,235,256,275,296,317,336,357,375,397,416,436,456,476,496,515,536,556,575,595,616,635,655,677,696,716,735,755,777,795,816,836,855,876,895,917,935,955,976,996,1016,1035,1055,1075,1096,1116,1135,1157,1176,1197,1216,1236,1256,1275,1296,1316,1335,1356,1375,1395,1416,1435,1455,1476,1496,1515,1535,1556,1576,1596,1616,1636,1656,1675,1696,1716,1736,1757,1776,1796,1817,1836,1856],"xSR":741.5,"ySR":469.95,"xT1":424.9,"yT1":0,"xT2":1058.1,"yT2":0,"toosoon":0,"cond_shown":"randomdotsizeEA","ratio_trial":250,"smaller_num":"4","larger_num":"16","correct_side":2,"subjID":"saravalentinasilva11","gender":"1","age":"11","school":"6g"},{"start_time":1551887808933,"click_time":1551887810587,"finger_time":1551887810086,"fix_duration":1326.3626022418255,"trial":36,"RT":1153,"MT":501,"sideResp":2,"stimulus":"img/750/equaldotanddens/R/4_Ratio_750_L_15_R_20.png","xmouse":[745,745,745,745,745,745,745,745,745,745,745,745,745,745,745,745,745,745,745,745,745,745,745,745,745,745,745,745,745,745,745,745,745,745,745,745,745,745,745,745,745,745,745,745,745,745,745,745,745,745,746,747,752,758,765,775,785,816,838,875,891,906,928,938,947,955,965,980,985,993,999,1006,1018,1023,1025,1027,1031,1039,1042,1045,1050,1054,1067],"ymouse":[519,519,519,519,519,519,519,519,519,519,519,519,519,519,519,519,519,519,519,519,519,519,519,519,519,519,519,519,519,519,519,519,519,519,519,519,519,519,519,519,519,519,519,519,519,519,519,519,519,519,518,517,510,502,493,483,472,442,424,392,378,365,345,336,321,308,293,268,257,239,224,207,179,168,162,155,146,127,119,114,104,96,75],"timestamp_mouse":[21,33,54,74,94,114,133,153,174,195,215,234,254,273,294,314,333,353,374,395,414,435,454,474,494,513,534,553,574,595,614,633,654,673,694,714,735,753,773,794,813,833,854,875,894,913,934,955,974,993,1014,1033,1054,1073,1093,1114,1133,1153,1175,1193,1214,1234,1254,1274,1294,1313,1335,1353,1374,1394,1413,1433,1454,1473,1493,1514,1535,1554,1573,1593,1615,1634,1654],"xSR":741.5,"ySR":469.95,"xT1":424.9,"yT1":0,"xT2":1058.1,"yT2":0,"toosoon":0,"cond_shown":"equaldotanddens","ratio_trial":750,"smaller_num":"15","larger_num":"20","correct_side":2,"subjID":"saravalentinasilva11","gender":"1","age":"11","school":"6g"},{"start_time":1551887811879,"click_time":1551887813148,"finger_time":1551887812767,"fix_duration":311.48035862839185,"trial":37,"RT":888,"MT":381,"sideResp":1,"stimulus":"img/750/equaldotanddens/L/14_Ratio_750_L_8_R_6.png","xmouse":[780,780,780,780,780,780,780,780,780,780,780,780,780,780,780,780,780,780,780,780,780,780,780,780,780,780,780,780,780,780,780,780,780,780,780,780,780,780,780,780,780,773,767,763,758,740,728,719,710,700,682,673,657,646,636,605,590,574,561,547,516,503,485,474],"ymouse":[500,500,500,500,500,500,500,500,500,500,500,500,500,500,500,500,500,500,500,500,500,500,500,500,500,500,500,500,500,500,500,500,500,500,500,500,500,500,500,500,500,492,484,475,466,443,427,415,401,390,368,353,323,306,290,255,237,216,198,178,143,128,107,93],"timestamp_mouse":[10,33,48,67,88,109,129,148,168,187,208,228,247,269,289,307,329,348,368,388,409,429,449,469,487,508,527,549,568,587,608,629,647,668,689,707,728,748,768,788,808,829,847,869,888,908,927,947,968,989,1008,1027,1048,1068,1088,1108,1127,1149,1168,1189,1207,1228,1248,1269],"xSR":741.5,"ySR":469.95,"xT1":424.9,"yT1":0,"xT2":1058.1,"yT2":0,"toosoon":0,"cond_shown":"equaldotanddens","ratio_trial":750,"smaller_num":"6","larger_num":"8","correct_side":1,"subjID":"saravalentinasilva11","gender":"1","age":"11","school":"6g"},{"start_time":1551887815212,"click_time":1551887816746,"finger_time":1551887816066,"fix_duration":1064.925382000011,"trial":38,"RT":854,"MT":680,"sideResp":1,"stimulus":"img/500/equaldotanddens/L/13_Ratio_500_L_12_R_6.png","xmouse":[801,801,801,801,801,801,801,801,801,801,801,801,801,801,801,801,801,801,801,801,801,801,801,801,801,801,801,801,801,801,801,801,801,801,801,801,801,801,801,801,795,786,779,764,757,745,738,734,726,722,719,714,708,699,689,682,673,663,647,639,632,625,618,605,602,600,598,597,593,592,585,577,566,540,528,519,512],"ymouse":[532,532,532,532,532,532,532,532,532,532,532,532,532,532,532,532,532,532,532,532,532,532,532,532,532,532,532,532,532,532,532,532,532,532,532,532,532,532,532,532,517,493,469,434,421,400,386,375,349,337,326,315,302,281,262,248,233,220,202,193,186,179,170,154,150,149,146,145,141,139,134,129,122,109,104,100,97],"timestamp_mouse":[15,35,55,76,95,116,135,154,175,196,214,235,254,274,295,315,334,356,375,395,416,436,455,474,494,515,535,556,576,596,614,636,656,676,695,716,736,754,774,794,815,835,854,874,895,915,935,955,975,995,1015,1034,1054,1074,1096,1115,1136,1155,1176,1194,1215,1235,1256,1276,1295,1315,1335,1356,1376,1394,1415,1435,1454,1474,1496,1514,1534],"xSR":741.5,"ySR":469.95,"xT1":424.9,"yT1":0,"xT2":1058.1,"yT2":0,"toosoon":0,"cond_shown":"equaldotanddens","ratio_trial":500,"smaller_num":"6","larger_num":"12","correct_side":1,"subjID":"saravalentinasilva11","gender":"1","age":"11","school":"6g"},{"start_time":1551887818915,"click_time":1551887820867,"finger_time":1551887820047,"fix_duration":1226.2829517972607,"trial":39,"RT":1132,"MT":820,"sideResp":2,"stimulus":"img/500/randomdotsizeEA/R/9_Ratio_500_L_2_R_4.png","xmouse":[767,767,767,767,767,767,767,767,767,767,767,767,767,767,767,767,767,767,767,767,767,767,767,767,767,767,767,767,767,767,767,767,767,767,767,767,767,767,767,767,767,767,767,767,767,767,767,767,767,770,777,783,785,791,800,812,824,840,873,882,883,890,899,913,919,923,926,929,933,934,934,934,939,942,946,952,956,964,978,987,993,994,994,997,1000,1005,1009,1011,1013,1015,1018,1025,1028,1035,1041,1048,1054,1059],"ymouse":[546,546,546,546,546,546,546,546,546,546,546,546,546,546,546,546,546,546,546,546,546,546,546,546,546,546,546,546,546,546,546,546,546,546,546,546,546,546,546,546,546,546,546,546,546,546,546,546,546,541,531,523,517,506,497,479,460,432,384,370,367,349,332,299,290,284,280,275,268,267,267,267,260,255,248,239,232,222,203,190,182,182,182,179,175,168,163,161,158,156,152,143,138,128,121,110,98,86],"timestamp_mouse":[11,32,51,73,92,112,132,151,173,192,212,233,253,272,291,311,332,351,373,391,413,432,452,472,492,513,533,551,572,592,611,631,653,671,691,713,731,753,771,793,812,833,851,872,892,913,931,953,973,993,1012,1032,1052,1072,1091,1111,1132,1152,1171,1192,1211,1232,1252,1272,1291,1311,1331,1353,1373,1392,1413,1432,1453,1471,1492,1513,1532,1552,1572,1592,1612,1632,1651,1671,1692,1713,1733,1752,1772,1792,1812,1832,1852,1871,1892,1911,1932,1951],"xSR":741.5,"ySR":469.95,"xT1":424.9,"yT1":0,"xT2":1058.1,"yT2":0,"toosoon":0,"cond_shown":"randomdotsizeEA","ratio_trial":500,"smaller_num":"2","larger_num":"4","correct_side":2,"subjID":"saravalentinasilva11","gender":"1","age":"11","school":"6g"},{"start_time":1551887822362,"click_time":1551887824547,"finger_time":1551887823967,"fix_duration":375.5226988888691,"trial":40,"RT":1605,"MT":580,"sideResp":2,"stimulus":"img/750/equaldotsize/R/7_Ratio_750_L_3_R_4.png","xmouse":[813,813,813,813,813,813,812,810,810,810,810,810,810,810,810,810,810,810,810,810,810,810,810,810,810,810,810,810,810,810,810,810,810,810,810,810,810,810,810,810,810,810,810,810,810,810,810,810,810,810,810,810,810,810,810,810,810,810,810,810,810,810,810,810,810,810,810,810,810,810,810,810,810,810,810,810,810,810,812,817,825,843,849,856,868,885,918,934,942,951,957,966,973,980,984,988,997,999,1004,1008,1013,1023,1026,1029,1032,1035,1044,1052,1057,1062],"ymouse":[486,486,486,486,486,487,487,487,487,487,487,487,487,487,487,487,487,487,487,487,487,487,487,487,487,487,487,487,487,487,487,487,487,487,487,487,487,487,487,487,487,487,487,487,487,487,487,487,487,487,487,487,487,487,487,487,487,487,487,487,487,487,487,487,487,487,487,487,487,487,487,487,487,487,487,487,487,486,483,476,464,440,429,417,401,381,327,296,274,253,240,217,203,191,180,171,158,153,148,141,134,119,113,110,106,102,86,71,61,53],"timestamp_mouse":[10,34,44,65,85,104,125,145,165,186,204,225,246,266,285,304,326,345,365,385,406,426,444,466,486,504,525,545,565,585,604,625,644,665,686,704,726,745,764,786,806,824,845,866,884,904,925,945,966,985,1005,1025,1046,1066,1084,1104,1125,1146,1165,1185,1204,1225,1246,1265,1286,1305,1325,1344,1365,1385,1404,1425,1444,1464,1485,1505,1525,1545,1564,1585,1605,1624,1644,1664,1685,1706,1724,1746,1765,1784,1805,1824,1845,1864,1885,1904,1924,1945,1965,1986,2005,2024,2045,2065,2085,2105,2124,2144,2164,2185],"xSR":741.5,"ySR":469.95,"xT1":424.9,"yT1":0,"xT2":1058.1,"yT2":0,"toosoon":0,"cond_shown":"equaldotsize","ratio_trial":750,"smaller_num":"3","larger_num":"4","correct_side":2,"subjID":"saravalentinasilva11","gender":"1","age":"11","school":"6g"},{"start_time":1551887825787,"click_time":1551887827326,"finger_time":1551887826587,"fix_duration":299.36342846000196,"trial":41,"RT":800,"MT":739,"sideResp":2,"stimulus":"img/500/equaldotanddens/R/14_Ratio_500_L_5_R_10.png","xmouse":[779,779,779,779,779,779,779,779,779,779,779,779,779,779,779,779,779,779,779,779,779,779,779,779,777,777,777,776,776,776,776,776,776,776,776,776,778,783,795,809,844,864,885,905,927,994,1057,1086,1105,1116,1123,1125,1125,1125,1125,1126,1127,1129,1129,1129,1129,1129,1129,1129,1131,1132,1132,1132,1132,1132,1132,1133,1133,1133,1133,1133,1132,1131],"ymouse":[525,525,525,525,525,525,525,525,525,525,525,525,525,525,525,525,525,525,525,525,525,525,525,525,525,525,525,525,525,525,525,525,525,525,525,525,522,515,500,481,442,425,406,388,370,312,259,233,217,207,196,194,193,193,193,189,185,179,172,169,163,161,158,155,150,146,144,140,137,135,130,127,125,122,120,112,102,95],"timestamp_mouse":[1,27,40,60,79,101,121,140,161,181,199,221,241,261,281,300,321,341,359,380,400,421,439,459,480,500,519,539,561,580,600,619,640,661,680,699,721,740,761,780,800,819,840,860,880,899,920,939,959,980,1000,1020,1039,1060,1080,1100,1120,1140,1160,1179,1200,1220,1240,1260,1280,1299,1320,1340,1360,1380,1401,1420,1439,1460,1479,1499,1519,1539],"xSR":741.5,"ySR":469.95,"xT1":424.9,"yT1":0,"xT2":1058.1,"yT2":0,"toosoon":0,"cond_shown":"equaldotanddens","ratio_trial":500,"smaller_num":"5","larger_num":"10","correct_side":2,"subjID":"saravalentinasilva11","gender":"1","age":"11","school":"6g"},{"start_time":1551887829565,"click_time":1551887831047,"finger_time":1551887830487,"fix_duration":875.0172078205617,"trial":42,"RT":922,"MT":560,"sideResp":1,"stimulus":"img/900/equaldotanddens/L/8_Ratio_900_L_20_R_18.png","xmouse":[806,806,806,806,806,806,806,806,806,805,805,805,805,805,805,805,805,805,805,805,805,805,805,805,805,805,805,805,805,805,805,805,805,805,805,805,805,805,805,805,805,805,805,792,781,772,715,665,600,555,499,413,395,382,375,369,361,360,360,361,362,367,371,374,376,377,379,381,385,389,394,402,411,421,428],"ymouse":[547,547,547,547,547,547,547,547,547,548,548,548,548,548,548,548,548,548,548,548,548,548,548,548,548,548,548,548,548,548,548,548,548,548,548,548,548,548,548,548,548,548,548,542,531,519,464,416,350,315,283,241,228,217,202,188,155,143,136,134,132,129,127,125,124,123,122,121,118,114,111,102,95,87,80],"timestamp_mouse":[10,31,42,62,81,103,121,141,162,182,201,222,243,262,283,302,321,341,362,382,401,421,442,462,482,502,522,543,561,581,603,621,642,662,683,703,721,743,762,781,803,821,841,862,882,901,922,942,962,982,1002,1022,1041,1061,1082,1103,1121,1142,1161,1182,1202,1222,1242,1261,1281,1301,1322,1342,1362,1381,1401,1422,1442,1462,1482],"xSR":741.5,"ySR":469.95,"xT1":424.9,"yT1":0,"xT2":1058.1,"yT2":0,"toosoon":0,"cond_shown":"equaldotanddens","ratio_trial":900,"smaller_num":"18","larger_num":"20","correct_side":1,"subjID":"saravalentinasilva11","gender":"1","age":"11","school":"6g"},{"start_time":1551887833202,"click_time":1551887834827,"finger_time":1551887834507,"fix_duration":1014.6730621925811,"trial":43,"RT":1305,"MT":320,"sideResp":1,"stimulus":"img/250/randomdotsizeEA/L/14_Ratio_250_L_12_R_3.png","xmouse":[790,790,790,790,790,790,790,790,790,790,790,790,790,790,790,790,790,790,790,790,790,790,790,790,790,790,790,790,790,790,790,790,790,790,790,790,790,790,790,790,790,790,790,790,790,790,790,790,790,790,790,790,790,790,790,790,790,790,790,790,790,790,790,789,780,772,769,752,740,720,713,705,696,686,657,641,614,587,559,508,489,474],"ymouse":[520,520,520,520,520,520,520,520,520,520,520,520,520,520,520,520,520,520,520,520,520,520,520,520,520,520,520,520,520,520,520,520,520,520,520,520,520,520,520,520,520,520,520,520,520,520,520,520,520,520,520,520,520,520,520,520,520,520,520,520,520,520,521,516,488,459,451,425,410,381,363,341,317,294,249,232,207,188,167,130,113,99],"timestamp_mouse":[22,30,45,66,84,105,124,145,164,184,204,225,244,265,285,306,325,346,365,385,405,425,445,465,484,505,524,544,564,585,606,626,646,666,686,705,724,746,765,785,804,824,845,864,885,904,925,946,966,985,1005,1024,1045,1065,1085,1105,1126,1144,1165,1185,1206,1225,1246,1266,1284,1305,1324,1346,1365,1385,1405,1425,1445,1466,1484,1504,1525,1545,1565,1585,1605,1625],"xSR":741.5,"ySR":469.95,"xT1":424.9,"yT1":0,"xT2":1058.1,"yT2":0,"toosoon":0,"cond_shown":"randomdotsizeEA","ratio_trial":250,"smaller_num":"3","larger_num":"12","correct_side":1,"subjID":"saravalentinasilva11","gender":"1","age":"11","school":"6g"},{"start_time":1551887838159,"click_time":1551887840147,"finger_time":1551887839647,"fix_duration":910.3940641017454,"trial":44,"RT":1488,"MT":500,"sideResp":1,"stimulus":"img/500/randomdotsizeEA/L/4_Ratio_500_L_18_R_9.png","xmouse":[782,782,782,782,782,782,782,782,782,782,782,782,782,782,782,782,782,782,782,782,782,782,782,782,782,782,782,782,782,782,782,782,782,781,781,781,781,781,781,781,781,781,781,781,781,781,781,781,781,781,781,781,781,781,781,781,781,781,781,781,781,781,781,781,781,781,781,781,781,781,781,781,776,772,758,749,725,710,694,673,654,622,610,598,588,577,555,540,538,535,535,535,535,535,535,535,534,527,524,514],"ymouse":[502,502,502,502,502,502,502,502,502,502,502,502,502,502,502,502,502,502,502,502,502,502,502,502,502,502,502,501,501,501,501,501,501,501,501,501,501,501,501,501,501,501,501,501,501,501,501,501,501,501,501,501,501,501,501,501,501,501,501,501,501,501,501,501,501,501,501,501,501,501,501,501,493,485,461,439,397,373,350,315,288,241,222,204,190,176,149,132,129,125,125,125,125,125,125,125,122,109,102,80],"timestamp_mouse":[10,38,48,68,88,107,129,148,167,188,209,227,248,269,288,309,327,349,368,388,408,428,449,469,487,508,527,548,568,589,608,627,648,667,688,708,729,749,768,788,808,829,849,868,888,908,929,948,968,987,1008,1028,1049,1068,1088,1108,1128,1148,1169,1189,1208,1227,1249,1268,1288,1309,1327,1348,1368,1389,1407,1428,1448,1468,1488,1508,1528,1549,1568,1587,1608,1629,1648,1668,1688,1708,1728,1747,1767,1789,1808,1828,1847,1868,1887,1908,1927,1949,1967,1988],"xSR":741.5,"ySR":469.95,"xT1":424.9,"yT1":0,"xT2":1058.1,"yT2":0,"toosoon":0,"cond_shown":"randomdotsizeEA","ratio_trial":500,"smaller_num":"9","larger_num":"18","correct_side":1,"subjID":"saravalentinasilva11","gender":"1","age":"11","school":"6g"},{"start_time":1551887841481,"click_time":1551887842847,"finger_time":1551887842466,"fix_duration":272.8311026964773,"trial":45,"RT":985,"MT":381,"sideResp":2,"stimulus":"img/750/equaldotanddens/R/12_Ratio_750_L_3_R_4.png","xmouse":[779,779,779,779,779,779,779,779,779,779,779,779,779,779,779,779,779,779,779,779,779,779,779,779,779,779,779,779,779,779,779,779,779,779,779,779,779,779,779,779,779,779,779,779,779,780,786,802,833,876,1017,1065,1093,1102,1106,1112,1114,1114,1114,1114,1116,1118,1120,1123,1124,1127,1128,1129,1129],"ymouse":[510,510,510,510,510,510,510,510,510,510,510,510,510,510,510,510,510,510,510,510,510,510,510,510,510,510,510,510,510,510,510,510,510,510,510,510,510,510,510,510,510,510,510,510,510,510,507,494,475,447,338,290,244,227,218,207,204,204,204,204,201,193,176,149,134,117,110,103,97],"timestamp_mouse":[8,31,47,66,86,106,125,147,166,186,206,226,246,265,286,306,326,346,365,387,407,427,447,469,486,505,526,547,565,586,605,625,646,666,685,706,727,745,765,787,806,827,846,865,886,906,926,946,966,985,1006,1025,1046,1067,1086,1106,1127,1146,1167,1186,1205,1226,1245,1265,1286,1306,1326,1346,1366],"xSR":741.5,"ySR":469.95,"xT1":424.9,"yT1":0,"xT2":1058.1,"yT2":0,"toosoon":0,"cond_shown":"equaldotanddens","ratio_trial":750,"smaller_num":"3","larger_num":"4","correct_side":2,"subjID":"saravalentinasilva11","gender":"1","age":"11","school":"6g"},{"start_time":1551887844700,"click_time":1551887846508,"finger_time":1551887845706,"fix_duration":611.3142130947258,"trial":46,"RT":1006,"MT":802,"sideResp":2,"stimulus":"img/500/equaldotsize/R/2_Ratio_500_L_3_R_6.png","xmouse":[828,828,828,828,828,828,828,828,828,828,828,828,828,828,828,826,826,826,825,825,825,825,825,825,825,825,825,825,825,825,825,825,825,825,825,825,825,825,825,825,825,825,825,825,825,825,825,825,825,825,824,824,824,828,835,839,847,855,872,935,946,989,1011,1023,1024,1024,1024,1024,1024,1024,1024,1024,1024,1025,1030,1031,1033,1033,1034,1036,1037,1037,1037,1037,1038,1040,1043,1047,1051,1058,1060],"ymouse":[470,470,470,470,470,470,470,470,470,470,470,470,470,470,470,470,470,470,471,471,471,471,471,471,471,471,471,471,471,471,471,471,471,471,471,471,471,471,471,471,471,471,471,471,471,471,471,471,471,471,468,465,453,441,421,411,394,373,343,238,215,143,114,103,101,101,101,101,101,101,101,101,101,101,95,93,92,91,89,87,86,86,86,86,85,82,78,74,70,63,59],"timestamp_mouse":[9,33,48,67,87,107,127,148,167,187,207,226,247,267,286,307,327,347,368,387,406,426,448,466,487,508,527,547,568,587,606,626,647,667,688,707,727,747,766,787,806,826,847,868,886,907,928,946,968,987,1006,1027,1047,1067,1087,1107,1126,1146,1168,1186,1207,1227,1246,1267,1287,1307,1327,1348,1366,1387,1407,1427,1447,1468,1488,1506,1526,1547,1567,1586,1607,1626,1647,1668,1687,1707,1727,1747,1768,1786,1807],"xSR":741.5,"ySR":469.95,"xT1":424.9,"yT1":0,"xT2":1058.1,"yT2":0,"toosoon":0,"cond_shown":"equaldotsize","ratio_trial":500,"smaller_num":"3","larger_num":"6","correct_side":2,"subjID":"saravalentinasilva11","gender":"1","age":"11","school":"6g"},{"start_time":1551887847899,"click_time":1551887849987,"finger_time":1551887848987,"fix_duration":390.84041428751283,"trial":47,"RT":1088,"MT":1000,"sideResp":2,"stimulus":"img/250/randomdotsizeEA/R/6_Ratio_250_L_6_R_24.png","xmouse":[768,768,768,768,768,768,768,768,768,768,768,768,768,768,768,768,768,768,768,768,768,768,768,768,768,768,768,768,768,768,768,768,768,768,767,766,765,765,765,765,765,765,765,765,765,765,765,765,767,768,771,774,784,792,810,821,834,845,856,885,891,909,919,927,938,943,948,954,961,975,980,986,989,990,993,995,996,1001,1007,1023,1030,1037,1041,1044,1052,1053,1053,1053,1053,1053,1053,1053,1053,1053,1054,1054,1054,1054,1054,1054,1055,1056,1057,1058,1060],"ymouse":[519,519,519,519,519,519,519,519,519,519,519,519,519,519,519,519,519,519,519,519,519,519,519,519,519,519,519,519,519,519,519,519,519,519,519,521,521,521,521,521,521,521,521,521,521,521,521,522,522,520,517,512,498,488,469,459,448,439,431,407,402,386,376,369,353,347,338,328,316,291,282,271,264,258,248,243,237,227,212,175,157,137,123,112,94,92,91,91,91,91,91,91,91,90,89,88,88,88,88,88,88,86,85,84,82],"timestamp_mouse":[8,34,49,67,88,109,128,147,167,188,209,227,247,268,288,308,328,348,369,388,407,427,447,467,487,507,529,549,569,587,609,627,649,668,687,708,728,748,768,788,808,829,847,867,888,907,928,948,969,989,1009,1028,1047,1068,1088,1107,1128,1148,1167,1188,1208,1228,1248,1268,1287,1307,1328,1348,1368,1388,1407,1427,1448,1468,1488,1508,1528,1548,1568,1587,1608,1628,1649,1668,1688,1708,1728,1748,1768,1788,1809,1828,1847,1867,1887,1909,1929,1948,1969,1987,2007,2027,2048,2068,2088],"xSR":741.5,"ySR":469.95,"xT1":424.9,"yT1":0,"xT2":1058.1,"yT2":0,"toosoon":0,"cond_shown":"randomdotsizeEA","ratio_trial":250,"smaller_num":"6","larger_num":"24","correct_side":2,"subjID":"saravalentinasilva11","gender":"1","age":"11","school":"6g"},{"start_time":1551887851375,"click_time":1551887852386,"finger_time":1551887852287,"fix_duration":326.9257153164372,"trial":48,"RT":912,"MT":99,"sideResp":2,"stimulus":"img/250/randomdotsizeEA/R/11_Ratio_250_L_3_R_12.png","xmouse":[773,773,773,773,773,773,773,773,772,772,772,772,772,772,772,772,772,772,772,772,772,772,772,772,772,772,772,772,772,772,772,772,772,772,772,772,772,772,772,772,772,772,773,776,783,813,856,872,958,1025,1083],"ymouse":[495,496,496,497,497,497,497,497,497,497,497,497,497,497,497,497,497,497,497,497,497,497,497,497,497,497,497,497,497,497,497,497,497,497,497,497,497,497,497,497,497,497,495,491,479,435,362,343,252,178,92],"timestamp_mouse":[11,32,53,73,92,113,133,151,171,191,213,233,252,272,292,312,333,353,373,391,412,431,453,472,492,513,531,552,572,592,611,631,652,672,691,713,732,751,772,791,813,831,852,872,891,912,932,951,972,991,1011],"xSR":741.5,"ySR":469.95,"xT1":424.9,"yT1":0,"xT2":1058.1,"yT2":0,"toosoon":0,"cond_shown":"randomdotsizeEA","ratio_trial":250,"smaller_num":"3","larger_num":"12","correct_side":2,"subjID":"saravalentinasilva11","gender":"1","age":"11","school":"6g"},{"start_time":1551887854791,"click_time":1551887855806,"finger_time":1551887855447,"fix_duration":803.9796326461129,"trial":49,"RT":656,"MT":359,"sideResp":2,"stimulus":"img/250/equaldotanddens/R/13_Ratio_250_L_2_R_8.png","xmouse":[797,797,797,797,797,797,797,797,797,797,797,797,797,797,797,797,797,797,797,797,797,797,797,797,797,797,797,797,798,800,804,811,819,830,845,852,876,904,947,1028,1041,1048,1050,1050,1051,1055,1061,1071,1082,1105,1110],"ymouse":[490,490,490,490,490,490,490,490,490,490,490,490,490,490,490,490,490,490,490,490,490,490,490,490,490,490,490,490,490,490,488,480,469,455,428,413,378,339,285,215,203,198,196,196,195,191,181,166,145,104,91],"timestamp_mouse":[15,36,57,76,96,116,136,156,176,195,215,235,257,276,296,317,336,356,375,397,416,436,455,475,496,516,535,556,576,596,616,635,656,676,695,716,736,756,776,797,817,837,856,876,897,916,937,955,976,996,1015],"xSR":741.5,"ySR":469.95,"xT1":424.9,"yT1":0,"xT2":1058.1,"yT2":0,"toosoon":0,"cond_shown":"equaldotanddens","ratio_trial":250,"smaller_num":"2","larger_num":"8","correct_side":2,"subjID":"saravalentinasilva11","gender":"1","age":"11","school":"6g"},{"start_time":1551887858040,"click_time":1551887859727,"finger_time":1551887859447,"fix_duration":830.588614968352,"trial":50,"RT":1407,"MT":280,"sideResp":2,"stimulus":"img/750/equaldotsize/R/3_Ratio_750_L_15_R_20.png","xmouse":[828,828,828,828,828,828,828,826,823,820,818,818,818,818,818,818,818,818,818,818,818,818,818,818,818,818,818,818,818,818,818,818,818,818,818,818,818,818,818,818,818,818,818,818,818,818,818,817,815,815,815,815,815,815,815,815,815,815,815,815,815,815,815,815,815,815,818,821,826,832,838,845,863,876,895,909,925,962,983,1000,1017,1032,1069,1078,1096],"ymouse":[488,488,488,488,488,488,489,491,494,497,499,499,499,499,499,499,499,499,499,499,499,499,499,499,499,499,499,499,499,499,499,499,499,499,499,499,499,499,499,499,499,499,499,499,499,499,499,498,495,495,495,494,494,494,494,494,494,494,494,494,494,494,494,494,494,493,491,489,480,470,460,448,421,405,378,358,338,286,258,239,221,203,141,127,96],"timestamp_mouse":[11,27,48,68,87,106,126,147,167,187,207,227,248,267,287,308,326,347,367,387,407,428,448,468,487,507,527,547,566,587,607,626,647,666,687,707,728,746,767,786,808,827,847,867,888,907,928,947,966,987,1006,1028,1047,1067,1088,1106,1127,1147,1166,1188,1208,1226,1247,1267,1286,1306,1327,1348,1367,1388,1407,1426,1446,1468,1487,1507,1527,1547,1567,1587,1607,1626,1646,1667,1687],"xSR":741.5,"ySR":469.95,"xT1":424.9,"yT1":0,"xT2":1058.1,"yT2":0,"toosoon":0,"cond_shown":"equaldotsize","ratio_trial":750,"smaller_num":"15","larger_num":"20","correct_side":2,"subjID":"saravalentinasilva11","gender":"1","age":"11","school":"6g"},{"start_time":1551887867667,"click_time":1551887869527,"finger_time":1551887868668,"fix_duration":1358.7770582133107,"trial":51,"RT":1001,"MT":859,"sideResp":2,"stimulus":"img/250/randomdotsizeEA/R/11_Ratio_250_L_3_R_12.png","xmouse":[771,771,771,771,771,771,771,771,771,771,771,771,771,771,771,771,771,771,771,771,771,771,771,771,771,771,771,771,771,771,771,771,771,771,771,771,771,771,771,771,771,771,771,771,771,771,771,775,788,807,845,857,865,868,871,874,876,879,881,884,897,907,927,939,955,988,1000,1008,1014,1026,1033,1039,1044,1046,1046,1046,1046,1046,1046,1046,1046,1046,1046,1046,1046,1046,1046,1046,1046,1046,1047,1055,1070],"ymouse":[515,515,515,515,515,515,515,515,515,515,515,515,515,515,515,515,515,515,515,515,515,515,515,515,515,515,515,515,515,515,515,515,515,515,515,515,515,515,515,515,515,515,515,515,515,515,513,506,485,456,401,383,369,362,358,351,348,343,341,336,318,302,271,251,230,186,167,154,138,113,101,91,82,79,79,79,79,79,79,79,79,79,79,79,79,78,78,78,78,78,78,76,66],"timestamp_mouse":[28,40,60,80,100,120,140,161,180,200,219,239,259,280,300,320,340,360,379,401,420,440,461,481,500,521,540,560,580,600,620,640,660,680,701,720,740,760,780,799,819,840,860,880,900,920,940,960,980,1001,1019,1040,1060,1080,1100,1120,1139,1160,1180,1200,1220,1240,1259,1281,1300,1321,1341,1360,1380,1401,1419,1441,1460,1481,1500,1520,1540,1560,1580,1600,1620,1640,1660,1681,1701,1720,1740,1761,1781,1801,1819,1839,1860],"xSR":741.5,"ySR":469.95,"xT1":424.9,"yT1":0,"xT2":1058.1,"yT2":0,"toosoon":0,"cond_shown":"randomdotsizeEA","ratio_trial":250,"smaller_num":"3","larger_num":"12","correct_side":2,"subjID":"saravalentinasilva11","gender":"1","age":"11","school":"6g"},{"start_time":1551887871359,"click_time":1551887873687,"finger_time":1551887873407,"fix_duration":311.6384739084358,"trial":52,"RT":2048,"MT":280,"sideResp":1,"stimulus":"img/900/equaldotanddens/L/1_Ratio_900_L_10_R_9.png","xmouse":[809,809,809,809,809,809,809,809,809,809,809,809,809,809,809,809,809,809,809,809,809,809,809,809,809,809,809,809,809,809,809,809,809,809,809,809,809,809,809,809,809,809,809,809,809,809,809,809,809,809,809,809,809,809,809,809,809,809,809,809,809,809,809,809,809,809,809,809,809,809,809,809,809,809,809,809,809,809,809,809,809,809,809,809,809,809,809,809,809,809,809,809,809,809,808,808,808,808,808,803,800,789,782,773,764,751,701,670,618,587,560,522,507,492,475,458,434],"ymouse":[513,513,513,513,513,513,513,513,513,513,513,513,513,513,513,513,513,513,513,513,513,513,513,513,513,513,513,513,513,513,513,513,513,513,513,513,513,513,513,513,513,513,513,513,513,513,513,513,513,513,513,513,513,513,513,513,513,513,513,513,513,513,513,513,513,513,513,513,513,513,513,513,513,513,513,513,513,513,513,513,513,513,513,513,513,513,513,513,513,513,513,513,513,513,512,512,512,511,507,498,491,474,464,452,438,419,358,323,271,242,217,176,157,140,122,107,81],"timestamp_mouse":[10,36,48,69,87,109,128,148,169,189,207,228,249,269,287,308,329,347,368,388,408,429,449,468,488,508,529,547,567,588,608,627,648,668,689,709,728,748,769,788,809,828,849,868,888,908,928,947,968,988,1008,1028,1048,1068,1089,1108,1127,1148,1168,1188,1207,1228,1248,1268,1289,1309,1327,1349,1368,1387,1409,1428,1447,1469,1487,1508,1528,1548,1569,1588,1607,1628,1648,1668,1688,1709,1727,1749,1769,1787,1808,1828,1847,1867,1888,1908,1927,1949,1968,1988,2008,2028,2048,2068,2088,2108,2127,2149,2168,2188,2208,2228,2247,2269,2288,2308,2327],"xSR":741.5,"ySR":469.95,"xT1":424.9,"yT1":0,"xT2":1058.1,"yT2":0,"toosoon":0,"cond_shown":"equaldotanddens","ratio_trial":900,"smaller_num":"9","larger_num":"10","correct_side":1,"subjID":"saravalentinasilva11","gender":"1","age":"11","school":"6g"},{"start_time":1551887876734,"click_time":1551887877967,"finger_time":1551887877647,"fix_duration":1465.592293708727,"trial":53,"RT":913,"MT":320,"sideResp":1,"stimulus":"img/500/randomdotsizeEA/L/4_Ratio_500_L_18_R_9.png","xmouse":[771,771,771,771,771,771,771,771,771,771,771,769,769,769,769,769,769,769,769,769,769,769,769,769,769,769,768,767,767,766,766,766,766,766,766,766,766,766,766,766,766,766,765,756,746,738,728,711,703,692,689,686,679,673,667,661,654,634,602,592,556,522],"ymouse":[515,515,515,515,515,515,515,515,515,515,515,516,516,516,516,516,516,516,516,516,516,516,516,516,516,516,517,518,519,519,519,519,519,519,519,519,519,519,519,519,519,519,518,503,482,459,439,407,391,371,362,355,342,334,323,311,298,255,203,185,121,74],"timestamp_mouse":[14,32,53,72,93,113,134,153,173,193,214,233,253,273,294,314,333,354,373,394,414,433,452,474,494,514,533,553,573,593,613,633,652,673,693,713,732,753,773,794,812,832,853,872,894,913,932,952,973,993,1012,1033,1053,1074,1093,1113,1133,1153,1174,1192,1213,1233],"xSR":741.5,"ySR":469.95,"xT1":424.9,"yT1":0,"xT2":1058.1,"yT2":0,"toosoon":0,"cond_shown":"randomdotsizeEA","ratio_trial":500,"smaller_num":"9","larger_num":"18","correct_side":1,"subjID":"saravalentinasilva11","gender":"1","age":"11","school":"6g"},{"start_time":1551887880046,"click_time":1551887884068,"finger_time":1551887883127,"fix_duration":738.3773967466906,"trial":54,"RT":3081,"MT":941,"sideResp":2,"stimulus":"img/900/randomdotsizeEA/R/12_Ratio_900_L_18_R_20.png","xmouse":[767,767,767,767,767,767,767,767,767,767,767,767,767,767,767,767,767,767,767,767,767,767,767,767,767,767,767,767,767,767,767,767,767,767,767,767,767,767,767,767,767,767,767,767,767,767,767,767,767,767,767,767,767,767,767,767,767,767,767,767,767,767,767,767,767,767,767,767,767,767,767,767,767,767,767,767,767,767,767,767,767,767,767,767,767,767,767,767,767,767,767,767,767,767,767,767,767,767,767,767,767,767,767,767,767,767,767,767,767,767,767,768,765,763,758,757,756,755,754,754,753,753,753,753,753,753,751,751,750,750,749,748,747,747,746,746,746,746,746,746,746,746,746,746,745,745,745,745,745,745,745,746,747,748,749,752,755,766,774,780,785,790,798,805,807,815,822,840,848,855,862,869,884,893,906,916,926,947,956,964,970,977,984,987,990,992,996,999,1005,1008,1015,1021,1034,1039,1046,1050,1054,1060,1061,1063,1065,1068],"ymouse":[524,524,524,524,524,524,524,524,524,524,524,524,524,524,524,524,524,524,524,524,524,524,524,524,524,524,524,524,524,524,524,524,524,524,524,524,524,524,524,524,524,524,524,524,524,524,524,524,524,524,524,524,524,524,524,524,524,524,524,524,524,524,524,524,524,524,524,524,524,524,524,524,524,524,524,524,524,524,524,524,524,524,524,524,524,524,524,524,524,524,524,524,524,524,524,524,524,524,524,524,524,524,524,524,524,524,524,524,524,524,524,524,516,510,501,498,497,495,494,493,492,492,491,491,491,491,489,488,487,486,485,484,482,481,479,479,479,478,478,478,478,478,478,478,477,477,477,477,476,476,475,474,473,471,469,466,462,449,440,431,425,420,413,408,406,398,391,371,365,360,354,348,336,327,314,304,296,278,272,266,260,254,247,244,241,239,233,228,219,210,198,188,166,155,140,131,123,114,113,110,104,99],"timestamp_mouse":[4,21,42,61,81,100,121,141,161,181,201,221,241,261,281,301,321,341,362,382,401,421,442,462,480,502,521,540,562,581,601,621,641,661,680,701,721,741,762,780,800,822,841,862,882,900,921,942,962,981,1000,1022,1041,1062,1081,1102,1121,1142,1161,1182,1200,1221,1240,1260,1282,1301,1322,1340,1362,1380,1402,1420,1441,1462,1481,1501,1521,1542,1562,1580,1602,1622,1641,1661,1682,1700,1720,1740,1760,1780,1801,1821,1841,1861,1881,1901,1921,1941,1961,1981,2001,2021,2041,2061,2081,2101,2120,2140,2160,2180,2200,2220,2240,2260,2281,2301,2322,2341,2362,2382,2401,2421,2441,2461,2481,2501,2522,2541,2562,2581,2600,2621,2640,2661,2681,2702,2721,2741,2762,2780,2801,2821,2840,2862,2881,2901,2921,2940,2962,2981,3000,3022,3041,3061,3081,3102,3120,3140,3160,3181,3201,3221,3240,3261,3282,3301,3321,3341,3361,3380,3401,3422,3440,3461,3482,3501,3521,3541,3561,3582,3601,3621,3642,3661,3682,3702,3722,3741,3760,3781,3801,3822,3842,3861,3881,3901,3920,3941,3961,3982,4002,4022],"xSR":741.5,"ySR":469.95,"xT1":424.9,"yT1":0,"xT2":1058.1,"yT2":0,"toosoon":0,"cond_shown":"randomdotsizeEA","ratio_trial":900,"smaller_num":"18","larger_num":"20","correct_side":2,"subjID":"saravalentinasilva11","gender":"1","age":"11","school":"6g"},{"start_time":1551887885259,"click_time":1551887887187,"finger_time":1551887886486,"fix_duration":250,"trial":55,"RT":1227,"MT":701,"sideResp":2,"stimulus":"img/750/equaldotsize/R/2_Ratio_750_L_6_R_8.png","xmouse":[805,805,805,805,805,805,805,804,803,803,803,803,803,803,803,802,802,802,802,802,802,802,802,802,802,802,802,800,800,800,800,800,800,800,800,800,800,800,800,800,800,800,800,800,800,800,800,800,800,800,800,800,800,800,800,800,800,801,804,807,812,827,832,841,854,860,875,886,897,908,916,926,931,934,938,945,960,968,974,978,981,985,986,988,991,993,997,1002,1009,1016,1022,1029,1032,1039,1047,1053,1060],"ymouse":[514,514,514,514,514,514,514,516,516,517,517,517,517,517,517,517,517,517,517,517,517,517,517,517,517,517,