[{"start_time":1551891363835,"click_time":1551891372698,"finger_time":1551891363844,"fix_duration":1135.8881825574242,"trial":0,"RT":9,"MT":8854,"sideResp":1,"stimulus":[],"xmouse":[765,765,765,765,765,765,765,765,766,766,766,767,767,767,767,767,767,767,767,767,767,767,767,767,767,767,767,767,767,767,767,767,767,767,765,761,756,756,756,756,757,757,758,760,761,769,780,790,797,799,799,799,799,799,799,799,799,799,799,799,799,799,799,799,799,799,799,799,799,799,799,799,799,799,799,799,799,799,799,799,799,799,799,799,799,799,799,799,799,799,799,799,799,799,799,799,799,799,799,799,799,799,799,799,799,799,799,799,799,799,799,799,799,799,799,799,799,799,799,799,799,798,797,793,789,781,776,771,768,767,767,766,759,756,752,750,750,750,750,749,748,747,747,747,747,747,749,752,757,761,775,782,789,796,803,808,817,819,818,798,469,138,0,0,0,0,0,0,29,130,524,781,1035,1289,1575,1575,1578,1501,1385,1228,947,878,875,875,875,895,914,934,956,971,991,995,996,996,996,996,996,997,1008,1026,1040,1062,1063,1061,1038,1016,963,929,906,894,885,885,884,877,871,862,848,845,844,844,841,835,827,822,819,817,814,814,814,810,808,804,803,803,803,803,803,803,803,803,803,803,803,803,803,803,803,803,803,803,803,803,803,803,803,803,803,803,803,803,803,803,803,803,803,803,803,803,803,803,803,803,803,803,803,803,803,804,804,806,807,808,808,808,808,808,808,808,808,808,809,809,809,809,809,809,809,809,809,809,809,809,809,809,809,810,812,812,813,814,814,814,814,814,814,814,814,814,814,814,814,814,814,814,814,814,814,814,814,814,814,814,814,814,814,814,814,814,814,814,814,814,814,814,814,814,814,813,812,811,810,808,808,807,806,805,804,804,804,804,804,804,804,804,804,804,804,804,804,804,804,804,804,804,804,804,804,804,804,804,804,804,804,804,804,804,804,804,804,804,804,804,804,804,804,804,804,804,804,804,804,804,804,804,804,804,804,804,804,804,804,804,804,804,804,804,801,786,764,739,698,686,686,686,686,688,693,699,705,711,712,712,711,697,683,671,649,636,619,603,562,541,528,518],"ymouse":[475,475,475,475,475,475,475,475,476,476,474,474,474,473,473,473,473,473,473,473,473,473,473,473,473,473,473,473,473,473,473,473,473,477,483,493,512,518,522,525,529,533,536,542,546,565,586,597,605,607,608,608,608,608,608,608,608,608,608,608,608,608,608,608,608,608,608,608,608,608,608,608,608,608,608,608,608,608,608,608,608,608,608,606,605,604,603,603,603,603,603,603,603,603,603,603,603,603,603,603,603,603,603,603,603,603,603,603,603,603,603,603,603,603,603,603,603,603,603,603,603,603,602,602,602,601,601,601,601,601,601,601,601,601,601,601,601,601,601,599,593,587,580,573,566,559,541,530,518,506,472,457,439,422,406,385,356,346,341,337,289,214,94,0,0,0,2,11,43,100,242,299,338,382,438,438,466,470,470,470,470,473,475,475,475,485,497,511,527,542,565,570,570,570,570,570,570,569,548,517,484,429,405,381,362,358,378,405,428,453,553,599,641,680,697,713,733,736,737,737,730,711,690,671,646,634,629,629,629,628,631,635,637,637,637,637,637,637,637,637,637,637,637,637,636,633,632,632,632,632,632,632,632,632,632,632,632,632,632,632,632,632,632,632,632,632,632,632,632,632,632,632,632,632,632,631,630,629,627,626,625,623,623,622,622,622,622,622,622,621,621,621,620,620,620,619,619,619,619,619,619,619,619,619,619,617,615,614,613,612,612,612,612,612,612,612,612,612,612,612,612,612,612,612,612,612,612,612,612,612,612,612,612,612,612,612,612,612,612,611,609,608,608,608,608,608,608,606,605,604,603,601,600,600,599,597,597,597,597,597,597,597,597,597,597,597,597,597,597,597,597,597,597,597,597,597,597,597,597,597,597,597,597,597,597,597,597,597,597,597,597,597,597,597,597,597,597,597,597,597,597,597,597,597,597,597,597,597,597,597,597,597,597,597,597,597,593,586,577,567,548,544,544,544,544,533,520,505,486,455,359,294,246,195,162,142,121,116,113,111,98,91,86,83],"timestamp_mouse":[9,22,42,62,82,103,123,143,163,183,202,222,242,261,283,302,322,343,362,383,402,422,443,463,482,502,521,542,563,583,602,622,642,662,683,702,723,742,763,782,802,821,843,863,882,902,921,942,963,983,1003,1022,1043,1063,1083,1102,1121,1142,1162,1183,1203,1222,1242,1262,1282,1302,1321,1342,1363,1381,1403,1422,1442,1463,1482,1502,1522,1542,1562,1583,1602,1622,1642,1663,1682,1703,1722,1741,1762,1783,1802,1821,1843,1863,1883,1902,1923,1942,1963,1983,2001,2021,2043,2063,2082,2102,2121,2142,2163,2183,2203,2222,2243,2263,2283,2301,2323,2342,2362,2382,2402,2421,2442,2462,2482,2503,2522,2542,2562,2582,2602,2622,2642,2663,2682,2701,2723,2742,2762,2781,2802,2822,2842,2863,2881,2903,2923,2942,2963,2982,3002,3021,3042,3063,3083,3102,3123,3142,3163,3183,3202,3222,3242,3263,3282,3303,3322,3342,3362,3382,3402,3421,3441,3461,3482,3502,3521,3543,3562,3582,3602,3622,3641,3662,3683,3702,3723,3742,3762,3783,3802,3822,3842,3862,3882,3901,3922,3942,3963,3982,4002,4022,4042,4062,4081,4102,4123,4142,4161,4183,4202,4221,4243,4262,4282,4302,4323,4342,4362,4382,4402,4421,4442,4462,4482,4502,4522,4541,4561,4581,4601,4621,4643,4663,4682,4702,4722,4741,4762,4781,4801,4821,4841,4861,4883,4901,4923,4943,4963,4983,5003,5022,5043,5062,5083,5102,5122,5142,5162,5183,5202,5222,5242,5262,5282,5302,5322,5342,5362,5382,5402,5422,5442,5462,5482,5503,5523,5542,5562,5583,5603,5623,5642,5663,5682,5702,5723,5743,5761,5782,5803,5823,5841,5862,5883,5902,5923,5943,5962,5983,6003,6022,6042,6062,6082,6102,6122,6142,6162,6183,6202,6222,6241,6261,6282,6303,6321,6341,6363,6383,6403,6422,6442,6462,6481,6502,6522,6542,6563,6582,6602,6623,6642,6661,6682,6702,6723,6742,6763,6783,6802,6822,6842,6861,6881,6902,6921,6942,6963,6983,7003,7022,7042,7062,7082,7102,7123,7142,7163,7181,7203,7223,7243,7263,7282,7301,7321,7341,7361,7381,7402,7421,7442,7462,7482,7501,7521,7542,7561,7581,7601,7621,7641,7661,7681,7701,7721,7741,7761,7781,7801,7821,7841,7863,7883,7903,7922,7943,7961,7983,8003,8022,8042,8063,8082,8102,8122,8142,8162,8182,8202,8222,8243,8262,8282,8302,8322,8342,8362,8382,8401,8422,8443,8462,8483,8501,8522,8542,8562,8582,8601,8622,8643,8663,8681,8702,8722,8742,8762,8782,8802,8821,8842,8863],"xSR":741.5,"ySR":449.15000000000003,"xT1":424.9,"yT1":0,"xT2":1058.1,"yT2":0,"toosoon":0,"cond_shown":"Incongruent","ratio_trial":100,"L_num":3,"L_den":9,"R_num":7,"R_den":30,"correct_side":1,"subjID":"angelasofiasantamariasuarez14","gender":"1","age":"10","school":"6","test":{"fix_dur":[250,1500],"timestim":1000,"targets_dim":[100,100],"targets_relative_coord":[0.3,0.7],"size_stim":[880,420],"start_dim":[100,100],"size_start":[300,300],"size_fix":60,"samplingrate":20,"img_types":["Congruent","Incongruent"],"ratios":[100,200,300],"rep_conds":19,"nTrials":120,"trials_to_rest":500,"Trials_order":[49,104,73,31,118,79,96,56,89,110,76,78,109,14,42,38,98,0,11,8,23,90,58,103,25,92,64,3,70,68,46,30,97,69,82,117,55,86,60,18,72,37,32,93,33,99,107,59,7,17,115,1,13,80,100,75,85,116,111,29,36,114,19,94,22,24,16,21,101,88,2,67,66,41,35,44,77,45,20,71,26,83,95,105,52,61,74,54,57,108,87,34,102,106,15,65,9,91,81,119,84,10,27,63,40,62,113,6,39,28,4,53,51,12,47,48,112,43,5,50],"cond_shown":["Incongruent","Congruent","Incongruent","Incongruent","Congruent","Incongruent","Congruent","Congruent","Incongruent","Congruent","Congruent","Congruent","Incongruent","Congruent","Congruent","Congruent","Congruent","Congruent","Incongruent","Congruent","Incongruent","Congruent","Congruent","Incongruent","Incongruent","Congruent","Congruent","Incongruent","Congruent","Congruent","Congruent","Congruent","Incongruent","Incongruent","Congruent","Incongruent","Incongruent","Congruent","Congruent","Congruent","Congruent","Incongruent","Congruent","Incongruent","Incongruent","Incongruent","Incongruent","Incongruent","Incongruent","Incongruent","Incongruent","Incongruent","Incongruent","Congruent","Congruent","Incongruent","Incongruent","Congruent","Incongruent","Incongruent","Congruent","Congruent","Incongruent","Congruent","Congruent","Congruent","Congruent","Incongruent","Incongruent","Congruent","Congruent","Incongruent","Congruent","Incongruent","Incongruent","Congruent","Incongruent","Incongruent","Congruent","Incongruent","Congruent","Incongruent","Incongruent","Incongruent","Congruent","Incongruent","Congruent","Congruent","Incongruent","Congruent","Incongruent","Congruent","Congruent","Congruent","Incongruent","Incongruent","Incongruent","Incongruent","Incongruent","Incongruent","Congruent","Congruent","Incongruent","Incongruent","Congruent","Congruent","Incongruent","Congruent","Incongruent","Congruent","Congruent","Incongruent","Incongruent","Congruent","Incongruent","Congruent","Congruent","Incongruent","Incongruent","Congruent"],"ratio_trial":[100,200,100,100,300,100,100,200,300,200,300,100,100,200,100,200,200,100,300,200,300,100,300,100,100,200,300,200,300,200,300,100,100,200,300,200,100,200,100,100,100,100,200,200,200,200,300,300,100,300,100,100,100,200,300,200,100,200,200,300,100,100,100,300,300,100,300,200,300,300,200,100,100,300,300,200,300,200,200,300,200,300,300,200,300,100,200,100,200,100,200,300,100,300,200,300,200,100,200,300,100,300,200,200,300,200,300,100,200,300,300,300,200,100,300,100,300,100,300,200],"left_num":[3,9,6,12,18,6,11,6,13,3,1,9,1,8,6,16,16,11,2,9,1,12,20,2,3,6,3,14,11,8,4,3,17,4,2,4,10,13,1,15,4,2,1,3,14,1,4,4,17,13,13,2,3,6,11,14,2,3,14,13,2,10,17,8,1,8,20,7,13,5,8,11,1,1,2,3,1,4,4,2,4,4,4,7,1,9,1,11,9,8,4,2,6,1,4,4,1,3,14,13,10,8,9,4,3,4,13,9,4,2,3,13,11,6,7,6,2,3,7,1],"right_num":[7,13,7,9,9,13,6,3,12,14,8,8,8,2,5,12,12,4,6,13,3,13,5,6,8,3,2,6,2,3,13,2,10,6,10,6,9,14,18,13,15,6,21,11,6,2,2,2,10,12,6,8,11,7,1,6,6,7,12,12,6,3,10,1,11,2,14,14,12,7,3,9,3,3,6,14,3,14,3,6,3,6,6,4,11,20,21,6,8,2,6,10,5,11,6,2,3,4,12,12,3,10,8,14,4,3,12,8,1,10,4,12,3,5,8,15,12,4,8,21],"left_den":[9,30,10,24,20,10,22,15,26,10,30,15,2,15,20,20,20,22,4,30,2,30,25,4,5,15,6,30,22,15,20,6,30,5,20,5,25,26,2,25,10,4,2,4,30,3,20,20,30,26,26,4,5,12,22,30,4,10,30,26,5,25,30,16,5,16,25,10,26,25,15,22,2,2,4,10,2,6,10,4,8,5,5,15,5,10,2,22,15,16,5,20,20,5,5,20,2,6,30,26,25,15,15,6,6,10,26,15,30,20,6,26,20,20,10,12,10,6,10,2],"right_den":[30,26,14,15,15,26,15,15,15,28,24,16,20,6,25,20,20,10,30,26,15,26,10,15,16,15,10,9,10,9,26,5,15,10,25,10,18,20,30,26,30,15,30,20,9,15,4,4,15,15,10,20,22,10,5,9,15,14,18,15,12,10,15,5,22,5,28,28,15,14,9,15,5,15,30,28,15,30,15,30,10,12,12,6,22,25,30,15,10,5,10,25,25,22,10,4,10,10,18,15,10,12,10,30,5,15,15,16,3,25,5,15,4,25,20,25,24,10,20,30],"correct_side":[1,2,1,2,1,1,1,1,2,2,2,1,1,1,1,1,1,1,1,2,1,2,1,1,1,1,1,2,1,1,2,1,2,1,2,1,2,2,2,1,2,1,2,1,2,1,2,2,2,2,2,1,1,2,1,2,1,2,2,2,2,1,2,1,2,1,1,1,2,2,1,2,2,1,1,2,1,1,1,1,1,1,1,2,2,1,2,1,2,1,1,2,1,2,1,2,1,1,2,2,1,2,2,1,2,1,2,1,2,2,2,2,2,1,1,2,2,1,1,2],"img_shown":["img2/100/Incongruent/L/I_Dist_100_LN_3_LD_9_RN_7_RD_30_0.png","img2/200/Congruent/R/C_Dist_200_LN_9_LD_30_RN_13_RD_26_1.png","img2/100/Incongruent/L/I_Dist_100_LN_6_LD_10_RN_7_RD_14_0.png","img2/100/Incongruent/R/I_Dist_100_LN_12_LD_24_RN_9_RD_15_1.png","img2/300/Congruent/L/C_Dist_300_LN_18_LD_20_RN_9_RD_15_0.png","img2/100/Incongruent/L/I_Dist_100_LN_6_LD_10_RN_13_RD_26_0.png","img2/100/Congruent/L/C_Dist_100_LN_11_LD_22_RN_6_RD_15_0.png","img2/200/Congruent/L/C_Dist_200_LN_6_LD_15_RN_3_RD_15_0.png","img2/300/Incongruent/R/I_Dist_300_LN_13_LD_26_RN_12_RD_15_1.png","img2/200/Congruent/R/C_Dist_200_LN_3_LD_10_RN_14_RD_28_1.png","img2/300/Congruent/R/C_Dist_300_LN_1_LD_30_RN_8_RD_24_1.png","img2/100/Congruent/L/C_Dist_100_LN_9_LD_15_RN_8_RD_16_0.png","img2/100/Incongruent/L/I_Dist_100_LN_1_LD_2_RN_8_RD_20_0.png","img2/200/Congruent/L/C_Dist_200_LN_8_LD_15_RN_2_RD_6_0.png","img2/100/Congruent/L/C_Dist_100_LN_6_LD_20_RN_5_RD_25_0.png","img2/200/Congruent/L/C_Dist_200_LN_16_LD_20_RN_12_RD_20_0.png","img2/200/Congruent/L/C_Dist_200_LN_16_LD_20_RN_12_RD_20_0.png","img2/100/Congruent/L/C_Dist_100_LN_11_LD_22_RN_4_RD_10_0.png","img2/300/Incongruent/L/I_Dist_300_LN_2_LD_4_RN_6_RD_30_0.png","img2/200/Congruent/R/C_Dist_200_LN_9_LD_30_RN_13_RD_26_1.png","img2/300/Incongruent/L/I_Dist_300_LN_1_LD_2_RN_3_RD_15_0.png","img2/100/Congruent/R/C_Dist_100_LN_12_LD_30_RN_13_RD_26_1.png","img2/300/Congruent/L/C_Dist_300_LN_20_LD_25_RN_5_RD_10_0.png","img2/100/Incongruent/L/I_Dist_100_LN_2_LD_4_RN_6_RD_15_0.png","img2/100/Incongruent/L/I_Dist_100_LN_3_LD_5_RN_8_RD_16_0.png","img2/200/Congruent/L/C_Dist_200_LN_6_LD_15_RN_3_RD_15_0.png","img2/300/Congruent/L/C_Dist_300_LN_3_LD_6_RN_2_RD_10_0.png","img2/200/Incongruent/R/I_Dist_200_LN_14_LD_30_RN_6_RD_9_1.png","img2/300/Congruent/L/C_Dist_300_LN_11_LD_22_RN_2_RD_10_0.png","img2/200/Congruent/L/C_Dist_200_LN_8_LD_15_RN_3_RD_9_0.png","img2/300/Congruent/R/C_Dist_300_LN_4_LD_20_RN_13_RD_26_1.png","img2/100/Congruent/L/C_Dist_100_LN_3_LD_6_RN_2_RD_5_0.png","img2/100/Incongruent/R/I_Dist_100_LN_17_LD_30_RN_10_RD_15_1.png","img2/200/Incongruent/L/I_Dist_200_LN_4_LD_5_RN_6_RD_10_0.png","img2/300/Congruent/R/C_Dist_300_LN_2_LD_20_RN_10_RD_25_1.png","img2/200/Incongruent/L/I_Dist_200_LN_4_LD_5_RN_6_RD_10_0.png","img2/100/Incongruent/R/I_Dist_100_LN_10_LD_25_RN_9_RD_18_1.png","img2/200/Congruent/R/C_Dist_200_LN_13_LD_26_RN_14_RD_20_1.png","img2/100/Congruent/R/C_Dist_100_LN_1_LD_2_RN_18_RD_30_1.png","img2/100/Congruent/L/C_Dist_100_LN_15_LD_25_RN_13_RD_26_0.png","img2/100/Congruent/R/C_Dist_100_LN_4_LD_10_RN_15_RD_30_1.png","img2/100/Incongruent/L/I_Dist_100_LN_2_LD_4_RN_6_RD_15_0.png","img2/200/Congruent/R/C_Dist_200_LN_1_LD_2_RN_21_RD_30_1.png","img2/200/Incongruent/L/I_Dist_200_LN_3_LD_4_RN_11_RD_20_0.png","img2/200/Incongruent/R/I_Dist_200_LN_14_LD_30_RN_6_RD_9_1.png","img2/200/Incongruent/L/I_Dist_200_LN_1_LD_3_RN_2_RD_15_0.png","img2/300/Incongruent/R/I_Dist_300_LN_4_LD_20_RN_2_RD_4_1.png","img2/300/Incongruent/R/I_Dist_300_LN_4_LD_20_RN_2_RD_4_1.png","img2/100/Incongruent/R/I_Dist_100_LN_17_LD_30_RN_10_RD_15_1.png","img2/300/Incongruent/R/I_Dist_300_LN_13_LD_26_RN_12_RD_15_1.png","img2/100/Incongruent/R/I_Dist_100_LN_13_LD_26_RN_6_RD_10_1.png","img2/100/Incongruent/L/I_Dist_100_LN_2_LD_4_RN_8_RD_20_0.png","img2/100/Incongruent/L/I_Dist_100_LN_3_LD_5_RN_11_RD_22_0.png","img2/200/Congruent/R/C_Dist_200_LN_6_LD_12_RN_7_RD_10_1.png","img2/300/Congruent/L/C_Dist_300_LN_11_LD_22_RN_1_RD_5_0.png","img2/200/Incongruent/R/I_Dist_200_LN_14_LD_30_RN_6_RD_9_1.png","img2/100/Incongruent/L/I_Dist_100_LN_2_LD_4_RN_6_RD_15_0.png","img2/200/Congruent/R/C_Dist_200_LN_3_LD_10_RN_7_RD_14_1.png","img2/200/Incongruent/R/I_Dist_200_LN_14_LD_30_RN_12_RD_18_1.png","img2/300/Incongruent/R/I_Dist_300_LN_13_LD_26_RN_12_RD_15_1.png","img2/100/Congruent/R/C_Dist_100_LN_2_LD_5_RN_6_RD_12_1.png","img2/100/Congruent/L/C_Dist_100_LN_10_LD_25_RN_3_RD_10_0.png","img2/100/Incongruent/R/I_Dist_100_LN_17_LD_30_RN_10_RD_15_1.png","img2/300/Congruent/L/C_Dist_300_LN_8_LD_16_RN_1_RD_5_0.png","img2/300/Congruent/R/C_Dist_300_LN_1_LD_5_RN_11_RD_22_1.png","img2/100/Congruent/L/C_Dist_100_LN_8_LD_16_RN_2_RD_5_0.png","img2/300/Congruent/L/C_Dist_300_LN_20_LD_25_RN_14_RD_28_0.png","img2/200/Incongruent/L/I_Dist_200_LN_7_LD_10_RN_14_RD_28_0.png","img2/300/Incongruent/R/I_Dist_300_LN_13_LD_26_RN_12_RD_15_1.png","img2/300/Congruent/R/C_Dist_300_LN_5_LD_25_RN_7_RD_14_1.png","img2/200/Congruent/L/C_Dist_200_LN_8_LD_15_RN_3_RD_9_0.png","img2/100/Incongruent/R/I_Dist_100_LN_11_LD_22_RN_9_RD_15_1.png","img2/100/Congruent/R/C_Dist_100_LN_1_LD_2_RN_3_RD_5_1.png","img2/300/Incongruent/L/I_Dist_300_LN_1_LD_2_RN_3_RD_15_0.png","img2/300/Incongruent/L/I_Dist_300_LN_2_LD_4_RN_6_RD_30_0.png","img2/200/Congruent/R/C_Dist_200_LN_3_LD_10_RN_14_RD_28_1.png","img2/300/Incongruent/L/I_Dist_300_LN_1_LD_2_RN_3_RD_15_0.png","img2/200/Incongruent/L/I_Dist_200_LN_4_LD_6_RN_14_RD_30_0.png","img2/200/Congruent/L/C_Dist_200_LN_4_LD_10_RN_3_RD_15_0.png","img2/300/Incongruent/L/I_Dist_300_LN_2_LD_4_RN_6_RD_30_0.png","img2/200/Congruent/L/C_Dist_200_LN_4_LD_8_RN_3_RD_10_0.png","img2/300/Incongruent/L/I_Dist_300_LN_4_LD_5_RN_6_RD_12_0.png","img2/300/Incongruent/L/I_Dist_300_LN_4_LD_5_RN_6_RD_12_0.png","img2/200/Incongruent/R/I_Dist_200_LN_7_LD_15_RN_4_RD_6_1.png","img2/300/Congruent/R/C_Dist_300_LN_1_LD_5_RN_11_RD_22_1.png","img2/100/Incongruent/L/I_Dist_100_LN_9_LD_10_RN_20_RD_25_0.png","img2/200/Congruent/R/C_Dist_200_LN_1_LD_2_RN_21_RD_30_1.png","img2/100/Congruent/L/C_Dist_100_LN_11_LD_22_RN_6_RD_15_0.png","img2/200/Incongruent/R/I_Dist_200_LN_9_LD_15_RN_8_RD_10_1.png","img2/100/Congruent/L/C_Dist_100_LN_8_LD_16_RN_2_RD_5_0.png","img2/200/Incongruent/L/I_Dist_200_LN_4_LD_5_RN_6_RD_10_0.png","img2/300/Congruent/R/C_Dist_300_LN_2_LD_20_RN_10_RD_25_1.png","img2/100/Congruent/L/C_Dist_100_LN_6_LD_20_RN_5_RD_25_0.png","img2/300/Congruent/R/C_Dist_300_LN_1_LD_5_RN_11_RD_22_1.png","img2/200/Incongruent/L/I_Dist_200_LN_4_LD_5_RN_6_RD_10_0.png","img2/300/Incongruent/R/I_Dist_300_LN_4_LD_20_RN_2_RD_4_1.png","img2/200/Incongruent/L/I_Dist_200_LN_1_LD_2_RN_3_RD_10_0.png","img2/100/Incongruent/L/I_Dist_100_LN_3_LD_6_RN_4_RD_10_0.png","img2/200/Incongruent/R/I_Dist_200_LN_14_LD_30_RN_12_RD_18_1.png","img2/300/Incongruent/R/I_Dist_300_LN_13_LD_26_RN_12_RD_15_1.png","img2/100/Congruent/L/C_Dist_100_LN_10_LD_25_RN_3_RD_10_0.png","img2/300/Congruent/R/C_Dist_300_LN_8_LD_15_RN_10_RD_12_1.png","img2/200/Incongruent/R/I_Dist_200_LN_9_LD_15_RN_8_RD_10_1.png","img2/200/Incongruent/L/I_Dist_200_LN_4_LD_6_RN_14_RD_30_0.png","img2/300/Congruent/R/C_Dist_300_LN_3_LD_6_RN_4_RD_5_1.png","img2/200/Congruent/L/C_Dist_200_LN_4_LD_10_RN_3_RD_15_0.png","img2/300/Incongruent/R/I_Dist_300_LN_13_LD_26_RN_12_RD_15_1.png","img2/100/Congruent/L/C_Dist_100_LN_9_LD_15_RN_8_RD_16_0.png","img2/200/Incongruent/R/I_Dist_200_LN_4_LD_30_RN_1_RD_3_1.png","img2/300/Congruent/R/C_Dist_300_LN_2_LD_20_RN_10_RD_25_1.png","img2/300/Congruent/R/C_Dist_300_LN_3_LD_6_RN_4_RD_5_1.png","img2/300/Incongruent/R/I_Dist_300_LN_13_LD_26_RN_12_RD_15_1.png","img2/200/Incongruent/R/I_Dist_200_LN_11_LD_20_RN_3_RD_4_1.png","img2/100/Congruent/L/C_Dist_100_LN_6_LD_20_RN_5_RD_25_0.png","img2/300/Incongruent/L/I_Dist_300_LN_7_LD_10_RN_8_RD_20_0.png","img2/100/Congruent/R/C_Dist_100_LN_6_LD_12_RN_15_RD_25_1.png","img2/300/Congruent/R/C_Dist_300_LN_2_LD_10_RN_12_RD_24_1.png","img2/100/Incongruent/L/I_Dist_100_LN_3_LD_6_RN_4_RD_10_0.png","img2/300/Incongruent/L/I_Dist_300_LN_7_LD_10_RN_8_RD_20_0.png","img2/200/Congruent/R/C_Dist_200_LN_1_LD_2_RN_21_RD_30_1.png"],"dist100_C":[["C_Dist_100_LN_10_LD_25_RN_3_RD_10_0.png","C_Dist_100_LN_11_LD_22_RN_4_RD_10_0.png","C_Dist_100_LN_11_LD_22_RN_6_RD_15_0.png","C_Dist_100_LN_15_LD_25_RN_13_RD_26_0.png","C_Dist_100_LN_3_LD_6_RN_2_RD_5_0.png","C_Dist_100_LN_6_LD_20_RN_5_RD_25_0.png","C_Dist_100_LN_8_LD_16_RN_2_RD_5_0.png","C_Dist_100_LN_9_LD_15_RN_8_RD_16_0.png"],["C_Dist_100_LN_1_LD_2_RN_18_RD_30_1.png","C_Dist_100_LN_1_LD_2_RN_3_RD_5_1.png","C_Dist_100_LN_12_LD_30_RN_13_RD_26_1.png","C_Dist_100_LN_2_LD_5_RN_11_RD_22_1.png","C_Dist_100_LN_2_LD_5_RN_6_RD_12_1.png","C_Dist_100_LN_3_LD_20_RN_4_RD_16_1.png","C_Dist_100_LN_4_LD_10_RN_15_RD_30_1.png","C_Dist_100_LN_4_LD_8_RN_6_RD_10_1.png","C_Dist_100_LN_6_LD_12_RN_15_RD_25_1.png","C_Dist_100_LN_7_LD_14_RN_15_RD_25_1.png","C_Dist_100_LN_7_LD_14_RN_9_RD_15_1.png"]],"dist100_I":[["I_Dist_100_LN_1_LD_2_RN_8_RD_20_0.png","I_Dist_100_LN_2_LD_4_RN_6_RD_15_0.png","I_Dist_100_LN_2_LD_4_RN_8_RD_20_0.png","I_Dist_100_LN_3_LD_5_RN_11_RD_22_0.png","I_Dist_100_LN_3_LD_5_RN_8_RD_16_0.png","I_Dist_100_LN_3_LD_6_RN_4_RD_10_0.png","I_Dist_100_LN_3_LD_9_RN_7_RD_30_0.png","I_Dist_100_LN_4_LD_8_RN_8_RD_20_0.png","I_Dist_100_LN_6_LD_10_RN_11_RD_22_0.png","I_Dist_100_LN_6_LD_10_RN_13_RD_26_0.png","I_Dist_100_LN_6_LD_10_RN_7_RD_14_0.png","I_Dist_100_LN_9_LD_10_RN_20_RD_25_0.png","I_Dist_100_LN_9_LD_15_RN_13_RD_26_0.png","I_Dist_100_LN_9_LD_15_RN_14_RD_28_0.png"],["I_Dist_100_LN_10_LD_25_RN_8_RD_16_1.png","I_Dist_100_LN_10_LD_25_RN_9_RD_18_1.png","I_Dist_100_LN_11_LD_22_RN_9_RD_15_1.png","I_Dist_100_LN_12_LD_24_RN_9_RD_15_1.png","I_Dist_100_LN_12_LD_30_RN_2_RD_4_1.png","I_Dist_100_LN_13_LD_26_RN_12_RD_20_1.png","I_Dist_100_LN_13_LD_26_RN_6_RD_10_1.png","I_Dist_100_LN_17_LD_30_RN_10_RD_15_1.png","I_Dist_100_LN_6_LD_12_RN_3_RD_5_1.png","I_Dist_100_LN_8_LD_16_RN_6_RD_10_1.png","I_Dist_100_LN_8_LD_20_RN_1_RD_2_1.png","I_Dist_100_LN_9_LD_18_RN_6_RD_10_1.png"]],"dist100_S":[["E_Dist_100_LN_2_LD_12_RN_2_RD_30_0.png","E_Dist_100_LN_6_LD_10_RN_6_RD_12_0.png"],["E_Dist_100_LN_6_LD_12_RN_6_RD_10_1.png"]],"dist200_C":[["C_Dist_200_LN_11_LD_22_RN_3_RD_10_0.png","C_Dist_200_LN_12_LD_15_RN_6_RD_10_0.png","C_Dist_200_LN_12_LD_20_RN_6_RD_15_0.png","C_Dist_200_LN_14_LD_28_RN_6_RD_20_0.png","C_Dist_200_LN_15_LD_25_RN_4_RD_10_0.png","C_Dist_200_LN_16_LD_20_RN_12_RD_20_0.png","C_Dist_200_LN_16_LD_30_RN_9_RD_27_0.png","C_Dist_200_LN_20_LD_25_RN_9_RD_15_0.png","C_Dist_200_LN_21_LD_30_RN_2_RD_4_0.png","C_Dist_200_LN_4_LD_10_RN_3_RD_15_0.png","C_Dist_200_LN_4_LD_8_RN_3_RD_10_0.png","C_Dist_200_LN_6_LD_15_RN_3_RD_15_0.png","C_Dist_200_LN_7_LD_21_RN_2_RD_15_0.png","C_Dist_200_LN_8_LD_15_RN_2_RD_6_0.png","C_Dist_200_LN_8_LD_15_RN_3_RD_9_0.png","C_Dist_200_LN_8_LD_15_RN_7_RD_21_0.png","C_Dist_200_LN_9_LD_20_RN_4_RD_16_0.png"],["C_Dist_200_LN_1_LD_2_RN_21_RD_30_1.png","C_Dist_200_LN_13_LD_26_RN_14_RD_20_1.png","C_Dist_200_LN_3_LD_10_RN_11_RD_22_1.png","C_Dist_200_LN_3_LD_10_RN_14_RD_28_1.png","C_Dist_200_LN_3_LD_10_RN_7_RD_14_1.png","C_Dist_200_LN_3_LD_12_RN_9_RD_20_1.png","C_Dist_200_LN_3_LD_6_RN_14_RD_20_1.png","C_Dist_200_LN_5_LD_10_RN_14_RD_20_1.png","C_Dist_200_LN_6_LD_12_RN_7_RD_10_1.png","C_Dist_200_LN_6_LD_20_RN_11_RD_22_1.png","C_Dist_200_LN_7_LD_15_RN_18_RD_27_1.png","C_Dist_200_LN_9_LD_30_RN_13_RD_26_1.png"]],"dist200_I":[["I_Dist_200_LN_1_LD_2_RN_3_RD_10_0.png","I_Dist_200_LN_1_LD_3_RN_2_RD_15_0.png","I_Dist_200_LN_3_LD_4_RN_11_RD_20_0.png","I_Dist_200_LN_4_LD_5_RN_6_RD_10_0.png","I_Dist_200_LN_4_LD_6_RN_14_RD_30_0.png","I_Dist_200_LN_7_LD_10_RN_12_RD_24_0.png","I_Dist_200_LN_7_LD_10_RN_14_RD_28_0.png","I_Dist_200_LN_7_LD_10_RN_8_RD_16_0.png"],["I_Dist_200_LN_11_LD_20_RN_3_RD_4_1.png","I_Dist_200_LN_14_LD_30_RN_12_RD_18_1.png","I_Dist_200_LN_14_LD_30_RN_6_RD_9_1.png","I_Dist_200_LN_3_LD_10_RN_1_RD_2_1.png","I_Dist_200_LN_4_LD_30_RN_1_RD_3_1.png","I_Dist_200_LN_6_LD_20_RN_3_RD_6_1.png","I_Dist_200_LN_7_LD_15_RN_4_RD_6_1.png","I_Dist_200_LN_7_LD_15_RN_6_RD_9_1.png","I_Dist_200_LN_9_LD_15_RN_8_RD_10_1.png"]],"dist200_S":[["E_Dist_200_LN_3_LD_6_RN_3_RD_10_0.png"],["E_Dist_200_LN_3_LD_10_RN_3_RD_6_1.png"]],"dist300_C":[["C_Dist_300_LN_11_LD_22_RN_1_RD_5_0.png","C_Dist_300_LN_11_LD_22_RN_2_RD_10_0.png","C_Dist_300_LN_11_LD_22_RN_4_RD_20_0.png","C_Dist_300_LN_12_LD_24_RN_2_RD_10_0.png","C_Dist_300_LN_18_LD_20_RN_9_RD_15_0.png","C_Dist_300_LN_20_LD_25_RN_13_RD_26_0.png","C_Dist_300_LN_20_LD_25_RN_14_RD_28_0.png","C_Dist_300_LN_20_LD_25_RN_5_RD_10_0.png","C_Dist_300_LN_20_LD_25_RN_8_RD_16_0.png","C_Dist_300_LN_20_LD_25_RN_9_RD_18_0.png","C_Dist_300_LN_24_LD_30_RN_2_RD_4_0.png","C_Dist_300_LN_24_LD_30_RN_8_RD_16_0.png","C_Dist_300_LN_3_LD_6_RN_2_RD_10_0.png","C_Dist_300_LN_4_LD_10_RN_1_RD_10_0.png","C_Dist_300_LN_4_LD_5_RN_2_RD_4_0.png","C_Dist_300_LN_8_LD_16_RN_1_RD_5_0.png","C_Dist_300_LN_9_LD_10_RN_3_RD_5_0.png"],["C_Dist_300_LN_1_LD_20_RN_7_RD_20_1.png","C_Dist_300_LN_1_LD_3_RN_19_RD_30_1.png","C_Dist_300_LN_1_LD_30_RN_8_RD_24_1.png","C_Dist_300_LN_1_LD_5_RN_11_RD_22_1.png","C_Dist_300_LN_1_LD_5_RN_3_RD_6_1.png","C_Dist_300_LN_1_LD_5_RN_6_RD_12_1.png","C_Dist_300_LN_2_LD_10_RN_12_RD_24_1.png","C_Dist_300_LN_2_LD_20_RN_10_RD_25_1.png","C_Dist_300_LN_3_LD_12_RN_11_RD_20_1.png","C_Dist_300_LN_3_LD_6_RN_4_RD_5_1.png","C_Dist_300_LN_4_LD_20_RN_13_RD_26_1.png","C_Dist_300_LN_5_LD_25_RN_6_RD_12_1.png","C_Dist_300_LN_5_LD_25_RN_7_RD_14_1.png","C_Dist_300_LN_7_LD_14_RN_20_RD_25_1.png","C_Dist_300_LN_8_LD_15_RN_10_RD_12_1.png"]],"dist300_I":[["I_Dist_300_LN_1_LD_2_RN_2_RD_10_0.png","I_Dist_300_LN_1_LD_2_RN_3_RD_15_0.png","I_Dist_300_LN_2_LD_4_RN_6_RD_30_0.png","I_Dist_300_LN_3_LD_6_RN_4_RD_20_0.png","I_Dist_300_LN_4_LD_5_RN_6_RD_12_0.png","I_Dist_300_LN_4_LD_5_RN_8_RD_16_0.png","I_Dist_300_LN_7_LD_10_RN_8_RD_20_0.png","I_Dist_300_LN_8_LD_10_RN_14_RD_28_0.png","I_Dist_300_LN_8_LD_10_RN_9_RD_18_0.png"],["I_Dist_300_LN_13_LD_26_RN_12_RD_15_1.png","I_Dist_300_LN_4_LD_20_RN_2_RD_4_1.png"]],"dist300_S":[["E_Dist_300_LN_9_LD_12_RN_9_RD_20_0.png"],["E_Dist_300_LN_18_LD_30_RN_18_RD_20_1.png","E_Dist_300_LN_3_LD_10_RN_3_RD_5_1.png","E_Dist_300_LN_9_LD_20_RN_9_RD_12_1.png"]],"dist500_C":[["C_Dist_500_LN_10_LD_13_RN_7_RD_26_0.png","C_Dist_500_LN_10_LD_15_RN_4_RD_24_0.png","C_Dist_500_LN_12_LD_16_RN_3_RD_12_0.png","C_Dist_500_LN_12_LD_18_RN_4_RD_24_0.png","C_Dist_500_LN_15_LD_18_RN_5_RD_15_0.png","C_Dist_500_LN_15_LD_20_RN_1_RD_4_0.png","C_Dist_500_LN_18_LD_27_RN_1_RD_6_0.png","C_Dist_500_LN_20_LD_24_RN_1_RD_3_0.png","C_Dist_500_LN_20_LD_24_RN_3_RD_9_0.png","C_Dist_500_LN_20_LD_24_RN_7_RD_21_0.png","C_Dist_500_LN_20_LD_28_RN_3_RD_14_0.png","C_Dist_500_LN_21_LD_28_RN_6_RD_24_0.png","C_Dist_500_LN_22_LD_28_RN_2_RD_7_0.png","C_Dist_500_LN_25_LD_30_RN_9_RD_27_0.png","C_Dist_500_LN_4_LD_6_RN_1_RD_6_0.png","C_Dist_500_LN_5_LD_6_RN_2_RD_6_0.png","C_Dist_500_LN_6_LD_9_RN_1_RD_6_0.png","C_Dist_500_LN_7_LD_10_RN_1_RD_5_0.png","C_Dist_500_LN_8_LD_12_RN_1_RD_6_0.png","C_Dist_500_LN_8_LD_12_RN_4_RD_24_0.png"],["C_Dist_500_LN_1_LD_4_RN_12_RD_16_1.png","C_Dist_500_LN_1_LD_4_RN_9_RD_12_1.png","C_Dist_500_LN_1_LD_9_RN_11_RD_18_1.png","C_Dist_500_LN_10_LD_24_RN_22_RD_24_1.png","C_Dist_500_LN_2_LD_12_RN_10_RD_15_1.png","C_Dist_500_LN_2_LD_12_RN_12_RD_18_1.png","C_Dist_500_LN_2_LD_12_RN_4_RD_6_1.png","C_Dist_500_LN_2_LD_24_RN_7_RD_12_1.png","C_Dist_500_LN_2_LD_5_RN_18_RD_20_1.png","C_Dist_500_LN_2_LD_5_RN_9_RD_10_1.png","C_Dist_500_LN_2_LD_8_RN_12_RD_16_1.png","C_Dist_500_LN_2_LD_8_RN_21_RD_28_1.png","C_Dist_500_LN_3_LD_10_RN_4_RD_5_1.png","C_Dist_500_LN_3_LD_12_RN_15_RD_20_1.png","C_Dist_500_LN_3_LD_30_RN_6_RD_10_1.png","C_Dist_500_LN_3_LD_8_RN_14_RD_16_1.png","C_Dist_500_LN_4_LD_16_RN_15_RD_20_1.png","C_Dist_500_LN_4_LD_24_RN_12_RD_18_1.png","C_Dist_500_LN_5_LD_14_RN_6_RD_7_1.png","C_Dist_500_LN_7_LD_21_RN_20_RD_24_1.png","C_Dist_500_LN_7_LD_28_RN_12_RD_16_1.png","C_Dist_500_LN_7_LD_28_RN_9_RD_12_1.png","C_Dist_500_LN_9_LD_27_RN_20_RD_24_1.png"]],"dist500_I":[["I_Dist_500_LN_2_LD_3_RN_4_RD_24_0.png","I_Dist_500_LN_5_LD_6_RN_6_RD_18_0.png","I_Dist_500_LN_7_LD_8_RN_9_RD_24_0.png"],["I_Dist_500_LN_7_LD_21_RN_5_RD_6_1.png"]],"dist500_S":[["E_Dist_500_LN_6_LD_8_RN_6_RD_24_0.png"],["E_Dist_500_LN_2_LD_12_RN_2_RD_3_1.png","E_Dist_500_LN_6_LD_24_RN_6_RD_8_1.png"]]}},{"start_time":1551891374533,"click_time":1551891376338,"finger_time":1551891375958,"fix_duration":574.1955042067771,"trial":1,"RT":1425,"MT":380,"sideResp":2,"stimulus":[],"xmouse":[780,780,780,780,780,780,780,780,780,780,780,780,780,780,780,780,780,780,780,780,780,780,780,780,780,780,780,780,780,780,780,780,780,780,780,780,780,780,780,780,780,780,780,780,780,780,780,780,780,780,780,780,780,780,780,780,780,780,780,780,780,780,780,780,780,780,780,780,780,783,806,848,899,954,1011,1044,1082,1097,1103,1132,1141,1150,1158,1167,1172,1174,1174,1172,1170,1162,1151],"ymouse":[607,607,607,607,607,607,607,607,607,607,607,607,607,607,607,607,607,607,607,607,607,607,607,607,607,607,607,607,607,607,607,607,607,607,607,607,607,607,607,607,607,607,607,607,607,607,607,607,607,607,607,607,607,607,607,607,607,607,607,607,607,607,607,607,607,607,607,607,607,606,575,527,472,417,363,328,278,257,251,211,196,182,168,154,147,146,144,138,133,105,65],"timestamp_mouse":[10,39,44,63,83,104,125,144,164,184,205,224,243,264,284,304,324,344,364,384,404,425,443,464,485,504,524,544,565,584,604,624,644,664,683,705,725,744,764,784,805,823,845,863,885,905,924,945,963,983,1003,1025,1044,1064,1083,1105,1123,1145,1164,1185,1204,1225,1244,1265,1285,1304,1325,1344,1364,1384,1404,1425,1445,1464,1485,1503,1523,1544,1564,1589,1605,1625,1644,1664,1685,1704,1724,1745,1764,1784,1804],"xSR":741.5,"ySR":573.95,"xT1":424.9,"yT1":0,"xT2":1058.1,"yT2":0,"toosoon":0,"cond_shown":"Congruent","ratio_trial":200,"L_num":9,"L_den":30,"R_num":13,"R_den":26,"correct_side":2,"subjID":"angelasofiasantamariasuarez14","gender":"1","school":"6","age":"10"},{"start_time":1551891378893,"click_time":1551891380518,"finger_time":1551891379557,"fix_duration":1433.662592806416,"trial":2,"RT":664,"MT":961,"sideResp":1,"stimulus":[],"xmouse":[798,798,798,798,798,798,798,798,798,798,798,798,798,798,798,798,798,798,798,798,798,798,798,798,798,798,798,798,798,798,798,799,800,800,805,821,830,831,831,830,830,830,830,830,830,830,830,830,830,829,827,811,797,754,726,702,687,667,619,527,388,345,334,334,334,334,334,332,330,328,327,327,328,337,348,356,361,374,386,399,416,431],"ymouse":[607,607,607,607,607,607,607,607,607,607,607,607,607,607,607,607,607,607,607,607,607,607,607,607,607,607,607,607,607,605,604,593,574,557,524,465,425,380,375,373,372,372,372,372,372,372,372,372,372,371,368,353,336,248,183,124,87,43,16,0,0,0,0,0,0,0,0,0,3,7,15,19,23,24,24,24,24,21,21,21,21,24],"timestamp_mouse":[9,25,44,65,84,104,125,143,164,184,203,225,245,265,285,303,324,344,365,383,405,424,443,464,485,505,524,545,563,584,604,624,645,664,684,705,724,744,764,783,805,824,844,864,884,903,925,945,964,983,1004,1024,1044,1064,1084,1105,1125,1144,1163,1185,1205,1225,1244,1265,1285,1304,1324,1345,1363,1383,1403,1424,1443,1463,1484,1504,1524,1544,1564,1584,1605,1625],"xSR":741.5,"ySR":573.95,"xT1":424.9,"yT1":0,"xT2":1058.1,"yT2":0,"toosoon":0,"cond_shown":"Incongruent","ratio_trial":100,"L_num":6,"L_den":10,"R_num":7,"R_den":14,"correct_side":1,"subjID":"angelasofiasantamariasuarez14","gender":"1","school":"6","age":"10"},{"start_time":1551891381957,"click_time":1551891383437,"finger_time":1551891382757,"fix_duration":259.1108186779033,"trial":3,"RT":800,"MT":680,"sideResp":2,"stimulus":[],"xmouse":[790,793,793,797,798,798,798,798,798,798,798,798,798,798,798,798,798,798,798,798,798,798,798,798,798,798,798,798,798,798,798,798,798,798,798,798,798,798,802,822,837,861,889,920,953,1001,1015,1027,1042,1053,1076,1089,1102,1111,1120,1123,1123,1124,1125,1125,1125,1125,1125,1125,1124,1124,1123,1122,1121,1119,1117,1116,1116,1116,1116],"ymouse":[622,616,616,606,604,603,603,603,603,603,603,603,603,603,603,603,603,603,603,603,603,603,603,603,603,603,603,603,603,603,603,603,603,603,603,603,603,603,599,586,573,554,530,500,458,387,369,353,335,323,296,281,265,255,240,236,233,231,229,226,222,214,205,199,195,195,191,182,172,162,141,130,117,101,67],"timestamp_mouse":[1,37,40,60,80,100,119,140,159,181,200,221,239,260,280,301,320,339,360,380,400,420,439,459,480,499,520,540,560,581,600,619,640,660,680,700,721,740,760,780,800,820,841,861,880,901,920,940,960,980,1001,1021,1040,1061,1080,1099,1120,1139,1159,1181,1200,1220,1240,1261,1280,1301,1320,1339,1360,1381,1401,1421,1440,1461,1480],"xSR":741.5,"ySR":573.95,"xT1":424.9,"yT1":0,"xT2":1058.1,"yT2":0,"toosoon":0,"cond_shown":"Incongruent","ratio_trial":100,"L_num":12,"L_den":24,"R_num":9,"R_den":15,"correct_side":2,"subjID":"angelasofiasantamariasuarez14","gender":"1","school":"6","age":"10"},{"start_time":1551891385850,"click_time":1551891387217,"finger_time":1551891386537,"fix_duration":250,"trial":4,"RT":687,"MT":680,"sideResp":1,"stimulus":[],"xmouse":[816,816,816,816,816,816,816,816,816,816,816,816,816,816,816,816,816,816,816,816,816,816,816,816,815,815,815,815,815,815,815,815,812,807,790,775,753,723,680,596,589,587,586,586,586,584,577,576,576,577,572,565,563,562,561,561,561,561,561,561,561,560,560,560,558,555,550,540,505],"ymouse":[623,623,623,623,623,623,623,623,623,623,623,623,623,623,623,623,623,623,623,623,623,623,623,623,623,623,622,621,620,617,614,610,599,589,564,548,528,505,475,420,393,373,354,323,293,285,278,273,266,233,210,196,191,189,188,188,188,188,187,187,187,187,187,187,185,179,163,128,35],"timestamp_mouse":[10,34,47,66,87,107,128,148,168,186,207,228,248,268,288,307,328,347,367,388,406,428,447,466,488,508,526,547,568,587,607,627,648,667,687,707,727,747,768,786,807,826,847,868,887,906,927,947,968,987,1006,1027,1046,1068,1087,1108,1127,1147,1167,1187,1207,1227,1247,1267,1287,1306,1328,1348,1367],"xSR":741.5,"ySR":573.95,"xT1":424.9,"yT1":0,"xT2":1058.1,"yT2":0,"toosoon":0,"cond_shown":"Congruent","ratio_trial":300,"L_num":18,"L_den":20,"R_num":9,"R_den":15,"correct_side":1,"subjID":"angelasofiasantamariasuarez14","gender":"1","school":"6","age":"10"},{"start_time":1551891391779,"click_time":1551891393338,"finger_time":1551891392857,"fix_duration":1220.7461324676938,"trial":5,"RT":1078,"MT":481,"sideResp":1,"stimulus":[],"xmouse":[751,751,751,751,751,751,751,751,751,751,751,751,751,751,751,751,751,751,751,751,751,751,751,751,751,751,751,751,751,751,751,751,752,752,752,752,752,752,752,752,752,752,752,752,752,752,752,752,752,752,752,752,752,751,747,746,740,737,723,711,699,688,670,662,653,642,637,628,625,622,620,618,609,594,564,558,531,513],"ymouse":[593,593,593,593,593,593,593,593,593,593,593,593,593,593,593,593,593,593,593,593,593,593,593,593,593,593,593,593,593,593,593,593,593,592,592,592,592,592,592,592,592,592,592,592,592,592,592,592,589,585,582,579,577,566,552,547,526,506,457,415,371,335,270,244,224,196,179,153,147,141,139,135,122,107,86,81,66,59],"timestamp_mouse":[18,42,58,78,98,117,138,157,179,198,219,238,258,277,299,318,338,358,380,397,419,439,458,478,499,518,537,558,578,598,619,639,658,678,699,718,738,758,777,798,818,837,857,879,898,918,938,957,978,998,1018,1038,1057,1078,1099,1118,1138,1159,1178,1198,1218,1238,1258,1278,1298,1319,1339,1358,1378,1398,1419,1438,1458,1477,1498,1518,1539,1558],"xSR":741.5,"ySR":573.95,"xT1":424.9,"yT1":0,"xT2":1058.1,"yT2":0,"toosoon":0,"cond_shown":"Incongruent","ratio_trial":100,"L_num":6,"L_den":10,"R_num":13,"R_den":26,"correct_side":1,"subjID":"angelasofiasantamariasuarez14","gender":"1","school":"6","age":"10"},{"start_time":1551891397292,"click_time":1551891399737,"finger_time":1551891398717,"fix_duration":1071.6713828736808,"trial":6,"RT":1425,"MT":1020,"sideResp":1,"stimulus":[],"xmouse":[781,781,781,781,781,781,781,781,781,781,781,781,781,781,781,781,781,781,781,781,781,781,781,781,781,781,781,781,781,781,781,781,781,781,781,781,781,781,781,781,781,781,781,781,781,781,781,781,781,781,781,781,781,781,781,781,781,781,781,781,781,781,781,781,781,781,781,781,781,781,781,781,781,773,753,723,704,693,689,684,682,680,680,680,680,680,683,689,719,746,784,844,1029,1102,1145,1162,1171,1176,1176,1176,1176,1173,1169,1166,1161,1153,1134,1055,991,922,843,734,596,554,530,521,520,520,520,518,518,516,513],"ymouse":[601,601,601,601,601,601,601,601,601,601,601,601,601,601,601,601,601,601,601,601,601,601,601,601,601,601,601,601,601,600,598,596,595,595,595,595,595,595,595,595,595,595,595,595,595,595,595,595,595,595,595,595,595,595,595,595,595,595,595,595,595,595,595,595,595,595,595,595,592,589,577,564,527,498,440,382,354,334,328,324,320,319,318,318,317,316,312,309,304,303,303,301,280,261,245,233,224,211,209,207,205,197,185,181,178,177,177,177,179,184,186,186,186,186,180,175,173,165,161,155,146,127,95],"timestamp_mouse":[10,32,45,65,86,105,124,145,164,185,205,225,245,265,285,305,326,344,365,385,405,425,445,465,486,506,525,545,566,586,606,626,646,665,686,706,726,745,765,786,805,826,845,866,886,906,925,945,965,986,1005,1025,1044,1065,1086,1106,1125,1146,1164,1185,1206,1225,1245,1265,1286,1306,1325,1346,1364,1385,1405,1425,1445,1464,1485,1505,1525,1545,1565,1585,1605,1625,1645,1665,1685,1705,1726,1745,1765,1786,1804,1825,1845,1864,1885,1904,1925,1945,1965,1984,2005,2026,2045,2065,2085,2105,2126,2146,2165,2185,2206,2225,2245,2265,2285,2306,2326,2345,2364,2385,2405,2425,2445],"xSR":741.5,"ySR":573.95,"xT1":424.9,"yT1":0,"xT2":1058.1,"yT2":0,"toosoon":0,"cond_shown":"Congruent","ratio_trial":100,"L_num":11,"L_den":22,"R_num":6,"R_den":15,"correct_side":1,"subjID":"angelasofiasantamariasuarez14","gender":"1","school":"6","age":"10"},{"start_time":1551891401223,"click_time":1551891402657,"finger_time":1551891402076,"fix_duration":384.17464127269596,"trial":7,"RT":853,"MT":581,"sideResp":1,"stimulus":[],"xmouse":[798,798,798,798,798,798,798,798,798,798,798,798,798,798,798,798,798,798,798,798,798,798,798,798,798,798,798,798,798,798,798,798,798,798,798,798,798,798,798,800,805,808,813,819,823,825,825,825,825,825,825,825,825,825,825,825,825,825,825,825,821,808,787,753,701,604,570,543,533,530,528,521],"ymouse":[592,592,592,592,592,592,592,592,592,592,592,592,592,592,592,592,592,592,592,592,592,592,592,592,592,592,592,592,592,592,592,592,592,592,592,592,592,592,592,590,584,579,573,565,560,558,558,558,558,558,558,558,558,558,558,558,558,558,558,558,554,541,515,468,377,204,121,73,61,56,52,40],"timestamp_mouse":[14,35,54,74,95,115,135,154,175,195,214,234,255,274,294,314,334,353,375,394,414,434,455,475,494,514,535,553,573,595,615,635,655,673,695,714,735,753,773,794,815,835,853,874,895,914,933,955,973,994,1015,1035,1054,1075,1094,1115,1134,1155,1175,1193,1214,1234,1254,1275,1294,1314,1333,1355,1374,1394,1414,1434],"xSR":741.5,"ySR":573.95,"xT1":424.9,"yT1":0,"xT2":1058.1,"yT2":0,"toosoon":0,"cond_shown":"Congruent","ratio_trial":200,"L_num":6,"L_den":15,"R_num":3,"R_den":15,"correct_side":1,"subjID":"angelasofiasantamariasuarez14","gender":"1","school":"6","age":"10"},{"start_time":1551891405387,"click_time":1551891406537,"finger_time":1551891406038,"fix_duration":1488.9462656018884,"trial":8,"RT":651,"MT":499,"sideResp":2,"stimulus":[],"xmouse":[798,798,798,798,798,798,798,798,798,798,798,798,798,798,798,798,798,798,798,798,798,798,798,798,798,798,798,798,798,801,802,807,830,855,874,891,915,934,941,949,962,982,1010,1051,1064,1067,1069,1070,1071,1071,1071,1071,1072,1077,1084,1086,1094,1100],"ymouse":[626,626,626,626,626,626,626,626,626,626,626,626,626,626,626,626,626,626,626,626,626,626,626,626,626,626,626,626,626,625,621,611,554,485,420,357,282,242,228,215,203,189,179,169,163,161,160,159,158,158,157,156,154,141,123,118,104,90],"timestamp_mouse":[11,33,50,71,91,110,130,150,169,191,210,231,250,271,291,309,330,350,370,390,410,431,450,471,490,510,531,551,570,590,610,630,651,670,690,710,730,750,769,790,810,831,850,870,890,910,930,950,970,990,1010,1030,1050,1070,1090,1110,1131,1150],"xSR":741.5,"ySR":573.95,"xT1":424.9,"yT1":0,"xT2":1058.1,"yT2":0,"toosoon":0,"cond_shown":"Incongruent","ratio_trial":300,"L_num":13,"L_den":26,"R_num":12,"R_den":15,"correct_side":2,"subjID":"angelasofiasantamariasuarez14","gender":"1","school":"6","age":"10"},{"start_time":1551891408720,"click_time":1551891410917,"finger_time":1551891409657,"fix_duration":1060.9577968329802,"trial":9,"RT":937,"MT":1260,"sideResp":2,"stimulus":[],"xmouse":[804,804,804,804,804,804,804,804,804,804,804,804,804,804,804,804,804,804,804,804,804,804,804,804,804,804,804,804,804,804,804,804,804,804,804,804,804,804,804,804,804,804,804,804,804,804,810,818,821,823,823,823,823,823,823,823,823,823,823,823,823,823,823,827,839,875,890,896,902,903,903,903,902,899,894,883,877,874,874,874,874,874,877,881,884,890,896,909,922,935,953,969,987,1004,1017,1022,1026,1027,1029,1032,1037,1040,1041,1043,1044,1047,1051,1053,1057,1059],"ymouse":[584,584,584,584,584,584,584,584,584,584,584,584,584,584,584,584,584,584,584,584,584,584,584,584,584,584,584,584,584,584,584,584,584,584,584,584,584,584,584,584,584,584,584,584,583,581,569,557,552,549,549,549,549,549,549,549,549,549,549,549,549,549,549,545,526,463,435,419,403,396,390,382,377,370,353,289,260,234,231,231,231,229,226,224,222,218,212,202,190,180,165,152,141,131,124,120,115,113,108,98,90,88,86,82,77,66,59,51,43,38],"timestamp_mouse":[34,37,58,78,98,116,137,158,177,198,217,237,256,278,296,318,337,358,376,396,417,437,457,477,496,517,537,556,576,597,616,637,658,677,697,717,737,757,778,796,816,837,857,876,898,917,937,957,977,997,1018,1037,1057,1078,1097,1117,1138,1156,1178,1198,1217,1236,1257,1277,1297,1317,1337,1358,1377,1398,1416,1437,1458,1477,1498,1517,1537,1557,1577,1597,1616,1637,1657,1677,1697,1717,1737,1758,1777,1797,1817,1836,1857,1878,1898,1917,1937,1957,1977,1997,2017,2037,2057,2077,2097,2117,2136,2157,2177,2197],"xSR":741.5,"ySR":573.95,"xT1":424.9,"yT1":0,"xT2":1058.1,"yT2":0,"toosoon":0,"cond_shown":"Congruent","ratio_trial":200,"L_num":3,"L_den":10,"R_num":14,"R_den":28,"correct_side":2,"subjID":"angelasofiasantamariasuarez14","gender":"1","school":"6","age":"10"},{"start_time":1551891414527,"click_time":1551891416697,"finger_time":1551891415598,"fix_duration":947.8310994655467,"trial":10,"RT":1071,"MT":1099,"sideResp":2,"stimulus":[],"xmouse":[788,786,785,784,782,780,779,779,779,779,779,779,779,779,779,779,779,779,779,779,779,779,779,779,779,779,779,779,779,779,780,780,780,780,781,781,782,782,783,783,783,784,784,784,784,784,784,785,786,787,789,790,792,796,806,858,931,1009,1081,1171,1209,1214,1218,1221,1225,1243,1252,1264,1283,1291,1301,1301,1296,1294,1290,1281,1274,1267,1258,1237,1151,1101,1063,1036,1028,1028,1028,1028,1028,1028,1027,1027,1033,1036,1040,1041,1041,1041,1041,1041,1041,1043,1044,1044,1044,1045,1047,1052,1060],"ymouse":[605,606,606,606,606,606,606,606,606,606,606,606,606,606,606,606,606,606,606,606,606,606,606,606,606,606,605,605,604,604,603,603,601,601,599,598,595,593,593,592,592,591,591,591,591,591,591,590,587,586,582,581,579,570,556,471,378,285,199,98,50,39,32,25,16,0,0,0,0,0,0,0,0,0,1,4,5,5,5,5,0,0,0,0,0,0,0,0,0,0,0,2,7,10,12,12,12,12,12,12,12,14,14,14,14,15,16,17,20],"timestamp_mouse":[13,41,50,70,90,110,130,150,169,190,209,231,250,269,290,311,330,351,371,390,410,430,450,470,490,510,531,550,571,590,611,630,651,670,691,710,730,750,770,790,810,831,851,869,890,910,930,949,971,991,1011,1031,1051,1071,1091,1109,1130,1150,1171,1191,1210,1229,1251,1270,1290,1311,1330,1349,1370,1391,1410,1430,1450,1470,1491,1510,1530,1551,1570,1590,1610,1630,1650,1671,1691,1710,1730,1751,1770,1791,1810,1830,1850,1870,1890,1910,1930,1950,1971,1989,2011,2031,2051,2070,2090,2110,2130,2151,2170],"xSR":741.5,"ySR":573.95,"xT1":424.9,"yT1":0,"xT2":1058.1,"yT2":0,"toosoon":0,"cond_shown":"Congruent","ratio_trial":300,"L_num":1,"L_den":30,"R_num":8,"R_den":24,"correct_side":2,"subjID":"angelasofiasantamariasuarez14","gender":"1","school":"6","age":"10"},{"start_time":1551891419511,"click_time":1551891421077,"finger_time":1551891420297,"fix_duration":1273.2952001451565,"trial":11,"RT":786,"MT":780,"sideResp":1,"stimulus":[],"xmouse":[779,779,779,779,779,779,779,779,779,779,779,779,779,779,779,779,779,779,779,779,779,779,779,779,779,779,779,779,779,779,779,779,779,779,779,779,779,781,784,784,784,780,777,773,772,770,763,758,752,740,727,702,694,680,662,639,598,584,577,576,576,576,574,569,560,553,547,542,542,541,537,531,530,530,530,530,530,528,522],"ymouse":[624,624,624,624,624,624,624,624,624,624,624,624,624,624,624,624,624,624,624,624,624,624,624,624,624,624,624,624,624,624,624,624,624,624,624,624,619,605,584,513,448,372,349,331,320,308,281,268,255,237,219,190,180,165,144,117,75,62,57,55,55,55,55,55,57,59,60,62,62,62,64,64,65,65,65,65,65,66,69],"timestamp_mouse":[10,42,47,65,86,106,127,145,167,185,206,226,246,267,286,306,326,345,366,386,406,426,446,467,486,506,526,546,566,586,606,626,646,666,686,706,727,746,767,786,806,826,846,866,887,906,926,946,967,986,1007,1026,1045,1065,1085,1106,1126,1146,1166,1186,1206,1226,1246,1266,1286,1306,1326,1347,1366,1386,1407,1426,1445,1466,1487,1506,1526,1546,1566],"xSR":741.5,"ySR":573.95,"xT1":424.9,"yT1":0,"xT2":1058.1,"yT2":0,"toosoon":0,"cond_shown":"Congruent","ratio_trial":100,"L_num":9,"L_den":15,"R_num":8,"R_den":16,"correct_side":1,"subjID":"angelasofiasantamariasuarez14","gender":"1","school":"6","age":"10"},{"start_time":1551891422448,"click_time":1551891424397,"finger_time":1551891423778,"fix_duration":250,"trial":12,"RT":1330,"MT":619,"sideResp":1,"stimulus":[],"xmouse":[794,794,794,794,794,794,794,794,794,794,794,794,794,794,794,794,794,794,794,794,794,794,794,794,794,794,794,794,794,794,794,794,794,794,794,794,794,794,794,794,794,794,794,794,794,794,794,794,794,794,794,794,794,794,794,794,794,794,794,794,794,794,794,794,794,794,792,788,777,758,747,735,720,714,702,696,690,683,670,641,631,628,623,608,597,596,595,589,577,563,542,537,537,536,534,531,526,524],"ymouse":[595,595,595,595,595,595,595,595,595,595,595,595,595,595,595,595,595,595,595,595,595,595,595,595,595,595,595,595,595,595,595,595,595,595,595,595,595,595,595,595,595,595,595,595,595,595,595,594,591,590,589,589,589,589,589,589,589,589,589,589,589,589,589,589,589,582,567,537,466,270,159,60,0,0,0,0,0,0,0,0,0,0,0,12,25,27,29,33,36,40,43,43,43,43,36,30,22,18],"timestamp_mouse":[16,47,49,68,89,109,129,149,168,190,209,230,249,269,290,308,330,349,368,389,409,430,450,469,488,510,528,549,570,589,610,630,648,669,688,710,729,750,769,788,809,829,849,868,889,908,929,950,970,989,1010,1029,1049,1069,1089,1109,1130,1148,1170,1190,1210,1229,1250,1268,1289,1309,1330,1350,1369,1389,1408,1429,1450,1469,1490,1508,1529,1550,1570,1589,1608,1630,1650,1669,1689,1709,1730,1748,1769,1789,1809,1829,1849,1869,1889,1908,1928,1949],"xSR":741.5,"ySR":573.95,"xT1":424.9,"yT1":0,"xT2":1058.1,"yT2":0,"toosoon":0,"cond_shown":"Incongruent","ratio_trial":100,"L_num":1,"L_den":2,"R_num":8,"R_den":20,"correct_side":1,"subjID":"angelasofiasantamariasuarez14","gender":"1","school":"6","age":"10"},{"start_time":1551891425889,"click_time":1551891427817,"finger_time":1551891427257,"fix_duration":250,"trial":13,"RT":1368,"MT":560,"sideResp":1,"stimulus":[],"xmouse":[772,772,772,772,772,772,772,772,772,772,772,772,772,772,772,772,772,772,772,772,772,772,772,772,773,775,777,777,777,777,777,778,778,778,778,778,778,778,778,778,778,778,778,778,778,778,778,778,778,778,778,778,778,778,778,778,778,778,778,778,778,778,778,778,778,778,778,778,778,778,769,757,745,734,733,730,728,712,701,683,653,620,573,554,542,537,536,536,536,536,536,536,536,535,530,525,521],"ymouse":[589,589,589,589,589,589,589,589,589,589,589,589,589,589,589,589,589,589,589,589,589,589,589,589,589,589,589,589,589,589,589,589,589,589,589,589,589,589,589,589,589,589,589,589,589,589,589,589,589,589,589,589,589,589,589,589,589,589,589,589,589,589,589,589,589,589,589,577,555,527,448,379,320,279,271,263,258,238,223,203,169,142,114,103,96,93,93,93,93,93,93,93,93,92,90,86,82],"timestamp_mouse":[8,36,49,69,87,108,128,148,168,189,208,228,248,269,287,309,328,347,367,389,407,428,449,468,488,508,527,547,568,587,608,628,649,667,688,708,727,748,768,789,807,829,847,868,888,909,927,948,969,989,1007,1027,1048,1067,1088,1107,1127,1148,1167,1188,1207,1228,1248,1268,1287,1308,1328,1348,1368,1388,1408,1427,1447,1468,1487,1507,1529,1548,1568,1587,1607,1629,1648,1667,1688,1708,1727,1748,1769,1789,1808,1827,1848,1868,1887,1908,1928],"xSR":741.5,"ySR":573.95,"xT1":424.9,"yT1":0,"xT2":1058.1,"yT2":0,"toosoon":0,"cond_shown":"Congruent","ratio_trial":200,"L_num":8,"L_den":15,"R_num":2,"R_den":6,"correct_side":1,"subjID":"angelasofiasantamariasuarez14","gender":"1","school":"6","age":"10"},{"start_time":1551891429543,"click_time":1551891430996,"finger_time":1551891430877,"fix_duration":764.3381381188487,"trial":14,"RT":1334,"MT":119,"sideResp":2,"stimulus":[],"xmouse":[767,767,767,767,767,767,767,767,767,767,767,767,767,767,767,767,767,767,767,767,767,767,767,767,767,767,767,767,767,767,767,767,767,767,767,767,767,767,767,767,767,767,767,767,767,767,767,767,767,767,767,767,767,767,767,767,767,767,767,767,767,767,767,767,773,785,810,849,929,1037,1078,1099,1113],"ymouse":[610,610,610,610,610,610,610,610,610,610,610,610,610,610,610,610,610,610,610,610,610,610,610,610,610,610,610,610,610,610,610,610,610,610,610,610,610,610,610,610,610,610,610,610,610,610,610,610,610,610,610,610,610,610,610,610,610,610,610,610,610,610,610,610,603,586,551,498,382,222,160,123,98],"timestamp_mouse":[15,41,55,74,94,113,135,154,174,194,215,234,253,275,294,313,335,355,374,393,414,434,454,474,495,515,535,554,574,594,615,635,654,674,695,713,733,754,773,793,815,835,853,875,893,914,935,953,975,993,1014,1034,1053,1074,1095,1114,1135,1154,1174,1195,1215,1234,1254,1274,1294,1314,1334,1355,1374,1394,1413,1435,1453],"xSR":741.5,"ySR":573.95,"xT1":424.9,"yT1":0,"xT2":1058.1,"yT2":0,"toosoon":0,"cond_shown":"Congruent","ratio_trial":100,"L_num":6,"L_den":20,"R_num":5,"R_den":25,"correct_side":1,"subjID":"angelasofiasantamariasuarez14","gender":"1","school":"6","age":"10"},{"start_time":1551891432408,"click_time":1551891433617,"finger_time":1551891433177,"fix_duration":250,"trial":15,"RT":769,"MT":440,"sideResp":1,"stimulus":[],"xmouse":[754,754,754,754,755,756,756,757,757,757,757,757,758,760,761,763,765,765,765,765,765,765,765,765,765,765,765,765,765,765,765,765,765,765,765,765,765,765,760,749,735,699,683,671,662,655,650,645,640,635,631,620,604,587,560,555,541,538,535,526,506],"ymouse":[606,606,606,607,607,606,606,605,605,605,605,605,604,603,602,601,599,599,599,599,599,599,599,599,599,599,599,599,599,599,599,599,599,599,599,599,599,578,534,499,466,403,378,362,350,339,330,323,316,309,301,258,191,116,23,9,0,0,0,0,3],"timestamp_mouse":[9,45,49,69,89,108,130,148,169,188,208,229,248,268,288,309,329,348,369,390,410,430,448,469,488,510,528,548,569,588,610,630,649,670,688,708,730,749,769,790,809,829,848,868,889,910,929,948,968,989,1009,1029,1048,1069,1088,1109,1129,1148,1169,1189,1208],"xSR":741.5,"ySR":573.95,"xT1":424.9,"yT1":0,"xT2":1058.1,"yT2":0,"toosoon":0,"cond_shown":"Congruent","ratio_trial":200,"L_num":16,"L_den":20,"R_num":12,"R_den":20,"correct_side":1,"subjID":"angelasofiasantamariasuarez14","gender":"1","school":"6","age":"10"},{"start_time":1551891435809,"click_time":1551891436777,"finger_time":1551891436457,"fix_duration":1150.4426117000833,"trial":16,"RT":648,"MT":320,"sideResp":1,"stimulus":[],"xmouse":[783,783,783,783,783,783,783,783,783,783,783,783,783,783,783,783,783,783,783,783,783,783,783,783,783,783,783,783,783,783,783,783,752,723,700,660,606,586,572,560,550,542,535,534,534,534,532,527,519],"ymouse":[608,608,608,608,608,608,608,608,608,608,608,608,608,608,608,608,608,608,608,608,608,608,608,608,608,608,608,608,608,607,599,575,446,391,351,279,150,104,72,45,21,1,0,0,0,0,0,1,5],"timestamp_mouse":[9,29,49,68,88,107,127,148,168,188,207,227,247,269,287,308,329,349,368,388,408,429,448,467,489,507,528,547,569,587,609,627,648,668,687,708,729,747,768,788,808,828,847,868,888,907,929,948,967],"xSR":741.5,"ySR":573.95,"xT1":424.9,"yT1":0,"xT2":1058.1,"yT2":0,"toosoon":0,"cond_shown":"Congruent","ratio_trial":200,"L_num":16,"L_den":20,"R_num":12,"R_den":20,"correct_side":1,"subjID":"angelasofiasantamariasuarez14","gender":"1","school":"6","age":"10"},{"start_time":1551891439061,"click_time":1551891441337,"finger_time":1551891440337,"fix_duration":1023.0714594833955,"trial":17,"RT":1276,"MT":1000,"sideResp":1,"stimulus":[],"xmouse":[769,769,769,769,769,769,769,769,769,769,769,769,769,769,769,769,769,769,769,769,769,769,769,769,769,769,769,769,769,769,769,769,769,769,769,770,771,772,773,773,773,773,774,774,774,774,774,774,774,774,774,774,774,775,776,777,777,778,779,780,782,786,790,796,813,833,863,892,944,958,962,963,963,963,963,963,962,958,940,925,903,879,845,797,778,763,755,749,737,731,721,710,694,665,643,622,607,598,592,590,587,578,566,561,561,561,561,561,559,556,550,543,539,520],"ymouse":[622,622,622,622,622,622,622,622,622,622,622,622,622,622,622,622,622,622,622,622,622,622,622,622,622,622,622,622,622,622,622,622,622,622,622,623,622,621,621,621,621,620,619,618,618,618,618,618,618,618,618,618,618,616,615,613,612,612,609,608,604,595,586,571,527,464,362,264,118,83,68,60,60,60,60,59,56,53,46,42,39,36,24,16,14,14,14,14,17,20,21,23,24,28,32,35,36,36,36,36,36,38,41,42,42,42,42,43,43,43,43,43,43,50],"timestamp_mouse":[16,40,55,76,96,115,136,156,177,196,215,236,256,275,297,316,336,357,377,395,417,437,457,476,497,515,537,556,575,597,617,635,656,677,697,716,736,755,777,797,817,836,856,875,897,917,936,956,976,996,1016,1037,1056,1076,1095,1115,1136,1157,1176,1195,1216,1237,1256,1276,1296,1316,1336,1355,1375,1395,1416,1436,1455,1477,1496,1517,1535,1555,1576,1596,1615,1636,1655,1676,1695,1715,1736,1757,1776,1796,1815,1835,1855,1876,1895,1915,1936,1956,1976,1996,2017,2035,2056,2076,2096,2117,2135,2156,2176,2196,2215,2236,2257,2276],"xSR":741.5,"ySR":573.95,"xT1":424.9,"yT1":0,"xT2":1058.1,"yT2":0,"toosoon":0,"cond_shown":"Congruent","ratio_trial":100,"L_num":11,"L_den":22,"R_num":4,"R_den":10,"correct_side":1,"subjID":"angelasofiasantamariasuarez14","gender":"1","school":"6","age":"10"},{"start_time":1551891446398,"click_time":1551891448097,"finger_time":1551891447696,"fix_duration":419.5100642227939,"trial":18,"RT":1298,"MT":401,"sideResp":1,"stimulus":[],"xmouse":[785,785,785,785,785,785,785,785,785,785,785,785,785,785,785,785,785,785,785,785,785,785,785,785,786,786,786,786,786,786,786,786,786,786,786,786,786,786,786,786,786,786,786,786,786,786,786,786,786,786,786,786,786,786,786,786,786,786,786,786,786,786,785,777,773,748,720,654,626,600,575,529,482,466,453,452,451,451,451,451,451,451,451,450,450],"ymouse":[607,607,607,607,607,607,607,607,607,607,607,607,607,607,607,607,607,607,607,607,606,603,602,600,599,598,597,596,596,596,596,596,596,596,596,596,596,596,596,596,596,596,596,596,596,596,596,596,596,596,596,596,596,596,596,596,596,596,596,596,596,596,591,576,566,516,456,305,238,179,122,52,0,0,0,0,0,0,0,0,0,0,0,0,1],"timestamp_mouse":[20,39,59,79,99,120,138,159,180,199,220,240,258,278,300,319,338,359,380,398,419,439,458,479,498,518,538,559,578,599,619,639,659,680,699,720,739,759,779,799,819,839,859,878,899,919,940,959,978,999,1019,1039,1060,1079,1100,1119,1138,1158,1178,1200,1218,1240,1258,1279,1298,1319,1338,1359,1379,1399,1419,1438,1458,1479,1500,1518,1539,1559,1579,1599,1619,1640,1658,1679,1699],"xSR":741.5,"ySR":573.95,"xT1":424.9,"yT1":0,"xT2":1058.1,"yT2":0,"toosoon":0,"cond_shown":"Incongruent","ratio_trial":300,"L_num":2,"L_den":4,"R_num":6,"R_den":30,"correct_side":1,"subjID":"angelasofiasantamariasuarez14","gender":"1","school":"6","age":"10"},{"start_time":1551891450392,"click_time":1551891452237,"finger_time":1551891451597,"fix_duration":1214.0239737644592,"trial":19,"RT":1205,"MT":640,"sideResp":2,"stimulus":[],"xmouse":[768,768,768,768,768,768,768,768,768,768,768,768,768,768,768,768,768,768,768,768,768,768,768,768,768,769,769,769,769,769,769,770,770,770,770,770,770,770,771,771,771,771,771,771,771,771,771,771,771,771,772,773,778,780,782,785,788,798,805,814,824,834,853,865,876,900,920,945,953,954,954,954,954,955,958,963,974,982,1003,1007,1008,1009,1012,1012,1012,1013,1014,1017,1026,1032,1052,1070,1081],"ymouse":[631,631,631,631,631,631,631,631,631,631,631,631,631,631,631,631,631,631,631,631,631,631,631,631,631,630,630,630,630,630,630,629,629,629,629,629,629,629,629,629,629,629,629,629,629,629,629,629,629,627,626,624,619,616,613,609,604,593,583,574,561,548,516,495,469,411,365,273,243,224,212,206,204,202,199,192,177,169,155,153,152,151,150,150,150,150,149,140,131,123,115,106,98],"timestamp_mouse":[10,32,45,65,86,106,126,144,164,185,206,226,244,266,285,304,324,345,364,384,406,425,445,464,485,504,526,545,564,585,605,624,646,664,684,705,725,745,765,786,806,824,845,865,886,905,925,945,966,985,1006,1026,1045,1065,1085,1105,1125,1145,1165,1184,1204,1224,1245,1264,1285,1306,1325,1344,1365,1385,1405,1424,1445,1465,1485,1506,1525,1544,1566,1585,1606,1624,1645,1664,1685,1704,1726,1745,1765,1784,1804,1826,1845],"xSR":741.5,"ySR":573.95,"xT1":424.9,"yT1":0,"xT2":1058.1,"yT2":0,"toosoon":0,"cond_shown":"Congruent","ratio_trial":200,"L_num":9,"L_den":30,"R_num":13,"R_den":26,"correct_side":2,"subjID":"angelasofiasantamariasuarez14","gender":"1","school":"6","age":"10"},{"start_time":1551891453935,"click_time":1551891454876,"finger_time":1551891454736,"fix_duration":436.9664952815991,"trial":20,"RT":801,"MT":140,"sideResp":1,"stimulus":[],"xmouse":[779,779,779,779,779,779,779,779,779,779,779,779,779,779,779,779,779,779,779,779,779,779,779,779,779,779,779,779,779,779,779,779,779,779,779,779,779,778,777,776,774,763,752,731,706,678,584,519],"ymouse":[620,620,620,620,620,620,620,620,620,620,620,620,620,620,620,620,620,620,620,620,620,620,620,620,620,620,620,620,620,620,620,619,617,616,614,609,606,599,593,585,573,537,501,453,396,329,154,49],"timestamp_mouse":[9,34,43,62,81,103,121,141,162,182,201,221,242,262,281,302,322,342,362,381,403,423,443,462,482,501,523,541,563,582,602,621,642,661,682,702,723,741,762,783,801,821,842,862,883,902,921,941],"xSR":741.5,"ySR":573.95,"xT1":424.9,"yT1":0,"xT2":1058.1,"yT2":0,"toosoon":0,"cond_shown":"Incongruent","ratio_trial":300,"L_num":1,"L_den":2,"R_num":3,"R_den":15,"correct_side":1,"subjID":"angelasofiasantamariasuarez14","gender":"1","school":"6","age":"10"},{"start_time":1551891457088,"click_time":1551891458918,"finger_time":1551891457657,"fix_duration":250,"trial":21,"RT":569,"MT":1261,"sideResp":2,"stimulus":[],"xmouse":[787,787,787,787,787,787,787,787,787,787,787,787,787,787,787,787,787,787,787,787,787,787,787,787,786,786,785,784,783,783,783,783,783,783,783,782,781,781,781,781,781,781,781,781,781,781,781,781,781,781,781,781,781,781,781,781,781,781,781,781,781,781,781,781,782,785,790,799,812,829,856,872,883,899,906,917,929,952,962,972,980,1001,1025,1031,1038,1042,1044,1044,1045,1052,1056,1065],"ymouse":[584,584,584,584,584,584,584,584,584,584,584,584,584,584,584,584,584,584,584,584,584,584,584,584,582,581,578,574,572,571,571,571,571,571,569,567,565,563,562,562,562,562,562,562,562,562,562,562,562,562,562,562,562,562,562,562,562,562,562,562,562,561,551,542,525,501,473,413,369,312,241,208,187,152,135,121,105,78,66,59,54,52,51,50,48,47,47,47,47,47,47,51],"timestamp_mouse":[10,33,49,69,89,108,129,149,170,189,209,228,248,269,289,309,329,348,369,390,410,429,449,469,489,509,529,549,569,588,609,630,650,669,689,709,728,749,768,788,809,830,849,869,889,909,929,948,968,989,1010,1029,1050,1068,1088,1110,1130,1150,1169,1188,1209,1228,1248,1268,1288,1309,1328,1348,1368,1389,1409,1428,1448,1469,1489,1508,1529,1549,1568,1589,1609,1629,1649,1668,1689,1709,1728,1749,1769,1788,1808,1829],"xSR":741.5,"ySR":573.95,"xT1":424.9,"yT1":0,"xT2":1058.1,"yT2":0,"toosoon":0,"cond_shown":"Congruent","ratio_trial":100,"L_num":12,"L_den":30,"R_num":13,"R_den":26,"correct_side":2,"subjID":"angelasofiasantamariasuarez14","gender":"1","school":"6","age":"10"},{"start_time":1551891462509,"click_time":1551891463917,"finger_time":1551891463356,"fix_duration":610.4973931992567,"trial":22,"RT":847,"MT":561,"sideResp":1,"stimulus":[],"xmouse":[760,762,765,765,770,772,773,773,774,774,774,775,775,775,775,775,775,775,775,775,775,775,775,775,775,775,775,775,775,775,775,775,775,775,775,772,767,753,751,751,751,751,730,719,709,677,634,628,628,628,628,628,628,630,631,633,640,640,644,644,644,622,609,601,593,585,573,562,551,535,514],"ymouse":[600,598,601,601,605,607,608,608,609,609,609,610,610,610,610,610,610,610,610,610,610,610,610,610,610,610,610,610,610,610,610,610,610,610,610,610,607,600,599,599,599,598,583,571,554,495,418,409,408,408,407,406,406,405,404,401,390,386,376,368,345,260,219,189,163,136,94,72,50,31,14],"timestamp_mouse":[8,28,61,68,87,107,128,148,168,188,208,229,247,267,288,308,327,347,369,387,407,428,448,467,489,509,528,548,568,588,608,629,647,667,688,708,728,748,768,788,808,827,847,867,888,908,928,949,969,988,1008,1027,1047,1078,1088,1109,1128,1149,1167,1187,1207,1228,1247,1267,1287,1307,1327,1347,1368,1388,1408],"xSR":741.5,"ySR":573.95,"xT1":424.9,"yT1":0,"xT2":1058.1,"yT2":0,"toosoon":0,"cond_shown":"Congruent","ratio_trial":300,"L_num":20,"L_den":25,"R_num":5,"R_den":10,"correct_side":1,"subjID":"angelasofiasantamariasuarez14","gender":"1","school":"6","age":"10"},{"start_time":1551891467124,"click_time":1551891469437,"finger_time":1551891468436,"fix_duration":1425.961735749431,"trial":23,"RT":1312,"MT":1001,"sideResp":1,"stimulus":[],"xmouse":[795,795,795,795,795,795,795,795,795,795,795,795,795,795,795,795,795,796,796,796,796,796,796,796,796,796,796,796,796,796,796,796,796,796,796,796,796,796,796,796,796,796,796,796,796,796,796,796,796,796,796,796,796,796,796,796,796,796,796,796,796,796,796,796,796,789,780,770,760,750,731,717,691,681,666,646,641,632,622,615,605,600,588,571,552,548,548,548,547,541,538,530,528,525,525,525,525,527,528,528,528,528,528,528,528,528,528,528,528,528,528,528,528,528,526,518],"ymouse":[598,598,596,596,596,596,596,596,596,596,596,596,596,596,596,596,596,595,595,595,595,595,595,595,595,595,595,595,595,595,595,595,595,595,595,595,595,595,595,595,595,595,595,595,595,595,595,595,595,595,595,595,595,595,595,595,592,591,590,590,590,590,590,588,586,570,554,535,509,474,430,405,369,349,328,299,291,280,269,259,239,230,217,203,189,187,187,187,187,177,172,164,161,153,147,137,131,126,122,119,112,108,105,103,100,99,99,99,99,99,99,99,99,98,96,88],"timestamp_mouse":[13,32,53,74,94,112,134,152,174,192,212,232,254,273,292,313,333,353,372,393,412,434,452,474,492,514,536,554,573,593,612,634,652,674,693,712,733,753,774,792,813,834,853,874,892,913,932,953,974,992,1013,1034,1052,1074,1094,1113,1132,1154,1173,1194,1214,1234,1254,1273,1292,1312,1332,1353,1373,1393,1412,1433,1453,1473,1492,1512,1533,1553,1572,1593,1613,1633,1653,1672,1693,1713,1733,1753,1773,1792,1813,1832,1852,1873,1893,1913,1932,1953,1973,1994,2013,2032,2052,2072,2093,2113,2133,2154,2173,2192,2213,2234,2253,2272,2292,2312],"xSR":741.5,"ySR":573.95,"xT1":424.9,"yT1":0,"xT2":1058.1,"yT2":0,"toosoon":0,"cond_shown":"Incongruent","ratio_trial":100,"L_num":2,"L_den":4,"R_num":6,"R_den":15,"correct_side":1,"subjID":"angelasofiasantamariasuarez14","gender":"1","school":"6","age":"10"},{"start_time":1551891470905,"click_time":1551891472597,"finger_time":1551891472137,"fix_duration":307.8973329691169,"trial":24,"RT":1232,"MT":460,"sideResp":1,"stimulus":[],"xmouse":[793,793,793,793,793,793,793,793,793,793,793,793,793,793,793,793,793,793,793,793,793,793,793,793,793,793,793,793,793,793,793,793,793,793,793,793,793,793,793,793,793,794,795,795,796,796,796,796,796,796,796,796,796,796,796,796,796,796,792,789,786,773,766,756,752,748,728,712,698,670,644,585,569,559,549,548,548,548,548,548,547,543,537,531,522],"ymouse":[611,611,611,611,611,611,611,611,611,611,611,611,611,611,611,611,611,611,611,611,611,611,611,611,611,611,611,611,611,611,611,611,611,611,611,611,611,611,611,611,611,611,611,611,610,610,610,610,610,610,610,610,610,610,610,610,609,604,596,585,581,553,540,520,510,501,455,417,384,323,271,187,174,166,160,159,159,159,159,158,153,137,122,103,84],"timestamp_mouse":[12,40,52,73,92,111,132,152,171,191,212,231,251,272,291,311,332,352,372,393,411,433,453,472,491,513,533,551,571,593,612,631,653,672,692,713,731,752,772,791,813,832,851,871,892,913,931,953,973,992,1012,1032,1052,1072,1093,1113,1132,1151,1171,1191,1213,1232,1253,1271,1291,1311,1331,1352,1372,1393,1412,1433,1451,1471,1493,1511,1532,1552,1573,1591,1611,1631,1652,1672,1692],"xSR":741.5,"ySR":573.95,"xT1":424.9,"yT1":0,"xT2":1058.1,"yT2":0,"toosoon":0,"cond_shown":"Incongruent","ratio_trial":100,"L_num":3,"L_den":5,"R_num":8,"R_den":16,"correct_side":1,"subjID":"angelasofiasantamariasuarez14","gender":"1","school":"6","age":"10"},{"start_time":1551891476797,"click_time":1551891480018,"finger_time":1551891477697,"fix_duration":679.3654031076937,"trial":25,"RT":900,"MT":2321,"sideResp":1,"stimulus":[],"xmouse":[783,783,783,783,783,783,783,783,783,783,783,783,783,783,783,783,783,783,783,783,783,783,783,783,783,783,783,783,783,783,783,783,783,783,783,783,783,783,783,783,783,783,785,788,790,795,798,805,809,811,813,814,814,814,814,803,792,761,747,735,723,710,663,636,620,609,584,568,568,568,568,568,566,563,560,560,560,560,560,558,558,558,558,558,557,554,548,547,547,547,547,547,547,547,547,547,547,547,547,547,547,547,547,547,547,547,547,547,547,547,547,547,547,547,547,547,547,547,547,547,547,547,547,547,547,547,547,546,544,540,537,533,523,505,480,445,383,330,312,298,290,288,287,287,287,287,288,313,322,327,330,336,361,375,384,386,393,403,407,413,423,430],"ymouse":[594,594,594,594,594,594,594,594,594,594,594,594,594,594,594,594,594,594,594,594,594,594,594,594,594,594,594,594,594,594,594,594,594,594,594,594,594,594,594,594,594,594,593,588,583,570,561,536,521,507,490,475,440,416,391,358,333,288,268,246,228,209,115,69,50,39,22,16,16,16,16,16,16,18,20,20,20,20,20,23,23,23,23,23,24,25,26,26,26,26,26,26,26,26,26,26,26,26,26,26,26,26,26,26,26,26,26,26,26,26,26,26,26,26,26,26,26,26,26,26,26,26,26,26,26,26,26,19,6,0,0,0,0,0,0,0,0,0,0,0,0,0,0,0,0,0,0,0,0,1,2,3,11,15,18,18,21,24,26,27,29,30],"timestamp_mouse":[10,20,40,60,81,100,120,140,161,179,200,221,240,260,281,301,319,340,361,381,400,420,441,461,481,499,520,541,561,579,600,620,639,659,680,700,721,740,759,781,801,820,841,860,880,900,920,940,960,980,1000,1019,1039,1060,1080,1100,1120,1140,1159,1180,1200,1221,1240,1261,1279,1299,1319,1339,1361,1380,1400,1421,1440,1459,1480,1500,1520,1541,1560,1579,1600,1620,1639,1661,1681,1701,1720,1741,1761,1780,1799,1820,1841,1860,1880,1900,1921,1940,1959,1980,2000,2020,2039,2059,2080,2099,2119,2140,2160,2180,2199,2219,2239,2260,2280,2301,2321,2340,2361,2380,2401,2421,2440,2460,2480,2500,2521,2540,2559,2579,2601,2619,2639,2659,2679,2701,2721,2740,2760,2781,2800,2821,2840,2861,2880,2900,2920,2940,2960,2979,3001,3021,3040,3060,3079,3100,3121,3140,3160,3181,3200,3221],"xSR":741.5,"ySR":573.95,"xT1":424.9,"yT1":0,"xT2":1058.1,"yT2":0,"toosoon":0,"cond_shown":"Congruent","ratio_trial":200,"L_num":6,"L_den":15,"R_num":3,"R_den":15,"correct_side":1,"subjID":"angelasofiasantamariasuarez14","gender":"1","school":"6","age":"10"},{"start_time":1551891483276,"click_time":1551891485156,"finger_time":1551891484557,"fix_duration":357.39662285186114,"trial":26,"RT":1281,"MT":599,"sideResp":1,"stimulus":[],"xmouse":[799,799,799,799,799,799,799,799,799,799,799,799,799,799,799,799,799,799,799,799,799,799,799,799,799,799,799,799,799,799,799,799,799,799,799,799,799,799,799,799,799,799,799,799,799,799,799,799,799,799,799,799,799,799,799,799,799,799,799,799,799,794,791,775,759,730,681,605,467,421,400,394,393,393,393,393,394,398,401,402,404,408,413,415,416,416,416,416,416,416,416,418,420,424,425],"ymouse":[614,614,614,614,614,614,614,614,614,614,614,614,614,614,614,614,614,614,614,614,614,614,614,614,614,614,614,614,614,614,614,614,614,614,614,614,614,614,614,614,614,614,614,614,614,614,614,614,614,614,614,614,614,614,614,614,614,614,614,614,614,611,608,583,552,504,429,330,164,108,73,59,52,51,51,50,49,47,45,43,41,39,35,33,32,32,32,32,32,32,32,32,31,32,33],"timestamp_mouse":[9,21,44,61,81,101,121,141,160,180,201,220,241,261,281,301,321,342,361,381,401,422,440,461,481,502,520,541,560,580,600,621,641,661,681,700,720,741,762,780,801,821,840,860,880,901,920,941,961,980,1000,1020,1040,1062,1080,1100,1121,1141,1160,1180,1201,1220,1240,1261,1281,1300,1321,1340,1360,1380,1401,1421,1440,1461,1480,1500,1520,1540,1560,1580,1600,1620,1640,1661,1681,1700,1720,1740,1761,1780,1801,1820,1840,1861,1880],"xSR":741.5,"ySR":573.95,"xT1":424.9,"yT1":0,"xT2":1058.1,"yT2":0,"toosoon":0,"cond_shown":"Congruent","ratio_trial":300,"L_num":3,"L_den":6,"R_num":2,"R_den":10,"correct_side":1,"subjID":"angelasofiasantamariasuarez14","gender":"1","school":"6","age":"10"},{"start_time":1551891488408,"click_time":1551891489817,"finger_time":1551891489336,"fix_duration":591.7126385401998,"trial":27,"RT":928,"MT":481,"sideResp":2,"stimulus":[],"xmouse":[791,791,791,791,791,791,791,791,791,791,791,791,791,790,789,787,785,785,785,785,785,785,785,785,785,785,785,785,785,785,785,785,785,785,785,785,785,785,785,785,785,785,785,785,785,785,789,793,797,801,810,826,833,841,849,856,857,854,853,853,854,867,873,886,889,897,910,922,959,1024,1100],"ymouse":[588,588,588,588,588,588,588,588,588,588,588,588,588,587,584,581,578,578,578,578,578,578,578,578,578,578,578,578,578,578,578,578,578,578,578,578,578,578,578,578,578,578,578,578,577,576,565,557,545,536,518,481,467,450,429,385,332,307,283,261,241,201,180,151,144,126,116,110,85,59,38],"timestamp_mouse":[9,33,49,69,88,110,129,148,169,188,208,228,248,269,289,308,329,348,369,389,408,428,448,469,489,508,529,548,569,589,608,628,648,669,690,709,728,748,769,790,809,828,850,869,888,909,928,949,969,989,1009,1028,1048,1068,1088,1108,1128,1150,1169,1188,1208,1228,1248,1268,1288,1309,1328,1350,1369,1389,1409],"xSR":741.5,"ySR":573.95,"xT1":424.9,"yT1":0,"xT2":1058.1,"yT2":0,"toosoon":0,"cond_shown":"Incongruent","ratio_trial":200,"L_num":14,"L_den":30,"R_num":6,"R_den":9,"correct_side":2,"subjID":"angelasofiasantamariasuarez14","gender":"1","school":"6","age":"10"},{"start_time":1551891493360,"click_time":1551891494216,"finger_time":1551891493976,"fix_duration":481.9825534554278,"trial":28,"RT":616,"MT":240,"sideResp":1,"stimulus":[],"xmouse":[772,772,772,773,773,773,773,773,773,773,773,773,773,773,773,773,773,773,773,773,773,773,773,773,773,773,773,773,773,771,761,744,721,690,674,656,633,591,526,493,466,450,445],"ymouse":[623,623,623,623,623,623,623,623,623,623,623,623,623,623,623,623,623,623,623,623,623,623,623,623,623,623,623,623,612,595,570,542,511,459,433,402,371,317,229,184,146,113,90],"timestamp_mouse":[16,42,56,76,97,117,137,157,176,196,217,236,257,277,297,316,336,357,376,397,417,438,457,476,496,517,536,556,576,596,616,636,657,676,696,717,736,756,776,796,817,838,856],"xSR":741.5,"ySR":573.95,"xT1":424.9,"yT1":0,"xT2":1058.1,"yT2":0,"toosoon":0,"cond_shown":"Congruent","ratio_trial":300,"L_num":11,"L_den":22,"R_num":2,"R_den":10,"correct_side":1,"subjID":"angelasofiasantamariasuarez14","gender":"1","school":"6","age":"10"},{"start_time":1551891498550,"click_time":1551891500156,"finger_time":1551891499336,"fix_duration":632.0351631599615,"trial":29,"RT":786,"MT":820,"sideResp":1,"stimulus":[],"xmouse":[757,757,757,757,757,757,757,757,757,757,757,757,757,757,757,757,757,757,757,757,757,757,757,757,757,757,757,757,757,757,757,757,757,757,757,757,757,757,757,757,757,757,757,757,756,750,745,738,719,689,671,646,624,614,605,597,583,563,554,551,552,558,563,570,586,588,588,585,584,570,558,546,531,520,495,483,476,470,469,468,471],"ymouse":[581,581,581,581,581,581,581,581,581,581,581,581,581,581,581,581,581,581,581,581,581,581,581,581,581,581,581,581,581,581,581,581,581,581,581,581,581,580,578,573,572,571,571,569,567,562,557,551,535,514,503,491,478,465,450,438,425,408,397,370,352,333,313,293,254,246,241,234,234,223,215,206,193,183,163,151,144,126,117,100,92],"timestamp_mouse":[14,36,47,67,87,106,126,146,166,187,206,227,247,266,286,306,327,346,366,386,407,427,447,467,486,508,527,546,566,586,607,627,646,666,686,707,726,747,766,786,807,827,847,866,886,906,927,947,966,986,1006,1026,1047,1068,1086,1106,1126,1148,1166,1187,1207,1227,1246,1266,1286,1306,1326,1346,1367,1387,1406,1426,1446,1466,1486,1507,1526,1546,1567,1586,1606],"xSR":741.5,"ySR":573.95,"xT1":424.9,"yT1":0,"xT2":1058.1,"yT2":0,"toosoon":0,"cond_shown":"Congruent","ratio_trial":200,"L_num":8,"L_den":15,"R_num":3,"R_den":9,"correct_side":1,"subjID":"angelasofiasantamariasuarez14","gender":"1","school":"6","age":"10"},{"start_time":1551891502323,"click_time":1551891503497,"finger_time":1551891502936,"fix_duration":946.479881375077,"trial":30,"RT":613,"MT":561,"sideResp":2,"stimulus":[],"xmouse":[824,824,824,824,824,824,824,824,824,824,824,824,824,824,824,824,824,824,824,824,824,824,824,824,824,824,824,825,828,829,842,848,854,857,864,886,898,910,921,931,975,1004,1035,1059,1080,1098,1100,1101,1101,1102,1102,1102,1099,1093,1087,1082,1076,1075,1075],"ymouse":[614,614,614,614,614,614,614,614,614,614,614,614,614,614,614,614,614,614,614,614,614,614,614,614,614,614,614,613,611,611,603,598,593,589,577,546,530,515,498,481,415,374,325,283,246,208,199,194,189,184,176,170,162,152,141,129,109,104,99],"timestamp_mouse":[15,33,63,75,93,113,133,154,173,193,214,235,254,275,295,314,333,353,373,393,414,433,454,473,494,514,535,553,574,594,613,633,654,673,693,713,733,753,774,793,813,833,854,873,894,913,933,953,973,994,1014,1033,1053,1075,1095,1113,1133,1153,1174],"xSR":741.5,"ySR":573.95,"xT1":424.9,"yT1":0,"xT2":1058.1,"yT2":0,"toosoon":0,"cond_shown":"Congruent","ratio_trial":300,"L_num":4,"L_den":20,"R_num":13,"R_den":26,"correct_side":2,"subjID":"angelasofiasantamariasuarez14","gender":"1","school":"6","age":"10"},{"start_time":1551891506714,"click_time":1551891507816,"finger_time":1551891507297,"fix_duration":1276.8259186396458,"trial":31,"RT":583,"MT":519,"sideResp":1,"stimulus":[],"xmouse":[786,786,786,786,786,786,786,786,787,787,790,792,792,793,793,793,793,793,793,793,793,793,793,793,793,793,794,794,794,794,794,794,794,794,794,794,794,794,794,794,794,794,794,794,794,794,787,779,770,760,735,675,644,611,534,435],"ymouse":[601,601,601,601,601,601,601,601,599,598,592,588,586,585,585,585,585,585,585,585,585,585,585,585,585,584,581,578,576,571,569,567,567,566,566,566,566,566,566,566,566,566,566,565,565,561,550,538,522,500,442,334,285,241,152,46],"timestamp_mouse":[10,35,42,63,82,103,122,142,163,183,202,222,242,263,283,302,322,343,363,382,403,422,443,462,482,504,524,542,562,583,604,622,643,663,683,702,722,742,763,783,802,822,843,862,883,903,923,942,963,983,1004,1022,1043,1062,1083,1102],"xSR":741.5,"ySR":573.95,"xT1":424.9,"yT1":0,"xT2":1058.1,"yT2":0,"toosoon":0,"cond_shown":"Congruent","ratio_trial":100,"L_num":3,"L_den":6,"R_num":2,"R_den":5,"correct_side":1,"subjID":"angelasofiasantamariasuarez14","gender":"1","school":"6","age":"10"},{"start_time":1551891511309,"click_time":1551891512496,"finger_time":1551891512097,"fix_duration":1150.4736069309633,"trial":32,"RT":788,"MT":399,"sideResp":1,"stimulus":[],"xmouse":[814,814,814,814,814,814,814,814,814,814,814,814,814,814,814,814,814,814,814,814,814,814,814,814,814,814,814,814,814,814,814,814,814,814,814,814,814,814,814,808,797,778,770,762,757,754,751,749,748,743,739,716,693,671,648,620,588,541,532,522],"ymouse":[583,583,583,583,583,583,583,583,583,583,583,583,583,583,583,583,583,583,583,583,583,583,583,583,583,583,583,583,583,583,583,583,583,583,583,583,583,583,583,572,561,540,533,525,521,519,516,514,507,490,466,382,330,282,235,182,126,48,36,26],"timestamp_mouse":[10,43,48,67,87,107,127,147,168,188,207,227,247,268,287,307,327,347,368,389,407,427,448,468,487,507,527,548,567,587,607,627,647,667,688,708,727,747,767,788,809,827,847,867,887,909,927,947,967,989,1008,1027,1047,1067,1087,1108,1127,1148,1167,1187],"xSR":741.5,"ySR":573.95,"xT1":424.9,"yT1":0,"xT2":1058.1,"yT2":0,"toosoon":0,"cond_shown":"Incongruent","ratio_trial":100,"L_num":17,"L_den":30,"R_num":10,"R_den":15,"correct_side":2,"subjID":"angelasofiasantamariasuarez14","gender":"1","school":"6","age":"10"},{"start_time":1551891514900,"click_time":1551891517016,"finger_time":1551891516297,"fix_duration":962.6438724674396,"trial":33,"RT":1397,"MT":719,"sideResp":2,"stimulus":[],"xmouse":[797,797,797,797,797,797,797,797,797,797,797,797,797,797,797,797,797,797,797,797,797,797,797,797,797,797,797,797,797,797,797,797,797,797,797,797,797,797,797,797,797,797,797,798,798,798,798,798,798,798,798,798,798,798,798,798,798,798,798,798,798,798,798,798,798,798,798,800,802,807,819,840,850,862,876,891,917,927,934,939,944,950,957,964,969,974,1003,1020,1036,1049,1050,1050,1050,1050,1050,1050,1050,1050,1050,1050,1050,1050,1050,1052,1055,1059],"ymouse":[585,585,585,585,585,585,585,585,585,585,585,585,585,585,585,585,585,585,585,585,585,585,585,585,585,585,585,585,585,585,585,585,585,585,585,585,585,585,585,585,585,585,585,585,585,585,585,585,585,585,585,585,585,585,585,585,585,585,585,585,585,585,585,585,585,585,585,582,579,572,558,530,513,495,474,454,409,387,369,351,325,284,262,238,209,173,70,20,0,0,0,0,0,0,0,0,0,0,0,0,0,0,0,0,3,8],"timestamp_mouse":[35,36,56,76,97,116,136,156,178,196,216,237,256,276,297,316,337,356,376,396,416,436,456,476,496,517,536,557,576,597,616,636,656,676,696,717,736,756,776,797,817,836,858,877,896,916,936,957,976,997,1017,1037,1057,1077,1096,1116,1137,1156,1176,1197,1216,1237,1258,1276,1297,1316,1336,1357,1377,1397,1417,1436,1458,1477,1498,1517,1536,1557,1577,1596,1616,1636,1657,1676,1697,1718,1736,1756,1776,1796,1816,1838,1858,1876,1896,1916,1936,1957,1976,1996,2016,2037,2057,2076,2097,2116],"xSR":741.5,"ySR":573.95,"xT1":424.9,"yT1":0,"xT2":1058.1,"yT2":0,"toosoon":0,"cond_shown":"Incongruent","ratio_trial":200,"L_num":4,"L_den":5,"R_num":6,"R_den":10,"correct_side":1,"subjID":"angelasofiasantamariasuarez14","gender":"1","school":"6","age":"10"},{"start_time":1551891518586,"click_time":1551891519557,"finger_time":1551891519377,"fix_duration":328.13024712171944,"trial":34,"RT":791,"MT":180,"sideResp":2,"stimulus":[],"xmouse":[771,771,771,771,771,771,771,771,771,771,771,771,771,771,771,771,771,771,771,771,771,771,771,771,771,771,771,771,771,771,771,771,771,771,771,771,771,792,809,831,859,889,951,982,1008,1031,1060,1103,1121],"ymouse":[611,611,611,611,611,611,611,611,611,611,611,611,611,611,611,611,611,611,611,611,611,611,611,611,611,611,611,611,611,611,611,611,611,611,611,611,611,595,582,564,537,498,403,350,307,265,203,127,86],"timestamp_mouse":[11,34,50,71,90,112,130,150,170,190,211,230,251,270,290,311,331,351,371,390,410,430,452,472,492,511,531,551,571,590,610,631,651,670,691,711,732,750,771,791,810,831,850,871,891,911,930,950,971],"xSR":741.5,"ySR":573.95,"xT1":424.9,"yT1":0,"xT2":1058.1,"yT2":0,"toosoon":0,"cond_shown":"Congruent","ratio_trial":300,"L_num":2,"L_den":20,"R_num":10,"R_den":25,"correct_side":2,"subjID":"angelasofiasantamariasuarez14","gender":"1","school":"6","age":"10"},{"start_time":1551891522180,"click_time":1551891523156,"finger_time":1551891522756,"fix_duration":1461.968493031049,"trial":35,"RT":576,"MT":400,"sideResp":1,"stimulus":[],"xmouse":[805,805,805,805,805,805,805,805,805,805,805,805,805,805,805,805,805,805,805,805,805,805,805,805,805,802,797,788,767,755,737,721,660,623,585,555,533,523,520,519,518,516,513,512,509,493,473,439,430],"ymouse":[599,599,599,599,599,599,599,599,599,599,599,599,599,599,599,599,599,599,599,599,599,599,599,599,599,599,597,585,546,513,468,416,276,184,95,16,0,0,0,0,0,0,0,0,0,0,0,0,3],"timestamp_mouse":[18,36,57,76,96,118,136,156,177,197,218,238,256,276,296,318,337,357,377,397,418,437,458,477,497,517,537,556,576,596,617,637,656,676,696,717,737,756,776,797,816,837,857,877,897,917,937,957,976],"xSR":741.5,"ySR":573.95,"xT1":424.9,"yT1":0,"xT2":1058.1,"yT2":0,"toosoon":0,"cond_shown":"Incongruent","ratio_trial":200,"L_num":4,"L_den":5,"R_num":6,"R_den":10,"correct_side":1,"subjID":"angelasofiasantamariasuarez14","gender":"1","school":"6","age":"10"},{"start_time":1551891526890,"click_time":1551891528277,"finger_time":1551891527296,"fix_duration":1451.4784395156535,"trial":36,"RT":406,"MT":981,"sideResp":2,"stimulus":[],"xmouse":[793,793,793,793,793,793,793,793,793,793,793,793,793,793,793,793,793,793,793,795,800,803,803,803,803,803,803,803,803,803,803,803,803,803,803,803,803,805,817,825,832,839,843,848,854,860,865,880,891,905,919,927,931,933,933,933,934,957,969,973,973,973,974,976,981,990,1000,1032,1053,1078],"ymouse":[599,599,599,599,599,599,599,599,599,599,599,599,599,599,599,599,599,599,599,587,558,543,541,541,541,541,541,541,541,541,541,541,541,541,541,541,534,502,444,422,405,389,368,360,354,350,345,321,301,274,244,206,174,165,162,159,156,136,129,127,127,126,119,110,102,93,86,68,58,50],"timestamp_mouse":[10,32,47,68,87,106,126,146,167,186,207,226,246,267,288,306,327,347,366,387,406,427,446,467,486,506,527,547,567,586,606,628,648,667,687,707,727,746,767,786,806,827,846,867,887,908,926,946,968,986,1006,1028,1046,1066,1086,1107,1127,1146,1166,1187,1206,1226,1246,1268,1287,1306,1328,1346,1366,1387],"xSR":741.5,"ySR":573.95,"xT1":424.9,"yT1":0,"xT2":1058.1,"yT2":0,"toosoon":0,"cond_shown":"Incongruent","ratio_trial":100,"L_num":10,"L_den":25,"R_num":9,"R_den":18,"correct_side":2,"subjID":"angelasofiasantamariasuarez14","gender":"1","school":"6","age":"10"},{"start_time":1551891529569,"click_time":1551891531036,"finger_time":1551891530057,"fix_duration":250,"trial":37,"RT":488,"MT":979,"sideResp":2,"stimulus":[],"xmouse":[763,763,763,763,763,763,763,763,763,763,763,763,763,763,763,763,763,763,763,763,763,763,763,760,759,757,755,753,748,744,741,739,738,738,738,738,738,738,738,739,739,740,741,748,752,756,766,777,804,821,849,893,922,960,974,985,996,1005,1030,1041,1052,1057,1057,1057,1057,1057,1057,1057,1057,1057,1058,1058,1058,1060],"ymouse":[600,600,600,600,600,600,600,600,600,600,600,600,600,600,600,600,600,600,600,600,600,594,591,577,566,552,538,520,492,482,472,464,462,459,458,458,457,456,455,453,452,450,449,442,437,432,417,402,369,349,323,300,287,272,266,259,247,225,137,96,74,66,64,64,64,64,64,64,64,64,64,64,64,64],"timestamp_mouse":[10,34,48,68,88,108,127,147,169,188,208,227,248,267,287,309,328,348,368,388,408,428,448,467,488,507,528,548,567,587,607,628,648,667,687,708,728,748,767,788,808,827,848,867,888,907,928,948,968,987,1007,1028,1047,1068,1087,1107,1128,1148,1167,1187,1208,1227,1249,1267,1287,1307,1327,1347,1367,1387,1408,1428,1447,1467],"xSR":741.5,"ySR":573.95,"xT1":424.9,"yT1":0,"xT2":1058.1,"yT2":0,"toosoon":0,"cond_shown":"Congruent","ratio_trial":200,"L_num":13,"L_den":26,"R_num":14,"R_den":20,"correct_side":2,"subjID":"angelasofiasantamariasuarez14","gender":"1","school":"6","age":"10"},{"start_time":1551891532393,"click_time":1551891533978,"finger_time":1551891532856,"fix_duration":415.5629885549155,"trial":38,"RT":463,"MT":1122,"sideResp":2,"stimulus":[],"xmouse":[787,787,787,787,787,787,787,787,787,787,787,787,787,787,787,787,787,787,787,787,787,791,799,810,818,828,840,848,848,848,847,845,842,841,841,841,841,841,841,841,841,841,841,841,841,841,840,847,857,873,890,906,923,942,945,955,962,986,1002,1018,1032,1045,1070,1079,1084,1085,1088,1092,1094,1096,1097,1098,1098,1094,1090,1088,1087,1087,1087,1087],"ymouse":[598,598,598,598,598,598,598,598,598,598,598,598,598,598,598,598,598,598,598,598,598,592,579,565,553,538,521,506,501,495,493,490,489,488,488,488,488,488,488,488,488,488,488,488,488,488,488,478,465,447,423,400,371,316,295,262,245,218,210,206,203,202,198,196,194,193,192,187,183,176,169,158,133,122,113,108,106,104,102,98],"timestamp_mouse":[11,24,44,63,83,104,123,143,165,184,204,223,243,263,284,304,323,344,363,384,403,424,444,463,484,503,524,543,563,584,604,624,643,663,683,703,723,743,764,784,804,823,843,864,884,903,924,943,964,984,1004,1024,1043,1064,1083,1104,1124,1144,1163,1183,1204,1224,1243,1264,1283,1303,1323,1344,1363,1383,1404,1423,1443,1464,1484,1504,1524,1543,1563,1585],"xSR":741.5,"ySR":573.95,"xT1":424.9,"yT1":0,"xT2":1058.1,"yT2":0,"toosoon":0,"cond_shown":"Congruent","ratio_trial":100,"L_num":1,"L_den":2,"R_num":18,"R_den":30,"correct_side":2,"subjID":"angelasofiasantamariasuarez14","gender":"1","school":"6","age":"10"},{"start_time":1551891535738,"click_time":1551891537276,"finger_time":1551891536736,"fix_duration":779.7256476075775,"trial":39,"RT":998,"MT":540,"sideResp":1,"stimulus":[],"xmouse":[777,777,777,777,777,777,777,777,777,777,777,777,777,777,777,777,777,777,777,777,777,777,777,777,777,777,777,777,777,777,777,777,777,777,777,777,777,777,777,777,777,777,777,777,777,777,777,777,778,863,894,908,910,910,909,908,908,908,908,908,908,908,908,908,908,908,908,908,908,908,908,904,878,821,671,596,524],"ymouse":[636,636,636,636,636,636,636,636,636,636,636,636,636,636,636,636,636,636,636,636,636,636,636,636,636,636,636,636,636,636,636,636,636,636,636,636,636,636,636,636,636,636,636,636,636,636,636,636,636,604,589,578,571,568,562,560,559,558,557,557,557,557,557,557,557,557,557,557,557,557,557,551,526,451,237,144,70],"timestamp_mouse":[35,39,59,79,99,120,139,158,178,199,219,238,259,279,298,318,339,358,378,398,418,439,458,478,499,519,539,559,579,598,618,639,659,678,698,718,738,759,779,798,819,838,858,878,899,919,938,958,980,998,1019,1038,1059,1078,1098,1118,1138,1159,1180,1198,1218,1239,1258,1279,1298,1319,1339,1359,1379,1398,1420,1438,1458,1478,1499,1518,1538],"xSR":741.5,"ySR":573.95,"xT1":424.9,"yT1":0,"xT2":1058.1,"yT2":0,"toosoon":0,"cond_shown":"Congruent","ratio_trial":100,"L_num":15,"L_den":25,"R_num":13,"R_den":26,"correct_side":1,"subjID":"angelasofiasantamariasuarez14","gender":"1","school":"6","age":"10"},{"start_time":1551891540299,"click_time":1551891542176,"finger_time":1551891541436,"fix_duration":1201.8147214920396,"trial":40,"RT":1137,"MT":740,"sideResp":1,"stimulus":[],"xmouse":[774,774,774,774,774,774,774,774,774,774,774,774,774,774,774,774,774,774,774,774,774,774,774,774,774,774,774,774,774,774,774,774,774,774,774,774,774,774,774,774,774,774,774,774,774,774,774,774,774,774,774,774,774,774,774,774,768,766,762,758,756,754,754,753,752,751,738,730,723,712,701,674,659,642,625,608,562,549,536,534,525,520,514,513,512,511,508,507,503,499,487,479,478,477],"ymouse":[607,607,607,607,607,607,607,607,607,607,607,607,607,607,607,607,607,607,607,607,607,607,607,607,607,607,607,607,607,607,607,607,607,607,607,607,607,607,607,607,607,607,607,607,607,607,607,607,607,607,607,607,607,607,607,595,565,546,522,494,477,463,458,453,447,441,419,404,392,373,359,334,322,307,292,275,225,208,179,173,153,144,134,134,133,132,128,126,123,118,110,103,101,98],"timestamp_mouse":[17,37,57,77,99,118,137,158,179,198,218,238,257,279,298,317,339,357,378,397,417,437,457,477,497,517,537,557,577,598,618,639,657,678,697,718,737,759,778,797,818,839,857,878,897,918,937,957,978,998,1018,1037,1058,1077,1098,1118,1137,1157,1178,1198,1217,1237,1257,1278,1299,1318,1337,1357,1377,1398,1418,1437,1458,1477,1498,1517,1537,1557,1577,1598,1617,1637,1658,1678,1697,1717,1737,1758,1777,1798,1818,1838,1857,1877],"xSR":741.5,"ySR":573.95,"xT1":424.9,"yT1":0,"xT2":1058.1,"yT2":0,"toosoon":0,"cond_shown":"Congruent","ratio_trial":100,"L_num":4,"L_den":10,"R_num":15,"R_den":30,"correct_side":2,"subjID":"angelasofiasantamariasuarez14","gender":"1","school":"6","age":"10"},{"start_time":1551891543423,"click_time":1551891544936,"finger_time":1551891544416,"fix_duration":505.05157436922934,"trial":41,"RT":993,"MT":520,"sideResp":1,"stimulus":[],"xmouse":[807,807,807,807,807,807,807,807,807,807,807,807,807,807,807,807,807,807,807,807,807,807,807,807,807,807,807,807,807,807,807,807,807,807,807,807,807,807,807,807,807,807,807,807,807,805,799,791,781,759,703,686,664,647,632,609,605,605,605,606,606,606,606,604,603,596,592,587,580,571,554,549,543,534,532,516],"ymouse":[653,653,653,653,653,653,653,653,653,653,653,653,653,653,653,653,653,653,653,653,653,653,653,653,653,653,653,653,653,653,653,653,653,653,653,653,653,653,653,653,653,653,653,653,653,645,632,616,589,540,437,397,348,308,275,219,205,194,187,183,173,169,167,165,163,156,150,143,134,122,99,93,86,80,79,74],"timestamp_mouse":[13,33,53,73,93,113,133,153,174,193,215,233,253,273,294,313,333,353,374,393,413,433,453,473,492,514,533,552,573,593,612,633,653,672,692,713,734,753,773,794,814,833,854,874,893,913,933,952,973,993,1014,1034,1053,1074,1093,1114,1134,1153,1173,1194,1213,1234,1252,1274,1293,1313,1333,1353,1373,1394,1413,1433,1452,1473,1493,1513],"xSR":741.5,"ySR":573.95,"xT1":424.9,"yT1":0,"xT2":1058.1,"yT2":0,"toosoon":0,"cond_shown":"Incongruent","ratio_trial":100,"L_num":2,"L_den":4,"R_num":6,"R_den":15,"correct_side":1,"subjID":"angelasofiasantamariasuarez14","gender":"1","school":"6","age":"10"},{"start_time":1551891547943,"click_time":1551891549176,"finger_time":1551891548617,"fix_duration":625.4630585028957,"trial":42,"RT":674,"MT":559,"sideResp":2,"stimulus":[],"xmouse":[759,759,759,759,759,759,759,759,759,759,759,759,759,759,759,759,759,759,759,759,759,759,759,759,760,760,761,763,766,770,772,774,775,776,779,782,786,795,799,834,850,873,900,922,953,961,969,973,983,989,1006,1016,1026,1034,1040,1040,1040,1040,1045,1053,1056,1061],"ymouse":[648,648,648,648,648,648,648,648,648,648,648,648,648,648,648,648,648,648,648,645,642,639,637,635,631,630,627,621,613,598,593,584,578,572,551,529,501,471,463,411,381,339,289,252,198,188,176,172,158,147,123,112,102,96,92,92,92,91,88,85,83,80],"timestamp_mouse":[20,39,53,73,93,113,134,152,172,194,214,233,254,273,292,314,332,352,373,393,413,432,453,474,493,513,532,553,572,593,614,633,652,674,693,714,732,753,774,793,814,833,854,872,893,913,934,953,972,992,1012,1033,1053,1072,1093,1114,1133,1152,1174,1193,1213,1233],"xSR":741.5,"ySR":573.95,"xT1":424.9,"yT1":0,"xT2":1058.1,"yT2":0,"toosoon":0,"cond_shown":"Congruent","ratio_trial":200,"L_num":1,"L_den":2,"R_num":21,"R_den":30,"correct_side":2,"subjID":"angelasofiasantamariasuarez14","gender":"1","school":"6","age":"10"},{"start_time":1551891553298,"click_time":1551891555876,"finger_time":1551891554296,"fix_duration":920.4871467949283,"trial":43,"RT":998,"MT":1580,"sideResp":2,"stimulus":[],"xmouse":[790,790,790,790,790,790,790,790,790,790,790,790,790,790,790,790,790,790,790,790,790,790,790,790,790,790,790,790,790,790,790,790,790,790,790,790,790,791,793,793,794,794,794,794,794,794,795,797,799,802,805,805,803,798,791,785,783,783,783,783,783,783,783,783,785,796,869,888,907,928,953,1029,1039,1040,1031,1005,976,963,957,955,957,960,962,964,964,965,965,965,967,972,978,990,994,999,1007,1015,1028,1030,1031,1031,1031,1031,1031,1031,1031,1031,1031,1031,1031,1031,1031,1031,1031,1031,1031,1031,1031,1031,1031,1031,1031,1031,1031,1031,1031,1032,1034,1050,1064],"ymouse":[630,630,630,630,630,630,630,630,630,630,630,630,630,630,630,630,630,630,630,630,630,630,630,630,630,630,630,630,630,630,630,630,630,630,629,629,629,624,620,618,616,616,616,616,616,616,612,591,576,555,523,488,472,455,440,429,420,415,411,410,410,410,410,410,410,408,385,370,351,325,295,216,195,170,141,87,35,11,0,0,0,0,0,0,0,0,0,0,0,0,0,2,2,2,0,0,0,0,0,0,0,0,0,0,0,0,0,0,0,0,0,0,0,0,0,0,0,0,0,0,0,0,0,0,0,0,0,2,6],"timestamp_mouse":[18,38,57,77,98,118,137,158,178,197,217,238,259,278,298,318,339,358,378,399,418,437,458,479,497,518,538,558,579,598,618,637,659,677,699,719,737,758,778,798,819,838,858,879,898,918,937,958,978,998,1018,1038,1058,1078,1098,1118,1138,1158,1177,1197,1219,1238,1259,1279,1298,1318,1338,1359,1378,1398,1417,1438,1457,1479,1509,1518,1538,1559,1578,1599,1618,1638,1658,1678,1698,1717,1737,1757,1777,1799,1818,1838,1858,1878,1899,1918,1938,1957,1979,1998,2018,2039,2058,2078,2099,2118,2137,2157,2177,2198,2219,2238,2258,2279,2297,2317,2338,2358,2378,2399,2419,2439,2458,2478,2498,2519,2538,2557,2578],"xSR":741.5,"ySR":573.95,"xT1":424.9,"yT1":0,"xT2":1058.1,"yT2":0,"toosoon":0,"cond_shown":"Incongruent","ratio_trial":200,"L_num":3,"L_den":4,"R_num":11,"R_den":20,"correct_side":1,"subjID":"angelasofiasantamariasuarez14","gender":"1","school":"6","age":"10"},{"start_time":1551891558881,"click_time":1551891560916,"finger_time":1551891560497,"fix_duration":1044.125009500912,"trial":44,"RT":1616,"MT":419,"sideResp":1,"stimulus":[],"xmouse":[775,775,775,775,775,775,775,775,775,775,775,775,775,775,775,775,775,775,775,775,775,775,775,775,775,775,775,775,775,775,775,775,775,775,775,775,775,775,775,775,775,775,775,775,775,775,775,775,775,775,775,775,775,775,775,775,775,775,775,775,775,775,775,775,775,775,775,775,775,775,775,775,775,775,775,775,775,775,773,771,759,740,692,673,658,646,641,626,617,605,602,594,579,570,560,554,551,540,536,531,525,512],"ymouse":[610,610,610,610,610,610,610,610,610,610,610,610,610,610,610,610,610,610,610,610,610,610,610,610,610,610,610,610,610,610,610,610,610,610,610,610,610,610,610,610,610,610,610,610,610,610,610,610,610,610,610,610,610,610,610,610,610,610,610,610,610,610,610,610,610,610,610,610,610,610,610,610,610,610,610,610,610,610,604,597,564,523,422,369,322,281,243,184,168,147,142,121,90,76,65,60,57,54,54,54,51,45],"timestamp_mouse":[15,35,56,75,96,116,134,156,175,195,216,236,254,275,294,315,334,356,374,395,414,436,454,475,494,515,536,554,575,595,615,635,655,675,696,715,734,756,775,794,815,835,856,876,894,916,935,955,976,994,1015,1035,1055,1075,1096,1115,1134,1154,1175,1195,1215,1235,1254,1276,1294,1316,1335,1355,1374,1395,1416,1434,1455,1475,1496,1514,1536,1555,1574,1596,1616,1634,1654,1674,1695,1716,1735,1754,1775,1795,1815,1834,1855,1876,1896,1916,1935,1954,1974,1994,2016,2035],"xSR":741.5,"ySR":573.95,"xT1":424.9,"yT1":0,"xT2":1058.1,"yT2":0,"toosoon":0,"cond_shown":"Incongruent","ratio_trial":200,"L_num":14,"L_den":30,"R_num":6,"R_den":9,"correct_side":2,"subjID":"angelasofiasantamariasuarez14","gender":"1","school":"6","age":"10"},{"start_time":1551891564406,"click_time":1551891566696,"finger_time":1551891565716,"fix_duration":1168.2494171817468,"trial":45,"RT":1310,"MT":980,"sideResp":1,"stimulus":[],"xmouse":[801,801,801,802,805,809,811,811,811,811,811,811,811,810,809,807,807,807,807,807,807,807,807,807,807,807,807,807,807,807,807,807,807,807,807,807,807,807,807,807,807,807,807,807,807,807,807,807,807,807,807,815,817,817,817,817,817,817,817,817,817,817,817,811,803,745,637,590,410,316,273,266,266,266,266,266,270,294,334,367,387,411,414,415,415,418,422,423,424,424,419,412,411,411,411,411,411,411,411,411,411,411,411,411,411,411,411,411,411,411,411,411,414,423,438],"ymouse":[644,644,644,644,643,637,634,634,634,634,634,634,634,634,634,634,634,634,634,634,634,634,634,634,634,634,634,634,634,634,634,634,634,634,634,634,634,634,634,634,634,634,634,634,634,634,634,634,634,634,634,637,638,638,638,638,638,638,638,638,638,638,638,617,599,458,143,50,0,0,0,0,0,0,0,0,12,54,112,154,176,193,194,194,194,190,182,179,172,159,137,94,78,67,67,67,67,67,67,67,67,67,67,67,67,67,67,67,67,67,67,67,67,70,78],"timestamp_mouse":[14,45,50,71,90,111,130,150,170,191,209,229,250,269,290,310,330,350,369,391,410,430,451,470,490,510,531,551,570,589,611,629,650,670,691,709,730,750,770,790,809,830,849,870,891,909,930,949,970,991,1011,1030,1050,1070,1089,1110,1130,1150,1171,1189,1209,1230,1249,1271,1290,1310,1329,1349,1370,1391,1410,1431,1449,1469,1490,1510,1529,1549,1570,1590,1610,1631,1649,1669,1689,1709,1730,1750,1771,1791,1810,1830,1851,1870,1890,1910,1930,1950,1969,1989,2009,2030,2050,2070,2089,2110,2130,2150,2170,2191,2210,2231,2251,2269,2290],"xSR":741.5,"ySR":573.95,"xT1":424.9,"yT1":0,"xT2":1058.1,"yT2":0,"toosoon":0,"cond_shown":"Incongruent","ratio_trial":200,"L_num":1,"L_den":3,"R_num":2,"R_den":15,"correct_side":1,"subjID":"angelasofiasantamariasuarez14","gender":"1","school":"6","age":"10"},{"start_time":1551891568047,"click_time":1551891569796,"finger_time":1551891569395,"fix_duration":250,"trial":46,"RT":1348,"MT":401,"sideResp":1,"stimulus":[],"xmouse":[775,775,775,775,775,775,775,775,775,775,775,775,775,775,775,775,775,775,775,777,777,777,777,777,777,777,777,777,777,777,777,777,777,777,777,777,777,777,777,777,777,777,778,778,778,778,778,778,778,778,778,778,778,778,778,778,772,764,754,746,742,742,742,742,742,742,742,738,732,705,682,648,621,591,570,562,550,541,531,524,518,517,517,517,517,516,515,514],"ymouse":[605,605,605,605,605,605,605,605,605,605,605,605,605,605,605,605,605,605,605,605,609,610,610,610,611,611,611,611,611,611,611,611,611,610,609,609,609,609,608,598,591,586,583,581,581,581,581,581,581,581,581,581,581,581,581,581,590,599,610,620,626,626,626,626,626,626,618,604,588,510,439,361,287,183,102,78,51,32,11,0,0,0,0,0,0,0,0,2],"timestamp_mouse":[10,36,49,69,88,110,129,149,170,190,210,230,250,270,289,310,329,350,368,388,409,430,449,468,489,510,528,548,569,589,609,629,650,670,688,710,728,749,769,789,809,830,849,868,889,910,929,949,969,989,1009,1030,1049,1070,1089,1108,1129,1149,1169,1189,1209,1229,1250,1268,1289,1310,1329,1348,1369,1388,1410,1429,1450,1469,1488,1508,1528,1549,1569,1589,1610,1629,1648,1669,1689,1709,1729,1749],"xSR":741.5,"ySR":573.95,"xT1":424.9,"yT1":0,"xT2":1058.1,"yT2":0,"toosoon":0,"cond_shown":"Incongruent","ratio_trial":300,"L_num":4,"L_den":20,"R_num":2,"R_den":4,"correct_side":2,"subjID":"angelasofiasantamariasuarez14","gender":"1","school":"6","age":"10"},{"start_time":1551891571922,"click_time":1551891573996,"finger_time":1551891573136,"fix_duration":1004.826200973524,"trial":47,"RT":1214,"MT":860,"sideResp":2,"stimulus":[],"xmouse":[773,773,773,773,773,773,773,773,773,773,773,773,773,773,773,773,773,773,773,773,773,773,773,773,773,773,773,773,773,773,773,773,773,773,773,773,773,773,773,773,773,773,773,773,773,773,773,773,773,773,773,773,773,773,773,773,773,773,772,775,798,811,820,827,832,842,848,861,865,898,967,981,991,996,999,1021,1054,1114,1193,1310,1354,1354,1354,1352,1348,1346,1343,1341,1335,1321,1303,1299,1294,1286,1274,1247,1239,1232,1225,1215,1205,1176,1164,1156],"ymouse":[627,627,627,627,627,627,627,627,627,627,627,627,627,627,627,627,627,627,627,627,627,627,627,627,627,627,627,627,627,627,627,627,627,627,627,627,627,627,627,627,627,627,627,627,627,627,627,627,627,627,627,627,627,627,627,627,627,627,626,616,572,540,508,479,453,390,338,255,228,173,118,108,100,98,96,77,34,0,0,0,0,0,0,0,0,0,0,0,0,0,0,0,0,0,0,0,0,0,0,2,3,4,4,5],"timestamp_mouse":[21,34,54,74,95,115,133,155,174,193,215,233,254,274,294,314,334,355,373,394,414,433,454,475,493,514,535,553,575,595,614,634,654,674,694,713,735,755,775,794,814,833,853,875,894,914,935,954,975,993,1014,1034,1053,1075,1095,1114,1135,1154,1174,1194,1214,1233,1254,1275,1294,1314,1333,1354,1374,1394,1414,1433,1454,1474,1495,1514,1534,1554,1573,1593,1614,1634,1653,1673,1694,1713,1733,1754,1773,1794,1814,1833,1854,1874,1894,1914,1934,1955,1973,1994,2014,2034,2054,2074],"xSR":741.5,"ySR":573.95,"xT1":424.9,"yT1":0,"xT2":1058.1,"yT2":0,"toosoon":0,"cond_shown":"Incongruent","ratio_trial":300,"L_num":4,"L_den":20,"R_num":2,"R_den":4,"correct_side":2,"subjID":"angelasofiasantamariasuarez14","gender":"1","school":"6","age":"10"},{"start_time":1551891576454,"click_time":1551891578616,"finger_time":1551891577697,"fix_duration":1335.0801342982782,"trial":48,"RT":1243,"MT":919,"sideResp":2,"stimulus":[],"xmouse":[770,769,769,769,769,769,769,769,769,769,769,769,769,769,769,769,769,769,769,769,769,769,769,769,769,769,769,769,769,769,769,769,769,769,769,769,769,769,769,769,769,769,770,771,771,771,771,771,771,772,774,776,779,780,782,783,783,784,785,786,787,788,789,789,789,789,789,789,788,785,776,773,771,771,771,771,771,781,804,866,931,1009,1133,1194,1233,1239,1244,1247,1248,1248,1248,1245,1224,1199,1159,1150,1146,1144,1144,1144,1144,1144,1144,1144,1144,1144,1144,1139,1134],"ymouse":[624,621,621,619,616,616,616,616,616,616,616,616,614,611,605,603,602,602,602,602,602,602,602,602,602,602,602,602,602,602,602,602,602,602,602,602,602,602,602,602,602,602,600,600,600,600,600,600,600,598,596,594,589,588,585,584,583,582,579,578,576,574,573,572,570,568,562,554,543,531,501,481,461,453,449,449,447,435,411,357,302,229,107,49,6,0,0,0,0,0,0,0,0,0,0,0,0,0,0,0,0,0,0,0,0,0,0,0,1],"timestamp_mouse":[9,37,42,63,82,101,123,142,163,183,202,222,242,263,282,303,322,343,362,381,403,422,442,462,482,501,522,543,562,582,603,622,642,661,682,702,722,742,762,782,803,822,843,862,882,901,923,943,962,981,1003,1022,1042,1061,1081,1103,1122,1141,1163,1183,1202,1221,1243,1263,1282,1302,1322,1343,1363,1381,1401,1423,1442,1461,1482,1503,1522,1542,1563,1582,1602,1622,1642,1662,1682,1701,1722,1741,1762,1783,1802,1822,1842,1863,1882,1902,1922,1942,1963,1983,2002,2022,2041,2062,2082,2102,2122,2142,2161],"xSR":741.5,"ySR":573.95,"xT1":424.9,"yT1":0,"xT2":1058.1,"yT2":0,"toosoon":0,"cond_shown":"Incongruent","ratio_trial":100,"L_num":17,"L_den":30,"R_num":10,"R_den":15,"correct_side":2,"subjID":"angelasofiasantamariasuarez14","gender":"1","school":"6","age":"10"},{"start_time":1551891580473,"click_time":1551891581737,"finger_time":1551891581336,"fix_duration":974.2317676245659,"trial":49,"RT":863,"MT":401,"sideResp":2,"stimulus":[],"xmouse":[821,821,821,821,821,821,821,821,821,821,821,821,821,821,821,821,821,821,821,821,821,821,821,821,821,821,821,821,821,821,821,821,821,821,821,821,821,821,821,821,821,827,840,898,938,975,1014,1040,1072,1085,1098,1108,1110,1118,1119,1121,1121,1123,1125,1127,1127,1127,1126,1121],"ymouse":[634,634,634,634,634,634,634,634,634,634,634,634,634,634,634,634,634,634,634,634,634,634,634,634,634,634,634,634,634,634,634,634,634,634,634,634,634,634,634,634,628,607,581,485,430,378,326,287,244,225,214,198,196,175,170,166,163,159,149,142,133,114,100,80],"timestamp_mouse":[10,31,42,63,84,103,123,143,164,182,204,223,243,262,283,303,323,343,364,382,403,423,443,464,482,503,522,544,562,582,604,623,643,663,684,703,724,744,764,782,804,824,843,863,883,903,923,942,962,984,1003,1024,1044,1063,1083,1103,1122,1143,1162,1182,1202,1223,1243,1264],"xSR":741.5,"ySR":573.95,"xT1":424.9,"yT1":0,"xT2":1058.1,"yT2":0,"toosoon":0,"cond_shown":"Incongruent","ratio_trial":300,"L_num":13,"L_den":26,"R_num":12,"R_den":15,"correct_side":2,"subjID":"angelasofiasantamariasuarez14","gender":"1","school":"6","age":"10"},{"start_time":1551891583271,"click_time":1551891584436,"finger_time":1551891583955,"fix_duration":653.5676415643213,"trial":50,"RT":684,"MT":481,"sideResp":2,"stimulus":[],"xmouse":[813,813,813,813,813,813,813,813,813,813,813,813,813,813,813,813,813,813,813,815,815,815,816,817,817,819,819,820,820,820,820,820,820,833,860,898,944,1002,1124,1143,1148,1150,1152,1152,1152,1152,1150,1148,1145,1145,1144,1140,1136,1132,1128,1126,1123,1120,1113],"ymouse":[624,6