[{"start_time":1551892704644,"click_time":1551892714849,"finger_time":1551892704652,"fix_duration":250,"trial":0,"RT":8,"MT":10197,"sideResp":1,"stimulus":"img/900/randomdotsizeEA/R/3_Ratio_900_L_9_R_10.png","xmouse":[801,801,801,801,801,801,801,801,801,801,801,801,801,801,801,801,801,801,801,801,801,801,801,801,801,801,801,801,801,801,801,801,801,801,801,801,801,801,801,801,801,801,801,801,801,801,800,798,797,797,797,796,795,795,795,795,795,794,794,793,791,787,782,782,782,782,782,798,813,817,819,819,819,819,819,819,819,819,819,819,819,819,819,819,817,815,814,812,812,812,812,812,812,812,812,812,812,812,812,812,812,812,812,812,812,812,812,812,812,812,812,812,812,812,812,812,812,812,812,812,812,812,812,802,785,772,766,765,765,765,765,765,765,765,765,765,765,765,765,765,765,765,765,765,765,765,765,765,765,765,765,765,765,765,765,765,765,765,765,765,765,765,765,765,765,765,765,765,765,765,765,765,765,765,765,765,765,765,765,765,765,765,765,765,765,765,765,765,765,765,765,765,765,765,765,765,765,774,777,778,780,780,780,780,780,780,780,780,780,780,780,780,780,780,780,780,780,780,780,780,780,780,780,780,780,780,780,780,780,780,780,780,780,780,780,780,780,780,780,780,780,780,780,780,780,780,780,780,780,780,780,780,780,780,780,780,780,780,780,780,780,780,780,780,780,780,780,780,780,780,780,780,780,780,780,780,780,780,780,780,780,780,780,780,780,780,780,780,780,780,780,780,780,780,780,780,780,780,780,780,780,780,780,780,780,780,780,780,780,780,780,780,780,779,749,706,679,660,660,660,658,650,628,612,598,585,578,577,577,577,577,575,551,540,528,515,507,497,493,490,488,488,488,488,488,493,496,499,501,501,493,491,496,499,501,502,502,502,502,502,502,499,494,494,494,494,494,494,494,494,494,494,494,494,494,494,494,494,494,494,494,494,494,494,494,494,494,494,494,494,494,494,494,494,494,494,494,494,494,494,494,494,494,494,494,494,494,494,494,494,494,494,494,494,494,494,494,494,494,494,494,494,494,503,545,587,626,701,733,762,781,790,791,793,804,820,834,855,855,855,855,855,848,836,823,809,798,790,789,789,789,789,789,789,789,789,789,789,789,789,789,789,789,789,789,789,789,789,789,789,789,789,789,789,789,789,789,789,789,789,789,789,789,789,789,789,789,789,789,789,789,789,789,789,789,776,732,629,594,572,560,555,552,552,551,551,542,511,492,469,448],"ymouse":[497,497,497,497,497,497,497,497,497,497,497,497,497,497,497,497,497,497,497,497,497,497,497,497,497,497,497,497,497,497,497,497,497,497,497,497,497,497,497,497,497,497,497,497,497,499,500,511,521,529,540,550,570,575,578,580,581,586,592,598,603,610,619,620,620,620,622,646,659,664,667,667,667,667,667,667,667,667,667,667,667,667,667,667,667,664,663,661,661,661,660,660,660,660,660,660,660,660,660,660,660,660,660,660,660,660,660,660,660,660,660,660,660,660,660,660,660,660,660,660,660,660,660,651,639,627,620,617,617,617,617,617,617,617,617,617,617,617,617,617,617,617,617,617,617,617,617,617,617,617,617,617,617,617,617,617,617,617,617,617,617,617,617,617,617,617,617,617,617,617,617,617,617,617,617,617,617,617,617,617,617,617,617,617,617,617,617,617,617,617,617,617,617,617,617,615,613,608,606,605,605,605,605,605,605,605,605,605,605,605,605,605,605,605,605,605,605,605,605,605,605,605,605,605,605,605,605,605,605,605,605,605,605,605,605,605,605,605,605,605,605,605,605,605,605,605,605,605,605,605,605,605,605,605,605,605,605,605,605,605,605,605,605,605,605,605,605,605,605,605,605,605,605,605,605,605,605,605,605,605,605,605,605,605,605,605,605,605,605,605,605,605,605,605,605,605,605,605,605,605,605,605,605,604,604,604,604,604,604,604,604,604,604,598,572,548,536,528,528,528,528,527,524,518,512,507,504,502,502,502,502,502,502,502,503,506,507,508,508,505,503,503,503,503,503,497,493,483,462,437,409,392,374,371,369,369,369,369,369,369,369,370,373,373,373,373,373,373,373,373,373,373,373,373,373,373,373,373,373,373,373,373,373,373,373,373,373,373,373,373,373,373,373,373,373,373,373,373,373,373,373,373,373,373,373,373,373,373,373,373,373,373,373,373,373,373,373,373,373,373,373,373,373,386,418,451,478,530,551,569,579,584,585,585,583,577,573,570,570,570,570,570,572,576,582,588,595,601,602,603,603,603,603,603,606,606,606,606,606,606,606,606,606,606,606,606,606,606,606,606,606,606,606,606,606,606,606,606,606,606,606,606,606,606,606,606,606,606,606,606,606,606,606,606,606,584,517,348,275,223,196,179,170,170,170,169,160,136,119,102,85],"timestamp_mouse":[8,26,46,65,85,106,126,146,166,186,206,226,247,266,287,307,326,345,366,385,405,426,446,465,485,505,525,546,566,585,605,626,645,666,687,705,725,746,766,787,806,826,846,866,885,906,925,945,965,987,1005,1025,1045,1065,1086,1106,1125,1145,1166,1185,1206,1226,1245,1265,1287,1306,1326,1346,1365,1386,1406,1425,1445,1465,1485,1505,1525,1545,1565,1585,1605,1626,1645,1666,1685,1707,1725,1745,1765,1785,1805,1825,1846,1865,1886,1906,1925,1945,1965,1985,2005,2025,2046,2065,2085,2106,2126,2145,2165,2186,2206,2225,2246,2266,2286,2305,2326,2345,2366,2386,2405,2426,2446,2467,2485,2506,2525,2547,2566,2585,2605,2625,2645,2665,2687,2705,2725,2746,2766,2787,2805,2826,2846,2865,2886,2906,2925,2945,2966,2986,3006,3026,3046,3065,3086,3106,3126,3145,3165,3185,3206,3225,3247,3265,3285,3305,3325,3345,3366,3386,3406,3425,3446,3466,3487,3505,3526,3547,3566,3587,3605,3625,3646,3666,3685,3706,3726,3745,3767,3785,3806,3826,3845,3866,3887,3906,3925,3945,3965,3986,4006,4027,4046,4065,4085,4106,4125,4145,4167,4186,4207,4225,4246,4266,4286,4305,4325,4345,4365,4385,4405,4425,4446,4465,4485,4505,4526,4547,4565,4585,4606,4625,4645,4665,4686,4705,4725,4746,4765,4786,4806,4827,4845,4865,4885,4905,4926,4945,4966,4985,5006,5026,5045,5066,5086,5107,5125,5145,5166,5186,5205,5225,5245,5266,5286,5306,5327,5345,5366,5385,5407,5427,5446,5465,5485,5505,5526,5547,5565,5586,5606,5625,5646,5665,5686,5705,5726,5747,5766,5785,5806,5826,5846,5867,5885,5906,5925,5945,5966,5986,6007,6027,6045,6065,6085,6105,6126,6145,6165,6185,6206,6226,6245,6266,6285,6306,6326,6345,6367,6385,6405,6427,6445,6465,6485,6505,6525,6546,6565,6586,6606,6626,6645,6666,6685,6705,6725,6745,6765,6785,6805,6826,6847,6866,6885,6906,6925,6945,6967,6986,7006,7026,7045,7065,7086,7106,7125,7146,7166,7186,7206,7226,7246,7265,7286,7307,7326,7346,7365,7385,7405,7427,7447,7466,7486,7506,7525,7546,7565,7585,7605,7625,7646,7667,7686,7706,7725,7746,7765,7786,7805,7826,7845,7866,7885,7906,7925,7946,7965,7986,8006,8025,8046,8066,8085,8106,8125,8146,8165,8186,8206,8226,8246,8266,8286,8306,8326,8346,8366,8385,8405,8426,8446,8466,8485,8505,8525,8545,8565,8585,8606,8627,8646,8665,8686,8705,8726,8746,8765,8785,8805,8825,8845,8865,8885,8905,8925,8946,8965,8986,9005,9027,9045,9065,9085,9105,9126,9146,9165,9185,9205,9227,9246,9266,9285,9305,9325,9345,9365,9385,9405,9425,9445,9466,9485,9506,9527,9547,9565,9586,9606,9627,9645,9665,9687,9705,9725,9746,9767,9785,9805,9825,9846,9867,9885,9906,9926,9945,9965,9985,10005,10025,10046,10065,10085,10106,10125,10145,10165,10186,10205],"xSR":741.5,"ySR":449.15000000000003,"xT1":424.9,"yT1":0,"xT2":1058.1,"yT2":0,"toosoon":0,"cond_shown":"randomdotsizeEA","ratio_trial":900,"smaller_num":"9","larger_num":"10","correct_side":2,"subjID":"angelasantamaria.14","gender":"1","age":"10","school":"6","test":{"fix_dur":[250,1500],"timestim":300,"targets_dim":[100,100],"targets_relative_coord":[0.3,0.7],"size_stim":[880,420],"start_dim":[100,100],"size_start":[300,300],"size_fix":60,"samplingrate":20,"img_types":["equaldotsize","equaldotanddens","randomdotsizeEA"],"ratios":[250,500,750,900],"rep_conds":9,"nTrials":120,"trials_to_rest":500,"Trials_order":[83,2,78,44,98,50,84,55,85,104,94,97,31,43,59,68,51,103,47,73,111,92,11,22,21,119,110,17,19,58,81,118,82,86,36,61,52,28,95,33,102,72,91,0,16,5,45,112,56,29,65,87,34,1,6,96,90,18,105,76,10,40,79,115,100,75,109,117,69,38,116,30,32,99,60,35,26,66,107,77,63,74,23,3,71,113,67,89,13,49,42,4,27,108,70,15,12,20,93,48,8,114,46,62,88,41,106,53,14,7,101,24,39,57,9,37,54,80,64,25],"cond_shown":["randomdotsizeEA","randomdotsizeEA","equaldotsize","randomdotsizeEA","randomdotsizeEA","randomdotsizeEA","equaldotsize","equaldotanddens","equaldotanddens","randomdotsizeEA","equaldotanddens","equaldotanddens","equaldotanddens","equaldotanddens","randomdotsizeEA","randomdotsizeEA","equaldotsize","equaldotanddens","randomdotsizeEA","equaldotanddens","equaldotsize","randomdotsizeEA","randomdotsizeEA","equaldotanddens","equaldotsize","randomdotsizeEA","randomdotsizeEA","randomdotsizeEA","equaldotanddens","equaldotanddens","equaldotsize","equaldotanddens","equaldotanddens","randomdotsizeEA","equaldotsize","equaldotanddens","equaldotanddens","equaldotanddens","randomdotsizeEA","equaldotsize","equaldotsize","equaldotsize","equaldotanddens","equaldotsize","equaldotanddens","randomdotsizeEA","equaldotsize","equaldotanddens","randomdotsizeEA","randomdotsizeEA","randomdotsizeEA","equaldotsize","equaldotanddens","equaldotanddens","equaldotsize","equaldotsize","equaldotsize","equaldotsize","equaldotsize","equaldotanddens","equaldotanddens","equaldotanddens","equaldotanddens","equaldotanddens","equaldotanddens","equaldotsize","equaldotanddens","equaldotsize","equaldotsize","randomdotsizeEA","randomdotsizeEA","equaldotsize","randomdotsizeEA","equaldotsize","equaldotsize","randomdotsizeEA","randomdotsizeEA","equaldotsize","randomdotsizeEA","randomdotsizeEA","equaldotsize","randomdotsizeEA","randomdotsizeEA","equaldotsize","randomdotsizeEA","randomdotsizeEA","equaldotanddens","randomdotsizeEA","equaldotanddens","equaldotanddens","equaldotsize","equaldotanddens","equaldotsize","equaldotsize","equaldotanddens","equaldotsize","equaldotsize","randomdotsizeEA","equaldotsize","equaldotsize","randomdotsizeEA","equaldotsize","equaldotanddens","randomdotsizeEA","equaldotanddens","randomdotsizeEA","equaldotanddens","randomdotsizeEA","randomdotsizeEA","equaldotanddens","randomdotsizeEA","equaldotsize","equaldotsize","equaldotsize","equaldotsize","equaldotanddens","equaldotsize","randomdotsizeEA","equaldotanddens","equaldotanddens"],"ratio_trial":[900,250,750,750,250,250,250,750,250,750,900,250,750,750,900,750,500,750,900,250,500,750,900,900,900,900,250,500,750,900,900,900,900,250,250,250,500,500,900,900,750,250,750,250,500,500,900,500,750,500,500,500,900,250,750,250,750,750,900,500,900,500,750,750,500,500,250,900,900,250,750,750,750,500,250,900,250,750,900,500,500,250,900,500,900,500,750,500,250,250,750,500,500,250,900,500,250,750,900,250,750,750,900,250,500,500,900,500,250,750,500,250,500,900,900,250,750,750,500,250],"smaller_num":["9","6","18","3","3","2","3","3","4","3","18","2","15","15","18","3","3","3","18","1","1","6","9","18","9","9","3","3","15","18","18","9","9","3","3","3","9","10","18","18","6","6","15","4","1","9","18","2","6","1","1","2","9","6","3","1","15","15","18","6","18","2","15","3","3","4","2","9","18","4","18","3","15","9","6","9","3","6","9","6","1","3","9","1","18","6","3","2","3","3","18","5","5","3","18","2","3","3","9","2","15","3","18","3","6","3","9","1","2","18","2","5","10","18","9","2","3","15","9","5"],"larger_num":["10","24","24","4","12","8","12","4","16","4","20","8","20","20","20","4","6","4","20","4","2","8","10","20","10","10","12","6","20","20","20","10","10","12","12","12","18","20","20","20","8","24","20","16","2","18","20","4","8","2","2","4","10","24","4","4","20","20","20","12","20","4","20","4","6","8","8","10","20","16","24","4","20","18","24","10","12","8","10","12","2","12","10","2","20","12","4","4","12","12","24","10","10","12","20","4","12","4","10","8","20","4","20","12","12","6","10","2","8","24","4","20","20","20","10","8","4","20","18","20"],"correct_side":[2,1,1,1,1,1,2,1,2,2,1,2,2,2,1,2,2,1,2,2,2,2,2,1,1,2,2,2,2,1,2,2,2,2,1,2,2,2,2,1,2,1,2,1,2,1,1,1,1,2,2,1,2,1,1,2,1,2,2,1,1,1,2,1,2,1,2,2,2,2,1,1,1,2,1,1,2,2,2,1,2,1,2,2,1,1,1,2,1,1,1,1,1,2,1,2,2,1,1,2,2,1,1,2,1,2,1,2,1,1,1,2,2,2,2,1,2,1,2,2],"img_shown":["img/900/randomdotsizeEA/R/3_Ratio_900_L_9_R_10.png","img/250/randomdotsizeEA/L/5_Ratio_250_L_24_R_6.png","img/750/equaldotsize/L/6_Ratio_750_L_24_R_18.png","img/750/randomdotsizeEA/L/10_Ratio_750_L_4_R_3.png","img/250/randomdotsizeEA/L/15_Ratio_250_L_12_R_3.png","img/250/randomdotsizeEA/L/1_Ratio_250_L_8_R_2.png","img/250/equaldotsize/R/4_Ratio_250_L_3_R_12.png","img/750/equaldotanddens/L/10_Ratio_750_L_4_R_3.png","img/250/equaldotanddens/R/10_Ratio_250_L_4_R_16.png","img/750/randomdotsizeEA/R/12_Ratio_750_L_3_R_4.png","img/900/equaldotanddens/L/8_Ratio_900_L_20_R_18.png","img/250/equaldotanddens/R/13_Ratio_250_L_2_R_8.png","img/750/equaldotanddens/R/3_Ratio_750_L_15_R_20.png","img/750/equaldotanddens/R/3_Ratio_750_L_15_R_20.png","img/900/randomdotsizeEA/L/4_Ratio_900_L_20_R_18.png","img/750/randomdotsizeEA/R/12_Ratio_750_L_3_R_4.png","img/500/equaldotsize/R/2_Ratio_500_L_3_R_6.png","img/750/equaldotanddens/L/8_Ratio_750_L_4_R_3.png","img/900/randomdotsizeEA/R/14_Ratio_900_L_18_R_20.png","img/250/equaldotanddens/R/8_Ratio_250_L_1_R_4.png","img/500/equaldotsize/R/12_Ratio_500_L_1_R_2.png","img/750/randomdotsizeEA/R/2_Ratio_750_L_6_R_8.png","img/900/randomdotsizeEA/R/6_Ratio_900_L_9_R_10.png","img/900/equaldotanddens/L/4_Ratio_900_L_20_R_18.png","img/900/equaldotsize/L/1_Ratio_900_L_10_R_9.png","img/900/randomdotsizeEA/R/5_Ratio_900_L_9_R_10.png","img/250/randomdotsizeEA/R/9_Ratio_250_L_3_R_12.png","img/500/randomdotsizeEA/R/2_Ratio_500_L_3_R_6.png","img/750/equaldotanddens/R/3_Ratio_750_L_15_R_20.png","img/900/equaldotanddens/L/4_Ratio_900_L_20_R_18.png","img/900/equaldotsize/R/13_Ratio_900_L_18_R_20.png","img/900/equaldotanddens/R/7_Ratio_900_L_9_R_10.png","img/900/equaldotanddens/R/5_Ratio_900_L_9_R_10.png","img/250/randomdotsizeEA/R/9_Ratio_250_L_3_R_12.png","img/250/equaldotsize/L/15_Ratio_250_L_12_R_3.png","img/250/equaldotanddens/R/9_Ratio_250_L_3_R_12.png","img/500/equaldotanddens/R/6_Ratio_500_L_9_R_18.png","img/500/equaldotanddens/R/3_Ratio_500_L_10_R_20.png","img/900/randomdotsizeEA/R/11_Ratio_900_L_18_R_20.png","img/900/equaldotsize/L/10_Ratio_900_L_20_R_18.png","img/750/equaldotsize/R/2_Ratio_750_L_6_R_8.png","img/250/equaldotsize/L/5_Ratio_250_L_24_R_6.png","img/750/equaldotanddens/R/3_Ratio_750_L_15_R_20.png","img/250/equaldotsize/L/2_Ratio_250_L_16_R_4.png","img/500/equaldotanddens/R/15_Ratio_500_L_1_R_2.png","img/500/randomdotsizeEA/L/4_Ratio_500_L_18_R_9.png","img/900/equaldotsize/L/2_Ratio_900_L_20_R_18.png","img/500/equaldotanddens/L/5_Ratio_500_L_4_R_2.png","img/750/randomdotsizeEA/L/14_Ratio_750_L_8_R_6.png","img/500/randomdotsizeEA/R/15_Ratio_500_L_1_R_2.png","img/500/randomdotsizeEA/R/12_Ratio_500_L_1_R_2.png","img/500/equaldotsize/L/10_Ratio_500_L_4_R_2.png","img/900/equaldotanddens/R/7_Ratio_900_L_9_R_10.png","img/250/equaldotanddens/L/5_Ratio_250_L_24_R_6.png","img/750/equaldotsize/L/10_Ratio_750_L_4_R_3.png","img/250/equaldotsize/R/8_Ratio_250_L_1_R_4.png","img/750/equaldotsize/L/1_Ratio_750_L_20_R_15.png","img/750/equaldotsize/R/5_Ratio_750_L_15_R_20.png","img/900/equaldotsize/R/13_Ratio_900_L_18_R_20.png","img/500/equaldotanddens/L/11_Ratio_500_L_12_R_6.png","img/900/equaldotanddens/L/10_Ratio_900_L_20_R_18.png","img/500/equaldotanddens/L/5_Ratio_500_L_4_R_2.png","img/750/equaldotanddens/R/3_Ratio_750_L_15_R_20.png","img/750/equaldotanddens/L/9_Ratio_750_L_4_R_3.png","img/500/equaldotanddens/R/2_Ratio_500_L_3_R_6.png","img/500/equaldotsize/L/8_Ratio_500_L_8_R_4.png","img/250/equaldotanddens/R/13_Ratio_250_L_2_R_8.png","img/900/equaldotsize/R/15_Ratio_900_L_9_R_10.png","img/900/equaldotsize/R/12_Ratio_900_L_18_R_20.png","img/250/randomdotsizeEA/R/10_Ratio_250_L_4_R_16.png","img/750/randomdotsizeEA/L/6_Ratio_750_L_24_R_18.png","img/750/equaldotsize/L/9_Ratio_750_L_4_R_3.png","img/750/randomdotsizeEA/L/1_Ratio_750_L_20_R_15.png","img/500/equaldotsize/R/1_Ratio_500_L_9_R_18.png","img/250/equaldotsize/L/5_Ratio_250_L_24_R_6.png","img/900/randomdotsizeEA/L/1_Ratio_900_L_10_R_9.png","img/250/randomdotsizeEA/R/4_Ratio_250_L_3_R_12.png","img/750/equaldotsize/R/2_Ratio_750_L_6_R_8.png","img/900/randomdotsizeEA/R/15_Ratio_900_L_9_R_10.png","img/500/randomdotsizeEA/L/13_Ratio_500_L_12_R_6.png","img/500/equaldotsize/R/15_Ratio_500_L_1_R_2.png","img/250/randomdotsizeEA/L/14_Ratio_250_L_12_R_3.png","img/900/randomdotsizeEA/R/15_Ratio_900_L_9_R_10.png","img/500/equaldotsize/R/12_Ratio_500_L_1_R_2.png","img/900/randomdotsizeEA/L/4_Ratio_900_L_20_R_18.png","img/500/randomdotsizeEA/L/13_Ratio_500_L_12_R_6.png","img/750/equaldotanddens/L/8_Ratio_750_L_4_R_3.png","img/500/randomdotsizeEA/R/9_Ratio_500_L_2_R_4.png","img/250/equaldotanddens/L/14_Ratio_250_L_12_R_3.png","img/250/equaldotanddens/L/15_Ratio_250_L_12_R_3.png","img/750/equaldotsize/L/6_Ratio_750_L_24_R_18.png","img/500/equaldotanddens/L/7_Ratio_500_L_10_R_5.png","img/500/equaldotsize/L/7_Ratio_500_L_10_R_5.png","img/250/equaldotsize/R/9_Ratio_250_L_3_R_12.png","img/900/equaldotanddens/L/10_Ratio_900_L_20_R_18.png","img/500/equaldotsize/R/9_Ratio_500_L_2_R_4.png","img/250/equaldotsize/R/11_Ratio_250_L_3_R_12.png","img/750/randomdotsizeEA/L/8_Ratio_750_L_4_R_3.png","img/900/equaldotsize/L/1_Ratio_900_L_10_R_9.png","img/250/equaldotsize/R/13_Ratio_250_L_2_R_8.png","img/750/randomdotsizeEA/R/5_Ratio_750_L_15_R_20.png","img/750/equaldotsize/L/9_Ratio_750_L_4_R_3.png","img/900/equaldotanddens/L/8_Ratio_900_L_20_R_18.png","img/250/randomdotsizeEA/R/11_Ratio_250_L_3_R_12.png","img/500/equaldotanddens/L/11_Ratio_500_L_12_R_6.png","img/500/randomdotsizeEA/R/2_Ratio_500_L_3_R_6.png","img/900/equaldotanddens/L/1_Ratio_900_L_10_R_9.png","img/500/randomdotsizeEA/R/12_Ratio_500_L_1_R_2.png","img/250/randomdotsizeEA/L/3_Ratio_250_L_8_R_2.png","img/750/equaldotanddens/L/6_Ratio_750_L_24_R_18.png","img/500/randomdotsizeEA/L/10_Ratio_500_L_4_R_2.png","img/250/equaldotsize/R/12_Ratio_250_L_5_R_20.png","img/500/equaldotsize/R/3_Ratio_500_L_10_R_20.png","img/900/equaldotsize/R/13_Ratio_900_L_18_R_20.png","img/900/equaldotsize/R/5_Ratio_900_L_9_R_10.png","img/250/equaldotanddens/L/7_Ratio_250_L_8_R_2.png","img/750/equaldotsize/R/12_Ratio_750_L_3_R_4.png","img/750/randomdotsizeEA/L/1_Ratio_750_L_20_R_15.png","img/500/equaldotanddens/R/1_Ratio_500_L_9_R_18.png","img/250/equaldotanddens/R/12_Ratio_250_L_5_R_20.png"],"Rat0":[["12_Ratio_0_L_9_R_0.png","13_Ratio_0_L_6_R_0.png","5_Ratio_0_L_2_R_0.png","6_Ratio_0_L_4_R_0.png","8_Ratio_0_L_6_R_0.png"],["1_Ratio_0_L_0_R_17.png","10_Ratio_0_L_0_R_22.png","11_Ratio_0_L_0_R_1.png","14_Ratio_0_L_0_R_24.png","15_Ratio_0_L_0_R_4.png","2_Ratio_0_L_0_R_5.png","3_Ratio_0_L_0_R_17.png","4_Ratio_0_L_0_R_7.png","7_Ratio_0_L_0_R_19.png","9_Ratio_0_L_0_R_15.png"]],"Rat250":[["1_Ratio_250_L_8_R_2.png","14_Ratio_250_L_12_R_3.png","15_Ratio_250_L_12_R_3.png","2_Ratio_250_L_16_R_4.png","3_Ratio_250_L_8_R_2.png","5_Ratio_250_L_24_R_6.png","7_Ratio_250_L_8_R_2.png"],["10_Ratio_250_L_4_R_16.png","11_Ratio_250_L_3_R_12.png","12_Ratio_250_L_5_R_20.png","13_Ratio_250_L_2_R_8.png","4_Ratio_250_L_3_R_12.png","6_Ratio_250_L_6_R_24.png","8_Ratio_250_L_1_R_4.png","9_Ratio_250_L_3_R_12.png"]],"Rat500":[["10_Ratio_500_L_4_R_2.png","11_Ratio_500_L_12_R_6.png","13_Ratio_500_L_12_R_6.png","4_Ratio_500_L_18_R_9.png","5_Ratio_500_L_4_R_2.png","7_Ratio_500_L_10_R_5.png","8_Ratio_500_L_8_R_4.png"],["1_Ratio_500_L_9_R_18.png","12_Ratio_500_L_1_R_2.png","14_Ratio_500_L_5_R_10.png","15_Ratio_500_L_1_R_2.png","2_Ratio_500_L_3_R_6.png","3_Ratio_500_L_10_R_20.png","6_Ratio_500_L_9_R_18.png","9_Ratio_500_L_2_R_4.png"]],"Rat750":[["1_Ratio_750_L_20_R_15.png","10_Ratio_750_L_4_R_3.png","13_Ratio_750_L_8_R_6.png","14_Ratio_750_L_8_R_6.png","6_Ratio_750_L_24_R_18.png","8_Ratio_750_L_4_R_3.png","9_Ratio_750_L_4_R_3.png"],["11_Ratio_750_L_12_R_16.png","12_Ratio_750_L_3_R_4.png","15_Ratio_750_L_9_R_12.png","2_Ratio_750_L_6_R_8.png","3_Ratio_750_L_15_R_20.png","4_Ratio_750_L_15_R_20.png","5_Ratio_750_L_15_R_20.png","7_Ratio_750_L_3_R_4.png"]],"Rat900":[["1_Ratio_900_L_10_R_9.png","10_Ratio_900_L_20_R_18.png","2_Ratio_900_L_20_R_18.png","4_Ratio_900_L_20_R_18.png","8_Ratio_900_L_20_R_18.png"],["11_Ratio_900_L_18_R_20.png","12_Ratio_900_L_18_R_20.png","13_Ratio_900_L_18_R_20.png","14_Ratio_900_L_18_R_20.png","15_Ratio_900_L_9_R_10.png","3_Ratio_900_L_9_R_10.png","5_Ratio_900_L_9_R_10.png","6_Ratio_900_L_9_R_10.png","7_Ratio_900_L_9_R_10.png","9_Ratio_900_L_18_R_20.png"]],"Rat1000":[["10_Ratio_1000_L_16_R_16.png","11_Ratio_1000_L_6_R_6.png","12_Ratio_1000_L_14_R_14.png","13_Ratio_1000_L_20_R_20.png","15_Ratio_1000_L_15_R_15.png","2_Ratio_1000_L_17_R_17.png","4_Ratio_1000_L_9_R_9.png","5_Ratio_1000_L_6_R_6.png","6_Ratio_1000_L_19_R_19.png","8_Ratio_1000_L_14_R_14.png","9_Ratio_1000_L_25_R_25.png"],["1_Ratio_1000_L_1_R_1.png","14_Ratio_1000_L_17_R_17.png","3_Ratio_1000_L_17_R_17.png","7_Ratio_1000_L_6_R_6.png"]]}},{"start_time":1551892716539,"click_time":1551892720790,"finger_time":1551892719010,"fix_duration":828.7321028081401,"trial":1,"RT":2471,"MT":1780,"sideResp":1,"stimulus":"img/250/randomdotsizeEA/L/5_Ratio_250_L_24_R_6.png","xmouse":[784,784,784,784,784,784,784,784,784,784,784,784,784,784,784,784,784,784,784,784,784,784,784,784,784,784,784,784,784,784,784,784,784,784,784,784,784,784,784,784,784,784,784,784,784,784,784,784,784,784,784,784,784,784,784,784,784,784,784,784,784,784,784,784,784,784,784,784,784,784,784,784,784,784,784,784,784,784,784,784,784,784,784,784,784,784,784,784,784,784,784,784,784,784,784,784,784,784,784,784,784,784,784,784,784,784,784,784,784,784,784,784,784,784,784,784,784,784,784,783,781,777,773,767,764,762,762,762,762,762,764,765,765,765,765,765,765,764,757,755,755,755,755,755,755,755,755,759,759,760,761,761,761,761,762,762,762,762,762,762,762,762,762,762,762,762,762,762,762,762,762,762,762,762,762,762,762,762,762,762,762,762,762,762,762,760,743,676,628,600,566,531,496,416,391,378,371,369,369,369,369,369,369,369,369,378,395,409,410,411,413,417,430],"ymouse":[601,601,601,601,601,601,601,601,601,601,601,601,601,601,601,601,601,601,601,601,601,601,601,601,601,601,601,601,601,601,601,601,601,601,601,601,601,601,601,601,601,601,601,601,601,601,601,601,601,601,601,601,601,601,601,601,601,601,601,601,601,601,601,601,601,601,601,601,601,601,601,601,601,601,601,601,601,601,601,601,601,601,601,601,601,601,601,601,601,601,601,601,601,601,601,601,601,601,601,601,601,601,601,601,601,601,601,601,601,601,601,601,601,601,601,601,601,601,601,593,586,580,576,573,573,573,573,573,573,564,549,531,508,505,504,504,504,504,509,516,521,522,530,538,554,569,588,610,612,612,612,612,612,612,612,612,612,612,612,612,612,612,612,612,612,612,612,612,612,612,612,612,612,612,612,612,612,612,612,612,612,612,612,612,608,599,564,437,340,297,250,205,156,64,31,9,0,0,0,0,0,0,0,0,0,0,2,10,11,12,13,16,25],"timestamp_mouse":[11,32,50,71,90,110,130,151,171,190,210,231,250,271,290,311,331,350,370,390,411,430,451,471,491,510,531,551,571,591,610,630,650,670,690,712,730,750,771,791,810,830,850,872,890,912,930,950,971,991,1011,1030,1052,1071,1092,1110,1130,1150,1170,1192,1210,1231,1250,1270,1292,1310,1332,1350,1370,1392,1411,1432,1450,1472,1490,1510,1531,1552,1571,1591,1610,1631,1652,1671,1690,1711,1731,1751,1772,1790,1811,1831,1852,1870,1891,1910,1931,1951,1970,1990,2012,2030,2050,2071,2091,2111,2130,2152,2170,2191,2211,2230,2251,2271,2291,2310,2332,2351,2370,2390,2410,2430,2451,2471,2490,2511,2531,2551,2571,2590,2610,2631,2650,2670,2690,2711,2731,2750,2770,2790,2811,2831,2850,2870,2890,2910,2932,2950,2970,2990,3010,3030,3050,3071,3090,3111,3130,3152,3170,3190,3211,3232,3250,3271,3291,3312,3331,3351,3372,3392,3412,3432,3451,3470,3491,3510,3531,3551,3571,3590,3610,3630,3651,3670,3690,3710,3732,3750,3771,3790,3811,3831,3850,3870,3891,3910,3930,3951,3971,3990,4011,4031,4050,4070,4091,4111,4132,4151,4170,4191,4210,4231,4250],"xSR":741.5,"ySR":573.95,"xT1":424.9,"yT1":0,"xT2":1058.1,"yT2":0,"toosoon":0,"cond_shown":"randomdotsizeEA","ratio_trial":250,"smaller_num":"6","larger_num":"24","correct_side":1,"subjID":"angelasantamaria.14","gender":"1","age":"10","school":"6"},{"start_time":1551892725306,"click_time":1551892725810,"finger_time":1551892725450,"fix_duration":614.0871471217523,"trial":2,"RT":144,"MT":360,"sideResp":1,"stimulus":"img/750/equaldotsize/L/6_Ratio_750_L_24_R_18.png","xmouse":[799,799,799,799,799,799,787,774,741,673,654,629,600,571,528,514,512,510,509,509,509,509,509,506,498,496],"ymouse":[618,618,618,618,618,618,598,569,508,394,360,322,280,239,179,155,149,140,136,136,136,136,135,124,101,94],"timestamp_mouse":[10,34,43,63,84,104,125,144,163,183,203,223,243,264,284,305,324,343,364,384,403,423,444,465,484,503],"xSR":741.5,"ySR":573.95,"xT1":424.9,"yT1":0,"xT2":1058.1,"yT2":0,"toosoon":0,"cond_shown":"equaldotsize","ratio_trial":750,"smaller_num":"18","larger_num":"24","correct_side":1,"subjID":"angelasantamaria.14","gender":"1","age":"10","school":"6"},{"start_time":1551892727315,"click_time":1551892727889,"finger_time":1551892727630,"fix_duration":624.9732715337572,"trial":3,"RT":315,"MT":259,"sideResp":1,"stimulus":"img/750/randomdotsizeEA/L/10_Ratio_750_L_4_R_3.png","xmouse":[787,787,787,787,787,787,787,787,787,787,787,787,786,781,754,735,710,667,635,567,540,527,519,515,508,505,503,501,499],"ymouse":[641,641,641,641,641,641,641,641,641,641,641,641,639,631,598,574,541,471,408,281,236,208,189,177,150,136,122,107,96],"timestamp_mouse":[17,38,55,75,94,114,134,155,174,195,215,234,255,274,294,315,334,354,374,394,414,434,454,474,494,515,535,554,574],"xSR":741.5,"ySR":573.95,"xT1":424.9,"yT1":0,"xT2":1058.1,"yT2":0,"toosoon":0,"cond_shown":"randomdotsizeEA","ratio_trial":750,"smaller_num":"3","larger_num":"4","correct_side":1,"subjID":"angelasantamaria.14","gender":"1","age":"10","school":"6"},{"start_time":1551892731253,"click_time":1551892732049,"finger_time":1551892731650,"fix_duration":1160.7588040984874,"trial":4,"RT":397,"MT":399,"sideResp":1,"stimulus":"img/250/randomdotsizeEA/L/15_Ratio_250_L_12_R_3.png","xmouse":[790,790,790,790,790,790,790,790,790,790,790,790,790,790,790,790,790,785,767,741,704,671,659,645,634,624,613,609,604,598,590,570,565,560,555,547,528,516,506,496],"ymouse":[622,622,622,622,622,622,622,622,622,622,622,622,622,622,622,622,622,605,580,548,502,448,422,396,369,346,311,296,282,265,249,214,200,190,178,164,132,115,100,88],"timestamp_mouse":[16,36,58,77,96,117,137,156,178,197,217,237,256,277,296,316,337,356,376,397,417,437,457,476,496,516,537,556,577,596,616,636,656,676,696,716,737,756,777,796],"xSR":741.5,"ySR":573.95,"xT1":424.9,"yT1":0,"xT2":1058.1,"yT2":0,"toosoon":0,"cond_shown":"randomdotsizeEA","ratio_trial":250,"smaller_num":"3","larger_num":"12","correct_side":1,"subjID":"angelasantamaria.14","gender":"1","age":"10","school":"6"},{"start_time":1551892733856,"click_time":1551892734969,"finger_time":1551892734209,"fix_duration":1045.8509420358193,"trial":5,"RT":353,"MT":760,"sideResp":1,"stimulus":"img/250/randomdotsizeEA/L/1_Ratio_250_L_8_R_2.png","xmouse":[823,823,823,823,823,823,823,823,823,823,823,823,823,823,823,823,823,788,732,663,576,346,282,241,224,218,217,217,217,217,217,217,217,217,217,226,247,252,256,261,268,301,314,323,332,335,350,359,367,374,379,382,388,395,410,426],"ymouse":[668,668,668,668,668,668,668,668,668,668,668,668,668,668,668,668,632,559,492,421,338,141,85,48,29,17,11,11,11,11,11,11,11,10,9,9,9,9,9,9,9,9,9,8,5,4,1,0,0,0,0,0,1,4,9,16],"timestamp_mouse":[14,33,53,75,94,114,134,153,173,195,215,233,253,274,293,313,333,353,374,393,413,433,453,473,493,513,534,553,573,594,615,635,653,673,693,713,733,753,774,793,815,834,853,874,893,914,934,953,974,993,1014,1033,1053,1074,1094,1113],"xSR":741.5,"ySR":573.95,"xT1":424.9,"yT1":0,"xT2":1058.1,"yT2":0,"toosoon":0,"cond_shown":"randomdotsizeEA","ratio_trial":250,"smaller_num":"2","larger_num":"8","correct_side":1,"subjID":"angelasantamaria.14","gender":"1","age":"10","school":"6"},{"start_time":1551892738254,"click_time":1551892739450,"finger_time":1551892738870,"fix_duration":523.440391045471,"trial":6,"RT":616,"MT":580,"sideResp":1,"stimulus":"img/250/equaldotsize/R/4_Ratio_250_L_3_R_12.png","xmouse":[805,805,805,805,805,805,805,805,805,805,805,805,805,805,805,805,805,805,805,805,805,805,805,805,805,805,804,802,797,788,745,662,635,621,615,606,605,604,601,598,589,585,580,575,570,564,552,547,543,534,529,523,522,522,522,522,520,512,507],"ymouse":[606,606,606,606,606,606,606,606,606,606,606,606,606,606,606,606,606,606,606,606,606,606,606,606,606,606,605,599,586,566,500,403,373,352,336,312,305,299,291,275,251,238,226,216,204,191,169,160,152,138,128,116,115,115,115,115,111,103,95],"timestamp_mouse":[38,56,75,95,116,136,155,176,197,215,235,255,275,297,317,335,356,375,395,415,435,455,476,495,516,536,556,576,596,616,635,655,675,695,716,736,755,777,796,817,836,855,875,896,915,935,956,977,996,1015,1035,1056,1075,1096,1116,1135,1155,1177,1196],"xSR":741.5,"ySR":573.95,"xT1":424.9,"yT1":0,"xT2":1058.1,"yT2":0,"toosoon":0,"cond_shown":"equaldotsize","ratio_trial":250,"smaller_num":"3","larger_num":"12","correct_side":2,"subjID":"angelasantamaria.14","gender":"1","age":"10","school":"6"},{"start_time":1551892741435,"click_time":1551892742389,"finger_time":1551892742069,"fix_duration":964.355485961561,"trial":7,"RT":634,"MT":320,"sideResp":1,"stimulus":"img/750/equaldotanddens/L/10_Ratio_750_L_4_R_3.png","xmouse":[781,781,781,781,781,781,781,781,781,781,781,781,781,781,781,781,781,781,781,781,781,781,781,781,781,781,781,781,781,781,779,760,711,687,665,649,631,621,604,595,586,574,568,556,551,539,516,486],"ymouse":[610,610,610,610,610,610,610,610,610,610,610,610,610,610,610,610,610,610,610,610,610,610,610,610,610,610,610,610,610,589,576,504,374,315,261,228,201,186,164,155,149,142,138,131,128,120,106,89],"timestamp_mouse":[14,35,55,74,96,114,134,154,174,196,214,234,254,275,294,314,335,354,375,396,414,436,454,474,494,515,534,555,575,595,614,634,655,675,694,714,734,755,774,795,815,834,854,874,894,916,934,954],"xSR":741.5,"ySR":573.95,"xT1":424.9,"yT1":0,"xT2":1058.1,"yT2":0,"toosoon":0,"cond_shown":"equaldotanddens","ratio_trial":750,"smaller_num":"3","larger_num":"4","correct_side":1,"subjID":"angelasantamaria.14","gender":"1","age":"10","school":"6"},{"start_time":1551892743469,"click_time":1551892745050,"finger_time":1551892743810,"fix_duration":257.2003906674277,"trial":8,"RT":341,"MT":1240,"sideResp":1,"stimulus":"img/250/equaldotanddens/R/10_Ratio_250_L_4_R_16.png","xmouse":[816,816,815,815,815,815,815,815,815,815,815,815,815,814,812,806,801,773,753,737,715,686,595,578,566,561,546,536,525,512,508,504,504,504,504,504,504,504,504,504,504,504,504,504,504,504,504,504,504,504,504,504,504,504,504,504,504,504,504,504,504,504,504,504,504,504,504,504,504,504,504,504,504,504,504,504,505,506,507,507],"ymouse":[613,613,613,613,613,613,613,613,613,613,613,613,613,611,607,595,579,518,472,434,390,340,222,201,185,176,157,146,134,118,114,106,106,106,106,106,106,106,106,105,105,105,105,105,105,105,105,105,105,105,105,105,105,105,105,105,105,105,105,105,105,104,104,102,102,102,102,102,102,102,102,102,102,102,102,102,101,100,100,99],"timestamp_mouse":[4,20,40,60,80,101,120,142,160,181,201,220,240,261,281,300,320,341,360,380,400,420,442,462,481,500,521,540,560,580,600,620,642,661,681,700,722,740,761,780,801,822,841,860,880,902,921,941,961,980,1001,1020,1040,1060,1081,1102,1121,1140,1160,1182,1200,1220,1240,1260,1281,1302,1321,1340,1360,1380,1401,1421,1440,1460,1481,1500,1521,1540,1561,1581],"xSR":741.5,"ySR":573.95,"xT1":424.9,"yT1":0,"xT2":1058.1,"yT2":0,"toosoon":0,"cond_shown":"equaldotanddens","ratio_trial":250,"smaller_num":"4","larger_num":"16","correct_side":2,"subjID":"angelasantamaria.14","gender":"1","age":"10","school":"6"},{"start_time":1551892754784,"click_time":1551892755889,"finger_time":1551892755191,"fix_duration":1433.5458281242666,"trial":9,"RT":407,"MT":698,"sideResp":1,"stimulus":"img/750/randomdotsizeEA/R/12_Ratio_750_L_3_R_4.png","xmouse":[767,767,767,767,767,767,767,767,767,767,767,767,767,767,767,767,767,767,767,760,730,710,684,652,618,581,479,457,445,438,432,429,427,424,423,421,421,421,421,421,421,421,421,421,421,421,421,421,421,421,421,421,421,421,424,426],"ymouse":[619,619,619,619,619,619,619,619,619,619,619,619,619,619,619,619,619,619,619,609,565,537,494,443,401,348,196,163,145,132,117,109,100,90,84,71,70,70,70,70,70,70,70,70,70,70,70,70,70,70,70,70,70,70,69,71],"timestamp_mouse":[10,35,45,66,85,105,125,145,165,186,205,226,245,266,286,306,325,345,366,385,407,425,445,466,486,505,526,545,566,585,605,625,645,665,687,706,725,745,765,786,806,826,846,865,885,906,926,946,965,985,1005,1025,1046,1066,1087,1105],"xSR":741.5,"ySR":573.95,"xT1":424.9,"yT1":0,"xT2":1058.1,"yT2":0,"toosoon":0,"cond_shown":"randomdotsizeEA","ratio_trial":750,"smaller_num":"3","larger_num":"4","correct_side":2,"subjID":"angelasantamaria.14","gender":"1","age":"10","school":"6"},{"start_time":1551892759061,"click_time":1551892759532,"finger_time":1551892759472,"fix_duration":887.6963272432324,"trial":10,"RT":411,"MT":60,"sideResp":1,"stimulus":"img/900/equaldotanddens/L/8_Ratio_900_L_20_R_18.png","xmouse":[785,785,785,785,785,785,785,785,785,785,785,785,785,785,785,785,785,785,785,777,764,576,497,440],"ymouse":[609,609,609,609,609,609,609,609,609,609,609,609,609,609,609,609,609,609,609,584,546,278,169,88],"timestamp_mouse":[13,36,52,72,91,111,132,151,171,191,211,231,251,271,291,311,332,351,371,391,411,431,451,471],"xSR":741.5,"ySR":573.95,"xT1":424.9,"yT1":0,"xT2":1058.1,"yT2":0,"toosoon":0,"cond_shown":"equaldotanddens","ratio_trial":900,"smaller_num":"18","larger_num":"20","correct_side":1,"subjID":"angelasantamaria.14","gender":"1","age":"10","school":"6"},{"start_time":1551892761687,"click_time":1551892762532,"finger_time":1551892762132,"fix_duration":1072.9856971570914,"trial":11,"RT":445,"MT":400,"sideResp":1,"stimulus":"img/250/equaldotanddens/R/13_Ratio_250_L_2_R_8.png","xmouse":[750,750,750,750,750,750,750,750,750,750,750,750,750,750,750,750,750,750,750,750,750,746,714,686,663,636,628,621,612,600,579,555,541,532,525,516,514,511,506,503,488,478,464],"ymouse":[635,635,635,635,635,635,635,635,635,635,635,635,635,635,635,635,635,635,635,635,635,602,549,491,449,390,372,355,338,317,280,229,206,189,177,167,164,160,151,146,119,103,85],"timestamp_mouse":[10,36,45,65,85,105,125,145,165,185,206,225,245,265,286,305,325,346,365,385,406,425,445,466,485,506,525,546,565,585,605,626,645,665,685,705,725,746,765,786,805,825,845],"xSR":741.5,"ySR":573.95,"xT1":424.9,"yT1":0,"xT2":1058.1,"yT2":0,"toosoon":0,"cond_shown":"equaldotanddens","ratio_trial":250,"smaller_num":"2","larger_num":"8","correct_side":2,"subjID":"angelasantamaria.14","gender":"1","age":"10","school":"6"},{"start_time":1551892764699,"click_time":1551892765332,"finger_time":1551892765033,"fix_duration":1265.486234380216,"trial":12,"RT":334,"MT":299,"sideResp":1,"stimulus":"img/750/equaldotanddens/R/3_Ratio_750_L_15_R_20.png","xmouse":[773,773,773,773,773,773,773,773,773,773,773,773,773,773,773,771,739,702,674,624,615,609,602,597,574,561,547,539,536,526,523,521],"ymouse":[642,642,642,642,642,642,642,642,642,642,642,642,642,642,642,629,571,507,445,366,349,334,320,308,283,270,244,219,191,126,103,86],"timestamp_mouse":[22,39,54,74,93,113,134,153,174,194,213,234,254,274,294,313,334,353,373,393,413,433,453,473,493,513,533,553,574,593,613,633],"xSR":741.5,"ySR":573.95,"xT1":424.9,"yT1":0,"xT2":1058.1,"yT2":0,"toosoon":0,"cond_shown":"equaldotanddens","ratio_trial":750,"smaller_num":"15","larger_num":"20","correct_side":2,"subjID":"angelasantamaria.14","gender":"1","age":"10","school":"6"},{"start_time":1551892767264,"click_time":1551892768032,"finger_time":1551892767712,"fix_duration":729.4019064428768,"trial":13,"RT":448,"MT":320,"sideResp":1,"stimulus":"img/750/equaldotanddens/R/3_Ratio_750_L_15_R_20.png","xmouse":[823,823,823,823,823,823,823,823,823,823,823,823,823,823,823,823,822,818,818,818,818,799,765,720,668,626,560,537,527,525,522,519,515,511,506,503,499,498,493],"ymouse":[616,616,616,616,616,616,616,616,616,616,616,616,616,616,616,616,613,609,608,608,608,578,529,466,400,342,273,250,234,224,208,200,173,159,146,137,120,109,97],"timestamp_mouse":[8,29,48,68,88,108,129,148,168,188,208,228,248,268,289,308,328,348,369,388,408,428,448,468,488,508,528,548,568,589,608,628,648,668,688,708,728,748,768],"xSR":741.5,"ySR":573.95,"xT1":424.9,"yT1":0,"xT2":1058.1,"yT2":0,"toosoon":0,"cond_shown":"equaldotanddens","ratio_trial":750,"smaller_num":"15","larger_num":"20","correct_side":2,"subjID":"angelasantamaria.14","gender":"1","age":"10","school":"6"},{"start_time":1551892769743,"click_time":1551892770113,"finger_time":1551892770012,"fix_duration":987.804116958792,"trial":14,"RT":269,"MT":101,"sideResp":1,"stimulus":"img/900/randomdotsizeEA/L/4_Ratio_900_L_20_R_18.png","xmouse":[830,830,830,830,830,830,830,830,830,830,830,830,817,793,760,668,637,543,477],"ymouse":[652,652,652,652,652,652,652,652,652,652,652,652,584,523,450,315,276,165,82],"timestamp_mouse":[10,33,49,70,90,109,129,149,169,189,209,229,249,269,290,309,329,349,369],"xSR":741.5,"ySR":573.95,"xT1":424.9,"yT1":0,"xT2":1058.1,"yT2":0,"toosoon":0,"cond_shown":"randomdotsizeEA","ratio_trial":900,"smaller_num":"18","larger_num":"20","correct_side":1,"subjID":"angelasantamaria.14","gender":"1","age":"10","school":"6"},{"start_time":1551892774425,"click_time":1551892775592,"finger_time":1551892775092,"fix_duration":250,"trial":15,"RT":667,"MT":500,"sideResp":1,"stimulus":"img/750/randomdotsizeEA/R/12_Ratio_750_L_3_R_4.png","xmouse":[798,798,797,797,797,797,797,797,797,797,797,797,797,797,797,797,797,797,797,797,797,797,797,797,797,797,797,797,797,795,793,787,774,750,727,687,623,554,441,422,414,413,413,413,413,413,413,413,413,413,413,413,413,413,419,423,429,436,446],"ymouse":[597,597,598,598,598,598,598,598,598,598,598,598,598,598,598,598,598,598,598,598,598,598,598,598,598,598,598,598,598,598,598,598,591,568,544,494,419,338,204,172,153,143,137,133,133,133,133,133,133,133,133,133,133,133,124,119,113,107,99],"timestamp_mouse":[10,32,48,67,87,108,128,147,167,187,208,227,248,267,287,307,327,347,368,387,408,427,448,467,488,507,528,547,568,587,607,627,648,667,686,707,728,747,767,787,807,827,847,868,887,908,928,948,968,987,1008,1027,1048,1068,1087,1107,1128,1147,1167],"xSR":741.5,"ySR":573.95,"xT1":424.9,"yT1":0,"xT2":1058.1,"yT2":0,"toosoon":0,"cond_shown":"randomdotsizeEA","ratio_trial":750,"smaller_num":"3","larger_num":"4","correct_side":2,"subjID":"angelasantamaria.14","gender":"1","age":"10","school":"6"},{"start_time":1551892780864,"click_time":1551892781732,"finger_time":1551892781372,"fix_duration":250,"trial":16,"RT":508,"MT":360,"sideResp":1,"stimulus":"img/500/equaldotsize/R/2_Ratio_500_L_3_R_6.png","xmouse":[793,793,793,793,793,793,793,793,793,793,793,793,793,793,793,793,793,793,793,793,793,793,791,785,780,775,761,747,723,692,666,635,629,628,628,628,628,627,618,609,597,551,537,524],"ymouse":[618,618,618,618,618,618,618,618,618,618,618,618,618,618,618,618,618,618,618,621,624,624,624,613,585,547,443,387,325,250,186,109,94,93,93,93,93,89,76,65,50,18,11,7],"timestamp_mouse":[10,31,48,69,88,108,129,148,168,188,208,228,248,268,288,309,329,350,368,388,408,428,448,468,489,508,528,548,568,588,608,628,647,668,688,708,729,749,768,788,808,828,848,868],"xSR":741.5,"ySR":573.95,"xT1":424.9,"yT1":0,"xT2":1058.1,"yT2":0,"toosoon":0,"cond_shown":"equaldotsize","ratio_trial":500,"smaller_num":"3","larger_num":"6","correct_side":2,"subjID":"angelasantamaria.14","gender":"1","age":"10","school":"6"},{"start_time":1551892783917,"click_time":1551892784612,"finger_time":1551892784212,"fix_duration":1243.7891380285228,"trial":17,"RT":295,"MT":400,"sideResp":1,"stimulus":"img/750/equaldotanddens/L/8_Ratio_750_L_4_R_3.png","xmouse":[798,798,798,798,798,798,798,798,797,792,790,788,784,781,769,759,743,738,730,694,667,646,626,610,605,599,594,584,570,527,507,483,465,450,428],"ymouse":[603,603,603,603,603,603,603,603,601,594,591,587,583,577,557,535,494,470,370,222,160,112,70,23,7,0,0,0,0,0,0,0,0,0,2],"timestamp_mouse":[15,41,55,75,95,115,136,155,175,196,215,236,255,276,295,316,335,355,375,396,415,435,455,475,495,516,535,555,575,595,615,635,655,675,695],"xSR":741.5,"ySR":573.95,"xT1":424.9,"yT1":0,"xT2":1058.1,"yT2":0,"toosoon":0,"cond_shown":"equaldotanddens","ratio_trial":750,"smaller_num":"3","larger_num":"4","correct_side":1,"subjID":"angelasantamaria.14","gender":"1","age":"10","school":"6"},{"start_time":1551892786493,"click_time":1551892786892,"finger_time":1551892786692,"fix_duration":398.5663418124507,"trial":18,"RT":199,"MT":200,"sideResp":1,"stimulus":"img/900/randomdotsizeEA/R/14_Ratio_900_L_18_R_20.png","xmouse":[759,759,759,760,760,760,759,757,755,750,742,737,727,713,695,650,621,584,526,506],"ymouse":[623,623,623,619,615,600,591,584,575,559,535,518,496,464,421,302,234,156,52,22],"timestamp_mouse":[32,40,60,80,99,119,139,159,179,199,219,239,259,279,299,320,339,359,379,399],"xSR":741.5,"ySR":573.95,"xT1":424.9,"yT1":0,"xT2":1058.1,"yT2":0,"toosoon":0,"cond_shown":"randomdotsizeEA","ratio_trial":900,"smaller_num":"18","larger_num":"20","correct_side":2,"subjID":"angelasantamaria.14","gender":"1","age":"10","school":"6"},{"start_time":1551892789865,"click_time":1551892790952,"finger_time":1551892790393,"fix_duration":971.5406672748509,"trial":19,"RT":528,"MT":559,"sideResp":1,"stimulus":"img/250/equaldotanddens/R/8_Ratio_250_L_1_R_4.png","xmouse":[778,778,778,778,778,778,778,778,778,778,778,778,778,778,778,778,778,778,778,778,778,778,778,778,778,765,727,693,672,670,672,641,621,600,578,566,510,481,414,317,287,276,276,275,270,266,266,266,266,266,266,266,302,361,430],"ymouse":[634,634,634,634,634,634,634,634,634,634,634,634,634,634,634,634,634,634,634,634,634,634,634,634,634,619,552,499,464,453,429,271,201,128,54,16,0,0,0,0,0,0,0,0,0,0,1,1,1,1,1,1,7,20,45],"timestamp_mouse":[15,51,52,67,88,106,127,147,168,188,207,228,248,267,288,308,326,348,368,387,407,427,447,467,488,507,528,547,567,587,607,627,647,667,687,707,728,747,767,787,808,828,847,867,888,908,927,948,967,988,1008,1028,1048,1068,1087],"xSR":741.5,"ySR":573.95,"xT1":424.9,"yT1":0,"xT2":1058.1,"yT2":0,"toosoon":0,"cond_shown":"equaldotanddens","ratio_trial":250,"smaller_num":"1","larger_num":"4","correct_side":2,"subjID":"angelasantamaria.14","gender":"1","age":"10","school":"6"},{"start_time":1551892792901,"click_time":1551892793792,"finger_time":1551892793232,"fix_duration":587.0621544191371,"trial":20,"RT":331,"MT":560,"sideResp":1,"stimulus":"img/500/equaldotsize/R/12_Ratio_500_L_1_R_2.png","xmouse":[776,776,776,776,776,776,776,776,776,776,776,776,776,776,776,776,777,777,773,751,673,648,632,622,611,611,611,611,610,607,602,595,591,587,581,578,576,574,566,546,545,545,544,539,523],"ymouse":[596,596,596,596,596,596,596,596,596,596,596,596,596,596,596,596,568,538,466,393,228,188,159,142,121,115,109,106,100,89,82,72,67,64,54,45,42,40,34,27,27,27,27,27,27],"timestamp_mouse":[11,38,52,72,91,112,131,151,172,191,211,231,251,271,291,312,331,351,372,391,412,431,451,471,491,511,531,551,572,591,610,631,652,671,691,711,731,751,772,791,810,832,851,871,891],"xSR":741.5,"ySR":573.95,"xT1":424.9,"yT1":0,"xT2":1058.1,"yT2":0,"toosoon":0,"cond_shown":"equaldotsize","ratio_trial":500,"smaller_num":"1","larger_num":"2","correct_side":2,"subjID":"angelasantamaria.14","gender":"1","age":"10","school":"6"},{"start_time":1551892797405,"click_time":1551892798292,"finger_time":1551892797812,"fix_duration":250,"trial":21,"RT":407,"MT":480,"sideResp":1,"stimulus":"img/750/randomdotsizeEA/R/2_Ratio_750_L_6_R_8.png","xmouse":[798,798,798,798,798,798,798,798,798,798,798,798,798,798,798,798,798,798,798,798,763,710,657,622,610,610,610,608,601,560,523,486,446,418,400,385,384,384,384,384,388,393,400,423,438],"ymouse":[629,629,629,629,629,629,629,629,629,629,629,629,629,629,629,629,629,629,629,575,446,312,185,97,51,37,34,26,12,0,0,0,0,0,1,23,35,42,44,45,45,45,45,45,43],"timestamp_mouse":[9,36,47,67,88,107,127,148,168,188,208,228,248,268,287,308,327,348,367,387,407,427,447,467,487,507,527,548,567,587,607,627,647,668,688,708,728,747,768,787,808,827,848,867,886],"xSR":741.5,"ySR":573.95,"xT1":424.9,"yT1":0,"xT2":1058.1,"yT2":0,"toosoon":0,"cond_shown":"randomdotsizeEA","ratio_trial":750,"smaller_num":"6","larger_num":"8","correct_side":2,"subjID":"angelasantamaria.14","gender":"1","age":"10","school":"6"},{"start_time":1551892801812,"click_time":1551892803932,"finger_time":1551892802612,"fix_duration":819.1219531610651,"trial":22,"RT":800,"MT":1320,"sideResp":1,"stimulus":"img/900/randomdotsizeEA/R/6_Ratio_900_L_9_R_10.png","xmouse":[755,755,755,755,755,755,755,755,755,755,755,755,755,755,755,755,755,755,755,755,755,755,755,755,755,755,755,755,755,755,755,755,755,755,755,755,755,755,755,755,753,745,722,678,591,416,326,269,246,242,242,242,242,242,242,242,242,243,250,255,267,274,278,282,308,329,341,348,354,358,359,359,359,359,359,361,362,362,362,362,362,362,362,363,366,376,379,382,384,384,384,384,384,384,384,384,384,384,384,384,384,384,384,384,386,410,425],"ymouse":[608,608,608,608,608,608,608,608,608,608,608,608,608,608,608,608,608,608,608,608,608,608,608,608,608,608,608,608,608,608,608,608,608,608,608,608,608,608,608,608,558,498,370,237,47,0,0,0,0,0,0,0,0,0,0,0,0,5,14,22,41,52,55,56,56,58,60,62,64,65,65,65,65,65,65,65,65,65,65,65,65,65,66,68,69,74,75,77,79,81,81,82,85,87,92,92,92,92,92,92,92,92,92,92,92,95,97],"timestamp_mouse":[2,34,41,61,81,101,120,140,161,180,200,220,241,261,280,300,320,341,360,380,400,420,440,460,480,501,521,540,560,580,600,620,640,660,680,700,720,740,760,780,800,820,840,860,880,900,921,941,960,981,1001,1020,1040,1060,1080,1101,1121,1141,1160,1180,1201,1220,1241,1260,1280,1300,1320,1340,1359,1381,1400,1420,1441,1461,1481,1500,1520,1540,1560,1580,1601,1620,1639,1660,1680,1701,1721,1741,1760,1780,1800,1820,1840,1861,1881,1901,1921,1940,1960,1981,2001,2021,2040,2061,2080,2100,2120],"xSR":741.5,"ySR":573.95,"xT1":424.9,"yT1":0,"xT2":1058.1,"yT2":0,"toosoon":0,"cond_shown":"randomdotsizeEA","ratio_trial":900,"smaller_num":"9","larger_num":"10","correct_side":2,"subjID":"angelasantamaria.14","gender":"1","age":"10","school":"6"},{"start_time":1551892806214,"click_time":1551892807272,"finger_time":1551892806793,"fix_duration":521.2014298810154,"trial":23,"RT":579,"MT":479,"sideResp":1,"stimulus":"img/900/equaldotanddens/L/4_Ratio_900_L_20_R_18.png","xmouse":[804,804,804,804,804,804,804,804,804,804,804,804,804,804,804,804,804,804,804,804,804,804,804,804,804,803,800,789,763,692,650,613,601,601,601,601,601,601,601,601,598,589,581,579,579,579,579,579,579,577,559,528,496],"ymouse":[637,637,637,637,637,637,637,637,637,637,637,637,637,637,637,637,637,637,637,637,637,637,637,637,637,635,627,596,536,359,252,159,113,109,109,109,109,109,109,106,88,63,46,41,41,41,41,41,41,41,39,31,22],"timestamp_mouse":[34,38,58,78,98,118,139,159,179,198,218,238,259,279,298,319,339,358,378,398,419,439,459,478,498,518,539,558,579,598,618,638,658,678,698,718,738,758,778,798,819,838,858,878,898,918,938,958,978,997,1019,1038,1058],"xSR":741.5,"ySR":573.95,"xT1":424.9,"yT1":0,"xT2":1058.1,"yT2":0,"toosoon":0,"cond_shown":"equaldotanddens","ratio_trial":900,"smaller_num":"18","larger_num":"20","correct_side":1,"subjID":"angelasantamaria.14","gender":"1","age":"10","school":"6"},{"start_time":1551892808701,"click_time":1551892809312,"finger_time":1551892809232,"fix_duration":347.0522593781973,"trial":24,"RT":531,"MT":80,"sideResp":1,"stimulus":"img/900/equaldotsize/L/1_Ratio_900_L_10_R_9.png","xmouse":[777,777,777,777,777,777,777,777,777,777,777,777,777,777,777,777,777,777,777,777,777,777,777,777,777,763,734,691,637,574,523],"ymouse":[630,630,630,630,630,630,630,630,630,630,630,630,630,630,630,630,630,630,630,630,630,630,630,630,628,574,476,382,291,179,91],"timestamp_mouse":[16,38,52,71,92,112,131,151,171,192,211,231,251,271,292,312,332,351,371,391,412,431,451,471,493,511,531,551,572,591,611],"xSR":741.5,"ySR":573.95,"xT1":424.9,"yT1":0,"xT2":1058.1,"yT2":0,"toosoon":0,"cond_shown":"equaldotsize","ratio_trial":900,"smaller_num":"9","larger_num":"10","correct_side":1,"subjID":"angelasantamaria.14","gender":"1","age":"10","school":"6"},{"start_time":1551892812186,"click_time":1551892813133,"finger_time":1551892812612,"fix_duration":1391.4949102532903,"trial":25,"RT":426,"MT":521,"sideResp":1,"stimulus":"img/900/randomdotsizeEA/R/5_Ratio_900_L_9_R_10.png","xmouse":[771,771,771,771,771,771,771,771,771,771,771,771,771,771,771,771,771,771,771,771,771,771,756,737,720,705,703,702,698,688,676,654,641,626,614,608,598,583,568,558,554,554,554,552,549,540,525,521],"ymouse":[625,625,625,625,625,625,625,625,625,625,625,625,625,625,625,625,625,625,625,625,615,554,480,410,362,317,309,301,285,263,239,187,159,141,124,112,96,74,54,39,33,33,33,33,33,33,28,28],"timestamp_mouse":[10,38,46,66,86,107,126,146,166,186,206,226,246,266,286,306,327,346,367,387,407,426,447,466,486,506,527,547,566,586,606,626,647,666,686,706,726,746,766,786,806,826,846,866,886,906,926,947],"xSR":741.5,"ySR":573.95,"xT1":424.9,"yT1":0,"xT2":1058.1,"yT2":0,"toosoon":0,"cond_shown":"randomdotsizeEA","ratio_trial":900,"smaller_num":"9","larger_num":"10","correct_side":2,"subjID":"angelasantamaria.14","gender":"1","age":"10","school":"6"},{"start_time":1551892822093,"click_time":1551892823334,"finger_time":1551892822915,"fix_duration":1017.7117423143553,"trial":26,"RT":822,"MT":419,"sideResp":1,"stimulus":"img/250/randomdotsizeEA/R/9_Ratio_250_L_3_R_12.png","xmouse":[783,783,783,783,783,783,783,783,783,783,783,783,783,783,783,783,783,783,783,783,783,783,783,783,783,783,783,783,783,783,783,783,783,783,783,783,783,781,781,780,767,761,753,735,712,684,680,680,680,680,680,676,660,627,582,538,464,447,437,434,431,429,425],"ymouse":[597,597,597,597,597,597,597,597,597,597,597,597,597,597,597,597,597,597,597,597,597,597,597,597,597,597,597,597,597,597,597,597,597,597,597,597,597,598,598,598,582,552,495,423,366,301,287,275,263,243,159,99,21,0,0,0,0,0,0,0,0,0,2],"timestamp_mouse":[1,21,41,62,82,101,121,142,162,181,202,222,242,262,283,302,322,342,362,382,401,422,442,462,481,502,521,543,561,582,602,622,643,662,682,701,722,743,761,781,801,822,842,861,881,901,921,941,962,981,1001,1021,1041,1061,1081,1102,1121,1141,1162,1182,1204,1222,1241],"xSR":741.5,"ySR":573.95,"xT1":424.9,"yT1":0,"xT2":1058.1,"yT2":0,"toosoon":0,"cond_shown":"randomdotsizeEA","ratio_trial":250,"smaller_num":"3","larger_num":"12","correct_side":2,"subjID":"angelasantamaria.14","gender":"1","age":"10","school":"6"},{"start_time":1551892826450,"click_time":1551892830635,"finger_time":1551892827215,"fix_duration":853.9916099732618,"trial":27,"RT":765,"MT":3420,"sideResp":1,"stimulus":"img/500/randomdotsizeEA/R/2_Ratio_500_L_3_R_6.png","xmouse":[789,788,788,788,788,788,788,788,788,788,788,788,788,788,788,788,788,788,788,788,788,788,788,788,788,788,788,788,788,788,788,788,788,788,788,788,786,783,754,739,721,715,715,723,725,725,725,725,725,725,720,701,658,653,652,652,652,658,665,667,667,667,669,668,668,668,668,668,668,668,668,668,668,668,668,668,667,662,654,642,629,614,568,551,535,524,514,496,490,486,484,483,483,483,483,483,483,483,483,483,483,483,483,483,483,483,483,483,483,483,483,483,483,483,483,483,483,483,483,483,483,483,483,483,483,483,483,483,483,483,483,483,483,483,483,483,483,483,483,483,483,483,483,483,483,483,483,483,483,483,483,483,483,483,483,483,483,483,483,483,483,483,483,483,483,483,483,483,483,483,483,483,483,483,483,483,483,483,483,483,483,483,483,483,483,483,483,483,483,483,483,483,483,483,483,483,483,483,483,483,483,483,483,483,483,483,483,483,483,480],"ymouse":[618,618,618,618,618,618,618,618,618,618,618,618,618,618,618,618,618,618,618,618,618,618,618,618,618,618,618,618,618,618,618,618,618,618,618,618,610,583,447,400,360,340,335,312,298,288,276,222,176,94,0,0,0,0,0,0,0,0,0,0,0,0,7,8,9,9,9,9,9,9,9,9,9,9,9,9,10,0,0,0,0,0,0,0,0,0,0,0,0,0,0,0,0,0,0,0,0,0,0,0,0,0,0,0,0,0,0,0,0,0,0,0,0,0,0,0,0,0,0,0,0,0,0,0,0,0,0,0,0,0,0,0,0,0,0,0,0,0,0,0,0,0,0,0,0,0,0,0,0,0,0,0,0,0,0,0,0,0,0,0,0,0,0,0,0,0,0,0,0,0,0,0,0,0,0,0,0,0,0,0,0,0,0,0,0,0,0,0,0,0,0,0,0,0,0,0,0,0,0,0,0,0,0,0,0,0,0,0,0,3],"timestamp_mouse":[11,34,46,66,84,105,124,145,164,186,205,224,245,266,284,305,325,344,366,386,404,424,445,466,486,505,524,545,565,584,605,626,645,664,685,705,724,745,765,785,805,824,844,865,884,905,924,945,965,984,1004,1024,1045,1064,1086,1105,1126,1145,1164,1185,1206,1224,1246,1264,1285,1305,1325,1345,1365,1385,1406,1426,1445,1465,1484,1505,1525,1545,1564,1584,1605,1625,1645,1665,1684,1704,1725,1745,1764,1784,1804,1825,1846,1865,1884,1904,1925,1945,1965,1984,2004,2026,2045,2066,2085,2105,2124,2145,2164,2185,2204,2224,2246,2264,2285,2306,2325,2346,2364,2385,2406,2425,2445,2465,2485,2505,2524,2545,2565,2585,2605,2624,2645,2664,2685,2705,2724,2744,2764,2785,2806,2825,2846,2865,2885,2905,2925,2946,2964,2984,3006,3024,3046,3066,3086,3106,3125,3145,3165,3185,3206,3225,3246,3264,3285,3305,3325,3345,3365,3386,3405,3424,3446,3465,3486,3506,3526,3545,3565,3585,3604,3624,3645,3665,3686,3705,3726,3746,3764,3784,3805,3825,3845,3865,3885,3905,3926,3945,3964,3985,4006,4025,4044,4064,4086,4105,4124,4146,4164,4185],"xSR":741.5,"ySR":573.95,"xT1":424.9,"yT1":0,"xT2":1058.1,"yT2":0,"toosoon":0,"cond_shown":"randomdotsizeEA","ratio_trial":500,"smaller_num":"3","larger_num":"6","correct_side":2,"subjID":"angelasantamaria.14","gender":"1","age":"10","school":"6"},{"start_time":1551892832966,"click_time":1551892834195,"finger_time":1551892833454,"fix_duration":568.3366591514315,"trial":28,"RT":488,"MT":741,"sideResp":1,"stimulus":"img/750/equaldotanddens/R/3_Ratio_750_L_15_R_20.png","xmouse":[796,796,796,796,796,796,796,796,796,796,796,796,796,796,796,796,796,796,796,796,796,796,796,794,793,785,779,762,755,752,752,752,752,752,752,751,747,734,728,720,712,705,685,668,646,626,613,613,613,613,613,613,610,606,595,583,571,559,553,545,533,499],"ymouse":[585,585,585,585,585,585,585,585,585,585,585,585,585,585,585,585,585,585,585,585,585,585,585,578,566,528,492,393,341,299,249,143,94,58,34,16,0,0,0,0,0,0,0,0,0,0,0,0,0,0,0,0,0,0,0,0,0,0,0,0,0,1],"timestamp_mouse":[10,31,48,69,89,110,129,149,169,189,209,229,249,268,288,309,330,348,369,389,408,429,449,470,488,509,528,549,569,589,608,629,648,668,689,709,729,750,769,788,808,829,849,870,890,910,928,948,969,989,1010,1030,1048,1068,1088,1109,1128,1148,1168,1190,1210,1229],"xSR":741.5,"ySR":573.95,"xT1":424.9,"yT1":0,"xT2":1058.1,"yT2":0,"toosoon":0,"cond_shown":"equaldotanddens","ratio_trial":750,"smaller_num":"15","larger_num":"20","correct_side":2,"subjID":"angelasantamaria.14","gender":"1","age":"10","school":"6"},{"start_time":1551892839965,"click_time":1551892840615,"finger_time":1551892840395,"fix_duration":469.5354140100747,"trial":29,"RT":430,"MT":220,"sideResp":1,"stimulus":"img/900/equaldotanddens/L/4_Ratio_900_L_20_R_18.png","xmouse":[793,793,793,793,793,793,793,793,793,793,793,793,793,793,793,794,796,802,800,787,778,762,752,729,705,679,659,659,659,659,659,546,492],"ymouse":[617,617,617,617,617,617,617,617,617,617,617,617,617,617,617,617,616,610,607,606,602,569,508,422,336,271,205,202,202,202,197,63,10],"timestamp_mouse":[11,33,49,70,90,111,129,149,171,191,209,229,251,270,291,310,329,350,370,390,409,430,449,470,489,509,530,551,571,589,609,630,649],"xSR":741.5,"ySR":573.95,"xT1":424.9,"yT1":0,"xT2":1058.1,"yT2":0,"toosoon":0,"cond_shown":"equaldotanddens","ratio_trial":900,"smaller_num":"18","larger_num":"20","correct_side":1,"subjID":"angelasantamaria.14","gender":"1","age":"10","school":"6"},{"start_time":1551892853822,"click_time":1551892854534,"finger_time":1551892854155,"fix_duration":1145.9603959452984,"trial":30,"RT":333,"MT":379,"sideResp":1,"stimulus":"img/900/equaldotsize/R/13_Ratio_900_L_18_R_20.png","xmouse":[745,745,745,745,745,745,745,745,745,745,745,745,745,745,745,745,744,721,668,637,593,569,560,553,549,544,536,529,516,514,514,514,514,514,510,502],"ymouse":[590,590,590,590,590,590,590,590,590,590,590,590,590,590,590,584,538,469,362,314,256,223,204,190,186,182,176,170,155,149,146,143,138,117,102,85],"timestamp_mouse":[13,36,53,73,94,114,132,153,172,193,214,234,253,272,292,313,333,353,372,392,413,432,453,472,494,513,532,554,573,594,612,633,653,673,693,712],"xSR":741.5,"ySR":573.95,"xT1":424.9,"yT1":0,"xT2":1058.1,"yT2":0,"toosoon":0,"cond_shown":"equaldotsize","ratio_trial":900,"smaller_num":"18","larger_num":"20","correct_side":2,"subjID":"angelasantamaria.14","gender":"1","age":"10","school":"6"},{"start_time":1551892858728,"click_time":1551892859695,"finger_time":1551892859194,"fix_duration":250,"trial":31,"RT":466,"MT":501,"sideResp":1,"stimulus":"img/900/equaldotanddens/R/7_Ratio_900_L_9_R_10.png","xmouse":[767,767,767,767,767,767,767,767,767,767,767,767,767,767,767,767,767,767,767,767,768,771,773,768,757,744,721,698,664,642,633,628,619,607,603,598,592,584,579,572,567,562,558,553,551,550,545,534,521],"ymouse":[623,623,623,623,623,623,622,622,622,622,622,622,622,622,622,622,622,622,622,621,614,600,580,525,489,445,386,333,258,203,182,165,151,135,132,127,120,111,104,94,91,87,85,82,81,81,78,74,67],"timestamp_mouse":[10,41,47,67,86,106,127,146,167,186,207,227,247,267,288,307,327,346,367,387,406,428,448,466,486,507,528,546,566,587,606,626,648,666,688,706,727,747,767,788,807,827,846,866,886,908,927,948,967],"xSR":741.5,"ySR":573.95,"xT1":424.9,"yT1":0,"xT2":1058.1,"yT2":0,"toosoon":0,"cond_shown":"equaldotanddens","ratio_trial":900,"smaller_num":"9","larger_num":"10","correct_side":2,"subjID":"angelasantamaria.14","gender":"1","age":"10","school":"6"},{"start_time":1551892860688,"click_time":1551892861535,"finger_time":1551892861475,"fix_duration":250,"trial":32,"RT":787,"MT":60,"sideResp":1,"stimulus":"img/900/equaldotanddens/R/5_Ratio_900_L_9_R_10.png","xmouse":[768,768,768,768,768,768,768,768,768,768,768,768,768,768,768,768,768,768,768,768,768,768,768,768,768,768,768,768,768,768,768,768,768,768,768,768,768,768,761,691,582,551,517],"ymouse":[630,630,630,630,630,630,630,630,630,630,630,630,630,630,630,630,630,630,630,630,630,630,630,630,630,630,630,630,630,630,630,630,630,630,630,630,630,627,600,447,227,132,66],"timestamp_mouse":[7,36,46,67,88,107,128,147,168,187,207,227,247,268,288,307,326,348,366,386,407,426,448,467,486,507,527,547,567,586,607,627,648,667,688,707,727,747,768,787,807,826,847],"xSR":741.5,"ySR":573.95,"xT1":424.9,"yT1":0,"xT2":1058.1,"yT2":0,"toosoon":0,"cond_shown":"equaldotanddens","ratio_trial":900,"smaller_num":"9","larger_num":"10","correct_side":2,"subjID":"angelasantamaria.14","gender":"1","age":"10","school":"6"},{"start_time":1551892862647,"click_time":1551892863255,"finger_time":1551892863174,"fix_duration":250,"trial":33,"RT":527,"MT":81,"sideResp":1,"stimulus":"img/250/randomdotsizeEA/R/9_Ratio_250_L_3_R_12.png","xmouse":[777,777,777,777,777,777,777,777,777,777,777,777,777,777,777,777,777,777,777,777,777,777,777,777,777,776,747,706,603,556,520],"ymouse":[594,594,594,594,594,594,594,594,594,594,594,594,594,594,594,594,594,594,594,594,594,594,594,594,590,575,508,411,204,131,83],"timestamp_mouse":[10,34,47,67,88,108,128,148,167,188,208,228,247,269,288,307,329,348,368,388,408,427,448,468,488,508,527,547,568,588,608],"xSR":741.5,"ySR":573.95,"xT1":424.9,"yT1":0,"xT2":1058.1,"yT2":0,"toosoon":0,"cond_shown":"randomdotsizeEA","ratio_trial":250,"smaller_num":"3","larger_num":"12","correct_side":2,"subjID":"angelasantamaria.14","gender":"1","age":"10","school":"6"},{"start_time":1551892865530,"click_time":1551892866474,"finger_time":1551892865894,"fix_duration":1094.0161458366708,"trial":34,"RT":364,"MT":580,"sideResp":1,"stimulus":"img/250/equaldotsize/L/15_Ratio_250_L_12_R_3.png","xmouse":[792,792,792,792,792,792,792,792,792,792,792,792,792,792,792,792,791,782,700,562,505,471,457,456,456,456,456,456,456,456,456,456,456,456,456,456,456,457,458,460,462,464,466,466,466,466,466,466],"ymouse":[626,626,626,626,626,626,626,626,626,626,626,626,626,626,626,626,625,616,510,319,233,167,133,124,124,124,124,124,124,124,124,124,124,124,124,124,123,122,121,120,118,113,110,108,106,104,100,97],"timestamp_mouse":[9,36,46,64,86,105,125,145,165,186,205,225,246,264,286,305,326,344,364,384,405,425,445,465,484,504,526,545,565,584,604,626,646,665,685,705,725,746,764,786,805,825,844,865,885,905,924,944],"xSR":741.5,"ySR":573.95,"xT1":424.9,"yT1":0,"xT2":1058.1,"yT2":0,"toosoon":0,"cond_shown":"equaldotsize","ratio_trial":250,"smaller_num":"3","larger_num":"12","correct_side":1,"subjID":"angelasantamaria.14","gender":"1","age":"10","school":"6"},{"start_time":1551892868269,"click_time":1551892870975,"finger_time":1551892869214,"fix_duration":872.6637051893575,"trial":35,"RT":945,"MT":1761,"sideResp":1,"stimulus":"img/250/equaldotanddens/R/9_Ratio_250_L_3_R_12.png","xmouse":[744,744,744,744,744,744,744,744,744,744,744,744,744,744,744,744,744,744,744,744,744,744,744,744,744,744,744,744,744,744,744,744,744,744,744,744,744,744,744,744,744,744,744,744,744,744,742,739,736,735,735,735,735,735,735,735,735,735,735,735,735,735,735,735,735,735,735,735,735,734,731,723,723,723,723,723,723,720,717,707,691,573,510,466,448,446,449,458,462,465,466,466,466,460,453,442,399,378,367,366,366,369,370,371,372,376,378,378,378,378,378,378,378,378,378,379,379,385,386,386,386,392,406,414,416,417,417,417,417,417,417,417,417,418,419,425],"ymouse":[607,607,607,607,607,607,607,607,607,607,607,607,607,607,607,607,607,607,607,607,607,607,607,607,607,607,607,607,607,607,607,607,607,607,607,607,607,607,607,607,607,607,607,607,607,608,608,610,612,613,613,613,613,613,613,613,613,613,613,613,613,613,613,613,613,613,613,613,613,613,610,605,605,605,605,605,605,604,603,599,589,482,400,328,278,253,235,204,192,178,172,159,149,138,124,110,65,47,32,26,24,15,11,9,8,6,5,5,5,5,5,5,5,5,5,5,5,5,5,5,5,5,20,29,34,35,35,35,35,35,35,35,35,36,36,40],"timestamp_mouse":[10,41,46,66,86,106,126,146,167,186,206,226,246,266,285,305,327,347,365,386,405,426,447,467,485,506,527,545,566,586,607,625,647,666,686,706,726,747,767,786,806,825,846,867,886,906,926,945,966,986,1007,1027,1046,1066,1086,1105,1127,1146,1166,1185,1206,1226,1246,1267,1286,1306,1327,1345,1367,1386,1405,1425,1445,1466,1486,1505,1526,1546,1566,1585,1606,1625,1646,1665,1685,1707,1725,1746,1766,1786,1807,1825,1845,1865,1887,1905,1926,1946,1966,1986,2005,2026,2045,2066,2086,2107,2125,2146,2166,2187,2206,2226,2245,2265,2286,2306,2325,2345,2366,2386,2407,2425,2445,2466,2487,2505,2527,2545,2566,2586,2606,2625,2645,2666,2686,2706],"xSR":741.5,"ySR":573.95,"xT1":424.9,"yT1":0,"xT2":1058.1,"yT2":0,"toosoon":0,"cond_shown":"equaldotanddens","ratio_trial":250,"smaller_num":"3","larger_num":"12","correct_side":2,"subjID":"angelasantamaria.14","gender":"1","age":"10","school":"6"},{"start_time":1551892872449,"click_time":1551892873075,"finger_time":1551892872734,"fix_duration":391.8391628139759,"trial":36,"RT":285,"MT":341,"sideResp":1,"stimulus":"img/500/equaldotanddens/R/6_Ratio_500_L_9_R_18.png","xmouse":[792,792,792,792,792,792,792,792,792,792,792,792,790,786,782,774,759,722,704,690,676,652,633,630,625,617,607,575,559,540,529,520],"ymouse":[592,592,592,592,592,592,592,592,592,592,592,592,591,578,565,548,524,453,408,359,307,226,182,170,162,151,138,102,85,70,61,55],"timestamp_mouse":[9,30,46,66,85,107,126,145,165,187,205,226,246,265,285,307,326,346,366,385,406,427,446,465,485,507,526,546,565,586,606,626],"xSR":741.5,"ySR":573.95,"xT1":424.9,"yT1":0,"xT2":1058.1,"yT2":0,"toosoon":0,"cond_shown":"equaldotanddens","ratio_trial":500,"smaller_num":"9","larger_num":"18","correct_side":2,"subjID":"angelasantamaria.14","gender":"1","age":"10","school":"6"},{"start_time":1551892877555,"click_time":1551892878656,"finger_time":1551892878075,"fix_duration":898.0038124945768,"trial":37,"RT":520,"MT":581,"sideResp":1,"stimulus":"img/500/equaldotanddens/R/3_Ratio_500_L_10_R_20.png","xmouse":[748,748,748,748,748,748,748,748,748,748,748,748,748,748,748,748,749,750,752,752,752,752,752,752,753,750,692,673,660,654,649,636,627,613,584,543,453,431,416,406,397,379,370,362,360,359,359,363,367,371,377,386,395,411,433],"ymouse":[583,583,583,583,583,583,583,583,583,583,583,583,583,583,583,583,582,582,582,582,582,582,582,582,581,572,481,426,372,326,283,197,162,128,87,38,0,0,0,0,0,0,0,0,0,0,2,6,9,16,24,40,52,70,87],"timestamp_mouse":[19,40,59,80,99,121,140,159,181,201,220,240,261,281,300,320,339,360,381,399,420,441,459,479,499,520,540,559,580,601,619,639,659,680,700,720,740,759,779,800,821,840,860,879,901,920,941,959,980,1000,1021,1040,1059,1080,1101],"xSR":741.5,"ySR":573.95,"xT1":424.9,"yT1":0,"xT2":1058.1,"yT2":0,"toosoon":0,"cond_shown":"equaldotanddens","ratio_trial":500,"smaller_num":"10","larger_num":"20","correct_side":2,"subjID":"angelasantamaria.14","gender":"1","age":"10","school":"6"},{"start_time":1551892881027,"click_time":1551892881795,"finger_time":1551892881474,"fix_duration":351.73521721898425,"trial":38,"RT":447,"MT":321,"sideResp":1,"stimulus":"img/900/randomdotsizeEA/R/11_Ratio_900_L_18_R_20.png","xmouse":[775,775,775,775,775,775,775,775,775,775,775,775,775,775,775,775,775,775,775,775,773,750,682,583,576,574,572,572,568,564,559,553,547,528,518,506,495,489,488],"ymouse":[645,645,645,645,645,645,645,645,645,645,645,645,645,645,645,645,645,645,645,645,634,594,501,350,330,316,305,294,276,269,265,259,252,214,196,171,148,127,99],"timestamp_mouse":[10,32,47,67,87,109,129,148,168,187,209,228,249,267,287,308,328,348,367,387,408,428,447,468,487,508,528,548,568,587,608,629,649,668,687,708,728,748,768],"xSR":741.5,"ySR":573.95,"xT1":424.9,"yT1":0,"xT2":1058.1,"yT2":0,"toosoon":0,"cond_shown":"randomdotsizeEA","ratio_trial":900,"smaller_num":"18","larger_num":"20","correct_side":2,"subjID":"angelasantamaria.14","gender":"1","age":"10","school":"6"},{"start_time":1551892889154,"click_time":1551892889739,"finger_time":1551892889557,"fix_duration":535.0590856173405,"trial":39,"RT":403,"MT":182,"sideResp":1,"stimulus":"img/900/equaldotsize/L/10_Ratio_900_L_20_R_18.png","xmouse":[789,789,789,789,789,789,789,789,789,789,789,789,789,789,789,789,789,788,785,778,758,736,706,697,682,662,639,570,540,524],"ymouse":[641,641,641,641,641,641,641,641,641,641,641,641,641,641,641,641,641,641,620,594,564,524,433,402,367,321,265,143,92,63],"timestamp_mouse":[11,24,43,63,84,103,123,143,163,184,205,223,244,263,285,303,323,343,363,383,403,425,444,463,483,503,523,544,564,585],"xSR":741.5,"ySR":573.95,"xT1":424.9,"yT1":0,"xT2":1058.1,"yT2":0,"toosoon":0,"cond_shown":"equaldotsize","ratio_trial":900,"smaller_num":"18","larger_num":"20","correct_side":1,"subjID":"angelasantamaria.14","gender":"1","age":"10","school":"6"},{"start_time":1551892890929,"click_time":1551892896517,"finger_time":1551892894017,"fix_duration":250,"trial":40,"RT":3088,"MT":2500,"sideResp":1,"stimulus":"img/750/equaldotsize/R/2_Ratio_750_L_6_R_8.png","xmouse":[755,755,755,755,755,755,755,755,755,755,755,755,755,755,755,755,755,755,755,755,755,755,755,755,755,755,755,755,755,755,755,755,755,755,755,755,755,755,755,755,755,755,755,755,755,755,755,755,755,755,755,755,755,755,755,755,755,755,755,755,755,755,755,755,755,755,755,755,755,755,755,755,755,755,755,755,755,755,755,755,755,755,755,755,755,755,755,755,755,755,755,755,755,755,755,755,755,755,755,755,755,755,755,755,755,755,755,755,755,755,755,755,755,755,756,757,758,761,763,763,763,763,763,763,763,763,761,761,761,761,761,761,761,761,761,761,761,761,761,760,759,757,755,754,754,754,754,754,754,754,754,754,754,754,754,751,742,732,729,731,732,732,733,736,739,742,745,749,757,776,791,796,801,807,811,814,818,819,820,820,820,820,820,820,820,820,820,820,820,820,820,820,820,820,820,820,820,820,820,820,827,848,870,902,905,905,905,905,905,905,905,905,905,905,905,905,905,905,905,905,905,905,905,905,905,905,905,905,905,905,905,905,905,905,905,905,905,905,905,904,902,900,899,898,897,897,897,896,896,896,896,896,896,895,892,889,887,886,884,883,881,876,868,834,811,785,751,742,687,664,649,641,636,634,631,621,606,579,525,514],"ymouse":[628,628,628,628,628,628,628,628,628,628,628,628,628,628,628,628,628,628,628,628,628,628,628,628,628,628,628,628,628,628,628,628,628,628,628,628,628,628,628,628,628,628,628,628,628,628,628,628,628,628,628,628,628,628,628,628,628,628,628,628,628,628,628,628,628,628,628,628,628,628,628,628,628,628,628,628,628,628,628,628,628,628,628,628,628,628,628,628,628,628,628,628,628,628,628,628,628,628,628,628,628,628,628,628,628,628,628,628,628,628,628,628,628,628,632,633,633,633,633,633,633,633,633,633,642,649,654,655,655,655,655,655,655,655,655,655,656,658,659,662,662,663,664,665,665,665,665,665,665,665,665,666,666,671,677,682,686,692,701,703,703,703,703,704,706,709,711,716,722,725,735,740,744,746,749,749,753,754,754,754,754,754,754,754,754,754,754,754,754,754,754,754,754,754,754,754,754,754,754,754,754,768,786,811,814,814,814,814,814,814,814,814,814,814,814,814,814,814,814,814,814,814,814,814,814,814,814,814,814,814,814,814,814,814,814,814,814,814,815,817,818,820,820,821,821,821,822,823,823,823,823,823,823,823,825,827,829,830,830,830,816,785,728,593,527,465,402,386,280,251,232,221,213,211,206,195,177,146,62,43],"timestamp_mouse":[8,28,49,69,89,108,129,148,170,188,209,228,248,268,290,309,328,350,368,389,410,430,449,469,490,508,529,550,568,588,609,628,649,669,688,709,729,750,769,789,810,829,848,869,889,908,928,949,968,988,1009,1028,1048,1070,1088,1109,1128,1150,1168,1190,1210,1229,1249,1268,1289,1310,1329,1349,1370,1388,1409,1428,1448,1468,1490,1509,1530,1548,1568,1589,1609,1629,1650,1668,1689,1709,1729,1749,1769,1788,1809,1830,1848,1868,1890,1910,1929,1948,1968,1989,2010,2028,2049,2069,2088,2108,2129,2148,2169,2189,2208,2229,2249,2268,2288,2309,2330,2348,2368,2389,2410,2428,2449,2468,2489,2510,2528,2549,2569,2590,2608,2629,2648,2670,2688,2708,2728,2749,2769,2788,2808,2830,2850,2869,2889,2908,2929,2949,2970,2988,3009,3029,3049,3069,3088,3108,3128,3149,3169,3188,3209,3229,3249,3268,3290,3310,3330,3349,3368,3389,3409,3428,3448,3468,3490,3508,3529,3549,3569,3588,3608,3629,3649,3668,3688,3708,3728,3749,3770,3788,3808,3830,3848,3868,3888,3908,3928,3948,3969,3989,4009,4028,4048,4068,4088,4109,4128,4148,4168,4189,4210,4229,4248,4268,4288,4309,4328,4349,4370,4388,4408,4429,4449,4468,4489,4508,4528,4549,4569,4589,4608,4628,4648,4670,4688,4709,4728,4749,4769,4789,4808,4829,4849,4869,4889,4909,4928,4949,4968,4988,5008,5028,5049,5068,5088,5108,5129,5150,5170,5189,5209,5228,5250,5268,5288,5309,5329,5348,5369,5389,5408,5428,5449,5469,5488,5509,5528,5548,5569,5588],"xSR":741.5,"ySR":573.95,"xT1":424.9,"yT1":0,"xT2":1058.1,"yT2":0,"toosoon":0,"cond_shown":"equaldotsize","ratio_trial":750,"smaller_num":"6","larger_num":"8","correct_side":2,"subjID":"angelasantamaria.14","gender":"1","age":"10","school":"6"},{"start_time":1551892898069,"click_time":1551892898498,"finger_time":1551892898438,"fix_duration":250,"trial":41,"RT":369,"MT":60,"sideResp":1,"stimulus":"img/250/equaldotsize/L/5_Ratio_250_L_24_R_6.png","xmouse":[781,781,781,781,781,781,781,781,781,781,781,781,781,781,781,781,781,781,759,709,613,498],"ymouse":[652,652,652,652,652,652,652,652,652,652,652,652,652,652,652,652,652,639,545,427,235,38],"timestamp_mouse":[10,34,48,68,90,108,128,148,168,190,208,228,248,269,288,309,330,349,369,389,408,429],"xSR":741.5,"ySR":573.95,"xT1":424.9,"yT1":0,"xT2":1058.1,"yT2":0,"toosoon":0,"cond_shown":"equaldotsize","ratio_trial":250,"smaller_num":"6","larger_num":"24","correct_side":1,"subjID":"angelasantamaria.14","gender":"1","age":"10","school":"6"},{"start_time":1551892901449,"click_time":1551892902757,"finger_time":1551892901918,"fix_duration":250,"trial":42,"RT":469,"MT":839,"sideResp":1,"stimulus":"img/750/equaldotanddens/R/3_Ratio_750_L_15_R_20.png","xmouse":[749,749,749,749,749,749,749,749,749,749,749,749,749,749,749,749,749,749,749,749,749,749,750,735,703,659,597,504,487,486,486,486,486,486,486,486,486,486,486,486,486,486,486,486,486,486,486,486,486,486,486,486,486,486,486,486,486,486,486,486,486,486,486,486,486,485],"ymouse":[613,613,613,613,613,613,613,613,613,613,613,613,613,613,613,613,613,613,613,613,613,613,598,546,463,333,198,0,0,0,0,0,0,0,0,0,0,0,0,0,0,0,0,0,0,0,0,0,0,0,0,0,0,0,0,0,0,0,0,0,0,0,0,0,0,1],"timestamp_mouse":[10,31,49,70,88,108,129,149,168,190,208,228,248,269,288,309,329,349,370,388,408,429,448,469,489,509,530,550,569,588,609,629,649,669,689,708,729,748,768,788,809,828,848,869,890,910,929,948,969,990,1010,1029,1048,1069,1089,1109,1129,1149,1168,1188,1208,1229,1250,1268,1289,1308],"xSR":741.5,"ySR":573.95,"xT1":424.9,"yT1":0,"xT2":1058.1,"yT2":0,"toosoon":0,"cond_shown":"equaldotanddens","ratio_trial":750,"smaller_num":"15","larger_num":"20","correct_side":2,"subjID":"angelasantamaria.14","gender":"1","age":"10","school":"6"},{"start_time":1551892905769,"click_time":1551892906378,"finger_time":1551892906218,"fix_duration":250,"trial":43,"RT":449,"MT":160,"sideResp":1,"stimulus":"img/250/equaldotsize/L/2_Ratio_250_L_16_R_4.png","xmouse":[795,795,795,795,795,795,795,795,795,795,795,795,795,795,795,795,795,795,795,795,795,795,786,752,712,689,665,610,581,547,507],"ymouse":[644,644,644,644,644,644,644,644,644,644,644,644,644,644,644,644,644,644,644,644,644,644,566,465,382,345,309,225,174,108,39],"timestamp_mouse":[8,42,48,68,89,110,129,148,170,189,210,229,248,269,289,308,330,349,368,388,409,429,449,468,488,510,528,548,568,589,608],"xSR":741.5,"ySR":573.95,"xT1":424.9,"yT1":0,"xT2":1058.1,"yT2":0,"toosoon":0,"cond_shown":"equaldotsize","ratio_trial":250,"smaller_num":"4","larger_num":"16","correct_side":1,"subjID":"angelasantamaria.14","gender":"1","age":"10","school":"6"},{"start_time":1551892907853,"click_time":1551892908577,"finger_time":1551892908217,"fix_duration":533.0480693164842,"trial":44,"RT":364,"MT":360,"sideResp":1,"stimulus":"img/500/equaldotanddens/R/15_Ratio_500_L_1_R_2.png","xmouse":[755,755,755,755,755,755,755,755,755,755,755,755,755,755,755,755,755,755,729,696,625,548,543,547,549,549,549,549,549,549,549,549,549,549,546,536,522],"ymouse":[596,596,596,596,596,596,596,596,596,596,596,596,596,596,596,596,596,596,514,437,268,61,1,0,0,0,0,0,0,0,0,0,0,0,1,4,6],"timestamp_mouse":[20,25,45,64,86,105,125,145,164,185,204,224,245,264,284,304,326,345,364,384,406,426,445,465,484,505,524,545,565,586,605,624,644,665,685,704,724],"xSR":741.5,"ySR":573.95,"xT1":424.9,"yT1":0,"xT2":1058.1,"yT2":0,"toosoon":0,"cond_shown":"equaldotanddens","ratio_trial":500,"smaller_num":"1","larger_num":"2","correct_side":2,"subjID":"angelasantamaria.14","gender":"1","age":"10","school":"6"},{"start_time":1551892909830,"click_time":1551892910697,"finger_time":1551892909897,"fix_duration":250,"trial":45,"RT":67,"MT":800,"sideResp":1,"stimulus":"img/500/randomdotsizeEA/L/4_Ratio_500_L_18_R_9.png","xmouse":[773,773,773,766,766,766,766,766,766,766,766,766,766,766,766,766,766,766,766,735,699,662,646,639,637,632,627,620,585,567,551,537,530,529,527,514,490,466,447,447,447,447,446,439],"ymouse":[578,578,578,569,569,569,569,569,569,569,569,569,569,569,569,569,569,569,569,503,414,328,273,234,223,210,192,168,87,45,7,0,0,0,0,0,0,0,0,0,0,0,0,5],"timestamp_mouse":[7,34,48,67,87,107,128,148,169,187,207,228,247,268,288,307,329,349,367,387,407,428,447,467,488,507,528,547,568,587,608,628,649,667,688,707,728,748,768,788,808,828,847,867],"xSR":741.5,"ySR":573.95,"xT1":424.9,"yT1":0,"xT2":1058.1,"yT2":0,"toosoon":0,"cond_shown":"randomdotsizeEA","ratio_trial":500,"smaller_num":"9","larger_num":"18","correct_side":1,"subjID":"angelasantamaria.14","gender":"1","age":"10","school":"6"},{"start_time":1551892911984,"click_time":1551892913078,"finger_time":1551892912299,"fix_duration":625.3318489772693,"trial":46,"RT":315,"MT":779,"sideResp":1,"stimulus":"img/900/equaldotsize/L/2_Ratio_900_L_20_R_18.png","xmouse":[800,800,800,800,800,800,800,800,800,800,800,800,796,792,780,762,750,741,735,732,731,728,721,710,695,684,682,680,674,663,641,634,631,625,609,581,571,563,559,555,548,541,535,533,533,533,533,533,533,533,533,533,533,527,513],"ymouse":[642,642,642,642,642,642,642,642,642,642,642,642,632,624,588,524,487,452,423,400,356,328,301,276,243,218,212,207,194,173,136,125,119,110,92,61,49,38,30,24,13,4,0,0,0,0,0,0,0,0,0,0,0,0,6],"timestamp_mouse":[17,34,55,73,93,113,135,154,174,193,214,233,254,273,293,315,333,353,374,393,413,434,453,474,494,514,533,553,575,594,613,633,654,674,693,714,733,754,773,793,813,834,854,873,894,913,934,953,973,994,1015,1033,1055,1074,1094],"xSR":741.5,"ySR":573.95,"xT1":424.9,"yT1":0,"xT2":1058.1,"yT2":0,"toosoon":0,"cond_shown":"equaldotsize","ratio_trial":900,"smaller_num":"18","larger_num":"20","correct_side":1,"subjID":"angelasantamaria.14","gender":"1","age":"10","school":"6"},{"start_time":1551892919970,"click_time":1551892923098,"finger_time":1551892920498,"fix_duration":1070.7830385607779,"trial":47,"RT":528,"MT":2600,"sideResp":1,"stimulus":"img/500/equaldotanddens/L/5_Ratio_500_L_4_R_2.png","xmouse":[773,773,773,773,774,774,774,774,774,774,774,774,774,774,774,777,778,783,784,784,784,784,784,784,784,784,781,774,762,745,725,698,690,682,673,648,623,586,575,568,565,564,564,563,561,557,556,556,556,556,556,556,556,556,556,556,556,556,556,556,556,556,556,556,556,556,556,556,558,558,559,559,559,559,560,560,560,560,559,558,558,558,558,548,522,406,314,227,217,217,217,217,218,222,237,320,390,455,456,456,456,468,489,507,518,532,544,546,546,545,544,543,543,543,542,541,538,537,537,537,537,556,574,586,593,596,611,612,612,612,612,612,612,612,612,612,612,612,612,612,612,612,612,612,612,607,586,577,568,556,544,532,531,530,530,530,500],"ymouse":[589,589,589,589,589,589,589,589,589,589,589,589,589,589,589,588,587,583,582,582,582,582,582,582,582,580,557,532,501,469,439,401,387,372,350,291,246,170,151,140,136,135,135,135,135,135,135,135,135,135,135,135,135,135,135,135,135,135,135,135,135,135,135,135,135,135,135,135,134,133,132,132,132,132,132,132,132,132,133,134,134,134,135,143,171,283,345,342,341,341,341,341,341,341,347,383,411,437,437,437,437,426,410,398,387,373,363,357,350,345,340,339,337,337,335,334,303,254,173,70,0,0,0,0,0,0,0,0,0,0,0,0,0,0,0,0,0,0,0,0,0,0,0,0,0,0,0,0,0,3,10,17,17,18,18,18,35],"timestamp_mouse":[9,34,48,69,88,107,127,149,167,187,209,227,248,267,287,309,328,347,367,387,407,428,448,467,487,508,528,547,567,588,607,627,648,667,687,707,727,749,769,788,807,828,848,867,888,908,928,948,967,989,1007,1028,1047,1067,1088,1107,1128,1148,1167,1187,1208,1227,1247,1269,1288,1307,1327,1347,1367,1387,1408,1427,1448,1468,1488,1507,1527,1548,1568,1587,1608,1627,1647,1668,1689,1707,1727,1747,1768,1788,1808,1827,1847,1868,1889,1909,1927,1948,1967,1988,2009,2027,2049,2067,2087,2109,2127,2149,2168,2189,2208,2227,2247,2267,2287,2307,2328,2347,2367,2389,2409,2428,2447,2467,2488,2508,2528,2547,2567,2587,2608,2628,2647,2667,2687,2708,2728,2748,2767,2788,2807,2827,2847,2867,2888,2908,2928,2948,2967,2987,3008,3027,3047,3068,3087,3107,3127],"xSR":741.5,"ySR":573.95,"xT1":424.9,"yT1":0,"xT2":1058.1,"yT2":0,"toosoon":0,"cond_shown":"equaldotanddens","ratio_trial":500,"smaller_num":"2","larger_num":"4","correct_side":1,"subjID":"angelasantamaria.14","gender":"1","age":"10","school":"6"},{"start_time":1551892933109,"click_time":1551892934077,"finger_time":1551892933717,"fix_duration":710.7695899635763,"trial":48,"RT":608,"MT":360,"sideResp":1,"stimulus":"img/750/randomdotsizeEA/L/14_Ratio_750_L_8_R_6.png","xmouse":[743,743,743,743,743,743,743,743,743,743,743,743,743,743,743,743,743,743,743,743,743,743,743,743,743,743,743,743,743,743,739,684,602,544,519,514,518,523,529,540,545,548,550,550,551,551,549,526,449],"ymouse":[643,643,643,643,643,643,643,643,643,643,643,643,643,643,643,643,643,643,643,643,643,643,643,643,643,643,643,643,643,643,640,551,437,346,291,240,230,225,217,202,198,195,192,191,187,182,170,142,42],"timestamp_mouse":[10,36,50,68,88,108,128,148,168,189,208,228,250,270,289,308,328,349,368,388,409,429,450,469,488,508,529,548,570,588,608,629,649,669,688,708,729,748,769,789,810,829,850,869,888,908,928,949,968],"xSR":741.5,"ySR":573.95,"xT1":424.9,"yT1":0,"xT2":1058.1,"yT2":0,"toosoon":0,"cond_shown":"randomdotsizeEA","ratio_trial":750,"smaller_num":"6","larger_num":"8","correct_side":1,"subjID":"angelasantamaria.14","gender":"1","age":"10","school":"6"},{"start_time":1551892937905,"click_time":1551892944599,"finger_time":1551892943640,"fix_duration":1007.8928832641193,"trial":49,"RT":5735,"MT":959,"sideResp":1,"stimulus":"img/500/randomdotsizeEA/R/15_Ratio_500_L_1_R_2.png","xmouse":[765,765,765,765,765,765,765,765,765,765,765,765,765,765,765,765,765,765,765,765,765,765,765,765,765,765,765,765,765,765,765,765,765,765,765,765,765,765,765,765,765,765,765,765,765,765,765,765,765,765,765,765,765,765,765,765,765,765,765,765,765,765,765,765,765,765,765,765,765,765,765,765,765,765,765,765,765,765,765,765,765,765,765,765,765,765,765,765,765,765,765,765,765,765,765,765,765,765,765,765,765,765,765,765,765,765,765,765,765,765,765,765,765,765,765,765,765,765,765,765,765,765,765,765,765,765,765,765,765,765,765,765,765,765,765,765,765,765,765,765,765,765,765,765,765,765,765,765,765,765,765,765,765,765,765,765,765,765,765,765,765,765,765,765,765,765,765,765,765,765,765,765,765,765,765,765,765,765,765,765,765,765,765,765,765,765,765,765,765,765,765,765,765,765,765,765,765,765,765,765,765,765,765,765,765,765,765,765,765,765,765,765,765,765,765,765,765,765,765,765,765,765,765,765,765,765,765,765,765,765,765,765,765,765,765,765,765,765,765,765,765,765,765,765,765,765,765,765,765,765,765,765,765,765,765,765,765,765,765,765,765,765,765,765,775,784,789,793,796,800,800,800,800,800,800,800,800,800,798,791,787,787,787,787,786,773,756,744,732,694,674,662,659,652,515,376,228,98,33,55,69,69,69,69,71,84,107,130,165,178,181,182,184,188,191,205,217,258,298,522,557,561,561,558,526,512,506,504,504,504,504,503,500,494,483],"ymouse":[662,662,662,662,662,662,662,662,662,662,662,662,662,662,662,662,662,662,662,662,662,662,662,662,662,662,662,662,662,662,662,662,662,662,662,662,662,662,662,662,662,662,662,662,662,662,662,662,662,662,662,662,662,662,662,662,662,662,662,662,662,662,662,662,662,662,662,662,662,662,662,662,662,662,662,662,662,662,662,662,662,662,662,662,662,662,662,662,662,662,662,662,662,662,662,662,662,662,662,662,662,662,662,662,662,662,662,662,662,662,662,662,662,662,662,662,662,662,662,662,662,662,662,662,662,662,662,662,662,662,662,662,662,662,662,662,662,662,662,662,662,662,662,662,662,662,662,662,662,662,662,662,662,662,662,662,662,662,662,662,662,662,662,662,662,662,662,662,662,662,662,662,662,662,662,662,662,662,662,662,662,662,662,662,662,662,662,662,662,662,662,662,662,662,662,662,662,662,662,662,662,662,662,662,662,662,662,662,662,662,662,662,662,662,662,662,662,662,662,662,662,662,662,662,662,662,662,662,662,662,662,662,662,662,662,662,662,662,662,662,662,662,662,662,662,662,662,662,662,662,662,662,662,662,662,662,662,662,662,662,662,662,662,662,645,627,610,589,580,576,576,576,576,576,576,576,576,576,576,580,585,585,585,585,586,582,554,539,525,489,480,477,477,470,296,127,0,0,0,0,0,0,0,0,0,0,0,0,0,0,0,0,0,0,0,0,0,0,0,0,0,0,0,0,0,0,0,0,0,0,0,0,0,0,2],"timestamp_mouse":[14,50,52,73,92,112,133,152,172,193,212,233,252,272,294,313,334,352,374,392,414,432,452,473,492,513,533,552,574,592,612,633,652,672,693,712,734,753,772,793,813,832,852,873,894,913,933,952,973,992,1012,1033,1052,1072,1092,1113,1132,1152,1174,1194,1213,1234,1252,1274,1293,1312,1333,1354,1372,1393,1412,1432,1452,1473,1492,1514,1533,1553,1572,1592,1612,1632,1652,1672,1692,1712,1734,1753,1772,1792,1814,1832,1853,1873,1892,1912,1932,1953,1972,1992,2012,2033,2053,2074,2093,2112,2133,2153,2172,2193,2212,2232,2253,2272,2293,2314,2332,2354,2372,2394,2413,2432,2453,2472,2492,2512,2533,2552,2572,2592,2613,2634,2653,2672,2693,2713,2733,2752,2772,2792,2812,2833,2853,2872,2894,2913,2934,2954,2973,2992,3013,3033,3053,3074,3093,3112,3133,3154,3173,3193,3213,3232,3253,3273,3294,3313,3333,3354,3373,3392,3414,3433,3454,3472,3493,3512,3533,3552,3573,3592,3612,3632,3652,3672,3692,3714,3733,3753,3772,3794,3814,3832,3853,3872,3893,3913,3932,3953,3974,3994,4012,4033,4054,4073,4092,4114,4133,4152,4173,4192,4212,4233,4252,4274,4292,4312,4333,4352,4373,4393,4413,4432,4453,4473,4492,4512,4534,4553,4573,4593,4612,4633,4654,4673,4695,4715,4735,4754,4775,4794,4815,4834,4853,4873,4895,4915,4934,4955,4975,4994,5014,5033,5055,5075,5093,5114,5134,5155,5174,5193,5214,5234,5253,5274,5294,5313,5334,5354,5374,5394,5413,5434,5454,5473,5495,5515,5534,5553,5574,5593,5614,5633,5655,5674,5694,5714,5735,5755,5773,5793,5814,5834,5854,5874,5893,5913,5934,5955,5975,5994,6019,6033,6055,6074,6093,6114,6134,6154,6173,6193,6213,6234,6255,6275,6294,6314,6334,6353,6373,6393,6414,6434,6455,6475,6494,6515,6535,6555,6575,6594,6614,6634,6654,6675,6694],"xSR":741.5,"ySR":573.95,"xT1":424.9,"yT1":0,"xT2":1058.1,"yT2":0,"toosoon":0,"cond_shown":"randomdotsizeEA","ratio_trial":500,"smaller_num":"1","larger_num":"2","correct_side":2,"subjID":"angelasantamaria.14","gender":"1","age":"10","school":"6"},{"start_time":1551892947188,"click_time":1551892947539,"finger_time":1551892947478,"fix_duration":946.3400816779227,"trial":50,"RT":290,"MT":61,"sideResp":1,"stimulus":"img/500/randomdotsizeEA/R/12_Ratio_500_L_1_R_2.png","xmouse":[764,764,764,764,764,764,764,764,764,764,764,764,764,764,747,614,553,494],"ymouse":[629,629,629,629,629,629,629,629,629,629,629,629,629,615,566,240,120,33],"timestamp_mouse":[11,40,50,71,90,110,132,151,172,190,212,231,250,272,290,311,332,351],"xSR":741.5,"ySR":573.95,"xT1":424.9,"yT1":0,"xT2":1058.1,"yT2":0,"toosoon":0,"cond_shown":"randomdotsizeEA","ratio_trial":500,"smaller_num":"1","larger_num":"2","correct_side":2,"subjID":"angelasantamaria.14","gender":"1","age":"10","school":"6"},{"start_time":1551892950961,"click_time":1551892951919,"finger_time":1551892951119,"fix_duration":879.0436877381866,"trial":51,"RT":158,"MT":800,"sideResp":1,"stimulus":"img/500/equaldotsize/L/10_Ratio_500_L_4_R_2.png","xmouse":[759,758,752,749,746,744,742,741,740,738,735,734,732,728,726,726,726,726,726,726,726,736,736,734,726,707,665,635,608,588,577,574,574,574,574,574,573,560,541,517,497,466,457,454,454,454,453,453],"ymouse":[606,605,602,600,597,596,596,596,596,596,596,596,596,597,598,598,598,598,598,598,599,610,611,603,575,470,295,213,141,92,61,47,46,46,46,46,38,25,8,0,0,0,0,0,0,0,0,7],"timestamp_mouse":[21,50,57,79,98,118,139,158,178,198,218,238,258,278,299,319,338,358,378,398,419,438,458,477,499,518,538,557,578,598,619,637,658,678,698,719,738,757,778,798,818,837,859,878,898,919,938,958],"xSR":741.5,"ySR":573.95,"xT1":424.9,"yT1":0,"xT2":1058.1,"yT2":0,"toosoon":0,"cond_shown":"equaldotsize","ratio_trial":500,"smaller_num":"2","larger_num":"4","correct_side":1,"subjID":"angelasantamaria.14","gender":"1","age":"10","school":"6"},{"start_time":1551892963111,"click_time":1551892964218,"finger_time":1551892963759,"fix_duration":250,"trial":52,"RT":648,"MT":459,"sideResp":1,"stimulus":"img/900/equaldotanddens/R/7_Ratio_900_L_9_R_10.png","xmouse":[834,834,829,828,824,821,820,819,819,819,819,819,819,819,819,819,819,819,819,819,819,819,819,818,817,816,815,814,812,800,785,763,741,720,689,681,675,668,656,634,634,634,624,600,553,547,546,543,534,504,489,478,473,471,469,461],"ymouse":[648,648,649,650,652,654,655,656,656,656,656,656,656,656,656,656,656,656,656,656,656,656,656,656,651,645,643,642,640,629,614,592,571,557,519,504,492,475,448,355,330,290,227,166,60,35,18,3,0,0,0,0,0,0,0,5],"timestamp_mouse":[10,35,49,69,87,107,128,148,169,189,208,228,249,268,288,308,328,348,369,387,407,429,448,467,489,509,529,547,569,587,607,628,648,667,687,708,728,748,768,788,807,828,848,868,888,909,928,948,968,988,1007,1028,1047,1068,1088,1107],"xSR":741.5,"ySR":573.95,"xT1":424.9,"yT1":0,"xT2":1058.1,"yT2":0,"toosoon":0,"cond_shown":"equaldotanddens","ratio_trial":900,"smaller_num":"9","larger_num":"10","correct_side":2,"subjID":"angelasantamaria.14","gender":"1","age":"10","school":"6"},{"start_time":1551892965350,"click_time":1551892966220,"finger_time":1551892965799,"fix_duration":250,"trial":53,"RT":449,"MT":421,"sideResp":1,"stimulus":"img/250/equaldotanddens/L/5_Ratio_250_L_24_R_6.png","xmouse":[789,789,789,789,789,789,789,789,789,789,789,789,789,789,789,789,789,789,789,789,790,794,788,770,741,693,604,600,600,600,600,597,590,587,587,587,576,565,556,543,534,528,523],"ymouse":[634,634,634,634,634,634,634,634,634,634,634,634,634,634,634,634,634,634,634,634,630,568,485,360,187,22,0,0,0,0,0,0,0,0,0,0,3,8,13,19,24,26,28],"timestamp_mouse":[10,52,70,88,110,130,149,170,189,210,228,248,268,288,308,328,348,368,389,409,428,449,470,489,509,528,549,569,589,610,630,648,669,689,709,729,750,768,789,808,828,849,870],"xSR":741.5,"ySR":573.95,"xT1":424.9,"yT1":0,"xT2":1058.1,"yT2":0,"toosoon":0,"cond_shown":"equaldotanddens","ratio_trial":250,"smaller_num":"6","larger_num":"24","correct_side":1,"subjID":"angelasantamaria.14","gender":"1","age":"10","school":"6"},{"start_time":1551892967604,"click_time":1551892968478,"finger_time":1551892968039,"fix_duration":523.7782480714146,"trial":54,"RT":435,"MT":439,"sideResp":1,"stimulus":"img/750/equaldotsize/L/10_Ratio_750_L_4_R_3.png","xmouse":[778,778,778,778,778,778,778,778,778,778,778,778,778,778,778,778,778,778,778,778,773,755,727,693,597,570,557,551,551,547,547,547,545,544,541,540,540,537,536,532,531,529,525,521],"ymouse":[620,620,620,620,620,620,620,620,620,620,620,620,620,620,620,620,620,620,620,620,606,560,493,425,242,197,170,152,141,117,108,97,83,71,54,51,47,42,35,26,21,17,12,9],"timestamp_mouse":[17,36,55,76,96,115,135,156,174,196,215,234,255,276,296,315,334,354,375,395,416,435,456,476,495,515,534,555,576,596,616,635,655,676,695,715,736,755,774,794,814,835,856,874],"xSR":741.5,"ySR":573.95,"xT1":424.9,"yT1":0,"xT2":1058.1,"yT2":0,"toosoon":0,"cond_shown":"equaldotsize","ratio_trial":750,"smaller_num":"3","larger_num":"4","correct_side":1,"subjID":"angelasantamaria.14","gender":"1","age":"10","school":"6"},{"start_time":1551892970364,"click_time":1551892971459,"finger_time":1551892971040,"fix_duration":1084.7325272381738,"trial":55,"RT":676,"MT":419,"sideResp":1,"stimulus":"img/250/equaldotsize/R/8_Ratio_250_L_1_R_4.png","xmouse":[803,803,803,803,803,803,803,803,803,803,803,803,803,803,803,803,803,803,803,803,803,803,803,803,803,803,803,803,803,803,803,803,791,780,750,716,683,676,673,670,669,653,639,622,609,600,582,572,563,552,547,537,535,530,524],"ymouse":[629,629,629,629,629,629,629,629,629,629,629,629,629,629,629,629,629,629,629,629,629,629,629,629,629,629,629,629,629,629,629,629,583,542,434,232,77,56,49,46,45,39,35,30,28,27,33,41,48,56,60,67,68,69,69],"timestamp_mouse":[21,51,55,76,95,116,134,156,176,196,215,235,255,275,296,315,335,356,376,395,416,435,454,475,496,514,536,554,575,596,614,636,655,676,695,715,734,754,775,796,816,835,856,875,894,914,935,955,975,994,1015,1035,1056,1076,1095],"xSR":741.5,"ySR":573.95,"xT1":424.9,"yT1":0,"xT2":1058.1,"yT2":0,"toosoon":0,"cond_shown":"equaldotsize","ratio_trial":250,"smaller_num":"1","larger_num":"4","correct_side":2,"subjID":"angelasantamaria.14","gender":"1","age":"10","school":"6"},{"start_time":1551892973477,"click_time":1551892974379,"finger_time":1551892974079,"fix_duration":1116.5815062109039,"trial":56,"RT":602,"MT":300,"sideResp":1,"stimulus":"img/750/equaldotsize/L/1_Ratio_750_L_20_R_15.png","xmouse":[781,781,781,781,781,781,781,781,781,781,781,781,781,781,781,781,781,781,781,781,781,781,781,781,781,781,781,781,781,778,769,705,674,642,615,594,577,575,574,574,574,574,574,562,545,524],"ymouse":[615,615,615,615,615,615,615,615,615,615,615,615,615,615,615,615,615,615,615,615,615,615,615,615,615,615,615,615,609,599,572,418,340,234,142,86,66,65,64,64,64,64,64,64,64,64],"timestamp_mouse":[9,21,42,62,81,102,121,141,163,182,201,222,242,261,283,302,321,342,362,382,403,421,442,463,481,502,523,541,561,583,602,621,643,662,682,702,722,743,761,782,802,823,842,862,883,902],"xSR":741.5,"ySR":573.95,"xT1":424.9,"yT1":0,"xT2":1058.1,"yT2":0,"toosoon":0,"cond_shown":"equaldotsize","ratio_trial":750,"smaller_num":"15","larger_num":"20","correct_side":1,"subjID":"angelasantamaria.14","gender":"1","age":"10","school":"6"},{"start_time":1551892977787,"click_time":1551892978739,"finger_time":1551892978380,"fix_duration":567.54709829973,"trial":57,"RT":593,"MT":359,"sideResp":1,"stimulus":"img/750/equaldotsize/R/5_Ratio_750_L_15_R_20.png","xmouse":[808,808,808,808,808,808,808,808,808,808,808,808,808,808,808,808,808,808,808,808,808,808,808,808,808,808,808,807,803,788,733,686,640,589,551,521,520,519,517,516,516,516,516,516,516,510,504,497],"ymouse":[609,609,609,609,609,609,609,609,609,609,609,609,609,609,609,609,609,609,609,609,609,609,609,609,609,609,609,605,587,538,404,311,219,128,59,0,0,0,0,0,0,0,0,0,0,0,0,3],"timestamp_mouse":[11,46,51,73,93,112,133,153,172,192,212,231,252,271,292,311,332,351,372,392,413,432,452,473,492,512,533,551,573,593,611,632,652,673,691,712,731,751,772,792,813,832,852,873,892,911,931,951],"xSR":741.5,"ySR":573.95,"xT1":424.9,"yT1":0,"xT2":1058.1,"yT2":0,"toosoon":0,"cond_shown":"equaldotsize","ratio_trial":750,"smaller_num":"15","larger_num":"20","correct_side":2,"subjID":"angelasantamaria.14","gender":"1","age":"10","school":"6"},{"start_time":1551892982891,"click_time":1551892984679,"finger_time":1551892984018,"fix_duration":1010.3980555477921,"trial":58,"RT":1127,"MT":661,"sideResp":1,"stimulus":"img/900/equaldotsize/R/13_Ratio_900_L_18_R_20.png","xmouse":[814,814,814,814,814,814,814,814,814,814,814,814,814,814,814,814,814,814,814,814,814,814,814,814,814,814,814,814,814,814,814,814,814,814,814,814,814,814,814,814,814,814,814,814,814,814,814,814,814,814,814,814,814,814,814,787,701,616,540,520,515,515,522,533,550,570,572,572,572,572,572,561,543,528,520,515,515,515,518,522,525,526,526,526,526,526,526,526,526,520],"ymouse":[606,606,606,606,606,606,606,606,606,606,606,606,606,606,606,606,606,606,606,606,606,606,606,606,606,606,606,606,606,606,606,606,606,606,606,606,606,606,606,606,606,606,606,606,606,606,606,606,606,606,606,606,606,606,606,590,537,474,394,350,302,299,293,286,276,264,262,262,262,262,255,233,200,172,154,134,131,126,118,112,104,102,101,101,101,101,101,101,98,91],"timestamp_mouse":[10,38,47,68,89,108,127,149,168,188,209,227,247,267,287,307,327,348,367,387,408,427,449,469,487,507,529,548,569,588,608,627,648,668,687,708,730,748,769,787,808,827,848,868,887,908,928,948,968,988,1007,1029,1049,1068,1088,1107,1127,1149,1169,1188,1208,1227,1248,1268,1289,1308,1328,1348,1368,1387,1408,1429,1447,1468,1488,1508,1527,1548,1569,1588,1608,1627,1648,1668,1687,1707,1728,1748,1768,1788],"xSR":741.5,"ySR":573.95,"xT1":424.9,"yT1":0,"xT2":1058.1,"yT2":0,"toosoon":0,"cond_shown":"equaldotsize","ratio_trial":900,"smaller_num":"18","larger_num":"20","correct_side":2,"subjID":"angelasantamaria.14","gender":"1","age":"10","school":"6"},{"start_time":1551892986830,"click_time":1551892987699,"finger_time":1551892987339,"fix_duration":349.42137570319096,"trial":59,"RT":509,"MT":360,"sideResp":1,"stimulus":"img/500/equaldotanddens/L/11_Ratio_500_L_12_R_6.png","xmouse":[800,800,800,800,800,800,800,800,800,800,800,800,800,800,800,800,800,800,800,800,800,800,800,799,799,783,761,737,701,690,682,676,670,668,668,668,666,655,628,608,585,560,540,509],"ymouse":[654,654,654,654,654,654,654,654,654,654,654,654,654,654,654,654,654,654,654,654,654,654,654,646,615,555,482,400,262,227,202,181,161,157,157,157,153,147,131,119,104,86,72,47],"timestamp_mouse":[10,39,49,70,90,109,128,149,169,189,209,230,249,269,290,308,328,350,368,390,409,429,450,469,488,509,529,549,569,589,609,628,648,668,689,709,729,748,768,789,809,829,848,869],"xSR":741.5,"ySR":573.95,"xT1":424.9,"yT1":0,"xT2":1058.1,"yT2":0,"toosoon":0,"cond_shown":"equaldotanddens","ratio_trial":500,"smaller_num":"6","larger_num":"12","correct_side":1,"subjID":"angelasantamaria.14","gender":"1","age":"10","school":"6"},{"start_time":1551892990087,"click_time":1551892995159,"finger_time":1551892995039,"fix_duration":826.9200513236553,"trial":60,"RT":4952,"MT":120,"sideResp":1,"stimulus":"img/900/equaldotanddens/L/10_Ratio_900_L_20_R_18.png","xmouse":[771,771,771,771,771,771,771,771,771,771,771,771,771,771,771,771,771,771,771,771,771,771,771,771,771,771,771,771,771,771,771,771,771,771,771,771,771,771,771,771,771,771,771,771,771,771,771,771,771,771,771,771,771,771,771,771,771,771,771,771,771,771,771,771,771,771,771,771,771,771,771,771,771,771,771,771,771,771,771,771,771,771,771,771,771,771,771,771,771,771,771,771,771,771,771,771,771,771,771,771,771,771,771,771,771,771,771,771,771,771,771,771,771,771,771,771,771,771,771,771,771,771,771,771,771,771,771,771,771,771,771,771,771,771,771,771,771,771,771,771,771,771,771,771,771,771,771,771,771,771,771,771,771,771,771,771,771,771,771,771,771,771,771,771,771,771,771,771,771,771,771,771,771,771,771,771,771,771,771,771,771,771,771,771,771,771,771,771,771,771,771,771,771,771,771,771,771,771,771,771,771,771,771,771,771,771,771,771,771,771,771,771,771,771,771,771,771,771,771,771,771,771,771,771,771,771,771,771,771,771,771,771,771,771,771,771,771,771,771,771,771,771,771,771,771,771,772,750,704,681,575,547,528,522],"ymouse":[617,617,617,617,617,617,617,617,617,617,617,617,617,617,617,617,617,617,617,617,617,617,617,617,617,617,617,617,617,617,617,617,617,617,617,617,617,617,617,617,617,617,617,617,617,617,617,617,617,617,617,617,617,617,617,617,617,617,617,617,617,617,617,617,617,617,617,617,617,617,617,617,617,617,617,617,617,617,617,617,617,617,617,617,617,617,617,617,617,617,617,617,617,617,617,617,617,617,617,617,617,617,617,617,617,617,617,617,617,617,617,617,617,617,617,617,617,617,617,617,617,617,617,617,617,617,617,617,617,617,617,617,617,617,617,617,617,617,617,617,617,617,617,617,617,617,617,617,617,617,617,617,617,617,617,617,617,617,617,617,617,617,617,617,617,617,617,617,617,617,617,617,617,617,617,617,617,617,617,617,617,617,617,617,617,617,617,617,617,617,617,617,617,617,617,617,617,617,617,617,617,617,617,617,617,617,617,617,617,617,617,617,617,617,617,617,617,617,617,617,617,617,617,617,617,617,617,617,617,617,617,617,617,617,617,617,617,617,617,617,617,617,617,617,617,617,617,562,482,442,256,201,140,94],"timestamp_mouse":[15,41,53,72,93,111,133,152,173,193,213,233,252,272,293,312,332,353,372,391,413,432,452,472,492,512,531,552,572,591,613,633,652,671,692,713,731,752,772,791,812,831,853,872,892,912,932,953,971,991,1012,1031,1053,1072,1092,1112,1132,1153,1171,1191,1213,1231,1252,1272,1292,1312,1332,1352,1373,1393,1412,1432,1452,1473,1491,1511,1532,1553,1572,1592,1611,1633,1653,1671,1692,1713,1731,1751,1773,1792,1813,1832,1851,1873,1892,1911,1933,1952,1971,1993,2012,2032,2052,2072,2091,2112,2131,2152,2172,2193,2211,2233,2253,2272,2292,2312,2331,2352,2372,2393,2411,2432,2451,2473,2492,2511,2533,2553,2571,2593,2613,2632,2653,2671,2691,2712,2731,2751,2771,2793,2813,2831,2852,2871,2893,2912,2932,2953,2973,2991,3012,3033,3052,3072,3092,3112,3131,3152,3171,3192,3211,3233,3252,3271,3293,3312,3333,3352,3372,3391,3412,3432,3452,3473,3492,3511,3532,3552,3572,3592,3611,3633,3651,3671,3692,3712,3733,3753,3771,3793,3813,3832,3853,3871,3891,3911,3933,3952,3972,3991,4013,4031,4052,4071,4092,4112,4132,4152,4172,4191,4212,4231,4252,4272,4293,4312,4332,4352,4372,4392,4412,4431,4452,4471,4492,4511,4532,4553,4571,4592,4612,4633,4652,4672,4693,4711,4731,4752,4772,4792,4812,4831,4852,4873,4892,4911,4931,4952,4971,4993,5012,5032,5051,5072],"xSR":741.5,"ySR":573.95,"xT1":424.9,"yT1":0,"xT2":1058.1,"yT2":0,"toosoon":0,"cond_shown":"equaldotanddens","ratio_trial":900,"smaller_num":"18","larger_num":"20","correct_side":1,"subjID":"angelasantamaria.14","gender":"1","age":"10","school":"6"},{"start_time":1551892999385,"click_time":1551893000160,"finger_time":1551892999799,"fix_duration":623.7773650563731,"trial":61,"RT":414,"MT":361,"sideResp":1,"stimulus":"img/500/equaldotanddens/L/5_Ratio_500_L_4_R_2.png","xmouse":[790,790,790,790,790,790,790,790,790,790,790,790,790,790,790,790,790,790,790,790,770,740,710,679,651,629,629,629,629,629,623,615,604,594,585,571,540,530,520],"ymouse":[660,660,660,660,660,660,660,660,660,660,660,660,660,660,660,660,660,660,660,651,507,401,296,203,136,85,84,84,84,84,68,54,39,29,24,18,13,13,13],"timestamp_mouse":[14,46,53,75,94,114,134,153,175,193,214,233,254,274,294,313,334,354,374,394,414,434,454,474,493,514,534,555,573,594,614,633,655,675,694,713,734,753,774],"xSR":741.5,"ySR":573.95,"xT1":424.9,"yT1":0,"xT2":1058.1,"yT2":0,"toosoon":0,"cond_shown":"equaldotanddens","ratio_trial":500,"smaller_num":"2","larger_num":"4","correct_side":1,"subjID":"angelasantamaria.14","gender":"1","age":"10","school":"6"},{"start_time":1551893003429,"click_time":1551893006099,"finger_time":1551893005899,"fix_duration":1368.6563537774016,"trial":62,"RT":2470,"MT":200,"sideResp":1,"stimulus":"img/750/equaldotanddens/R/3_Ratio_750_L_1