[{"start_time":1551900242904,"click_time":1551900246108,"finger_time":1551900245147,"fix_duration":1313.0268493023307,"trial":0,"RT":2243,"MT":961,"sideResp":1,"stimulus":"img/500/randomdotsizeEA/L/7_Ratio_500_L_10_R_5.png","xmouse":[807,807,807,807,807,807,807,807,807,807,807,807,807,807,807,807,807,807,807,807,807,807,807,807,807,807,807,807,807,807,807,807,807,807,807,807,807,807,807,807,807,807,807,807,807,807,807,807,805,805,804,804,803,803,803,803,803,803,803,803,803,803,803,803,803,803,803,803,803,803,803,803,803,803,803,803,803,803,803,803,803,803,803,803,803,803,803,803,803,803,803,803,803,803,803,802,802,802,802,802,800,798,797,796,796,796,795,793,788,773,768,757,747,733,722,715,709,704,700,693,692,687,679,671,649,627,618,613,611,603,596,583,569,559,555,555,552,547,544,544,544,544,544,544,544,544,544,544,544,544,544,544,544,544,544,541,540,538,537,532,514],"ymouse":[521,521,521,521,521,521,521,521,521,521,521,521,521,521,521,521,521,521,521,521,521,521,521,521,521,521,521,521,521,521,521,521,521,521,521,521,521,521,521,521,521,521,521,521,521,521,521,521,523,524,525,525,526,526,526,526,526,526,526,526,526,526,526,526,526,526,526,526,526,526,526,526,526,526,526,526,526,526,526,526,526,526,526,526,526,526,526,526,526,526,526,526,526,526,527,527,527,527,527,527,527,524,521,520,520,520,519,518,511,497,488,472,445,397,374,360,348,338,332,322,319,315,306,295,262,232,222,215,211,191,174,156,138,129,124,124,113,99,91,91,91,91,91,91,91,91,91,91,91,90,90,90,90,90,90,90,90,89,88,87,82],"timestamp_mouse":[10,37,44,65,84,103,125,144,163,183,204,224,244,264,284,304,323,344,364,383,403,424,444,464,484,504,523,543,563,584,604,625,644,664,684,704,723,744,764,785,804,823,843,864,885,904,923,943,964,984,1004,1024,1045,1064,1084,1104,1124,1143,1164,1184,1205,1223,1244,1264,1284,1303,1323,1345,1363,1384,1404,1424,1444,1463,1484,1504,1523,1543,1565,1584,1604,1623,1643,1663,1684,1704,1723,1744,1764,1783,1803,1823,1844,1864,1884,1904,1923,1943,1963,1984,2004,2024,2044,2064,2083,2104,2124,2144,2163,2184,2204,2223,2243,2265,2283,2304,2325,2344,2363,2383,2404,2424,2443,2465,2484,2503,2525,2544,2563,2583,2603,2624,2644,2664,2683,2703,2723,2745,2764,2784,2803,2823,2844,2864,2884,2905,2924,2944,2965,2984,3004,3023,3043,3065,3083,3103,3123,3143,3165,3184,3204],"xSR":741.5,"ySR":481,"xT1":424.9,"yT1":0,"xT2":1058.1,"yT2":0,"toosoon":0,"cond_shown":"randomdotsizeEA","ratio_trial":500,"smaller_num":"5","larger_num":"10","correct_side":1,"subjID":"SergioAndresGonzalezGutierrez6","gender":"0","age":"11","school":"6","test":{"fix_dur":[250,1500],"timestim":300,"targets_dim":[100,100],"targets_relative_coord":[0.3,0.7],"size_stim":[880,420],"start_dim":[100,100],"size_start":[300,300],"size_fix":60,"samplingrate":20,"img_types":["equaldotsize","equaldotanddens","randomdotsizeEA"],"ratios":[250,500,750,900],"rep_conds":9,"nTrials":120,"trials_to_rest":500,"Trials_order":[77,119,73,60,74,86,104,87,95,39,48,58,40,71,111,97,59,14,19,79,23,70,25,30,105,34,96,61,80,54,49,115,100,47,83,1,98,56,27,67,3,78,118,116,22,92,44,36,9,46,75,52,99,110,28,15,94,29,63,64,106,85,117,107,57,84,18,38,69,6,33,43,109,88,91,90,5,31,101,62,72,41,81,21,42,50,17,0,8,37,103,102,7,35,76,82,108,66,13,16,26,51,55,45,2,68,89,24,32,4,112,20,65,113,93,12,114,11,10,53],"cond_shown":["randomdotsizeEA","randomdotsizeEA","equaldotanddens","equaldotsize","randomdotsizeEA","randomdotsizeEA","randomdotsizeEA","equaldotsize","randomdotsizeEA","equaldotsize","equaldotsize","equaldotanddens","equaldotanddens","randomdotsizeEA","equaldotsize","equaldotanddens","randomdotsizeEA","randomdotsizeEA","equaldotanddens","equaldotanddens","randomdotsizeEA","equaldotanddens","equaldotanddens","equaldotsize","equaldotsize","equaldotanddens","equaldotsize","equaldotanddens","randomdotsizeEA","equaldotsize","equaldotanddens","equaldotanddens","equaldotanddens","randomdotsizeEA","randomdotsizeEA","equaldotanddens","randomdotsizeEA","randomdotsizeEA","equaldotsize","equaldotanddens","equaldotsize","equaldotsize","equaldotanddens","randomdotsizeEA","equaldotanddens","randomdotsizeEA","randomdotsizeEA","equaldotsize","equaldotsize","equaldotanddens","equaldotsize","equaldotanddens","equaldotsize","randomdotsizeEA","equaldotanddens","equaldotsize","equaldotanddens","randomdotsizeEA","equaldotsize","equaldotanddens","equaldotanddens","equaldotanddens","equaldotsize","randomdotsizeEA","equaldotsize","equaldotsize","equaldotsize","randomdotsizeEA","equaldotsize","equaldotsize","equaldotsize","equaldotanddens","equaldotanddens","equaldotanddens","equaldotanddens","equaldotsize","randomdotsizeEA","equaldotanddens","randomdotsizeEA","randomdotsizeEA","equaldotsize","randomdotsizeEA","equaldotsize","equaldotsize","equaldotsize","randomdotsizeEA","randomdotsizeEA","equaldotsize","randomdotsizeEA","equaldotanddens","equaldotanddens","equaldotsize","equaldotanddens","randomdotsizeEA","equaldotanddens","equaldotanddens","equaldotsize","equaldotsize","equaldotanddens","equaldotanddens","randomdotsizeEA","equaldotsize","equaldotanddens","equaldotsize","randomdotsizeEA","randomdotsizeEA","randomdotsizeEA","equaldotsize","randomdotsizeEA","equaldotanddens","equaldotanddens","randomdotsizeEA","randomdotsizeEA","randomdotsizeEA","equaldotsize","equaldotsize","equaldotsize","randomdotsizeEA","equaldotanddens","randomdotsizeEA"],"ratio_trial":[500,900,250,250,250,250,750,500,900,500,250,900,500,900,500,250,900,250,750,750,900,900,250,750,900,900,250,250,750,750,250,750,500,900,900,250,250,750,500,750,500,750,900,750,900,750,750,250,900,900,500,500,500,250,500,500,900,500,500,500,900,250,900,900,900,250,750,250,900,750,900,750,250,500,750,750,500,750,500,250,250,500,900,900,750,250,500,250,750,250,750,750,750,900,500,900,250,750,250,500,250,500,750,900,250,750,500,250,750,500,500,750,500,500,900,250,750,900,900,500],"smaller_num":["5","18","2","4","2","3","3","9","9","5","6","9","9","9","9","3","18","3","3","15","9","9","2","3","18","9","3","3","3","3","3","15","5","18","18","2","6","15","3","6","9","9","18","3","9","6","15","2","18","9","10","9","10","4","9","1","18","5","2","2","18","1","18","18","18","2","3","5","18","9","9","6","3","5","6","3","1","3","9","3","3","2","18","18","15","1","6","6","3","3","18","15","12","9","4","18","5","3","2","9","4","6","15","18","3","6","6","4","15","6","1","3","2","3","18","2","3","18","18","9"],"larger_num":["10","20","8","16","8","12","4","18","10","10","24","10","18","10","18","12","20","12","4","20","10","10","8","4","20","10","12","12","4","4","12","20","10","20","20","8","24","20","6","8","18","12","20","4","10","8","20","8","20","10","20","18","20","16","18","2","20","10","4","4","20","4","20","20","20","8","4","20","20","12","10","8","12","10","8","4","2","4","18","12","12","4","20","20","20","4","12","24","4","12","24","20","16","10","8","20","20","4","8","18","16","12","20","20","12","8","12","16","20","12","2","4","4","6","20","8","4","20","20","18"],"correct_side":[1,1,1,2,1,1,1,1,2,1,2,1,1,1,1,1,1,1,2,1,2,2,1,1,2,2,2,2,2,1,2,1,1,2,2,1,1,2,2,1,2,2,1,1,2,1,2,1,2,2,2,1,2,1,2,2,1,1,2,1,1,2,1,2,2,1,1,2,1,2,2,1,2,2,1,1,2,2,2,2,2,1,2,1,1,2,1,2,1,1,1,2,2,1,1,1,2,1,1,1,1,1,1,1,2,1,1,2,1,1,2,2,2,2,2,1,1,2,1,2],"img_shown":["img/500/randomdotsizeEA/L/7_Ratio_500_L_10_R_5.png","img/900/randomdotsizeEA/L/4_Ratio_900_L_20_R_18.png","img/250/equaldotanddens/L/7_Ratio_250_L_8_R_2.png","img/250/equaldotsize/R/10_Ratio_250_L_4_R_16.png","img/250/randomdotsizeEA/L/1_Ratio_250_L_8_R_2.png","img/250/randomdotsizeEA/L/15_Ratio_250_L_12_R_3.png","img/750/randomdotsizeEA/L/10_Ratio_750_L_4_R_3.png","img/500/equaldotsize/L/4_Ratio_500_L_18_R_9.png","img/900/randomdotsizeEA/R/7_Ratio_900_L_9_R_10.png","img/500/equaldotsize/L/7_Ratio_500_L_10_R_5.png","img/250/equaldotsize/R/6_Ratio_250_L_6_R_24.png","img/900/equaldotanddens/L/1_Ratio_900_L_10_R_9.png","img/500/equaldotanddens/L/4_Ratio_500_L_18_R_9.png","img/900/randomdotsizeEA/L/1_Ratio_900_L_10_R_9.png","img/500/equaldotsize/L/4_Ratio_500_L_18_R_9.png","img/250/equaldotanddens/L/15_Ratio_250_L_12_R_3.png","img/900/randomdotsizeEA/L/8_Ratio_900_L_20_R_18.png","img/250/randomdotsizeEA/L/14_Ratio_250_L_12_R_3.png","img/750/equaldotanddens/R/7_Ratio_750_L_3_R_4.png","img/750/equaldotanddens/L/1_Ratio_750_L_20_R_15.png","img/900/randomdotsizeEA/R/3_Ratio_900_L_9_R_10.png","img/900/equaldotanddens/R/3_Ratio_900_L_9_R_10.png","img/250/equaldotanddens/L/1_Ratio_250_L_8_R_2.png","img/750/equaldotsize/L/8_Ratio_750_L_4_R_3.png","img/900/equaldotsize/R/13_Ratio_900_L_18_R_20.png","img/900/equaldotanddens/R/15_Ratio_900_L_9_R_10.png","img/250/equaldotsize/R/9_Ratio_250_L_3_R_12.png","img/250/equaldotanddens/R/11_Ratio_250_L_3_R_12.png","img/750/randomdotsizeEA/R/12_Ratio_750_L_3_R_4.png","img/750/equaldotsize/L/10_Ratio_750_L_4_R_3.png","img/250/equaldotanddens/R/9_Ratio_250_L_3_R_12.png","img/750/equaldotanddens/L/1_Ratio_750_L_20_R_15.png","img/500/equaldotanddens/L/7_Ratio_500_L_10_R_5.png","img/900/randomdotsizeEA/R/11_Ratio_900_L_18_R_20.png","img/900/randomdotsizeEA/R/12_Ratio_900_L_18_R_20.png","img/250/equaldotanddens/L/3_Ratio_250_L_8_R_2.png","img/250/randomdotsizeEA/L/5_Ratio_250_L_24_R_6.png","img/750/randomdotsizeEA/R/4_Ratio_750_L_15_R_20.png","img/500/equaldotsize/R/2_Ratio_500_L_3_R_6.png","img/750/equaldotanddens/L/13_Ratio_750_L_8_R_6.png","img/500/equaldotsize/R/6_Ratio_500_L_9_R_18.png","img/750/equaldotsize/R/15_Ratio_750_L_9_R_12.png","img/900/equaldotanddens/L/10_Ratio_900_L_20_R_18.png","img/750/randomdotsizeEA/L/8_Ratio_750_L_4_R_3.png","img/900/equaldotanddens/R/6_Ratio_900_L_9_R_10.png","img/750/randomdotsizeEA/L/13_Ratio_750_L_8_R_6.png","img/750/randomdotsizeEA/R/4_Ratio_750_L_15_R_20.png","img/250/equaldotsize/L/7_Ratio_250_L_8_R_2.png","img/900/equaldotsize/R/11_Ratio_900_L_18_R_20.png","img/900/equaldotanddens/R/6_Ratio_900_L_9_R_10.png","img/500/equaldotsize/R/3_Ratio_500_L_10_R_20.png","img/500/equaldotanddens/L/4_Ratio_500_L_18_R_9.png","img/500/equaldotsize/R/3_Ratio_500_L_10_R_20.png","img/250/randomdotsizeEA/L/2_Ratio_250_L_16_R_4.png","img/500/equaldotanddens/R/1_Ratio_500_L_9_R_18.png","img/500/equaldotsize/R/12_Ratio_500_L_1_R_2.png","img/900/equaldotanddens/L/8_Ratio_900_L_20_R_18.png","img/500/randomdotsizeEA/L/7_Ratio_500_L_10_R_5.png","img/500/equaldotsize/R/9_Ratio_500_L_2_R_4.png","img/500/equaldotanddens/L/10_Ratio_500_L_4_R_2.png","img/900/equaldotanddens/L/2_Ratio_900_L_20_R_18.png","img/250/equaldotanddens/R/8_Ratio_250_L_1_R_4.png","img/900/equaldotsize/L/8_Ratio_900_L_20_R_18.png","img/900/randomdotsizeEA/R/11_Ratio_900_L_18_R_20.png","img/900/equaldotsize/R/14_Ratio_900_L_18_R_20.png","img/250/equaldotsize/L/1_Ratio_250_L_8_R_2.png","img/750/equaldotsize/L/8_Ratio_750_L_4_R_3.png","img/250/randomdotsizeEA/R/12_Ratio_250_L_5_R_20.png","img/900/equaldotsize/L/10_Ratio_900_L_20_R_18.png","img/750/equaldotsize/R/15_Ratio_750_L_9_R_12.png","img/900/equaldotsize/R/5_Ratio_900_L_9_R_10.png","img/750/equaldotanddens/L/14_Ratio_750_L_8_R_6.png","img/250/equaldotanddens/R/4_Ratio_250_L_3_R_12.png","img/500/equaldotanddens/R/14_Ratio_500_L_5_R_10.png","img/750/equaldotanddens/L/14_Ratio_750_L_8_R_6.png","img/750/equaldotsize/L/9_Ratio_750_L_4_R_3.png","img/500/randomdotsizeEA/R/12_Ratio_500_L_1_R_2.png","img/750/equaldotanddens/R/12_Ratio_750_L_3_R_4.png","img/500/randomdotsizeEA/R/1_Ratio_500_L_9_R_18.png","img/250/randomdotsizeEA/R/11_Ratio_250_L_3_R_12.png","img/250/equaldotsize/R/4_Ratio_250_L_3_R_12.png","img/500/randomdotsizeEA/L/5_Ratio_500_L_4_R_2.png","img/900/equaldotsize/R/11_Ratio_900_L_18_R_20.png","img/900/equaldotsize/L/2_Ratio_900_L_20_R_18.png","img/750/equaldotsize/L/1_Ratio_750_L_20_R_15.png","img/250/randomdotsizeEA/R/8_Ratio_250_L_1_R_4.png","img/500/randomdotsizeEA/L/11_Ratio_500_L_12_R_6.png","img/250/equaldotsize/R/6_Ratio_250_L_6_R_24.png","img/750/randomdotsizeEA/L/9_Ratio_750_L_4_R_3.png","img/250/equaldotanddens/L/15_Ratio_250_L_12_R_3.png","img/750/equaldotanddens/L/6_Ratio_750_L_24_R_18.png","img/750/equaldotsize/R/3_Ratio_750_L_15_R_20.png","img/750/equaldotanddens/R/11_Ratio_750_L_12_R_16.png","img/900/randomdotsizeEA/L/1_Ratio_900_L_10_R_9.png","img/500/equaldotanddens/L/8_Ratio_500_L_8_R_4.png","img/900/equaldotanddens/L/10_Ratio_900_L_20_R_18.png","img/250/equaldotsize/R/12_Ratio_250_L_5_R_20.png","img/750/equaldotsize/L/8_Ratio_750_L_4_R_3.png","img/250/equaldotanddens/L/3_Ratio_250_L_8_R_2.png","img/500/equaldotanddens/L/4_Ratio_500_L_18_R_9.png","img/250/randomdotsizeEA/L/2_Ratio_250_L_16_R_4.png","img/500/equaldotsize/L/11_Ratio_500_L_12_R_6.png","img/750/equaldotanddens/L/1_Ratio_750_L_20_R_15.png","img/900/equaldotsize/L/10_Ratio_900_L_20_R_18.png","img/250/randomdotsizeEA/R/9_Ratio_250_L_3_R_12.png","img/750/randomdotsizeEA/L/13_Ratio_750_L_8_R_6.png","img/500/randomdotsizeEA/L/13_Ratio_500_L_12_R_6.png","img/250/equaldotsize/R/10_Ratio_250_L_4_R_16.png","img/750/randomdotsizeEA/L/1_Ratio_750_L_20_R_15.png","img/500/equaldotanddens/L/13_Ratio_500_L_12_R_6.png","img/500/equaldotanddens/R/15_Ratio_500_L_1_R_2.png","img/750/randomdotsizeEA/R/12_Ratio_750_L_3_R_4.png","img/500/randomdotsizeEA/R/9_Ratio_500_L_2_R_4.png","img/500/randomdotsizeEA/R/2_Ratio_500_L_3_R_6.png","img/900/equaldotsize/R/12_Ratio_900_L_18_R_20.png","img/250/equaldotsize/L/3_Ratio_250_L_8_R_2.png","img/750/equaldotsize/L/10_Ratio_750_L_4_R_3.png","img/900/randomdotsizeEA/R/12_Ratio_900_L_18_R_20.png","img/900/equaldotanddens/L/2_Ratio_900_L_20_R_18.png","img/500/randomdotsizeEA/R/1_Ratio_500_L_9_R_18.png"],"Rat0":[["12_Ratio_0_L_9_R_0.png","13_Ratio_0_L_6_R_0.png","5_Ratio_0_L_2_R_0.png","6_Ratio_0_L_4_R_0.png","8_Ratio_0_L_6_R_0.png"],["1_Ratio_0_L_0_R_17.png","10_Ratio_0_L_0_R_22.png","11_Ratio_0_L_0_R_1.png","14_Ratio_0_L_0_R_24.png","15_Ratio_0_L_0_R_4.png","2_Ratio_0_L_0_R_5.png","3_Ratio_0_L_0_R_17.png","4_Ratio_0_L_0_R_7.png","7_Ratio_0_L_0_R_19.png","9_Ratio_0_L_0_R_15.png"]],"Rat250":[["1_Ratio_250_L_8_R_2.png","14_Ratio_250_L_12_R_3.png","15_Ratio_250_L_12_R_3.png","2_Ratio_250_L_16_R_4.png","3_Ratio_250_L_8_R_2.png","5_Ratio_250_L_24_R_6.png","7_Ratio_250_L_8_R_2.png"],["10_Ratio_250_L_4_R_16.png","11_Ratio_250_L_3_R_12.png","12_Ratio_250_L_5_R_20.png","13_Ratio_250_L_2_R_8.png","4_Ratio_250_L_3_R_12.png","6_Ratio_250_L_6_R_24.png","8_Ratio_250_L_1_R_4.png","9_Ratio_250_L_3_R_12.png"]],"Rat500":[["10_Ratio_500_L_4_R_2.png","11_Ratio_500_L_12_R_6.png","13_Ratio_500_L_12_R_6.png","4_Ratio_500_L_18_R_9.png","5_Ratio_500_L_4_R_2.png","7_Ratio_500_L_10_R_5.png","8_Ratio_500_L_8_R_4.png"],["1_Ratio_500_L_9_R_18.png","12_Ratio_500_L_1_R_2.png","14_Ratio_500_L_5_R_10.png","15_Ratio_500_L_1_R_2.png","2_Ratio_500_L_3_R_6.png","3_Ratio_500_L_10_R_20.png","6_Ratio_500_L_9_R_18.png","9_Ratio_500_L_2_R_4.png"]],"Rat750":[["1_Ratio_750_L_20_R_15.png","10_Ratio_750_L_4_R_3.png","13_Ratio_750_L_8_R_6.png","14_Ratio_750_L_8_R_6.png","6_Ratio_750_L_24_R_18.png","8_Ratio_750_L_4_R_3.png","9_Ratio_750_L_4_R_3.png"],["11_Ratio_750_L_12_R_16.png","12_Ratio_750_L_3_R_4.png","15_Ratio_750_L_9_R_12.png","2_Ratio_750_L_6_R_8.png","3_Ratio_750_L_15_R_20.png","4_Ratio_750_L_15_R_20.png","5_Ratio_750_L_15_R_20.png","7_Ratio_750_L_3_R_4.png"]],"Rat900":[["1_Ratio_900_L_10_R_9.png","10_Ratio_900_L_20_R_18.png","2_Ratio_900_L_20_R_18.png","4_Ratio_900_L_20_R_18.png","8_Ratio_900_L_20_R_18.png"],["11_Ratio_900_L_18_R_20.png","12_Ratio_900_L_18_R_20.png","13_Ratio_900_L_18_R_20.png","14_Ratio_900_L_18_R_20.png","15_Ratio_900_L_9_R_10.png","3_Ratio_900_L_9_R_10.png","5_Ratio_900_L_9_R_10.png","6_Ratio_900_L_9_R_10.png","7_Ratio_900_L_9_R_10.png","9_Ratio_900_L_18_R_20.png"]],"Rat1000":[["10_Ratio_1000_L_16_R_16.png","11_Ratio_1000_L_6_R_6.png","12_Ratio_1000_L_14_R_14.png","13_Ratio_1000_L_20_R_20.png","15_Ratio_1000_L_15_R_15.png","2_Ratio_1000_L_17_R_17.png","4_Ratio_1000_L_9_R_9.png","5_Ratio_1000_L_6_R_6.png","6_Ratio_1000_L_19_R_19.png","8_Ratio_1000_L_14_R_14.png","9_Ratio_1000_L_25_R_25.png"],["1_Ratio_1000_L_1_R_1.png","14_Ratio_1000_L_17_R_17.png","3_Ratio_1000_L_17_R_17.png","7_Ratio_1000_L_6_R_6.png"]]}},{"start_time":1551900248196,"click_time":1551900249528,"finger_time":1551900249008,"fix_duration":705.3037678997401,"trial":1,"RT":812,"MT":520,"sideResp":2,"stimulus":"img/900/randomdotsizeEA/L/4_Ratio_900_L_20_R_18.png","xmouse":[800,800,800,800,800,800,800,800,800,800,800,800,800,800,800,800,800,800,800,800,800,800,800,800,800,800,800,800,800,800,800,800,800,800,800,800,800,800,799,788,777,766,757,751,751,751,751,752,771,834,845,850,854,863,897,920,939,953,962,991,1003,1015,1027,1038,1049,1055,1066],"ymouse":[476,476,476,476,476,476,476,476,476,476,476,476,476,476,476,476,476,476,476,476,476,476,476,476,476,476,476,476,476,476,476,476,476,476,476,476,476,476,475,455,438,419,405,396,396,396,396,394,388,349,337,331,325,313,276,254,237,224,215,178,160,139,119,104,90,83,74],"timestamp_mouse":[11,31,53,72,92,112,131,152,172,192,212,231,252,272,291,311,331,352,372,393,412,432,452,471,492,512,532,551,571,591,611,632,652,672,692,713,732,753,771,791,812,832,851,871,892,912,932,952,973,992,1011,1032,1052,1072,1091,1113,1132,1151,1172,1192,1212,1232,1252,1271,1292,1312,1332],"xSR":741.5,"ySR":449.15000000000003,"xT1":424.9,"yT1":0,"xT2":1058.1,"yT2":0,"toosoon":0,"cond_shown":"randomdotsizeEA","ratio_trial":900,"smaller_num":"18","larger_num":"20","correct_side":1,"subjID":"SergioAndresGonzalezGutierrez6","gender":"0","age":"11","school":"6"},{"start_time":1551900252416,"click_time":1551900253767,"finger_time":1551900253107,"fix_duration":1126.0600707487192,"trial":2,"RT":691,"MT":660,"sideResp":1,"stimulus":"img/250/equaldotanddens/L/7_Ratio_250_L_8_R_2.png","xmouse":[794,794,794,794,794,794,794,794,794,794,794,794,794,794,794,794,794,794,794,794,794,794,794,794,794,794,794,794,794,794,794,794,794,792,732,622,430,345,345,345,345,345,345,345,345,345,345,345,345,345,345,345,345,345,345,345,345,345,345,345,393,399,405,410,417,419,422,431],"ymouse":[516,516,516,516,516,516,516,516,516,516,516,516,516,516,516,516,516,516,516,516,516,516,516,516,516,516,516,516,516,516,516,516,516,516,479,357,138,29,29,29,29,29,29,29,29,29,29,29,29,29,29,29,29,29,29,29,29,29,29,29,1,3,5,5,6,7,10,18],"timestamp_mouse":[11,31,51,71,92,112,132,152,172,191,211,231,252,272,292,311,332,352,371,391,412,432,451,471,491,511,533,552,572,592,612,631,651,671,691,711,731,751,772,791,812,833,852,872,892,911,931,951,972,992,1012,1032,1051,1071,1091,1111,1131,1153,1173,1191,1212,1232,1251,1271,1291,1312,1331,1351],"xSR":741.5,"ySR":449.15000000000003,"xT1":424.9,"yT1":0,"xT2":1058.1,"yT2":0,"toosoon":0,"cond_shown":"equaldotanddens","ratio_trial":250,"smaller_num":"2","larger_num":"8","correct_side":1,"subjID":"SergioAndresGonzalezGutierrez6","gender":"0","age":"11","school":"6"},{"start_time":1551900257323,"click_time":1551900258468,"finger_time":1551900258008,"fix_duration":1174.5717105938306,"trial":3,"RT":685,"MT":460,"sideResp":2,"stimulus":"img/250/equaldotsize/R/10_Ratio_250_L_4_R_16.png","xmouse":[784,784,784,784,784,784,784,784,784,784,784,784,784,784,784,784,784,784,784,784,784,784,784,784,784,784,784,784,784,784,784,784,784,784,832,869,906,936,952,953,953,954,959,969,978,985,987,990,1002,1007,1035,1041,1048,1051,1054,1054,1056,1061],"ymouse":[501,501,501,501,501,501,501,501,501,501,501,501,501,501,501,501,501,501,501,501,501,501,501,501,501,501,501,501,501,501,501,501,501,496,351,224,136,89,71,70,70,69,67,62,58,55,55,55,57,59,65,66,66,66,66,66,65,64],"timestamp_mouse":[9,25,44,65,85,105,125,144,165,185,204,224,244,265,284,305,324,344,364,386,404,425,444,466,485,504,524,545,566,584,604,624,644,665,685,705,724,744,765,785,805,825,844,865,884,904,925,945,964,984,1005,1025,1046,1065,1085,1105,1125,1144],"xSR":741.5,"ySR":449.15000000000003,"xT1":424.9,"yT1":0,"xT2":1058.1,"yT2":0,"toosoon":0,"cond_shown":"equaldotsize","ratio_trial":250,"smaller_num":"4","larger_num":"16","correct_side":2,"subjID":"SergioAndresGonzalezGutierrez6","gender":"0","age":"11","school":"6"},{"start_time":1551900259901,"click_time":1551900261248,"finger_time":1551900260707,"fix_duration":312.3925786187437,"trial":4,"RT":806,"MT":541,"sideResp":1,"stimulus":"img/250/randomdotsizeEA/L/1_Ratio_250_L_8_R_2.png","xmouse":[777,777,777,777,777,777,777,777,777,777,777,777,777,777,777,777,777,777,777,777,777,777,777,777,777,777,782,784,784,785,785,785,785,785,785,785,785,785,785,793,812,812,808,800,794,791,788,773,721,673,603,492,482,482,482,492,493,492,488,487,487,487,487,487,489,491,483,475],"ymouse":[506,506,506,506,506,506,506,506,506,506,506,506,506,506,506,506,506,506,506,506,506,506,506,506,506,506,498,491,486,474,468,468,468,468,468,468,468,468,465,459,420,396,378,366,362,360,360,353,331,311,282,224,216,216,213,178,162,153,147,147,147,147,147,147,146,114,102,89],"timestamp_mouse":[10,41,48,67,87,106,127,147,168,186,206,227,247,267,286,307,327,347,367,386,406,427,448,466,486,506,527,547,567,587,607,626,647,667,686,706,726,747,767,786,806,826,847,868,887,907,927,947,967,987,1007,1026,1047,1067,1087,1107,1126,1146,1166,1186,1207,1227,1247,1267,1287,1308,1326,1347],"xSR":741.5,"ySR":449.15000000000003,"xT1":424.9,"yT1":0,"xT2":1058.1,"yT2":0,"toosoon":0,"cond_shown":"randomdotsizeEA","ratio_trial":250,"smaller_num":"2","larger_num":"8","correct_side":1,"subjID":"SergioAndresGonzalezGutierrez6","gender":"0","age":"11","school":"6"},{"start_time":1551900262649,"click_time":1551900264027,"finger_time":1551900263409,"fix_duration":600.0867974778243,"trial":5,"RT":760,"MT":618,"sideResp":1,"stimulus":"img/250/randomdotsizeEA/L/15_Ratio_250_L_12_R_3.png","xmouse":[812,810,809,809,809,809,809,809,809,809,809,809,809,809,809,809,809,809,809,809,809,809,809,809,809,809,809,809,809,809,809,809,809,809,809,809,803,752,685,671,649,644,644,644,644,644,644,644,644,644,631,561,501,410,408,408,408,414,423,425,425,426,426,426,426,426,426,428,434],"ymouse":[494,493,493,493,493,493,493,493,493,493,493,493,493,493,493,493,493,493,493,493,493,493,493,493,493,493,493,493,493,493,493,493,493,493,493,493,487,389,276,254,215,208,208,208,208,208,208,208,208,208,199,169,141,105,105,105,105,103,101,101,101,101,101,101,101,101,101,100,99],"timestamp_mouse":[20,38,60,78,99,118,140,159,179,198,218,239,259,278,298,319,340,358,378,398,420,440,458,478,499,519,539,559,578,598,618,639,659,679,698,719,739,760,778,799,818,840,860,879,898,918,939,959,978,999,1019,1039,1058,1078,1098,1119,1138,1161,1178,1198,1218,1238,1258,1278,1299,1319,1339,1360,1378],"xSR":741.5,"ySR":449.15000000000003,"xT1":424.9,"yT1":0,"xT2":1058.1,"yT2":0,"toosoon":0,"cond_shown":"randomdotsizeEA","ratio_trial":250,"smaller_num":"3","larger_num":"12","correct_side":1,"subjID":"SergioAndresGonzalezGutierrez6","gender":"0","age":"11","school":"6"},{"start_time":1551900265765,"click_time":1551900267628,"finger_time":1551900267287,"fix_duration":835.0479959448352,"trial":6,"RT":1522,"MT":341,"sideResp":1,"stimulus":"img/750/randomdotsizeEA/L/10_Ratio_750_L_4_R_3.png","xmouse":[782,782,782,782,782,782,782,782,782,782,782,782,782,782,782,782,782,782,782,782,782,782,782,782,782,782,782,782,782,782,782,782,782,782,782,782,782,782,782,782,782,782,782,782,782,782,782,782,782,782,782,782,782,782,782,782,782,782,782,782,782,782,782,782,782,782,782,782,782,782,782,780,779,776,774,773,770,764,750,743,736,730,714,674,650,631,614,609,608,608,608,589,501,434],"ymouse":[491,491,491,491,491,491,491,491,491,491,491,491,491,491,491,491,491,491,491,491,491,491,491,491,491,491,491,491,491,491,491,491,491,491,491,491,491,491,491,491,491,491,491,491,491,491,491,491,491,491,491,491,491,491,491,491,491,491,491,491,491,491,491,491,491,491,491,491,491,491,491,488,485,471,462,451,438,423,392,381,364,352,329,283,255,238,219,213,212,212,211,188,114,89],"timestamp_mouse":[9,22,49,62,83,103,123,143,163,183,202,223,243,263,282,303,322,343,362,382,402,422,443,464,483,502,522,543,562,582,603,624,643,664,683,702,722,744,764,782,803,822,842,862,883,903,923,942,962,984,1002,1022,1043,1064,1082,1103,1123,1143,1162,1182,1202,1223,1243,1264,1283,1303,1322,1343,1363,1383,1402,1423,1442,1463,1483,1503,1522,1543,1563,1582,1603,1623,1643,1664,1682,1703,1722,1744,1763,1783,1804,1823,1843,1863],"xSR":741.5,"ySR":449.15000000000003,"xT1":424.9,"yT1":0,"xT2":1058.1,"yT2":0,"toosoon":0,"cond_shown":"randomdotsizeEA","ratio_trial":750,"smaller_num":"3","larger_num":"4","correct_side":1,"subjID":"SergioAndresGonzalezGutierrez6","gender":"0","age":"11","school":"6"},{"start_time":1551900269542,"click_time":1551900270747,"finger_time":1551900270148,"fix_duration":412.64099151802645,"trial":7,"RT":606,"MT":599,"sideResp":1,"stimulus":"img/500/equaldotsize/L/4_Ratio_500_L_18_R_9.png","xmouse":[811,811,811,811,809,808,807,806,806,806,806,806,806,806,806,806,806,806,806,806,806,806,806,806,806,806,806,806,806,794,725,595,564,541,541,541,541,541,541,541,541,541,541,537,526,507,501,498,496,495,495,492,486,481,479,476,476,476,476,476,476],"ymouse":[500,500,500,500,499,498,498,497,497,497,497,497,497,497,497,497,497,497,497,497,497,497,497,497,497,497,497,497,497,472,379,288,272,260,260,260,260,260,260,260,260,260,260,255,238,216,206,202,199,199,197,189,175,165,158,150,147,143,131,114,80],"timestamp_mouse":[9,26,45,66,85,106,125,145,166,186,206,226,246,266,286,306,326,345,365,386,406,426,445,465,485,505,526,545,565,585,606,626,646,665,686,706,726,745,765,787,805,827,846,866,885,905,926,946,966,985,1005,1026,1045,1065,1087,1106,1127,1146,1166,1185,1205],"xSR":741.5,"ySR":449.15000000000003,"xT1":424.9,"yT1":0,"xT2":1058.1,"yT2":0,"toosoon":0,"cond_shown":"equaldotsize","ratio_trial":500,"smaller_num":"9","larger_num":"18","correct_side":1,"subjID":"SergioAndresGonzalezGutierrez6","gender":"0","age":"11","school":"6"},{"start_time":1551900272999,"click_time":1551900274448,"finger_time":1551900273829,"fix_duration":1268.397879264746,"trial":8,"RT":830,"MT":619,"sideResp":2,"stimulus":"img/900/randomdotsizeEA/R/7_Ratio_900_L_9_R_10.png","xmouse":[780,780,780,780,780,780,780,780,780,780,780,785,786,787,788,789,790,790,790,790,790,790,790,790,790,790,790,790,790,790,790,790,790,790,790,790,790,790,790,790,790,810,843,858,868,871,874,891,903,916,929,946,974,980,986,995,1007,1033,1047,1054,1061,1068,1083,1087,1091,1096,1098,1103,1104,1106,1112,1118,1129],"ymouse":[481,481,481,481,481,481,481,481,481,481,481,481,481,480,477,471,470,470,470,470,470,470,470,470,470,470,470,470,470,470,470,470,470,470,470,470,470,470,470,470,470,443,414,402,392,388,384,364,352,342,328,313,282,275,269,260,249,225,210,201,191,183,162,158,151,144,141,131,128,124,115,103,76],"timestamp_mouse":[9,29,60,70,90,109,130,149,168,188,209,230,249,268,289,309,328,348,369,389,408,428,448,470,489,508,529,548,568,590,610,628,649,669,690,708,728,748,769,788,810,830,849,868,889,908,929,948,969,989,1010,1029,1048,1068,1088,1109,1129,1149,1169,1189,1208,1228,1248,1269,1289,1308,1328,1349,1368,1388,1409,1429,1449],"xSR":741.5,"ySR":449.15000000000003,"xT1":424.9,"yT1":0,"xT2":1058.1,"yT2":0,"toosoon":0,"cond_shown":"randomdotsizeEA","ratio_trial":900,"smaller_num":"9","larger_num":"10","correct_side":2,"subjID":"SergioAndresGonzalezGutierrez6","gender":"0","age":"11","school":"6"},{"start_time":1551900276015,"click_time":1551900277648,"finger_time":1551900276748,"fix_duration":506.12833196542596,"trial":9,"RT":733,"MT":900,"sideResp":1,"stimulus":"img/500/equaldotsize/L/7_Ratio_500_L_10_R_5.png","xmouse":[807,807,807,807,807,807,807,807,807,807,807,807,807,807,807,807,807,808,809,809,810,810,810,810,810,810,810,810,810,810,810,808,806,803,800,786,758,733,707,695,689,685,682,679,675,668,642,633,623,616,612,604,600,597,594,586,577,573,569,566,563,560,558,555,555,554,554,554,554,554,554,551,549,547,541,537,533,532,532,531,527,523],"ymouse":[515,515,515,515,515,515,514,512,512,512,512,512,512,512,512,512,510,509,506,506,504,504,504,504,504,504,504,504,504,504,503,503,503,502,499,484,437,399,358,337,324,315,306,302,291,278,240,228,215,205,200,190,185,183,181,175,169,166,162,160,155,140,133,130,127,126,125,125,124,124,124,119,114,111,102,97,92,91,91,90,87,86],"timestamp_mouse":[12,38,52,73,93,112,132,153,173,193,212,233,253,273,292,313,333,352,372,392,412,432,452,473,492,512,532,553,573,593,613,633,652,673,693,713,733,752,773,792,814,833,853,873,894,912,933,952,973,993,1014,1034,1052,1073,1092,1113,1133,1152,1173,1194,1213,1232,1252,1273,1293,1313,1332,1352,1373,1393,1413,1433,1452,1474,1493,1512,1533,1553,1573,1592,1613,1633],"xSR":741.5,"ySR":449.15000000000003,"xT1":424.9,"yT1":0,"xT2":1058.1,"yT2":0,"toosoon":0,"cond_shown":"equaldotsize","ratio_trial":500,"smaller_num":"5","larger_num":"10","correct_side":1,"subjID":"SergioAndresGonzalezGutierrez6","gender":"0","age":"11","school":"6"},{"start_time":1551900278933,"click_time":1551900279549,"finger_time":1551900279447,"fix_duration":324.57299075595193,"trial":10,"RT":514,"MT":102,"sideResp":2,"stimulus":"img/250/equaldotsize/R/6_Ratio_250_L_6_R_24.png","xmouse":[761,761,761,761,761,761,761,761,761,761,761,761,763,764,764,766,767,771,772,773,780,786,791,803,821,847,930,992,1013,1060,1088],"ymouse":[491,491,491,491,491,491,491,491,491,491,491,491,491,491,491,491,490,488,488,488,486,483,479,470,455,427,332,243,210,139,88],"timestamp_mouse":[25,47,55,75,94,115,134,154,175,195,215,235,255,274,296,316,335,354,374,395,415,434,456,474,494,514,535,555,576,595,615],"xSR":741.5,"ySR":449.15000000000003,"xT1":424.9,"yT1":0,"xT2":1058.1,"yT2":0,"toosoon":0,"cond_shown":"equaldotsize","ratio_trial":250,"smaller_num":"6","larger_num":"24","correct_side":2,"subjID":"SergioAndresGonzalezGutierrez6","gender":"0","age":"11","school":"6"},{"start_time":1551900280979,"click_time":1551900281948,"finger_time":1551900281567,"fix_duration":250,"trial":11,"RT":588,"MT":381,"sideResp":1,"stimulus":"img/900/equaldotanddens/L/1_Ratio_900_L_10_R_9.png","xmouse":[769,769,769,769,769,769,769,769,769,769,769,769,769,769,770,770,770,770,770,770,770,770,770,770,770,770,770,770,768,763,760,760,755,749,720,697,689,686,686,686,671,640,610,589,561,556,549,536,522],"ymouse":[482,482,482,482,482,482,482,482,482,482,482,482,482,482,482,482,482,482,482,482,482,482,482,482,482,482,480,476,469,448,428,397,357,323,239,207,198,195,195,195,188,170,152,140,122,118,112,103,93],"timestamp_mouse":[8,38,48,69,90,109,130,148,170,190,209,229,249,268,289,308,329,349,369,389,408,428,448,469,489,510,529,549,569,588,609,629,649,669,689,709,729,748,768,789,808,829,849,868,889,908,929,949,969],"xSR":741.5,"ySR":449.15000000000003,"xT1":424.9,"yT1":0,"xT2":1058.1,"yT2":0,"toosoon":0,"cond_shown":"equaldotanddens","ratio_trial":900,"smaller_num":"9","larger_num":"10","correct_side":1,"subjID":"SergioAndresGonzalezGutierrez6","gender":"0","age":"11","school":"6"},{"start_time":1551900283313,"click_time":1551900284347,"finger_time":1551900283868,"fix_duration":424.22953071946966,"trial":12,"RT":555,"MT":479,"sideResp":1,"stimulus":"img/500/equaldotanddens/L/4_Ratio_500_L_18_R_9.png","xmouse":[782,782,782,782,782,782,782,782,782,782,782,782,782,782,782,782,782,782,782,782,782,782,782,782,782,782,780,725,699,688,683,676,672,668,667,667,667,667,654,632,612,601,593,583,573,556,536,480,467,462,459,455],"ymouse":[476,476,476,476,476,476,476,476,476,476,476,476,476,476,476,476,476,476,476,476,476,476,476,476,476,476,476,362,315,291,276,261,253,246,246,246,246,245,232,213,204,199,194,185,172,159,144,115,108,104,102,96],"timestamp_mouse":[16,45,55,74,94,115,134,154,174,195,215,234,256,274,295,315,336,355,375,394,415,434,454,476,494,514,535,555,575,595,615,635,654,675,696,714,734,754,775,794,815,835,854,875,895,915,935,955,975,995,1014,1034],"xSR":741.5,"ySR":449.15000000000003,"xT1":424.9,"yT1":0,"xT2":1058.1,"yT2":0,"toosoon":0,"cond_shown":"equaldotanddens","ratio_trial":500,"smaller_num":"9","larger_num":"18","correct_side":1,"subjID":"SergioAndresGonzalezGutierrez6","gender":"0","age":"11","school":"6"},{"start_time":1551900287403,"click_time":1551900288608,"finger_time":1551900288228,"fix_duration":534.5572303847233,"trial":13,"RT":825,"MT":380,"sideResp":1,"stimulus":"img/900/randomdotsizeEA/L/1_Ratio_900_L_10_R_9.png","xmouse":[766,766,766,766,766,766,766,766,766,766,767,767,767,767,767,767,767,767,767,767,767,767,767,767,767,767,767,767,767,767,767,767,767,767,767,767,767,767,767,767,768,752,727,712,678,669,664,654,643,628,626,625,622,599,584,568,559,554,550,532,518],"ymouse":[494,494,494,494,494,494,494,494,494,495,495,495,495,495,495,495,495,495,495,495,495,495,495,495,495,495,495,495,495,495,495,495,495,495,495,495,495,495,495,495,494,449,417,399,361,350,342,323,305,281,278,272,262,220,196,173,159,150,141,110,92],"timestamp_mouse":[10,38,45,64,85,104,124,145,165,184,204,225,245,265,284,306,325,345,364,384,405,425,446,465,484,505,525,544,565,584,604,625,645,665,685,704,725,745,765,784,804,825,846,865,884,905,924,945,966,985,1005,1026,1044,1066,1084,1105,1125,1145,1166,1185,1205],"xSR":741.5,"ySR":449.15000000000003,"xT1":424.9,"yT1":0,"xT2":1058.1,"yT2":0,"toosoon":0,"cond_shown":"randomdotsizeEA","ratio_trial":900,"smaller_num":"9","larger_num":"10","correct_side":1,"subjID":"SergioAndresGonzalezGutierrez6","gender":"0","age":"11","school":"6"},{"start_time":1551900301879,"click_time":1551900303048,"finger_time":1551900302547,"fix_duration":330.7340327758453,"trial":14,"RT":668,"MT":501,"sideResp":1,"stimulus":"img/500/equaldotsize/L/4_Ratio_500_L_18_R_9.png","xmouse":[786,786,786,786,786,786,786,786,786,786,786,786,786,786,786,786,786,786,786,786,786,786,786,786,786,786,786,786,786,786,786,786,753,722,694,688,691,696,700,700,690,666,660,655,648,637,610,602,600,600,600,600,589,564,534,525,525,525,524],"ymouse":[520,520,520,520,520,520,520,520,520,520,520,520,520,520,520,520,520,520,520,520,520,520,520,520,520,520,520,520,520,520,520,518,482,436,390,376,356,338,323,303,265,235,229,225,218,207,186,181,179,179,179,179,164,145,119,105,97,92,90],"timestamp_mouse":[12,41,48,69,88,108,128,148,167,188,208,228,249,269,288,308,328,348,368,389,408,427,448,469,488,508,528,548,567,588,608,628,647,668,688,708,728,747,767,789,808,829,848,868,887,908,928,949,968,988,1008,1028,1048,1068,1088,1108,1128,1148,1169],"xSR":741.5,"ySR":449.15000000000003,"xT1":424.9,"yT1":0,"xT2":1058.1,"yT2":0,"toosoon":0,"cond_shown":"equaldotsize","ratio_trial":500,"smaller_num":"9","larger_num":"18","correct_side":1,"subjID":"SergioAndresGonzalezGutierrez6","gender":"0","age":"11","school":"6"},{"start_time":1551900306161,"click_time":1551900307288,"finger_time":1551900306788,"fix_duration":250,"trial":15,"RT":627,"MT":500,"sideResp":1,"stimulus":"img/250/equaldotanddens/L/15_Ratio_250_L_12_R_3.png","xmouse":[793,793,793,793,793,793,793,793,793,793,793,793,793,793,793,793,793,793,793,793,793,793,793,793,793,793,793,793,793,791,783,757,718,655,645,642,638,636,634,632,624,611,598,577,575,573,568,560,552,551,551,551,551,548,535,523,516],"ymouse":[490,490,490,490,490,490,490,490,490,490,490,490,490,490,490,490,490,490,490,490,490,490,490,490,490,490,490,490,490,484,460,398,322,224,211,207,203,201,200,198,187,171,157,143,142,140,134,126,118,117,117,117,117,113,105,100,95],"timestamp_mouse":[9,26,47,66,86,106,126,146,167,185,206,227,246,266,285,306,326,346,366,386,406,426,446,466,486,506,526,546,566,586,607,627,648,666,686,706,725,746,766,786,806,826,848,866,886,906,926,946,966,986,1006,1026,1046,1066,1086,1106,1127],"xSR":741.5,"ySR":449.15000000000003,"xT1":424.9,"yT1":0,"xT2":1058.1,"yT2":0,"toosoon":0,"cond_shown":"equaldotanddens","ratio_trial":250,"smaller_num":"3","larger_num":"12","correct_side":1,"subjID":"SergioAndresGonzalezGutierrez6","gender":"0","age":"11","school":"6"},{"start_time":1551900308818,"click_time":1551900309927,"finger_time":1551900309527,"fix_duration":250,"trial":16,"RT":709,"MT":400,"sideResp":2,"stimulus":"img/900/randomdotsizeEA/L/8_Ratio_900_L_20_R_18.png","xmouse":[771,771,771,771,771,771,771,771,771,771,771,771,771,771,771,771,771,771,771,771,771,771,771,771,771,771,771,771,771,771,771,771,771,771,776,837,895,945,969,982,1003,1012,1022,1036,1052,1079,1084,1087,1089,1092,1102,1104,1106,1109,1111,1114],"ymouse":[499,499,499,499,499,499,499,499,499,499,499,499,499,499,499,499,499,499,499,499,499,499,499,499,499,499,499,499,499,499,499,499,499,499,492,411,332,264,230,213,187,179,169,158,145,124,121,117,115,114,110,108,106,104,100,94],"timestamp_mouse":[14,43,49,70,89,109,129,149,169,189,209,229,249,269,289,309,329,349,370,390,410,429,449,469,489,509,529,549,569,589,609,629,648,669,689,708,729,749,769,789,809,830,849,869,890,910,930,949,971,989,1009,1030,1049,1069,1088,1109],"xSR":741.5,"ySR":449.15000000000003,"xT1":424.9,"yT1":0,"xT2":1058.1,"yT2":0,"toosoon":0,"cond_shown":"randomdotsizeEA","ratio_trial":900,"smaller_num":"18","larger_num":"20","correct_side":1,"subjID":"SergioAndresGonzalezGutierrez6","gender":"0","age":"11","school":"6"},{"start_time":1551900314462,"click_time":1551900315647,"finger_time":1551900315067,"fix_duration":1314.7914465812494,"trial":17,"RT":605,"MT":580,"sideResp":1,"stimulus":"img/250/randomdotsizeEA/L/14_Ratio_250_L_12_R_3.png","xmouse":[775,775,775,775,775,775,775,775,775,775,775,775,775,775,775,775,775,775,775,775,775,775,775,775,775,775,775,775,775,776,762,725,693,648,640,640,640,640,637,634,632,632,632,632,632,632,627,613,597,581,581,581,581,574,540,537,537,537,535,519],"ymouse":[511,511,511,511,511,511,511,511,511,511,511,511,511,511,511,511,511,511,511,511,511,511,511,511,511,511,511,511,511,511,436,362,315,256,243,243,243,243,223,216,213,212,212,212,212,212,204,188,175,163,163,163,163,148,113,108,107,107,94,71],"timestamp_mouse":[10,29,45,66,85,104,125,146,165,185,205,225,245,265,285,305,325,344,365,386,405,425,446,466,486,505,525,545,566,586,605,625,645,667,684,705,726,745,766,785,806,825,845,866,885,905,925,945,967,985,1006,1025,1045,1065,1085,1105,1125,1145,1167,1184],"xSR":741.5,"ySR":449.15000000000003,"xT1":424.9,"yT1":0,"xT2":1058.1,"yT2":0,"toosoon":0,"cond_shown":"randomdotsizeEA","ratio_trial":250,"smaller_num":"3","larger_num":"12","correct_side":1,"subjID":"SergioAndresGonzalezGutierrez6","gender":"0","age":"11","school":"6"},{"start_time":1551900317315,"click_time":1551900318047,"finger_time":1551900317888,"fix_duration":665.2883092998075,"trial":18,"RT":573,"MT":159,"sideResp":2,"stimulus":"img/750/equaldotanddens/R/7_Ratio_750_L_3_R_4.png","xmouse":[784,784,784,784,784,784,784,784,784,784,784,784,784,784,784,784,784,784,784,784,784,784,784,784,784,784,791,811,846,908,1005,1098,1110,1113,1115,1115,1115],"ymouse":[479,479,479,479,479,479,479,479,479,479,479,479,479,479,479,479,479,479,479,479,479,479,479,479,479,479,480,480,473,441,364,236,193,160,133,113,93],"timestamp_mouse":[12,32,61,72,92,112,132,152,173,192,212,232,252,271,293,312,332,351,372,392,412,432,452,472,492,513,532,551,573,592,613,632,652,672,692,712,732],"xSR":741.5,"ySR":449.15000000000003,"xT1":424.9,"yT1":0,"xT2":1058.1,"yT2":0,"toosoon":0,"cond_shown":"equaldotanddens","ratio_trial":750,"smaller_num":"3","larger_num":"4","correct_side":2,"subjID":"SergioAndresGonzalezGutierrez6","gender":"0","age":"11","school":"6"},{"start_time":1551900319659,"click_time":1551900320569,"finger_time":1551900320107,"fix_duration":250,"trial":19,"RT":448,"MT":462,"sideResp":1,"stimulus":"img/750/equaldotanddens/L/1_Ratio_750_L_20_R_15.png","xmouse":[805,805,805,805,805,805,805,805,805,805,805,805,805,805,805,805,805,805,805,805,800,786,745,682,643,641,641,639,634,625,599,588,582,577,550,530,513,498,491,490,490,490,491,491,491,491],"ymouse":[510,510,510,510,510,510,510,510,510,510,510,510,510,510,510,510,510,510,510,510,499,475,423,359,332,330,330,328,321,308,275,260,253,247,215,199,184,172,167,165,161,153,133,118,102,99],"timestamp_mouse":[9,28,48,68,89,108,129,148,169,188,208,228,248,268,288,308,328,348,368,388,408,428,448,468,488,508,528,548,568,588,608,628,648,668,688,709,728,749,768,789,808,828,848,868,888,909],"xSR":741.5,"ySR":449.15000000000003,"xT1":424.9,"yT1":0,"xT2":1058.1,"yT2":0,"toosoon":0,"cond_shown":"equaldotanddens","ratio_trial":750,"smaller_num":"15","larger_num":"20","correct_side":1,"subjID":"SergioAndresGonzalezGutierrez6","gender":"0","age":"11","school":"6"},{"start_time":1551900322820,"click_time":1551900323667,"finger_time":1551900323328,"fix_duration":1231.515984983733,"trial":20,"RT":508,"MT":339,"sideResp":2,"stimulus":"img/900/randomdotsizeEA/R/3_Ratio_900_L_9_R_10.png","xmouse":[769,769,769,769,769,769,769,769,769,769,769,769,769,769,769,769,769,769,769,769,769,769,768,782,789,830,899,925,945,958,967,991,1003,1013,1027,1035,1063,1079,1090,1095,1100,1117,1125],"ymouse":[500,500,500,500,500,500,500,500,500,500,500,500,500,500,500,500,500,500,500,500,500,500,493,463,453,411,347,315,289,270,257,232,222,213,203,198,179,166,156,151,144,114,97],"timestamp_mouse":[9,27,46,67,87,108,128,148,167,188,207,227,247,267,287,307,328,347,367,387,407,427,447,467,487,508,528,547,567,587,607,629,647,668,687,708,728,747,768,787,808,829,847],"xSR":741.5,"ySR":449.15000000000003,"xT1":424.9,"yT1":0,"xT2":1058.1,"yT2":0,"toosoon":0,"cond_shown":"randomdotsizeEA","ratio_trial":900,"smaller_num":"9","larger_num":"10","correct_side":2,"subjID":"SergioAndresGonzalezGutierrez6","gender":"0","age":"11","school":"6"},{"start_time":1551900325072,"click_time":1551900326087,"finger_time":1551900325727,"fix_duration":581.687222569327,"trial":21,"RT":655,"MT":360,"sideResp":2,"stimulus":"img/900/equaldotanddens/R/3_Ratio_900_L_9_R_10.png","xmouse":[785,785,785,785,785,785,785,785,785,785,785,785,785,785,785,785,785,785,785,785,785,785,785,785,785,785,785,785,785,802,809,818,828,843,883,902,917,931,948,993,1018,1027,1035,1043,1056,1063,1075,1083,1089,1107,1126],"ymouse":[503,503,503,503,503,503,503,503,503,503,503,503,503,503,503,503,503,503,503,503,503,503,503,503,503,503,503,503,498,475,467,458,446,429,382,365,351,337,323,284,262,251,243,231,206,188,167,153,143,114,60],"timestamp_mouse":[21,35,55,75,95,115,135,155,175,195,215,235,255,275,295,315,336,355,375,396,415,436,454,475,495,515,534,555,575,595,615,636,655,675,695,715,735,756,775,795,815,836,855,875,895,915,935,956,975,995,1014],"xSR":741.5,"ySR":449.15000000000003,"xT1":424.9,"yT1":0,"xT2":1058.1,"yT2":0,"toosoon":0,"cond_shown":"equaldotanddens","ratio_trial":900,"smaller_num":"9","larger_num":"10","correct_side":2,"subjID":"SergioAndresGonzalezGutierrez6","gender":"0","age":"11","school":"6"},{"start_time":1551900329788,"click_time":1551900330887,"finger_time":1551900330327,"fix_duration":698.0842148424276,"trial":22,"RT":539,"MT":560,"sideResp":1,"stimulus":"img/250/equaldotanddens/L/1_Ratio_250_L_8_R_2.png","xmouse":[800,800,800,800,800,800,800,800,800,800,800,800,800,800,800,800,800,800,800,800,800,800,800,800,791,771,749,719,688,670,657,653,651,647,633,623,613,607,605,603,598,590,581,579,579,573,565,543,519,503,501,501,501,501,499,492],"ymouse":[521,521,521,521,521,521,521,521,521,521,521,521,521,521,521,521,521,521,521,521,521,521,521,521,508,489,468,433,389,360,328,319,313,303,278,263,251,241,237,229,217,202,184,176,168,158,149,131,117,109,107,107,107,105,102,98],"timestamp_mouse":[1,19,40,59,80,99,119,140,159,179,199,219,239,259,279,299,319,339,359,378,400,420,439,459,479,499,519,539,560,579,599,619,639,659,680,698,719,739,759,780,799,820,839,859,880,899,920,939,959,979,999,1019,1038,1058,1079,1099],"xSR":741.5,"ySR":449.15000000000003,"xT1":424.9,"yT1":0,"xT2":1058.1,"yT2":0,"toosoon":0,"cond_shown":"equaldotanddens","ratio_trial":250,"smaller_num":"2","larger_num":"8","correct_side":1,"subjID":"SergioAndresGonzalezGutierrez6","gender":"0","age":"11","school":"6"},{"start_time":1551900332232,"click_time":1551900333427,"finger_time":1551900332747,"fix_duration":443.098388165858,"trial":23,"RT":515,"MT":680,"sideResp":1,"stimulus":"img/750/equaldotsize/L/8_Ratio_750_L_4_R_3.png","xmouse":[806,806,806,806,804,795,782,765,765,765,765,765,765,765,765,765,765,765,766,767,762,756,753,753,750,745,689,618,587,578,578,578,578,578,578,577,558,550,548,548,548,547,544,542,539,536,533,526,520,519,519,519,518,514,512,510,506,504,502,498],"ymouse":[494,494,494,494,496,504,519,538,538,538,538,538,538,538,538,538,538,531,516,484,469,458,452,452,450,446,398,337,300,281,268,264,263,263,263,260,230,212,206,201,195,186,168,162,152,146,138,126,121,119,119,119,117,110,109,106,103,101,100,93],"timestamp_mouse":[16,39,55,75,95,116,135,155,175,195,215,235,255,275,295,315,336,355,375,395,415,435,455,475,495,515,537,555,575,594,615,635,655,675,695,715,736,754,775,795,815,836,855,875,895,915,935,955,975,995,1015,1037,1055,1075,1095,1115,1136,1155,1175,1195],"xSR":741.5,"ySR":449.15000000000003,"xT1":424.9,"yT1":0,"xT2":1058.1,"yT2":0,"toosoon":0,"cond_shown":"equaldotsize","ratio_trial":750,"smaller_num":"3","larger_num":"4","correct_side":1,"subjID":"SergioAndresGonzalezGutierrez6","gender":"0","age":"11","school":"6"},{"start_time":1551900336178,"click_time":1551900337127,"finger_time":1551900336827,"fix_duration":250,"trial":24,"RT":649,"MT":300,"sideResp":2,"stimulus":"img/900/equaldotsize/R/13_Ratio_900_L_18_R_20.png","xmouse":[774,772,772,772,772,771,771,771,771,771,771,771,770,770,770,770,770,770,770,770,770,770,770,770,770,770,770,770,770,770,770,770,789,818,851,921,941,954,971,983,1014,1032,1045,1051,1053,1054,1055,1059],"ymouse":[465,466,466,466,468,469,470,470,470,470,470,470,470,470,470,470,470,470,470,470,470,470,470,470,470,470,470,470,470,470,470,470,440,387,336,244,220,202,181,168,131,114,102,95,93,92,91,88],"timestamp_mouse":[16,30,57,70,89,109,130,149,169,189,209,229,249,270,289,310,329,349,369,389,409,429,449,470,488,509,529,550,570,589,609,629,649,669,690,709,730,749,770,789,809,830,849,869,889,909,929,949],"xSR":741.5,"ySR":449.15000000000003,"xT1":424.9,"yT1":0,"xT2":1058.1,"yT2":0,"toosoon":0,"cond_shown":"equaldotsize","ratio_trial":900,"smaller_num":"18","larger_num":"20","correct_side":2,"subjID":"SergioAndresGonzalezGutierrez6","gender":"0","age":"11","school":"6"},{"start_time":1551900340049,"click_time":1551900341607,"finger_time":1551900340788,"fix_duration":541.6972231270953,"trial":25,"RT":739,"MT":819,"sideResp":2,"stimulus":"img/900/equaldotanddens/R/15_Ratio_900_L_9_R_10.png","xmouse":[783,783,783,783,783,783,783,783,783,783,783,783,783,783,783,783,783,783,783,783,783,783,783,783,783,783,783,783,783,783,783,783,788,796,807,819,853,887,927,964,988,1013,1021,1033,1044,1052,1060,1071,1074,1076,1076,1077,1077,1077,1077,1077,1072,1056,1040,1029,1014,1001,992,990,988,988,988,988,990,995,1017,1045,1093,1107,1119,1125,1132,1149],"ymouse":[511,511,511,511,511,511,511,511,511,511,511,511,511,511,511,511,511,511,511,511,511,511,511,511,511,511,511,511,511,511,511,511,503,488,472,456,414,376,340,312,290,258,245,225,209,198,188,170,166,162,161,159,159,159,159,159,160,175,189,197,206,214,219,221,223,223,223,223,223,223,217,199,164,153,138,129,119,94],"timestamp_mouse":[18,39,59,78,98,119,138,157,179,198,218,238,258,279,297,318,339,359,378,399,418,438,458,478,498,518,538,559,578,598,618,639,658,677,698,718,739,758,778,798,818,840,857,879,898,918,938,958,978,998,1018,1039,1057,1077,1098,1118,1139,1158,1179,1198,1219,1238,1257,1278,1298,1318,1339,1358,1378,1398,1418,1438,1458,1478,1498,1519,1539,1558],"xSR":741.5,"ySR":449.15000000000003,"xT1":424.9,"yT1":0,"xT2":1058.1,"yT2":0,"toosoon":0,"cond_shown":"equaldotanddens","ratio_trial":900,"smaller_num":"9","larger_num":"10","correct_side":2,"subjID":"SergioAndresGonzalezGutierrez6","gender":"0","age":"11","school":"6"},{"start_time":1551900343237,"click_time":1551900344387,"finger_time":1551900343807,"fix_duration":488.95454490210875,"trial":26,"RT":570,"MT":580,"sideResp":2,"stimulus":"img/250/equaldotsize/R/9_Ratio_250_L_3_R_12.png","xmouse":[808,808,808,808,808,808,808,808,808,808,808,808,808,807,804,800,793,790,789,789,789,789,789,789,789,791,798,824,893,919,942,958,968,983,990,997,1003,1012,1022,1025,1029,1032,1036,1040,1046,1048,1049,1049,1049,1049,1051,1054,1054,1055,1055,1056,1058,1064],"ymouse":[497,497,497,497,497,497,497,497,497,497,497,497,497,497,497,498,500,501,501,501,501,501,501,501,501,499,496,473,362,298,244,211,186,136,119,102,88,72,55,49,43,40,38,35,32,30,30,30,30,30,30,30,30,31,31,32,32,34],"timestamp_mouse":[10,37,50,71,89,110,130,150,170,190,210,230,250,270,289,310,330,350,370,390,410,429,450,470,490,510,530,550,570,591,610,630,650,670,690,710,730,751,770,790,810,830,851,870,891,910,930,950,970,990,1011,1031,1050,1070,1090,1110,1130,1150],"xSR":741.5,"ySR":449.15000000000003,"xT1":424.9,"yT1":0,"xT2":1058.1,"yT2":0,"toosoon":0,"cond_shown":"equaldotsize","ratio_trial":250,"smaller_num":"3","larger_num":"12","correct_side":2,"subjID":"SergioAndresGonzalezGutierrez6","gender":"0","age":"11","school":"6"},{"start_time":1551900345657,"click_time":1551900346567,"finger_time":1551900346127,"fix_duration":388.46706783186033,"trial":27,"RT":470,"MT":440,"sideResp":2,"stimulus":"img/250/equaldotanddens/R/11_Ratio_250_L_3_R_12.png","xmouse":[790,790,792,792,792,792,792,792,792,792,792,792,792,792,792,792,792,792,792,792,793,796,805,856,888,917,943,974,986,999,1014,1021,1046,1054,1058,1061,1063,1066,1070,1076,1090,1096,1099,1105,1107,1109],"ymouse":[508,508,508,508,508,508,508,508,508,508,508,508,508,508,508,508,508,508,508,508,508,507,502,449,405,368,332,285,269,252,228,216,180,168,161,156,153,148,144,136,121,113,108,102,101,99],"timestamp_mouse":[10,31,51,70,90,110,130,150,170,190,210,229,249,270,290,310,330,351,370,390,410,430,450,470,490,511,531,550,570,590,610,630,651,669,690,710,730,751,769,791,810,830,850,870,890,910],"xSR":741.5,"ySR":449.15000000000003,"xT1":424.9,"yT1":0,"xT2":1058.1,"yT2":0,"toosoon":0,"cond_shown":"equaldotanddens","ratio_trial":250,"smaller_num":"3","larger_num":"12","correct_side":2,"subjID":"SergioAndresGonzalezGutierrez6","gender":"0","age":"11","school":"6"},{"start_time":1551900347587,"click_time":1551900348687,"finger_time":1551900348447,"fix_duration":319.4150010182107,"trial":28,"RT":860,"MT":240,"sideResp":2,"stimulus":"img/750/randomdotsizeEA/R/12_Ratio_750_L_3_R_4.png","xmouse":[814,814,814,814,814,814,814,814,814,814,814,814,814,814,814,814,813,813,813,813,812,812,808,805,802,801,800,800,800,800,800,800,800,800,800,800,800,800,800,801,802,809,840,862,909,945,1008,1028,1044,1055,1065,1085,1091,1101,1110,1117],"ymouse":[520,520,520,520,520,520,520,520,520,520,520,520,520,520,520,520,521,521,521,521,521,521,521,522,523,523,523,523,523,523,523,523,523,523,523,523,523,523,523,523,523,521,495,473,420,372,271,231,204,186,168,139,131,116,105,94],"timestamp_mouse":[5,20,43,61,80,101,120,140,160,181,200,220,240,260,281,299,320,340,361,379,400,420,440,460,480,500,520,541,560,581,600,620,640,660,680,700,720,741,760,781,800,820,840,860,881,900,921,940,961,980,1000,1020,1040,1060,1081,1100],"xSR":741.5,"ySR":449.15000000000003,"xT1":424.9,"yT1":0,"xT2":1058.1,"yT2":0,"toosoon":0,"cond_shown":"randomdotsizeEA","ratio_trial":750,"smaller_num":"3","larger_num":"4","correct_side":2,"subjID":"SergioAndresGonzalezGutierrez6","gender":"0","age":"11","school":"6"},{"start_time":1551900350096,"click_time":1551900351527,"finger_time":1551900350687,"fix_duration":467.70380096150296,"trial":29,"RT":591,"MT":840,"sideResp":1,"stimulus":"img/750/equaldotsize/L/10_Ratio_750_L_4_R_3.png","xmouse":[769,769,769,769,769,769,769,769,769,769,769,769,769,769,769,769,769,769,769,769,769,769,769,769,769,769,769,769,769,763,757,752,748,741,733,702,670,659,635,627,621,616,609,603,599,595,588,579,572,569,568,564,562,560,558,546,533,525,520,514,508,492,485,483,483,483,483,483,483,483,484,486],"ymouse":[479,479,479,479,479,479,479,479,479,479,479,479,479,479,479,479,479,479,479,479,479,479,479,479,479,479,479,479,479,445,429,409,400,390,379,347,328,322,307,298,283,272,262,251,244,234,212,195,184,178,173,164,160,155,153,143,135,131,128,124,120,112,108,108,108,108,108,108,108,108,106,99],"timestamp_mouse":[12,35,51,72,91,111,131,151,172,191,211,231,251,271,291,312,331,351,371,391,412,431,450,471,491,511,531,551,571,591,613,632,652,671,691,714,731,751,771,791,813,831,852,871,891,911,931,952,970,991,1012,1031,1051,1071,1091,1113,1131,1151,1171,1191,1211,1231,1251,1271,1291,1313,1332,1351,1371,1391,1411,1430],"xSR":741.5,"ySR":449.15000000000003,"xT1":424.9,"yT1":0,"xT2":1058.1,"yT2":0,"toosoon":0,"cond_shown":"equaldotsize","ratio_trial":750,"smaller_num":"3","larger_num":"4","correct_side":1,"subjID":"SergioAndresGonzalezGutierrez6","gender":"0","age":"11","school":"6"},{"start_time":1551900353460,"click_time":1551900354268,"finger_time":1551900354047,"fix_duration":851.9972396715756,"trial":30,"RT":587,"MT":221,"sideResp":2,"stimulus":"img/250/equaldotanddens/R/9_Ratio_250_L_3_R_12.png","xmouse":[796,796,796,796,796,796,796,796,796,796,796,796,796,796,796,796,796,796,796,796,796,796,796,796,796,796,798,803,833,850,871,894,917,962,988,1006,1021,1031,1050,1056,1062],"ymouse":[500,500,500,500,500,500,500,500,500,500,500,500,500,500,500,500,500,500,500,500,500,500,500,500,500,500,500,498,453,422,384,340,298,214,169,144,125,110,88,81,76],"timestamp_mouse":[9,38,47,67,87,107,127,147,167,187,207,227,247,267,287,307,327,347,367,388,408,427,447,467,487,508,528,547,567,587,608,628,647,667,687,707,727,747,767,788,808],"xSR":741.5,"ySR":449.15000000000003,"xT1":424.9,"yT1":0,"xT2":1058.1,"yT2":0,"toosoon":0,"cond_shown":"equaldotanddens","ratio_trial":250,"smaller_num":"3","larger_num":"12","correct_side":2,"subjID":"SergioAndresGonzalezGutierrez6","gender":"0","age":"11","school":"6"},{"start_time":1551900356594,"click_time":1551900358568,"finger_time":1551900357406,"fix_duration":966.0241266654966,"trial":31,"RT":812,"MT":1162,"sideResp":1,"stimulus":"img/750/equaldotanddens/L/1_Ratio_750_L_20_R_15.png","xmouse":[806,806,800,798,798,798,797,797,797,797,797,797,797,797,797,797,797,797,797,797,797,797,797,797,797,797,797,797,797,797,797,797,797,797,797,797,797,797,793,786,766,737,731,729,729,729,712,695,677,662,662,658,655,653,651,650,648,648,648,648,645,635,616,609,607,606,606,606,606,599,595,594,568,557,551,546,538,534,528,527,523,518,515,514,514,513,510,510,506,504,501,496,494,494,494,496,498,501,510],"ymouse":[477,477,480,482,482,482,483,483,483,483,483,483,483,483,483,483,483,483,483,483,483,483,483,483,483,483,483,483,483,483,483,483,483,483,483,483,483,483,472,453,422,388,383,381,381,381,360,350,341,336,336,328,315,300,286,280,274,274,274,274,267,248,215,202,198,196,196,196,196,187,183,182,170,169,168,167,167,167,164,163,159,152,149,146,146,146,144,144,144,144,143,141,141,140,138,137,134,114,96],"timestamp_mouse":[15,33,53,73,93,113,133,154,174,193,217,233,254,273,293,313,333,353,373,393,412,433,453,473,493,513,533,553,573,593,613,633,653,673,693,714,732,753,774,793,812,837,853,873,893,913,935,953,973,993,1013,1035,1053,1073,1093,1114,1134,1153,1173,1193,1212,1233,1253,1274,1293,1312,1334,1353,1373,1393,1413,1433,1453,1474,1493,1513,1535,1553,1574,1594,1613,1634,1653,1673,1693,1713,1735,1752,1773,1793,1813,1834,1853,1873,1893,1913,1933,1953,1974],"xSR":741.5,"ySR":449.15000000000003,"xT1":424.9,"yT1":0,"xT2":1058.1,"yT2":0,"toosoon":0,"cond_shown":"equaldotanddens","ratio_trial":750,"smaller_num":"15","larger_num":"20","correct_side":1,"subjID":"SergioAndresGonzalezGutierrez6","gender":"0","age":"11","school":"6"},{"start_time":1551900361873,"click_time":1551900362628,"finger_time":1551900362526,"fix_duration":724.201853048711,"trial":32,"RT":653,"MT":102,"sideResp":1,"stimulus":"img/500/equaldotanddens/L/7_Ratio_500_L_10_R_5.png","xmouse":[771,771,771,771,771,771,771,771,771,771,771,771,771,771,771,771,771,771,771,771,771,771,771,771,771,771,771,771,771,771,771,772,748,603,540,494,473,462],"ymouse":[502,502,502,502,502,502,502,502,502,502,502,502,502,502,502,502,502,502,502,502,502,502,502,502,502,502,502,502,502,502,502,498,446,252,191,139,109,89],"timestamp_mouse":[14,37,53,74,94,113,134,154,173,193,213,234,254,273,294,314,335,354,374,394,414,433,454,475,494,514,534,553,573,593,613,633,653,674,694,714,734,754],"xSR":741.5,"ySR":449.15000000000003,"xT1":424.9,"yT1":0,"xT2":1058.1,"yT2":0,"toosoon":0,"cond_shown":"equaldotanddens","ratio_trial":500,"smaller_num":"5","larger_num":"10","correct_side":1,"subjID":"SergioAndresGonzalezGutierrez6","gender":"0","age":"11","school":"6"},{"start_time":1551900366981,"click_time":1551900367908,"finger_time":1551900367587,"fix_duration":293.6161707196939,"trial":33,"RT":606,"MT":321,"sideResp":1,"stimulus":"img/900/randomdotsizeEA/R/11_Ratio_900_L_18_R_20.png","xmouse":[795,795,795,795,795,795,795,795,795,795,795,795,795,795,795,795,795,795,795,795,795,795,795,795,795,795,795,795,795,794,731,640,573,539,531,531,531,532,535,537,537,537,537,537,536,527,520],"ymouse":[523,523,523,523,523,523,523,523,523,523,523,523,523,523,523,523,523,523,523,523,523,523,523,523,523,523,523,523,523,523,427,350,290,254,231,218,212,198,182,149,140,136,135,135,126,106,94],"timestamp_mouse":[9,25,45,67,86,105,125,146,166,186,206,225,246,266,286,306,325,346,367,386,406,425,446,466,486,506,526,545,566,586,606,625,645,665,686,706,726,745,765,786,806,825,845,865,886,906,927],"xSR":741.5,"ySR":449.15000000000003,"xT1":424.9,"yT1":0,"xT2":1058.1,"yT2":0,"toosoon":0,"cond_shown":"randomdotsizeEA","ratio_trial":900,"smaller_num":"18","larger_num":"20","correct_side":2,"subjID":"SergioAndresGonzalezGutierrez6","gender":"0","age":"11","school":"6"},{"start_time":1551900370036,"click_time":1551900370967,"finger_time":1551900370767,"fix_duration":1088.1432977357535,"trial":34,"RT":731,"MT":200,"sideResp":1,"stimulus":"img/900/randomdotsizeEA/R/12_Ratio_900_L_18_R_20.png","xmouse":[790,790,790,790,790,790,790,781,778,777,777,777,777,777,777,777,777,777,777,777,777,777,777,777,777,777,777,777,777,777,777,776,776,776,775,775,763,744,714,671,606,579,553,545,539,532,522],"ymouse":[529,529,529,529,529,529,529,523,521,520,520,520,520,520,520,520,520,520,520,520,520,520,520,520,520,520,520,520,520,520,520,501,488,481,472,468,438,409,370,316,251,223,186,164,142,120,90],"timestamp_mouse":[10,40,52,71,91,112,131,152,171,191,211,231,250,271,291,311,332,350,371,391,411,431,450,471,491,512,531,550,571,591,611,631,651,671,691,711,731,750,771,792,811,830,850,870,891,910,930],"xSR":741.5,"ySR":449.15000000000003,"xT1":424.9,"yT1":0,"xT2":1058.1,"yT2":0,"toosoon":0,"cond_shown":"randomdotsizeEA","ratio_trial":900,"smaller_num":"18","larger_num":"20","correct_side":2,"subjID":"SergioAndresGonzalezGutierrez6","gender":"0","age":"11","school":"6"},{"start_time":1551900372825,"click_time":1551900373868,"finger_time":1551900373367,"fix_duration":657.1453182659205,"trial":35,"RT":542,"MT":501,"sideResp":1,"stimulus":"img/250/equaldotanddens/L/3_Ratio_250_L_8_R_2.png","xmouse":[792,792,792,792,792,791,791,791,791,791,791,791,791,791,791,791,791,791,791,791,791,791,791,791,791,791,779,687,628,560,509,464,429,420,413,408,399,392,392,392,392,392,392,392,393,396,397,398,399,399,403,424,458],"ymouse":[514,514,514,514,514,514,514,514,514,514,514,514,514,514,514,514,514,514,514,514,514,514,514,514,513,497,451,303,240,194,165,139,119,109,102,91,79,67,67,66,65,65,65,65,64,63,63,63,63,63,63,63,63],"timestamp_mouse":[1,22,48,62,82,101,122,142,162,183,202,223,242,262,281,302,322,342,361,383,402,422,441,461,482,502,522,542,563,582,602,622,642,661,682,702,722,743,761,782,801,821,842,861,881,901,922,942,962,983,1002,1022,1042],"xSR":741.5,"ySR":449.15000000000003,"xT1":424.9,"yT1":0,"xT2":1058.1,"yT2":0,"toosoon":0,"cond_shown":"equaldotanddens","ratio_trial":250,"smaller_num":"2","larger_num":"8","correct_side":1,"subjID":"SergioAndresGonzalezGutierrez6","gender":"0","age":"11","school":"6"},{"start_time":1551900376097,"click_time":1551900377126,"finger_time":1551900376726,"fix_duration":1409.2283647503646,"trial":36,"RT":629,"MT":400,"sideResp":1,"stimulus":"img/250/randomdotsizeEA/L/5_Ratio_250_L_24_R_6.png","xmouse":[797,798,798,798,798,798,798,798,798,798,798,797,797,797,797,797,797,797,796,796,796,796,796,796,796,796,796,796,796,794,787,772,742,649,594,577,569,565,563,558,555,553,549,543,536,536,536,536,536,535,531,507],"ymouse":[498,498,498,498,498,498,498,498,498,498,497,496,496,496,496,496,496,496,496,496,496,496,496,496,496,496,496,496,496,492,469,428,370,237,162,136,120,109,100,82,78,72,68,62,56,56,56,56,56,56,56,54],"timestamp_mouse":[12,29,52,71,91,111,130,150,169,191,209,230,250,271,289,310,329,350,370,390,410,430,449,471,490,509,530,553,571,590,609,629,650,671,689,710,729,749,771,790,810,830,850,870,889,910,930,950,971,990,1010,1029],"xSR":741.5,"ySR":449.15000000000003,"xT1":424.9,"yT1":0,"xT2":1058.1,"yT2":0,"toosoon":0,"cond_shown":"randomdotsizeEA","ratio_trial":250,"smaller_num":"6","larger_num":"24","correct_side":1,"subjID":"SergioAndresGonzalezGutierrez6","gender":"0","age":"11","school":"6"},{"start_time":1551900378378,"click_time":1551900379527,"finger_time":1551900379207,"fix_duration":250,"trial":37,"RT":829,"MT":320,"sideResp":2,"stimulus":"img/750/randomdotsizeEA/R/4_Ratio_750_L_15_R_20.png","xmouse":[820,820,820,820,820,820,820,820,820,820,820,820,820,820,820,820,820,820,820,820,820,820,820,820,820,820,820,820,820,820,820,820,820,820,820,820,820,820,820,820,836,858,885,921,955,994,1008,1017,1023,1034,1054,1068,1083,1095,1104,1128,1139,1148],"ymouse":[498,498,498,498,498,498,498,498,498,498,498,498,498,498,498,498,498,498,498,498,498,498,498,498,498,498,498,498,498,498,498,498,498,498,498,498,498,498,498,497,468,442,408,367,325,265,241,227,218,205,188,177,167,157,148,120,107,97],"timestamp_mouse":[10,35,49,69,88,108,129,149,169,188,209,229,249,269,288,308,330,350,369,389,409,428,449,468,490,508,529,550,569,589,608,629,649,669,688,709,730,748,769,788,809,829,848,868,889,908,930,949,968,989,1008,1029,1049,1069,1090,1109,1129,1149],"xSR":741.5,"ySR":449.15000000000003,"xT1":424.9,"yT1":0,"xT2":1058.1,"yT2":0,"toosoon":0,"cond_shown":"randomdotsizeEA","ratio_trial":750,"smaller_num":"15","larger_num":"20","correct_side":2,"subjID":"SergioAndresGonzalezGutierrez6","gender":"0","age":"11","school":"6"},{"start_time":1551900381373,"click_time":1551900382528,"finger_time":1551900381967,"fix_duration":804.370960220479,"trial":38,"RT":594,"MT":561,"sideResp":2,"stimulus":"img/500/equaldotsize/R/2_Ratio_500_L_3_R_6.png","xmouse":[789,789,789,789,789,789,789,789,789,789,789,789,789,789,789,789,789,789,789,789,789,789,789,789,789,789,795,805,834,860,934,960,976,988,997,1013,1023,1033,1045,1058,1076,1081,1087,1092,1097,1105,1120,1122,1124,1124,1126,1126,1128,1129,1130,1131,1138,1144],"ymouse":[500,500,500,500,500,500,500,500,500,500,500,500,500,500,500,500,500,500,500,500,500,500,500,500,500,500,496,489,466,443,375,349,331,313,301,279,268,256,241,226,203,194,186,178,170,160,143,140,136,135,131,128,125,121,119,115,103,94],"timestamp_mouse":[13,33,62,74,94,113,133,153,174,194,213,233,253,273,294,314,334,354,374,394,414,433,453,473,494,514,533,553,573,594,615,634,654,674,694,714,733,754,774,793,814,833,855,874,894,914,934,954,974,994,1015,1033,1055,1074,1094,1114,1133,1154],"xSR":741.5,"ySR":449.15000000000003,"xT1":424.9,"yT1":0,"xT2":1058.1,"yT2":0,"toosoon":0,"cond_shown":"equaldotsize","ratio_trial":500,"smaller_num":"3","larger_num":"6","correct_side":2,"subjID":"SergioAndresGonzalezGutierrez6","gender":"0","age":"11","school":"6"},{"start_time":1551900384016,"click_time":1551900385286,"finger_time":1551900384488,"fix_duration":286.6554912888151,"trial":39,"RT":472,"MT":798,"sideResp":1,"stimulus":"img/750/equaldotanddens/L/13_Ratio_750_L_8_R_6.png","xmouse":[768,768,768,768,768,768,768,768,768,768,768,768,768,768,768,768,768,768,768,768,772,773,773,765,720,669,608,560,536,523,522,522,522,522,524,525,526,526,531,541,546,549,550,551,551,551,551,551,551,551,548,546,544,533,531,531,531,531,529,529,529,529,529,524],"ymouse":[507,507,507,507,507,507,507,507,507,507,507,507,507,507,507,507,507,507,507,507,496,492,478,435,367,313,260,222,203,185,182,177,167,146,139,134,133,133,129,121,116,110,108,101,98,97,96,96,96,95,92,90,88,82,82,82,82,82,81,81,81,81,81,79],"timestamp_mouse":[14,38,52,72,91,110,130,151,171,191,210,231,251,271,291,311,331,351,371,391,411,430,450,472,490,511,530,552,572,591,611,630,651,673,691,711,731,750,773,791,811,830,852,872,890,911,930,950,970,990,1011,1031,1051,1073,1091,1111,1131,1151,1172,1191,1211,1231,1251,1270],"xSR":741.5,"ySR":449.15000000000003,"xT1":424.9,"yT1":0,"xT2":1058.1,"yT2":0,"toosoon":0,"cond_shown":"equaldotanddens","ratio_trial":750,"smaller_num":"6","larger_num":"8","correct_side":1,"subjID":"SergioAndresGonzalezGutierrez6","gender":"0","age":"11","school":"6"},{"start_time":1551900386949,"click_time":1551900387807,"finger_time":1551900387406,"fix_duration":621.5132165643201,"trial":40,"RT":457,"MT":401,"sideResp":2,"stimulus":"img/500/equaldotsize/R/6_Ratio_500_L_9_R_18.png","xmouse":[794,794,794,794,794,794,794,794,794,794,794,794,794,794,794,794,794,794,794,795,802,821,848,855,863,872,890,937,949,962,976,990,1017,1028,1039,1047,1052,1053,1056,1061,1071,1082,1099],"ymouse":[489,489,489,489,490,491,492,492,492,492,492,492,492,492,492,492,492,492,492,493,491,483,463,452,438,419,384,313,297,278,259,242,207,190,174,159,147,143,138,132,124,115,99],"timestamp_mouse":[17,41,57,77,97,117,137,159,179,198,218,238,257,277,297,317,338,357,377,397,418,438,457,477,498,519,538,558,578,597,618,637,659,678,698,719,738,757,777,798,817,838,857],"xSR":741.5,"ySR":449.15000000000003,"xT1":424.9,"yT1":0,"xT2":1058.1,"yT2":0,"toosoon":0,"cond_shown":"equaldotsize","ratio_trial":500,"smaller_num":"9","larger_num":"18","correct_side":2,"subjID":"SergioAndresGonzalezGutierrez6","gender":"0","age":"11","school":"6"},{"start_time":1551900390051,"click_time":1551900390967,"finger_time":1551900390527,"fix_duration":1442.5838604579046,"trial":41,"RT":476,"MT":440,"sideResp":2,"stimulus":"img/750/equaldotsize/R/15_Ratio_750_L_9_R_12.png","xmouse":[796,796,796,796,796,796,796,796,792,791,787,786,785,785,785,785,785,785,785,785,785,784,765,711,705,705,705,705,705,705,705,705,705,705,705,705,705,737,773,824,915,974,1046,1068,1082,1087],"ymouse":[492,492,492,492,492,492,492,492,495,497,503,504,505,505,506,506,506,506,506,506,506,506,506,506,506,506,506,506,506,506,506,506,506,506,506,506,506,479,453,413,329,270,176,136,111,98],"timestamp_mouse":[16,37,67,76,95,117,135,155,176,196,216,236,255,276,295,316,336,356,375,397,416,435,456,476,496,516,536,556,576,595,616,635,656,676,695,715,736,756,775,797,815,835,857,875,896,916],"xSR":741.5,"ySR":449.15000000000003,"xT1":424.9,"yT1":0,"xT2":1058.1,"yT2":0,"toosoon":0,"cond_shown":"equaldotsize","ratio_trial":750,"smaller_num":"9","larger_num":"12","correct_side":2,"subjID":"SergioAndresGonzalezGutierrez6","gender":"0","age":"11","school":"6"},{"start_time":1551900392980,"click_time":1551900393826,"finger_time":1551900393567,"fix_duration":1091.8455988596982,"trial":42,"RT":587,"MT":259,"sideResp":1,"stimulus":"img/900/equaldotanddens/L/10_Ratio_900_L_20_R_18.png","xmouse":[792,792,792,792,792,792,792,792,792,792,792,792,792,792,792,792,792,792,792,792,792,792,792,792,792,792,792,792,784,750,683,565,547,547,547,547,547,547,546,545,543,532,523],"ymouse":[475,475,475,475,475,475,475,475,475,475,475,475,475,475,475,475,475,475,475,475,475,475,475,475,475,475,475,475,452,366,246,84,69,68,68,68,68,67,65,62,59,47,42],"timestamp_mouse":[10,26,47,68,88,107,127,146,166,186,207,228,247,267,287,308,328,347,368,386,406,427,446,466,487,506,528,546,567,587,607,629,646,666,688,707,728,747,767,787,807,829,846],"xSR":741.5,"ySR":449.15000000000003,"xT1":424.9,"yT1":0,"xT2":1058.1,"yT2":0,"toosoon":0,"cond_shown":"equaldotanddens","ratio_trial":900,"smaller_num":"18","larger_num":"20","correct_side":1,"subjID":"SergioAndresGonzalezGutierrez6","gender":"0","age":"11","school":"6"},{"start_time":1551900396063,"click_time":1551900396968,"finger_time":1551900396666,"fix_duration":954.6934840338695,"trial":43,"RT":603,"MT":302,"sideResp":1,"stimulus":"img/750/randomdotsizeEA/L/8_Ratio_750_L_4_R_3.png","xmouse":[790,790,790,790,790,790,790,790,790,791,792,792,792,792,792,792,792,792,792,792,792,792,792,792,792,792,792,792,794,794,775,745,696,633,616,608,606,604,587,578,568,559,555,546,533,518],"ymouse":[496,496,496,496,496,496,496,496,496,496,496,496,496,496,496,496,496,496,496,496,496,496,496,496,496,496,496,496,496,479,423,356,278,208,197,192,190,188,168,157,148,141,137,125,108,89],"timestamp_mouse":[9,23,44,64,83,103,123,144,163,183,204,224,244,263,284,305,324,344,365,383,405,425,444,463,483,505,524,545,564,584,603,623,643,664,685,703,724,743,763,784,803,824,844,865,884,905],"xSR":741.5,"ySR":449.15000000000003,"xT1":424.9,"yT1":0,"xT2":1058.1,"yT2":0,"toosoon":0,"cond_shown":"randomdotsizeEA","ratio_trial":750,"smaller_num":"3","larger_num":"4","correct_side":1,"subjID":"SergioAndresGonzalezGutierrez6","gender":"0","age":"11","school":"6"},{"start_time":1551900398411,"click_time":1551900399467,"finger_time":1551900398887,"fix_duration":742.380988349394,"trial":44,"RT":476,"MT":580,"sideResp":2,"stimulus":"img/900/equaldotanddens/R/6_Ratio_900_L_9_R_10.png","xmouse":[804,804,804,804,804,804,804,804,804,804,804,804,804,804,804,804,804,804,804,805,811,817,826,837,849,872,921,952,970,980,989,1001,1016,1030,1048,1067,1104,1112,1116,1134,1190,1204,1209,1211,1211,1211,1211,1211,1211,1211,1203,1179,1156],"ymouse":[522,522,522,522,522,522,522,522,522,522,522,522,522,522,522,522,522,522,521,518,504,488,470,449,430,398,327,282,259,244,236,224,210,197,180,165,141,135,132,118,71,57,49,46,46,46,46,46,46,46,46,51,62],"timestamp_mouse":[16,37,57,75,95,116,136,156,177,196,216,236,256,276,296,316,336,357,375,396,415,435,455,476,496,516,537,557,576,596,616,635,656,675,695,716,736,756,776,796,816,835,857,876,897,916,936,955,975,995,1017,1035,1055],"xSR":741.5,"ySR":449.15000000000003,"xT1":424.9,"yT1":0,"xT2":1058.1,"yT2":0,"toosoon":0,"cond_shown":"equaldotanddens","ratio_trial":900,"smaller_num":"9","larger_num":"10","correct_side":2,"subjID":"SergioAndresGonzalezGutierrez6","gender":"0","age":"11","school":"6"},{"start_time":1551900401155,"click_time":1551900402247,"finger_time":1551900401828,"fix_duration":466.07611969217544,"trial":45,"RT":673,"MT":419,"sideResp":1,"stimulus":"img/750/randomdotsizeEA/L/13_Ratio_750_L_8_R_6.png","xmouse":[765,765,765,765,765,765,765,766,767,767,768,769,769,771,771,771,771,771,771,771,771,771,771,771,771,773,773,774,774,775,776,776,776,750,709,661,619,595,589,589,589,589,586,583,576,572,569,565,564,560,545,525,502,477,450],"ymouse":[505,505,505,505,505,505,505,505,504,504,504,503,503,503,503,502,502,502,502,502,502,502,502,502,502,501,500,499,498,496,488,474,453,360,298,241,197,176,170,170,170,168,161,153,138,132,128,123,122,121,117,115,112,106,97],"timestamp_mouse":[11,34,51,73,92,111,131,152,172,193,213,232,252,273,292,311,331,353,372,393,411,431,452,473,492,512,532,552,571,592,611,632,652,673,691,712,732,753,773,793,811,832,851,871,892,912,931,951,972,992,1012,1032,1052,1071,1092],"xSR":741.5,"ySR":449.15000000000003,"xT1":424.9,"yT1":0,"xT2":1058.1,"yT2":0,"toosoon":0,"cond_shown":"randomdotsizeEA","ratio_trial":750,"smaller_num":"6","larger_num":"8","correct_side":1,"subjID":"SergioAndresGonzalezGutierrez6","gender":"0","age":"11","school":"6"},{"start_time":1551900403816,"click_time":1551900404947,"finger_time":1551900404567,"fix_duration":466.83731575905364,"trial":46,"RT":751,"MT":380,"sideResp":2,"stimulus":"img/750/randomdotsizeEA/R/4_Ratio_750_L_15_R_20.png","xmouse":[796,796,796,796,796,796,796,796,796,796,796,796,796,796,796,796,796,796,796,796,796,796,796,796,796,796,796,796,796,796,796,796,796,796,796,800,835,866,896,922,951,996,1015,1032,1047,1068,1104,1122,1133,1140,1141,1142,1143,1144,1145,1145,1146],"ymouse":[522,522,522,522,522,522,522,522,522,522,522,522,522,522,522,522,522,522,522,522,522,522,522,522,522,522,522,522,522,522,522,522,522,522,522,517,479,437,393,354,320,268,245,226,208,185,157,143,132,125,121,117,114,112,106,102,91],"timestamp_mouse":[12,33,50,70,92,111,131,151,170,190,211,230,250,271,291,310,331,352,371,391,411,432,451,470,491,511,530,550,571,591,610,630,651,671,690,711,731,751,771,790,810,830,850,870,892,912,930,951,970,991,1011,1031,1051,1071,1091,1111,1130],"xSR":741.5,"ySR":449.15000000000003,"xT1":424.9,"yT1":0,"xT2":1058.1,"yT2":0,"toosoon":0,"cond_shown":"randomdotsizeEA","ratio_trial":750,"smaller_num":"15","larger_num":"20","correct_side":2,"subjID":"SergioAndresGonzalezGutierrez6","gender":"0","age":"11","school":"6"},{"start_time":1551900406956,"click_time":1551900407848,"finger_time":1551900407546,"fix_duration":868.0530628259675,"trial":47,"RT":590,"MT":302,"sideResp":1,"stimulus":"img/250/equaldotsize/L/7_Ratio_250_L_8_R_2.png","xmouse":[797,797,797,797,797,797,797,797,797,797,797,797,797,797,797,797,797,797,797,797,797,797,797,797,797,797,796,788,766,742,632,562,552,540,538,537,536,530,525,517,509,507,506,505,498],"ymouse":[503,503,503,503,503,504,504,504,504,504,504,504,504,504,504,504,504,504,504,504,504,504,504,504,503,500,496,486,456,411,251,155,143,128,124,123,121,116,112,109,104,103,103,102,98],"timestamp_mouse":[10,31,51,71,91,111,130,151,172,191,211,231,250,271,290,310,331,351,371,390,410,431,451,471,490,511,531,551,571,590,610,637,650,671,691,711,731,751,772,791,811,831,850,870,892],"xSR":741.5,"ySR":449.15000000000003,"xT1":424.9,"yT1":0,"xT2":1058.1,"yT2":0,"toosoon":0,"cond_shown":"equaldotsize","ratio_trial":250,"smaller_num":"2","larger_num":"8","correct_side":1,"subjID":"SergioAndresGonzalezGutierrez6","gender":"0","age":"11","school":"6"},{"start_time":1551900410843,"click_time":1551900411888,"finger_time":1551900411626,"fix_duration":1494.1508429154787,"trial":48,"RT":783,"MT":262,"sideResp":1,"stimulus":"img/900/equaldotsize/R/11_Ratio_900_L_18_R_20.png","xmouse":[811,811,811,811,811,811,807,806,805,805,805,805,805,804,803,801,799,799,799,799,799,799,799,799,799,799,799,799,799,799,799,798,798,790,773,760,759,759,759,759,759,756,751,739,709,677,625,604,589,575,563,539,521],"ymouse":[471,471,471,471,471,471,472,472,472,472,472,472,472,473,473,474,474,474,474,474,474,474,474,474,474,474,474,474,474,474,474,474,474,473,462,452,452,451,450,449,449,442,430,412,371,334,255,218,190,166,150,120,99],"timestamp_mouse":[9,33,44,64,84,105,124,145,163,183,204,224,243,264,284,303,324,343,364,383,403,423,444,465,483,503,525,544,565,584,604,624,644,664,683,705,725,744,764,783,804,824,844,865,885,903,923,943,964,984,1004,1024,1045],"xSR":741.5,"ySR":449.15000000000003,"xT1":424.9,"yT1":0,"xT2":1058.1,"yT2":0,"toosoon":0,"cond_shown":"equaldotsize","ratio_trial":900,"smaller_num":"18","larger_num":"20","correct_side":2,"subjID":"SergioAndresGonzalezGutierrez6","gender":"0","age":"11","school":"6"},{"start_time":1551900414480,"click_time":1551900416027,"finger_time":1551900415367,"fix_duration":1392.0215117172434,"trial":49,"RT":887,"MT":660,"sideResp":1,"stimulus":"img/900/equaldotanddens/R/6_Ratio_900_L_9_R_10.png","xmouse":[802,802,802,802,802,802,802,802,802,802,802,802,802,802,802,802,802,802,802,802,802,802,802,802,802,802,802,802,802,802,802,798,796,791,789,788,788,787,786,786,786,786,784,780,724,696,685,683,683,683,678,675,673,672,660,657,657,657,657,654,649,643,635,627,607,601,595,591,586,579,575,570,563,558,551,535,529,517],"ymouse":[506,506,506,506,506,506,506,506,506,506,506,506,506,505,505,505,505,505,505,505,505,505,505,505,505,505,505,505,505,505,505,505,506,507,504,498,494,492,490,490,490,490,490,488,476,471,469,469,469,469,468,464,453,431,388,384,383,383,383,382,378,368,352,332,297,286,273,261,248,221,206,186,165,144,125,88,70,44],"timestamp_mouse":[12,31,47,67,87,106,127,147,167,186,207,228,247,267,286,306,327,347,366,386,406,427,447,466,486,506,527,547,567,586,608,628,647,666,687,707,726,746,767,787,806,826,847,868,887,908,926,947,967,987,1007,1026,1046,1067,1086,1106,1127,1147,1166,1187,1206,1226,1247,1266,1287,1306,1326,1346,1367,1387,1408,1427,1447,1468,1487,1507,1528,1547],"xSR":741.5,"ySR":449.15000000000003,"xT1":424.9,"yT1":0,"xT2":1058.1,"yT2":0,"toosoon":0,"cond_shown":"equaldotanddens","ratio_trial":900,"smaller_num":"9","larger_num":"10","correct_side":2,"subjID":"SergioAndresGonzalezGutierrez6","gender":"0","age":"11","school":"6"},{"start_time":1551900417535,"click_time":1551900418468,"finger_time":1551900418186,"fix_duration":786.5305389372967,"trial":50,"RT":651,"MT":282,"sideResp":2,"stimulus":"img/500/equaldotsize/R/3_Ratio_500_L_10_R_20.png","xmouse":[779,779,779,779,779,779,779,779,779,779,779,779,779,779,779,779,779,779,779,779,779,779,779,779,779,779,779,779,779,779,779,783,888,979,1083,1124,1146,1149,1150,1151,1152,1152,1152,1151,1142,1140,1136],"ymouse":[495,495,495,495,495,495,495,495,495,495,495,495,495,495,495,495,495,495,495,495,495,495,495,495,495,495,495,495,495,495,495,495,431,382,318,280,240,226,217,207,199,176,162,143,113,101,93],"timestamp_mouse":[13,32,51,72,91,113,133,152,172,192,213,232,252,272,293,311,332,353,372,392,411,431,452,472,492,511,531,552,573,592,613,631,651,671,692,712,732,751,772,792,812,833,851,872,892,912,933],"xSR":741.5,"ySR":449.15000000000003,"xT1":424.9,"yT1":0,"xT2":1058.1,"yT2":0,"toosoon":0,"cond_shown":"equaldotsize","ratio_trial":500,"smaller_num":"10","larger_num":"20","correct_side":2,"subjID":"SergioAndresGonzalezGutierrez6","gender":"0","age":"11","school":"6"},{"start_time":1551900422430,"click_time":1551900423627,"finger_time":1551900423146,"fix_duration":722.9871068830926,"trial":51,"RT":716,"MT":481,"sideResp":1,"stimulus":"img/500/equaldotanddens/L/4_Ratio_500_L_18_R_9.png","xmouse":[793,793,793,793,793,793,793,793,793,793,793,793,793,793,793,793,793,793,793,793,793,793,793,793,793,793,793,793,793,793,793,793,793,794,794,794,786,754,744,734,726,717,710,707,702,693,672,634,608,580,554,533,513,508,501,491,477,471,470,469],"ymouse":[511,511,511,511,511,511,511,511,511,511,511,511,511,511,511,511,511,511,511,511,511,511,511,511,511,511,511,511,511,511,511,511,511,506,492,442,407,359,345,331,319,309,295,291,284,273,256,235,224,212,202,192,179,172,161,145,120,103,100,99],"timestamp_mouse":[16,36,56,76,96,116,136,156,176,196,216,236,257,277,297,316,336,356,376,396,416,437,456,476,496,516,536,556,577,596,616,636,656,676,696,716,736,756,778,796,817,837,856,878,896,917,936,956,976,996,1017,1036,1056,1076,1097,1116,1136,1157,1176,1197],"xSR":741.5,"ySR":449.15000000000003,"xT1":424.9,"yT1":0,"xT2":1058.1,"yT2":0,"toosoon":0,"cond_shown":"equaldotanddens","ratio_trial":500,"smaller_num":"9","larger_num":"18","correct_side":1,"subjID":"SergioAndresGonzalezGutierrez6","gender":"0","age":"11","school":"6"},{"start_time":1551900427200,"click_time":1551900428346,"finger_time":1551900428006,"fix_duration":1348.156010065215,"trial":52,"RT":806,"MT":340,"sideResp":2,"stimulus":"img/500/equaldotsize/R/3_Ratio_500_L_10_R_20.png","xmouse":[785,785,785,785,785,785,785,785,785,785,785,785,785,785,785,785,785,785,785,785,785,785,785,785,785,785,785,785,785,785,785,785,785,785,785,787,803,815,826,837,883,902,916,928,937,942,944,947,950,956,964,972,978,985,992,1021,1052,1071],"ymouse":[490,490,490,490,490,490,490,490,490,490,490,490,490,490,490,490,490,490,490,490,490,490,490,490,490,490,490,490,490,490,490,490,490,490,490,493,497,497,485,463,366,321,286,262,249,236,231,224,218,203,193,181,171,163,156,132,110,99],"timestamp_mouse":[12,29,47,67,86,106,126,147,166,187,206,226,246,267,286,306,327,346,367,387,407,427,447,466,487,506,526,547,566,586,607,627,646,666,687,706,727,746,766,787,806,826,846,866,886,906,927,946,966,988,1006,1026,1046,1066,1087,1106,1126,1146],"xSR":741.5,"ySR":449.15000000000003,"xT1":424.9,"yT1":0,"xT2":1058.1,"yT2":0,"toosoon":0,"cond_shown":"equaldotsize","ratio_trial":500,"smaller_num":"10","larger_num":"20","correct_side":2,"subjID":"SergioAndresGonzalezGutierrez6","gender":"0","age":"11","school":"6"},{"start_time":1551900430285,"click_time":1551900431646,"finger_time":1551900430826,"fix_duration":1036.4869403919768,"trial":53,"RT":541,"MT":820,"sideResp":1,"stimulus":"img/250/randomdotsizeEA/L/2_Ratio_250_L_16_R_4.png","xmouse":[765,765,765,765,765,765,765,765,765,765,765,765,765,765,765,765,765,765,765,765,765,765,765,765,765,761,743,729,720,715,708,699,690,685,684,683,679,677,665,628,561,389,389,389,389,389,389,389,389,389,389,389,389,389,389,261,324,334,335,335,340,360,376,387,393,400,411,418,429],"ymouse":[503,503,503,503,503,503,503,503,503,503,503,503,503,503,503,503,503,503,503,503,503,503,503,503,503,492,471,456,447,442,435,424,414,408,407,406,396,386,359,300,215,13,13,13,13,13,13,13,13,13,13,13,13,13,13,1,60,67,68,68,70,74,76,76,76,72,64,60,55],"timestamp_mouse":[9,22,41,61,81,101,121,141,161,181,201,221,241,262,281,301,321,342,361,381,402,421,441,461,481,501,521,541,561,581,601,621,641,661,682,701,722,742,761,781,802,821,843,862,881,901,922,941,961,981,1001,1022,1041,1061,1081,1101,1121,1142,1161,1181,1201,1221,1241,1262,1281,1301,1321,1341,1361],"xSR":741.5,"ySR":449.15000000000003,"xT1":424.9,"yT1":0,"xT2":1058.1,"yT2":0,"toosoon":0,"cond_shown":"randomdotsizeEA","ratio_trial":250,"smaller_num":"4","larger_num":"16","correct_side":1,"subjID":"SergioAndresGonzalezGutierrez6","gender":"0","age":"11","school":"6"},{"start_time":1551900433457,"click_time":1551900434367,"finger_time":1551900434007,"fix_duration":250,"trial":54,"RT":550,"MT":360,"sideResp":2,"stimulus":"img/500/equaldotanddens/R/1_Ratio_500_L_9_R_18.png","xmouse":[812,812,812,812,812,812,812,812,812,812,812,812,812,812,812,812,812,812,812,812,812,812,812,812,812,812,813,863,925,999,1014,1038,1047,1051,1055,1060,1067,1082,1090,1097,1101,1103,1103,1106,1110,1113],"ymouse":[484,484,484,484,484,484,484,484,484,484,484,484,484,484,484,484,484,484,484,484,484,484,484,484,484,484,482,421,364,300,283,241,214,205,195,186,174,147,134,121,114,112,112,107,101,96],"timestamp_mouse":[9,31,62,70,89,111,129,149,169,189,209,230,251,270,289,309,329,350,369,390,409,429,449,469,489,509,531,550,569,589,610,630,650,669,689,709,730,750,769,790,809,830,849,869,889,909],"xSR":741.5,"ySR":449.15000000000003,"xT1":424.9,"yT1":0,"xT2":1058.1,"yT2":0,"toosoon":0,"cond_shown":"equaldotanddens","ratio_trial":500,"smaller_num":"9","larger_num":"18","correct_side":2,"subjID":"SergioAndresGonzalezGutierrez6","gender":"0","age":"11","school":"6"},{"start_time":1551900436849,"click_time":1551900438186,"finger_time":1551900437507,"fix_duration":1322.1225786105629,"trial":55,"RT":658,"MT":679,"sideResp":2,"stimulus":"img/500/equaldotsize/R/12_Ratio_500_L_1_R_2.png","xmouse":[776,776,776,776,776,776,776,776,776,776,776,776,776,776,776,776,776,776,776,776,776,776,776,776,776,776,776,776,776,776,778,803,854,975,1024,1084,1151,1265,1303,1316,1323,1328,1334,1343,1345,1346,1346,1346,1346,1346,1344,1335,1321,1287,1265,1241,1222,1210,1207,1207,1207,1206,1204,1194,1180,1166,1158],"ymouse":[500,500,500,500,500,500,500,500,500,500,500,500,500,500,500,500,500,500,500,500,500,500,500,500,500,500,500,500,500,500,499,490,467,418,394,365,325,236,194,176,165,154,141,115,105,98,93,91,90,90,89,86,82,76,71,64,60,57,56,56,56,56,55,55,55,55,55],"timestamp_mouse":[17,37,57,77,97,117,137,157,177,197,218,238,258,277,297,317,338,358,378,398,418,438,458,478,498,517,537,559,578,597,617,637,658,677,698,718,738,759,777,798,817,837,857,877,897,917,939,959,978,998,1018,1037,1057,1078,1097,1117,1137,1157,1178,1198,1217,1237,1259,1277,1298,1317,1337],"xSR":741.5,"ySR":449.15000000000003,"xT1":424.9,"yT1":0,"xT2":1058.1,"yT2":0,"toosoon":0,"cond_shown":"equaldotsize","ratio_trial":500,"smaller_num":"1","larger_num":"2","correct_side":2,"subjID":"SergioAndresGonzalezGutierrez6","gender":"0","age":"11","school":"6"},{"start_time":1551900442045,"click_time":1551900443206,"finger_time":1551900442666,"fix_duration":1337.5925788197546,"trial":56,"RT":621,"MT":540,"sideResp":1,"stimulus":"img/900/equaldotanddens/L/8_Ratio_900_L_20_R_18.png","xmouse":[794,794,794,794,794,794,794,794,794,794,794,794,794,794,794,794,794,794,794,794,794,794,794,794,794,794,794,794,794,794,784,773,761,750,743,737,733,718,702,683,658,653,650,649,635,623,609,596,592,568,550,533,520,511,501,497,492,482,471],"ymouse":[490,490,490,490,490,490,490,490,490,490,490,490,490,490,490,490,490,490,490,490,490,490,490,490,490,490,490,490,490,485,451,430,410,391,381,365,350,314,287,259,224,217,213,211,199,188,175,165,160,151,144,136,129,123,115,111,106,100,91],"timestamp_mouse":[9,36,42,62,81,102,121,141,162,181,201,221,241,262,281,301,321,341,363,381,401,422,442,461,482,503,521,541,561,582,602,621,642,661,682,702,722,742,761,781,801,821,841,863,883,901,921,943,961,982,1001,1021,1041,1061,1082,1102,1121,1141,1161],"xSR":741.5,"ySR":449.15000000000003,"xT1":424.9,"yT1":0,"xT2":1058.1,"yT2":0,"toosoon":0,"cond_shown":"equaldotanddens","ratio_trial":900,"smaller_num":"18","larger_num":"20","correct_side":1,"subjID":"SergioAndresGonzalezGutierrez6","gender":"0","age":"11","school":"6"},{"start_time":1551900445246,"click_time":1551900446366,"finger_time":1551900446247,"fix_duration":1416.191484223438,"trial":57,"RT":1001,"MT":119,"sideResp":1,"stimulus":"img/500/randomdotsizeEA/L/7_Ratio_500_L_10_R_5.png","xmouse":[804,804,804,804,804,804,804,804,803,802,802,802,802,801,800,796,796,796,795,795,794,791,787,783,779,772,769,769,769,769,769,769,769,769,769,769,769,769,769,769,769,769,769,769,769,769,769,769,764,758,699,640,579,535,515,495,489],"ymouse":[493,493,493,493,493,493,493,493,493,493,493,493,493,494,495,496,496,496,496,496,496,496,497,497,497,497,497,497,497,497,497,497,497,497,497,497,497,497,497,497,497,497,497,497,497,497,497,497,485,469,361,287,214,159,133,101,92],"timestamp_mouse":[9,29,41,61,81,101,120,140,160,181,200,220,241,260,281,300,320,340,360,381,400,420,440,462,480,500,520,540,561,581,600,620,640,660,680,700,720,742,761,780,801,820,840,860,882,900,920,942,961,981,1001,1022,1040,1060,1081,1101,1120],"xSR":741.5,"ySR":449.15000000000003,"xT1":424.9,"yT1":0,"xT2":1058.1,"yT2":0,"toosoon":0,"cond_shown":"randomdotsizeEA","ratio_trial":500,"smaller_num":"5","larger_num":"10","correct_side":1,"subjID":"SergioAndresGonzalezGutierrez6","gender":"0","age":"11","school":"6"},{"start_time":1551900449199,"click_time":1551900450066,"finger_time":1551900449606,"fix_duration":250,"trial":58,"RT":407,"MT":460,"sideResp":2,"stimulus":"img/500/equaldotsize/R/9_Ratio_500_L_2_R_4.png","xmouse":[820,820,820,820,820,820,820,820,820,820,820,820,820,820,820,820,820,818,815,815,815,824,846,854,862,870,885,924,956,989,1012,1029,1053,1059,1062,1062,1062,1062,1062,1062,1062,1065,1079,1086],"ymouse":[521,521,521,521,521,521,521,521,521,521,521,521,521,521,521,519,517,503,486,466,433,384,305,280,259,244,223,189,172,157,147,139,122,119,117,117,117,117,117,117,116,114,100,94],"timestamp_mouse":[9,38,47,67,88,107,127,147,167,187,207,227,247,267,288,308,328,347,368,388,407,429,447,467,488,508,528,548,567,588,608,628,647,668,688,707,727,749,767,787,807,827,848,867],"xSR":741.5,"ySR":449.15000000000003,"xT1":424.9,"yT1":0,"xT2":1058.1,"yT2":0,"toosoon":0,"cond_shown":"equaldotsize","ratio_trial":500,"smaller_num":"2","larger_num":"4","correct_side":2,"subjID":"SergioAndresGonzalezGutierrez6","gender":"0","age":"11","school":"6"},{"start_time":1551900452376,"click_time":1551900453048,"finger_time":1551900452687,"fix_duration":1449.6808374102432,"trial":59,"RT":311,"MT":361,"sideResp":1,"stimulus":"img/500/equaldotanddens/L/10_Ratio_500_L_4_R_2.png","xmouse":[798,798,798,798,798,798,798,798,798,798,798,798,798,798,798,784,763,746,731,730,730,730,730,730,707,693,688,679,668,630,610,554,516,506],"ymouse":[496,496,496,496,496,496,496,496,496,496,496,496,496,493,456,391,338,302,276,272,272,272,272,272,241,226,222,216,209,177,162,127,104,96],"timestamp_mouse":[10,38,50,70,92,111,130,150,171,190,210,230,250,270,291,311,332,351,371,390,411,430,451,472,490,510,531,550,571,591,611,631,652,672],"xSR":741.5,"ySR":449.15000000000003,"xT1":424.9,"yT1":0,"xT2":1058.1,"yT2":0,"toosoon":0,"cond_shown":"equaldotanddens","ratio_trial":500,"smaller_num":"2","larger_num":"4","correct_side":1,"subjID":"SergioAndresGonzalezGutierrez6","gender":"0","age":"11","school":"6"},{"start_time":1551900456940,"click_time":1551900457906,"finger_time":1551900457567,"fix_duration":1392.4667521521712,"trial":60,"RT":627,"MT":339,"sideResp":1,"stimulus":"img/900/equaldotanddens/L/2_Ratio_900_L_20_R_18.png","xmouse":[786,786,786,786,786,786,786,786,786,786,786,786,786,786,786,786,786,786,786,786,786,786,786,786,786,786,786,786,786,786,782,711,647,575,531,528,527,527,527,527,527,527,527,527,527,527,527,526,523],"ymouse":[507,507,507,507,507,507,507,507,507,507,507,507,507,507,507,507,507,507,507,507,507,507,507,507,507,507,507,507,507,507,466,303,194,96,17,9,6,6,6,6,6,6,6,6,6,6,6,5,5],"timestamp_mouse":[9,43,46,67,86,106,126,146,167,186,206,226,246,266,286,306,326,346,366,386,406,426,446,466,486,506,526,546,567,587,607,627,648,666,686,706,727,747,767,787,806,826,847,866,886,907,927,947,966],"xSR":741.5,"ySR":449.15000000000003,"xT1":424.9,"yT1":0,"xT2":1058.1,"yT2":0,"toosoon":0,"cond_shown":"equaldotanddens","ratio_trial":900,"smaller_num":"18","larger_num":"20","correct_side":1,"subjID":"SergioAndresGonzalezGutierrez6","gender":"0","age":"11","school":"6"},{"start_time":1551900460322,"click_time":1551900461347,"finger_time":1551900460926,"fix_duration":1374.2874340175995,"trial":61,"RT":604,"MT":421,"sideResp":2,"stimulus":"img/250/equaldotanddens/R/8_Ratio_250_L_1_R_4.png","xmouse":[784,784,784,784,784,784,784,784,784,784,784,784,784,784,784,784,784,784,784,784,784,784,784,784,784,784,784,784,784,798,835,890,1015,1065,1110,1129,1146,1162,1200,1223,1242,1254,1262,1262,1262,1262,1262,1261,1245,1212,1169,1127],"ymouse":[496,496,496,496,496,496,496,496,496,496,496,496,496,496,496,496,496,496,496,496,496,496,496,496,496,496,496,496,496,477,431,369,253,215,183,170,158,148,127,115,102,91,80,79,79,79,79,78,78,78,78,78],"timestamp_mouse":[9,33,44,65,84,104,124,145,164,185,204,224,244,265,285,305,324,345,364,384,404,425,444,464,484,504,524,544,565,584,604,624,646,664,686,704,724,744,764,784,804,824,845,864,884,906,926,945,964,984,1004,1024],"xSR":741.5,"ySR":449.15000000000003,"xT1":424.9,"yT1":0,"xT2":1058.1,"yT2":0,"toosoon":0,"cond_shown":"equaldotanddens","ratio_trial":250,"smaller_num":"1","larger_num":"4","correct_side":2,"subjID":"SergioAndresGonzalezGutierrez6","gender":"0","age":"11","school":"6"},{"start_time":1551900462964,"click_time":1551900464287,"finger_time":1551900463587,"fix_duration":855.808064197611,"trial":62,"RT":623,"MT":700,"sideResp":1,"stimulus":"img/900/equaldotsize/L/8_Ratio_900_L_20_R_18.png","xmouse":[772,772,772,772,772,772,772,772,772,772,772,772,772,772,772,772,772,772,772,772,772,772,772,772,772,772,772,772,772,772,771,748,714,697,687,682,674,669,665,660,647,639,631,625,620,617,613,610,606,604,600,589,582,576,570,551,541,532,524,520,517,517,517,516,512,508,493],"ymouse":[490,490,490,490,490,490,490,490,490,490,490,490,490,490,490,490,490,490,490,490,490,490,490,490,490,490,490,490,490,490,489,448,401,376,356,344,325,316,308,300,283,271,260,253,245,241,232,227,224,222,218,210,207,201,195,176,160,147,132,124,117,114,114,112,108,104,95],"timestamp_mouse":[9,22,49,62,82,102,122,142,162,183,203,222,242,262,282,302,322,343,363,383,403,422,442,463,484,502,522,542,562,582,602,623,642,662,682,702,722,742,762,782,804,822,843,864,883,902,922,943,962,984,1004,1022,1042,1062,1082,1104,1122,1142,1163,1182,1202,1223,1242,1262,1282,1302,1323],"xSR":741.5,"ySR":449.15000000000003,"xT1":424.9,"yT1":0,"xT2":1058.1,"yT2":0,"toosoon":0,"cond_shown":"equaldotsize","ratio_trial":900,"smaller_num":"18","larger_num":"20","correct_side":1,"subjID":"SergioAndresGonzalezGutierrez6","gender":"0","age":"11","school":"6"},{"start_time":1551900466212,"click_time":1551900466886,"finger_time":1551900466806,"fix_duration":725.3927015376952,"trial":63,"RT":594,"MT":80,"sideResp":1,"stimulus":"img/900/randomdotsizeEA/R/11_Ratio_900_L_18_R_20.png","xmouse":[800,800,800,800,800,800,800,800,800,800,800,800,800,800,800,800,800,800,800,800,800,800,800,800,800,800,800,800,794,762,718,657,584,501],"ymouse":[490,490,490,490,490,490,490,490,490,490,490,490,490,490,490,490,490,490,490,490,490,490,490,490,490,490,490,490,478,395,315,228,147,71],"timestamp_mouse":[14,35,55,74,94,114,134,154,174,194,215,234,254,275,295,315,334,354,374,394,414,434,455,474,494,515,535,555,574,594,614,635,654,674],"xSR":741.5,"ySR":449.15000000000003,"xT1":424.9,"yT1":0,"xT2":1058.1,"yT2":0,"toosoon":0,"cond_shown":"randomdotsizeEA","ratio_trial":900,"smaller_num":"18","larger_num":"20","correct_side":2,"subjID":"SergioAndresGonzalezGutierrez6","gender":"0","age":"11","school":"6"},{"start_time":1551900469446,"click_time":1551900470146,"finger_time":1551900469866,"fix_duration":1098.020253694352,"trial":64,"RT":420,"MT":280,"sideResp":2,"stimulus":"img/900/equaldotsize/R/14_Ratio_900_L_18_R_20.png","xmouse":[799,799,799,799,799,799,799,799,799,800,802,803,806,807,807,807,807,811,816,821,828,835,839,841,845,852,861,872,910,934,958,979,1022,1053,1094,1145],"ymouse":[492,492,492,492,492,492,492,492,492,491,490,490,488,487,486,486,486,485,481,474,459,443,433,428,419,400,383,358,298,269,245,227,186,155,115,80],"timestamp_mouse":[9,20,45,61,80,100,120,141,161,182,200,220,240,260,280,300,320,340,360,380,401,420,441,460,480,500,520,540,560,580,600,620,641,660,680,700],"xSR":741.5,"ySR":449.15000000000003,"xT1":424.9,"yT1":0,"xT2":1058.1,"yT2":0,"toosoon":0,"cond_shown":"equaldotsize","ratio_trial":900,"smaller_num":"18","larger_num":"20","correct_side":2,"subjID":"SergioAndresGonzalezGutierrez6","gender":"0","age":"11","school":"6"},{"start_time":1551900471198,"click_time":1551900472146,"finger_time":1551900471827,"fix_duration":250,"trial":65,"RT":629,"MT":319,"sideResp":1,"stimulus":"img/250/equaldotsize/L/1_Ratio_250_L_8_R_2.png","xmouse":[768,768,768,768,768,768,769,770,771,771,771,772,772,772,772,772,772,772,772,772,772,772,772,772,772,772,772,772,770,766,756,733,706,671,639,585,559,551,547,545,542,541,538,536,533,531,529,522],"ymouse":[516,516,516,516,516,516,516,516,516,516,516,516,516,516,516,516,516,516,516,516,516,516,516,516,514,511,508,506,504,482,454,398,341,282,224,112,51,32,23,19,15,14,11,9,8,7,7,7],"timestamp_mouse":[8,28,49,68,88,108,128,148,168,189,209,229,249,269,288,308,328,348,368,388,408,428,448,469,488,508,528,548,568,589,609,629,648,668,690,709,728,750,770,788,809,828,848,868,888,908,929,948],"xSR":741.5,"ySR":449.15000000000003,"xT1":424.9,"yT1":0,"xT2":1058.1,"yT2":0,"toosoon":0,"cond_shown":"equaldotsize","ratio_trial":250,"smaller_num":"2","larger_num":"8","correct_side":1,"subjID":"SergioAndresGonzalezGutierrez6","gender":"0","age":"11","school":"6"},{"start_time":1551900474457,"click_time":1551900475566,"finger_time":1551900474946,"fix_duration":1090.8962727137755,"trial":66,"RT":489,"MT":620,"sideResp":1,"stimulus":"img/750/equaldotsize/L/8_Ratio_750_L_4_R_3.png","xmouse":[790,790,790,790,790,790,790,790,790,790,790,790,790,790,790,790,790,790,790,790,790,790,788,777,758,731,699,680,680,680,677,670,643,622,606,596,589,576,566,551,536,522,502,500,499,498,496,491,491,489,488,487,487,487,487,487],"ymouse":[482,482,482,482,482,482,482,482,482,482,482,482,482,482,482,482,482,482,482,482,482,482,477,465,447,423,395,373,373,373,362,344,300,283,271,264,261,256,248,234,216,200,165,154,146,138,131,116,113,110,110,109,109,109,107,97],"timestamp_mouse":[12,33,50,69,90,111,129,149,170,189,209,229,249,269,289,309,330,350,370,389,409,429,450,469,489,509,530,551,570,589,610,629,649,669,689,709,730,749,769,789,810,829,849,869,889,909,929,949,970,989,1009,1030,1049,1070,1089,1109],"xSR":741.5,"ySR":449.15000000000003,"xT1":424.9,"yT1":0,"xT2":1058.1,"yT2":0,"toosoon":0,"cond_shown":"equaldotsize","ratio_trial":750,"smaller_num":"3","larger_num":"4","correct_side":1,"subjID":"SergioAndresGonzalezGutierrez6","gender":"0","age":"11","school":"6"},{"start_time":1551900476741,"click_time":1551900477846,"finger_time":1551900477586,"fix_duration":532.4978407207918,"trial":67,"RT":845,"MT":260,"sideResp":2,"stimulus":"img/250/randomdotsizeEA/R/12_Ratio_250_L_5_R_20.png","xmouse":[791,791,791,791,791,791,791,791,791,791,791,791,791,791,791,791,791,791,791,791,791,791,791,791,791,791,791,791,791,791,791,791,791,791,791,791,791,791,791,794,814,830,854,935,973,1006,1029,1041,1043,1044,1044,1045,1048,1051,1057,1060],"ymouse":[518,518,518,518,518,518,518,518,518,518,518,518,518,518,518,518,518,518,518,518,518,518,518,518,518,518,518,518,518,518,518,518,518,518,518,518,518,518,518,515,481,455,419,325,275,237,210,190,182,160,149,133,115,93,58,42],"timestamp_mouse":[9,25,45,65,85,105,125,147,165,185,205,225,246,266,285,305,325,346,367,385,405,425,447,465,486,505,525,545,565,585,605,625,645,665,685,705,726,745,766,785,806,825,845,866,885,905,926,945,966,986,1005,1026,1045,1066,1087,1105],"xSR":741.5,"ySR":449.15000000000003,"xT1":424.9,"yT1":0,"xT2":1058.1,"yT2":0,"toosoon":0,"cond_shown":"randomdotsizeEA","ratio_trial":250,"smaller_num":"5","larger_num":"20","correct_side":2,"subjID":"SergioAndresGonzalezGutierrez6","gender":"0","age":"11","school":"6"},{"start_time":1551900479190,"click_time":1551900480166,"finger_time":1551900479827,"fix_duration":641.3205660040261,"trial":68,"RT":637,"MT":339,"sideResp":1,"stimulus":"img/900/equaldotsize/L/10_Ratio_900_L_20_R_18.png","xmouse":[802,802,802,802,802,802,802,802,802,802,802,802,802,802,802,802,802,802,802,802,802,802,802,802,802,802,802,802,802,802,802,777,731,698,679,664,651,648,642,630,616,587,585,583,576,545,528,516,510],"ymouse":[507,507,507,507,507,507,507,507,507,507,507,507,507,507,507,507,507,507,507,507,507,507,507,507,507,507,507,507,507,507,496,425,328,284,256,236,218,213,202,189,174,153,151,150,145,125,112,102,97],"timestamp_mouse":[16,37,56,76,96,116,136,156,176,196,216,236,257,277,297,318,336,356,377,396,416,436,456,476,496,516,536,558,577,597,617,637,656,676,696,716,736,757,777,797,817,837,858,876,896,918,937,957,976],"xSR":741.5,"ySR":449.15000000000003,"xT1":424.9,"yT1":0,"xT2":1058.1,"yT2":0,"toosoon":0,"cond_shown":"equaldotsize","ratio_trial":900,"smaller_num":"18","larger_num":"20","correct_side":1,"subjID":"SergioAndresGonzalezGutierrez6","gender":"0","age":"11","school":"6"},{"start_time":1551900482354,"click_time":1551900483625,"finger_time":1551900483166,"fix_duration":1246.4098132921804,"trial":69,"RT":812,"MT":459,"sideResp":2,"stimulus":"img/750/equaldotsize/R/15_Ratio_750_L_9_R_12.png","xmouse":[798,798,797,796,796,795,794,794,794,794,794,794,794,794,794,794,794,794,794,794,794,794,794,794,794,794,794,794,794,794,794,794,794,794,794,797,799,800,818,831,850,871,893,929,935,938,940,940,940,940,940,940,940,943,963,981,997,1013,1037,1047,1058,1067,1081,1090],"ymouse":[493,493,493,493,493,493,493,493,493,493,493,493,493,493,493,493,493,493,493,493,493,493,493,493,493,493,493,493,493,493,493,493,493,493,493,492,492,491,477,458,434,404,374,324,312,306,302,302,302,302,302,302,302,295,264,239,220,204,175,162,147,131,110,93],"timestamp_mouse":[13,34,53,72,91,111,131,152,172,192,212,232,252,271,291,312,331,352,371,392,412,432,451,471,492,512,532,551,572,592,612,632,651,672,692,712,731,751,772,793,812,832,852,871,891,912,931,952,972,991,1011,1031,1051,1071,1092,1112,1133,1151,1171,1192,1212,1232,1252,1271],"xSR":741.5,"ySR":449.15000000000003,"xT1":424.9,"yT1":0,"xT2":1058.1,"yT2":0,"toosoon":0,"cond_shown":"equaldotsize","ratio_trial":750,"smaller_num":"9","larger_num":"12","correct_side":2,"subjID":"SergioAndresGonzalezGutierrez6","gender":"0","age":"11","school":"6"},{"start_time":1551900485337,"click_time":1551900486966,"finger_time":1551900486046,"fix_duration":810.5791571646507,"trial":70,"RT":709,"MT":920,"sideResp":2,"stimulus":"img/900/equaldotsize/R/5_Ratio_900_L_9_R_10.png","xmouse":[792,792,792,792,792,791,791,790,790,790,790,790,789,789,789,789,789,789,789,789,789,788,788,788,788,788,788,788,788,788,788,788,788,788,786,780,770,761,754,741,732,720,704,694,675,668,661,655,651,649,649,649,649,649,658,672,700,770,887,993,1111,1124,1141,1150,1165,1191,1200,1206,1209,1213,1215,1216,1216,1216,1213,1209,1204,1194,1187,1173,1167,1158],"ymouse":[505,505,505,503,502,501,501,500,500,500,499,499,499,499,499,498,498,498,498,498,498,496,495,494,494,494,494,494,494,494,494,494,494,492,462,442,424,406,388,361,349,336,318,310,295,289,285,282,280,279,279,279,279,279,278,277,277,283,287,291,286,275,253,230,198,153,136,127,121,110,99,96,87,83,79,74,