[{"start_time":1551899656473,"click_time":1551899659103,"finger_time":1551899658482,"fix_duration":686.1367130577503,"trial":0,"RT":2009,"MT":621,"sideResp":1,"stimulus":[],"xmouse":[777,777,777,777,777,777,777,777,777,777,777,777,777,777,777,777,777,777,777,777,777,777,777,778,778,778,778,778,778,778,778,778,778,778,778,778,778,778,778,778,778,778,778,778,778,778,778,778,778,778,778,778,778,778,778,778,778,778,778,778,778,778,778,778,778,778,778,778,778,778,781,784,784,784,784,784,784,784,784,784,784,784,784,784,784,784,784,784,784,784,784,784,784,784,784,784,784,783,777,762,724,705,679,653,639,638,636,629,619,614,614,615,615,609,593,579,578,578,578,578,577,567,558,550,542,542,542,542,542,541,506,502],"ymouse":[511,511,511,511,511,511,511,511,511,511,511,511,511,511,511,511,511,511,511,511,511,511,511,511,511,511,511,511,511,511,511,511,511,511,511,511,511,511,511,511,511,511,511,511,511,511,511,511,511,511,511,511,511,511,511,511,511,511,511,511,511,511,511,511,511,511,511,511,511,511,511,511,511,511,511,511,511,511,511,511,511,511,511,511,511,511,511,506,504,495,494,494,494,494,494,494,494,494,492,478,437,418,402,393,387,377,365,351,336,328,316,299,276,247,211,183,182,182,182,182,179,160,149,137,124,124,124,123,123,122,100,97],"timestamp_mouse":[10,47,49,70,88,109,129,149,169,188,209,230,249,270,289,309,329,349,369,390,410,429,449,469,490,509,530,549,569,590,610,629,649,669,689,709,729,749,769,789,809,829,849,868,889,909,930,949,969,990,1009,1029,1048,1069,1089,1109,1129,1149,1169,1189,1210,1229,1250,1269,1289,1309,1328,1349,1369,1388,1410,1429,1448,1469,1489,1510,1529,1549,1569,1588,1610,1629,1649,1669,1689,1709,1729,1749,1769,1790,1810,1829,1849,1870,1889,1909,1929,1949,1969,1989,2009,2029,2048,2069,2089,2109,2129,2149,2169,2190,2209,2229,2248,2270,2288,2309,2330,2349,2370,2389,2409,2429,2449,2469,2491,2509,2530,2550,2568,2589,2609,2630],"xSR":741.5,"ySR":481,"xT1":424.9,"yT1":0,"xT2":1058.1,"yT2":0,"toosoon":0,"cond_shown":"Incongruent","ratio_trial":300,"L_num":7,"L_den":10,"R_num":8,"R_den":20,"correct_side":1,"subjID":"SergioAndresGonzalezGutierrez6","gender":"0","age":"11","school":"6","test":{"fix_dur":[250,1500],"timestim":1000,"targets_dim":[100,100],"targets_relative_coord":[0.3,0.7],"size_stim":[880,420],"start_dim":[100,100],"size_start":[300,300],"size_fix":60,"samplingrate":20,"img_types":["Congruent","Incongruent"],"ratios":[100,200,300],"rep_conds":19,"nTrials":120,"trials_to_rest":500,"Trials_order":[71,64,63,30,78,19,51,110,34,55,61,50,93,45,74,49,83,46,7,113,107,99,2,53,5,4,82,12,52,3,26,88,73,69,21,6,115,117,48,28,92,57,108,24,41,8,13,94,72,39,98,58,96,47,95,97,25,62,65,16,86,90,68,75,35,23,114,20,31,22,80,43,14,9,42,111,103,44,17,32,79,59,66,29,102,67,0,100,101,77,119,70,54,85,84,87,118,33,1,38,11,76,37,15,27,91,109,89,104,112,10,81,36,116,105,18,40,60,56,106],"cond_shown":["Incongruent","Congruent","Incongruent","Congruent","Congruent","Incongruent","Incongruent","Congruent","Congruent","Incongruent","Incongruent","Congruent","Incongruent","Incongruent","Congruent","Incongruent","Incongruent","Congruent","Incongruent","Incongruent","Incongruent","Incongruent","Congruent","Incongruent","Incongruent","Congruent","Congruent","Congruent","Congruent","Incongruent","Congruent","Congruent","Incongruent","Incongruent","Incongruent","Congruent","Incongruent","Incongruent","Congruent","Congruent","Congruent","Incongruent","Congruent","Congruent","Incongruent","Congruent","Incongruent","Congruent","Congruent","Incongruent","Congruent","Congruent","Congruent","Incongruent","Incongruent","Incongruent","Incongruent","Congruent","Incongruent","Congruent","Congruent","Congruent","Congruent","Incongruent","Incongruent","Incongruent","Congruent","Congruent","Incongruent","Congruent","Congruent","Incongruent","Congruent","Incongruent","Congruent","Incongruent","Incongruent","Congruent","Incongruent","Congruent","Incongruent","Incongruent","Congruent","Incongruent","Congruent","Incongruent","Congruent","Congruent","Incongruent","Incongruent","Incongruent","Congruent","Congruent","Incongruent","Congruent","Incongruent","Congruent","Incongruent","Incongruent","Congruent","Incongruent","Congruent","Incongruent","Incongruent","Incongruent","Incongruent","Incongruent","Incongruent","Congruent","Congruent","Congruent","Incongruent","Congruent","Congruent","Incongruent","Congruent","Congruent","Congruent","Congruent","Congruent"],"ratio_trial":[300,300,200,100,100,100,200,200,300,100,100,200,200,200,200,100,300,300,100,300,300,200,200,300,300,300,300,100,300,200,200,300,100,200,200,100,100,200,100,300,200,200,100,100,300,200,100,300,100,200,200,300,100,300,300,100,100,200,300,300,200,100,200,200,300,300,100,200,100,300,200,100,200,200,100,200,100,200,300,200,100,300,100,300,100,100,100,300,300,300,300,300,100,100,100,200,300,200,100,200,300,300,100,200,200,100,100,300,200,300,300,200,100,200,200,100,300,100,200,300],"left_num":[7,8,4,3,15,2,7,3,4,11,9,3,14,7,8,6,1,12,1,1,13,7,6,4,4,11,7,7,3,6,3,1,8,7,14,3,1,6,4,9,9,7,2,3,13,3,11,8,1,4,3,18,3,8,4,4,8,11,2,11,1,3,3,4,1,8,9,12,2,11,4,13,14,7,12,3,17,7,4,11,8,8,7,13,15,2,11,1,13,3,1,20,7,13,6,6,1,3,3,4,4,3,8,7,4,4,10,13,9,20,1,1,2,9,9,11,4,10,1,4],"right_num":[8,10,14,2,13,8,14,7,1,9,20,7,12,12,3,13,3,2,8,2,12,6,11,2,2,4,20,15,11,3,9,6,6,12,6,2,8,3,15,3,13,4,6,4,12,7,9,10,18,1,7,9,2,14,6,8,1,3,6,1,21,2,7,1,3,14,8,6,6,2,3,12,6,8,13,1,10,18,6,3,6,9,15,12,13,8,4,7,12,4,3,14,15,12,5,3,7,11,4,3,2,4,6,8,6,8,9,12,13,8,6,3,11,4,8,6,13,3,21,13],"left_den":[10,15,6,6,25,4,10,10,10,22,10,10,30,10,15,10,2,24,2,2,26,15,20,20,20,22,14,14,12,20,12,5,16,10,30,6,2,20,10,10,30,15,5,20,26,10,22,15,2,30,10,20,6,10,5,8,20,22,4,22,2,6,10,30,2,10,15,20,4,22,8,26,28,10,30,10,30,15,5,22,16,10,14,26,25,4,22,20,26,6,2,25,14,26,20,20,20,4,6,10,20,6,16,10,5,8,25,26,30,25,5,2,5,20,15,22,20,25,2,20],"right_den":[20,12,30,5,26,20,28,14,10,15,25,14,18,24,9,26,15,10,20,10,15,9,22,4,4,20,25,25,20,6,20,12,10,24,9,5,20,6,30,5,26,6,12,16,15,14,15,12,30,3,14,15,5,28,12,20,2,10,30,5,30,5,14,3,15,28,16,15,15,10,10,20,20,16,26,2,15,27,12,10,10,18,25,15,26,20,10,20,15,20,15,28,25,20,25,6,20,20,10,15,4,5,10,16,10,20,18,15,26,16,12,10,22,16,10,15,26,10,30,26],"correct_side":[1,2,1,1,1,1,1,2,1,2,1,2,2,1,1,1,1,1,1,1,2,2,2,2,2,1,2,2,2,2,2,2,2,1,2,1,1,2,2,1,2,2,2,2,2,2,2,2,2,2,2,1,1,1,1,1,2,1,1,1,2,1,2,2,1,1,1,1,1,1,1,2,1,1,2,2,2,2,1,1,2,1,2,2,1,1,1,2,2,1,1,1,2,2,1,2,2,1,1,1,2,2,2,1,1,1,2,2,2,1,2,1,2,1,2,1,2,1,2,2],"img_shown":["img2/300/Incongruent/L/I_Dist_300_LN_7_LD_10_RN_8_RD_20_0.png","img2/300/Congruent/R/C_Dist_300_LN_8_LD_15_RN_10_RD_12_1.png","img2/200/Incongruent/L/I_Dist_200_LN_4_LD_6_RN_14_RD_30_0.png","img2/100/Congruent/L/C_Dist_100_LN_3_LD_6_RN_2_RD_5_0.png","img2/100/Congruent/L/C_Dist_100_LN_15_LD_25_RN_13_RD_26_0.png","img2/100/Incongruent/L/I_Dist_100_LN_2_LD_4_RN_8_RD_20_0.png","img2/200/Incongruent/L/I_Dist_200_LN_7_LD_10_RN_14_RD_28_0.png","img2/200/Congruent/R/C_Dist_200_LN_3_LD_10_RN_7_RD_14_1.png","img2/300/Congruent/L/C_Dist_300_LN_4_LD_10_RN_1_RD_10_0.png","img2/100/Incongruent/R/I_Dist_100_LN_11_LD_22_RN_9_RD_15_1.png","img2/100/Incongruent/L/I_Dist_100_LN_9_LD_10_RN_20_RD_25_0.png","img2/200/Congruent/R/C_Dist_200_LN_3_LD_10_RN_7_RD_14_1.png","img2/200/Incongruent/R/I_Dist_200_LN_14_LD_30_RN_12_RD_18_1.png","img2/200/Incongruent/L/I_Dist_200_LN_7_LD_10_RN_12_RD_24_0.png","img2/200/Congruent/L/C_Dist_200_LN_8_LD_15_RN_3_RD_9_0.png","img2/100/Incongruent/L/I_Dist_100_LN_6_LD_10_RN_13_RD_26_0.png","img2/300/Incongruent/L/I_Dist_300_LN_1_LD_2_RN_3_RD_15_0.png","img2/300/Congruent/L/C_Dist_300_LN_12_LD_24_RN_2_RD_10_0.png","img2/100/Incongruent/L/I_Dist_100_LN_1_LD_2_RN_8_RD_20_0.png","img2/300/Incongruent/L/I_Dist_300_LN_1_LD_2_RN_2_RD_10_0.png","img2/300/Incongruent/R/I_Dist_300_LN_13_LD_26_RN_12_RD_15_1.png","img2/200/Incongruent/R/I_Dist_200_LN_7_LD_15_RN_6_RD_9_1.png","img2/200/Congruent/R/C_Dist_200_LN_6_LD_20_RN_11_RD_22_1.png","img2/300/Incongruent/R/I_Dist_300_LN_4_LD_20_RN_2_RD_4_1.png","img2/300/Incongruent/R/I_Dist_300_LN_4_LD_20_RN_2_RD_4_1.png","img2/300/Congruent/L/C_Dist_300_LN_11_LD_22_RN_4_RD_20_0.png","img2/300/Congruent/R/C_Dist_300_LN_7_LD_14_RN_20_RD_25_1.png","img2/100/Congruent/R/C_Dist_100_LN_7_LD_14_RN_15_RD_25_1.png","img2/300/Congruent/R/C_Dist_300_LN_3_LD_12_RN_11_RD_20_1.png","img2/200/Incongruent/R/I_Dist_200_LN_6_LD_20_RN_3_RD_6_1.png","img2/200/Congruent/R/C_Dist_200_LN_3_LD_12_RN_9_RD_20_1.png","img2/300/Congruent/R/C_Dist_300_LN_1_LD_5_RN_6_RD_12_1.png","img2/100/Incongruent/R/I_Dist_100_LN_8_LD_16_RN_6_RD_10_1.png","img2/200/Incongruent/L/I_Dist_200_LN_7_LD_10_RN_12_RD_24_0.png","img2/200/Incongruent/R/I_Dist_200_LN_14_LD_30_RN_6_RD_9_1.png","img2/100/Congruent/L/C_Dist_100_LN_3_LD_6_RN_2_RD_5_0.png","img2/100/Incongruent/L/I_Dist_100_LN_1_LD_2_RN_8_RD_20_0.png","img2/200/Incongruent/R/I_Dist_200_LN_6_LD_20_RN_3_RD_6_1.png","img2/100/Congruent/R/C_Dist_100_LN_4_LD_10_RN_15_RD_30_1.png","img2/300/Congruent/L/C_Dist_300_LN_9_LD_10_RN_3_RD_5_0.png","img2/200/Congruent/R/C_Dist_200_LN_9_LD_30_RN_13_RD_26_1.png","img2/200/Incongruent/R/I_Dist_200_LN_7_LD_15_RN_4_RD_6_1.png","img2/100/Congruent/R/C_Dist_100_LN_2_LD_5_RN_6_RD_12_1.png","img2/100/Congruent/R/C_Dist_100_LN_3_LD_20_RN_4_RD_16_1.png","img2/300/Incongruent/R/I_Dist_300_LN_13_LD_26_RN_12_RD_15_1.png","img2/200/Congruent/R/C_Dist_200_LN_3_LD_10_RN_7_RD_14_1.png","img2/100/Incongruent/R/I_Dist_100_LN_11_LD_22_RN_9_RD_15_1.png","img2/300/Congruent/R/C_Dist_300_LN_8_LD_15_RN_10_RD_12_1.png","img2/100/Congruent/R/C_Dist_100_LN_1_LD_2_RN_18_RD_30_1.png","img2/200/Incongruent/R/I_Dist_200_LN_4_LD_30_RN_1_RD_3_1.png","img2/200/Congruent/R/C_Dist_200_LN_3_LD_10_RN_7_RD_14_1.png","img2/300/Congruent/L/C_Dist_300_LN_18_LD_20_RN_9_RD_15_0.png","img2/100/Congruent/L/C_Dist_100_LN_3_LD_6_RN_2_RD_5_0.png","img2/300/Incongruent/L/I_Dist_300_LN_8_LD_10_RN_14_RD_28_0.png","img2/300/Incongruent/L/I_Dist_300_LN_4_LD_5_RN_6_RD_12_0.png","img2/100/Incongruent/L/I_Dist_100_LN_4_LD_8_RN_8_RD_20_0.png","img2/100/Incongruent/R/I_Dist_100_LN_8_LD_20_RN_1_RD_2_1.png","img2/200/Congruent/L/C_Dist_200_LN_11_LD_22_RN_3_RD_10_0.png","img2/300/Incongruent/L/I_Dist_300_LN_2_LD_4_RN_6_RD_30_0.png","img2/300/Congruent/L/C_Dist_300_LN_11_LD_22_RN_1_RD_5_0.png","img2/200/Congruent/R/C_Dist_200_LN_1_LD_2_RN_21_RD_30_1.png","img2/100/Congruent/L/C_Dist_100_LN_3_LD_6_RN_2_RD_5_0.png","img2/200/Congruent/R/C_Dist_200_LN_3_LD_10_RN_7_RD_14_1.png","img2/200/Incongruent/R/I_Dist_200_LN_4_LD_30_RN_1_RD_3_1.png","img2/300/Incongruent/L/I_Dist_300_LN_1_LD_2_RN_3_RD_15_0.png","img2/300/Incongruent/L/I_Dist_300_LN_8_LD_10_RN_14_RD_28_0.png","img2/100/Congruent/L/C_Dist_100_LN_9_LD_15_RN_8_RD_16_0.png","img2/200/Congruent/L/C_Dist_200_LN_12_LD_20_RN_6_RD_15_0.png","img2/100/Incongruent/L/I_Dist_100_LN_2_LD_4_RN_6_RD_15_0.png","img2/300/Congruent/L/C_Dist_300_LN_11_LD_22_RN_2_RD_10_0.png","img2/200/Congruent/L/C_Dist_200_LN_4_LD_8_RN_3_RD_10_0.png","img2/100/Incongruent/R/I_Dist_100_LN_13_LD_26_RN_12_RD_20_1.png","img2/200/Congruent/L/C_Dist_200_LN_14_LD_28_RN_6_RD_20_0.png","img2/200/Incongruent/L/I_Dist_200_LN_7_LD_10_RN_8_RD_16_0.png","img2/100/Congruent/R/C_Dist_100_LN_12_LD_30_RN_13_RD_26_1.png","img2/200/Incongruent/R/I_Dist_200_LN_3_LD_10_RN_1_RD_2_1.png","img2/100/Incongruent/R/I_Dist_100_LN_17_LD_30_RN_10_RD_15_1.png","img2/200/Congruent/R/C_Dist_200_LN_7_LD_15_RN_18_RD_27_1.png","img2/300/Incongruent/L/I_Dist_300_LN_4_LD_5_RN_6_RD_12_0.png","img2/200/Congruent/L/C_Dist_200_LN_11_LD_22_RN_3_RD_10_0.png","img2/100/Incongruent/R/I_Dist_100_LN_8_LD_16_RN_6_RD_10_1.png","img2/300/Incongruent/L/I_Dist_300_LN_8_LD_10_RN_9_RD_18_0.png","img2/100/Congruent/R/C_Dist_100_LN_7_LD_14_RN_15_RD_25_1.png","img2/300/Incongruent/R/I_Dist_300_LN_13_LD_26_RN_12_RD_15_1.png","img2/100/Congruent/L/C_Dist_100_LN_15_LD_25_RN_13_RD_26_0.png","img2/100/Incongruent/L/I_Dist_100_LN_2_LD_4_RN_8_RD_20_0.png","img2/100/Congruent/L/C_Dist_100_LN_11_LD_22_RN_4_RD_10_0.png","img2/300/Congruent/R/C_Dist_300_LN_1_LD_20_RN_7_RD_20_1.png","img2/300/Incongruent/R/I_Dist_300_LN_13_LD_26_RN_12_RD_15_1.png","img2/300/Incongruent/L/I_Dist_300_LN_3_LD_6_RN_4_RD_20_0.png","img2/300/Incongruent/L/I_Dist_300_LN_1_LD_2_RN_3_RD_15_0.png","img2/300/Congruent/L/C_Dist_300_LN_20_LD_25_RN_14_RD_28_0.png","img2/100/Congruent/R/C_Dist_100_LN_7_LD_14_RN_15_RD_25_1.png","img2/100/Incongruent/R/I_Dist_100_LN_13_LD_26_RN_12_RD_20_1.png","img2/100/Congruent/L/C_Dist_100_LN_6_LD_20_RN_5_RD_25_0.png","img2/200/Incongruent/R/I_Dist_200_LN_6_LD_20_RN_3_RD_6_1.png","img2/300/Congruent/R/C_Dist_300_LN_1_LD_20_RN_7_RD_20_1.png","img2/200/Incongruent/L/I_Dist_200_LN_3_LD_4_RN_11_RD_20_0.png","img2/100/Incongruent/L/I_Dist_100_LN_3_LD_6_RN_4_RD_10_0.png","img2/200/Congruent/L/C_Dist_200_LN_4_LD_10_RN_3_RD_15_0.png","img2/300/Incongruent/R/I_Dist_300_LN_4_LD_20_RN_2_RD_4_1.png","img2/300/Congruent/R/C_Dist_300_LN_3_LD_6_RN_4_RD_5_1.png","img2/100/Incongruent/R/I_Dist_100_LN_8_LD_16_RN_6_RD_10_1.png","img2/200/Incongruent/L/I_Dist_200_LN_7_LD_10_RN_8_RD_16_0.png","img2/200/Incongruent/L/I_Dist_200_LN_4_LD_5_RN_6_RD_10_0.png","img2/100/Incongruent/L/I_Dist_100_LN_4_LD_8_RN_8_RD_20_0.png","img2/100/Incongruent/R/I_Dist_100_LN_10_LD_25_RN_9_RD_18_1.png","img2/300/Incongruent/R/I_Dist_300_LN_13_LD_26_RN_12_RD_15_1.png","img2/200/Congruent/R/C_Dist_200_LN_9_LD_30_RN_13_RD_26_1.png","img2/300/Congruent/L/C_Dist_300_LN_20_LD_25_RN_8_RD_16_0.png","img2/300/Congruent/R/C_Dist_300_LN_1_LD_5_RN_6_RD_12_1.png","img2/200/Incongruent/L/I_Dist_200_LN_1_LD_2_RN_3_RD_10_0.png","img2/100/Congruent/R/C_Dist_100_LN_2_LD_5_RN_11_RD_22_1.png","img2/200/Congruent/L/C_Dist_200_LN_9_LD_20_RN_4_RD_16_0.png","img2/200/Incongruent/R/I_Dist_200_LN_9_LD_15_RN_8_RD_10_1.png","img2/100/Congruent/L/C_Dist_100_LN_11_LD_22_RN_6_RD_15_0.png","img2/300/Congruent/R/C_Dist_300_LN_4_LD_20_RN_13_RD_26_1.png","img2/100/Congruent/L/C_Dist_100_LN_10_LD_25_RN_3_RD_10_0.png","img2/200/Congruent/R/C_Dist_200_LN_1_LD_2_RN_21_RD_30_1.png","img2/300/Congruent/R/C_Dist_300_LN_4_LD_20_RN_13_RD_26_1.png"],"dist100_C":[["C_Dist_100_LN_10_LD_25_RN_3_RD_10_0.png","C_Dist_100_LN_11_LD_22_RN_4_RD_10_0.png","C_Dist_100_LN_11_LD_22_RN_6_RD_15_0.png","C_Dist_100_LN_15_LD_25_RN_13_RD_26_0.png","C_Dist_100_LN_3_LD_6_RN_2_RD_5_0.png","C_Dist_100_LN_6_LD_20_RN_5_RD_25_0.png","C_Dist_100_LN_8_LD_16_RN_2_RD_5_0.png","C_Dist_100_LN_9_LD_15_RN_8_RD_16_0.png"],["C_Dist_100_LN_1_LD_2_RN_18_RD_30_1.png","C_Dist_100_LN_1_LD_2_RN_3_RD_5_1.png","C_Dist_100_LN_12_LD_30_RN_13_RD_26_1.png","C_Dist_100_LN_2_LD_5_RN_11_RD_22_1.png","C_Dist_100_LN_2_LD_5_RN_6_RD_12_1.png","C_Dist_100_LN_3_LD_20_RN_4_RD_16_1.png","C_Dist_100_LN_4_LD_10_RN_15_RD_30_1.png","C_Dist_100_LN_4_LD_8_RN_6_RD_10_1.png","C_Dist_100_LN_6_LD_12_RN_15_RD_25_1.png","C_Dist_100_LN_7_LD_14_RN_15_RD_25_1.png","C_Dist_100_LN_7_LD_14_RN_9_RD_15_1.png"]],"dist100_I":[["I_Dist_100_LN_1_LD_2_RN_8_RD_20_0.png","I_Dist_100_LN_2_LD_4_RN_6_RD_15_0.png","I_Dist_100_LN_2_LD_4_RN_8_RD_20_0.png","I_Dist_100_LN_3_LD_5_RN_11_RD_22_0.png","I_Dist_100_LN_3_LD_5_RN_8_RD_16_0.png","I_Dist_100_LN_3_LD_6_RN_4_RD_10_0.png","I_Dist_100_LN_3_LD_9_RN_7_RD_30_0.png","I_Dist_100_LN_4_LD_8_RN_8_RD_20_0.png","I_Dist_100_LN_6_LD_10_RN_11_RD_22_0.png","I_Dist_100_LN_6_LD_10_RN_13_RD_26_0.png","I_Dist_100_LN_6_LD_10_RN_7_RD_14_0.png","I_Dist_100_LN_9_LD_10_RN_20_RD_25_0.png","I_Dist_100_LN_9_LD_15_RN_13_RD_26_0.png","I_Dist_100_LN_9_LD_15_RN_14_RD_28_0.png"],["I_Dist_100_LN_10_LD_25_RN_8_RD_16_1.png","I_Dist_100_LN_10_LD_25_RN_9_RD_18_1.png","I_Dist_100_LN_11_LD_22_RN_9_RD_15_1.png","I_Dist_100_LN_12_LD_24_RN_9_RD_15_1.png","I_Dist_100_LN_12_LD_30_RN_2_RD_4_1.png","I_Dist_100_LN_13_LD_26_RN_12_RD_20_1.png","I_Dist_100_LN_13_LD_26_RN_6_RD_10_1.png","I_Dist_100_LN_17_LD_30_RN_10_RD_15_1.png","I_Dist_100_LN_6_LD_12_RN_3_RD_5_1.png","I_Dist_100_LN_8_LD_16_RN_6_RD_10_1.png","I_Dist_100_LN_8_LD_20_RN_1_RD_2_1.png","I_Dist_100_LN_9_LD_18_RN_6_RD_10_1.png"]],"dist100_S":[["E_Dist_100_LN_2_LD_12_RN_2_RD_30_0.png","E_Dist_100_LN_6_LD_10_RN_6_RD_12_0.png"],["E_Dist_100_LN_6_LD_12_RN_6_RD_10_1.png"]],"dist200_C":[["C_Dist_200_LN_11_LD_22_RN_3_RD_10_0.png","C_Dist_200_LN_12_LD_15_RN_6_RD_10_0.png","C_Dist_200_LN_12_LD_20_RN_6_RD_15_0.png","C_Dist_200_LN_14_LD_28_RN_6_RD_20_0.png","C_Dist_200_LN_15_LD_25_RN_4_RD_10_0.png","C_Dist_200_LN_16_LD_20_RN_12_RD_20_0.png","C_Dist_200_LN_16_LD_30_RN_9_RD_27_0.png","C_Dist_200_LN_20_LD_25_RN_9_RD_15_0.png","C_Dist_200_LN_21_LD_30_RN_2_RD_4_0.png","C_Dist_200_LN_4_LD_10_RN_3_RD_15_0.png","C_Dist_200_LN_4_LD_8_RN_3_RD_10_0.png","C_Dist_200_LN_6_LD_15_RN_3_RD_15_0.png","C_Dist_200_LN_7_LD_21_RN_2_RD_15_0.png","C_Dist_200_LN_8_LD_15_RN_2_RD_6_0.png","C_Dist_200_LN_8_LD_15_RN_3_RD_9_0.png","C_Dist_200_LN_8_LD_15_RN_7_RD_21_0.png","C_Dist_200_LN_9_LD_20_RN_4_RD_16_0.png"],["C_Dist_200_LN_1_LD_2_RN_21_RD_30_1.png","C_Dist_200_LN_13_LD_26_RN_14_RD_20_1.png","C_Dist_200_LN_3_LD_10_RN_11_RD_22_1.png","C_Dist_200_LN_3_LD_10_RN_14_RD_28_1.png","C_Dist_200_LN_3_LD_10_RN_7_RD_14_1.png","C_Dist_200_LN_3_LD_12_RN_9_RD_20_1.png","C_Dist_200_LN_3_LD_6_RN_14_RD_20_1.png","C_Dist_200_LN_5_LD_10_RN_14_RD_20_1.png","C_Dist_200_LN_6_LD_12_RN_7_RD_10_1.png","C_Dist_200_LN_6_LD_20_RN_11_RD_22_1.png","C_Dist_200_LN_7_LD_15_RN_18_RD_27_1.png","C_Dist_200_LN_9_LD_30_RN_13_RD_26_1.png"]],"dist200_I":[["I_Dist_200_LN_1_LD_2_RN_3_RD_10_0.png","I_Dist_200_LN_1_LD_3_RN_2_RD_15_0.png","I_Dist_200_LN_3_LD_4_RN_11_RD_20_0.png","I_Dist_200_LN_4_LD_5_RN_6_RD_10_0.png","I_Dist_200_LN_4_LD_6_RN_14_RD_30_0.png","I_Dist_200_LN_7_LD_10_RN_12_RD_24_0.png","I_Dist_200_LN_7_LD_10_RN_14_RD_28_0.png","I_Dist_200_LN_7_LD_10_RN_8_RD_16_0.png"],["I_Dist_200_LN_11_LD_20_RN_3_RD_4_1.png","I_Dist_200_LN_14_LD_30_RN_12_RD_18_1.png","I_Dist_200_LN_14_LD_30_RN_6_RD_9_1.png","I_Dist_200_LN_3_LD_10_RN_1_RD_2_1.png","I_Dist_200_LN_4_LD_30_RN_1_RD_3_1.png","I_Dist_200_LN_6_LD_20_RN_3_RD_6_1.png","I_Dist_200_LN_7_LD_15_RN_4_RD_6_1.png","I_Dist_200_LN_7_LD_15_RN_6_RD_9_1.png","I_Dist_200_LN_9_LD_15_RN_8_RD_10_1.png"]],"dist200_S":[["E_Dist_200_LN_3_LD_6_RN_3_RD_10_0.png"],["E_Dist_200_LN_3_LD_10_RN_3_RD_6_1.png"]],"dist300_C":[["C_Dist_300_LN_11_LD_22_RN_1_RD_5_0.png","C_Dist_300_LN_11_LD_22_RN_2_RD_10_0.png","C_Dist_300_LN_11_LD_22_RN_4_RD_20_0.png","C_Dist_300_LN_12_LD_24_RN_2_RD_10_0.png","C_Dist_300_LN_18_LD_20_RN_9_RD_15_0.png","C_Dist_300_LN_20_LD_25_RN_13_RD_26_0.png","C_Dist_300_LN_20_LD_25_RN_14_RD_28_0.png","C_Dist_300_LN_20_LD_25_RN_5_RD_10_0.png","C_Dist_300_LN_20_LD_25_RN_8_RD_16_0.png","C_Dist_300_LN_20_LD_25_RN_9_RD_18_0.png","C_Dist_300_LN_24_LD_30_RN_2_RD_4_0.png","C_Dist_300_LN_24_LD_30_RN_8_RD_16_0.png","C_Dist_300_LN_3_LD_6_RN_2_RD_10_0.png","C_Dist_300_LN_4_LD_10_RN_1_RD_10_0.png","C_Dist_300_LN_4_LD_5_RN_2_RD_4_0.png","C_Dist_300_LN_8_LD_16_RN_1_RD_5_0.png","C_Dist_300_LN_9_LD_10_RN_3_RD_5_0.png"],["C_Dist_300_LN_1_LD_20_RN_7_RD_20_1.png","C_Dist_300_LN_1_LD_3_RN_19_RD_30_1.png","C_Dist_300_LN_1_LD_30_RN_8_RD_24_1.png","C_Dist_300_LN_1_LD_5_RN_11_RD_22_1.png","C_Dist_300_LN_1_LD_5_RN_3_RD_6_1.png","C_Dist_300_LN_1_LD_5_RN_6_RD_12_1.png","C_Dist_300_LN_2_LD_10_RN_12_RD_24_1.png","C_Dist_300_LN_2_LD_20_RN_10_RD_25_1.png","C_Dist_300_LN_3_LD_12_RN_11_RD_20_1.png","C_Dist_300_LN_3_LD_6_RN_4_RD_5_1.png","C_Dist_300_LN_4_LD_20_RN_13_RD_26_1.png","C_Dist_300_LN_5_LD_25_RN_6_RD_12_1.png","C_Dist_300_LN_5_LD_25_RN_7_RD_14_1.png","C_Dist_300_LN_7_LD_14_RN_20_RD_25_1.png","C_Dist_300_LN_8_LD_15_RN_10_RD_12_1.png"]],"dist300_I":[["I_Dist_300_LN_1_LD_2_RN_2_RD_10_0.png","I_Dist_300_LN_1_LD_2_RN_3_RD_15_0.png","I_Dist_300_LN_2_LD_4_RN_6_RD_30_0.png","I_Dist_300_LN_3_LD_6_RN_4_RD_20_0.png","I_Dist_300_LN_4_LD_5_RN_6_RD_12_0.png","I_Dist_300_LN_4_LD_5_RN_8_RD_16_0.png","I_Dist_300_LN_7_LD_10_RN_8_RD_20_0.png","I_Dist_300_LN_8_LD_10_RN_14_RD_28_0.png","I_Dist_300_LN_8_LD_10_RN_9_RD_18_0.png"],["I_Dist_300_LN_13_LD_26_RN_12_RD_15_1.png","I_Dist_300_LN_4_LD_20_RN_2_RD_4_1.png"]],"dist300_S":[["E_Dist_300_LN_9_LD_12_RN_9_RD_20_0.png"],["E_Dist_300_LN_18_LD_30_RN_18_RD_20_1.png","E_Dist_300_LN_3_LD_10_RN_3_RD_5_1.png","E_Dist_300_LN_9_LD_20_RN_9_RD_12_1.png"]],"dist500_C":[["C_Dist_500_LN_10_LD_13_RN_7_RD_26_0.png","C_Dist_500_LN_10_LD_15_RN_4_RD_24_0.png","C_Dist_500_LN_12_LD_16_RN_3_RD_12_0.png","C_Dist_500_LN_12_LD_18_RN_4_RD_24_0.png","C_Dist_500_LN_15_LD_18_RN_5_RD_15_0.png","C_Dist_500_LN_15_LD_20_RN_1_RD_4_0.png","C_Dist_500_LN_18_LD_27_RN_1_RD_6_0.png","C_Dist_500_LN_20_LD_24_RN_1_RD_3_0.png","C_Dist_500_LN_20_LD_24_RN_3_RD_9_0.png","C_Dist_500_LN_20_LD_24_RN_7_RD_21_0.png","C_Dist_500_LN_20_LD_28_RN_3_RD_14_0.png","C_Dist_500_LN_21_LD_28_RN_6_RD_24_0.png","C_Dist_500_LN_22_LD_28_RN_2_RD_7_0.png","C_Dist_500_LN_25_LD_30_RN_9_RD_27_0.png","C_Dist_500_LN_4_LD_6_RN_1_RD_6_0.png","C_Dist_500_LN_5_LD_6_RN_2_RD_6_0.png","C_Dist_500_LN_6_LD_9_RN_1_RD_6_0.png","C_Dist_500_LN_7_LD_10_RN_1_RD_5_0.png","C_Dist_500_LN_8_LD_12_RN_1_RD_6_0.png","C_Dist_500_LN_8_LD_12_RN_4_RD_24_0.png"],["C_Dist_500_LN_1_LD_4_RN_12_RD_16_1.png","C_Dist_500_LN_1_LD_4_RN_9_RD_12_1.png","C_Dist_500_LN_1_LD_9_RN_11_RD_18_1.png","C_Dist_500_LN_10_LD_24_RN_22_RD_24_1.png","C_Dist_500_LN_2_LD_12_RN_10_RD_15_1.png","C_Dist_500_LN_2_LD_12_RN_12_RD_18_1.png","C_Dist_500_LN_2_LD_12_RN_4_RD_6_1.png","C_Dist_500_LN_2_LD_24_RN_7_RD_12_1.png","C_Dist_500_LN_2_LD_5_RN_18_RD_20_1.png","C_Dist_500_LN_2_LD_5_RN_9_RD_10_1.png","C_Dist_500_LN_2_LD_8_RN_12_RD_16_1.png","C_Dist_500_LN_2_LD_8_RN_21_RD_28_1.png","C_Dist_500_LN_3_LD_10_RN_4_RD_5_1.png","C_Dist_500_LN_3_LD_12_RN_15_RD_20_1.png","C_Dist_500_LN_3_LD_30_RN_6_RD_10_1.png","C_Dist_500_LN_3_LD_8_RN_14_RD_16_1.png","C_Dist_500_LN_4_LD_16_RN_15_RD_20_1.png","C_Dist_500_LN_4_LD_24_RN_12_RD_18_1.png","C_Dist_500_LN_5_LD_14_RN_6_RD_7_1.png","C_Dist_500_LN_7_LD_21_RN_20_RD_24_1.png","C_Dist_500_LN_7_LD_28_RN_12_RD_16_1.png","C_Dist_500_LN_7_LD_28_RN_9_RD_12_1.png","C_Dist_500_LN_9_LD_27_RN_20_RD_24_1.png"]],"dist500_I":[["I_Dist_500_LN_2_LD_3_RN_4_RD_24_0.png","I_Dist_500_LN_5_LD_6_RN_6_RD_18_0.png","I_Dist_500_LN_7_LD_8_RN_9_RD_24_0.png"],["I_Dist_500_LN_7_LD_21_RN_5_RD_6_1.png"]],"dist500_S":[["E_Dist_500_LN_6_LD_8_RN_6_RD_24_0.png"],["E_Dist_500_LN_2_LD_12_RN_2_RD_3_1.png","E_Dist_500_LN_6_LD_24_RN_6_RD_8_1.png"]]}},{"start_time":1551899661903,"click_time":1551899663763,"finger_time":1551899663202,"fix_duration":719.0672771841921,"trial":1,"RT":1299,"MT":561,"sideResp":2,"stimulus":[],"xmouse":[787,787,787,787,787,787,787,787,787,787,787,787,787,787,787,787,787,787,787,787,787,787,787,787,787,787,787,787,787,787,787,787,787,787,787,787,787,787,787,787,787,787,787,787,787,787,787,787,787,787,787,787,788,789,796,802,810,810,810,810,810,810,810,814,835,866,923,972,1020,1112,1132,1151,1163,1171,1184,1187,1188,1188,1188,1184,1181,1177,1174,1173,1172,1172,1172,1172,1172,1172,1172,1170,1160,1141],"ymouse":[500,500,500,500,500,500,500,500,500,500,500,500,500,500,500,500,500,500,500,500,500,500,500,500,500,500,500,500,500,500,500,500,500,500,500,500,500,500,500,500,500,500,500,500,500,500,500,500,500,500,500,500,498,496,487,482,478,478,478,478,478,478,478,474,457,436,388,346,308,237,219,201,189,181,163,153,146,140,135,121,111,101,95,92,91,91,91,91,91,91,91,90,86,81],"timestamp_mouse":[1,18,39,59,79,99,119,139,159,179,199,219,239,259,279,299,319,339,359,380,399,419,439,459,479,498,519,540,559,579,599,619,639,659,678,699,719,739,759,778,799,819,839,859,879,899,919,939,958,979,999,1019,1039,1059,1079,1099,1120,1139,1159,1179,1199,1220,1239,1259,1279,1299,1319,1339,1360,1380,1399,1419,1439,1459,1479,1499,1519,1539,1559,1579,1598,1619,1639,1659,1680,1699,1720,1739,1759,1779,1799,1819,1839,1859],"xSR":741.5,"ySR":449.15000000000003,"xT1":424.9,"yT1":0,"xT2":1058.1,"yT2":0,"toosoon":0,"cond_shown":"Congruent","ratio_trial":300,"L_num":8,"L_den":15,"R_num":10,"R_den":12,"correct_side":2,"subjID":"SergioAndresGonzalezGutierrez6","gender":"0","school":"6","age":"11"},{"start_time":1551899665158,"click_time":1551899667302,"finger_time":1551899666422,"fix_duration":534.9310633598101,"trial":2,"RT":1264,"MT":880,"sideResp":1,"stimulus":[],"xmouse":[775,775,775,775,775,776,776,776,776,776,776,776,776,776,776,776,776,776,776,776,776,776,776,776,776,776,776,776,776,776,776,776,776,776,776,776,776,776,776,776,776,776,776,776,776,776,776,776,776,776,776,776,776,776,776,776,776,776,776,776,777,768,752,730,705,687,678,673,673,673,673,673,673,673,669,650,601,584,579,576,576,576,575,575,575,575,575,569,568,568,568,568,568,568,567,565,565,564,564,561,550,532,516,514,513,509,504,493],"ymouse":[485,485,485,485,485,485,485,485,485,485,485,485,485,485,485,485,485,485,485,485,485,485,485,485,485,485,485,485,485,485,485,485,485,485,485,485,485,485,485,485,485,485,485,485,485,485,485,485,485,485,485,485,485,485,485,485,485,485,485,485,484,476,475,475,473,459,447,432,430,429,429,429,429,429,421,394,327,298,291,287,287,287,286,286,286,286,278,256,251,250,248,245,228,221,217,214,213,212,211,203,182,158,141,139,135,125,114,98],"timestamp_mouse":[10,25,45,65,84,104,124,144,164,184,204,224,244,263,284,305,325,344,364,384,404,424,444,464,485,504,524,544,564,584,604,625,644,665,684,705,724,744,765,784,804,823,844,864,884,905,924,945,964,984,1004,1024,1044,1064,1083,1104,1124,1145,1165,1184,1203,1225,1244,1264,1284,1304,1325,1344,1364,1384,1404,1425,1444,1464,1484,1504,1525,1544,1565,1584,1604,1625,1644,1664,1684,1704,1725,1744,1764,1784,1804,1825,1844,1864,1884,1904,1923,1943,1963,1985,2004,2024,2043,2064,2085,2104,2124,2144],"xSR":741.5,"ySR":449.15000000000003,"xT1":424.9,"yT1":0,"xT2":1058.1,"yT2":0,"toosoon":0,"cond_shown":"Incongruent","ratio_trial":200,"L_num":4,"L_den":6,"R_num":14,"R_den":30,"correct_side":1,"subjID":"SergioAndresGonzalezGutierrez6","gender":"0","school":"6","age":"11"},{"start_time":1551899669388,"click_time":1551899671702,"finger_time":1551899671063,"fix_duration":1244.629375821961,"trial":3,"RT":1675,"MT":639,"sideResp":1,"stimulus":[],"xmouse":[782,782,782,782,782,782,782,782,782,782,782,782,782,782,782,782,782,782,782,782,782,782,782,782,782,782,782,782,782,782,782,782,782,782,782,782,782,782,782,782,782,782,782,782,782,782,782,782,782,782,782,782,782,782,782,782,782,782,782,782,782,782,782,782,782,782,782,782,782,782,782,782,782,782,782,782,782,782,782,782,781,780,778,773,764,740,737,737,737,733,705,679,652,634,619,611,608,605,604,603,603,603,603,603,603,603,602,569,546,531,516,515,515,515,515,515],"ymouse":[483,483,483,483,483,483,483,483,483,483,483,483,483,483,483,483,483,483,483,483,483,483,483,483,483,483,483,483,483,483,483,483,483,483,483,483,483,483,483,483,483,483,483,483,483,483,483,483,484,485,486,486,486,486,486,486,487,487,487,487,488,488,488,488,488,488,488,489,490,491,491,491,491,491,491,491,491,491,491,489,481,472,456,434,409,374,370,369,368,354,304,268,240,222,211,200,191,185,183,181,181,181,181,181,181,181,179,152,137,123,108,106,104,104,103,99],"timestamp_mouse":[14,34,57,74,94,114,135,154,174,194,215,234,255,274,294,314,334,354,373,394,415,434,455,474,494,514,533,554,574,594,613,634,654,674,694,715,734,754,774,794,814,835,854,874,894,915,934,954,973,994,1014,1035,1054,1074,1094,1114,1134,1155,1174,1194,1214,1234,1254,1273,1294,1314,1334,1354,1374,1394,1414,1434,1454,1473,1495,1514,1534,1554,1574,1594,1613,1634,1653,1675,1694,1715,1734,1754,1775,1795,1815,1834,1854,1875,1894,1914,1935,1954,1975,1994,2015,2034,2054,2074,2094,2114,2133,2153,2175,2195,2214,2234,2254,2275,2294,2314],"xSR":741.5,"ySR":449.15000000000003,"xT1":424.9,"yT1":0,"xT2":1058.1,"yT2":0,"toosoon":0,"cond_shown":"Congruent","ratio_trial":100,"L_num":3,"L_den":6,"R_num":2,"R_den":5,"correct_side":1,"subjID":"SergioAndresGonzalezGutierrez6","gender":"0","school":"6","age":"11"},{"start_time":1551899673093,"click_time":1551899675842,"finger_time":1551899675002,"fix_duration":250,"trial":4,"RT":1909,"MT":840,"sideResp":1,"stimulus":[],"xmouse":[785,785,785,785,785,785,785,785,785,785,785,785,785,785,785,785,785,785,785,785,785,785,785,785,785,785,785,785,785,785,785,785,785,785,785,785,785,785,785,785,785,785,785,785,785,785,785,785,785,785,785,785,785,785,785,785,785,785,785,785,786,786,786,786,786,786,786,786,786,786,786,786,787,787,787,787,788,788,788,789,789,789,789,789,789,790,793,797,797,797,797,797,797,798,798,794,785,780,776,770,734,721,711,705,701,686,675,667,664,663,663,663,655,640,625,616,608,606,596,585,568,567,567,567,567,554,539,535,535,535,535,535,535,535,535,535,530,522],"ymouse":[490,490,490,490,491,491,491,491,491,491,491,491,491,491,491,491,491,491,491,491,491,491,491,491,491,491,491,491,491,491,491,491,491,491,491,491,491,491,491,491,491,491,491,491,491,491,491,491,491,491,491,491,491,491,491,491,491,491,491,491,491,491,491,491,491,491,491,491,491,491,491,491,491,491,491,491,491,491,491,491,491,491,491,491,491,487,477,469,465,465,465,465,465,464,462,441,407,396,391,385,363,354,345,333,318,282,267,258,255,254,254,254,241,223,209,202,188,185,173,159,141,141,141,141,141,124,105,101,101,101,101,101,101,101,101,101,95,89],"timestamp_mouse":[9,42,50,69,89,108,129,149,169,189,209,229,249,270,289,309,330,349,370,389,409,428,450,470,489,508,529,549,569,588,609,629,649,670,689,709,729,749,770,789,809,829,849,869,889,909,929,949,969,989,1010,1029,1049,1069,1088,1109,1129,1149,1169,1189,1209,1229,1250,1269,1289,1310,1330,1349,1369,1389,1409,1429,1449,1469,1489,1509,1529,1549,1569,1589,1609,1630,1649,1669,1689,1709,1729,1748,1769,1789,1809,1830,1849,1869,1889,1909,1929,1949,1970,1990,2011,2029,2049,2070,2089,2110,2129,2149,2169,2189,2211,2228,2249,2270,2289,2310,2330,2348,2369,2389,2411,2429,2449,2469,2489,2511,2529,2550,2569,2589,2609,2629,2649,2669,2689,2710,2729,2749],"xSR":741.5,"ySR":449.15000000000003,"xT1":424.9,"yT1":0,"xT2":1058.1,"yT2":0,"toosoon":0,"cond_shown":"Congruent","ratio_trial":100,"L_num":15,"L_den":25,"R_num":13,"R_den":26,"correct_side":1,"subjID":"SergioAndresGonzalezGutierrez6","gender":"0","school":"6","age":"11"},{"start_time":1551899677547,"click_time":1551899680602,"finger_time":1551899679983,"fix_duration":443.8041173157238,"trial":5,"RT":2436,"MT":619,"sideResp":1,"stimulus":[],"xmouse":[796,799,801,802,803,803,803,803,803,803,803,803,803,803,803,803,803,803,803,803,803,803,803,803,803,803,803,803,803,803,803,803,803,803,803,803,803,803,803,803,803,803,803,803,803,803,803,803,803,803,803,803,803,803,803,803,803,803,803,803,803,803,803,803,803,803,803,803,803,803,803,803,803,803,803,803,803,803,803,803,803,803,803,803,803,803,803,803,803,803,803,803,803,803,803,803,803,803,803,803,803,803,803,803,803,803,803,803,803,803,803,803,802,802,802,802,802,802,801,800,797,788,775,739,728,721,718,715,693,666,627,598,581,576,576,569,530,510,473,473,472,472,472,470,467,465,464,464,461,460,460,460,460],"ymouse":[484,484,484,483,483,483,483,483,483,483,483,483,483,483,483,483,483,483,483,483,483,483,483,483,483,483,483,483,483,483,483,483,483,483,483,483,483,483,483,483,483,483,483,483,483,483,483,483,483,483,483,483,483,483,483,483,483,483,483,483,483,483,483,483,483,483,483,483,483,483,483,483,483,483,483,483,483,483,483,483,483,483,483,483,483,483,483,483,483,483,483,483,483,483,483,483,483,483,482,482,482,482,482,482,482,482,482,482,482,481,481,481,480,480,480,479,479,478,474,468,457,438,412,360,348,340,336,331,295,260,221,200,190,187,187,183,159,150,131,131,131,131,131,125,120,117,117,117,112,107,103,101,98],"timestamp_mouse":[15,36,56,75,95,115,135,155,176,196,215,235,256,275,295,315,336,356,375,395,415,435,455,475,496,514,535,555,575,595,615,635,655,675,695,715,735,755,775,795,814,836,855,876,896,915,935,956,975,995,1016,1035,1055,1075,1096,1115,1135,1155,1175,1196,1215,1235,1256,1275,1295,1315,1336,1355,1375,1395,1415,1436,1454,1475,1495,1515,1534,1555,1575,1596,1615,1636,1655,1675,1695,1716,1735,1755,1775,1795,1816,1835,1856,1875,1895,1915,1936,1955,1975,1994,2016,2035,2055,2075,2095,2115,2135,2155,2176,2195,2215,2235,2256,2275,2295,2315,2335,2356,2375,2395,2416,2436,2455,2475,2496,2515,2536,2555,2576,2595,2615,2635,2655,2675,2694,2715,2735,2755,2775,2796,2816,2835,2855,2875,2896,2915,2935,2955,2975,2995,3016,3035,3054],"xSR":741.5,"ySR":449.15000000000003,"xT1":424.9,"yT1":0,"xT2":1058.1,"yT2":0,"toosoon":0,"cond_shown":"Incongruent","ratio_trial":100,"L_num":2,"L_den":4,"R_num":8,"R_den":20,"correct_side":1,"subjID":"SergioAndresGonzalezGutierrez6","gender":"0","school":"6","age":"11"},{"start_time":1551899682880,"click_time":1551899685043,"finger_time":1551899684423,"fix_duration":555.6811160835359,"trial":6,"RT":1543,"MT":620,"sideResp":1,"stimulus":[],"xmouse":[783,783,783,783,783,783,783,783,783,783,783,783,783,783,783,783,783,783,783,783,783,783,783,783,783,783,783,783,783,783,783,783,783,783,783,783,783,783,783,783,783,783,783,783,783,783,783,783,783,783,783,783,783,783,783,783,783,783,783,783,783,783,783,783,783,783,783,783,783,783,783,783,783,783,783,783,781,770,768,766,764,760,750,723,709,702,695,691,663,637,612,592,583,583,583,583,583,583,583,583,583,583,583,583,583,583,579,542,499],"ymouse":[487,487,487,487,487,487,487,487,487,487,487,487,487,487,487,487,487,487,487,487,487,487,487,487,487,487,487,487,487,487,487,487,487,487,487,487,487,487,487,487,487,487,487,487,487,487,487,487,487,487,487,487,487,487,487,487,487,487,487,487,487,487,487,487,487,487,487,487,487,487,487,487,487,487,487,485,479,440,427,415,401,382,359,302,283,272,265,257,221,192,170,156,151,151,151,151,151,150,150,150,150,150,150,150,150,150,146,113,79],"timestamp_mouse":[10,23,44,62,82,101,123,142,162,182,202,223,242,263,282,303,322,342,362,382,401,422,443,462,483,502,522,542,562,581,602,622,642,662,682,702,722,742,761,783,802,822,842,862,882,902,922,941,962,982,1001,1023,1042,1063,1082,1102,1122,1142,1163,1182,1202,1222,1241,1261,1282,1302,1322,1342,1362,1382,1402,1422,1443,1462,1482,1502,1522,1543,1562,1582,1602,1622,1642,1662,1682,1702,1722,1741,1762,1782,1802,1822,1843,1862,1882,1902,1922,1942,1963,1982,2002,2022,2043,2062,2082,2101,2121,2143,2162],"xSR":741.5,"ySR":449.15000000000003,"xT1":424.9,"yT1":0,"xT2":1058.1,"yT2":0,"toosoon":0,"cond_shown":"Incongruent","ratio_trial":200,"L_num":7,"L_den":10,"R_num":14,"R_den":28,"correct_side":1,"subjID":"SergioAndresGonzalezGutierrez6","gender":"0","school":"6","age":"11"},{"start_time":1551899688661,"click_time":1551899690383,"finger_time":1551899690102,"fix_duration":498.13525408132466,"trial":7,"RT":1441,"MT":281,"sideResp":2,"stimulus":[],"xmouse":[780,782,783,784,785,786,786,786,786,786,786,786,786,786,786,786,786,786,786,786,786,786,786,786,786,786,786,786,786,786,786,786,786,786,786,786,786,786,786,786,786,786,786,786,786,786,786,786,786,786,786,786,786,786,786,786,786,786,786,786,786,786,786,786,786,786,786,786,786,789,795,805,817,830,854,871,919,953,976,992,1012,1019,1029,1042,1069,1086,1095],"ymouse":[480,481,481,481,481,482,482,482,482,482,482,482,482,482,482,482,482,482,482,482,482,482,482,482,482,482,482,482,482,482,482,482,482,482,482,482,482,482,482,482,482,482,482,482,482,482,482,482,482,482,482,482,482,482,482,482,482,482,482,482,482,482,482,482,482,482,482,482,482,481,474,461,441,424,393,367,309,269,242,224,200,190,178,161,130,109,98],"timestamp_mouse":[2,21,41,61,81,101,121,141,161,181,201,222,241,261,280,301,321,341,362,381,401,421,442,461,481,501,521,542,561,581,602,621,641,661,681,701,721,741,761,781,801,821,841,861,882,901,921,942,961,981,1001,1021,1041,1061,1081,1100,1122,1142,1161,1180,1201,1221,1241,1262,1281,1302,1321,1341,1361,1380,1401,1421,1441,1461,1481,1502,1521,1541,1562,1581,1601,1621,1641,1661,1681,1701,1721],"xSR":741.5,"ySR":449.15000000000003,"xT1":424.9,"yT1":0,"xT2":1058.1,"yT2":0,"toosoon":0,"cond_shown":"Congruent","ratio_trial":200,"L_num":3,"L_den":10,"R_num":7,"R_den":14,"correct_side":2,"subjID":"SergioAndresGonzalezGutierrez6","gender":"0","school":"6","age":"11"},{"start_time":1551899693153,"click_time":1551899694742,"finger_time":1551899694623,"fix_duration":968.7444594479138,"trial":8,"RT":1470,"MT":119,"sideResp":1,"stimulus":[],"xmouse":[809,809,809,809,809,809,809,809,809,809,809,809,809,809,809,809,809,809,809,809,809,809,809,809,809,809,809,809,809,809,809,809,809,809,809,809,809,809,809,809,809,809,809,809,809,809,809,809,809,809,809,809,809,809,809,809,809,809,809,809,809,809,809,809,809,809,809,809,807,802,786,783,780,777,771,716,657,599,535,513],"ymouse":[474,474,474,474,474,474,474,474,474,474,474,474,474,474,474,474,474,474,474,474,474,474,474,474,474,474,474,474,474,474,474,474,474,474,474,474,474,474,474,474,474,474,474,474,474,474,474,474,474,474,474,474,474,474,474,474,474,474,474,474,474,474,474,474,474,474,474,474,474,470,458,455,452,445,428,324,235,156,79,59],"timestamp_mouse":[9,29,53,69,89,108,129,149,169,190,209,229,249,269,290,308,329,349,369,389,409,429,449,469,489,509,529,549,569,589,610,629,649,669,690,709,729,748,769,789,809,829,850,869,889,908,929,949,970,989,1009,1029,1049,1069,1090,1110,1128,1150,1169,1190,1209,1230,1250,1269,1288,1309,1329,1349,1369,1389,1409,1429,1449,1470,1490,1509,1529,1549,1569,1589],"xSR":741.5,"ySR":449.15000000000003,"xT1":424.9,"yT1":0,"xT2":1058.1,"yT2":0,"toosoon":0,"cond_shown":"Congruent","ratio_trial":300,"L_num":4,"L_den":10,"R_num":1,"R_den":10,"correct_side":1,"subjID":"SergioAndresGonzalezGutierrez6","gender":"0","school":"6","age":"11"},{"start_time":1551899696775,"click_time":1551899698822,"finger_time":1551899698302,"fix_duration":250,"trial":9,"RT":1527,"MT":520,"sideResp":2,"stimulus":[],"xmouse":[785,785,785,785,785,785,785,785,785,785,785,785,785,785,785,785,785,785,785,785,785,785,785,785,785,785,785,785,785,785,785,785,785,785,785,785,785,785,785,785,785,785,785,785,785,785,785,785,785,785,785,785,785,785,785,785,785,785,785,785,785,785,785,785,785,785,785,785,786,786,787,788,789,792,793,799,804,818,831,846,860,872,883,900,926,942,946,952,958,968,999,1012,1023,1031,1046,1048,1054,1059,1066,1080,1083,1086,1089],"ymouse":[468,468,468,468,468,468,468,468,468,468,468,468,468,468,468,468,468,468,468,468,468,468,468,468,468,468,468,468,468,468,468,468,468,468,468,468,468,468,468,468,468,468,468,468,468,468,468,468,468,468,468,468,468,468,468,468,468,468,468,468,468,468,468,468,468,468,468,468,468,468,468,468,467,464,463,456,447,428,409,391,377,362,346,325,270,246,238,230,224,217,206,195,182,169,144,141,135,132,128,116,108,103,99],"timestamp_mouse":[9,28,47,67,86,108,128,147,167,188,207,228,247,267,287,306,326,347,366,387,408,427,447,468,487,507,528,547,568,587,607,627,647,667,687,708,727,746,766,787,807,826,847,868,887,907,928,947,967,987,1007,1027,1047,1068,1087,1107,1127,1148,1166,1187,1206,1227,1247,1266,1287,1307,1327,1347,1367,1387,1407,1426,1447,1467,1487,1507,1527,1547,1567,1587,1607,1626,1647,1667,1687,1707,1727,1747,1768,1787,1807,1827,1847,1867,1888,1908,1927,1948,1967,1988,2007,2027,2047],"xSR":741.5,"ySR":449.15000000000003,"xT1":424.9,"yT1":0,"xT2":1058.1,"yT2":0,"toosoon":0,"cond_shown":"Incongruent","ratio_trial":100,"L_num":11,"L_den":22,"R_num":9,"R_den":15,"correct_side":2,"subjID":"SergioAndresGonzalezGutierrez6","gender":"0","school":"6","age":"11"},{"start_time":1551899701088,"click_time":1551899702902,"finger_time":1551899702682,"fix_duration":644.9323029624319,"trial":10,"RT":1594,"MT":220,"sideResp":1,"stimulus":[],"xmouse":[795,795,795,795,795,795,795,795,795,795,795,795,795,795,795,795,795,795,795,795,795,795,795,795,795,795,795,795,795,795,795,795,795,795,795,795,795,795,795,795,795,795,795,795,795,795,795,795,795,795,795,795,795,795,795,795,795,795,795,795,795,795,795,795,795,795,795,795,795,795,795,795,795,795,795,795,795,793,792,791,790,788,786,775,708,677,650,620,594,529,482],"ymouse":[470,470,470,470,470,470,470,470,470,470,470,470,470,470,470,470,470,470,470,470,470,470,470,470,470,470,470,470,470,470,470,470,470,470,470,470,470,470,470,470,470,470,470,470,470,470,470,470,470,470,470,470,470,470,470,470,470,470,470,470,470,470,470,470,470,470,470,470,470,470,470,470,470,470,470,467,464,456,453,447,442,431,415,381,260,215,185,157,134,79,43],"timestamp_mouse":[14,41,55,74,94,114,135,154,175,194,214,233,254,274,294,313,334,354,375,394,413,434,453,474,495,513,534,555,574,594,615,634,654,673,694,714,735,754,774,795,814,833,854,875,894,914,934,953,974,994,1014,1033,1055,1075,1094,1114,1134,1154,1174,1194,1214,1234,1254,1274,1295,1314,1334,1354,1375,1395,1415,1434,1454,1474,1494,1515,1534,1554,1574,1594,1614,1634,1654,1674,1694,1714,1734,1754,1775,1794,1813],"xSR":741.5,"ySR":449.15000000000003,"xT1":424.9,"yT1":0,"xT2":1058.1,"yT2":0,"toosoon":0,"cond_shown":"Incongruent","ratio_trial":100,"L_num":9,"L_den":10,"R_num":20,"R_den":25,"correct_side":1,"subjID":"SergioAndresGonzalezGutierrez6","gender":"0","school":"6","age":"11"},{"start_time":1551899705379,"click_time":1551899707283,"finger_time":1551899706762,"fix_duration":254.45640269302172,"trial":11,"RT":1383,"MT":521,"sideResp":2,"stimulus":[],"xmouse":[792,792,792,792,792,792,792,792,792,792,792,792,792,792,792,792,792,792,792,792,792,792,792,792,792,792,792,792,792,792,792,792,792,792,792,791,791,791,791,791,791,791,791,792,792,793,794,798,799,801,803,804,804,804,804,804,804,804,804,804,804,805,805,807,809,827,827,829,831,850,889,917,924,928,928,932,940,949,960,971,997,1011,1030,1039,1047,1058,1063,1069,1076,1082,1089,1093,1096,1097,1097,1097],"ymouse":[498,498,498,498,498,498,498,498,498,498,498,498,498,498,498,498,498,498,498,498,498,498,498,498,498,498,498,498,498,498,498,498,498,498,498,498,498,498,498,498,498,498,498,497,497,497,495,493,493,492,490,489,489,489,489,489,489,489,489,489,489,488,488,486,484,472,471,470,465,453,425,402,396,392,392,387,376,365,350,335,299,282,261,250,242,228,222,212,200,185,158,144,122,112,102,87],"timestamp_mouse":[12,32,43,63,84,103,123,143,163,183,203,223,242,263,283,304,322,342,363,383,403,423,443,463,483,503,522,543,563,583,603,623,644,663,683,703,722,742,762,782,803,823,843,863,883,903,923,944,963,983,1004,1023,1043,1063,1083,1103,1123,1144,1164,1183,1203,1223,1243,1263,1284,1303,1323,1344,1364,1383,1403,1423,1443,1463,1483,1503,1522,1544,1563,1583,1602,1622,1643,1663,1684,1703,1722,1744,1764,1783,1804,1823,1843,1863,1883,1903],"xSR":741.5,"ySR":449.15000000000003,"xT1":424.9,"yT1":0,"xT2":1058.1,"yT2":0,"toosoon":0,"cond_shown":"Congruent","ratio_trial":200,"L_num":3,"L_den":10,"R_num":7,"R_den":14,"correct_side":2,"subjID":"SergioAndresGonzalezGutierrez6","gender":"0","school":"6","age":"11"},{"start_time":1551899709078,"click_time":1551899710784,"finger_time":1551899710322,"fix_duration":414.86728449266144,"trial":12,"RT":1244,"MT":462,"sideResp":2,"stimulus":[],"xmouse":[795,795,795,795,795,795,795,795,795,795,795,795,795,795,795,795,795,795,795,795,795,795,795,795,795,795,795,795,795,795,795,795,795,795,795,795,795,795,795,795,795,795,795,795,795,795,795,795,795,795,795,795,795,795,795,796,799,799,802,806,817,831,856,895,939,1022,1072,1102,1124,1140,1163,1173,1184,1196,1204,1207,1207,1207,1207,1203,1200,1196,1194,1188,1176,1139],"ymouse":[493,493,493,493,493,493,493,493,493,493,493,493,493,493,493,493,493,493,493,493,493,493,493,493,493,493,493,493,493,493,493,493,493,493,493,493,493,493,493,493,493,493,493,493,493,493,493,493,493,493,493,493,493,493,493,493,491,491,489,486,478,467,449,420,380,300,253,226,207,192,166,149,129,104,83,69,52,52,52,51,52,52,53,55,60,76],"timestamp_mouse":[10,24,52,64,84,104,124,144,164,184,203,224,244,264,284,303,324,344,364,384,404,424,444,464,483,504,524,545,564,584,604,625,644,663,684,704,724,743,764,784,804,825,845,864,884,903,924,944,964,984,1005,1024,1044,1064,1084,1104,1125,1144,1164,1185,1205,1224,1244,1264,1283,1305,1323,1344,1363,1383,1405,1424,1444,1464,1483,1504,1524,1543,1565,1585,1604,1624,1643,1663,1684,1705],"xSR":741.5,"ySR":449.15000000000003,"xT1":424.9,"yT1":0,"xT2":1058.1,"yT2":0,"toosoon":0,"cond_shown":"Incongruent","ratio_trial":200,"L_num":14,"L_den":30,"R_num":12,"R_den":18,"correct_side":2,"subjID":"SergioAndresGonzalezGutierrez6","gender":"0","school":"6","age":"11"},{"start_time":1551899713250,"click_time":1551899714702,"finger_time":1551899714022,"fix_duration":967.8829521139388,"trial":13,"RT":772,"MT":680,"sideResp":1,"stimulus":[],"xmouse":[827,827,827,827,827,827,827,827,827,827,827,827,827,827,827,827,827,827,827,827,827,827,827,827,827,827,827,827,827,827,827,827,827,827,827,827,826,816,808,799,789,784,774,768,760,749,745,736,736,735,730,713,669,657,649,646,640,615,604,593,586,581,564,540,535,533,532,532,532,530,525,515,488],"ymouse":[482,482,482,482,482,482,482,482,482,482,482,482,482,482,482,482,482,482,482,482,482,482,482,482,482,482,482,482,482,482,482,482,482,482,482,482,481,451,428,394,373,359,332,315,302,289,285,279,279,278,277,271,252,246,241,239,234,215,206,196,189,183,167,150,146,145,144,144,144,142,135,121,85],"timestamp_mouse":[12,32,52,71,92,112,132,152,172,193,212,232,252,271,292,312,332,352,373,392,412,432,452,473,492,513,532,552,572,592,612,632,652,672,692,712,732,752,772,792,812,832,852,871,893,912,932,952,973,992,1011,1031,1052,1072,1092,1112,1132,1151,1171,1191,1212,1232,1252,1273,1292,1311,1331,1352,1372,1392,1412,1431,1452],"xSR":741.5,"ySR":449.15000000000003,"xT1":424.9,"yT1":0,"xT2":1058.1,"yT2":0,"toosoon":0,"cond_shown":"Incongruent","ratio_trial":200,"L_num":7,"L_den":10,"R_num":12,"R_den":24,"correct_side":1,"subjID":"SergioAndresGonzalezGutierrez6","gender":"0","school":"6","age":"11"},{"start_time":1551899716214,"click_time":1551899718022,"finger_time":1551899716962,"fix_duration":250,"trial":14,"RT":748,"MT":1060,"sideResp":1,"stimulus":[],"xmouse":[808,808,808,808,808,808,808,808,808,808,808,808,808,808,808,808,808,808,808,808,808,808,808,808,808,808,808,808,808,808,808,808,808,808,808,795,785,774,765,758,757,755,753,753,751,751,751,751,751,751,751,751,751,751,751,751,751,751,751,728,701,680,666,651,649,649,648,648,648,646,642,635,623,609,595,562,557,555,552,550,550,550,550,550,550,550,550,545,535,520,485],"ymouse":[487,487,487,487,487,487,487,487,487,487,487,487,487,487,487,487,487,487,487,487,487,487,487,487,487,487,487,487,487,487,487,487,487,487,487,473,459,444,428,414,412,407,404,402,400,400,400,400,400,400,400,400,400,400,400,400,400,400,400,376,349,322,304,285,281,281,279,279,278,274,266,254,237,217,197,151,143,139,133,131,131,131,131,131,131,131,130,125,115,102,76],"timestamp_mouse":[10,27,48,68,88,108,128,148,168,188,207,229,248,268,288,308,328,348,368,388,407,427,449,468,488,508,527,548,568,588,608,628,648,668,688,708,728,748,768,789,808,828,848,868,888,908,928,948,967,989,1007,1028,1048,1068,1088,1108,1128,1148,1168,1189,1207,1228,1248,1268,1289,1307,1328,1348,1368,1388,1408,1427,1447,1467,1489,1509,1528,1547,1568,1588,1608,1628,1648,1668,1689,1709,1728,1749,1768,1787,1807],"xSR":741.5,"ySR":449.15000000000003,"xT1":424.9,"yT1":0,"xT2":1058.1,"yT2":0,"toosoon":0,"cond_shown":"Congruent","ratio_trial":200,"L_num":8,"L_den":15,"R_num":3,"R_den":9,"correct_side":1,"subjID":"SergioAndresGonzalezGutierrez6","gender":"0","school":"6","age":"11"},{"start_time":1551899719613,"click_time":1551899721022,"finger_time":1551899720502,"fix_duration":250,"trial":15,"RT":889,"MT":520,"sideResp":2,"stimulus":[],"xmouse":[794,794,794,794,794,794,794,794,794,794,794,794,794,794,794,794,794,794,794,794,794,794,794,794,794,794,794,794,794,794,794,794,794,794,794,794,794,794,794,794,796,803,812,824,835,858,869,882,895,909,932,934,936,939,944,952,954,957,959,967,974,981,991,1009,1016,1022,1024,1028,1036,1047,1068],"ymouse":[476,476,476,476,476,476,476,476,476,476,476,476,476,476,476,476,476,476,476,476,476,476,476,476,476,476,476,476,476,476,476,476,476,476,476,476,476,476,476,476,476,471,464,455,446,427,417,401,386,370,344,339,335,329,319,295,289,280,270,242,227,207,185,145,126,115,112,105,96,83,63],"timestamp_mouse":[14,35,49,68,89,109,129,149,168,189,209,229,249,269,289,309,329,349,369,389,409,430,449,469,490,509,528,549,569,589,609,629,649,670,688,710,729,748,769,789,809,829,849,869,889,908,929,949,970,989,1009,1030,1049,1068,1090,1109,1129,1148,1170,1191,1209,1230,1249,1269,1289,1309,1329,1349,1370,1389,1409],"xSR":741.5,"ySR":449.15000000000003,"xT1":424.9,"yT1":0,"xT2":1058.1,"yT2":0,"toosoon":0,"cond_shown":"Incongruent","ratio_trial":100,"L_num":6,"L_den":10,"R_num":13,"R_den":26,"correct_side":1,"subjID":"SergioAndresGonzalezGutierrez6","gender":"0","school":"6","age":"11"},{"start_time":1551899723426,"click_time":1551899725823,"finger_time":1551899725321,"fix_duration":702.3706393354856,"trial":16,"RT":1895,"MT":502,"sideResp":1,"stimulus":[],"xmouse":[785,785,785,787,787,787,787,787,787,787,787,787,787,787,787,787,787,787,787,787,787,787,787,787,787,787,787,787,787,787,787,787,787,787,787,787,787,787,787,787,787,787,787,787,787,787,787,787,787,787,787,787,787,787,787,787,787,787,787,787,787,787,787,787,787,787,787,787,787,787,788,788,788,788,788,788,788,788,788,788,788,788,788,789,789,789,789,789,789,789,789,787,783,779,772,751,728,679,636,614,592,584,577,567,541,529,519,512,507,502,502,502,501,500,499,499,499,497,494,483],"ymouse":[489,489,489,489,489,489,489,489,489,489,489,489,489,489,489,489,489,489,489,489,489,489,489,489,489,489,489,489,489,489,489,489,489,489,489,489,489,489,489,489,489,489,489,489,489,489,489,489,489,489,489,489,489,489,489,489,489,489,489,489,489,489,489,489,489,489,489,489,489,489,487,487,487,487,487,487,487,487,487,487,487,487,487,487,487,487,487,486,486,484,477,471,464,455,446,425,402,356,317,301,281,270,262,250,220,205,192,181,175,169,169,168,163,160,159,159,153,138,118,80],"timestamp_mouse":[20,38,56,76,96,116,137,156,176,197,215,236,255,276,296,316,336,356,376,396,417,436,456,476,496,516,537,557,576,596,617,636,656,676,696,716,736,756,776,795,816,837,856,876,896,917,937,957,976,995,1015,1036,1057,1076,1095,1116,1136,1157,1175,1196,1216,1236,1255,1277,1295,1316,1336,1356,1376,1396,1416,1436,1456,1476,1495,1517,1536,1556,1575,1596,1615,1636,1657,1677,1696,1715,1736,1756,1776,1796,1815,1836,1856,1877,1895,1916,1936,1956,1976,1996,2017,2036,2056,2076,2097,2116,2137,2156,2177,2197,2216,2236,2256,2276,2296,2316,2336,2355,2376,2397],"xSR":741.5,"ySR":449.15000000000003,"xT1":424.9,"yT1":0,"xT2":1058.1,"yT2":0,"toosoon":0,"cond_shown":"Incongruent","ratio_trial":300,"L_num":1,"L_den":2,"R_num":3,"R_den":15,"correct_side":1,"subjID":"SergioAndresGonzalezGutierrez6","gender":"0","school":"6","age":"11"},{"start_time":1551899728156,"click_time":1551899729922,"finger_time":1551899729142,"fix_duration":1213.503172889359,"trial":17,"RT":986,"MT":780,"sideResp":1,"stimulus":[],"xmouse":[802,802,802,802,802,802,802,802,802,802,802,802,802,802,802,802,802,802,802,802,802,802,802,802,802,802,802,802,802,802,802,802,802,802,802,802,802,802,802,802,803,803,803,803,803,803,796,782,768,722,691,672,669,669,669,669,669,668,668,640,621,605,597,592,583,575,565,555,535,534,534,534,534,534,532,528,526,526,526,526,526,525,525,525,525,525,523,517,511],"ymouse":[503,503,503,503,503,503,503,503,503,503,503,503,503,503,503,503,503,503,503,503,503,503,503,503,503,503,503,503,503,503,503,503,503,503,503,503,503,503,503,503,503,503,503,503,503,502,493,478,463,415,386,372,370,370,370,370,370,369,368,344,329,316,306,299,279,264,245,229,202,200,200,200,199,186,151,137,130,130,130,130,127,125,122,121,121,121,117,104,94],"timestamp_mouse":[9,39,46,66,86,106,126,146,166,185,206,227,246,266,285,307,326,347,366,386,406,426,446,466,486,506,527,546,566,586,606,625,645,666,686,705,725,745,766,786,807,826,846,866,886,906,927,946,965,986,1006,1026,1046,1067,1085,1106,1126,1146,1165,1185,1206,1226,1246,1266,1286,1306,1327,1346,1367,1385,1406,1425,1446,1466,1486,1505,1526,1547,1566,1586,1606,1626,1646,1665,1686,1706,1726,1746,1766],"xSR":741.5,"ySR":449.15000000000003,"xT1":424.9,"yT1":0,"xT2":1058.1,"yT2":0,"toosoon":0,"cond_shown":"Congruent","ratio_trial":300,"L_num":12,"L_den":24,"R_num":2,"R_den":10,"correct_side":1,"subjID":"SergioAndresGonzalezGutierrez6","gender":"0","school":"6","age":"11"},{"start_time":1551899731373,"click_time":1551899732982,"finger_time":1551899732482,"fix_duration":250,"trial":18,"RT":1109,"MT":500,"sideResp":1,"stimulus":[],"xmouse":[808,808,808,808,808,808,808,808,808,808,808,808,808,808,808,808,808,808,808,808,808,808,808,808,808,808,808,808,808,808,808,808,808,808,808,808,808,808,808,808,808,808,808,808,808,808,808,808,808,808,808,808,808,805,795,784,770,755,704,700,686,674,662,637,626,622,619,615,609,604,592,583,577,565,562,557,551,543,528,523,519],"ymouse":[516,516,516,516,516,516,516,516,516,516,516,516,516,516,516,516,516,516,516,516,516,516,516,516,516,516,516,516,516,516,516,516,516,516,516,516,516,516,516,516,516,516,516,516,516,516,516,516,516,516,516,511,504,478,455,434,414,395,348,346,335,327,318,303,295,292,290,285,277,270,253,241,229,206,194,180,167,149,113,100,90],"timestamp_mouse":[10,42,49,69,89,108,128,149,169,189,209,230,249,269,289,309,329,349,369,389,409,429,449,469,488,509,529,548,569,589,610,629,649,669,689,710,729,749,768,789,809,829,849,869,889,909,928,949,969,989,1009,1028,1050,1069,1089,1109,1130,1149,1170,1190,1209,1229,1250,1269,1289,1309,1329,1348,1369,1390,1409,1429,1450,1469,1489,1509,1530,1549,1570,1589,1609],"xSR":741.5,"ySR":449.15000000000003,"xT1":424.9,"yT1":0,"xT2":1058.1,"yT2":0,"toosoon":0,"cond_shown":"Incongruent","ratio_trial":100,"L_num":1,"L_den":2,"R_num":8,"R_den":20,"correct_side":1,"subjID":"SergioAndresGonzalezGutierrez6","gender":"0","school":"6","age":"11"},{"start_time":1551899735127,"click_time":1551899736543,"finger_time":1551899736382,"fix_duration":804.0769646439321,"trial":19,"RT":1255,"MT":161,"sideResp":1,"stimulus":[],"xmouse":[778,778,778,778,778,778,778,778,778,778,778,778,778,778,778,778,778,778,778,778,778,778,778,778,778,778,778,778,778,778,778,778,778,778,778,778,778,778,778,778,778,778,778,778,778,778,778,767,761,753,748,748,748,748,748,748,748,748,748,748,748,748,732,696,636,573,489,474,468,466,464],"ymouse":[479,479,479,479,479,479,479,479,479,479,479,479,479,479,479,479,479,479,479,479,479,479,479,479,479,479,479,479,479,479,479,479,479,479,479,479,479,479,479,479,479,479,479,479,479,479,479,469,464,456,453,453,453,453,453,453,453,453,453,453,453,452,421,362,287,212,130,115,107,103,96],"timestamp_mouse":[16,35,55,75,95,115,136,155,175,195,215,235,256,276,295,315,335,355,375,395,415,435,455,475,496,515,535,555,575,595,615,635,655,674,695,715,735,755,775,794,816,835,855,875,895,915,936,956,976,995,1015,1035,1056,1075,1095,1116,1135,1155,1175,1195,1215,1235,1255,1276,1294,1315,1335,1355,1375,1396,1416],"xSR":741.5,"ySR":449.15000000000003,"xT1":424.9,"yT1":0,"xT2":1058.1,"yT2":0,"toosoon":0,"cond_shown":"Incongruent","ratio_trial":300,"L_num":1,"L_den":2,"R_num":2,"R_den":10,"correct_side":1,"subjID":"SergioAndresGonzalezGutierrez6","gender":"0","school":"6","age":"11"},{"start_time":1551899738671,"click_time":1551899740202,"finger_time":1551899739642,"fix_duration":547.7197517155361,"trial":20,"RT":971,"MT":560,"sideResp":2,"stimulus":[],"xmouse":[767,767,767,767,767,767,767,767,767,767,767,767,767,767,767,767,767,767,767,767,767,767,767,767,767,767,767,767,767,767,767,767,767,767,767,767,767,767,767,767,767,767,767,767,767,767,767,768,776,806,820,824,838,850,867,872,877,881,886,891,908,925,938,952,977,991,1002,1012,1020,1036,1050,1068,1074,1080,1086,1090,1093],"ymouse":[451,451,451,451,451,451,451,451,451,451,451,451,451,451,451,451,451,451,451,451,451,451,451,451,451,451,451,451,451,451,451,451,451,451,451,451,451,451,451,451,451,451,451,451,451,451,451,450,444,422,408,405,391,377,353,346,338,333,327,319,295,273,255,239,209,193,181,172,165,153,144,131,126,120,111,105,97],"timestamp_mouse":[11,42,51,71,91,111,131,151,171,191,212,231,251,270,291,312,330,351,371,390,411,431,451,472,491,511,531,551,571,592,611,632,651,671,691,711,730,751,771,791,811,831,851,871,891,911,930,951,971,991,1011,1032,1051,1071,1090,1111,1131,1151,1172,1191,1211,1231,1251,1272,1291,1311,1331,1352,1371,1391,1412,1431,1450,1472,1491,1511,1531],"xSR":741.5,"ySR":449.15000000000003,"xT1":424.9,"yT1":0,"xT2":1058.1,"yT2":0,"toosoon":0,"cond_shown":"Incongruent","ratio_trial":300,"L_num":13,"L_den":26,"R_num":12,"R_den":15,"correct_side":2,"subjID":"SergioAndresGonzalezGutierrez6","gender":"0","school":"6","age":"11"},{"start_time":1551899742567,"click_time":1551899744482,"finger_time":1551899743902,"fix_duration":1303.629924098991,"trial":21,"RT":1335,"MT":580,"sideResp":2,"stimulus":[],"xmouse":[809,809,809,809,809,809,809,809,809,809,809,809,809,809,809,809,809,809,809,809,809,809,809,809,809,809,809,809,809,809,809,809,809,809,809,809,809,809,809,809,809,809,809,809,809,809,809,809,809,809,809,809,809,809,809,809,809,809,809,809,809,809,811,811,820,836,845,858,875,891,921,932,940,950,970,977,983,989,993,997,999,1001,1002,1005,1013,1017,1022,1027,1033,1047,1055,1064,1069,1073,1079,1079],"ymouse":[502,502,502,502,502,502,502,502,502,502,502,502,502,502,502,502,502,502,502,502,502,502,502,502,502,502,502,502,502,502,502,502,502,502,502,502,502,502,502,502,502,502,502,502,502,502,502,502,502,502,502,502,502,502,502,502,502,502,502,502,502,502,502,501,493,476,468,455,439,420,380,364,352,338,311,296,282,265,251,233,226,221,215,206,185,172,162,153,145,128,122,114,110,107,100,99],"timestamp_mouse":[18,41,55,75,96,114,135,155,175,195,214,235,255,275,295,316,335,355,375,395,415,435,455,475,494,515,535,555,574,595,615,635,656,675,698,715,735,755,775,795,815,835,855,875,895,915,935,955,975,995,1015,1035,1055,1075,1095,1115,1135,1155,1175,1194,1215,1235,1255,1275,1295,1315,1335,1355,1375,1395,1415,1435,1455,1475,1496,1515,1535,1555,1575,1595,1614,1636,1656,1675,1696,1714,1735,1756,1775,1797,1815,1835,1855,1874,1896,1914],"xSR":741.5,"ySR":449.15000000000003,"xT1":424.9,"yT1":0,"xT2":1058.1,"yT2":0,"toosoon":0,"cond_shown":"Incongruent","ratio_trial":200,"L_num":7,"L_den":15,"R_num":6,"R_den":9,"correct_side":2,"subjID":"SergioAndresGonzalezGutierrez6","gender":"0","school":"6","age":"11"},{"start_time":1551899746095,"click_time":1551899747982,"finger_time":1551899747522,"fix_duration":430.5842264986741,"trial":22,"RT":1427,"MT":460,"sideResp":2,"stimulus":[],"xmouse":[783,783,783,783,783,783,783,783,783,783,783,783,783,783,783,783,783,783,783,783,783,783,783,783,783,783,783,783,783,783,783,783,783,783,783,783,783,783,783,783,783,783,783,783,783,783,783,783,783,783,783,783,783,783,783,783,783,783,783,783,783,783,783,783,783,783,783,783,783,787,802,814,829,843,862,868,875,882,894,917,927,937,947,960,982,993,1011,1017,1034,1046,1051,1053,1056,1058,1062],"ymouse":[466,466,466,466,466,466,466,466,466,466,466,466,466,466,466,466,466,466,466,466,466,466,466,466,466,466,466,466,466,466,466,466,466,466,466,466,466,466,466,466,466,466,466,466,466,466,466,466,466,466,466,466,466,466,466,466,466,466,466,466,467,467,467,467,467,467,467,467,467,467,453,441,430,417,394,387,379,369,355,326,314,297,280,260,222,205,175,166,137,104,93,88,84,82,77],"timestamp_mouse":[9,39,47,67,87,107,126,146,167,187,207,226,247,268,287,307,327,347,367,387,407,427,447,468,487,508,527,547,567,587,607,628,646,666,687,708,728,748,767,788,807,828,847,867,886,907,927,948,967,987,1007,1027,1047,1068,1087,1107,1127,1146,1166,1187,1207,1226,1247,1267,1287,1307,1327,1347,1367,1387,1407,1426,1447,1467,1487,1508,1527,1547,1567,1588,1607,1627,1647,1667,1687,1708,1727,1748,1766,1787,1808,1827,1847,1867,1887],"xSR":741.5,"ySR":449.15000000000003,"xT1":424.9,"yT1":0,"xT2":1058.1,"yT2":0,"toosoon":0,"cond_shown":"Congruent","ratio_trial":200,"L_num":6,"L_den":20,"R_num":11,"R_den":22,"correct_side":2,"subjID":"SergioAndresGonzalezGutierrez6","gender":"0","school":"6","age":"11"},{"start_time":1551899750216,"click_time":1551899753084,"finger_time":1551899752722,"fix_duration":1413.772237218222,"trial":23,"RT":2506,"MT":362,"sideResp":1,"stimulus":[],"xmouse":[794,795,795,795,795,795,795,795,795,795,795,795,795,795,795,795,795,795,795,795,795,795,795,795,795,795,795,795,795,795,795,795,795,795,795,795,795,795,795,795,795,795,795,795,795,795,795,795,795,795,795,795,795,795,795,795,795,795,795,795,795,795,795,795,795,795,795,795,795,795,795,795,795,795,795,795,795,795,795,795,795,795,795,795,795,795,795,795,795,795,795,795,795,795,795,795,795,795,795,795,795,795,795,795,795,795,795,795,795,795,795,795,795,795,795,795,795,795,795,795,795,795,791,774,757,742,725,705,692,680,675,669,661,650,633,625,618,608,598,582,576,567,555,497],"ymouse":[498,496,496,496,496,496,496,496,496,496,496,496,496,496,496,496,496,496,496,496,496,496,496,496,496,496,496,496,496,496,496,496,496,496,496,496,496,496,496,496,496,496,496,496,496,496,496,496,496,496,496,496,496,496,496,496,496,496,496,496,496,496,496,496,496,496,496,496,496,496,496,496,496,496,496,496,496,496,496,496,496,496,496,496,496,496,496,496,496,496,496,496,496,496,496,496,496,496,496,496,496,496,496,496,496,496,496,496,496,496,496,496,496,496,496,496,496,496,496,496,496,496,493,470,450,431,412,390,375,363,356,347,336,321,297,284,269,251,230,193,181,166,140,60],"timestamp_mouse":[6,26,45,66,86,106,126,145,166,186,206,226,246,265,286,306,325,346,366,386,406,426,445,465,486,506,526,546,566,585,606,626,646,666,687,706,726,746,766,786,807,826,846,866,886,906,926,946,966,986,1006,1026,1046,1066,1086,1106,1126,1145,1166,1186,1206,1226,1246,1266,1286,1306,1325,1346,1366,1385,1405,1426,1447,1466,1486,1506,1526,1546,1566,1586,1606,1626,1646,1666,1687,1706,1726,1747,1766,1785,1805,1826,1846,1866,1885,1905,1926,1945,1966,1986,2006,2026,2046,2066,2086,2106,2126,2146,2166,2186,2206,2226,2246,2267,2287,2306,2327,2345,2366,2386,2406,2426,2446,2466,2486,2506,2527,2546,2565,2585,2605,2626,2646,2666,2686,2706,2727,2746,2766,2786,2807,2826,2846,2868],"xSR":741.5,"ySR":449.15000000000003,"xT1":424.9,"yT1":0,"xT2":1058.1,"yT2":0,"toosoon":0,"cond_shown":"Incongruent","ratio_trial":300,"L_num":4,"L_den":20,"R_num":2,"R_den":4,"correct_side":2,"subjID":"SergioAndresGonzalezGutierrez6","gender":"0","school":"6","age":"11"},{"start_time":1551899755338,"click_time":1551899757142,"finger_time":1551899756422,"fix_duration":773.7261477547604,"trial":24,"RT":1084,"MT":720,"sideResp":2,"stimulus":[],"xmouse":[796,796,796,796,796,796,796,796,796,795,794,794,793,793,793,793,792,792,792,792,792,791,790,789,789,789,789,789,789,789,789,789,789,789,789,789,789,789,789,789,789,789,788,788,788,788,788,788,788,788,788,787,787,799,807,818,830,842,859,866,874,893,907,934,944,954,963,968,978,983,989,998,1002,1009,1012,1016,1022,1027,1038,1042,1051,1058,1066,1073,1074,1074,1075,1077,1082,1084,1085],"ymouse":[486,486,486,486,486,486,486,486,486,486,486,486,486,486,486,486,486,486,486,486,486,486,486,486,486,486,486,486,486,486,486,486,486,486,486,486,486,486,486,486,486,486,486,486,486,486,486,486,486,486,486,486,483,456,441,425,410,395,371,357,343,315,296,258,238,218,204,196,182,176,169,162,159,154,152,150,146,143,136,133,127,123,117,111,110,110,109,107,101,100,98],"timestamp_mouse":[12,24,44,64,85,104,124,144,164,184,204,224,244,263,284,304,324,344,364,384,404,424,444,464,484,504,524,544,565,585,604,624,644,665,684,704,724,744,763,783,804,824,844,864,884,904,924,944,963,984,1005,1024,1044,1064,1084,1104,1124,1144,1164,1184,1204,1224,1244,1263,1284,1304,1324,1343,1364,1384,1404,1424,1443,1463,1484,1503,1525,1546,1564,1584,1604,1623,1645,1663,1685,1704,1724,1744,1764,1785,1804],"xSR":741.5,"ySR":449.15000000000003,"xT1":424.9,"yT1":0,"xT2":1058.1,"yT2":0,"toosoon":0,"cond_shown":"Incongruent","ratio_trial":300,"L_num":4,"L_den":20,"R_num":2,"R_den":4,"correct_side":2,"subjID":"SergioAndresGonzalezGutierrez6","gender":"0","school":"6","age":"11"},{"start_time":1551899761702,"click_time":1551899763621,"finger_time":1551899762961,"fix_duration":1259.3268276310828,"trial":25,"RT":1259,"MT":660,"sideResp":1,"stimulus":[],"xmouse":[753,753,753,753,753,754,754,756,760,762,762,762,762,762,762,762,762,762,762,762,762,762,762,762,762,762,762,762,762,762,762,762,762,762,762,762,762,762,762,762,762,762,762,761,761,761,761,761,761,761,761,760,760,759,759,759,759,759,759,759,759,759,748,733,721,689,670,649,632,614,579,535,532,532,534,535,539,542,544,545,546,548,548,548,548,548,548,546,544,544,544,544,543,541,541,529,521],"ymouse":[455,455,455,455,455,455,455,455,459,465,465,465,466,466,466,466,466,466,466,466,466,466,466,466,466,466,466,466,466,466,466,466,466,466,466,466,467,467,467,467,467,467,467,467,468,468,468,468,468,468,468,469,469,469,469,469,469,469,469,469,469,469,452,433,418,389,375,360,346,331,287,241,237,234,228,223,209,200,194,190,184,166,148,131,110,79,67,58,56,56,56,56,56,56,56,61,65],"timestamp_mouse":[1,34,40,59,79,99,120,139,159,179,199,219,240,260,279,299,319,340,359,379,399,419,439,459,479,499,521,540,559,580,600,619,639,659,680,699,720,739,759,779,799,820,839,860,879,899,920,939,960,980,999,1019,1039,1060,1079,1100,1119,1139,1159,1179,1199,1220,1239,1259,1279,1301,1319,1340,1360,1379,1401,1419,1440,1459,1480,1499,1519,1539,1560,1579,1599,1619,1639,1660,1679,1700,1719,1740,1769,1779,1799,1819,1839,1860,1880,1901,1919],"xSR":741.5,"ySR":449.15000000000003,"xT1":424.9,"yT1":0,"xT2":1058.1,"yT2":0,"toosoon":0,"cond_shown":"Congruent","ratio_trial":300,"L_num":11,"L_den":22,"R_num":4,"R_den":20,"correct_side":1,"subjID":"SergioAndresGonzalezGutierrez6","gender":"0","school":"6","age":"11"},{"start_time":1551899767091,"click_time":1551899768661,"finger_time":1551899768122,"fix_duration":667.1029596804522,"trial":26,"RT":1031,"MT":539,"sideResp":2,"stimulus":[],"xmouse":[791,791,791,791,791,791,791,791,791,791,791,791,791,791,791,791,791,791,791,791,791,791,791,791,791,791,791,791,791,791,791,791,791,791,791,791,791,791,791,791,791,791,791,791,791,791,791,795,801,811,834,906,926,939,947,951,956,962,970,981,992,1000,1006,1009,1013,1015,1017,1017,1017,1022,1029,1034,1040,1041,1041,1041,1045,1061,1074],"ymouse":[524,524,524,524,524,524,524,524,524,524,524,524,524,524,524,524,524,524,524,524,524,524,524,524,524,524,524,524,524,524,524,524,524,524,524,524,524,524,524,524,524,524,524,524,524,524,524,521,511,499,478,389,348,316,295,286,277,268,255,237,220,203,191,183,171,162,158,158,157,153,145,138,128,128,127,127,124,109,98],"timestamp_mouse":[10,41,50,70,91,110,130,150,171,192,210,230,250,271,290,310,330,350,370,390,411,431,450,471,490,510,530,550,570,590,611,630,652,671,690,710,730,750,770,790,811,830,850,870,890,910,930,951,970,990,1011,1031,1050,1070,1090,1111,1131,1151,1171,1191,1211,1231,1250,1270,1290,1312,1331,1352,1370,1390,1411,1431,1450,1472,1491,1510,1531,1550,1570],"xSR":741.5,"ySR":449.15000000000003,"xT1":424.9,"yT1":0,"xT2":1058.1,"yT2":0,"toosoon":0,"cond_shown":"Congruent","ratio_trial":300,"L_num":7,"L_den":14,"R_num":20,"R_den":25,"correct_side":2,"subjID":"SergioAndresGonzalezGutierrez6","gender":"0","school":"6","age":"11"},{"start_time":1551899770666,"click_time":1551899772542,"finger_time":1551899772141,"fix_duration":882.5455426112137,"trial":27,"RT":1475,"MT":401,"sideResp":2,"stimulus":[],"xmouse":[778,778,778,778,778,778,778,778,778,778,778,778,778,778,778,778,778,778,778,778,778,778,778,778,778,778,778,778,778,778,778,778,778,778,778,776,775,775,775,775,775,775,775,775,775,775,775,775,775,775,775,775,775,775,775,775,775,775,775,775,775,775,775,775,775,775,775,775,775,775,775,785,792,808,820,836,864,872,894,902,912,923,936,963,976,991,1010,1022,1042,1047,1051,1054,1058,1059],"ymouse":[499,499,499,499,499,499,499,499,499,499,499,499,499,499,499,499,499,499,499,499,499,499,499,499,499,499,499,499,499,499,499,499,499,499,499,500,500,500,500,500,500,500,500,500,500,500,500,500,500,500,500,500,500,500,500,500,500,500,500,500,500,500,500,500,500,500,500,500,500,500,500,482,472,433,416,400,367,357,327,318,310,299,288,265,253,240,217,201,161,142,126,108,78,71],"timestamp_mouse":[15,44,56,75,95,115,135,155,176,196,215,235,255,275,295,315,335,355,375,395,416,436,456,475,495,516,535,555,576,595,615,636,656,675,695,715,736,756,775,796,816,835,855,875,895,915,937,956,975,997,1015,1036,1057,1076,1096,1115,1135,1156,1176,1195,1215,1235,1256,1276,1295,1315,1336,1355,1376,1396,1416,1435,1456,1475,1496,1516,1535,1556,1575,1596,1615,1636,1655,1675,1695,1715,1736,1757,1775,1796,1815,1835,1857,1875],"xSR":741.5,"ySR":449.15000000000003,"xT1":424.9,"yT1":0,"xT2":1058.1,"yT2":0,"toosoon":0,"cond_shown":"Congruent","ratio_trial":100,"L_num":7,"L_den":14,"R_num":15,"R_den":25,"correct_side":2,"subjID":"SergioAndresGonzalezGutierrez6","gender":"0","school":"6","age":"11"},{"start_time":1551899773791,"click_time":1551899774862,"finger_time":1551899774641,"fix_duration":288.08155732754403,"trial":28,"RT":850,"MT":221,"sideResp":2,"stimulus":[],"xmouse":[786,786,786,786,786,786,786,786,786,786,786,787,788,788,788,788,788,788,788,788,788,788,788,788,788,788,789,790,790,790,790,791,792,792,793,793,793,797,802,813,817,827,859,884,911,929,952,1009,1047,1078,1092,1099,1106,1108],"ymouse":[510,510,510,510,510,510,509,509,509,509,509,509,508,508,508,508,508,508,508,508,508,508,508,508,508,508,507,506,506,506,506,505,505,505,504,504,504,500,496,488,485,475,448,427,403,384,358,284,237,188,164,140,104,91],"timestamp_mouse":[13,37,50,71,91,110,130,151,170,191,211,231,250,270,290,310,330,351,371,390,410,430,450,470,490,510,530,550,571,592,610,630,650,670,690,710,730,750,771,790,810,831,850,871,890,910,930,951,971,990,1010,1030,1050,1070],"xSR":741.5,"ySR":449.15000000000003,"xT1":424.9,"yT1":0,"xT2":1058.1,"yT2":0,"toosoon":0,"cond_shown":"Congruent","ratio_trial":300,"L_num":3,"L_den":12,"R_num":11,"R_den":20,"correct_side":2,"subjID":"SergioAndresGonzalezGutierrez6","gender":"0","school":"6","age":"11"},{"start_time":1551899776675,"click_time":1551899778881,"finger_time":1551899778402,"fix_duration":832.9249910807044,"trial":29,"RT":1727,"MT":479,"sideResp":2,"stimulus":[],"xmouse":[782,782,782,782,782,782,782,782,782,782,782,782,782,782,782,782,782,782,782,782,782,782,782,782,782,782,782,782,782,782,782,782,782,782,782,782,782,782,782,782,782,782,782,782,782,782,782,782,782,782,782,782,782,782,782,782,782,782,782,782,782,782,782,782,782,782,782,782,782,782,782,782,782,782,782,782,782,782,782,782,782,782,783,794,813,829,845,863,880,926,944,958,970,996,1007,1017,1028,1038,1059,1063,1067,1069,1069,1069,1069,1071,1072,1077,1086,1089,1091],"ymouse":[511,511,511,511,511,511,511,511,511,511,511,511,511,511,511,511,511,511,511,511,511,511,511,511,511,511,511,511,511,511,511,511,511,511,511,511,511,511,511,511,511,511,511,511,511,511,511,511,511,511,511,511,511,511,511,511,511,511,511,511,511,511,511,511,511,511,511,511,511,511,511,511,511,511,511,511,511,511,511,511,511,511,510,498,481,467,451,436,422,382,362,344,325,291,280,270,258,244,204,186,168,154,145,139,134,129,123,118,105,101,98],"timestamp_mouse":[10,26,47,66,86,106,126,146,166,186,207,226,246,266,286,306,326,346,366,387,407,426,446,466,487,507,526,546,566,586,606,626,646,667,686,706,726,746,766,786,806,826,846,867,887,906,926,946,967,987,1006,1026,1047,1067,1087,1107,1126,1146,1166,1186,1206,1226,1246,1266,1287,1306,1327,1347,1366,1387,1408,1426,1446,1467,1487,1506,1527,1546,1566,1587,1606,1626,1646,1667,1686,1706,1727,1747,1767,1786,1807,1826,1846,1867,1887,1906,1926,1947,1967,1986,2006,2026,2046,2067,2086,2106,2126,2146,2167,2186,2206],"xSR":741.5,"ySR":449.15000000000003,"xT1":424.9,"yT1":0,"xT2":1058.1,"yT2":0,"toosoon":0,"cond_shown":"Incongruent","ratio_trial":200,"L_num":6,"L_den":20,"R_num":3,"R_den":6,"correct_side":2,"subjID":"SergioAndresGonzalezGutierrez6","gender":"0","school":"6","age":"11"},{"start_time":1551899781930,"click_time":1551899784121,"finger_time":1551899783641,"fix_duration":727.1488075644772,"trial":30,"RT":1711,"MT":480,"sideResp":2,"stimulus":[],"xmouse":[801,801,801,801,801,801,801,801,801,801,801,801,801,801,801,801,801,801,801,801,801,801,801,801,800,800,800,800,800,800,800,800,800,800,800,800,800,800,800,800,800,800,800,800,800,800,800,800,800,800,800,800,800,800,800,800,800,800,800,800,800,800,800,800,800,800,800,800,800,800,800,800,792,780,770,767,767,766,765,765,765,765,765,774,793,816,841,851,868,882,897,922,932,941,950,956,965,972,976,980,983,990,995,1001,1005,1012,1025,1050,1070,1081],"ymouse":[492,492,492,492,492,492,492,492,492,492,492,492,492,492,492,492,492,492,492,492,492,492,492,492,493,493,493,493,493,493,493,493,493,493,493,493,493,493,493,493,493,493,493,493,493,493,493,493,493,493,493,493,493,493,493,493,493,493,493,493,493,493,493,493,493,493,493,493,493,493,493,493,493,497,500,501,501,501,502,502,502,502,502,487,466,443,400,377,347,326,306,269,254,241,230,223,211,202,196,192,188,183,179,174,169,164,155,129,101,84],"timestamp_mouse":[11,48,52,71,92,113,132,151,171,191,212,232,252,272,291,311,332,351,372,391,411,431,451,472,493,511,531,551,571,592,611,631,651,672,691,711,731,751,772,792,811,832,851,871,891,911,931,952,973,992,1012,1032,1052,1071,1091,1111,1132,1151,1171,1191,1212,1232,1252,1271,1291,1311,1331,1351,1371,1391,1412,1431,1451,1471,1492,1511,1531,1552,1571,1591,1611,1632,1651,1671,1692,1711,1731,1752,1771,1791,1811,1831,1851,1871,1891,1911,1931,1953,1971,1992,2012,2031,2052,2072,2092,2112,2131,2151,2171,2191],"xSR":741.5,"ySR":449.15000000000003,"xT1":424.9,"yT1":0,"xT2":1058.1,"yT2":0,"toosoon":0,"cond_shown":"Congruent","ratio_trial":200,"L_num":3,"L_den":12,"R_num":9,"R_den":20,"correct_side":2,"subjID":"SergioAndresGonzalezGutierrez6","gender":"0","school":"6","age":"11"},{"start_time":1551899786623,"click_time":1551899788463,"finger_time":1551899788022,"fix_duration":1401.507094189863,"trial":31,"RT":1399,"MT":441,"sideResp":2,"stimulus":[],"xmouse":[798,798,798,798,798,798,798,798,798,798,798,798,798,798,798,798,798,798,798,798,798,798,798,798,798,798,797,797,797,797,797,797,797,797,797,797,797,797,797,797,797,797,797,797,797,797,797,797,797,796,796,796,796,796,796,796,796,796,796,795,795,795,795,795,795,795,795,795,805,821,842,888,929,939,950,956,965,986,1000,1014,1026,1046,1050,1050,1051,1052,1054,1060,1062,1062,1063,1065],"ymouse":[467,467,467,467,467,467,467,467,467,467,467,467,467,467,467,468,468,468,468,468,469,469,469,469,469,469,470,470,470,470,470,470,470,470,470,470,470,470,470,470,470,470,470,470,470,470,470,470,470,470,470,470,471,471,471,471,471,471,471,471,471,471,471,471,471,471,471,471,460,446,425,371,320,305,289,280,268,240,224,207,189,151,145,142,140,137,132,114,108,104,101,95],"timestamp_mouse":[18,39,69,78,99,118,138,159,180,198,218,238,258,278,298,319,338,358,378,398,418,439,459,478,498,518,539,559,578,598,619,638,659,679,698,718,738,759,778,799,819,838,859,879,898,918,938,959,978,999,1019,1039,1058,1078,1099,1118,1139,1158,1179,1198,1218,1238,1259,1280,1300,1318,1338,1358,1379,1399,1418,1439,1458,1478,1499,1518,1540,1558,1578,1599,1618,1639,1658,1678,1698,1718,1738,1758,1779,1798,1819,1840],"xSR":741.5,"ySR":449.15000000000003,"xT1":424.9,"yT1":0,"xT2":1058.1,"yT2":0,"toosoon":0,"cond_shown":"Congruent","ratio_trial":300,"L_num":1,"L_den":5,"R_num":6,"R_den":12,"correct_side":2,"subjID":"SergioAndresGonzalezGutierrez6","gender":"0","school":"6","age":"11"},{"start_time":1551899790888,"click_time":1551899792942,"finger_time":1551899792403,"fix_duration":1385.819703107091,"trial":32,"RT":1515,"MT":539,"sideResp":2,"stimulus":[],"xmouse":[789,789,789,789,789,789,789,789,789,789,789,789,789,789,789,789,789,789,789,789,789,789,789,789,789,789,789,789,789,789,789,789,789,789,789,789,789,789,789,789,789,789,789,789,789,789,789,789,789,789,789,789,789,789,789,789,789,789,789,789,789,789,789,789,789,788,788,788,788,788,788,793,799,808,834,859,868,903,925,949,953,957,963,971,988,996,998,1004,1010,1016,1018,1020,1028,1036,1045,1056,1057,1058,1058,1058,1058,1058,1060],"ymouse":[492,492,492,492,492,492,492,492,492,492,492,492,492,492,492,492,492,492,492,492,492,492,492,492,492,492,492,492,492,492,492,492,492,492,492,492,492,492,492,492,492,492,492,492,492,492,492,492,492,492,492,492,492,492,492,492,492,492,492,492,492,492,492,492,492,492,492,492,492,492,492,491,489,482,464,441,432,396,376,349,343,338,327,315,289,269,262,238,220,195,188,183,173,157,139,101,93,90,90,89,89,88,84],"timestamp_mouse":[13,33,54,74,93,113,133,153,173,193,213,233,253,274,293,314,333,353,374,393,413,433,454,473,494,513,533,554,573,593,614,633,654,674,694,713,733,753,773,793,813,833,853,874,893,913,933,953,973,993,1013,1033,1053,1074,1095,1115,1133,1153,1173,1193,1213,1234,1253,1273,1293,1313,1334,1353,1373,1393,1413,1433,1454,1473,1493,1514,1534,1553,1574,1593,1614,1633,1654,1674,1693,1713,1734,1753,1774,1793,1814,1834,1854,1873,1893,1913,1933,1953,1973,1994,2013,2033,2054],"xSR":741.5,"ySR":449.15000000000003,"xT1":424.9,"yT1":0,"xT2":1058.1,"yT2":0,"toosoon":0,"cond_shown":"Incongruent","ratio_trial":100,"L_num":8,"L_den":16,"R_num":6,"R_den":10,"correct_side":2,"subjID":"SergioAndresGonzalezGutierrez6","gender":"0","school":"6","age":"11"},{"start_time":1551899794721,"click_time":1551899796083,"finger_time":1551899795682,"fix_duration":479.24554148221523,"trial":33,"RT":961,"MT":401,"sideResp":1,"stimulus":[],"xmouse":[800,800,800,800,800,800,800,800,800,800,800,800,800,800,800,800,800,800,800,800,799,799,798,797,797,797,797,793,788,787,787,787,787,787,787,787,787,787,787,787,787,787,787,787,787,787,787,787,727,663,599,548,528,522,520,519,514,507,499,491,490,490,490,490,497,501,507,511,513],"ymouse":[504,504,504,504,504,504,504,504,504,504,504,504,504,504,504,504,504,504,504,504,504,504,504,504,504,504,504,504,506,506,506,506,506,506,506,506,506,506,506,506,506,506,506,506,506,506,506,506,445,387,310,236,204,191,181,177,171,167,162,156,155,155,155,155,135,124,111,101,91],"timestamp_mouse":[19,20,43,60,80,100,120,141,160,181,200,221,241,260,280,300,320,340,360,380,401,421,440,461,481,501,520,540,560,580,601,621,640,660,682,701,721,740,760,781,802,820,840,861,881,900,920,940,961,980,1001,1021,1040,1060,1080,1110,1120,1140,1161,1180,1200,1221,1240,1260,1280,1300,1321,1341,1362],"xSR":741.5,"ySR":449.15000000000003,"xT1":424.9,"yT1":0,"xT2":1058.1,"yT2":0,"toosoon":0,"cond_shown":"Incongruent","ratio_trial":200,"L_num":7,"L_den":10,"R_num":12,"R_den":24,"correct_side":1,"subjID":"SergioAndresGonzalezGutierrez6","gender":"0","school":"6","age":"11"},{"start_time":1551899798949,"click_time":1551899801561,"finger_time":1551899801101,"fix_duration":1365.6980984613397,"trial":34,"RT":2152,"MT":460,"sideResp":2,"stimulus":[],"xmouse":[756,755,755,755,755,754,753,753,753,753,753,753,753,751,746,744,744,744,744,744,744,744,744,744,744,744,744,744,744,744,743,743,743,743,743,743,743,743,743,743,743,743,743,743,743,743,743,743,750,755,758,758,758,758,758,758,758,758,758,758,758,758,758,758,758,759,760,760,760,760,760,760,760,760,760,762,762,762,762,762,762,762,762,762,762,762,762,762,762,762,762,762,762,762,762,762,762,762,763,763,763,763,763,763,765,770,784,815,833,877,899,915,940,950,964,978,991,1002,1012,1014,1014,1015,1022,1026,1029,1033,1036,1050,1054,1057,1061],"ymouse":[469,470,470,470,470,470,470,470,470,470,470,470,470,470,472,473,473,473,473,473,473,473,473,473,473,473,473,473,473,473,473,473,473,473,473,473,473,473,473,473,473,473,473,473,473,473,473,473,473,472,471,471,471,471,471,471,471,471,471,471,471,471,471,471,471,471,471,471,471,471,471,471,471,471,471,470,470,470,470,470,470,470,470,470,470,470,470,470,470,470,470,470,470,470,470,470,470,470,469,469,469,469,469,469,469,464,453,428,411,360,334,310,262,240,217,192,167,133,92,80,77,75,70,67,63,60,57,48,46,44,42],"timestamp_mouse":[12,32,53,72,92,112,133,152,172,192,212,232,253,272,293,312,332,352,372,394,413,433,452,472,492,512,532,552,573,592,612,632,654,672,692,712,732,752,772,792,812,833,854,872,893,913,933,952,972,992,1012,1033,1052,1072,1092,1112,1133,1152,1172,1192,1213,1232,1252,1273,1292,1312,1332,1352,1372,1392,1412,1432,1452,1472,1492,1512,1532,1553,1572,1593,1612,1633,1652,1672,1692,1712,1732,1752,1772,1793,1812,1832,1852,1872,1892,1912,1934,1952,1972,1992,2013,2033,2052,2072,2094,2113,2132,2152,2173,2192,2213,2233,2252,2273,2292,2313,2333,2352,2372,2392,2412,2432,2452,2472,2493,2512,2532,2553,2573,2592,2612],"xSR":741.5,"ySR":449.15000000000003,"xT1":424.9,"yT1":0,"xT2":1058.1,"yT2":0,"toosoon":0,"cond_shown":"Incongruent","ratio_trial":200,"L_num":14,"L_den":30,"R_num":6,"R_den":9,"correct_side":2,"subjID":"SergioAndresGonzalezGutierrez6","gender":"0","school":"6","age":"11"},{"start_time":1551899803707,"click_time":1551899806081,"finger_time":1551899805621,"fix_duration":1245.719866083439,"trial":35,"RT":1914,"MT":460,"sideResp":1,"stimulus":[],"xmouse":[820,820,820,820,820,820,820,820,820,820,820,820,820,820,820,820,820,820,820,820,820,820,820,820,820,820,820,820,820,820,820,820,820,820,820,820,820,820,820,820,820,820,820,820,820,820,820,820,820,820,820,820,820,820,820,820,820,820,820,820,820,820,820,820,820,820,820,820,820,820,820,820,819,818,811,799,799,799,798,798,798,798,798,798,798,797,797,797,797,797,797,796,789,774,755,729,716,708,704,700,688,686,682,675,663,605,552,524,516,515,515,515,514,514,514,514,514,512,479],"ymouse":[519,519,519,519,519,519,519,519,519,519,519,519,519,519,519,519,519,519,519,519,519,519,519,519,519,519,519,519,519,519,519,519,519,519,519,519,519,519,519,519,519,519,519,519,519,519,519,519,519,519,519,519,519,519,519,518,518,518,518,518,518,518,518,518,518,518,518,510,505,503,503,503,502,502,502,503,503,503,503,503,503,503,503,503,503,503,503,503,503,503,503,503,501,485,467,428,398,380,364,354,332,328,318,305,286,216,161,133,127,126,126,126,126,126,126,126,126,123,80],"timestamp_mouse":[15,41,54,75,95,114,135,155,174,195,214,235,254,275,294,314,334,355,374,395,414,434,454,475,495,514,534,555,574,594,615,634,654,674,694,715,734,754,774,796,814,834,854,875,894,916,935,954,974,994,1015,1035,1054,1075,1094,1114,1135,1155,1174,1195,1214,1235,1254,1274,1294,1314,1334,1354,1375,1394,1415,1435,1455,1475,1494,1514,1534,1554,1574,1594,1615,1634,1654,1674,1695,1715,1734,1754,1774,1794,1816,1834,1856,1875,1895,1914,1934,1955,1975,1994,2015,2035,2054,2074,2096,2114,2135,2154,2175,2195,2214,2234,2254,2274,2296,2316,2334,2354,2374],"xSR":741.5,"ySR":449.15000000000003,"xT1":424.9,"yT1":0,"xT2":1058.1,"yT2":0,"toosoon":0,"cond_shown":"Congruent","ratio_trial":100,"L_num":3,"L_den":6,"R_num":2,"R_den":5,"correct_side":1,"subjID":"SergioAndresGonzalezGutierrez6","gender":"0","school":"6","age":"11"},{"start_time":1551899807934,"click_time":1551899810443,"finger_time":1551899808961,"fix_duration":250,"trial":36,"RT":1027,"MT":1482,"sideResp":1,"stimulus":[],"xmouse":[782,783,783,785,788,789,789,789,789,789,789,789,789,789,789,789,789,789,789,789,789,786,784,779,771,768,767,767,767,766,766,766,766,766,766,766,766,766,766,766,766,766,766,766,766,766,766,766,764,758,747,737,735,734,734,734,734,734,734,734,734,734,734,734,734,734,728,705,684,649,642,633,625,614,586,579,579,579,579,579,579,577,576,572,571,571,570,567,565,555,553,553,552,552,552,552,552,552,552,552,552,552,554,554,554,554,554,554,554,554,554,554,553,547,528,512,504,499,494,488,488,488,488,488,488,487],"ymouse":[487,485,483,479,476,474,473,473,473,473,473,473,473,473,473,473,473,473,473,473,473,472,471,471,471,471,471,471,471,471,471,471,471,471,471,471,471,471,471,471,471,471,471,471,471,471,471,471,471,471,469,468,468,468,468,468,468,468,468,468,468,468,468,468,468,468,462,434,412,374,361,348,332,314,282,278,278,278,278,278,278,276,272,264,262,260,255,250,244,223,220,219,219,219,219,219,219,219,219,219,219,218,210,205,201,199,199,199,199,199,199,198,195,188,168,153,145,137,130,121,120,120,119,116,103,97],"timestamp_mouse":[13,31,47,68,87,109,127,147,167,187,208,227,247,267,288,308,327,347,367,387,407,427,447,467,487,507,527,548,567,587,607,628,648,667,687,707,728,747,769,788,807,827,848,868,887,907,927,948,968,987,1007,1027,1047,1068,1088,1107,1127,1148,1167,1187,1207,1228,1247,1268,1287,1308,1327,1348,1367,1387,1407,1428,1447,1467,1487,1507,1527,1547,1567,1587,1607,1627,1647,1667,1687,1707,1727,1748,1767,1787,1807,1827,1848,1868,1889,1909,1927,1949,1967,1987,2007,2028,2048,2067,2087,2107,2127,2147,2167,2189,2208,2227,2247,2267,2288,2308,2327,2348,2368,2387,2408,2428,2447,2467,2487,2509],"xSR":741.5,"ySR":449.15000000000003,"xT1":424.9,"yT1":0,"xT2":1058.1,"yT2":0,"toosoon":0,"cond_shown":"Incongruent","ratio_trial":100,"L_num":1,"L_den":2,"R_num":8,"R_den":20,"correct_side":1,"subjID":"SergioAndresGonzalezGutierrez6","gender":"0","school":"6","age":"11"},{"start_time":1551899812716,"click_time":1551899814421,"finger_time":1551899813962,"fix_duration":1333.8058850108562,"trial":37,"RT":1246,"MT":459,"sideResp":2,"stimulus":[],"xmouse":[814,814,814,814,814,814,814,814,814,814,814,814,814,814,814,814,814,814,814,814,814,814,814,814,814,814,814,814,814,814,814,814,814,814,814,814,814,814,814,814,814,814,814,814,814,814,814,814,814,814,814,814,814,814,815,816,823,826,830,835,838,841,842,842,843,855,863,878,891,903,926,942,957,974,991,1004,1040,1048,1053,1055,1057,1061,1062,1065,1066,1070],"ymouse":[515,515,515,515,515,515,515,515,515,515,515,515,515,515,515,515,515,515,515,515,515,515,515,515,515,515,515,515,515,515,515,515,515,515,515,515,515,515,515,515,515,515,515,515,515,515,515,515,515,515,515,515,515,515,513,513,502,498,489,477,468,457,454,453,450,431,413,382,358,330,287,269,251,235,218,198,153,141,135,130,126,120,115,106,100,93],"timestamp_mouse":[11,38,46,65,85,105,125,147,166,185,205,225,245,266,287,305,325,346,365,385,406,425,445,465,485,505,526,546,565,585,605,625,645,665,685,705,725,745,766,785,806,826,845,866,885,905,926,946,965,985,1005,1025,1045,1065,1086,1106,1125,1145,1166,1186,1205,1225,1246,1266,1285,1307,1325,1345,1365,1386,1406,1425,1445,1465,1486,1506,1525,1545,1565,1585,1606,1625,1646,1666,1685,1705],"xSR":741.5,"ySR":449.15000000000003,"xT1":424.9,"yT1":0,"xT2":1058.1,"yT2":0,"toosoon":0,"cond_shown":"Incongruent","ratio_trial":200,"L_num":6,"L_den":20,"R_num":3,"R_den":6,"correct_side":2,"subjID":"SergioAndresGonzalezGutierrez6","gender":"0","school":"6","age":"11"},{"start_time":1551899815653,"click_time":1551899818462,"finger_time":1551899816861,"fix_duration":250,"trial":38,"RT":1208,"MT":1601,"sideResp":2,"stimulus":[],"xmouse":[795,795,795,795,795,795,795,795,795,795,795,795,795,795,795,795,795,795,795,795,795,795,795,795,795,795,795,795,795,795,795,795,795,795,795,795,795,795,795,795,795,795,795,795,795,795,795,795,795,795,795,793,790,789,784,780,775,771,769,759,748,736,726,715,700,694,686,671,658,636,629,626,625,623,617,613,613,613,612,612,611,611,610,610,610,603,585,561,552,542,541,540,539,538,538,538,538,538,538,538,538,538,538,537,537,536,536,539,547,556,558,561,567,576,655,707,723,728,736,756,773,787,800,814,846,868,875,914,937,974,986,991,998,1003,1011,1016,1024,1031,1037,1055,1065],"ymouse":[512,512,512,512,512,512,512,512,512,512,512,512,512,512,512,512,512,512,512,512,512,512,512,512,512,512,512,512,512,512,512,512,512,512,512,512,512,512,512,512,512,512,512,512,512,512,512,512,512,512,509,503,498,494,481,474,468,463,461,452,445,438,432,425,414,408,399,377,359,328,317,311,308,302,290,285,285,285,284,284,284,284,284,284,284,277,252,223,209,194,190,187,184,182,180,180,180,180,180,180,180,180,180,180,180,180,186,193,202,212,215,216,218,224,242,246,246,246,243,234,226,221,217,213,201,187,183,162,151,134,128,124,120,117,113,111,107,105,101,93,90],"timestamp_mouse":[10,36,48,68,88,108,129,148,168,188,208,230,249,268,290,309,329,349,369,388,408,428,448,468,489,508,528,548,568,588,608,628,648,668,688,708,728,749,768,788,808,828,848,869,888,908,928,948,968,989,1008,1028,1049,1068,1088,1109,1129,1148,1169,1188,1208,1228,1249,1269,1288,1309,1328,1348,1369,1388,1408,1428,1449,1468,1489,1509,1529,1548,1569,1589,1608,1628,1648,1668,1688,1708,1728,1748,1768,1788,1809,1828,1848,1869,1889,1909,1930,1949,1969,1989,2008,2028,2048,2068,2088,2108,2128,2148,2168,2188,2208,2230,2249,2268,2288,2309,2328,2349,2369,2389,2408,2429,2449,2469,2488,2508,2528,2549,2569,2588,2608,2628,2649,2669,2689,2709,2728,2749,2768,2788,2808],"xSR":741.5,"ySR":449.15000000000003,"xT1":424.9,"yT1":0,"xT2":1058.1,"yT2":0,"toosoon":0,"cond_shown":"Congruent","ratio_trial":100,"L_num":4,"L_den":10,"R_num":15,"R_den":30,"correct_side":2,"subjID":"SergioAndresGonzalezGutierrez6","gender":"0","school":"6","age":"11"},{"start_time":1551899819640,"click_time":1551899821061,"finger_time":1551899820581,"fix_duration":377.5376768763898,"trial":39,"RT":941,"MT":480,"sideResp":1,"stimulus":[],"xmouse":[775,775,775,775,775,775,775,775,775,775,775,775,775,775,775,775,775,775,775,775,775,775,775,775,775,775,775,775,775,775,775,775,775,775,775,775,775,775,775,775,775,775,775,775,775,776,765,744,723,705,687,687,687,687,687,687,687,687,687,687,687,685,657,604,535,449,439,437,434,431,426,425],"ymouse":[508,508,508,508,508,508,508,508,508,508,508,508,508,508,508,508,508,508,508,508,508,508,508,508,508,508,508,508,508,508,508,508,508,508,508,508,508,508,508,508,508,508,508,508,508,507,456,417,387,360,339,339,339,339,339,339,339,339,339,339,339,337,310,269,217,146,133,127,121,114,101,94],"timestamp_mouse":[9,21,41,63,81,101,121,141,162,181,201,221,243,261,281,301,321,341,362,381,402,421,441,461,481,501,522,542,562,581,601,622,642,661,681,701,721,741,761,781,802,822,842,861,882,901,922,941,961,982,1003,1021,1042,1062,1081,1101,1121,1141,1161,1181,1202,1221,1241,1262,1281,1302,1321,1341,1362,1382,1402,1421],"xSR":741.5,"ySR":449.15000000000003,"xT1":424.9,"yT1":0,"xT2":1058.1,"yT2":0,"toosoon":0,"cond_shown":"Congruent","ratio_trial":300,"L_num":9,"L_den":10,"R_num":3,"R_den":5,"correct_side":1,"subjID":"SergioAndresGonzalezGutierrez6","gender":"0","school":"6","age":"11"},{"start_time":1551899823807,"click_time":1551899825601,"finger_time":1551899824901,"fix_duration":1344.4915461047897,"trial":40,"RT":1094,"MT":700,"sideResp":2,"stimulus":[],"xmouse":[795,795,795,795,795,795,794,794,794,794,794,794,794,794,794,794,794,794,794,794,794,794,794,794,793,793,793,793,793,793,793,793,793,793,793,793,793,793,793,793,793,793,793,793,793,793,793,793,793,793,793,797,803,811,824,840,849,864,871,878,885,900,910,917,931,937,952,958,959,960,964,971,979,981,983,985,990,1000,1003,1007,1011,1015,1028,1034,1036,1042,1048,1053,1057,1059],"ymouse":[494,494,494,494,494,494,494,494,494,494,494,494,494,494,494,494,494,494,494,494,494,494,494,494,494,494,494,494,494,494,494,494,494,494,494,494,494,494,494,494,494,494,494,494,494,494,494,494,494,494,494,481,470,458,443,420,403,373,356,340,326,297,281,264,231,220,191,178,177,175,171,164,158,155,151,149,143,134,129,126,120,113,100,94,92,87,83,80,79,78],"timestamp_mouse":[14,33,53,74,94,113,133,155,175,194,213,234,254,274,294,313,334,354,375,394,414,434,454,474,494,515,533,555,573,594,614,634,654,674,694,715,735,754,774,794,814,834,854,874,895,914,934,953,974,995,1014,1035,1053,1073,1094,1115,1133,1154,1173,1194,1214,1236,1254,1275,1294,1313,1334,1354,1374,1395,1414,1433,1454,1474,1494,1514,1534,1554,1574,1594,1614,1634,1654,1674,1694,1713,1733,1753,1774,1793],"xSR":741.5,"ySR":449.15000000000003,"xT1":424.9,"yT1":0,"xT2":1058.1,"yT2":0,"toosoon":0,"cond_shown":"Congruent","ratio_trial":200,"L_num":9,"L_den":30,"R_num":13,"R_den":26,"correct_side":2,"subjID":"SergioAndresGonzalezGutierrez6","gender":"0","school":"6","age":"11"},{"start_time":1551899826773,"click_time":1551899829201,"finger_time":1551899828281,"fix_duration":250,"trial":41,"RT":1508,"MT":920,"sideResp":2,"stimulus":[],"xmouse":[795,795,795,795,795,795,795,795,795,795,795,795,795,795,797,797,797,797,797,797,797,797,797,797,797,797,797,797,797,797,797,797,797,797,797,797,797,797,797,797,797,797,797,797,797,797,797,797,797,797,797,797,797,797,797,797,797,797,797,797,797,797,797,797,797,797,797,797,797,797,797,797,797,797,819,843,893,914,923,937,944,953,964,977,995,1001,1003,1003,1003,1003,1003,1003,1003,1003,1003,1003,1003,1003,1003,1003,1003,1003,1003,1003,1003,1003,1003,1003,1014,1021,1028,1029,1030,1030,1030,1030,1030,1031,1034,1040,1060,1076],"ymouse":[515,515,515,515,515,515,515,515,515,514,514,514,514,513,509,508,508,508,508,508,508,508,508,508,508,508,508,508,508,508,508,508,508,508,508,508,508,508,508,508,508,508,508,508,508,508,508,508,508,508,508,508,508,508,508,508,508,508,508,508,508,508,508,508,508,508,508,508,508,508,508,508,508,504,482,459,403,375,354,324,312,299,284,268,243,230,227,225,225,224,224,224,224,224,224,224,224,224,224,224,224,224,224,224,224,224,224,217,216,216,206,202,200,200,200,200,200,199,193,176,126,81],"timestamp_mouse":[10,40,48,68,87,108,127,148,168,189,208,228,247,268,288,308,327,348,369,389,408,427,448,467,489,508,528,547,568,588,608,628,648,669,688,708,727,748,768,787,807,827,848,869,888,908,928,948,968,988,1008,1028,1047,1068,1087,1108,1128,1147,1168,1188,1208,1228,1247,1267,1288,1308,1328,1348,1367,1387,1407,1428,1448,1467,1488,1508,1528,1547,1568,1588,1607,1629,1648,1668,1689,1708,1728,1748,1767,1788,1808,1828,1848,1868,1888,1908,1927,1947,1967,1988,2008,2028,2048,2068,2088,2108,2127,2148,2168,2188,2207,2228,2248,2267,2288,2307,2328,2348,2368,2388,2407,2428],"xSR":741.5,"ySR":449.15000000000003,"xT1":424.9,"yT1":0,"xT2":1058.1,"yT2":0,"toosoon":0,"cond_shown":"Incongruent","ratio_trial":200,"L_num":7,"L_den":15,"R_num":4,"R_den":6,"correct_side":2,"subjID":"SergioAndresGonzalezGutierrez6","gender":"0","school":"6","age":"11"},{"start_time":1551899831586,"click_time":1551899834121,"finger_time":1551899832541,"fix_duration":1223.055344065805,"trial":42,"RT":955,"MT":1580,"sideResp":2,"stimulus":[],"xmouse":[795,795,795,796,796,796,796,796,796,797,797,797,798,799,799,799,799,799,799,799,799,799,799,799,799,799,799,799,799,799,799,799,799,801,801,801,801,801,801,801,801,801,801,801,801,798,789,783,774,772,771,771,771,771,771,770,769,769,769,769,769,769,769,769,769,768,767,767,767,767,767,767,767,767,767,767,767,767,767,767,770,774,780,785,785,786,786,786,786,786,786,786,786,786,786,786,786,786,786,786,786,786,787,790,808,816,821,828,842,922,988,1045,1109,1137,1168,1175,1181,1187,1193,1206,1210,1211,1209,1205,1181,1161,1140],"ymouse":[492,491,491,491,491,491,491,491,491,490,490,490,489,489,489,489,489,488,488,488,488,488,488,488,488,488,488,488,488,488,488,488,488,482,478,476,476,476,475,475,475,475,475,475,474,465,456,449,436,434,434,434,434,434,434,434,434,434,434,434,434,434,434,434,434,434,435,435,435,435,435,435,435,435,435,435,435,435,435,436,439,443,446,449,449,449,449,449,450,450,450,450,450,450,450,450,450,450,450,450,450,450,450,450,439,429,419,407,385,295,246,208,161,141,115,105,98,91,82,58,43,30,17,12,10,10,12],"timestamp_mouse":[15,35,55,76,94,115,135,154,175,195,215,235,255,276,295,315,335,355,375,395,414,434,455,475,495,515,536,555,575,595,615,635,655,675,696,715,735,755,775,794,815,835,855,875,896,915,934,955,976,995,1015,1034,1055,1076,1095,1115,1136,1156,1176,1195,1215,1235,1255,1275,1295,1315,1335,1355,1375,1395,1415,1435,1455,1476,1495,1515,1535,1555,1576,1595,1615,1635,1655,1677,1694,1716,1734,1755,1774,1795,1815,1835,1855,1875,1895,1915,1935,1956,1975,1996,2015,2034,2054,2075,2095,2115,2135,2155,2175,2195,2215,2235,2256,2275,2295,2315,2335,2355,2375,2395,2414,2435,2454,2474,2494,2514,2535],"xSR":741.5,"ySR":449.15000000000003,"xT1":424.9,"yT1":0,"xT2":1058.1,"yT2":0,"toosoon":0,"cond_shown":"Congruent","ratio_trial":100,"L_num":2,"L_den":5,"R_num":6,"R_den":12,"correct_side":2,"subjID":"SergioAndresGonzalezGutierrez6","gender":"0","school":"6","age":"11"},{"start_time":1551899836260,"click_time":1551899838382,"finger_time":1551899837841,"fix_duration":1177.9332320576132,"trial":43,"RT":1581,"MT":541,"sideResp":2,"stimulus":[],"xmouse":[818,818,818,818,818,818,818,818,818,818,818,818,818,818,818,818,818,818,818,818,818,818,818,818,818,818,818,818,818,818,818,818,818,818,818,818,818,818,818,818,818,818,818,818,818,818,818,818,818,818,818,818,818,818,818,818,818,817,817,817,817,817,817,817,817,817,817,817,817,817,817,817,817,817,817,817,817,825,840,854,870,897,906,914,923,935,954,980,991,1001,1008,1014,1024,1032,1040,1048,1065,1075,1081,1084,1087,1089,1089,1089,1089,1090,1094],"ymouse":[491,491,491,491,491,491,491,491,491,491,491,491,491,491,491,491,491,491,491,491,491,491,491,491,491,491,491,491,491,491,491,491,491,491,491,491,491,491,491,491,491,491,491,491,491,491,491,491,491,491,491,491,491,491,491,491,491,492,492,492,492,492,492,492,492,492,492,492,492,492,492,492,492,492,492,492,492,481,466,453,440,415,404,392,376,355,320,280,260,244,232,223,202,190,178,167,144,126,116,111,108,105,105,105,105,103,98],"timestamp_mouse":[9,22,42,61,82,101,121,141,161,181,202,220,240,262,280,300,321,341,361,381,400,421,441,461,480,501,521,540,561,581,601,621,641,661,680,701,721,741,761,780,801,821,840,861,882,902,922,940,961,981,1001,1021,1041,1060,1081,1101,1121,1141,1161,1181,1202,1222,1241,1261,1281,1301,1321,1342,1361,1381,1402,1420,1441,1461,1482,1501,1521,1540,1561,1581,1601,1622,1640,1660,1681,1700,1721,1741,1761,1781,1801,1821,1841,1861,1882,1901,1922,1940,1961,1981,2002,2021,2040,2061,2081,2101,2122],"xSR":741.5,"ySR":449.15000000000003,"xT1":424.9,"yT1":0,"xT2":1058.1,"yT2":0,"toosoon":0,"cond_shown":"Congruent","ratio_trial":100,"L_num":3,"L_den":20,"R_num":4,"R_den":16,"correct_side":2,"subjID":"SergioAndresGonzalezGutierrez6","gender":"0","school":"6","age":"11"},{"start_time":1551899840168,"click_time":1551899841341,"finger_time":1551899840981,"fix_duration":845.6337223076491,"trial":44,"RT":813,"MT":360,"sideResp":2,"stimulus":[],"xmouse":[789,789,789,789,789,789,789,789,789,789,789,789,789,789,789,789,789,789,789,789,789,789,789,789,789,789,789,789,789,789,789,789,789,789,789,789,789,792,800,826,847,879,893,906,920,931,958,971,981,988,997,1008,1014,1019,1028,1047,1058,1074,1086],"ymouse":[523,523,523,523,523,523,523,523,523,523,523,523,523,523,523,523,523,523,523,523,523,523,523,523,523,523,523,523,523,523,523,523,523,523,523,523,523,521,515,486,465,428,413,395,374,357,313,291,274,261,243,217,203,190,173,141,123,104,85],"timestamp_mouse":[12,32,53,72,94,113,133,152,172,193,213,232,253,274,293,313,334,353,373,393,412,433,453,473,493,513,533,552,574,593,613,634,652,673,693,714,734,753,773,793,813,834,853,874,893,913,933,952,973,993,1014,1034,1052,1073,1093,1114,1133,1153,1173],"xSR":741.5,"ySR":449.15000000000003,"xT1":424.9,"yT1":0,"xT2":1058.1,"yT2":0,"toosoon":0,"cond_shown":"Incongruent","ratio_trial":300,"L_num":13,"L_den":26,"R_num":12,"R_den":15,"correct_side":2,"subjID":"SergioAndresGonzalezGutierrez6","gender":"0","school":"6","age":"11"},{"start_time":1551899842353,"click_time":1551899844001,"finger_time":1551899843621,"fix_duration":250,"trial":45,"RT":1268,"MT":380,"sideResp":2,"stimulus":[],"xmouse":[796,796,796,796,796,796,796,796,796,796,796,796,796,796,796,796,796,796,796,796,796,796,796,796,796,796,796,796,796,796,796,796,796,796,796,796,796,796,796,796,796,796,796,796,796,796,796,796,796,796,796,796,796,796,796,796,796,796,796,796,796,800,840,866,891,909,926,971,990,1008,1018,1026,1033,1035,1037,1040,1041,1046,1049,1052,1055,1058,1068],"ymouse":[523,523,523,523,523,523,523,523,523,523,523,523,523,523,523,523,523,523,523,523,523,523,523,523,523,523,523,523,523,523,523,523,523,523,523,523,523,523,523,523,523,523,523,523,523,523,523,523,523,523,523,523,523,523,523,523,523,523,523,523,523,522,481,447,409,384,359,289,257,227,209,185,162,147,137,126,120,107,103,101,99,98,91],"timestamp_mouse":[10,28,47,69,88,108,127,147,168,189,208,229,249,268,288,309,328,347,368,388,408,429,447,468,489,508,528,548,568,588,608,629,647,668,688,708,728,747,767,788,808,827,849,868,888,908,928,948,968,988,1008,1027,1048,1069,1089,1109,1128,1148,1168,1187,1208,1228,1248,1268,1289,1308,1329,1347,1368,1388,1408,1428,1448,1468,1488,1508,1529,1547,1567,1588,1608,1629,1648],"xSR":741.5,"ySR":449.15000000000003,"xT1":424.9,"yT1":0,"xT2":1058.1,"yT2":0,"toosoon":0,"cond_shown":"Congruent","ratio_trial":200,"L_num":3,"L_den":10,"R_num":7,"R_den":14,"correct_side":2,"subjID":"SergioAndresGonzalezGutierrez6","gender":"0","school":"6","age":"11"},{"start_time":1551899846557,"click_time":1551899848761,"finger_time":1551899848521,"fix_duration":335.94866416236215,"trial":46,"RT":1964,"MT":240,"sideResp":2,"stimulus":[],"xmouse":[802,802,802,802,802,802,802,802,802,802,802,802,802,802,802,802,803,804,804,804,804,804,804,804,804,804,804,804,804,804,804,804,804,804,804,804,804,804,804,804,804,804,804,804,804,804,804,804,804,804,804,804,804,804,804,804,804,804,804,804,804,804,804,804,804,804,804,804,798,789,783,782,782,782,782,782,781,778,774,774,774,774,774,774,774,774,774,774,774,774,774,774,775,783,789,794,805,824,869,894,923,949,974,1001,1009,1016,1021,1031,