[{"start_time":1551891538214,"click_time":1551891542252,"finger_time":1551891538232,"fix_duration":701.4392574763177,"trial":0,"RT":18,"MT":4020,"sideResp":2,"stimulus":[],"xmouse":[754,754,754,754,754,754,754,754,754,754,754,754,754,754,754,754,754,754,754,754,754,754,754,754,754,754,754,754,753,753,755,759,761,763,767,769,769,769,769,769,769,769,769,769,769,769,769,769,769,769,769,769,769,769,769,769,769,769,768,768,768,768,768,768,768,768,768,768,768,768,768,768,768,768,768,768,768,768,768,768,768,768,768,768,768,768,768,768,768,768,768,768,768,768,768,768,768,768,768,768,768,768,768,768,768,768,768,768,768,768,768,768,768,768,768,768,768,768,768,768,768,768,774,777,784,787,788,788,789,795,802,809,818,830,843,854,855,855,855,855,855,855,854,854,854,857,863,871,879,889,891,891,891,891,892,893,895,900,914,942,1027,1051,1061,1063,1064,1065,1068,1071,1074,1079,1092,1094,1097,1100,1105,1107,1110,1114,1115,1116,1117,1117,1117,1117,1117,1117,1117,1117,1117,1117,1117,1117,1117,1117,1117,1120,1127,1131,1135,1135,1135,1133],"ymouse":[521,521,521,521,521,521,521,521,521,521,521,521,521,521,521,521,521,521,521,521,521,521,521,521,521,521,521,521,521,522,531,539,545,553,563,576,578,578,578,578,578,578,578,578,578,578,578,578,578,578,578,578,578,578,581,586,588,589,593,595,596,596,596,596,596,596,596,596,596,596,596,596,596,598,599,600,600,600,600,600,600,600,600,600,600,600,600,600,600,600,600,600,600,600,600,600,600,600,600,601,601,601,601,601,601,601,601,601,601,601,601,601,601,601,601,601,601,601,601,600,594,591,578,572,562,547,542,539,536,526,519,512,505,494,482,455,449,446,444,443,433,427,422,417,411,394,380,368,358,343,340,339,338,338,336,334,332,329,323,313,288,280,277,276,275,275,274,273,272,270,258,256,254,250,242,239,233,223,221,217,199,197,196,196,196,196,196,196,196,196,196,196,195,194,193,189,181,170,146,140,101,98],"timestamp_mouse":[18,39,58,78,99,117,137,158,178,199,218,237,258,278,298,318,337,357,377,398,418,438,457,477,497,518,538,558,579,599,618,638,657,677,698,719,738,758,778,799,818,838,858,878,898,918,939,957,978,999,1018,1037,1057,1078,1097,1117,1138,1158,1179,1198,1217,1238,1258,1278,1298,1317,1339,1357,1378,1398,1419,1438,1458,1478,1498,1517,1537,1558,1578,1597,1617,1637,1659,1678,1697,1717,1737,1759,1777,1797,1817,1838,1857,1878,1899,1917,1937,1958,1978,1997,2017,2037,2059,2078,2097,2118,2138,2158,2179,2197,2219,2238,2257,2278,2299,2318,2337,2357,2378,2398,2418,2437,2458,2479,2498,2517,2539,2558,2577,2598,2617,2637,2657,2678,2698,2719,2738,2758,2778,2798,2818,2838,2858,2878,2897,2918,2937,2958,2977,2998,3018,3038,3059,3078,3098,3117,3138,3158,3178,3197,3217,3237,3258,3278,3298,3317,3339,3357,3377,3398,3419,3438,3459,3477,3498,3519,3539,3559,3577,3597,3617,3637,3659,3678,3697,3718,3738,3758,3778,3797,3818,3837,3858,3878,3898,3918,3939,3958,3977,3999,4019,4037],"xSR":741.5,"ySR":469.95,"xT1":424.9,"yT1":0,"xT2":1058.1,"yT2":0,"toosoon":0,"cond_shown":"Congruent","ratio_trial":300,"L_num":20,"L_den":25,"R_num":8,"R_den":16,"correct_side":1,"subjID":"sergioandrésguzmángarzón20","gender":"0","age":"11","school":"6","test":{"fix_dur":[250,1500],"timestim":1000,"targets_dim":[100,100],"targets_relative_coord":[0.3,0.7],"size_stim":[880,420],"start_dim":[100,100],"size_start":[300,300],"size_fix":60,"samplingrate":20,"img_types":["Congruent","Incongruent"],"ratios":[100,200,300],"rep_conds":19,"nTrials":120,"trials_to_rest":500,"Trials_order":[28,34,31,64,25,78,71,1,11,75,83,59,6,93,36,110,40,65,99,63,54,90,47,118,16,119,22,68,2,39,112,74,46,17,27,98,107,50,100,48,35,10,102,94,5,76,88,20,95,42,13,91,58,113,87,41,77,96,109,70,51,37,103,97,12,86,61,89,106,4,82,67,108,60,23,85,53,114,18,29,92,44,66,55,79,84,19,116,3,15,9,26,56,52,101,69,105,117,45,111,21,72,49,38,7,30,81,57,62,14,8,104,0,73,80,43,32,24,33,115],"cond_shown":["Congruent","Congruent","Incongruent","Congruent","Incongruent","Congruent","Incongruent","Incongruent","Incongruent","Incongruent","Incongruent","Incongruent","Congruent","Incongruent","Congruent","Congruent","Congruent","Incongruent","Incongruent","Incongruent","Congruent","Congruent","Incongruent","Congruent","Congruent","Incongruent","Congruent","Congruent","Congruent","Incongruent","Congruent","Congruent","Congruent","Incongruent","Incongruent","Congruent","Incongruent","Congruent","Congruent","Congruent","Incongruent","Congruent","Congruent","Congruent","Incongruent","Congruent","Congruent","Congruent","Incongruent","Congruent","Incongruent","Incongruent","Congruent","Incongruent","Incongruent","Incongruent","Incongruent","Congruent","Incongruent","Congruent","Incongruent","Incongruent","Incongruent","Incongruent","Congruent","Congruent","Incongruent","Incongruent","Congruent","Congruent","Congruent","Incongruent","Congruent","Congruent","Incongruent","Incongruent","Incongruent","Congruent","Congruent","Incongruent","Congruent","Congruent","Congruent","Incongruent","Incongruent","Congruent","Incongruent","Congruent","Incongruent","Incongruent","Incongruent","Congruent","Congruent","Congruent","Incongruent","Incongruent","Incongruent","Incongruent","Incongruent","Incongruent","Incongruent","Congruent","Incongruent","Congruent","Incongruent","Congruent","Incongruent","Incongruent","Congruent","Congruent","Congruent","Congruent","Congruent","Incongruent","Congruent","Incongruent","Congruent","Congruent","Incongruent","Incongruent"],"ratio_trial":[300,300,100,300,100,100,300,100,300,200,300,300,100,200,100,200,300,300,200,200,100,100,300,300,300,300,300,200,200,200,300,200,300,300,200,200,300,200,300,100,300,300,100,300,300,300,300,200,300,100,100,100,300,300,200,300,300,100,100,300,200,100,100,100,100,200,100,300,300,300,300,100,100,100,300,100,300,100,100,300,200,200,100,100,100,100,100,200,200,200,200,200,200,300,300,200,200,200,200,200,200,100,100,200,100,100,200,200,200,200,200,200,100,100,200,100,200,100,200,100],"left_num":[20,2,9,4,3,2,2,13,4,1,2,13,2,7,3,7,9,4,6,7,3,15,1,8,5,13,1,11,20,3,24,5,3,3,7,16,4,20,8,10,2,4,4,18,1,18,11,4,4,11,2,10,24,7,11,13,4,4,10,1,7,13,9,10,4,1,1,1,12,1,7,6,9,8,8,3,4,6,11,1,7,4,11,3,3,2,6,3,4,11,7,20,4,8,2,14,14,1,7,1,4,9,6,5,1,4,6,4,6,8,7,6,4,9,6,3,3,1,11,9],"right_num":[8,10,13,13,8,6,6,6,6,3,6,12,11,12,4,2,3,2,3,12,4,13,3,10,7,12,19,3,9,1,8,14,11,4,12,12,8,9,1,3,6,13,6,9,2,9,4,3,2,6,6,8,2,8,3,12,8,6,9,19,6,6,14,8,15,21,8,2,2,6,20,3,8,2,9,11,8,5,4,3,2,3,6,8,11,6,13,14,14,3,6,9,3,10,6,6,12,3,6,3,14,8,7,14,8,6,3,6,7,2,18,7,15,14,7,8,9,18,3,20],"left_den":[25,20,15,20,5,5,4,26,5,2,4,26,5,10,20,21,10,20,20,10,20,25,2,15,25,26,3,22,25,10,30,10,12,6,10,20,5,25,16,25,4,20,8,20,2,20,22,8,20,22,4,25,30,10,20,26,5,8,25,3,15,26,15,25,10,2,2,2,24,5,14,12,15,16,10,5,5,20,22,2,21,10,22,5,5,5,10,10,6,20,15,25,8,15,4,30,30,2,15,2,6,15,10,10,2,8,20,5,12,15,15,12,10,15,12,5,12,2,20,10],"right_den":[16,25,26,26,16,12,30,10,12,10,30,15,22,24,16,15,5,4,6,24,16,26,15,12,14,15,30,10,15,2,16,20,20,20,24,20,16,15,5,10,30,26,10,15,10,15,20,10,4,15,15,16,4,20,4,15,16,10,18,30,9,10,28,16,30,30,20,10,10,12,25,5,16,5,18,22,16,25,10,15,15,15,15,16,22,12,26,28,30,4,9,15,10,12,30,9,18,10,9,10,30,16,14,20,20,10,6,10,10,6,27,10,30,28,10,16,20,30,4,25],"correct_side":[1,2,1,2,1,2,1,2,1,1,1,2,2,1,2,1,1,2,2,1,2,1,1,2,2,2,2,1,1,2,1,2,2,1,1,1,1,1,1,1,1,2,2,1,1,1,1,1,2,1,1,2,1,1,2,2,1,2,2,2,2,2,1,2,2,2,1,1,1,2,2,2,1,1,1,1,1,1,1,1,1,1,1,1,1,2,1,2,1,2,2,1,1,2,1,2,2,1,2,1,1,1,1,2,1,2,2,1,2,1,2,2,2,1,2,1,2,2,2,1],"img_shown":["img2/300/Congruent/L/C_Dist_300_LN_20_LD_25_RN_8_RD_16_0.png","img2/300/Congruent/R/C_Dist_300_LN_2_LD_20_RN_10_RD_25_1.png","img2/100/Incongruent/L/I_Dist_100_LN_9_LD_15_RN_13_RD_26_0.png","img2/300/Congruent/R/C_Dist_300_LN_4_LD_20_RN_13_RD_26_1.png","img2/100/Incongruent/L/I_Dist_100_LN_3_LD_5_RN_8_RD_16_0.png","img2/100/Congruent/R/C_Dist_100_LN_2_LD_5_RN_6_RD_12_1.png","img2/300/Incongruent/L/I_Dist_300_LN_2_LD_4_RN_6_RD_30_0.png","img2/100/Incongruent/R/I_Dist_100_LN_13_LD_26_RN_6_RD_10_1.png","img2/300/Incongruent/L/I_Dist_300_LN_4_LD_5_RN_6_RD_12_0.png","img2/200/Incongruent/L/I_Dist_200_LN_1_LD_2_RN_3_RD_10_0.png","img2/300/Incongruent/L/I_Dist_300_LN_2_LD_4_RN_6_RD_30_0.png","img2/300/Incongruent/R/I_Dist_300_LN_13_LD_26_RN_12_RD_15_1.png","img2/100/Congruent/R/C_Dist_100_LN_2_LD_5_RN_11_RD_22_1.png","img2/200/Incongruent/L/I_Dist_200_LN_7_LD_10_RN_12_RD_24_0.png","img2/100/Congruent/R/C_Dist_100_LN_3_LD_20_RN_4_RD_16_1.png","img2/200/Congruent/L/C_Dist_200_LN_7_LD_21_RN_2_RD_15_0.png","img2/300/Congruent/L/C_Dist_300_LN_9_LD_10_RN_3_RD_5_0.png","img2/300/Incongruent/R/I_Dist_300_LN_4_LD_20_RN_2_RD_4_1.png","img2/200/Incongruent/R/I_Dist_200_LN_6_LD_20_RN_3_RD_6_1.png","img2/200/Incongruent/L/I_Dist_200_LN_7_LD_10_RN_12_RD_24_0.png","img2/100/Congruent/R/C_Dist_100_LN_3_LD_20_RN_4_RD_16_1.png","img2/100/Congruent/L/C_Dist_100_LN_15_LD_25_RN_13_RD_26_0.png","img2/300/Incongruent/L/I_Dist_300_LN_1_LD_2_RN_3_RD_15_0.png","img2/300/Congruent/R/C_Dist_300_LN_8_LD_15_RN_10_RD_12_1.png","img2/300/Congruent/R/C_Dist_300_LN_5_LD_25_RN_7_RD_14_1.png","img2/300/Incongruent/R/I_Dist_300_LN_13_LD_26_RN_12_RD_15_1.png","img2/300/Congruent/R/C_Dist_300_LN_1_LD_3_RN_19_RD_30_1.png","img2/200/Congruent/L/C_Dist_200_LN_11_LD_22_RN_3_RD_10_0.png","img2/200/Congruent/L/C_Dist_200_LN_20_LD_25_RN_9_RD_15_0.png","img2/200/Incongruent/R/I_Dist_200_LN_3_LD_10_RN_1_RD_2_1.png","img2/300/Congruent/L/C_Dist_300_LN_24_LD_30_RN_8_RD_16_0.png","img2/200/Congruent/R/C_Dist_200_LN_5_LD_10_RN_14_RD_20_1.png","img2/300/Congruent/R/C_Dist_300_LN_3_LD_12_RN_11_RD_20_1.png","img2/300/Incongruent/L/I_Dist_300_LN_3_LD_6_RN_4_RD_20_0.png","img2/200/Incongruent/L/I_Dist_200_LN_7_LD_10_RN_12_RD_24_0.png","img2/200/Congruent/L/C_Dist_200_LN_16_LD_20_RN_12_RD_20_0.png","img2/300/Incongruent/L/I_Dist_300_LN_4_LD_5_RN_8_RD_16_0.png","img2/200/Congruent/L/C_Dist_200_LN_20_LD_25_RN_9_RD_15_0.png","img2/300/Congruent/L/C_Dist_300_LN_8_LD_16_RN_1_RD_5_0.png","img2/100/Congruent/L/C_Dist_100_LN_10_LD_25_RN_3_RD_10_0.png","img2/300/Incongruent/L/I_Dist_300_LN_2_LD_4_RN_6_RD_30_0.png","img2/300/Congruent/R/C_Dist_300_LN_4_LD_20_RN_13_RD_26_1.png","img2/100/Congruent/R/C_Dist_100_LN_4_LD_8_RN_6_RD_10_1.png","img2/300/Congruent/L/C_Dist_300_LN_18_LD_20_RN_9_RD_15_0.png","img2/300/Incongruent/L/I_Dist_300_LN_1_LD_2_RN_2_RD_10_0.png","img2/300/Congruent/L/C_Dist_300_LN_18_LD_20_RN_9_RD_15_0.png","img2/300/Congruent/L/C_Dist_300_LN_11_LD_22_RN_4_RD_20_0.png","img2/200/Congruent/L/C_Dist_200_LN_4_LD_8_RN_3_RD_10_0.png","img2/300/Incongruent/R/I_Dist_300_LN_4_LD_20_RN_2_RD_4_1.png","img2/100/Congruent/L/C_Dist_100_LN_11_LD_22_RN_6_RD_15_0.png","img2/100/Incongruent/L/I_Dist_100_LN_2_LD_4_RN_6_RD_15_0.png","img2/100/Incongruent/R/I_Dist_100_LN_10_LD_25_RN_8_RD_16_1.png","img2/300/Congruent/L/C_Dist_300_LN_24_LD_30_RN_2_RD_4_0.png","img2/300/Incongruent/L/I_Dist_300_LN_7_LD_10_RN_8_RD_20_0.png","img2/200/Incongruent/R/I_Dist_200_LN_11_LD_20_RN_3_RD_4_1.png","img2/300/Incongruent/R/I_Dist_300_LN_13_LD_26_RN_12_RD_15_1.png","img2/300/Incongruent/L/I_Dist_300_LN_4_LD_5_RN_8_RD_16_0.png","img2/100/Congruent/R/C_Dist_100_LN_4_LD_8_RN_6_RD_10_1.png","img2/100/Incongruent/R/I_Dist_100_LN_10_LD_25_RN_9_RD_18_1.png","img2/300/Congruent/R/C_Dist_300_LN_1_LD_3_RN_19_RD_30_1.png","img2/200/Incongruent/R/I_Dist_200_LN_7_LD_15_RN_6_RD_9_1.png","img2/100/Incongruent/R/I_Dist_100_LN_13_LD_26_RN_6_RD_10_1.png","img2/100/Incongruent/L/I_Dist_100_LN_9_LD_15_RN_14_RD_28_0.png","img2/100/Incongruent/R/I_Dist_100_LN_10_LD_25_RN_8_RD_16_1.png","img2/100/Congruent/R/C_Dist_100_LN_4_LD_10_RN_15_RD_30_1.png","img2/200/Congruent/R/C_Dist_200_LN_1_LD_2_RN_21_RD_30_1.png","img2/100/Incongruent/L/I_Dist_100_LN_1_LD_2_RN_8_RD_20_0.png","img2/300/Incongruent/L/I_Dist_300_LN_1_LD_2_RN_2_RD_10_0.png","img2/300/Congruent/L/C_Dist_300_LN_12_LD_24_RN_2_RD_10_0.png","img2/300/Congruent/R/C_Dist_300_LN_1_LD_5_RN_6_RD_12_1.png","img2/300/Congruent/R/C_Dist_300_LN_7_LD_14_RN_20_RD_25_1.png","img2/100/Incongruent/R/I_Dist_100_LN_6_LD_12_RN_3_RD_5_1.png","img2/100/Congruent/L/C_Dist_100_LN_9_LD_15_RN_8_RD_16_0.png","img2/100/Congruent/L/C_Dist_100_LN_8_LD_16_RN_2_RD_5_0.png","img2/300/Incongruent/L/I_Dist_300_LN_8_LD_10_RN_9_RD_18_0.png","img2/100/Incongruent/L/I_Dist_100_LN_3_LD_5_RN_11_RD_22_0.png","img2/300/Incongruent/L/I_Dist_300_LN_4_LD_5_RN_8_RD_16_0.png","img2/100/Congruent/L/C_Dist_100_LN_6_LD_20_RN_5_RD_25_0.png","img2/100/Congruent/L/C_Dist_100_LN_11_LD_22_RN_4_RD_10_0.png","img2/300/Incongruent/L/I_Dist_300_LN_1_LD_2_RN_3_RD_15_0.png","img2/200/Congruent/L/C_Dist_200_LN_7_LD_21_RN_2_RD_15_0.png","img2/200/Congruent/L/C_Dist_200_LN_4_LD_10_RN_3_RD_15_0.png","img2/100/Congruent/L/C_Dist_100_LN_11_LD_22_RN_6_RD_15_0.png","img2/100/Incongruent/L/I_Dist_100_LN_3_LD_5_RN_8_RD_16_0.png","img2/100/Incongruent/L/I_Dist_100_LN_3_LD_5_RN_11_RD_22_0.png","img2/100/Congruent/R/C_Dist_100_LN_2_LD_5_RN_6_RD_12_1.png","img2/100/Incongruent/L/I_Dist_100_LN_6_LD_10_RN_13_RD_26_0.png","img2/200/Congruent/R/C_Dist_200_LN_3_LD_10_RN_14_RD_28_1.png","img2/200/Incongruent/L/I_Dist_200_LN_4_LD_6_RN_14_RD_30_0.png","img2/200/Incongruent/R/I_Dist_200_LN_11_LD_20_RN_3_RD_4_1.png","img2/200/Incongruent/R/I_Dist_200_LN_7_LD_15_RN_6_RD_9_1.png","img2/200/Congruent/L/C_Dist_200_LN_20_LD_25_RN_9_RD_15_0.png","img2/200/Congruent/L/C_Dist_200_LN_4_LD_8_RN_3_RD_10_0.png","img2/300/Congruent/R/C_Dist_300_LN_8_LD_15_RN_10_RD_12_1.png","img2/300/Incongruent/L/I_Dist_300_LN_2_LD_4_RN_6_RD_30_0.png","img2/200/Incongruent/R/I_Dist_200_LN_14_LD_30_RN_6_RD_9_1.png","img2/200/Incongruent/R/I_Dist_200_LN_14_LD_30_RN_12_RD_18_1.png","img2/200/Incongruent/L/I_Dist_200_LN_1_LD_2_RN_3_RD_10_0.png","img2/200/Incongruent/R/I_Dist_200_LN_7_LD_15_RN_6_RD_9_1.png","img2/200/Incongruent/L/I_Dist_200_LN_1_LD_2_RN_3_RD_10_0.png","img2/200/Incongruent/L/I_Dist_200_LN_4_LD_6_RN_14_RD_30_0.png","img2/100/Congruent/L/C_Dist_100_LN_9_LD_15_RN_8_RD_16_0.png","img2/100/Incongruent/L/I_Dist_100_LN_6_LD_10_RN_7_RD_14_0.png","img2/200/Congruent/R/C_Dist_200_LN_5_LD_10_RN_14_RD_20_1.png","img2/100/Incongruent/L/I_Dist_100_LN_1_LD_2_RN_8_RD_20_0.png","img2/100/Congruent/R/C_Dist_100_LN_4_LD_8_RN_6_RD_10_1.png","img2/200/Incongruent/R/I_Dist_200_LN_6_LD_20_RN_3_RD_6_1.png","img2/200/Incongruent/L/I_Dist_200_LN_4_LD_5_RN_6_RD_10_0.png","img2/200/Congruent/R/C_Dist_200_LN_6_LD_12_RN_7_RD_10_1.png","img2/200/Congruent/L/C_Dist_200_LN_8_LD_15_RN_2_RD_6_0.png","img2/200/Congruent/R/C_Dist_200_LN_7_LD_15_RN_18_RD_27_1.png","img2/200/Congruent/R/C_Dist_200_LN_6_LD_12_RN_7_RD_10_1.png","img2/100/Congruent/R/C_Dist_100_LN_4_LD_10_RN_15_RD_30_1.png","img2/100/Incongruent/L/I_Dist_100_LN_9_LD_15_RN_14_RD_28_0.png","img2/200/Congruent/R/C_Dist_200_LN_6_LD_12_RN_7_RD_10_1.png","img2/100/Incongruent/L/I_Dist_100_LN_3_LD_5_RN_8_RD_16_0.png","img2/200/Congruent/R/C_Dist_200_LN_3_LD_12_RN_9_RD_20_1.png","img2/100/Congruent/R/C_Dist_100_LN_1_LD_2_RN_18_RD_30_1.png","img2/200/Incongruent/R/I_Dist_200_LN_11_LD_20_RN_3_RD_4_1.png","img2/100/Incongruent/L/I_Dist_100_LN_9_LD_10_RN_20_RD_25_0.png"],"dist100_C":[["C_Dist_100_LN_10_LD_25_RN_3_RD_10_0.png","C_Dist_100_LN_11_LD_22_RN_4_RD_10_0.png","C_Dist_100_LN_11_LD_22_RN_6_RD_15_0.png","C_Dist_100_LN_15_LD_25_RN_13_RD_26_0.png","C_Dist_100_LN_3_LD_6_RN_2_RD_5_0.png","C_Dist_100_LN_6_LD_20_RN_5_RD_25_0.png","C_Dist_100_LN_8_LD_16_RN_2_RD_5_0.png","C_Dist_100_LN_9_LD_15_RN_8_RD_16_0.png"],["C_Dist_100_LN_1_LD_2_RN_18_RD_30_1.png","C_Dist_100_LN_1_LD_2_RN_3_RD_5_1.png","C_Dist_100_LN_12_LD_30_RN_13_RD_26_1.png","C_Dist_100_LN_2_LD_5_RN_11_RD_22_1.png","C_Dist_100_LN_2_LD_5_RN_6_RD_12_1.png","C_Dist_100_LN_3_LD_20_RN_4_RD_16_1.png","C_Dist_100_LN_4_LD_10_RN_15_RD_30_1.png","C_Dist_100_LN_4_LD_8_RN_6_RD_10_1.png","C_Dist_100_LN_6_LD_12_RN_15_RD_25_1.png","C_Dist_100_LN_7_LD_14_RN_15_RD_25_1.png","C_Dist_100_LN_7_LD_14_RN_9_RD_15_1.png"]],"dist100_I":[["I_Dist_100_LN_1_LD_2_RN_8_RD_20_0.png","I_Dist_100_LN_2_LD_4_RN_6_RD_15_0.png","I_Dist_100_LN_2_LD_4_RN_8_RD_20_0.png","I_Dist_100_LN_3_LD_5_RN_11_RD_22_0.png","I_Dist_100_LN_3_LD_5_RN_8_RD_16_0.png","I_Dist_100_LN_3_LD_6_RN_4_RD_10_0.png","I_Dist_100_LN_3_LD_9_RN_7_RD_30_0.png","I_Dist_100_LN_4_LD_8_RN_8_RD_20_0.png","I_Dist_100_LN_6_LD_10_RN_11_RD_22_0.png","I_Dist_100_LN_6_LD_10_RN_13_RD_26_0.png","I_Dist_100_LN_6_LD_10_RN_7_RD_14_0.png","I_Dist_100_LN_9_LD_10_RN_20_RD_25_0.png","I_Dist_100_LN_9_LD_15_RN_13_RD_26_0.png","I_Dist_100_LN_9_LD_15_RN_14_RD_28_0.png"],["I_Dist_100_LN_10_LD_25_RN_8_RD_16_1.png","I_Dist_100_LN_10_LD_25_RN_9_RD_18_1.png","I_Dist_100_LN_11_LD_22_RN_9_RD_15_1.png","I_Dist_100_LN_12_LD_24_RN_9_RD_15_1.png","I_Dist_100_LN_12_LD_30_RN_2_RD_4_1.png","I_Dist_100_LN_13_LD_26_RN_12_RD_20_1.png","I_Dist_100_LN_13_LD_26_RN_6_RD_10_1.png","I_Dist_100_LN_17_LD_30_RN_10_RD_15_1.png","I_Dist_100_LN_6_LD_12_RN_3_RD_5_1.png","I_Dist_100_LN_8_LD_16_RN_6_RD_10_1.png","I_Dist_100_LN_8_LD_20_RN_1_RD_2_1.png","I_Dist_100_LN_9_LD_18_RN_6_RD_10_1.png"]],"dist100_S":[["E_Dist_100_LN_2_LD_12_RN_2_RD_30_0.png","E_Dist_100_LN_6_LD_10_RN_6_RD_12_0.png"],["E_Dist_100_LN_6_LD_12_RN_6_RD_10_1.png"]],"dist200_C":[["C_Dist_200_LN_11_LD_22_RN_3_RD_10_0.png","C_Dist_200_LN_12_LD_15_RN_6_RD_10_0.png","C_Dist_200_LN_12_LD_20_RN_6_RD_15_0.png","C_Dist_200_LN_14_LD_28_RN_6_RD_20_0.png","C_Dist_200_LN_15_LD_25_RN_4_RD_10_0.png","C_Dist_200_LN_16_LD_20_RN_12_RD_20_0.png","C_Dist_200_LN_16_LD_30_RN_9_RD_27_0.png","C_Dist_200_LN_20_LD_25_RN_9_RD_15_0.png","C_Dist_200_LN_21_LD_30_RN_2_RD_4_0.png","C_Dist_200_LN_4_LD_10_RN_3_RD_15_0.png","C_Dist_200_LN_4_LD_8_RN_3_RD_10_0.png","C_Dist_200_LN_6_LD_15_RN_3_RD_15_0.png","C_Dist_200_LN_7_LD_21_RN_2_RD_15_0.png","C_Dist_200_LN_8_LD_15_RN_2_RD_6_0.png","C_Dist_200_LN_8_LD_15_RN_3_RD_9_0.png","C_Dist_200_LN_8_LD_15_RN_7_RD_21_0.png","C_Dist_200_LN_9_LD_20_RN_4_RD_16_0.png"],["C_Dist_200_LN_1_LD_2_RN_21_RD_30_1.png","C_Dist_200_LN_13_LD_26_RN_14_RD_20_1.png","C_Dist_200_LN_3_LD_10_RN_11_RD_22_1.png","C_Dist_200_LN_3_LD_10_RN_14_RD_28_1.png","C_Dist_200_LN_3_LD_10_RN_7_RD_14_1.png","C_Dist_200_LN_3_LD_12_RN_9_RD_20_1.png","C_Dist_200_LN_3_LD_6_RN_14_RD_20_1.png","C_Dist_200_LN_5_LD_10_RN_14_RD_20_1.png","C_Dist_200_LN_6_LD_12_RN_7_RD_10_1.png","C_Dist_200_LN_6_LD_20_RN_11_RD_22_1.png","C_Dist_200_LN_7_LD_15_RN_18_RD_27_1.png","C_Dist_200_LN_9_LD_30_RN_13_RD_26_1.png"]],"dist200_I":[["I_Dist_200_LN_1_LD_2_RN_3_RD_10_0.png","I_Dist_200_LN_1_LD_3_RN_2_RD_15_0.png","I_Dist_200_LN_3_LD_4_RN_11_RD_20_0.png","I_Dist_200_LN_4_LD_5_RN_6_RD_10_0.png","I_Dist_200_LN_4_LD_6_RN_14_RD_30_0.png","I_Dist_200_LN_7_LD_10_RN_12_RD_24_0.png","I_Dist_200_LN_7_LD_10_RN_14_RD_28_0.png","I_Dist_200_LN_7_LD_10_RN_8_RD_16_0.png"],["I_Dist_200_LN_11_LD_20_RN_3_RD_4_1.png","I_Dist_200_LN_14_LD_30_RN_12_RD_18_1.png","I_Dist_200_LN_14_LD_30_RN_6_RD_9_1.png","I_Dist_200_LN_3_LD_10_RN_1_RD_2_1.png","I_Dist_200_LN_4_LD_30_RN_1_RD_3_1.png","I_Dist_200_LN_6_LD_20_RN_3_RD_6_1.png","I_Dist_200_LN_7_LD_15_RN_4_RD_6_1.png","I_Dist_200_LN_7_LD_15_RN_6_RD_9_1.png","I_Dist_200_LN_9_LD_15_RN_8_RD_10_1.png"]],"dist200_S":[["E_Dist_200_LN_3_LD_6_RN_3_RD_10_0.png"],["E_Dist_200_LN_3_LD_10_RN_3_RD_6_1.png"]],"dist300_C":[["C_Dist_300_LN_11_LD_22_RN_1_RD_5_0.png","C_Dist_300_LN_11_LD_22_RN_2_RD_10_0.png","C_Dist_300_LN_11_LD_22_RN_4_RD_20_0.png","C_Dist_300_LN_12_LD_24_RN_2_RD_10_0.png","C_Dist_300_LN_18_LD_20_RN_9_RD_15_0.png","C_Dist_300_LN_20_LD_25_RN_13_RD_26_0.png","C_Dist_300_LN_20_LD_25_RN_14_RD_28_0.png","C_Dist_300_LN_20_LD_25_RN_5_RD_10_0.png","C_Dist_300_LN_20_LD_25_RN_8_RD_16_0.png","C_Dist_300_LN_20_LD_25_RN_9_RD_18_0.png","C_Dist_300_LN_24_LD_30_RN_2_RD_4_0.png","C_Dist_300_LN_24_LD_30_RN_8_RD_16_0.png","C_Dist_300_LN_3_LD_6_RN_2_RD_10_0.png","C_Dist_300_LN_4_LD_10_RN_1_RD_10_0.png","C_Dist_300_LN_4_LD_5_RN_2_RD_4_0.png","C_Dist_300_LN_8_LD_16_RN_1_RD_5_0.png","C_Dist_300_LN_9_LD_10_RN_3_RD_5_0.png"],["C_Dist_300_LN_1_LD_20_RN_7_RD_20_1.png","C_Dist_300_LN_1_LD_3_RN_19_RD_30_1.png","C_Dist_300_LN_1_LD_30_RN_8_RD_24_1.png","C_Dist_300_LN_1_LD_5_RN_11_RD_22_1.png","C_Dist_300_LN_1_LD_5_RN_3_RD_6_1.png","C_Dist_300_LN_1_LD_5_RN_6_RD_12_1.png","C_Dist_300_LN_2_LD_10_RN_12_RD_24_1.png","C_Dist_300_LN_2_LD_20_RN_10_RD_25_1.png","C_Dist_300_LN_3_LD_12_RN_11_RD_20_1.png","C_Dist_300_LN_3_LD_6_RN_4_RD_5_1.png","C_Dist_300_LN_4_LD_20_RN_13_RD_26_1.png","C_Dist_300_LN_5_LD_25_RN_6_RD_12_1.png","C_Dist_300_LN_5_LD_25_RN_7_RD_14_1.png","C_Dist_300_LN_7_LD_14_RN_20_RD_25_1.png","C_Dist_300_LN_8_LD_15_RN_10_RD_12_1.png"]],"dist300_I":[["I_Dist_300_LN_1_LD_2_RN_2_RD_10_0.png","I_Dist_300_LN_1_LD_2_RN_3_RD_15_0.png","I_Dist_300_LN_2_LD_4_RN_6_RD_30_0.png","I_Dist_300_LN_3_LD_6_RN_4_RD_20_0.png","I_Dist_300_LN_4_LD_5_RN_6_RD_12_0.png","I_Dist_300_LN_4_LD_5_RN_8_RD_16_0.png","I_Dist_300_LN_7_LD_10_RN_8_RD_20_0.png","I_Dist_300_LN_8_LD_10_RN_14_RD_28_0.png","I_Dist_300_LN_8_LD_10_RN_9_RD_18_0.png"],["I_Dist_300_LN_13_LD_26_RN_12_RD_15_1.png","I_Dist_300_LN_4_LD_20_RN_2_RD_4_1.png"]],"dist300_S":[["E_Dist_300_LN_9_LD_12_RN_9_RD_20_0.png"],["E_Dist_300_LN_18_LD_30_RN_18_RD_20_1.png","E_Dist_300_LN_3_LD_10_RN_3_RD_5_1.png","E_Dist_300_LN_9_LD_20_RN_9_RD_12_1.png"]],"dist500_C":[["C_Dist_500_LN_10_LD_13_RN_7_RD_26_0.png","C_Dist_500_LN_10_LD_15_RN_4_RD_24_0.png","C_Dist_500_LN_12_LD_16_RN_3_RD_12_0.png","C_Dist_500_LN_12_LD_18_RN_4_RD_24_0.png","C_Dist_500_LN_15_LD_18_RN_5_RD_15_0.png","C_Dist_500_LN_15_LD_20_RN_1_RD_4_0.png","C_Dist_500_LN_18_LD_27_RN_1_RD_6_0.png","C_Dist_500_LN_20_LD_24_RN_1_RD_3_0.png","C_Dist_500_LN_20_LD_24_RN_3_RD_9_0.png","C_Dist_500_LN_20_LD_24_RN_7_RD_21_0.png","C_Dist_500_LN_20_LD_28_RN_3_RD_14_0.png","C_Dist_500_LN_21_LD_28_RN_6_RD_24_0.png","C_Dist_500_LN_22_LD_28_RN_2_RD_7_0.png","C_Dist_500_LN_25_LD_30_RN_9_RD_27_0.png","C_Dist_500_LN_4_LD_6_RN_1_RD_6_0.png","C_Dist_500_LN_5_LD_6_RN_2_RD_6_0.png","C_Dist_500_LN_6_LD_9_RN_1_RD_6_0.png","C_Dist_500_LN_7_LD_10_RN_1_RD_5_0.png","C_Dist_500_LN_8_LD_12_RN_1_RD_6_0.png","C_Dist_500_LN_8_LD_12_RN_4_RD_24_0.png"],["C_Dist_500_LN_1_LD_4_RN_12_RD_16_1.png","C_Dist_500_LN_1_LD_4_RN_9_RD_12_1.png","C_Dist_500_LN_1_LD_9_RN_11_RD_18_1.png","C_Dist_500_LN_10_LD_24_RN_22_RD_24_1.png","C_Dist_500_LN_2_LD_12_RN_10_RD_15_1.png","C_Dist_500_LN_2_LD_12_RN_12_RD_18_1.png","C_Dist_500_LN_2_LD_12_RN_4_RD_6_1.png","C_Dist_500_LN_2_LD_24_RN_7_RD_12_1.png","C_Dist_500_LN_2_LD_5_RN_18_RD_20_1.png","C_Dist_500_LN_2_LD_5_RN_9_RD_10_1.png","C_Dist_500_LN_2_LD_8_RN_12_RD_16_1.png","C_Dist_500_LN_2_LD_8_RN_21_RD_28_1.png","C_Dist_500_LN_3_LD_10_RN_4_RD_5_1.png","C_Dist_500_LN_3_LD_12_RN_15_RD_20_1.png","C_Dist_500_LN_3_LD_30_RN_6_RD_10_1.png","C_Dist_500_LN_3_LD_8_RN_14_RD_16_1.png","C_Dist_500_LN_4_LD_16_RN_15_RD_20_1.png","C_Dist_500_LN_4_LD_24_RN_12_RD_18_1.png","C_Dist_500_LN_5_LD_14_RN_6_RD_7_1.png","C_Dist_500_LN_7_LD_21_RN_20_RD_24_1.png","C_Dist_500_LN_7_LD_28_RN_12_RD_16_1.png","C_Dist_500_LN_7_LD_28_RN_9_RD_12_1.png","C_Dist_500_LN_9_LD_27_RN_20_RD_24_1.png"]],"dist500_I":[["I_Dist_500_LN_2_LD_3_RN_4_RD_24_0.png","I_Dist_500_LN_5_LD_6_RN_6_RD_18_0.png","I_Dist_500_LN_7_LD_8_RN_9_RD_24_0.png"],["I_Dist_500_LN_7_LD_21_RN_5_RD_6_1.png"]],"dist500_S":[["E_Dist_500_LN_6_LD_8_RN_6_RD_24_0.png"],["E_Dist_500_LN_2_LD_12_RN_2_RD_3_1.png","E_Dist_500_LN_6_LD_24_RN_6_RD_8_1.png"]]}},{"start_time":1551891546214,"click_time":1551891551772,"finger_time":1551891551012,"fix_duration":842.2608429278308,"trial":1,"RT":4798,"MT":760,"sideResp":1,"stimulus":[],"xmouse":[778,778,778,778,778,778,778,778,778,778,778,778,778,778,778,778,778,778,778,778,778,778,778,778,778,778,778,778,778,778,778,778,778,778,778,778,778,778,778,778,778,778,778,778,778,778,778,778,778,778,778,778,778,778,778,778,778,778,778,778,778,778,778,778,778,778,778,778,778,778,778,778,778,778,778,778,778,778,778,779,789,800,802,802,802,802,802,802,802,802,802,802,802,802,802,802,802,802,802,802,802,802,802,802,802,802,802,802,802,802,802,802,802,802,802,802,802,802,802,802,802,802,802,802,802,802,802,802,802,802,802,802,802,802,802,802,802,802,802,802,802,802,802,802,802,802,802,802,802,802,802,802,802,802,802,802,802,802,802,802,802,802,802,802,802,802,802,802,802,802,802,802,802,802,802,802,802,802,802,802,802,802,802,802,802,802,802,802,802,802,802,802,802,802,802,802,802,802,802,802,802,802,802,802,802,802,802,802,802,802,802,802,802,802,802,802,802,802,802,802,802,802,802,802,802,802,802,802,802,802,802,802,802,802,802,802,802,805,802,682,592,508,453,427,407,399,389,373,354,328,294,291,291,291,306,312,317,319,320,322,325,328,329,334,345,353,362,373,380,396,400,400,401,401,401,404,411,429],"ymouse":[627,627,627,627,627,627,627,627,627,627,627,627,627,627,627,627,627,627,627,627,627,627,627,627,627,627,627,627,627,627,627,627,627,627,627,627,627,627,627,627,627,627,627,627,627,627,627,627,627,627,627,627,627,627,627,627,627,627,627,627,627,627,627,627,627,627,627,627,627,627,627,627,627,627,627,627,627,627,627,627,612,605,605,605,605,605,605,605,605,605,605,605,605,605,605,605,605,605,605,605,605,605,605,605,605,605,605,605,605,605,605,605,605,605,605,605,605,605,605,605,605,605,605,605,605,605,605,605,605,605,605,605,605,605,605,605,605,605,605,605,605,605,605,605,605,605,605,605,605,605,605,605,605,605,605,605,605,605,605,605,605,605,605,605,605,605,605,605,605,605,605,605,605,605,605,605,605,605,605,605,605,605,605,605,605,605,605,605,605,605,605,605,605,605,605,605,605,605,605,605,605,605,605,605,605,605,605,605,605,605,605,605,605,605,605,605,605,605,605,605,605,605,605,605,605,605,605,605,605,605,605,605,605,605,605,605,605,603,597,490,424,368,332,312,288,278,266,252,243,235,219,217,212,199,157,144,131,126,124,122,116,114,112,106,92,87,82,80,78,76,76,76,76,76,76,76,76,81],"timestamp_mouse":[19,38,58,77,98,117,138,159,177,199,218,238,257,279,298,317,337,357,377,399,419,437,457,479,499,517,538,557,577,599,619,638,658,678,698,717,738,758,778,797,819,838,858,879,897,919,939,957,978,997,1018,1038,1058,1078,1098,1117,1138,1159,1177,1198,1217,1237,1259,1278,1299,1318,1339,1358,1377,1398,1418,1438,1459,1477,1497,1517,1539,1558,1578,1598,1617,1637,1658,1677,1697,1718,1737,1757,1777,1797,1817,1837,1858,1877,1897,1917,1937,1957,1977,1997,2017,2037,2057,2077,2097,2117,2137,2157,2177,2197,2217,2237,2257,2277,2298,2317,2337,2357,2378,2398,2418,2439,2459,2477,2497,2517,2539,2558,2578,2597,2617,2639,2657,2678,2697,2718,2739,2759,2778,2797,2818,2838,2859,2878,2898,2919,2937,2958,2978,2999,3017,3037,3059,3078,3097,3117,3138,3158,3179,3198,3218,3238,3257,3278,3298,3317,3338,3357,3378,3399,3418,3437,3458,3479,3497,3517,3538,3557,3579,3599,3619,3638,3659,3677,3698,3718,3738,3758,3777,3798,3819,3837,3858,3877,3897,3919,3939,3958,3977,3999,4017,4038,4059,4078,4098,4117,4139,4159,4177,4199,4217,4239,4259,4278,4298,4318,4338,4357,4377,4397,4417,4437,4457,4477,4498,4518,4537,4559,4577,4597,4618,4638,4657,4677,4699,4719,4737,4759,4778,4798,4817,4838,4858,4878,4898,4918,4939,4958,4977,4999,5017,5037,5057,5078,5098,5117,5137,5158,5178,5198,5217,5238,5258,5277,5298,5318,5337,5357,5378,5398,5417,5437,5458,5478,5498,5518,5538,5558],"xSR":741.5,"ySR":573.95,"xT1":424.9,"yT1":0,"xT2":1058.1,"yT2":0,"toosoon":0,"cond_shown":"Congruent","ratio_trial":300,"L_num":2,"L_den":20,"R_num":10,"R_den":25,"correct_side":2,"subjID":"sergioandrésguzmángarzón20","gender":"0","school":"6","age":"11"},{"start_time":1551891556325,"click_time":1551891558473,"finger_time":1551891557891,"fix_duration":1313.0641022208074,"trial":2,"RT":1566,"MT":582,"sideResp":2,"stimulus":[],"xmouse":[791,791,791,791,791,791,791,791,791,791,791,791,791,791,791,791,791,791,791,791,791,791,791,791,791,791,791,791,791,791,791,791,791,791,791,791,791,791,791,791,791,791,791,791,791,791,791,791,791,791,791,791,791,791,791,791,791,791,791,791,791,791,791,791,791,791,791,791,791,791,786,780,772,772,774,787,802,821,843,872,936,968,1015,1045,1089,1106,1126,1144,1160,1169,1174,1178,1178,1178,1178,1178,1176,1175,1175,1175,1175,1175,1175,1175,1174,1170,1163,1157],"ymouse":[623,623,623,623,623,623,623,623,623,623,623,623,623,623,623,623,623,623,623,623,623,623,623,623,623,623,623,623,623,623,623,623,623,623,623,623,623,623,623,623,623,623,623,623,623,623,623,623,623,623,623,623,623,623,623,623,623,623,623,623,623,623,623,623,623,623,623,623,623,623,626,629,630,630,628,614,597,581,563,539,483,456,418,397,360,344,323,303,278,256,215,170,151,141,134,130,126,120,118,115,109,105,98,94,88,82,78,76],"timestamp_mouse":[8,28,46,66,86,106,127,146,167,188,207,227,247,266,287,308,327,347,368,387,406,428,447,466,486,506,527,548,568,588,606,627,646,666,686,706,726,746,767,787,807,828,847,866,887,906,926,947,967,986,1006,1027,1046,1066,1086,1107,1128,1147,1167,1186,1208,1228,1246,1266,1287,1307,1328,1346,1367,1387,1408,1427,1447,1466,1487,1508,1526,1548,1566,1586,1607,1627,1647,1666,1687,1707,1727,1746,1767,1786,1807,1828,1847,1866,1887,1907,1928,1947,1967,1987,2007,2027,2046,2067,2087,2107,2127,2148],"xSR":741.5,"ySR":573.95,"xT1":424.9,"yT1":0,"xT2":1058.1,"yT2":0,"toosoon":0,"cond_shown":"Incongruent","ratio_trial":100,"L_num":9,"L_den":15,"R_num":13,"R_den":26,"correct_side":1,"subjID":"sergioandrésguzmángarzón20","gender":"0","school":"6","age":"11"},{"start_time":1551891560907,"click_time":1551891563233,"finger_time":1551891562612,"fix_duration":1093.7249994450665,"trial":3,"RT":1705,"MT":621,"sideResp":2,"stimulus":[],"xmouse":[772,772,772,772,772,772,772,772,772,772,772,772,772,772,772,772,772,772,772,772,772,772,772,772,772,772,772,772,772,772,772,772,772,772,772,772,772,772,772,772,772,772,772,772,772,772,772,772,772,772,772,772,772,772,772,772,772,772,772,772,772,772,772,772,772,772,772,772,772,772,772,772,772,772,772,772,772,772,772,772,772,772,772,773,780,870,933,994,1055,1106,1199,1224,1243,1256,1265,1266,1263,1253,1245,1241,1238,1236,1231,1216,1210,1205,1200,1200,1200,1198,1189,1187,1184,1181,1176,1161,1153],"ymouse":[612,612,612,612,612,612,612,612,612,612,612,612,612,612,612,612,612,612,612,612,612,612,612,612,612,612,612,612,612,612,612,612,612,612,612,612,612,612,612,612,612,612,612,612,612,612,612,612,612,612,612,612,612,612,612,612,612,612,612,612,612,612,612,612,612,612,612,612,612,612,612,612,612,612,612,612,612,612,612,612,612,612,612,611,604,552,519,484,451,420,347,313,275,240,202,157,130,97,78,64,55,50,50,50,48,47,47,47,47,47,47,46,46,46,46,46,46],"timestamp_mouse":[4,24,46,65,84,105,126,144,165,184,205,225,245,265,284,304,325,344,365,386,406,424,444,466,486,504,524,544,565,584,604,624,645,666,684,704,724,745,765,784,804,826,844,864,884,904,924,944,966,984,1006,1025,1044,1064,1086,1105,1126,1145,1165,1185,1205,1225,1244,1265,1284,1305,1325,1345,1365,1384,1404,1426,1444,1465,1485,1504,1526,1545,1565,1584,1606,1624,1644,1666,1685,1705,1725,1745,1765,1786,1804,1824,1845,1865,1886,1904,1925,1945,1964,1985,2004,2024,2045,2066,2085,2105,2125,2144,2164,2185,2204,2225,2244,2266,2284,2305,2326],"xSR":741.5,"ySR":573.95,"xT1":424.9,"yT1":0,"xT2":1058.1,"yT2":0,"toosoon":0,"cond_shown":"Congruent","ratio_trial":300,"L_num":4,"L_den":20,"R_num":13,"R_den":26,"correct_side":2,"subjID":"sergioandrésguzmángarzón20","gender":"0","school":"6","age":"11"},{"start_time":1551891564785,"click_time":1551891566713,"finger_time":1551891566312,"fix_duration":250,"trial":4,"RT":1527,"MT":401,"sideResp":2,"stimulus":[],"xmouse":[763,763,763,763,763,763,763,763,763,763,763,763,763,763,763,763,763,763,763,763,763,763,763,763,763,763,763,763,763,763,763,763,763,763,763,763,763,763,763,763,763,763,763,763,763,763,763,763,763,763,763,763,763,763,763,763,763,763,763,763,763,763,763,763,763,763,763,763,763,763,763,763,763,763,764,767,858,918,961,999,1052,1095,1188,1221,1240,1250,1255,1255,1249,1235,1226,1212,1202,1191,1180,1170,1158],"ymouse":[611,611,611,611,611,611,611,611,611,611,611,611,611,611,611,611,611,611,611,611,611,611,611,611,611,611,611,611,611,611,611,611,611,611,611,611,611,611,611,611,611,611,611,611,611,611,611,611,611,611,611,611,611,611,611,611,611,611,611,611,611,611,611,611,611,611,611,611,611,611,611,611,611,611,611,611,545,503,466,425,348,288,162,115,74,38,8,0,0,0,0,0,2,11,21,31,47],"timestamp_mouse":[7,28,46,67,86,106,126,147,168,186,206,226,247,267,288,306,326,346,366,387,407,426,447,467,487,507,528,548,566,586,607,626,646,667,687,707,728,746,766,788,807,827,846,866,888,907,928,946,967,986,1008,1026,1046,1068,1086,1107,1126,1146,1167,1186,1206,1226,1247,1267,1287,1307,1327,1346,1366,1387,1407,1426,1447,1467,1486,1507,1527,1547,1567,1587,1606,1627,1648,1668,1689,1707,1727,1748,1768,1788,1807,1828,1847,1868,1888,1907,1928],"xSR":741.5,"ySR":573.95,"xT1":424.9,"yT1":0,"xT2":1058.1,"yT2":0,"toosoon":0,"cond_shown":"Incongruent","ratio_trial":100,"L_num":3,"L_den":5,"R_num":8,"R_den":16,"correct_side":1,"subjID":"sergioandrésguzmángarzón20","gender":"0","school":"6","age":"11"},{"start_time":1551891568848,"click_time":1551891571992,"finger_time":1551891570333,"fix_duration":1013.2960301183842,"trial":5,"RT":1485,"MT":1659,"sideResp":2,"stimulus":[],"xmouse":[801,801,801,801,801,801,801,801,801,801,801,801,801,801,801,801,801,801,801,801,801,801,801,801,801,801,801,801,801,801,801,801,801,801,801,801,801,801,801,801,801,801,801,801,801,801,801,801,801,801,801,801,801,801,801,801,801,801,801,801,801,801,801,801,801,801,801,801,801,801,801,801,800,793,731,656,618,599,593,595,613,655,705,766,788,792,794,794,794,792,792,794,799,807,834,857,874,889,901,927,939,946,951,954,959,962,964,967,972,975,976,977,977,978,982,986,989,995,1005,1017,1022,1025,1031,1035,1043,1044,1044,1044,1044,1044,1044,1044,1044,1045,1051,1058,1058,1058,1058,1058,1058,1058,1058,1058,1058,1058,1058,1058,1058,1058,1058,1058,1058,1058,1058,1058,1058,1060],"ymouse":[645,645,645,645,645,645,645,645,645,645,645,645,645,645,645,645,645,645,645,645,645,645,645,645,645,645,645,645,645,645,645,645,645,645,645,645,645,645,645,645,645,645,645,645,645,645,645,645,645,645,645,645,645,645,645,645,645,645,645,645,645,645,645,645,645,645,645,645,645,645,645,645,645,645,632,594,571,555,543,518,489,445,407,366,345,335,323,315,310,301,299,295,288,279,255,235,222,211,200,180,170,162,156,151,141,136,133,127,117,113,111,109,108,107,102,100,98,96,93,88,85,82,76,70,57,54,54,54,54,54,54,54,54,52,51,51,51,51,51,51,51,51,51,51,51,51,51,51,51,51,51,51,51,51,51,51,51,51],"timestamp_mouse":[5,25,44,65,85,105,125,145,164,185,204,225,244,265,284,305,324,345,365,384,406,425,444,465,484,505,524,544,565,584,604,625,644,665,686,704,725,745,765,785,805,825,844,865,886,904,925,944,965,986,1004,1025,1045,1064,1084,1105,1125,1146,1165,1184,1204,1225,1245,1264,1285,1305,1324,1344,1365,1385,1404,1424,1445,1465,1485,1504,1524,1544,1564,1584,1604,1625,1644,1665,1684,1704,1725,1744,1765,1784,1804,1825,1845,1864,1885,1905,1926,1944,1965,1985,2004,2025,2045,2064,2085,2104,2125,2145,2165,2185,2204,2225,2245,2264,2284,2305,2326,2346,2365,2384,2404,2424,2444,2465,2484,2505,2524,2544,2565,2585,2604,2624,2644,2665,2685,2704,2724,2744,2765,2785,2805,2824,2844,2864,2884,2906,2924,2944,2965,2984,3004,3024,3045,3064,3084,3104,3125,3144],"xSR":741.5,"ySR":573.95,"xT1":424.9,"yT1":0,"xT2":1058.1,"yT2":0,"toosoon":0,"cond_shown":"Congruent","ratio_trial":100,"L_num":2,"L_den":5,"R_num":6,"R_den":12,"correct_side":2,"subjID":"sergioandrésguzmángarzón20","gender":"0","school":"6","age":"11"},{"start_time":1551891574814,"click_time":1551891576973,"finger_time":1551891576433,"fix_duration":1281.89304465967,"trial":6,"RT":1619,"MT":540,"sideResp":2,"stimulus":[],"xmouse":[817,817,817,817,817,817,817,817,817,817,817,817,817,817,817,817,817,817,817,817,817,817,817,817,817,817,817,817,817,817,817,817,817,817,817,817,817,817,817,817,817,817,817,817,817,817,817,817,817,817,817,817,817,817,817,817,817,817,817,817,817,817,817,817,817,817,817,817,817,817,817,817,817,820,821,825,826,827,830,836,856,868,884,905,918,942,960,972,986,995,1015,1023,1033,1039,1042,1044,1044,1044,1044,1044,1044,1044,1044,1044,1045,1053,1058,1062],"ymouse":[604,604,604,604,604,604,604,604,604,604,604,604,604,604,604,604,604,604,604,604,604,604,604,604,604,604,604,604,604,604,604,604,604,604,604,604,604,604,604,604,604,604,604,604,604,604,604,604,604,604,604,604,604,604,604,604,604,604,604,604,604,604,604,604,604,604,604,604,604,604,604,604,604,604,604,604,604,603,600,594,571,554,521,460,404,313,264,234,204,169,100,70,46,31,24,20,20,20,20,20,20,19,20,30,42,64,74,78],"timestamp_mouse":[20,38,59,78,98,120,138,159,179,200,218,238,258,279,299,319,338,359,379,399,419,439,459,478,498,518,539,559,579,599,619,638,660,678,698,719,738,758,778,799,819,838,858,879,898,919,938,958,978,998,1018,1038,1058,1078,1098,1118,1139,1158,1178,1199,1219,1240,1258,1279,1299,1320,1338,1359,1379,1398,1419,1438,1459,1479,1498,1518,1538,1559,1578,1598,1619,1638,1659,1678,1699,1718,1738,1758,1780,1799,1818,1838,1859,1880,1899,1919,1938,1960,1978,2000,2020,2038,2059,2080,2099,2118,2138,2159],"xSR":741.5,"ySR":573.95,"xT1":424.9,"yT1":0,"xT2":1058.1,"yT2":0,"toosoon":0,"cond_shown":"Incongruent","ratio_trial":300,"L_num":2,"L_den":4,"R_num":6,"R_den":30,"correct_side":1,"subjID":"sergioandrésguzmángarzón20","gender":"0","school":"6","age":"11"},{"start_time":1551891581503,"click_time":1551891583872,"finger_time":1551891583673,"fix_duration":250,"trial":7,"RT":2170,"MT":199,"sideResp":2,"stimulus":[],"xmouse":[822,822,822,822,822,822,822,822,822,822,822,822,822,822,822,822,822,822,822,822,822,822,822,822,822,822,822,822,822,822,822,822,822,822,822,822,822,822,822,822,822,822,822,822,822,822,822,822,822,822,822,822,822,822,822,822,822,822,822,822,822,822,822,822,822,822,822,822,822,822,822,822,822,822,822,822,822,822,822,822,822,822,822,822,822,822,822,822,822,822,822,822,822,822,822,822,822,822,822,822,822,822,822,824,826,827,828,829,830,833,836,859,909,963,1018,1103,1122,1128,1128],"ymouse":[626,626,626,626,626,626,626,626,626,626,626,626,626,626,626,626,626,626,626,626,626,626,626,626,626,626,626,626,626,626,626,626,626,626,626,626,626,626,626,626,626,626,626,626,626,626,626,626,626,626,626,626,626,626,626,626,626,626,626,626,626,626,626,626,626,626,626,626,626,626,626,626,626,626,626,626,626,626,626,626,626,626,626,626,626,626,626,626,626,626,626,626,626,626,626,626,626,626,626,626,626,626,626,616,604,592,580,576,572,566,559,520,449,373,294,174,133,101,74],"timestamp_mouse":[9,30,49,70,90,109,129,150,170,189,209,229,249,270,289,310,329,350,369,389,409,429,449,469,489,510,530,549,569,589,609,629,649,669,691,709,730,749,769,790,810,829,850,869,890,909,929,950,969,991,1009,1029,1049,1069,1091,1110,1130,1149,1169,1190,1209,1229,1250,1271,1289,1310,1329,1350,1369,1390,1410,1429,1449,1470,1489,1511,1529,1549,1570,1589,1609,1630,1649,1669,1690,1710,1729,1749,1770,1790,1810,1829,1849,1870,1889,1911,1930,1949,1969,1989,2009,2029,2049,2069,2090,2110,2130,2150,2170,2190,2209,2230,2249,2270,2290,2310,2329,2349,2369],"xSR":741.5,"ySR":573.95,"xT1":424.9,"yT1":0,"xT2":1058.1,"yT2":0,"toosoon":0,"cond_shown":"Incongruent","ratio_trial":100,"L_num":13,"L_den":26,"R_num":6,"R_den":10,"correct_side":2,"subjID":"sergioandrésguzmángarzón20","gender":"0","school":"6","age":"11"},{"start_time":1551891585675,"click_time":1551891587553,"finger_time":1551891587152,"fix_duration":582.0938781470096,"trial":8,"RT":1477,"MT":401,"sideResp":1,"stimulus":[],"xmouse":[809,809,809,809,809,809,809,809,809,809,809,809,809,809,809,809,809,809,809,809,809,809,809,809,809,809,809,809,809,809,809,809,809,809,809,809,809,809,809,809,809,809,809,809,809,809,809,809,809,809,809,809,809,809,809,809,809,809,809,809,809,809,809,809,809,809,809,809,809,809,806,802,762,707,674,646,596,579,566,557,553,549,542,540,539,538,538,549,555,558,559,559,538,512],"ymouse":[637,637,637,637,637,637,637,637,637,637,637,637,637,637,637,637,637,637,637,637,637,637,637,637,637,637,637,637,637,637,637,637,637,637,637,637,637,637,637,637,637,637,637,637,637,637,637,637,637,637,637,637,637,637,637,637,637,637,637,637,637,637,637,637,637,637,637,637,637,637,635,627,577,533,509,490,459,450,440,433,425,413,382,352,332,311,288,239,212,186,161,136,90,68],"timestamp_mouse":[17,37,57,77,98,117,137,157,177,197,217,238,257,278,297,318,337,357,377,398,418,438,457,477,497,518,538,557,578,598,617,638,658,677,697,718,737,757,777,797,818,838,858,879,897,917,937,957,977,998,1017,1037,1058,1078,1098,1118,1138,1158,1177,1197,1217,1239,1257,1278,1297,1318,1337,1357,1377,1397,1418,1438,1457,1477,1497,1519,1538,1557,1578,1597,1617,1638,1658,1677,1698,1718,1738,1757,1777,1798,1817,1838,1858,1878],"xSR":741.5,"ySR":573.95,"xT1":424.9,"yT1":0,"xT2":1058.1,"yT2":0,"toosoon":0,"cond_shown":"Incongruent","ratio_trial":300,"L_num":4,"L_den":5,"R_num":6,"R_den":12,"correct_side":1,"subjID":"sergioandrésguzmángarzón20","gender":"0","school":"6","age":"11"},{"start_time":1551891591382,"click_time":1551891592813,"finger_time":1551891592353,"fix_duration":1288.0371848512839,"trial":9,"RT":971,"MT":460,"sideResp":1,"stimulus":[],"xmouse":[821,821,821,821,821,821,821,821,821,821,821,821,821,821,821,821,821,821,821,821,821,821,821,821,821,821,821,821,821,821,821,821,821,821,821,821,821,821,821,821,821,821,821,821,821,821,818,762,692,618,562,515,481,479,478,476,473,471,471,469,467,464,464,464,464,464,463,463,463,465,465,465],"ymouse":[637,637,637,637,637,637,637,637,637,637,637,637,637,637,637,637,637,637,637,637,637,637,637,637,637,637,637,637,637,637,637,637,637,637,637,637,637,637,637,637,637,637,637,637,637,637,637,626,607,582,561,545,524,520,516,511,499,491,484,474,463,429,404,373,332,291,218,189,164,126,103,64],"timestamp_mouse":[11,31,51,70,90,110,130,151,170,192,211,230,250,271,290,310,330,351,372,390,410,430,450,470,490,510,530,551,570,590,610,631,651,670,691,710,730,751,770,790,810,830,850,870,892,910,930,951,971,991,1010,1031,1050,1071,1091,1110,1130,1150,1171,1190,1210,1231,1250,1271,1290,1311,1330,1350,1372,1392,1410,1430],"xSR":741.5,"ySR":573.95,"xT1":424.9,"yT1":0,"xT2":1058.1,"yT2":0,"toosoon":0,"cond_shown":"Incongruent","ratio_trial":200,"L_num":1,"L_den":2,"R_num":3,"R_den":10,"correct_side":1,"subjID":"sergioandrésguzmángarzón20","gender":"0","school":"6","age":"11"},{"start_time":1551891596483,"click_time":1551891598373,"finger_time":1551891597672,"fix_duration":869.304567955119,"trial":10,"RT":1189,"MT":701,"sideResp":1,"stimulus":[],"xmouse":[766,766,766,766,766,766,766,766,766,766,766,766,766,766,766,766,766,766,766,766,766,766,766,766,766,766,766,766,766,766,766,766,766,766,766,766,766,766,766,766,766,766,766,766,766,766,766,766,766,766,766,766,766,766,766,766,766,767,768,754,740,702,665,620,550,522,459,418,381,346,328,310,309,307,307,307,307,307,307,308,312,317,321,327,337,348,368,373,378,384,391,410,417,423,425],"ymouse":[647,647,647,647,647,647,647,647,647,647,647,647,647,647,647,647,647,647,647,647,647,647,647,647,647,647,647,647,647,647,647,647,647,647,647,647,647,647,647,647,647,647,647,647,647,647,647,647,647,647,647,647,647,647,647,647,647,638,586,544,514,446,378,310,234,209,162,135,113,94,82,70,69,67,67,67,67,67,67,65,63,63,63,63,66,68,70,71,72,72,72,72,72,72,72],"timestamp_mouse":[10,29,50,70,89,109,129,149,170,189,209,229,249,270,289,310,329,349,370,389,411,429,449,470,489,509,529,549,569,589,610,629,649,669,690,710,730,750,770,789,810,830,849,869,890,909,930,951,969,989,1010,1029,1050,1070,1090,1110,1129,1149,1169,1189,1210,1229,1249,1269,1290,1310,1329,1349,1370,1390,1409,1430,1450,1470,1489,1509,1530,1550,1569,1590,1610,1630,1649,1670,1689,1709,1730,1750,1770,1789,1809,1830,1849,1869,1890],"xSR":741.5,"ySR":573.95,"xT1":424.9,"yT1":0,"xT2":1058.1,"yT2":0,"toosoon":0,"cond_shown":"Incongruent","ratio_trial":300,"L_num":2,"L_den":4,"R_num":6,"R_den":30,"correct_side":1,"subjID":"sergioandrésguzmángarzón20","gender":"0","school":"6","age":"11"},{"start_time":1551891601030,"click_time":1551891603233,"finger_time":1551891602494,"fix_duration":1454.4227668389588,"trial":11,"RT":1464,"MT":739,"sideResp":2,"stimulus":[],"xmouse":[785,785,785,785,785,785,785,785,785,785,785,785,785,785,785,785,785,785,785,785,785,785,785,785,785,785,785,785,785,785,785,785,785,785,785,785,785,785,785,785,785,785,785,785,785,785,785,785,785,785,785,785,785,785,785,785,785,785,785,785,785,785,785,785,785,785,785,785,789,805,811,814,819,827,846,862,868,877,883,889,900,905,907,908,913,922,932,939,948,962,996,1006,1019,1036,1052,1069,1071,1071,1071,1072,1075,1076,1079,1083,1093,1098,1099,1099,1099,1099,1102],"ymouse":[651,651,651,651,651,651,651,651,651,651,651,651,651,651,651,651,651,651,651,651,651,651,651,651,651,651,651,651,651,651,651,651,651,651,651,651,651,651,651,651,651,651,651,651,651,651,651,651,651,651,651,651,651,651,651,651,651,651,651,651,651,651,651,651,651,651,651,651,649,630,621,611,591,570,532,508,493,476,462,448,419,406,398,390,371,343,319,301,286,270,246,240,230,220,208,194,191,191,190,188,178,174,167,158,134,118,113,107,106,102,96],"timestamp_mouse":[3,22,43,62,83,102,122,143,163,183,202,222,243,262,282,303,323,342,363,383,402,422,442,463,483,503,522,542,564,583,602,623,643,662,682,702,722,742,762,783,804,822,843,863,884,903,922,942,963,982,1002,1022,1042,1062,1083,1102,1123,1143,1164,1183,1203,1223,1242,1262,1282,1304,1322,1343,1362,1383,1403,1423,1442,1463,1483,1502,1522,1542,1563,1582,1602,1622,1643,1664,1683,1703,1722,1743,1763,1783,1802,1823,1842,1862,1882,1902,1922,1942,1963,1983,2003,2022,2042,2063,2083,2102,2122,2142,2162,2183,2203],"xSR":741.5,"ySR":573.95,"xT1":424.9,"yT1":0,"xT2":1058.1,"yT2":0,"toosoon":0,"cond_shown":"Incongruent","ratio_trial":300,"L_num":13,"L_den":26,"R_num":12,"R_den":15,"correct_side":2,"subjID":"sergioandrésguzmángarzón20","gender":"0","school":"6","age":"11"},{"start_time":1551891604630,"click_time":1551891608834,"finger_time":1551891606512,"fix_duration":416.8537561210296,"trial":12,"RT":1882,"MT":2322,"sideResp":1,"stimulus":[],"xmouse":[770,776,778,778,778,778,778,778,778,778,778,778,778,778,778,778,778,778,778,778,778,778,778,778,778,778,778,778,778,778,778,778,778,778,778,778,778,778,778,778,778,778,778,778,778,778,778,778,778,778,778,778,778,778,778,778,778,778,778,778,778,778,778,778,778,778,778,778,778,778,778,778,778,778,778,778,778,778,778,778,778,778,778,778,778,778,778,778,778,778,778,773,762,743,714,633,569,529,483,428,417,414,414,413,413,413,413,413,415,433,450,466,485,499,509,525,531,532,534,535,538,542,546,554,559,568,571,571,571,571,571,572,579,600,647,672,676,683,684,685,686,686,686,687,688,691,691,691,692,693,694,694,696,696,696,700,701,702,704,709,723,730,733,734,739,742,742,742,742,742,742,742,742,742,742,742,742,742,742,742,743,737,726,711,686,628,579,533,492,457,417,410,408,405,404,398,396,394,392,392,392,392,392,392,392,392,392,392,397,404,434],"ymouse":[653,653,653,653,653,653,653,653,653,653,653,653,653,653,653,653,653,653,653,653,653,653,653,653,653,653,653,653,653,653,653,653,653,653,653,653,653,653,653,653,653,653,653,653,653,653,653,653,653,653,653,653,653,653,653,653,653,653,653,653,653,653,653,653,653,653,653,653,653,653,653,653,653,653,653,653,653,653,653,653,653,653,653,653,653,653,653,653,653,653,653,652,647,636,619,576,546,530,512,492,489,489,489,488,488,488,488,488,488,483,480,475,467,462,456,436,426,423,420,416,412,408,402,394,389,383,382,382,382,382,382,382,380,376,370,370,370,369,368,368,367,367,367,365,360,353,352,349,346,345,342,342,340,338,337,331,328,326,323,317,307,304,301,300,298,297,297,297,297,297,297,297,297,297,297,297,297,297,297,297,296,290,284,278,271,253,236,216,198,184,165,157,152,146,139,115,104,86,74,60,39,34,32,32,32,31,31,31,31,31,39],"timestamp_mouse":[4,22,42,63,83,102,122,142,162,182,202,224,243,262,282,302,322,342,362,383,402,422,442,462,482,502,523,542,562,582,602,622,643,662,682,702,722,742,762,783,802,822,843,863,882,902,922,943,962,982,1002,1022,1042,1063,1082,1102,1122,1142,1162,1182,1202,1222,1242,1263,1284,1303,1322,1343,1362,1382,1402,1422,1442,1462,1482,1503,1522,1542,1562,1582,1602,1622,1642,1662,1682,1702,1722,1743,1762,1782,1802,1823,1842,1862,1882,1902,1923,1943,1963,1983,2002,2023,2042,2062,2082,2103,2122,2143,2162,2183,2202,2222,2243,2262,2282,2302,2322,2343,2362,2383,2402,2423,2442,2463,2482,2503,2522,2542,2562,2583,2603,2623,2642,2662,2683,2702,2722,2744,2763,2783,2803,2822,2843,2862,2882,2902,2922,2942,2962,2982,3002,3023,3042,3063,3083,3102,3123,3143,3162,3183,3202,3222,3242,3263,3283,3302,3324,3344,3362,3382,3402,3422,3444,3462,3482,3502,3523,3543,3563,3583,3602,3623,3642,3662,3683,3703,3722,3743,3763,3782,3803,3822,3842,3863,3882,3902,3922,3942,3962,3983,4002,4023,4043,4063,4083,4102,4123,4143,4163,4183,4204],"xSR":741.5,"ySR":573.95,"xT1":424.9,"yT1":0,"xT2":1058.1,"yT2":0,"toosoon":0,"cond_shown":"Congruent","ratio_trial":100,"L_num":2,"L_den":5,"R_num":11,"R_den":22,"correct_side":2,"subjID":"sergioandrésguzmángarzón20","gender":"0","school":"6","age":"11"},{"start_time":1551891610918,"click_time":1551891612473,"finger_time":1551891612413,"fix_duration":1005.5437231219169,"trial":13,"RT":1495,"MT":60,"sideResp":1,"stimulus":[],"xmouse":[822,822,822,822,822,822,822,822,822,822,822,822,822,822,822,822,822,822,822,822,822,822,822,822,822,822,822,822,822,822,822,822,822,822,822,822,822,822,822,822,822,822,822,822,822,822,822,822,822,822,822,822,822,822,822,822,822,822,822,822,822,822,822,822,822,822,822,822,822,822,822,822,818,793,742,597,530,479],"ymouse":[659,659,659,659,659,659,659,659,659,659,659,659,659,659,659,659,659,659,659,659,659,659,659,659,659,659,659,659,659,659,659,659,659,659,659,659,659,659,659,659,659,659,659,659,659,659,659,659,659,659,659,659,659,659,659,659,659,659,659,659,659,659,659,659,659,659,659,659,659,659,659,659,653,608,518,271,156,66],"timestamp_mouse":[15,34,55,75,95,116,134,154,174,194,216,234,254,276,295,315,335,355,374,394,414,434,454,475,494,514,534,554,574,594,614,635,654,674,694,714,735,754,774,794,814,834,854,874,895,914,934,955,974,995,1014,1034,1054,1074,1094,1114,1136,1154,1174,1195,1215,1234,1254,1274,1294,1315,1334,1355,1374,1394,1415,1436,1454,1474,1495,1514,1535,1554],"xSR":741.5,"ySR":573.95,"xT1":424.9,"yT1":0,"xT2":1058.1,"yT2":0,"toosoon":0,"cond_shown":"Incongruent","ratio_trial":200,"L_num":7,"L_den":10,"R_num":12,"R_den":24,"correct_side":1,"subjID":"sergioandrésguzmángarzón20","gender":"0","school":"6","age":"11"},{"start_time":1551891614621,"click_time":1551891617792,"finger_time":1551891616633,"fix_duration":908.4177853257906,"trial":14,"RT":2012,"MT":1159,"sideResp":2,"stimulus":[],"xmouse":[767,767,767,767,767,767,767,767,767,767,767,767,767,767,767,767,767,767,767,767,767,767,767,767,767,767,767,767,767,767,767,767,767,767,767,767,767,767,767,767,767,767,767,767,767,767,767,767,767,767,767,767,767,767,767,767,767,767,767,767,767,767,767,767,767,767,767,767,767,767,767,767,767,767,767,767,767,767,767,767,767,767,767,767,767,767,767,767,767,767,767,767,767,767,767,767,767,767,767,758,737,726,716,709,705,697,694,689,686,677,661,652,643,628,611,600,594,589,586,584,581,580,579,578,576,575,575,574,574,578,582,586,589,591,591,592,592,592,596,604,638,661,689,715,750,759,765,779,791,830,855,878,900,923,948,989,1010,1050,1074],"ymouse":[634,634,634,634,634,634,634,634,634,634,634,634,634,634,634,634,634,634,634,634,634,634,634,634,634,634,634,634,634,634,634,634,634,634,634,634,634,634,634,634,634,634,634,634,634,634,634,634,634,634,634,634,634,634,634,634,634,634,634,634,634,634,634,634,634,634,634,634,634,634,634,634,634,634,634,634,634,634,634,634,634,634,634,634,634,634,634,634,634,634,634,634,634,634,634,634,634,634,634,625,608,599,592,585,579,566,560,549,542,527,498,481,464,443,417,401,391,384,381,377,373,371,369,367,356,340,326,304,282,239,221,210,203,201,201,200,200,200,198,196,182,171,155,143,126,122,118,111,104,88,79,72,64,56,47,34,28,16,10],"timestamp_mouse":[14,31,51,72,91,111,132,151,171,192,211,231,252,272,291,312,332,352,371,393,411,431,451,472,491,512,531,551,571,591,611,632,651,672,692,711,731,751,771,791,812,832,851,871,892,912,931,951,972,991,1012,1031,1052,1072,1091,1112,1131,1152,1172,1191,1212,1232,1252,1271,1292,1312,1331,1351,1371,1391,1412,1431,1453,1471,1491,1511,1531,1552,1571,1591,1611,1633,1651,1671,1692,1711,1732,1751,1772,1791,1811,1831,1852,1871,1892,1912,1931,1951,1972,1991,2012,2032,2051,2071,2091,2111,2132,2151,2172,2191,2212,2232,2252,2272,2292,2315,2331,2352,2371,2392,2411,2431,2451,2471,2492,2512,2531,2552,2572,2592,2612,2631,2651,2671,2691,2711,2732,2752,2771,2791,2811,2832,2851,2871,2892,2911,2932,2952,2971,2992,3011,3031,3052,3071,3091,3112,3132,3151,3171],"xSR":741.5,"ySR":573.95,"xT1":424.9,"yT1":0,"xT2":1058.1,"yT2":0,"toosoon":0,"cond_shown":"Congruent","ratio_trial":100,"L_num":3,"L_den":20,"R_num":4,"R_den":16,"correct_side":2,"subjID":"sergioandrésguzmángarzón20","gender":"0","school":"6","age":"11"},{"start_time":1551891619535,"click_time":1551891621972,"finger_time":1551891621132,"fix_duration":521.070511690112,"trial":15,"RT":1597,"MT":840,"sideResp":1,"stimulus":[],"xmouse":[825,825,825,825,825,825,825,825,825,825,825,825,825,825,825,825,825,825,825,825,825,825,825,825,825,825,825,825,825,825,825,825,825,825,825,825,825,825,825,825,825,825,825,825,825,825,825,825,825,825,825,825,825,825,825,825,825,825,825,825,825,825,825,825,825,825,825,825,825,825,825,825,823,818,817,816,808,787,757,670,622,599,580,569,562,557,549,537,528,513,505,500,495,488,485,482,482,481,480,478,476,476,475,474,473,473,471,468,465,453,447,444,443,441,440,439,438,438,438,438,438,439],"ymouse":[646,646,646,646,646,646,646,646,646,646,646,646,646,646,646,646,646,646,646,646,646,646,646,646,646,646,646,646,646,646,646,646,646,646,646,646,646,646,646,646,646,646,646,646,646,646,646,646,646,646,646,646,646,646,646,646,646,646,646,646,646,646,646,647,647,647,647,647,647,647,647,647,646,645,645,644,641,630,612,563,541,533,528,527,524,522,516,509,503,486,470,457,443,416,402,393,386,382,375,361,351,346,340,335,316,298,274,246,221,176,155,142,136,131,125,123,122,122,121,113,108,99],"timestamp_mouse":[17,37,57,78,98,117,137,157,177,197,219,237,257,277,297,317,339,358,377,398,417,437,458,478,498,517,537,558,577,597,617,637,658,677,697,717,738,758,778,799,817,838,858,878,897,918,938,959,977,998,1017,1037,1057,1077,1098,1119,1137,1157,1178,1197,1218,1238,1258,1278,1297,1318,1338,1358,1378,1397,1419,1438,1457,1478,1499,1518,1538,1558,1578,1597,1617,1637,1657,1678,1697,1717,1738,1758,1778,1797,1817,1838,1858,1878,1897,1918,1937,1958,1978,1998,2017,2037,2057,2078,2097,2117,2138,2157,2177,2198,2217,2238,2258,2277,2297,2317,2337,2358,2378,2397,2417,2437],"xSR":741.5,"ySR":573.95,"xT1":424.9,"yT1":0,"xT2":1058.1,"yT2":0,"toosoon":0,"cond_shown":"Congruent","ratio_trial":200,"L_num":7,"L_den":21,"R_num":2,"R_den":15,"correct_side":1,"subjID":"sergioandrésguzmángarzón20","gender":"0","school":"6","age":"11"},{"start_time":1551891625086,"click_time":1551891626432,"finger_time":1551891626252,"fix_duration":250,"trial":16,"RT":1166,"MT":180,"sideResp":1,"stimulus":[],"xmouse":[784,784,784,784,784,784,784,784,784,784,784,784,784,784,784,784,784,784,784,784,784,784,784,784,784,784,784,784,784,784,784,784,784,784,784,784,784,784,784,784,784,784,784,784,784,784,784,784,784,784,784,784,784,780,777,773,768,742,728,708,690,656,634,600,572,548,524,483],"ymouse":[665,665,665,665,665,665,665,665,665,665,665,665,665,665,665,665,665,665,665,665,665,665,665,665,665,665,665,665,665,665,665,665,665,665,665,665,665,665,665,665,665,665,665,665,665,665,665,665,665,665,665,665,666,671,671,671,668,641,618,581,538,448,389,293,228,169,115,25],"timestamp_mouse":[7,28,47,66,87,106,127,147,166,187,206,226,248,267,286,308,327,346,367,386,407,426,447,466,487,507,527,547,567,586,606,626,646,667,687,707,726,746,767,787,806,826,847,868,886,907,927,947,966,987,1007,1027,1047,1066,1086,1106,1126,1147,1166,1187,1206,1227,1248,1266,1287,1306,1326,1346],"xSR":741.5,"ySR":573.95,"xT1":424.9,"yT1":0,"xT2":1058.1,"yT2":0,"toosoon":0,"cond_shown":"Congruent","ratio_trial":300,"L_num":9,"L_den":10,"R_num":3,"R_den":5,"correct_side":1,"subjID":"sergioandrésguzmángarzón20","gender":"0","school":"6","age":"11"},{"start_time":1551891632377,"click_time":1551891634372,"finger_time":1551891633572,"fix_duration":1464.3956383206832,"trial":17,"RT":1195,"MT":800,"sideResp":2,"stimulus":[],"xmouse":[799,799,799,799,799,799,799,799,799,799,799,799,799,799,799,799,799,799,799,799,799,799,799,799,799,799,799,799,799,799,799,799,799,799,799,799,799,799,799,799,799,799,799,799,799,799,799,799,799,799,799,799,799,799,799,799,799,799,786,781,776,771,763,756,749,742,733,730,730,734,745,776,851,899,930,939,941,942,942,944,944,946,951,958,969,983,1002,1006,1006,1006,1007,1008,1012,1013,1015,1016,1018,1027,1056,1088],"ymouse":[661,661,661,661,661,661,661,661,661,661,661,661,661,661,661,661,661,661,661,661,661,661,661,661,661,661,661,661,661,661,661,661,661,661,661,661,661,661,661,661,661,661,661,661,661,661,661,661,661,661,661,661,661,661,661,661,661,652,605,564,531,503,455,431,404,380,335,312,279,256,225,172,98,69,55,51,51,51,51,51,51,51,51,57,62,65,65,65,65,65,65,64,55,53,50,48,46,38,24,11],"timestamp_mouse":[15,35,56,76,95,115,136,155,177,195,215,236,256,276,295,315,336,355,375,395,416,435,455,475,495,516,535,555,575,595,617,636,655,676,695,716,735,755,775,795,815,836,856,876,897,915,935,957,975,996,1015,1036,1055,1075,1095,1115,1135,1155,1176,1195,1217,1235,1255,1275,1295,1315,1336,1355,1375,1396,1415,1436,1456,1475,1495,1515,1536,1555,1575,1595,1616,1636,1656,1676,1696,1716,1736,1755,1775,1795,1815,1835,1855,1876,1895,1915,1935,1956,1975,1995],"xSR":741.5,"ySR":573.95,"xT1":424.9,"yT1":0,"xT2":1058.1,"yT2":0,"toosoon":0,"cond_shown":"Incongruent","ratio_trial":300,"L_num":4,"L_den":20,"R_num":2,"R_den":4,"correct_side":2,"subjID":"sergioandrésguzmángarzón20","gender":"0","school":"6","age":"11"},{"start_time":1551891638610,"click_time":1551891642313,"finger_time":1551891640653,"fix_duration":756.0058106559917,"trial":18,"RT":2043,"MT":1660,"sideResp":2,"stimulus":[],"xmouse":[757,757,757,757,757,757,757,757,757,757,757,757,757,757,757,757,757,757,757,757,757,757,757,757,757,757,757,757,757,757,757,757,757,757,757,757,757,757,757,757,757,757,757,757,757,757,757,757,757,757,757,757,757,757,757,757,757,757,757,757,757,757,757,757,757,757,757,757,757,757,757,757,757,757,757,757,757,757,757,757,757,757,757,757,757,757,757,757,757,757,757,757,757,757,757,757,757,757,757,757,757,757,729,707,658,547,445,379,340,315,288,280,276,276,276,276,276,276,276,276,276,276,276,276,276,276,276,276,282,294,325,350,387,426,451,459,459,469,484,500,527,574,595,614,633,652,721,768,815,866,911,979,997,1004,1005,1006,1008,1010,1010,1010,1010,1010,1010,1010,1010,1010,1010,1013,1017,1022,1028,1031,1036,1039,1041,1041,1041,1041,1041,1041,1041,1041,1041,1041,1043,1062],"ymouse":[652,652,652,652,652,652,652,652,652,652,652,652,652,652,652,652,652,652,652,652,652,652,652,652,652,652,652,652,652,652,652,652,652,652,652,652,652,652,652,652,652,652,652,652,652,652,652,652,652,652,652,652,652,652,652,652,652,652,652,652,652,652,652,652,652,652,652,652,652,652,652,652,652,652,652,652,652,652,652,652,652,652,652,652,652,652,652,652,652,652,652,652,652,652,652,652,652,652,652,652,652,653,629,611,570,494,435,383,333,283,183,141,112,92,77,75,75,75,75,75,75,75,75,75,75,75,75,75,74,76,86,104,136,173,204,278,335,420,455,474,482,488,488,481,467,448,365,312,255,192,131,37,9,0,0,0,0,0,0,0,0,0,0,0,0,0,0,0,0,0,0,0,0,0,0,0,0,0,0,0,0,0,0,0,0,2],"timestamp_mouse":[3,25,44,63,82,102,124,142,162,182,202,222,242,262,283,303,322,342,362,383,402,422,443,464,482,503,522,542,562,584,603,622,642,662,682,704,722,742,762,784,802,822,844,862,882,902,922,942,962,982,1004,1022,1042,1062,1082,1102,1122,1143,1162,1182,1202,1222,1242,1262,1283,1302,1322,1343,1363,1382,1402,1422,1444,1463,1483,1502,1522,1542,1563,1582,1602,1622,1642,1664,1683,1702,1722,1742,1763,1784,1802,1822,1842,1862,1882,1903,1922,1942,1962,1984,2002,2022,2043,2062,2083,2103,2122,2143,2162,2182,2203,2223,2243,2262,2282,2303,2322,2343,2362,2382,2403,2422,2442,2463,2482,2502,2522,2542,2563,2583,2603,2622,2642,2663,2682,2702,2722,2743,2763,2782,2803,2823,2843,2863,2883,2902,2922,2944,2962,2983,3002,3022,3042,3064,3082,3103,3123,3142,3163,3184,3202,3222,3244,3262,3282,3303,3322,3342,3363,3383,3404,3422,3442,3463,3482,3502,3523,3542,3563,3584,3603,3623,3642,3662,3682,3703],"xSR":741.5,"ySR":573.95,"xT1":424.9,"yT1":0,"xT2":1058.1,"yT2":0,"toosoon":0,"cond_shown":"Incongruent","ratio_trial":200,"L_num":6,"L_den":20,"R_num":3,"R_den":6,"correct_side":2,"subjID":"sergioandrésguzmángarzón20","gender":"0","school":"6","age":"11"},{"start_time":1551891643824,"click_time":1551891645652,"finger_time":1551891645252,"fix_duration":250,"trial":19,"RT":1428,"MT":400,"sideResp":1,"stimulus":[],"xmouse":[819,815,815,815,815,815,815,815,815,815,815,815,815,815,815,815,815,815,815,815,815,815,815,815,815,815,815,815,815,815,815,815,815,815,815,815,815,815,815,815,815,815,815,815,815,815,815,815,815,815,816,816,817,817,818,818,818,818,818,818,818,818,818,818,818,818,818,814,807,793,763,738,697,628,547,419,377,368,364,363,356,349,339,326,316,313,313,313,313,335,395,476],"ymouse":[624,623,623,623,623,623,623,623,623,623,623,623,623,623,623,623,623,623,623,623,623,623,623,623,623,623,623,623,623,623,623,623,623,623,623,623,623,623,623,623,623,623,623,623,623,623,623,623,623,623,623,623,623,623,623,624,624,624,624,624,624,624,624,624,624,624,624,623,620,613,578,523,446,354,262,173,148,138,130,126,108,95,79,64,54,53,53,53,52,45,28,6],"timestamp_mouse":[13,29,48,69,89,110,128,149,170,189,208,230,248,269,288,308,328,348,369,389,409,429,448,469,489,509,530,548,569,588,608,628,648,669,689,708,728,748,768,788,808,828,848,868,888,909,928,949,968,989,1008,1029,1048,1069,1088,1108,1130,1149,1168,1189,1209,1229,1248,1268,1288,1309,1328,1349,1368,1388,1408,1428,1449,1469,1488,1508,1529,1549,1568,1589,1608,1629,1649,1668,1689,1709,1728,1748,1768,1789,1808,1828],"xSR":741.5,"ySR":573.95,"xT1":424.9,"yT1":0,"xT2":1058.1,"yT2":0,"toosoon":0,"cond_shown":"Incongruent","ratio_trial":200,"L_num":7,"L_den":10,"R_num":12,"R_den":24,"correct_side":1,"subjID":"sergioandrésguzmángarzón20","gender":"0","school":"6","age":"11"},{"start_time":1551891648844,"click_time":1551891650992,"finger_time":1551891650252,"fix_duration":251.23968175208856,"trial":20,"RT":1408,"MT":740,"sideResp":2,"stimulus":[],"xmouse":[770,770,770,770,770,770,770,770,770,770,770,770,770,770,770,770,770,770,770,770,770,770,770,770,770,770,770,770,770,770,770,770,770,770,770,770,770,770,770,770,770,770,770,770,770,770,770,770,770,770,770,770,770,770,770,770,770,770,770,770,770,770,770,770,770,770,768,762,750,747,747,747,747,747,756,768,777,784,796,799,800,805,812,821,822,822,822,822,823,833,854,875,895,915,949,979,1002,1026,1064,1068,1068,1068,1068,1068,1068,1069,1071,1073],"ymouse":[662,662,662,662,662,662,662,662,662,662,662,662,662,662,662,662,662,662,662,662,662,662,662,662,662,662,662,662,662,662,662,662,662,662,662,662,662,662,662,662,662,662,662,662,662,662,662,662,662,662,662,662,662,662,662,662,662,662,662,662,662,662,662,662,662,662,661,651,619,597,573,547,518,483,404,344,312,281,241,227,216,206,194,182,181,181,181,181,180,178,176,176,175,170,148,116,83,47,0,0,0,0,0,0,0,0,0,1],"timestamp_mouse":[9,28,48,69,88,108,128,148,168,188,209,229,249,268,289,309,329,348,369,388,410,428,449,468,489,508,528,549,569,589,608,628,649,668,690,709,729,749,769,789,809,828,849,868,889,908,929,949,968,988,1008,1028,1050,1069,1089,1109,1128,1149,1168,1189,1209,1228,1248,1269,1289,1309,1329,1348,1369,1388,1408,1428,1449,1468,1489,1509,1529,1548,1568,1588,1608,1628,1648,1669,1689,1708,1728,1748,1769,1789,1809,1828,1848,1868,1890,1908,1928,1949,1969,1988,2008,2028,2048,2069,2089,2108,2129,2148],"xSR":741.5,"ySR":573.95,"xT1":424.9,"yT1":0,"xT2":1058.1,"yT2":0,"toosoon":0,"cond_shown":"Congruent","ratio_trial":100,"L_num":3,"L_den":20,"R_num":4,"R_den":16,"correct_side":2,"subjID":"sergioandrésguzmángarzón20","gender":"0","school":"6","age":"11"},{"start_time":1551891653524,"click_time":1551891656313,"finger_time":1551891654932,"fix_duration":1111.8735484279794,"trial":21,"RT":1408,"MT":1381,"sideResp":1,"stimulus":[],"xmouse":[779,779,779,779,779,779,779,779,779,779,779,779,779,779,779,779,779,779,779,779,779,779,779,779,779,779,779,779,779,779,779,779,779,779,779,779,779,779,779,779,779,779,779,779,779,779,779,779,779,779,779,779,779,779,779,779,779,779,779,779,779,779,779,779,779,779,779,779,779,771,740,689,643,599,524,500,465,422,386,363,340,326,320,312,299,292,288,284,281,277,270,263,261,260,257,257,257,256,256,256,263,275,288,297,308,327,328,327,325,322,318,315,313,311,308,305,304,304,304,304,304,309,313,315,315,315,320,322,322,322,322,322,322,322,322,322,322,329,350,426],"ymouse":[653,653,653,653,653,653,653,653,653,653,653,653,653,653,653,653,653,653,653,653,653,653,653,653,653,653,653,653,653,653,653,653,653,653,653,653,653,653,653,653,653,653,653,653,653,653,653,653,653,653,653,653,653,653,653,653,653,653,653,653,653,653,653,653,653,653,653,653,653,653,649,642,636,631,620,617,606,593,583,576,565,557,553,547,529,517,505,494,482,468,445,425,417,406,397,395,393,391,387,383,370,363,357,353,346,332,330,329,328,326,318,310,304,300,294,287,283,279,274,267,264,255,249,246,243,207,179,156,141,138,136,136,136,136,136,136,134,127,115,75],"timestamp_mouse":[11,28,48,68,89,108,128,148,169,189,208,228,249,268,289,308,328,349,369,388,408,428,449,468,488,509,529,549,568,589,608,628,648,668,688,708,728,749,768,788,808,828,848,868,888,908,928,949,968,988,1008,1028,1048,1068,1088,1108,1128,1149,1168,1188,1208,1230,1249,1268,1288,1308,1328,1348,1369,1388,1408,1428,1449,1468,1489,1510,1528,1549,1569,1588,1608,1629,1648,1669,1689,1708,1728,1749,1768,1788,1808,1829,1848,1868,1889,1908,1928,1948,1968,1988,2008,2028,2048,2068,2088,2108,2128,2149,2169,2188,2208,2228,2250,2268,2289,2309,2328,2348,2369,2389,2409,2428,2448,2469,2488,2508,2529,2548,2568,2588,2608,2628,2648,2668,2688,2708,2728,2748,2769,2789],"xSR":741.5,"ySR":573.95,"xT1":424.9,"yT1":0,"xT2":1058.1,"yT2":0,"toosoon":0,"cond_shown":"Congruent","ratio_trial":100,"L_num":15,"L_den":25,"R_num":13,"R_den":26,"correct_side":1,"subjID":"sergioandrésguzmángarzón20","gender":"0","school":"6","age":"11"},{"start_time":1551891660710,"click_time":1551891661934,"finger_time":1551891661733,"fix_duration":497.81968677025543,"trial":22,"RT":1023,"MT":201,"sideResp":1,"stimulus":[],"xmouse":[767,767,767,767,767,767,767,767,767,767,767,767,767,767,767,767,767,767,767,767,767,767,767,767,767,767,767,767,767,767,767,767,767,767,767,767,767,767,767,767,767,767,767,767,767,767,767,767,767,767,767,756,744,730,713,693,659,641,621,571,465,443],"ymouse":[588,588,588,588,588,588,588,588,588,588,588,588,588,588,588,588,588,588,588,588,588,588,588,588,588,588,588,588,588,588,588,588,588,588,588,588,588,588,588,588,588,588,588,588,588,588,588,588,588,588,587,559,539,521,500,468,399,359,320,242,111,52],"timestamp_mouse":[3,24,42,62,83,103,123,142,162,182,203,223,242,263,282,304,323,342,362,383,402,423,442,462,483,503,522,544,563,582,603,622,643,662,684,703,722,742,763,782,804,822,842,862,882,903,922,942,962,983,1003,1023,1042,1062,1083,1102,1123,1142,1162,1183,1203,1223],"xSR":741.5,"ySR":573.95,"xT1":424.9,"yT1":0,"xT2":1058.1,"yT2":0,"toosoon":0,"cond_shown":"Incongruent","ratio_trial":300,"L_num":1,"L_den":2,"R_num":3,"R_den":15,"correct_side":1,"subjID":"sergioandrésguzmángarzón20","gender":"0","school":"6","age":"11"},{"start_time":1551891664204,"click_time":1551891665792,"finger_time":1551891665432,"fix_duration":1251.8289802630256,"trial":23,"RT":1228,"MT":360,"sideResp":2,"stimulus":[],"xmouse":[760,760,760,760,760,760,760,760,760,760,760,760,760,760,760,760,760,760,760,760,760,760,760,760,760,760,761,763,772,777,777,777,777,777,777,777,777,777,777,777,777,777,777,777,777,777,777,777,777,777,777,777,777,777,777,777,777,777,777,777,777,782,788,799,818,881,950,970,1018,1035,1045,1051,1051,1051,1051,1051,1052,1056,1066,1073],"ymouse":[586,586,586,586,586,586,586,586,586,586,586,586,586,586,586,586,586,586,586,586,586,586,586,586,586,586,585,583,580,578,578,578,578,578,578,578,578,578,578,578,578,578,578,578,578,578,578,578,578,578,578,578,578,578,578,578,578,578,578,578,578,570,547,509,441,243,80,28,0,0,0,0,0,0,0,0,0,0,0,2],"timestamp_mouse":[12,28,49,69,88,108,128,148,168,189,208,228,248,268,289,308,328,348,368,388,409,428,448,468,488,508,528,548,569,588,609,629,648,668,688,708,728,748,768,789,809,828,849,868,889,908,928,948,968,988,1008,1029,1048,1068,1088,1108,1129,1148,1168,1188,1208,1228,1249,1268,1288,1309,1328,1348,1368,1388,1408,1429,1448,1468,1488,1508,1528,1548,1568,1588],"xSR":741.5,"ySR":573.95,"xT1":424.9,"yT1":0,"xT2":1058.1,"yT2":0,"toosoon":0,"cond_shown":"Congruent","ratio_trial":300,"L_num":8,"L_den":15,"R_num":10,"R_den":12,"correct_side":2,"subjID":"sergioandrésguzmángarzón20","gender":"0","school":"6","age":"11"},{"start_time":1551891667223,"click_time":1551891669052,"finger_time":1551891668252,"fix_duration":250,"trial":24,"RT":1029,"MT":800,"sideResp":2,"stimulus":[],"xmouse":[784,784,784,784,784,784,784,784,784,784,784,784,784,784,784,784,784,784,784,784,784,784,784,784,784,784,784,784,784,784,784,784,784,784,784,784,784,784,784,784,784,784,784,784,784,784,784,784,784,784,786,800,830,861,887,903,903,903,905,907,912,913,918,919,920,920,920,921,933,951,959,960,960,960,964,994,1012,1018,1018,1018,1018,1018,1019,1020,1024,1036,1036,1036,1039,1043,1058,1063],"ymouse":[661,661,661,661,661,661,661,661,661,661,661,661,661,661,661,661,661,661,661,661,661,661,661,661,661,661,661,661,661,661,661,661,661,661,661,661,661,661,661,661,661,661,661,661,661,661,661,661,661,655,613,536,420,294,195,85,59,50,37,30,19,11,2,0,0,0,0,0,0,3,5,5,5,5,6,7,10,10,10,10,10,10,10,10,12,15,15,15,16,17,20,22],"timestamp_mouse":[12,29,49,69,89,110,129,150,170,190,209,230,249,269,289,309,329,349,369,389,410,431,449,469,489,509,529,550,570,589,609,629,650,669,690,711,730,749,770,789,809,829,850,869,889,910,929,949,969,990,1009,1029,1049,1071,1090,1110,1129,1149,1169,1189,1210,1230,1249,1270,1291,1309,1329,1350,1370,1390,1409,1429,1449,1469,1489,1509,1530,1551,1569,1590,1609,1629,1649,1669,1689,1710,1730,1749,1770,1790,1810,1829],"xSR":741.5,"ySR":573.95,"xT1":424.9,"yT1":0,"xT2":1058.1,"yT2":0,"toosoon":0,"cond_shown":"Congruent","ratio_trial":300,"L_num":5,"L_den":25,"R_num":7,"R_den":14,"correct_side":2,"subjID":"sergioandrésguzmángarzón20","gender":"0","school":"6","age":"11"},{"start_time":1551891671579,"click_time":1551891673333,"finger_time":1551891672732,"fix_duration":905.3573478925073,"trial":25,"RT":1153,"MT":601,"sideResp":2,"stimulus":[],"xmouse":[762,762,762,762,762,762,762,762,762,762,762,762,762,762,762,762,762,762,762,762,762,762,762,762,762,762,762,762,762,762,762,762,762,762,762,762,762,762,762,762,762,762,762,762,762,762,762,762,762,762,762,762,762,762,762,762,764,780,794,820,847,870,899,907,914,919,919,919,921,925,934,973,988,996,999,1000,1000,1002,1004,1005,1006,1006,1011,1016,1019,1023,1032,1101],"ymouse":[632,632,632,632,632,632,632,632,632,632,632,632,632,632,632,632,632,632,632,632,632,632,632,632,632,632,632,632,632,632,632,632,632,632,632,632,632,632,632,632,632,632,632,632,632,632,632,632,632,632,632,632,632,632,632,631,619,555,501,435,377,321,249,230,213,200,195,190,180,172,160,128,115,106,103,103,103,100,96,95,95,95,92,90,89,87,79,34],"timestamp_mouse":[13,33,54,73,93,113,133,153,173,193,213,234,253,273,294,314,334,354,373,393,413,433,453,473,494,513,533,554,574,593,614,633,653,673,693,714,734,753,773,794,813,833,853,873,893,913,933,954,973,993,1013,1033,1053,1075,1093,1113,1134,1153,1173,1193,1213,1233,1254,1273,1294,1313,1333,1353,1374,1394,1413,1434,1453,1473,1494,1514,1534,1553,1574,1593,1615,1634,1653,1673,1693,1713,1734,1754],"xSR":741.5,"ySR":573.95,"xT1":424.9,"yT1":0,"xT2":1058.1,"yT2":0,"toosoon":0,"cond_shown":"Incongruent","ratio_trial":300,"L_num":13,"L_den":26,"R_num":12,"R_den":15,"correct_side":2,"subjID":"sergioandrésguzmángarzón20","gender":"0","school":"6","age":"11"},{"start_time":1551891675169,"click_time":1551891677552,"finger_time":1551891676832,"fix_duration":795.2025650589806,"trial":26,"RT":1663,"MT":720,"sideResp":2,"stimulus":[],"xmouse":[820,820,820,820,820,820,820,820,820,820,820,820,820,820,820,820,820,820,820,820,820,820,820,820,820,820,820,820,820,820,820,820,820,820,820,820,820,820,820,820,820,820,820,820,820,820,820,820,820,820,820,820,820,820,820,820,820,820,820,820,820,820,820,820,820,820,820,820,820,820,820,820,820,820,820,820,820,820,820,820,820,823,831,859,860,860,860,859,858,858,858,858,858,860,866,874,881,886,861,851,838,838,838,842,843,843,843,844,846,855,883,903,912,912,911,911,921,940,1030,1101],"ymouse":[654,654,654,654,654,654,654,654,654,654,654,654,654,654,654,654,654,654,654,654,654,654,654,654,654,654,654,654,654,654,654,654,654,654,654,654,654,654,654,654,654,654,654,654,654,654,654,654,654,654,654,654,654,654,654,654,654,654,654,654,654,654,654,654,654,654,654,654,654,654,654,654,654,654,654,654,654,654,654,653,642,629,612,518,506,501,498,493,488,488,488,488,488,476,460,443,423,365,324,316,299,291,284,276,274,273,273,271,270,253,208,183,170,151,141,129,113,98,55,27],"timestamp_mouse":[4,23,43,64,83,103,123,143,163,183,203,223,243,263,283,303,324,344,364,383,403,423,443,463,483,505,523,544,565,583,604,624,643,663,683,703,724,743,763,783,803,824,844,863,883,904,923,943,963,983,1003,1024,1044,1063,1083,1103,1123,1144,1163,1183,1203,1224,1243,1263,1283,1303,1323,1344,1364,1383,1403,1423,1444,1463,1483,1503,1523,1543,1563,1584,1603,1623,1643,1663,1683,1703,1723,1743,1763,1783,1805,1823,1843,1864,1884,1904,1924,1944,1963,1984,2003,2023,2043,2063,2084,2104,2123,2144,2163,2183,2203,2223,2243,2263,2283,2303,2323,2344,2363,2383],"xSR":741.5,"ySR":573.95,"xT1":424.9,"yT1":0,"xT2":1058.1,"yT2":0,"toosoon":0,"cond_shown":"Congruent","ratio_trial":300,"L_num":1,"L_den":3,"R_num":19,"R_den":30,"correct_side":2,"subjID":"sergioandrésguzmángarzón20","gender":"0","school":"6","age":"11"},{"start_time":1551891679994,"click_time":1551891684772,"finger_time":1551891683633,"fix_duration":1160.9437207858127,"trial":27,"RT":3639,"MT":1139,"sideResp":2,"stimulus":[],"xmouse":[837,837,837,837,837,837,837,837,837,837,837,837,837,837,837,837,837,837,837,837,837,837,837,837,837,837,837,837,837,837,837,837,837,837,837,837,837,837,837,837,837,837,837,837,837,837,837,837,837,837,837,837,837,837,837,837,837,837,837,837,837,837,837,837,837,837,837,837,837,837,837,837,837,837,837,837,837,837,837,837,837,837,837,837,837,837,837,837,837,837,837,837,837,837,837,837,837,837,837,837,837,837,837,837,837,837,837,837,837,837,837,837,837,837,837,837,837,837,837,837,837,837,837,837,837,837,837,837,837,837,837,837,837,837,837,837,837,837,837,837,837,837,837,837,837,837,837,837,837,837,837,837,837,837,837,837,837,837,837,837,837,837,837,837,837,837,837,837,837,837,837,837,837,837,837,837,837,837,837,837,835,810,762,726,715,710,710,714,727,743,766,844,895,934,967,993,993,993,993,993,993,993,993,993,993,993,993,993,996,1001,1012,1034,1039,1040,1040,1040,1040,1040,1035,1031,1026,1020,1019,1019,1019,1019,1019,1019,1019,1019,1019,1019,1018,1017,1016,1016,1030,1056,1063],"ymouse":[600,600,600,600,600,600,600,600,600,600,600,600,600,600,600,600,600,600,600,600,600,600,600,600,600,600,600,600,600,600,600,600,600,600,600,600,600,600,600,600,600,600,600,600,600,600,600,600,600,600,600,600,600,600,600,600,600,600,600,600,600,600,600,600,600,600,600,600,600,600,600,600,600,600,600,600,600,600,600,600,600,600,600,600,600,600,600,600,600,600,600,600,600,600,600,600,600,600,600,600,600,600,600,600,600,600,600,600,600,600,600,600,600,600,600,600,600,600,600,600,600,600,600,600,600,600,600,600,600,600,600,600,600,600,600,600,600,600,600,600,600,600,600,600,600,600,600,600,600,600,600,600,600,600,600,600,600,600,600,600,600,600,600,600,600,600,600,600,600,600,600,600,600,600,600,600,600,600,600,600,592,529,375,230,143,74,0,0,0,0,0,0,0,0,4,8,8,8,8,8,8,8,8,8,8,8,8,8,9,18,36,73,84,85,85,85,85,85,82,80,73,64,61,60,60,60,60,60,60,60,60,60,59,58,58,57,64,70,71],"timestamp_mouse":[18,39,59,78,99,119,140,158,178,199,218,238,258,278,299,319,339,358,378,398,419,439,458,478,499,518,539,559,579,598,618,640,659,679,700,719,738,759,778,799,818,838,858,878,898,919,939,958,978,998,1019,1038,1060,1078,1098,1119,1140,1158,1179,1198,1218,1239,1258,1278,1298,1319,1338,1358,1379,1399,1418,1439,1458,1480,1498,1519,1538,1558,1579,1598,1619,1639,1658,1678,1698,1718,1739,1759,1779,1799,1818,1838,1859,1878,1898,1919,1939,1958,1979,1998,2018,2039,2059,2078,2098,2118,2138,2158,2178,2198,2219,2238,2258,2278,2298,2318,2338,2359,2378,2398,2419,2438,2459,2479,2499,2518,2538,2558,2578,2599,2618,2638,2659,2678,2698,2719,2739,2759,2778,2798,2818,2839,2859,2878,2898,2918,2938,2958,2979,3000,3018,3038,3058,3079,3098,3119,3138,3158,3178,3199,3219,3239,3258,3278,3298,3318,3338,3359,3379,3398,3418,3438,3458,3478,3499,3518,3538,3559,3579,3599,3619,3639,3659,3679,3699,3718,3739,3758,3778,3799,3818,3838,3858,3879,3899,3919,3938,3958,3979,4000,4018,4039,4059,4079,4098,4118,4139,4158,4178,4198,4218,4238,4258,4278,4299,4318,4338,4358,4378,4399,4418,4439,4459,4478,4498,4518,4538,4559,4578,4598,4619,4638,4658,4680,4698,4718,4739,4758,4778],"xSR":741.5,"ySR":573.95,"xT1":424.9,"yT1":0,"xT2":1058.1,"yT2":0,"toosoon":0,"cond_shown":"Congruent","ratio_trial":200,"L_num":11,"L_den":22,"R_num":3,"R_den":10,"correct_side":1,"subjID":"sergioandrésguzmángarzón20","gender":"0","school":"6","age":"11"},{"start_time":1551891689118,"click_time":1551891691554,"finger_time":1551891690012,"fix_duration":744.6367437614151,"trial":28,"RT":894,"MT":1542,"sideResp":1,"stimulus":[],"xmouse":[811,811,811,812,812,812,812,812,812,812,812,812,812,812,812,812,812,812,812,812,812,812,812,812,812,812,812,812,812,812,812,812,812,812,812,812,812,812,812,812,812,812,814,814,835,888,889,881,865,842,794,775,763,751,740,713,698,670,645,618,558,545,546,552,565,597,609,611,611,611,584,512,466,436,416,398,396,393,391,388,384,384,384,384,384,384,384,387,395,407,436,459,471,481,496,504,511,514,515,517,517,517,517,517,517,516,516,515,514,514,512,512,511,510,508,508,508,507,507,507,507,507],"ymouse":[620,620,620,620,620,620,620,620,620,620,620,620,620,620,620,620,620,620,620,620,620,620,620,620,620,620,620,620,620,620,620,620,620,620,620,620,620,620,620,620,620,620,626,646,717,719,714,708,703,696,683,672,661,652,639,605,579,515,456,398,292,254,244,232,217,194,189,188,188,188,184,184,184,184,184,183,182,181,178,176,174,174,174,174,174,182,187,189,190,192,192,190,183,175,160,152,146,144,143,142,142,139,136,135,131,130,130,129,128,128,127,126,125,124,120,112,109,106,105,104,100,99],"timestamp_mouse":[17,34,55,75,96,115,134,154,175,194,214,235,255,275,295,314,334,354,374,394,415,434,454,475,494,514,534,555,575,594,614,635,654,674,694,714,735,755,774,794,815,836,854,875,894,914,935,954,975,994,1014,1035,1055,1075,1095,1114,1134,1155,1175,1195,1215,1234,1255,1274,1294,1315,1336,1355,1374,1394,1415,1435,1454,1474,1494,1514,1535,1555,1575,1595,1614,1634,1654,1675,1694,1714,1735,1755,1775,1794,1814,1835,1854,1874,1895,1915,1935,1954,1974,1995,2015,2035,2055,2074,2095,2114,2134,2154,2175,2195,2215,2234,2254,2274,2294,2314,2334,2354,2374,2394,2414,2436],"xSR":741.5,"ySR":573.95,"xT1":424.9,"yT1":0,"xT2":1058.1,"yT2":0,"toosoon":0,"cond_shown":"Congruent","ratio_trial":200,"L_num":20,"L_den":25,"R_num":9,"R_den":15,"correct_side":1,"subjID":"sergioandrésguzmángarzón20","gender":"0","school":"6","age":"11"},{"start_time":1551891695646,"click_time":1551891697652,"finger_time":1551891696692,"fix_duration":1492.9408248402144,"trial":29,"RT":1046,"MT":960,"sideResp":2,"stimulus":[],"xmouse":[829,829,829,829,829,829,829,829,829,829,829,829,829,829,829,829,829,829,829,829,829,829,829,828,823,819,817,817,817,817,817,817,817,817,817,817,817,817,817,817,817,817,817,817,817,817,817,817,817,817,821,835,857,870,920,956,1011,1033,1038,1039,1039,1039,1039,1039,1039,1039,1039,1040,1051,1060,1069,1073,1075,1075,1075,1076,1080,1083,1083,1083,1083,1083,1083,1083,1084,1084,1084,1085,1085,1085,1085,1085,1085,1085,1085,1085,1085,1084,1084,1084,1084],"ymouse":[651,651,651,651,651,651,651,651,651,651,651,651,651,651,651,651,651,651,651,651,651,651,651,648,639,633,631,631,631,631,631,631,631,631,631,631,631,631,631,631,631,631,631,631,631,631,631,631,631,631,627,621,611,600,506,432,337,293,268,249,248,248,248,247,247,243,235,223,196,176,164,157,153,153,141,135,126,119,113,112,111,111,111,111,111,111,111,109,106,105,105,103,102,102,102,102,101,100,100,100,98],"timestamp_mouse":[6,26,46,66,87,106,127,147,167,186,207,226,246,267,287,308,326,346,367,387,406,428,446,467,486,507,527,547,566,587,606,626,648,667,686,707,726,747,767,786,806,826,847,866,887,907,927,947,967,987,1006,1026,1046,1066,1086,1106,1126,1146,1167,1187,1206,1227,1246,1266,1287,1307,1327,1346,1367,1386,1406,1428,1446,1466,1487,1507,1526,1546,1567,1587,1606,1628,1647,1667,1686,1708,1726,1747,1767,1787,1806,1827,1847,1867,1886,1906,1926,1947,1966,1987,2006],"xSR":741.5,"ySR":573.95,"xT1":424.9,"yT1":0,"xT2":1058.1,"yT2":0,"toosoon":0,"cond_shown":"Incongruent","ratio_trial":200,"L_num":3,"L_den":10,"R_num":1,"R_den":2,"correct_side":2,"subjID":"sergioandrésguzmángarzón20","gender":"0","school":"6","age":"11"},{"start_time":1551891700783,"click_time":1551891702353,"finger_time":1551891701933,"fix_duration":250,"trial":30,"RT":1150,"MT":420,"sideResp":1,"stimulus":[],"xmouse":[805,805,805,805,805,805,805,805,805,805,805,805,805,805,805,805,805,805,805,805,805,805,805,805,805,805,805,805,805,805,805,805,805,805,805,805,805,805,805,805,805,805,805,805,805,805,805,805,805,805,805,805,805,805,805,805,805,797,761,742,734,731,730,728,718,701,680,627,591,563,556,553,552,552,551,549,539,532,524],"ymouse":[576,576,576,576,576,576,576,576,576,576,576,576,576,576,576,576,576,576,576,576,576,576,576,576,576,576,576,576,576,576,576,576,576,576,576,576,576,576,576,576,576,576,576,576,576,576,576,576,576,576,576,576,576,576,576,576,576,571,557,548,545,544,543,533,494,434,358,224,146,80,61,42,37,33,30,28,25,25,25],"timestamp_mouse":[10,29,49,69,90,109,129,149,170,189,209,229,250,270,290,309,329,350,370,390,409,429,449,470,490,509,529,549,569,590,609,630,649,671,690,709,729,749,770,791,810,829,849,870,889,909,929,949,971,989,1010,1030,1050,1069,1089,1109,1130,1150,1171,1189,1209,1229,1249,1269,1291,1309,1329,1349,1369,1390,1411,1429,1450,1470,1490,1511,1530,1550,1570],"xSR":741.5,"ySR":573.95,"xT1":424.9,"yT1":0,"xT2":1058.1,"yT2":0,"toosoon":0,"cond_shown":"Congruent","ratio_trial":300,"L_num":24,"L_den":30,"R_num":8,"R_den":16,"correct_side":1,"subjID":"sergioandrésguzmángarzón20","gender":"0","school":"6","age":"11"},{"start_time":1551891703877,"click_time":1551891705593,"finger_time":1551891705352,"fix_duration":404.25924672331945,"trial":31,"RT":1475,"MT":241,"sideResp":2,"stimulus":[],"xmouse":[784,784,784,784,784,784,784,784,784,784,784,784,784,784,784,784,784,784,784,784,784,784,784,784,784,784,784,784,784,784,784,784,784,784,784,784,784,784,784,784,784,784,784,784,784,784,784,784,784,784,784,784,784,784,784,784,784,784,784,784,784,784,784,784,784,784,784,784,784,784,784,784,811,844,971,1048,1160,1200,1223,1227,1226,1209,1197,1184,1163,1154],"ymouse":[619,619,619,619,619,619,619,619,619,619,619,619,619,619,619,619,619,619,619,619,619,619,619,619,619,619,619,619,619,619,619,619,619,619,619,619,619,619,619,619,619,619,619,619,619,619,619,619,619,619,619,619,619,619,619,619,619,619,619,619,619,619,619,619,619,619,619,619,619,619,619,619,610,598,547,507,373,303,247,220,196,146,117,90,50,30],"timestamp_mouse":[15,36,55,77,95,115,136,155,176,197,216,236,256,276,296,315,337,356,375,396,417,436,455,476,496,517,536,555,576,595,616,635,655,675,696,716,735,756,775,796,815,835,856,876,895,916,936,956,976,995,1016,1035,1055,1075,1095,1115,1135,1155,1176,1196,1215,1236,1256,1276,1295,1315,1335,1355,1375,1395,1415,1435,1455,1475,1495,1515,1536,1555,1575,1596,1616,1635,1656,1676,1695,1716],"xSR":741.5,"ySR":573.95,"xT1":424.9,"yT1":0,"xT2":1058.1,"yT2":0,"toosoon":0,"cond_shown":"Congruent","ratio_trial":200,"L_num":5,"L_den":10,"R_num":14,"R_den":20,"correct_side":2,"subjID":"sergioandrésguzmángarzón20","gender":"0","school":"6","age":"11"},{"start_time":1551891708343,"click_time":1551891710992,"finger_time":1551891709892,"fix_duration":250,"trial":32,"RT":1549,"MT":1100,"sideResp":2,"stimulus":[],"xmouse":[799,799,799,799,799,799,799,799,799,799,799,799,799,799,799,799,799,799,799,799,799,799,799,799,799,799,799,799,799,799,799,799,799,799,799,799,799,799,799,799,799,799,799,799,799,799,799,799,799,799,799,799,799,799,799,799,799,799,799,799,799,799,799,799,799,799,799,799,799,799,799,799,799,799,799,800,804,821,860,899,933,956,970,984,988,988,988,988,988,979,974,971,971,971,971,971,972,972,972,972,972,972,975,976,986,1004,1031,1049,1058,1058,1058,1058,1058,1058,1058,1058,1058,1058,1058,1058,1058,1058,1058,1058,1058,1058,1058,1058,1058,1058,1057,1056,1064],"ymouse":[615,615,615,615,615,615,615,615,615,615,615,615,615,615,615,615,615,615,615,615,615,615,615,615,615,615,615,615,615,615,615,615,615,615,615,615,615,615,615,615,615,615,615,615,615,615,615,615,615,615,615,615,615,615,615,615,615,615,615,615,615,615,615,615,615,615,615,615,615,615,615,615,615,615,615,615,605,564,500,444,400,373,353,313,288,263,238,213,194,161,150,141,133,128,123,122,121,121,119,117,117,115,110,106,95,87,77,72,69,69,69,69,69,69,69,69,69,69,69,69,69,69,69,69,69,69,69,69,69,69,63,50,38],"timestamp_mouse":[10,29,49,71,89,109,129,149,169,189,209,229,249,271,289,309,330,349,369,390,409,429,449,469,489,509,529,549,570,590,610,629,649,669,690,709,729,749,771,789,809,831,849,869,889,911,929,949,969,989,1009,1031,1049,1070,1090,1109,1130,1150,1170,1190,1209,1230,1250,1269,1290,1310,1329,1351,1369,1389,1409,1429,1450,1469,1490,1511,1530,1549,1570,1590,1609,1629,1649,1670,1689,1711,1730,1749,1769,1789,1809,1829,1849,1869,1889,1909,1929,1949,1969,1991,2009,2029,2050,2069,2090,2109,2130,2150,2170,2190,2210,2230,2250,2270,2289,2309,2330,2349,2370,2390,2410,2429,2449,2469,2490,2510,2530,2550,2570,2590,2609,2629,2649],"xSR":741.5,"ySR":573.95,"xT1":424.9,"yT1":0,"xT2":1058.1,"yT2":0,"toosoon":0,"cond_shown":"Congruent","ratio_trial":300,"L_num":3,"L_den":12,"R_num":11,"R_den":20,"correct_side":2,"subjID":"sergioandrésguzmángarzón20","gender":"0","school":"6","age":"11"},{"start_time":1551891712444,"click_time":1551891714534,"finger_time":1551891713914,"fix_duration":250,"trial":33,"RT":1470,"MT":620,"sideResp":1,"stimulus":[],"xmouse":[793,793,793,793,793,793,793,793,793,793,793,793,793,793,793,793,793,793,793,793,793,793,793,793,793,793,793,793,793,793,793,793,793,793,793,793,793,793,793,793,793,793,793,793,793,793,793,793,793,793,793,793,793,793,793,793,793,793,793,793,793,793,793,793,793,793,793,793,793,795,797,791,776,738,573,500,452,422,389,380,370,366,363,356,344,336,334,333,333,339,348,360,370,386,387,389,393,397,400,402,406,410,413,422,428],"ymouse":[637,637,637,637,637,637,637,637,637,637,637,637,637,637,637,637,637,637,637,637,637,637,637,637,637,637,637,637,637,637,637,637,637,637,637,637,637,637,637,637,637,637,637,637,637,637,637,637,637,637,637,637,637,637,637,637,637,637,637,637,637,637,637,637,637,637,637,637,637,633,616,605,590,562,437,384,347,321,280,263,250,242,234,225,205,188,180,167,154,122,103,85,72,56,55,47,41,37,34,33,33,33,33,33,33],"timestamp_mouse":[9,28,48,69,89,108,128,148,168,188,208,229,250,268,288,309,329,348,368,388,408,428,448,468,488,508,529,550,568,589,608,629,649,669,688,708,728,748,769,789,809,828,848,870,888,908,929,948,969,988,1008,1029,1048,1069,1088,1108,1128,1148,1169,1188,1208,1229,1248,1268,1288,1308,1328,1349,1368,1388,1408,1429,1449,1470,1488,1508,1528,1548,1569,1588,1608,1628,1648,1668,1688,1709,1728,1749,1768,1789,1808,1828,1848,1869,1889,1909,1928,1948,1969,1988,2009,2028,2049,2069,2089],"xSR":741.5,"ySR":573.95,"xT1":424.9,"yT1":0,"xT2":1058.1,"yT2":0,"toosoon":0,"cond_shown":"Incongruent","ratio_trial":300,"L_num":3,"L_den":6,"R_num":4,"R_den":20,"correct_side":1,"subjID":"sergioandrésguzmángarzón20","gender":"0","school":"6","age":"11"},{"start_time":1551891719013,"click_time":1551891721133,"finger_time":1551891720013,"fix_duration":1139.5722392084115,"trial":34,"RT":1000,"MT":1120,"sideResp":1,"stimulus":[],"xmouse":[770,770,770,770,770,770,770,770,770,770,770,770,770,770,770,770,770,770,770,770,770,770,770,770,770,770,770,770,770,770,770,770,770,770,770,770,770,770,770,770,770,770,770,770,770,770,770,770,766,746,720,676,656,639,631,617,605,583,564,546,533,499,482,461,443,427,399,387,373,361,356,365,403,472,554,650,660,660,657,655,653,651,651,651,650,650,627,607,586,572,567,559,556,553,553,553,553,553,552,547,538,536,534,533,532,531,524],"ymouse":[639,639,639,639,639,639,639,639,639,639,639,639,639,639,639,639,639,639,639,639,639,639,639,639,639,639,639,639,639,639,639,639,639,639,639,639,639,639,639,639,639,639,639,639,639,639,639,639,638,634,629,624,622,619,618,613,607,589,575,555,539,494,471,442,416,395,362,351,339,328,318,279,231,151,66,0,0,0,0,0,0,0,0,0,0,0,26,45,63,76,79,82,84,87,87,87,87,87,87,87,85,84,84,84,84,84,84],"timestamp_mouse":[1,22,39,59,79,101,119,140,160,181,200,220,241,260,280,300,321,339,359,381,399,419,439,460,480,499,519,540,559,579,599,620,640,660,679,699,721,740,760,780,801,820,839,860,880,901,921,939,960,979,1000,1020,1040,1060,1080,1100,1119,1139,1159,1179,1199,1219,1239,1259,1279,1299,1320,1340,1359,1379,1399,1419,1439,1459,1479,1500,1519,1540,1560,1579,1600,1619,1639,1659,1680,1701,1719,1739,1759,1779,1799,1819,1839,1860,1880,1900,1919,1939,1959,1979,2001,2019,2039,2059,2079,2099,2120],"xSR":741.5,"ySR":573.95,"xT1":424.9,"yT1":0,"xT2":1058.1,"yT2":0,"toosoon":0,"cond_shown":"Incongruent","ratio_trial":200,"L_num":7,"L_den":10,"R_num":12,"R_den":24,"correct_side":1,"subjID":"sergioandrésguzmángarzón20","gender":"0","school":"6","age":"11"},{"start_time":1551891725084,"click_time":1551891726633,"finger_time":1551891725972,"fix_duration":869.6726466527489,"trial":35,"RT":888,"MT":661,"sideResp":1,"stimulus":[],"xmouse":[766,766,766,766,766,766,766,766,766,766,766,766,766,766,766,766,766,766,766,766,766,766,766,766,766,766,766,766,766,766,766,766,766,766,766,766,766,766,766,766,766,766,765,747,705,656,610,541,519,498,468,412,382,368,360,355,349,339,335,333,333,333,340,347,348,348,350,354,358,360,361,365,371,379,389,405,423,470],"ymouse":[602,602,602,602,602,602,602,602,602,602,602,602,602,602,602,602,602,602,602,602,602,602,602,602,602,602,602,602,602,602,602,602,602,602,602,602,602,602,602,602,602,602,602,589,567,551,539,518,512,502,485,449,433,424,419,415,406,378,356,331,301,269,203,179,175,171,164,161,155,151,145,137,120,109,98,85,74,56],"timestamp_mouse":[9,29,50,69,88,108,129,148,168,188,209,228,249,268,288,308,328,348,368,388,408,428,448,468,488,508,528,548,568,588,608,628,648,668,688,709,729,748,768,788,808,828,849,868,888,908,928,948,968,988,1008,1029,1049,1068,1088,1108,1128,1149,1168,1188,1209,1228,1248,1269,1289,1309,1329,1348,1369,1388,1409,1429,1448,1468,1488,1508,1528,1549],"xSR":741.5,"ySR":573.95,"xT1":424.9,"yT1":0,"xT2":1058.1,"yT2":0,"toosoon":0,"cond_shown":"Congruent","ratio_trial":200,"L_num":16,"L_den":20,"R_num":12,"R_den":20,"correct_side":1,"subjID":"sergioandrésguzmángarzón20","gender":"0","school":"6","age":"11"},{"start_time":1551891729230,"click_time":1551891731153,"finger_time":1551891730432,"fix_duration":1075.4636280450995,"trial":36,"RT":1202,"MT":721,"sideResp":1,"stimulus":[],"xmouse":[809,809,809,809,809,809,809,809,809,809,809,809,809,809,809,809,809,809,809,809,809,809,809,809,809,809,809,809,809,809,809,809,809,809,809,809,809,809,809,809,809,809,809,809,809,809,809,809,809,809,809,809,809,809,809,809,809,809,809,807,787,769,742,705,671,588,535,437,375,328,244,210,192,188,188,189,204,224,245,261,292,303,312,326,349,353,353,353,353,353,353,353,354,358,383,401,427],"ymouse":[608,608,608,608,608,608,608,608,608,608,608,608,608,608,608,608,608,608,608,608,608,608,608,608,608,608,608,608,608,608,608,608,608,608,608,608,608,608,608,608,608,608,608,608,608,608,608,608,608,608,608,608,608,608,608,608,608,608,608,604,532,432,357,312,284,233,212,172,144,122,84,67,57,54,53,45,31,20,14,10,6,6,6,9,22,24,24,24,24,24,24,24,24,24,24,24,24],"timestamp_mouse":[4,23,42,62,82,102,122,143,162,182,203,223,243,262,282,302,323,343,362,382,402,423,442,462,482,502,522,542,562,583,603,622,643,662,682,702,722,742,762,782,802,822,843,862,883,904,922,942,962,982,1002,1022,1044,1063,1083,1103,1123,1143,1163,1183,1202,1222,1243,1262,1282,1302,1322,1342,1362,1382,1402,1422,1442,1463,1483,1502,1522,1542,1562,1582,1604,1622,1642,1662,1683,1702,1723,1743,1762,1783,1802,1822,1842,1862,1883,1902,1923],"xSR":741.5,"ySR":573.95,"xT1":424.9,"yT1":0,"xT2":1058.1,"yT2":0,"toosoon":0,"cond_shown":"Incongruent","ratio_trial":300,"L_num":4,"L_den":5,"R_num":8,"R_den":16,"correct_side":1,"subjID":"sergioandrésguzmángarzón20","gender":"0","school":"6","age":"11"},{"start_time":1551891734412,"click_time":1551891737053,"finger_time":1551891735752,"fix_duration":379.4739938864915,"trial":37,"RT":1340,"MT":1301,"sideResp":1,"stimulus":[],"xmouse":[760,760,760,760,760,760,760,760,760,760,760,760,760,760,760,760,760,760,760,760,760,760,760,760,760,760,760,760,760,760,760,760,760,760,760,760,760,760,760,760,760,760,760,760,760,760,760,760,760,760,760,760,760,760,760,760,760,760,760,760,760,760,760,760,760,758,747,734,721,711,696,674,663,652,639,619,610,603,603,603,602,595,590,578,560,481,438,400,387,378,371,359,355,353,350,347,340,337,336,336,335,335,341,358,399,539,664,724,752,761,764,764,764,764,764,761,731,655,588,519,417,395,387,386,386,386,386,386,387,392,400,434,452],"ymouse":[606,606,606,606,606,606,606,606,606,606,606,606,606,606,606,606,606,606,606,606,606,606,606,606,606,606,606,606,606,606,606,606,606,606,606,606,606,606,606,606,606,606,606,606,606,606,606,606,606,606,606,606,606,606,606,606,606,606,606,606,606,606,606,606,606,607,611,617,621,625,631,641,641,639,627,584,536,474,390,351,328,309,305,301,301,318,328,330,327,321,310,273,255,238,221,207,178,160,149,138,124,115,102,81,45,0,0,0,0,0,0,0,0,0,0,1,26,77,115,143,165,165,165,165,165,165,165,164,161,154,146,112,90],"timestamp_mouse":[3,21,40,60,80,101,121,140,160,181,200,220,240,261,280,300,320,340,362,380,400,420,440,460,481,500,520,541,560,581,602,622,640,661,680,700,721,740,761,780,801,820,840,860,881,901,920,940,960,981,1000,1020,1041,1060,1080,1100,1120,1140,1160,1180,1200,1220,1241,1261,1280,1302,1321,1340,1360,1381,1400,1421,1440,1460,1480,1501,1521,1540,1560,1580,1600,1620,1641,1660,1680,1701,1720,1741,1760,1780,1800,1821,1840,1862,1880,1900,1920,1941,1960,1980,2000,2020,2040,2060,2080,2100,2120,2140,2161,2180,2200,2220,2240,2261,2280,2300,2320,2340,2360,2380,2401,2420,2440,2461,2480,2500,2520,2540,2561,2580,2600,2620,2640],"xSR":741.5,"ySR":573.95,"xT1":424.9,"yT1":0,"xT2":1058.1,"yT2":0,"toosoon":0,"cond_shown":"Congruent","ratio_trial":200,"L_num":20,"L_den":25,"R_num":9,"R_den":15,"correct_side":1,"subjID":"sergioandrésguzmángarzón20","gender":"0","school":"6","age":"11"},{"start_time":1551891738302,"click_time":1551891740472,"finger_time":1551891739933,"fix_duration":250,"trial":38,"RT":1631,"MT":539,"sideResp":1,"stimulus":[],"xmouse":[818,818,818,818,818,818,818,818,818,818,818,818,818,818,818,818,818,818,818,818,818,818,818,818,818,818,818,818,818,818,818,818,818,818,818,818,818,818,818,818,818,818,818,818,818,818,818,818,818,818,818,818,818,818,818,818,818,818,818,818,818,818,818,818,818,818,818,818,818,818,818,818,818,817,817,817,817,817,815,800,772,672,632,620,608,588,581,578,573,569,563,547,535,527,520,500,487,466,448,441,436,435,435,436,438,442,456,468,484],"ymouse":[648,648,648,648,648,648,648,648,648,648,648,648,648,648,648,648,648,648,648,648,648,648,648,648,648,648,648,648,648,648,648,648,648,648,648,648,648,648,648,648,648,648,648,648,648,648,648,648,648,648,648,648,648,648,648,648,648,648,648,648,648,648,648,648,648,648,648,648,648,648,648,648,647,647,647,647,646,646,646,644,644,639,628,616,603,554,528,502,483,468,443,385,341,304,278,233,221,211,206,203,198,185,166,157,152,147,131,116,99],"timestamp_mouse":[10,31,50,71,91,111,130,151,171,190,210,230,250,271,290,310,330,351,371,391,410,431,452,471,490,510,532,551,571,591,612,631,650,671,690,710,731,750,770,790,810,831,850,871,890,910,930,952,970,990,1010,1031,1050,1071,1090,1110,1130,1150,1171,1190,1210,1230,1250,1270,1290,1310,1330,1351,1372,1390,1411,1431,1450,1471,1490,1511,1531,1551,1571,1590,1610,1631,1650,1670,1690,1710,1731,1751,1771,1790,1810,1831,1850,1870,1890,1911,1931,1951,1970,1990,2010,2031,2051,2070,2090,2110,2130,2151,2170],"xSR":741.5,"ySR":573.95,"xT1":424.9,"yT1":0,"xT2":1058.1,"yT2":0,"toosoon":0,"cond_shown":"Congruent","ratio_trial":300,"L_num":8,"L_den":16,"R_num":1,"R_den":5,"correct_side":1,"subjID":"sergioandrésguzmángarzón20","gender":"0","school":"6","age":"11"},{"start_time":1551891744096,"click_time":1551891746092,"finger_time":1551891745633,"fix_duration":722.9091669249015,"trial":39,"RT":1537,"MT":459,"sideResp":1,"stimulus":[],"xmouse":[785,785,785,785,785,785,785,785,785,785,785,785,785,785,785,785,785,785,785,785,785,785,785,785,785,785,785,785,785,785,785,785,785,785,785,785,785,785,785,785,785,785,785,785,785,785,785,785,785,785,785,785,785,785,785,785,785,785,785,785,785,785,785,785,785,785,785,785,785,785,784,784,784,782,776,760,704,665,623,581,547,477,449,438,435,427,424,423,423,423,423,423,423,423,423,423,423,423,423,425],"ymouse":[624,624,624,624,624,624,624,624,624,624,624,624,624,624,624,624,624,624,624,624,624,624,624,624,624,624,624,624,624,624,624,624,624,624,624,624,624,624,624,624,624,624,624,624,624,624,624,624,624,624,624,624,624,624,624,624,624,624,624,624,624,624,624,624,624,624,624,624,624,624,624,624,624,624,619,605,532,472,412,354,314,245,213,199,193,170,151,129,108,88,70,69,69,69,69,65,55,53,52,48],"timestamp_mouse":[16,37,57,76,97,117,136,156,176,196,216,236,257,276,297,316,337,358,376,396,417,437,456,477,496,516,536,557,576,596,616,636,656,677,696,717,736,756,776,798,817,836,856,876,897,916,938,956,977,996,1016,1036,1056,1077,1096,1117,1137,1156,1176,1197,1216,1236,1256,1277,1297,1316,1336,1357,1376,1396,1417,1436,1457,1476,1496,1516,1537,1556,1576,1597,1617,1636,1657,1676,1696,1717,1737,1757,1776,1797,1816,1836,1856,1877,1898,1916,1936,1956,1976,1996],"xSR":741.5,"ySR":573.95,"xT1":424.9,"yT1":0,"xT2":1058.1,"yT2":0,"toosoon":0,"cond_shown":"Congruent","ratio_trial":100,"L_num":10,"L_den":25,"R_num":3,"R_den":10,"correct_side":1,"subjID":"sergioandrésguzmángarzón20","gender":"0","school":"6","age":"11"},{"start_time":1551891748683,"click_time":1551891750613,"finger_time":1551891749712,"fix_duration":889.6536209918696,"trial":40,"RT":1029,"MT":901,"sideResp":1,"stimulus":[],"xmouse":[838,838,838,838,838,838,838,838,838,838,838,838,838,838,838,838,838,838,838,838,838,838,838,838,838,838,838,838,838,838,838,838,838,838,838,838,838,838,838,838,838,838,838,838,838,838,838,838,829,811,778,688,627,565,472,416,358,343,327,309,289,275,265,263,262,262,262,263,265,271,277,288,298,309,312,313,317,334,342,348,356,366,383,383,385,387,391,396,400,405,411,413,418,419,419,419,426],"ymouse":[619,619,619,619,619,619,619,619,619,619,619,619,619,619,619,619,619,619,619,619,619,619,619,619,619,619,619,619,619,619,619,619,619,619,619,619,619,619,619,619,619,619,619,619,619,619,619,619,619,608,577,474,402,327,218,141,56,36,21,8,0,0,0,0,0,0,0,0,0,0,0,4,21,44,45,45,45,40,35,32,30,26,21,21,20,16,16,16,16,16,16,16,16,16,16,16,16],"timestamp_mouse":[9,30,49,68,89,109,129,149,169,189,208,229,249,270,290,309,329,350,369,390,409,429,448,469,490,510,530,550,568,589,609,630,648,670,690,710,729,750,769,789,810,830,848,869,889,909,929,950,969,989,1009,1029,1048,1070,1089,1108,1129,1148,1169,1188,1209,1229,1250,1269,1289,1310,1330,1350,1369,1389,1409,1429,1449,1469,1489,1509,1529,1549,1569,1589,1609,1629,1649,1669,1689,1710,1728,1748,1769,1789,1809,1829,1849,1868,1889,1910,1930],"xSR":741.5,"ySR":573.95,"xT1":424.9,"yT1":0,"xT2":1058.1,"yT2":0,"toosoon":0,"cond_shown":"Incongruent","ratio_trial":300,"L_num":2,"L_den":4,"R_num":6,"R_den":30,"correct_side":1,"subjID":"sergioandrésguzmángarzón20","gender":"0","school":"6","age":"11"},{"start_time":1551891756990,"click_time":1551891760213,"finger_time":1551891758432,"fix_duration":837.8473895051037,"trial":41,"RT":1442,"MT":1781,"sideResp":2,"stimulus":[],"xmouse":[826,826,826,826,826,826,826,826,826,826,826,826,826,826,826,826,826,826