[{"start_time":1551892952261,"click_time":1551892954660,"finger_time":1551892952261,"fix_duration":659.1389454305502,"trial":0,"RT":0,"MT":2399,"sideResp":2,"stimulus":"img/500/equaldotsize/R/14_Ratio_500_L_5_R_10.png","xmouse":[779,779,779,779,779,779,779,779,779,779,779,779,779,779,779,779,779,779,779,779,779,779,779,779,779,779,779,779,779,779,779,779,779,779,779,779,779,779,779,779,779,779,779,779,779,779,779,778,778,774,770,770,770,771,777,793,801,807,807,808,805,800,796,793,790,783,783,783,783,785,797,809,823,838,856,868,868,869,869,869,871,878,883,887,888,889,889,889,889,889,887,887,886,885,885,885,885,885,887,889,901,918,945,980,1021,1109,1132,1143,1145,1145,1146,1146,1145,1140,1131,1111,1108,1107,1106,1106,1107],"ymouse":[517,517,517,517,517,517,517,517,517,517,517,517,517,517,517,517,517,517,517,517,517,517,517,517,517,517,517,517,517,517,517,517,517,517,517,517,517,517,517,517,517,517,517,517,517,517,509,485,464,445,429,428,425,414,398,378,368,355,349,343,330,324,321,317,312,298,291,280,265,250,215,199,186,175,162,153,151,151,150,150,150,150,150,150,150,151,151,151,153,154,156,156,157,158,158,158,158,159,159,159,156,151,145,142,136,136,136,137,137,137,137,137,135,133,130,119,115,111,108,104,99],"timestamp_mouse":[0,19,40,59,80,101,119,139,161,179,199,219,239,259,280,299,319,339,359,380,399,419,439,459,479,499,520,540,559,579,600,619,639,660,680,700,719,739,760,779,800,819,839,860,879,900,919,939,959,979,999,1019,1039,1060,1079,1099,1119,1139,1159,1180,1199,1219,1240,1259,1279,1299,1319,1339,1359,1380,1399,1419,1439,1460,1480,1499,1519,1539,1560,1580,1599,1620,1640,1659,1679,1700,1720,1739,1759,1780,1799,1819,1840,1859,1880,1900,1919,1939,1959,1980,1999,2019,2040,2059,2080,2099,2119,2139,2161,2180,2200,2219,2239,2259,2279,2299,2319,2339,2359,2379,2399],"xSR":741.5,"ySR":469.95,"xT1":424.9,"yT1":0,"xT2":1058.1,"yT2":0,"toosoon":0,"cond_shown":"equaldotsize","ratio_trial":500,"smaller_num":"5","larger_num":"10","correct_side":2,"subjID":"sergioandrésguzmángarzón20","gender":"0","age":"11","school":"6","test":{"fix_dur":[250,1500],"timestim":300,"targets_dim":[100,100],"targets_relative_coord":[0.3,0.7],"size_stim":[880,420],"start_dim":[100,100],"size_start":[300,300],"size_fix":60,"samplingrate":20,"img_types":["equaldotsize","equaldotanddens","randomdotsizeEA"],"ratios":[250,500,750,900],"rep_conds":9,"nTrials":120,"trials_to_rest":500,"Trials_order":[39,101,100,82,50,93,111,57,24,15,25,62,79,97,43,35,41,0,108,18,70,77,51,29,28,103,17,44,2,80,13,40,104,85,83,14,49,76,112,23,74,1,37,38,58,92,67,116,115,42,27,73,91,61,84,45,102,109,68,52,4,118,81,22,69,46,21,96,60,94,75,64,119,10,54,89,98,55,78,63,110,56,47,53,105,32,16,90,65,72,87,95,86,6,34,31,66,7,26,5,20,36,9,106,30,3,11,59,88,33,113,71,12,48,8,117,99,107,19,114],"cond_shown":["equaldotsize","randomdotsizeEA","equaldotanddens","equaldotanddens","randomdotsizeEA","equaldotsize","equaldotsize","equaldotsize","equaldotsize","equaldotsize","equaldotanddens","randomdotsizeEA","equaldotanddens","equaldotanddens","equaldotanddens","randomdotsizeEA","randomdotsizeEA","equaldotsize","equaldotsize","equaldotsize","equaldotanddens","randomdotsizeEA","equaldotsize","randomdotsizeEA","equaldotanddens","equaldotanddens","randomdotsizeEA","randomdotsizeEA","randomdotsizeEA","randomdotsizeEA","equaldotanddens","equaldotanddens","randomdotsizeEA","equaldotanddens","randomdotsizeEA","randomdotsizeEA","equaldotanddens","equaldotanddens","equaldotanddens","randomdotsizeEA","randomdotsizeEA","equaldotanddens","equaldotanddens","randomdotsizeEA","equaldotanddens","randomdotsizeEA","equaldotanddens","randomdotsizeEA","equaldotanddens","equaldotsize","equaldotsize","equaldotanddens","equaldotanddens","equaldotanddens","equaldotsize","equaldotsize","equaldotsize","equaldotanddens","randomdotsizeEA","equaldotanddens","equaldotanddens","equaldotanddens","equaldotsize","equaldotanddens","equaldotsize","equaldotanddens","equaldotsize","equaldotsize","equaldotsize","equaldotanddens","equaldotsize","equaldotanddens","randomdotsizeEA","equaldotanddens","equaldotsize","randomdotsizeEA","randomdotsizeEA","equaldotanddens","equaldotsize","equaldotsize","randomdotsizeEA","randomdotsizeEA","randomdotsizeEA","randomdotsizeEA","equaldotsize","randomdotsizeEA","equaldotanddens","equaldotsize","randomdotsizeEA","equaldotsize","equaldotsize","randomdotsizeEA","randomdotsizeEA","equaldotsize","equaldotanddens","equaldotanddens","equaldotsize","equaldotanddens","randomdotsizeEA","randomdotsizeEA","randomdotsizeEA","equaldotsize","equaldotsize","equaldotanddens","equaldotsize","equaldotsize","randomdotsizeEA","randomdotsizeEA","equaldotanddens","equaldotsize","randomdotsizeEA","randomdotsizeEA","equaldotsize","equaldotsize","randomdotsizeEA","equaldotsize","equaldotsize","randomdotsizeEA","equaldotanddens","equaldotsize"],"ratio_trial":[500,500,500,900,250,900,500,900,250,500,250,250,750,250,750,900,500,250,250,750,900,500,500,500,500,750,500,750,250,750,250,500,750,250,900,250,250,500,500,900,250,250,250,250,900,750,750,750,750,750,500,250,750,250,250,900,750,250,750,500,500,900,900,900,900,900,900,250,250,900,500,500,900,900,750,500,250,750,750,500,250,750,900,500,900,750,500,750,500,250,500,900,250,750,900,750,750,750,250,500,750,250,900,900,750,500,900,900,500,900,500,900,250,250,750,900,500,900,750,750],"smaller_num":["5","6","2","18","4","18","5","18","5","6","3","4","18","3","3","18","4","3","3","3","18","9","5","2","2","18","10","6","4","6","2","1","6","6","9","3","3","1","4","9","2","3","2","3","9","3","12","3","15","3","9","2","12","4","2","18","6","3","15","2","10","9","18","9","9","18","9","2","4","18","1","2","9","18","3","2","6","9","15","6","2","6","18","6","18","18","2","3","6","4","2","9","2","15","9","15","15","3","2","1","18","6","9","18","3","9","9","18","4","18","2","18","4","3","18","9","9","18","6","3"],"larger_num":["10","12","4","20","16","20","10","20","20","12","12","16","24","12","4","20","8","12","12","4","20","18","10","4","4","24","20","8","16","8","8","2","8","24","10","12","12","2","8","10","8","12","8","12","10","4","16","4","20","4","18","8","16","16","8","20","8","12","20","4","20","10","20","10","10","20","10","8","16","20","2","4","10","20","4","4","24","12","20","12","8","8","20","12","20","24","4","4","12","16","4","10","8","20","10","20","20","4","8","2","24","24","10","20","4","18","10","20","8","20","4","20","16","12","24","10","18","20","8","4"],"correct_side":[2,1,1,1,1,1,2,1,2,1,2,1,1,2,1,1,1,1,2,2,2,2,2,1,1,1,2,2,2,2,1,2,1,2,1,2,2,2,1,2,1,2,2,1,1,2,2,1,2,1,1,1,2,1,1,2,1,1,2,1,2,2,1,2,1,2,2,1,1,1,2,1,2,1,1,1,1,2,1,1,1,2,1,1,1,1,2,1,1,1,1,1,1,2,2,2,2,1,2,2,1,1,2,2,1,2,2,2,1,1,2,1,1,1,1,2,1,2,1,2],"img_shown":["img/500/equaldotsize/R/14_Ratio_500_L_5_R_10.png","img/500/randomdotsizeEA/L/13_Ratio_500_L_12_R_6.png","img/500/equaldotanddens/L/5_Ratio_500_L_4_R_2.png","img/900/equaldotanddens/L/10_Ratio_900_L_20_R_18.png","img/250/randomdotsizeEA/L/2_Ratio_250_L_16_R_4.png","img/900/equaldotsize/L/10_Ratio_900_L_20_R_18.png","img/500/equaldotsize/R/14_Ratio_500_L_5_R_10.png","img/900/equaldotsize/L/10_Ratio_900_L_20_R_18.png","img/250/equaldotsize/R/12_Ratio_250_L_5_R_20.png","img/500/equaldotsize/L/13_Ratio_500_L_12_R_6.png","img/250/equaldotanddens/R/9_Ratio_250_L_3_R_12.png","img/250/randomdotsizeEA/L/2_Ratio_250_L_16_R_4.png","img/750/equaldotanddens/L/6_Ratio_750_L_24_R_18.png","img/250/equaldotanddens/R/11_Ratio_250_L_3_R_12.png","img/750/equaldotanddens/L/10_Ratio_750_L_4_R_3.png","img/900/randomdotsizeEA/L/2_Ratio_900_L_20_R_18.png","img/500/randomdotsizeEA/L/8_Ratio_500_L_8_R_4.png","img/250/equaldotsize/L/14_Ratio_250_L_12_R_3.png","img/250/equaldotsize/R/4_Ratio_250_L_3_R_12.png","img/750/equaldotsize/R/12_Ratio_750_L_3_R_4.png","img/900/equaldotanddens/R/13_Ratio_900_L_18_R_20.png","img/500/randomdotsizeEA/R/1_Ratio_500_L_9_R_18.png","img/500/equaldotsize/R/14_Ratio_500_L_5_R_10.png","img/500/randomdotsizeEA/L/10_Ratio_500_L_4_R_2.png","img/500/equaldotanddens/L/5_Ratio_500_L_4_R_2.png","img/750/equaldotanddens/L/6_Ratio_750_L_24_R_18.png","img/500/randomdotsizeEA/R/3_Ratio_500_L_10_R_20.png","img/750/randomdotsizeEA/R/2_Ratio_750_L_6_R_8.png","img/250/randomdotsizeEA/R/10_Ratio_250_L_4_R_16.png","img/750/randomdotsizeEA/R/2_Ratio_750_L_6_R_8.png","img/250/equaldotanddens/L/1_Ratio_250_L_8_R_2.png","img/500/equaldotanddens/R/12_Ratio_500_L_1_R_2.png","img/750/randomdotsizeEA/L/14_Ratio_750_L_8_R_6.png","img/250/equaldotanddens/R/6_Ratio_250_L_6_R_24.png","img/900/randomdotsizeEA/L/1_Ratio_900_L_10_R_9.png","img/250/randomdotsizeEA/R/9_Ratio_250_L_3_R_12.png","img/250/equaldotanddens/R/4_Ratio_250_L_3_R_12.png","img/500/equaldotanddens/R/15_Ratio_500_L_1_R_2.png","img/500/equaldotanddens/L/8_Ratio_500_L_8_R_4.png","img/900/randomdotsizeEA/R/5_Ratio_900_L_9_R_10.png","img/250/randomdotsizeEA/L/3_Ratio_250_L_8_R_2.png","img/250/equaldotanddens/R/4_Ratio_250_L_3_R_12.png","img/250/equaldotanddens/R/13_Ratio_250_L_2_R_8.png","img/250/randomdotsizeEA/L/14_Ratio_250_L_12_R_3.png","img/900/equaldotanddens/L/1_Ratio_900_L_10_R_9.png","img/750/randomdotsizeEA/R/7_Ratio_750_L_3_R_4.png","img/750/equaldotanddens/R/11_Ratio_750_L_12_R_16.png","img/750/randomdotsizeEA/L/8_Ratio_750_L_4_R_3.png","img/750/equaldotanddens/R/3_Ratio_750_L_15_R_20.png","img/750/equaldotsize/L/8_Ratio_750_L_4_R_3.png","img/500/equaldotsize/L/4_Ratio_500_L_18_R_9.png","img/250/equaldotanddens/L/3_Ratio_250_L_8_R_2.png","img/750/equaldotanddens/R/11_Ratio_750_L_12_R_16.png","img/250/equaldotanddens/L/2_Ratio_250_L_16_R_4.png","img/250/equaldotsize/L/7_Ratio_250_L_8_R_2.png","img/900/equaldotsize/R/13_Ratio_900_L_18_R_20.png","img/750/equaldotsize/L/13_Ratio_750_L_8_R_6.png","img/250/equaldotanddens/L/14_Ratio_250_L_12_R_3.png","img/750/randomdotsizeEA/R/5_Ratio_750_L_15_R_20.png","img/500/equaldotanddens/L/5_Ratio_500_L_4_R_2.png","img/500/equaldotanddens/R/3_Ratio_500_L_10_R_20.png","img/900/equaldotanddens/R/5_Ratio_900_L_9_R_10.png","img/900/equaldotsize/L/8_Ratio_900_L_20_R_18.png","img/900/equaldotanddens/R/6_Ratio_900_L_9_R_10.png","img/900/equaldotsize/L/1_Ratio_900_L_10_R_9.png","img/900/equaldotanddens/R/12_Ratio_900_L_18_R_20.png","img/900/equaldotsize/R/5_Ratio_900_L_9_R_10.png","img/250/equaldotsize/L/3_Ratio_250_L_8_R_2.png","img/250/equaldotsize/L/2_Ratio_250_L_16_R_4.png","img/900/equaldotanddens/L/10_Ratio_900_L_20_R_18.png","img/500/equaldotsize/R/12_Ratio_500_L_1_R_2.png","img/500/equaldotanddens/L/5_Ratio_500_L_4_R_2.png","img/900/randomdotsizeEA/R/5_Ratio_900_L_9_R_10.png","img/900/equaldotanddens/L/10_Ratio_900_L_20_R_18.png","img/750/equaldotsize/L/9_Ratio_750_L_4_R_3.png","img/500/randomdotsizeEA/L/5_Ratio_500_L_4_R_2.png","img/250/randomdotsizeEA/L/5_Ratio_250_L_24_R_6.png","img/750/equaldotanddens/R/15_Ratio_750_L_9_R_12.png","img/750/equaldotsize/L/1_Ratio_750_L_20_R_15.png","img/500/equaldotsize/L/11_Ratio_500_L_12_R_6.png","img/250/randomdotsizeEA/L/1_Ratio_250_L_8_R_2.png","img/750/randomdotsizeEA/R/2_Ratio_750_L_6_R_8.png","img/900/randomdotsizeEA/L/2_Ratio_900_L_20_R_18.png","img/500/randomdotsizeEA/L/13_Ratio_500_L_12_R_6.png","img/900/equaldotsize/L/8_Ratio_900_L_20_R_18.png","img/750/randomdotsizeEA/L/6_Ratio_750_L_24_R_18.png","img/500/equaldotanddens/R/9_Ratio_500_L_2_R_4.png","img/750/equaldotsize/L/10_Ratio_750_L_4_R_3.png","img/500/randomdotsizeEA/L/13_Ratio_500_L_12_R_6.png","img/250/equaldotsize/L/2_Ratio_250_L_16_R_4.png","img/500/equaldotsize/L/10_Ratio_500_L_4_R_2.png","img/900/randomdotsizeEA/L/1_Ratio_900_L_10_R_9.png","img/250/randomdotsizeEA/L/3_Ratio_250_L_8_R_2.png","img/750/equaldotsize/R/4_Ratio_750_L_15_R_20.png","img/900/equaldotanddens/R/6_Ratio_900_L_9_R_10.png","img/750/equaldotanddens/R/3_Ratio_750_L_15_R_20.png","img/750/equaldotsize/R/5_Ratio_750_L_15_R_20.png","img/750/equaldotanddens/L/9_Ratio_750_L_4_R_3.png","img/250/randomdotsizeEA/R/13_Ratio_250_L_2_R_8.png","img/500/randomdotsizeEA/R/12_Ratio_500_L_1_R_2.png","img/750/randomdotsizeEA/L/6_Ratio_750_L_24_R_18.png","img/250/equaldotsize/L/5_Ratio_250_L_24_R_6.png","img/900/equaldotsize/R/5_Ratio_900_L_9_R_10.png","img/900/equaldotanddens/R/14_Ratio_900_L_18_R_20.png","img/750/equaldotsize/L/9_Ratio_750_L_4_R_3.png","img/500/equaldotsize/R/1_Ratio_500_L_9_R_18.png","img/900/randomdotsizeEA/R/5_Ratio_900_L_9_R_10.png","img/900/randomdotsizeEA/R/14_Ratio_900_L_18_R_20.png","img/500/equaldotanddens/L/8_Ratio_500_L_8_R_4.png","img/900/equaldotsize/L/4_Ratio_900_L_20_R_18.png","img/500/randomdotsizeEA/R/9_Ratio_500_L_2_R_4.png","img/900/randomdotsizeEA/L/4_Ratio_900_L_20_R_18.png","img/250/equaldotsize/L/2_Ratio_250_L_16_R_4.png","img/250/equaldotsize/L/14_Ratio_250_L_12_R_3.png","img/750/randomdotsizeEA/L/6_Ratio_750_L_24_R_18.png","img/900/equaldotsize/R/15_Ratio_900_L_9_R_10.png","img/500/equaldotsize/L/4_Ratio_500_L_18_R_9.png","img/900/randomdotsizeEA/R/11_Ratio_900_L_18_R_20.png","img/750/equaldotanddens/L/13_Ratio_750_L_8_R_6.png","img/750/equaldotsize/R/7_Ratio_750_L_3_R_4.png"],"Rat0":[["12_Ratio_0_L_9_R_0.png","13_Ratio_0_L_6_R_0.png","5_Ratio_0_L_2_R_0.png","6_Ratio_0_L_4_R_0.png","8_Ratio_0_L_6_R_0.png"],["1_Ratio_0_L_0_R_17.png","10_Ratio_0_L_0_R_22.png","11_Ratio_0_L_0_R_1.png","14_Ratio_0_L_0_R_24.png","15_Ratio_0_L_0_R_4.png","2_Ratio_0_L_0_R_5.png","3_Ratio_0_L_0_R_17.png","4_Ratio_0_L_0_R_7.png","7_Ratio_0_L_0_R_19.png","9_Ratio_0_L_0_R_15.png"]],"Rat250":[["1_Ratio_250_L_8_R_2.png","14_Ratio_250_L_12_R_3.png","15_Ratio_250_L_12_R_3.png","2_Ratio_250_L_16_R_4.png","3_Ratio_250_L_8_R_2.png","5_Ratio_250_L_24_R_6.png","7_Ratio_250_L_8_R_2.png"],["10_Ratio_250_L_4_R_16.png","11_Ratio_250_L_3_R_12.png","12_Ratio_250_L_5_R_20.png","13_Ratio_250_L_2_R_8.png","4_Ratio_250_L_3_R_12.png","6_Ratio_250_L_6_R_24.png","8_Ratio_250_L_1_R_4.png","9_Ratio_250_L_3_R_12.png"]],"Rat500":[["10_Ratio_500_L_4_R_2.png","11_Ratio_500_L_12_R_6.png","13_Ratio_500_L_12_R_6.png","4_Ratio_500_L_18_R_9.png","5_Ratio_500_L_4_R_2.png","7_Ratio_500_L_10_R_5.png","8_Ratio_500_L_8_R_4.png"],["1_Ratio_500_L_9_R_18.png","12_Ratio_500_L_1_R_2.png","14_Ratio_500_L_5_R_10.png","15_Ratio_500_L_1_R_2.png","2_Ratio_500_L_3_R_6.png","3_Ratio_500_L_10_R_20.png","6_Ratio_500_L_9_R_18.png","9_Ratio_500_L_2_R_4.png"]],"Rat750":[["1_Ratio_750_L_20_R_15.png","10_Ratio_750_L_4_R_3.png","13_Ratio_750_L_8_R_6.png","14_Ratio_750_L_8_R_6.png","6_Ratio_750_L_24_R_18.png","8_Ratio_750_L_4_R_3.png","9_Ratio_750_L_4_R_3.png"],["11_Ratio_750_L_12_R_16.png","12_Ratio_750_L_3_R_4.png","15_Ratio_750_L_9_R_12.png","2_Ratio_750_L_6_R_8.png","3_Ratio_750_L_15_R_20.png","4_Ratio_750_L_15_R_20.png","5_Ratio_750_L_15_R_20.png","7_Ratio_750_L_3_R_4.png"]],"Rat900":[["1_Ratio_900_L_10_R_9.png","10_Ratio_900_L_20_R_18.png","2_Ratio_900_L_20_R_18.png","4_Ratio_900_L_20_R_18.png","8_Ratio_900_L_20_R_18.png"],["11_Ratio_900_L_18_R_20.png","12_Ratio_900_L_18_R_20.png","13_Ratio_900_L_18_R_20.png","14_Ratio_900_L_18_R_20.png","15_Ratio_900_L_9_R_10.png","3_Ratio_900_L_9_R_10.png","5_Ratio_900_L_9_R_10.png","6_Ratio_900_L_9_R_10.png","7_Ratio_900_L_9_R_10.png","9_Ratio_900_L_18_R_20.png"]],"Rat1000":[["10_Ratio_1000_L_16_R_16.png","11_Ratio_1000_L_6_R_6.png","12_Ratio_1000_L_14_R_14.png","13_Ratio_1000_L_20_R_20.png","15_Ratio_1000_L_15_R_15.png","2_Ratio_1000_L_17_R_17.png","4_Ratio_1000_L_9_R_9.png","5_Ratio_1000_L_6_R_6.png","6_Ratio_1000_L_19_R_19.png","8_Ratio_1000_L_14_R_14.png","9_Ratio_1000_L_25_R_25.png"],["1_Ratio_1000_L_1_R_1.png","14_Ratio_1000_L_17_R_17.png","3_Ratio_1000_L_17_R_17.png","7_Ratio_1000_L_6_R_6.png"]]}},{"start_time":1551892956869,"click_time":1551892958141,"finger_time":1551892957521,"fix_duration":908.1233894197505,"trial":1,"RT":652,"MT":620,"sideResp":2,"stimulus":"img/500/randomdotsizeEA/L/13_Ratio_500_L_12_R_6.png","xmouse":[817,817,817,817,817,817,817,817,817,817,817,817,817,817,817,817,817,817,817,817,817,817,817,817,817,817,817,817,817,817,817,835,851,877,909,914,920,924,926,928,928,928,930,937,944,952,960,970,983,1019,1040,1059,1077,1111,1122,1132,1141,1147,1150,1155,1155,1155,1152,1142],"ymouse":[655,655,655,655,655,655,655,655,655,655,655,655,655,655,655,655,655,655,655,655,655,655,655,655,655,655,655,655,655,655,655,649,640,625,607,604,599,595,591,582,575,566,546,503,454,426,407,386,366,322,301,285,266,222,207,190,177,165,156,132,124,116,107,93],"timestamp_mouse":[11,32,51,71,91,111,131,151,171,191,211,231,251,271,291,311,332,352,373,391,411,431,451,471,491,511,531,551,571,591,611,631,652,671,692,711,731,751,771,791,811,832,851,872,892,911,931,952,971,991,1011,1031,1051,1072,1092,1111,1132,1152,1172,1191,1212,1231,1251,1272],"xSR":741.5,"ySR":573.95,"xT1":424.9,"yT1":0,"xT2":1058.1,"yT2":0,"toosoon":0,"cond_shown":"randomdotsizeEA","ratio_trial":500,"smaller_num":"6","larger_num":"12","correct_side":1,"subjID":"sergioandrésguzmángarzón20","gender":"0","age":"11","school":"6"},{"start_time":1551892960318,"click_time":1551892961980,"finger_time":1551892961060,"fix_duration":876.6389781036918,"trial":2,"RT":742,"MT":920,"sideResp":1,"stimulus":"img/500/equaldotanddens/L/5_Ratio_500_L_4_R_2.png","xmouse":[772,772,772,772,772,772,772,772,772,772,772,772,772,772,772,772,772,772,772,772,772,772,772,772,772,772,772,772,772,772,772,772,772,772,772,772,775,867,944,986,1010,1022,1025,1025,1025,1025,1025,1025,1025,1018,1011,964,943,934,932,935,946,967,974,980,980,976,951,931,904,866,831,772,749,729,706,699,693,693,692,688,680,642,626,613,596,586,529,516],"ymouse":[631,631,631,631,631,631,631,631,631,631,631,631,631,631,631,631,631,631,631,631,631,631,631,631,631,631,631,631,631,631,631,631,631,631,631,631,631,589,550,524,509,499,496,496,496,496,496,496,490,473,455,368,303,222,134,58,4,0,0,0,0,0,0,0,1,7,10,10,10,10,8,5,4,3,3,3,3,5,7,10,14,15,15,15],"timestamp_mouse":[3,24,42,62,82,103,122,142,162,182,203,222,244,263,282,302,323,342,363,383,403,422,442,462,483,503,523,543,562,582,604,622,642,662,683,702,722,742,762,782,802,822,843,862,882,903,923,942,962,982,1003,1023,1042,1062,1083,1103,1122,1142,1163,1183,1203,1222,1242,1262,1283,1302,1322,1342,1362,1382,1402,1424,1444,1462,1482,1502,1522,1542,1562,1582,1603,1624,1643,1662],"xSR":741.5,"ySR":573.95,"xT1":424.9,"yT1":0,"xT2":1058.1,"yT2":0,"toosoon":0,"cond_shown":"equaldotanddens","ratio_trial":500,"smaller_num":"2","larger_num":"4","correct_side":1,"subjID":"sergioandrésguzmángarzón20","gender":"0","age":"11","school":"6"},{"start_time":1551892964644,"click_time":1551892966880,"finger_time":1551892965460,"fix_duration":1084.4492398579905,"trial":3,"RT":816,"MT":1420,"sideResp":2,"stimulus":"img/900/equaldotanddens/L/10_Ratio_900_L_20_R_18.png","xmouse":[762,762,762,762,762,762,762,762,762,762,762,762,762,762,762,762,762,762,762,762,762,762,762,762,762,762,762,762,762,762,762,762,762,762,762,762,762,762,763,771,851,888,914,930,950,963,967,969,972,978,992,999,1005,1010,1014,1014,1014,1014,1011,1004,983,970,957,941,928,886,870,848,828,814,801,801,801,801,801,801,801,801,810,831,916,973,1036,1094,1146,1184,1201,1218,1234,1246,1257,1258,1258,1256,1251,1241,1236,1229,1222,1217,1207,1191,1164,1139,1123,1122,1122,1118,1116,1114,1112,1112],"ymouse":[630,630,630,630,630,630,630,630,630,630,630,630,630,630,630,630,630,630,630,630,630,630,630,630,630,630,630,630,630,630,630,630,630,630,630,630,630,630,627,601,453,403,371,352,334,320,315,312,308,299,282,270,256,240,214,200,195,192,186,177,158,148,141,131,121,92,81,71,62,57,51,51,51,51,51,51,51,54,64,77,129,156,178,190,197,196,189,179,168,158,137,130,128,122,117,113,112,111,110,110,111,115,121,125,125,125,125,121,116,111,102,97],"timestamp_mouse":[19,36,57,76,97,117,136,156,176,197,216,237,256,277,298,316,336,357,376,396,416,436,456,477,497,516,536,557,576,596,616,636,656,677,696,716,736,757,776,797,816,837,856,876,896,916,937,957,977,997,1016,1036,1056,1077,1097,1116,1136,1157,1176,1197,1216,1237,1257,1276,1297,1317,1336,1357,1376,1396,1416,1436,1457,1477,1497,1517,1537,1556,1577,1596,1616,1637,1657,1676,1696,1716,1736,1756,1776,1797,1816,1836,1856,1876,1897,1916,1936,1956,1976,1997,2016,2036,2056,2076,2096,2117,2136,2156,2176,2197,2216,2236],"xSR":741.5,"ySR":573.95,"xT1":424.9,"yT1":0,"xT2":1058.1,"yT2":0,"toosoon":0,"cond_shown":"equaldotanddens","ratio_trial":900,"smaller_num":"18","larger_num":"20","correct_side":1,"subjID":"sergioandrésguzmángarzón20","gender":"0","age":"11","school":"6"},{"start_time":1551892969578,"click_time":1551892971222,"finger_time":1551892970360,"fix_duration":1258.6523254502356,"trial":4,"RT":782,"MT":862,"sideResp":1,"stimulus":"img/250/randomdotsizeEA/L/2_Ratio_250_L_16_R_4.png","xmouse":[782,782,782,782,782,782,782,782,782,782,782,782,782,782,782,782,782,782,782,782,782,782,782,782,782,782,782,782,782,782,782,782,782,782,782,782,782,782,786,810,814,821,827,829,819,811,800,786,773,738,728,721,717,716,716,716,715,712,694,640,630,626,625,625,622,613,606,601,600,600,600,596,585,555,477,457,448,448,448,447,447,447,447],"ymouse":[646,646,646,646,646,646,646,646,646,646,646,646,646,646,646,646,646,646,646,646,646,646,646,646,646,646,646,646,646,646,646,646,646,646,646,646,646,646,645,569,513,464,407,344,230,167,94,25,0,0,0,0,0,0,0,0,0,0,12,30,31,31,31,31,29,22,16,9,8,7,7,5,4,0,0,0,0,0,0,0,0,0,1],"timestamp_mouse":[4,22,42,62,83,102,123,143,162,182,202,224,242,262,283,302,322,343,362,382,403,423,443,462,482,503,522,542,562,582,602,623,642,663,683,702,722,742,762,782,802,822,842,863,882,902,922,942,962,983,1003,1023,1043,1063,1083,1102,1122,1142,1162,1182,1202,1223,1242,1262,1283,1302,1323,1342,1364,1382,1402,1422,1443,1462,1482,1502,1523,1543,1562,1583,1602,1623,1644],"xSR":741.5,"ySR":573.95,"xT1":424.9,"yT1":0,"xT2":1058.1,"yT2":0,"toosoon":0,"cond_shown":"randomdotsizeEA","ratio_trial":250,"smaller_num":"4","larger_num":"16","correct_side":1,"subjID":"sergioandrésguzmángarzón20","gender":"0","age":"11","school":"6"},{"start_time":1551892973034,"click_time":1551892974521,"finger_time":1551892973761,"fix_duration":632.5569778126686,"trial":5,"RT":727,"MT":760,"sideResp":1,"stimulus":"img/900/equaldotsize/L/10_Ratio_900_L_20_R_18.png","xmouse":[824,824,824,824,824,824,824,824,824,824,824,824,824,824,824,824,824,824,824,824,824,824,824,824,824,824,824,824,824,824,824,824,824,823,824,830,843,846,848,851,854,857,858,858,858,858,858,858,857,851,845,830,820,803,778,742,718,716,706,698,688,647,633,625,621,620,610,601,587,572,556,535,530,526,519],"ymouse":[633,633,633,633,633,633,633,633,633,633,633,633,633,633,633,633,633,633,633,633,633,633,633,633,633,633,633,633,633,633,633,633,633,631,627,613,585,575,567,557,541,511,491,468,443,403,354,336,322,307,296,282,274,267,260,251,245,243,236,229,219,188,170,152,134,104,61,44,26,7,0,0,0,2,8],"timestamp_mouse":[13,26,47,67,86,106,126,146,166,187,206,226,247,266,286,307,327,346,367,386,406,426,446,467,486,507,526,546,566,586,606,627,647,666,686,706,727,746,766,787,807,826,846,867,886,906,926,946,966,986,1007,1026,1046,1066,1086,1107,1126,1146,1166,1186,1207,1226,1246,1267,1286,1306,1327,1346,1366,1386,1407,1426,1446,1467,1486],"xSR":741.5,"ySR":573.95,"xT1":424.9,"yT1":0,"xT2":1058.1,"yT2":0,"toosoon":0,"cond_shown":"equaldotsize","ratio_trial":900,"smaller_num":"18","larger_num":"20","correct_side":1,"subjID":"sergioandrésguzmángarzón20","gender":"0","age":"11","school":"6"},{"start_time":1551892976537,"click_time":1551892977781,"finger_time":1551892977281,"fix_duration":1095.0751359612607,"trial":6,"RT":744,"MT":500,"sideResp":2,"stimulus":"img/500/equaldotsize/R/14_Ratio_500_L_5_R_10.png","xmouse":[795,795,795,795,795,795,795,795,795,795,795,795,795,795,795,795,795,795,795,795,795,795,795,795,795,795,795,795,795,795,795,795,795,795,795,795,804,830,871,883,906,928,937,945,956,971,996,1006,1018,1031,1048,1068,1077,1088,1102,1119,1170,1194,1201,1197,1170,1142,1137],"ymouse":[627,627,627,627,627,627,627,627,627,627,627,627,627,627,627,627,627,627,627,627,627,627,627,627,627,627,627,627,627,627,627,627,627,627,627,627,600,548,488,471,437,403,389,374,361,341,310,295,278,260,236,200,182,161,137,109,28,0,0,0,0,0,1],"timestamp_mouse":[4,25,43,63,84,103,123,144,163,184,204,224,243,264,283,303,324,343,364,384,404,424,444,463,485,504,524,544,563,583,604,623,643,664,684,703,723,744,763,783,804,824,843,863,883,903,923,943,963,984,1004,1023,1043,1063,1083,1104,1123,1143,1163,1184,1203,1223,1243],"xSR":741.5,"ySR":573.95,"xT1":424.9,"yT1":0,"xT2":1058.1,"yT2":0,"toosoon":0,"cond_shown":"equaldotsize","ratio_trial":500,"smaller_num":"5","larger_num":"10","correct_side":2,"subjID":"sergioandrésguzmángarzón20","gender":"0","age":"11","school":"6"},{"start_time":1551892979971,"click_time":1551892981321,"finger_time":1551892980820,"fix_duration":1070.0543054098448,"trial":7,"RT":849,"MT":501,"sideResp":1,"stimulus":"img/900/equaldotsize/L/10_Ratio_900_L_20_R_18.png","xmouse":[808,808,808,808,808,808,808,808,808,808,808,808,808,808,808,808,808,808,808,808,808,808,808,808,808,808,808,808,808,808,808,808,808,808,808,808,808,808,808,808,808,808,808,806,806,806,806,806,806,806,799,784,762,729,663,633,607,582,563,552,552,551,550,540,536,530,525,519],"ymouse":[653,653,653,653,653,653,653,653,653,653,653,653,653,653,653,653,653,653,653,653,653,653,653,653,653,653,653,653,653,653,653,653,653,653,653,653,653,653,653,653,653,636,565,485,404,380,359,338,305,250,211,167,106,47,0,0,0,0,0,0,0,0,0,9,13,20,26,32],"timestamp_mouse":[10,29,49,69,90,111,130,149,169,189,209,229,249,269,289,309,330,350,369,389,409,430,449,469,490,509,530,549,569,589,609,630,649,669,689,710,729,749,769,789,809,829,849,869,889,909,929,949,969,989,1009,1029,1050,1069,1089,1109,1130,1149,1170,1189,1209,1230,1249,1271,1290,1310,1330,1350],"xSR":741.5,"ySR":573.95,"xT1":424.9,"yT1":0,"xT2":1058.1,"yT2":0,"toosoon":0,"cond_shown":"equaldotsize","ratio_trial":900,"smaller_num":"18","larger_num":"20","correct_side":1,"subjID":"sergioandrésguzmángarzón20","gender":"0","age":"11","school":"6"},{"start_time":1551892984176,"click_time":1551892986501,"finger_time":1551892986001,"fix_duration":414.2471848564431,"trial":8,"RT":1825,"MT":500,"sideResp":2,"stimulus":"img/250/equaldotsize/R/12_Ratio_250_L_5_R_20.png","xmouse":[779,779,779,779,779,779,779,779,779,779,779,779,779,779,779,779,779,779,779,779,779,779,779,779,779,779,779,779,779,779,779,779,779,779,779,779,779,779,779,779,779,779,779,779,779,779,779,779,779,779,779,779,779,779,779,779,779,779,779,779,779,779,779,779,779,779,779,779,779,779,779,779,779,779,779,779,779,779,779,779,779,779,779,779,779,779,779,779,779,785,802,838,899,975,1076,1098,1115,1131,1181,1273,1348,1425,1498,1554,1554,1554,1554,1554,1562,1532,1512,1490,1465,1425,1299,1217,1135],"ymouse":[662,662,662,662,662,662,662,662,662,662,662,662,662,662,662,662,662,662,662,662,662,662,662,662,662,662,662,662,662,662,662,662,662,662,662,662,662,662,662,662,662,662,662,662,662,662,662,662,662,662,662,662,662,662,662,662,662,662,662,662,662,662,662,662,662,662,662,662,662,662,662,662,662,662,662,662,662,662,662,662,662,662,662,662,662,662,662,662,662,649,620,573,503,431,358,345,335,326,296,243,202,158,112,64,64,64,64,64,0,4,14,24,31,38,41,41,37],"timestamp_mouse":[4,24,44,64,84,104,124,144,164,184,205,224,245,264,284,304,324,344,364,384,405,425,444,465,486,504,524,544,564,585,604,624,645,664,684,704,724,744,764,784,804,824,844,864,884,904,924,944,965,985,1005,1024,1045,1065,1084,1104,1126,1144,1164,1184,1204,1224,1244,1264,1285,1304,1324,1344,1364,1384,1404,1424,1444,1464,1484,1504,1524,1545,1565,1584,1604,1624,1644,1666,1684,1704,1724,1745,1766,1784,1804,1825,1845,1865,1884,1904,1925,1945,1964,1984,2004,2024,2044,2064,2084,2104,2125,2144,2165,2184,2204,2224,2244,2265,2284,2304,2325],"xSR":741.5,"ySR":573.95,"xT1":424.9,"yT1":0,"xT2":1058.1,"yT2":0,"toosoon":0,"cond_shown":"equaldotsize","ratio_trial":250,"smaller_num":"5","larger_num":"20","correct_side":2,"subjID":"sergioandrésguzmángarzón20","gender":"0","age":"11","school":"6"},{"start_time":1551892988897,"click_time":1551892990060,"finger_time":1551892989560,"fix_duration":1274.6369131628198,"trial":9,"RT":663,"MT":500,"sideResp":1,"stimulus":"img/500/equaldotsize/L/13_Ratio_500_L_12_R_6.png","xmouse":[782,782,782,782,782,782,782,782,782,782,782,782,782,782,782,782,782,782,782,782,782,782,782,782,782,782,782,782,786,792,794,794,795,796,796,796,796,796,787,784,781,781,778,773,769,764,761,757,738,725,712,703,689,678,671,657,626,576,494],"ymouse":[596,596,596,596,596,596,596,596,596,596,596,596,596,596,596,596,596,596,596,596,596,596,596,596,596,596,596,596,599,601,602,602,602,550,469,406,371,342,275,238,207,177,152,98,81,69,62,58,44,36,31,28,24,21,20,20,20,20,20],"timestamp_mouse":[4,23,44,63,83,104,124,144,163,183,203,223,244,263,283,303,323,344,363,384,404,424,445,463,483,503,523,544,563,583,604,623,643,663,683,703,723,743,763,784,804,823,844,863,883,903,924,944,963,983,1003,1023,1044,1063,1083,1104,1123,1144,1163],"xSR":741.5,"ySR":573.95,"xT1":424.9,"yT1":0,"xT2":1058.1,"yT2":0,"toosoon":0,"cond_shown":"equaldotsize","ratio_trial":500,"smaller_num":"6","larger_num":"12","correct_side":1,"subjID":"sergioandrésguzmángarzón20","gender":"0","age":"11","school":"6"},{"start_time":1551892991604,"click_time":1551892992901,"finger_time":1551892992260,"fix_duration":623.3886406090711,"trial":10,"RT":656,"MT":641,"sideResp":2,"stimulus":"img/250/equaldotanddens/R/9_Ratio_250_L_3_R_12.png","xmouse":[781,781,781,781,781,781,781,781,781,781,781,781,781,781,781,781,781,781,781,781,781,781,782,782,782,782,782,782,783,786,793,806,836,852,862,867,873,885,896,909,930,968,1042,1070,1094,1113,1135,1161,1172,1182,1192,1199,1207,1207,1204,1195,1185,1181,1179,1179,1179,1179,1176,1168,1156],"ymouse":[646,646,646,646,646,646,646,646,646,646,646,646,646,646,646,646,646,646,646,646,646,647,647,647,647,647,647,647,647,639,620,596,544,528,503,484,464,430,411,392,370,343,304,290,278,266,247,220,209,195,180,164,131,116,102,89,78,72,70,70,70,70,71,83,96],"timestamp_mouse":[17,36,57,77,96,116,136,156,176,197,216,236,256,276,296,317,337,357,377,396,417,438,456,477,496,516,536,557,576,597,616,636,656,677,697,716,737,757,776,796,816,836,856,877,897,916,937,956,976,997,1016,1036,1056,1077,1097,1116,1137,1156,1176,1196,1216,1237,1256,1277,1297],"xSR":741.5,"ySR":573.95,"xT1":424.9,"yT1":0,"xT2":1058.1,"yT2":0,"toosoon":0,"cond_shown":"equaldotanddens","ratio_trial":250,"smaller_num":"3","larger_num":"12","correct_side":2,"subjID":"sergioandrésguzmángarzón20","gender":"0","age":"11","school":"6"},{"start_time":1551892994429,"click_time":1551892995661,"finger_time":1551892995160,"fix_duration":808.2658458334922,"trial":11,"RT":731,"MT":501,"sideResp":1,"stimulus":"img/250/randomdotsizeEA/L/2_Ratio_250_L_16_R_4.png","xmouse":[790,790,790,790,790,790,790,790,790,790,790,790,790,790,790,790,790,790,790,790,790,790,790,790,790,790,790,790,790,790,792,792,792,792,792,792,771,764,753,732,704,602,550,501,438,425,417,417,417,417,417,417,417,417,417,417,417,417,417,419,420,428],"ymouse":[599,599,599,599,599,599,599,599,599,599,599,599,599,599,599,599,599,599,599,599,599,599,599,599,599,599,599,599,602,604,607,607,607,607,607,600,510,458,390,316,237,58,0,0,0,0,0,0,0,0,0,0,0,1,1,2,3,5,6,8,9,15],"timestamp_mouse":[12,32,51,72,92,111,131,153,172,191,211,233,251,271,292,311,333,352,372,392,412,431,451,472,491,511,532,551,571,591,611,632,651,671,692,712,731,751,772,792,812,831,851,871,891,912,931,951,971,991,1012,1032,1051,1073,1091,1111,1132,1151,1172,1191,1211,1232],"xSR":741.5,"ySR":573.95,"xT1":424.9,"yT1":0,"xT2":1058.1,"yT2":0,"toosoon":0,"cond_shown":"randomdotsizeEA","ratio_trial":250,"smaller_num":"4","larger_num":"16","correct_side":1,"subjID":"sergioandrésguzmángarzón20","gender":"0","age":"11","school":"6"},{"start_time":1551892998631,"click_time":1551892999880,"finger_time":1551892999340,"fix_duration":250,"trial":12,"RT":709,"MT":540,"sideResp":1,"stimulus":"img/750/equaldotanddens/L/6_Ratio_750_L_24_R_18.png","xmouse":[767,767,767,767,767,767,767,767,767,767,767,767,767,767,767,767,767,767,767,767,767,767,767,767,767,767,767,767,767,767,767,767,767,771,782,787,798,801,802,800,789,743,707,656,574,524,462,443,430,421,413,401,395,394,393,392,390,390,390,390,393,416,430],"ymouse":[639,639,639,639,639,639,639,639,639,639,639,639,639,639,639,639,639,639,639,639,639,639,639,639,639,639,639,639,639,639,639,639,639,632,598,559,510,493,477,458,435,379,342,300,230,190,138,121,110,102,97,90,85,84,83,76,69,66,65,65,65,65,65],"timestamp_mouse":[9,29,49,69,90,110,129,149,169,189,209,229,250,269,289,309,329,349,369,389,410,429,449,469,489,509,529,549,570,590,609,629,649,669,689,709,730,749,769,789,809,829,849,870,889,909,929,949,969,989,1010,1029,1049,1069,1090,1109,1129,1149,1169,1189,1209,1229,1249],"xSR":741.5,"ySR":573.95,"xT1":424.9,"yT1":0,"xT2":1058.1,"yT2":0,"toosoon":0,"cond_shown":"equaldotanddens","ratio_trial":750,"smaller_num":"18","larger_num":"24","correct_side":1,"subjID":"sergioandrésguzmángarzón20","gender":"0","age":"11","school":"6"},{"start_time":1551893002230,"click_time":1551893004360,"finger_time":1551893003520,"fix_duration":1148.1503510550126,"trial":13,"RT":1290,"MT":840,"sideResp":2,"stimulus":"img/250/equaldotanddens/R/11_Ratio_250_L_3_R_12.png","xmouse":[799,799,799,799,799,799,799,799,799,799,799,799,799,799,799,799,799,799,799,799,799,799,799,799,799,799,799,799,799,799,799,799,799,799,799,799,799,799,799,799,799,799,799,799,799,799,799,799,799,799,799,799,799,799,799,799,799,799,799,799,799,797,797,798,803,813,841,848,856,862,865,867,868,868,870,871,892,910,939,966,988,1010,1013,1018,1026,1028,1028,1026,1024,1024,1024,1024,1024,1024,1024,1024,1024,1024,1024,1024,1024,1024,1024,1028,1040,1052,1069],"ymouse":[628,628,628,628,628,628,628,628,628,628,628,628,628,628,628,628,628,628,628,628,628,628,628,628,628,628,628,628,628,628,628,628,628,628,628,628,628,628,628,628,628,628,628,628,628,628,628,628,628,628,628,628,628,628,628,628,628,628,628,628,628,620,600,577,568,552,518,507,494,487,480,470,467,466,461,458,433,415,389,358,321,247,215,182,154,122,94,86,82,82,82,82,82,82,82,82,82,82,82,82,82,82,82,81,81,79,73],"timestamp_mouse":[16,31,51,70,90,111,130,150,170,191,210,230,250,270,290,311,330,350,371,391,411,430,450,471,491,511,531,551,570,591,610,631,651,670,691,710,730,751,770,790,811,832,851,871,890,911,931,951,971,990,1011,1031,1051,1070,1091,1110,1130,1150,1170,1191,1211,1230,1250,1270,1290,1310,1330,1350,1370,1391,1411,1430,1450,1471,1491,1510,1531,1550,1570,1590,1610,1630,1650,1671,1691,1711,1730,1750,1770,1790,1810,1830,1850,1870,1892,1911,1931,1951,1970,1990,2010,2030,2050,2070,2091,2111,2130],"xSR":741.5,"ySR":573.95,"xT1":424.9,"yT1":0,"xT2":1058.1,"yT2":0,"toosoon":0,"cond_shown":"equaldotanddens","ratio_trial":250,"smaller_num":"3","larger_num":"12","correct_side":2,"subjID":"sergioandrésguzmángarzón20","gender":"0","age":"11","school":"6"},{"start_time":1551893031889,"click_time":1551893033120,"finger_time":1551893032559,"fix_duration":909.4734782341712,"trial":14,"RT":670,"MT":561,"sideResp":1,"stimulus":"img/750/equaldotanddens/L/10_Ratio_750_L_4_R_3.png","xmouse":[790,790,790,790,790,790,790,790,790,790,790,790,790,790,790,790,790,790,790,790,790,790,790,790,790,790,790,790,790,790,790,787,782,735,714,701,692,688,688,688,688,688,675,653,622,599,574,528,524,541,564,580,565,507,479,460,449,446,444,444,444,438],"ymouse":[659,659,659,659,659,659,659,659,659,659,659,659,659,659,659,659,659,659,659,659,659,659,659,659,659,659,659,659,659,659,659,655,648,617,608,603,600,593,588,578,565,549,491,460,423,387,340,252,226,173,119,87,18,0,0,0,0,0,0,0,0,5],"timestamp_mouse":[10,32,52,71,91,111,131,151,170,192,210,231,250,270,290,310,331,352,370,390,412,430,451,470,491,510,530,550,572,590,610,631,650,670,690,710,730,750,770,790,811,830,851,871,890,910,930,950,971,990,1010,1030,1050,1071,1091,1110,1130,1151,1170,1190,1210,1231],"xSR":741.5,"ySR":573.95,"xT1":424.9,"yT1":0,"xT2":1058.1,"yT2":0,"toosoon":0,"cond_shown":"equaldotanddens","ratio_trial":750,"smaller_num":"3","larger_num":"4","correct_side":1,"subjID":"sergioandrésguzmángarzón20","gender":"0","age":"11","school":"6"},{"start_time":1551893036286,"click_time":1551893037639,"finger_time":1551893036839,"fix_duration":1126.986067398936,"trial":15,"RT":553,"MT":800,"sideResp":1,"stimulus":"img/900/randomdotsizeEA/L/2_Ratio_900_L_20_R_18.png","xmouse":[763,763,763,763,763,763,763,763,763,763,763,763,763,763,763,763,763,763,763,763,763,763,763,763,763,761,754,741,706,691,684,675,667,659,652,644,639,634,630,634,644,647,652,652,652,650,642,624,531,470,409,366,355,348,343,339,336,334,333,337,346,361,383,406,411,416,422,426],"ymouse":[625,625,625,625,625,625,625,625,625,625,625,625,625,625,625,625,625,625,625,625,625,625,625,625,625,623,613,599,577,566,555,536,500,440,417,394,373,353,315,295,267,259,229,186,162,138,115,87,12,0,0,0,0,3,9,16,21,29,44,56,69,82,93,98,99,98,94,91],"timestamp_mouse":[13,33,55,74,93,115,133,153,173,194,215,233,253,273,293,313,333,353,374,393,413,433,453,473,493,514,533,553,573,594,614,634,654,674,693,713,734,753,773,793,813,834,853,873,893,914,933,953,973,993,1013,1034,1054,1073,1093,1113,1134,1153,1174,1194,1215,1234,1254,1273,1294,1314,1333,1353],"xSR":741.5,"ySR":573.95,"xT1":424.9,"yT1":0,"xT2":1058.1,"yT2":0,"toosoon":0,"cond_shown":"randomdotsizeEA","ratio_trial":900,"smaller_num":"18","larger_num":"20","correct_side":1,"subjID":"sergioandrésguzmángarzón20","gender":"0","age":"11","school":"6"},{"start_time":1551893040079,"click_time":1551893041399,"finger_time":1551893040760,"fix_duration":1339.4245058112404,"trial":16,"RT":681,"MT":639,"sideResp":1,"stimulus":"img/500/randomdotsizeEA/L/8_Ratio_500_L_8_R_4.png","xmouse":[800,800,800,800,800,800,800,800,800,800,800,800,800,800,800,800,800,800,800,800,800,800,800,800,800,800,800,800,800,800,800,800,800,798,792,789,785,784,770,708,684,659,635,622,610,610,610,609,604,583,576,574,569,559,556,555,553,553,553,553,552,552,552,551,536,527,520],"ymouse":[621,621,621,621,621,621,621,621,621,621,621,621,621,621,621,621,621,621,621,621,621,621,621,621,621,621,621,621,621,621,621,617,606,590,563,551,529,504,454,309,242,185,125,98,79,79,79,79,79,81,83,83,83,83,83,83,81,80,79,78,77,77,76,75,69,66,65],"timestamp_mouse":[3,20,40,60,80,101,120,140,160,181,201,220,240,262,280,300,320,340,360,380,400,421,440,460,480,500,521,540,561,580,600,620,640,660,681,700,721,741,761,780,801,821,840,861,882,900,920,940,961,980,1000,1020,1041,1061,1080,1100,1120,1140,1160,1180,1201,1220,1240,1260,1280,1300,1320],"xSR":741.5,"ySR":573.95,"xT1":424.9,"yT1":0,"xT2":1058.1,"yT2":0,"toosoon":0,"cond_shown":"randomdotsizeEA","ratio_trial":500,"smaller_num":"4","larger_num":"8","correct_side":1,"subjID":"sergioandrésguzmángarzón20","gender":"0","age":"11","school":"6"},{"start_time":1551893043132,"click_time":1551893044060,"finger_time":1551893043739,"fix_duration":752.8611379918249,"trial":17,"RT":607,"MT":321,"sideResp":1,"stimulus":"img/250/equaldotsize/L/14_Ratio_250_L_12_R_3.png","xmouse":[803,803,803,803,803,803,803,803,803,803,803,803,803,803,803,803,803,803,803,803,803,803,803,803,803,803,803,803,802,801,788,720,680,652,627,599,536,510,499,494,499,517,519,520,520,520,516],"ymouse":[583,583,583,583,583,583,583,583,583,583,583,583,583,583,583,583,583,583,583,583,583,583,583,583,583,583,583,583,583,581,551,414,345,294,245,195,51,0,0,0,0,0,0,0,0,0,6],"timestamp_mouse":[8,27,48,68,88,107,128,149,168,188,208,227,249,267,288,307,327,349,369,388,407,428,449,468,489,508,528,547,567,589,607,627,647,668,687,708,727,747,767,788,808,828,847,867,888,908,927],"xSR":741.5,"ySR":573.95,"xT1":424.9,"yT1":0,"xT2":1058.1,"yT2":0,"toosoon":0,"cond_shown":"equaldotsize","ratio_trial":250,"smaller_num":"3","larger_num":"12","correct_side":1,"subjID":"sergioandrésguzmángarzón20","gender":"0","age":"11","school":"6"},{"start_time":1551893046542,"click_time":1551893047560,"finger_time":1551893046759,"fix_duration":1282.2573321421562,"trial":18,"RT":217,"MT":801,"sideResp":2,"stimulus":"img/250/equaldotsize/R/4_Ratio_250_L_3_R_12.png","xmouse":[745,745,745,745,745,745,745,745,745,743,738,736,735,735,735,735,735,735,735,735,735,735,735,735,733,730,725,723,722,724,739,753,762,774,796,861,903,938,989,1020,1062,1073,1087,1094,1103,1113,1113,1112,1103,1092,1074],"ymouse":[616,616,616,616,616,616,616,616,616,616,617,618,618,618,618,618,618,618,618,618,618,618,618,618,618,618,617,616,613,604,583,572,563,553,543,518,502,487,463,448,423,412,392,380,351,293,246,211,161,120,54],"timestamp_mouse":[21,37,57,78,97,117,139,158,178,197,217,237,258,278,298,317,338,357,377,397,418,437,459,478,497,517,537,558,577,598,617,637,657,679,698,717,737,757,777,797,817,838,859,878,898,917,937,959,977,998,1018],"xSR":741.5,"ySR":573.95,"xT1":424.9,"yT1":0,"xT2":1058.1,"yT2":0,"toosoon":0,"cond_shown":"equaldotsize","ratio_trial":250,"smaller_num":"3","larger_num":"12","correct_side":2,"subjID":"sergioandrésguzmángarzón20","gender":"0","age":"11","school":"6"},{"start_time":1551893050121,"click_time":1551893051659,"finger_time":1551893050759,"fix_duration":1301.1606771607044,"trial":19,"RT":638,"MT":900,"sideResp":2,"stimulus":"img/750/equaldotsize/R/12_Ratio_750_L_3_R_4.png","xmouse":[768,768,768,768,768,768,768,768,768,768,768,768,768,768,768,768,768,768,768,768,768,768,768,768,768,768,768,768,768,768,768,768,764,753,729,702,660,649,645,645,645,645,645,645,645,645,645,654,674,710,765,891,993,1096,1172,1231,1292,1309,1319,1325,1327,1329,1325,1315,1301,1286,1244,1224,1206,1193,1182,1173,1172,1171,1169,1165,1155],"ymouse":[601,601,601,601,601,601,601,601,601,601,601,601,601,601,601,601,601,601,601,601,601,601,601,601,601,601,601,601,601,599,585,551,527,485,436,391,312,291,283,283,283,283,283,283,283,283,283,293,312,330,341,342,317,290,277,273,268,265,261,251,245,202,181,159,137,118,82,70,60,53,47,41,40,40,40,42,48],"timestamp_mouse":[19,39,58,79,98,119,139,158,179,198,218,238,258,278,298,318,339,358,378,399,420,439,459,478,498,518,538,558,579,598,618,638,658,679,700,718,738,759,778,799,818,838,859,878,898,918,938,958,979,998,1019,1039,1058,1078,1098,1119,1138,1159,1179,1198,1218,1238,1258,1278,1299,1318,1338,1359,1380,1398,1419,1438,1458,1478,1498,1518,1538],"xSR":741.5,"ySR":573.95,"xT1":424.9,"yT1":0,"xT2":1058.1,"yT2":0,"toosoon":0,"cond_shown":"equaldotsize","ratio_trial":750,"smaller_num":"3","larger_num":"4","correct_side":2,"subjID":"sergioandrésguzmángarzón20","gender":"0","age":"11","school":"6"},{"start_time":1551893053796,"click_time":1551893055280,"finger_time":1551893054459,"fix_duration":1015.5013655447876,"trial":20,"RT":663,"MT":821,"sideResp":1,"stimulus":"img/900/equaldotanddens/R/13_Ratio_900_L_18_R_20.png","xmouse":[798,798,798,798,798,798,798,798,798,798,798,798,798,798,798,798,798,798,798,798,798,798,798,798,798,798,798,798,798,798,798,792,777,771,767,763,760,756,738,732,728,722,718,708,700,690,680,650,634,627,620,614,611,610,610,609,604,592,570,556,543,531,527,527,527,527,527,526,526,526,526,526,526,525,518],"ymouse":[615,615,615,615,615,615,615,615,615,615,615,615,615,615,615,615,615,615,615,615,615,615,615,615,615,615,615,615,615,615,615,604,574,564,556,549,544,536,504,492,473,433,390,295,238,180,117,9,0,0,0,0,0,0,0,0,6,23,47,58,65,69,69,69,69,69,69,69,69,69,69,69,69,69,61],"timestamp_mouse":[3,26,43,64,83,103,123,144,163,183,203,223,244,265,284,303,324,343,364,384,404,423,444,463,483,503,524,544,563,583,603,623,644,663,684,703,723,744,763,783,804,824,844,863,884,903,924,944,964,984,1003,1024,1044,1063,1083,1103,1123,1144,1164,1184,1203,1223,1243,1263,1283,1303,1324,1344,1364,1384,1405,1423,1444,1463,1484],"xSR":741.5,"ySR":573.95,"xT1":424.9,"yT1":0,"xT2":1058.1,"yT2":0,"toosoon":0,"cond_shown":"equaldotanddens","ratio_trial":900,"smaller_num":"18","larger_num":"20","correct_side":2,"subjID":"sergioandrésguzmángarzón20","gender":"0","age":"11","school":"6"},{"start_time":1551893057453,"click_time":1551893058740,"finger_time":1551893058059,"fix_duration":1311.4165080913003,"trial":21,"RT":606,"MT":681,"sideResp":2,"stimulus":"img/500/randomdotsizeEA/R/1_Ratio_500_L_9_R_18.png","xmouse":[792,792,792,792,792,792,792,792,792,792,792,792,792,792,792,792,792,792,792,792,792,792,792,791,791,786,783,782,780,780,786,790,798,805,814,827,836,847,858,865,876,886,897,910,927,1047,1130,1199,1256,1293,1328,1332,1332,1332,1332,1332,1331,1326,1310,1287,1226,1202,1181,1164,1133],"ymouse":[624,624,624,624,624,624,624,624,624,624,624,624,624,624,624,624,624,624,624,624,624,624,624,624,624,619,614,611,605,588,544,524,498,478,457,431,416,403,392,386,374,363,352,340,321,224,188,150,114,86,51,43,39,37,36,36,35,35,37,40,46,46,46,46,46],"timestamp_mouse":[6,26,47,67,87,106,126,146,166,186,207,227,247,266,287,306,326,347,366,386,406,426,447,467,486,506,526,546,567,587,606,626,648,666,687,706,726,747,766,787,806,827,847,866,887,907,926,947,967,986,1006,1026,1046,1066,1087,1106,1126,1146,1166,1187,1206,1226,1246,1267,1287],"xSR":741.5,"ySR":573.95,"xT1":424.9,"yT1":0,"xT2":1058.1,"yT2":0,"toosoon":0,"cond_shown":"randomdotsizeEA","ratio_trial":500,"smaller_num":"9","larger_num":"18","correct_side":2,"subjID":"sergioandrésguzmángarzón20","gender":"0","age":"11","school":"6"},{"start_time":1551893060638,"click_time":1551893061560,"finger_time":1551893061239,"fix_duration":597.0565244643623,"trial":22,"RT":601,"MT":321,"sideResp":2,"stimulus":"img/500/equaldotsize/R/14_Ratio_500_L_5_R_10.png","xmouse":[786,786,786,786,786,786,786,786,786,786,786,786,786,786,786,786,786,786,786,786,786,786,786,786,786,786,786,786,778,766,738,691,680,672,666,662,665,678,704,746,795,912,963,1002,1059,1100,1146],"ymouse":[617,617,617,617,617,617,617,617,617,617,617,617,617,617,617,617,617,617,617,617,617,617,617,617,617,617,617,617,617,617,617,601,593,586,577,557,532,515,493,460,424,334,290,251,187,124,49],"timestamp_mouse":[4,24,41,62,81,101,121,142,161,181,202,221,242,263,281,301,321,341,361,381,401,423,441,462,481,502,522,541,562,582,601,621,641,661,682,702,721,741,761,781,802,821,842,862,881,902,922],"xSR":741.5,"ySR":573.95,"xT1":424.9,"yT1":0,"xT2":1058.1,"yT2":0,"toosoon":0,"cond_shown":"equaldotsize","ratio_trial":500,"smaller_num":"5","larger_num":"10","correct_side":2,"subjID":"sergioandrésguzmángarzón20","gender":"0","age":"11","school":"6"},{"start_time":1551893063053,"click_time":1551893064039,"finger_time":1551893063680,"fix_duration":392.9790210515396,"trial":23,"RT":627,"MT":359,"sideResp":1,"stimulus":"img/500/randomdotsizeEA/L/10_Ratio_500_L_4_R_2.png","xmouse":[770,770,770,770,770,770,770,770,770,770,770,770,770,770,770,770,770,770,770,770,770,770,770,770,770,770,770,770,768,765,746,737,730,725,714,699,689,680,672,661,618,596,586,582,580,568,560,546,528,515],"ymouse":[655,655,655,655,655,655,655,655,655,655,655,655,655,655,655,655,655,655,655,655,655,655,655,655,655,655,655,655,655,655,629,611,592,572,534,486,461,440,425,407,338,308,286,256,232,177,151,119,95,80],"timestamp_mouse":[11,27,46,67,87,106,128,147,167,187,207,227,246,266,286,306,327,346,368,387,406,426,446,466,486,507,526,546,566,586,606,627,647,666,686,706,726,746,766,787,806,826,847,866,887,906,926,946,966,986],"xSR":741.5,"ySR":573.95,"xT1":424.9,"yT1":0,"xT2":1058.1,"yT2":0,"toosoon":0,"cond_shown":"randomdotsizeEA","ratio_trial":500,"smaller_num":"2","larger_num":"4","correct_side":1,"subjID":"sergioandrésguzmángarzón20","gender":"0","age":"11","school":"6"},{"start_time":1551893065410,"click_time":1551893066599,"finger_time":1551893066099,"fix_duration":250,"trial":24,"RT":689,"MT":500,"sideResp":1,"stimulus":"img/500/equaldotanddens/L/5_Ratio_500_L_4_R_2.png","xmouse":[824,824,824,824,824,824,824,824,824,824,824,824,824,824,824,824,824,824,824,824,824,824,824,824,824,824,824,824,824,824,822,821,800,780,753,717,668,652,645,642,641,640,627,619,610,605,600,597,596,595,592,592,586,580,570,557,549,534,529,522],"ymouse":[663,663,663,663,663,663,663,663,663,663,663,663,663,663,663,663,663,663,663,663,663,663,663,663,663,663,663,663,663,663,661,658,631,602,563,506,422,386,357,323,292,261,198,170,144,122,101,88,85,82,77,77,73,71,68,64,62,56,55,55],"timestamp_mouse":[9,30,49,69,89,109,131,149,169,190,210,229,249,269,291,311,330,350,371,391,409,429,449,470,491,509,530,549,569,589,609,629,649,670,689,709,730,750,769,789,810,829,849,869,890,909,929,949,969,989,1009,1029,1049,1069,1089,1109,1129,1149,1169,1189],"xSR":741.5,"ySR":573.95,"xT1":424.9,"yT1":0,"xT2":1058.1,"yT2":0,"toosoon":0,"cond_shown":"equaldotanddens","ratio_trial":500,"smaller_num":"2","larger_num":"4","correct_side":1,"subjID":"sergioandrésguzmángarzón20","gender":"0","age":"11","school":"6"},{"start_time":1551893068873,"click_time":1551893069940,"finger_time":1551893069499,"fix_duration":1213.0362692692645,"trial":25,"RT":626,"MT":441,"sideResp":1,"stimulus":"img/750/equaldotanddens/L/6_Ratio_750_L_24_R_18.png","xmouse":[834,834,834,834,834,834,834,834,834,834,834,834,834,834,834,834,834,834,834,834,829,827,823,819,813,813,813,813,811,806,797,782,764,667,631,598,588,583,578,559,552,548,546,543,541,541,539,536,533,526,523,521,517,508],"ymouse":[617,617,617,617,617,617,617,617,617,617,617,617,617,617,617,617,617,617,617,617,615,615,612,611,607,607,607,607,605,597,584,564,539,414,364,320,303,290,271,207,184,170,160,151,144,142,139,131,126,111,108,105,102,97],"timestamp_mouse":[6,27,47,66,86,107,126,147,167,186,206,227,246,266,288,306,326,346,368,387,406,427,447,466,486,508,526,546,567,586,606,626,646,667,687,706,728,746,766,786,806,826,846,867,886,906,926,947,966,986,1007,1026,1046,1067],"xSR":741.5,"ySR":573.95,"xT1":424.9,"yT1":0,"xT2":1058.1,"yT2":0,"toosoon":0,"cond_shown":"equaldotanddens","ratio_trial":750,"smaller_num":"18","larger_num":"24","correct_side":1,"subjID":"sergioandrésguzmángarzón20","gender":"0","age":"11","school":"6"},{"start_time":1551893071049,"click_time":1551893071999,"finger_time":1551893071679,"fix_duration":250,"trial":26,"RT":630,"MT":320,"sideResp":2,"stimulus":"img/500/randomdotsizeEA/R/3_Ratio_500_L_10_R_20.png","xmouse":[772,772,772,772,772,772,772,772,772,772,772,772,772,772,772,772,772,772,772,772,772,772,772,772,772,772,772,772,773,773,774,776,780,782,802,819,841,864,885,905,961,983,1001,1015,1027,1077,1102,1124],"ymouse":[603,603,603,603,603,603,603,603,603,603,603,603,603,603,603,603,603,603,603,603,603,603,603,603,603,603,603,603,601,600,581,565,547,529,476,453,428,411,396,382,339,320,303,283,262,173,131,89],"timestamp_mouse":[13,31,51,70,90,110,130,150,170,190,210,230,251,270,290,310,330,351,370,390,410,430,450,471,491,510,531,551,570,590,610,630,651,670,691,710,730,750,770,790,810,831,851,870,891,911,930,950],"xSR":741.5,"ySR":573.95,"xT1":424.9,"yT1":0,"xT2":1058.1,"yT2":0,"toosoon":0,"cond_shown":"randomdotsizeEA","ratio_trial":500,"smaller_num":"10","larger_num":"20","correct_side":2,"subjID":"sergioandrésguzmángarzón20","gender":"0","age":"11","school":"6"},{"start_time":1551893073539,"click_time":1551893074299,"finger_time":1551893074179,"fix_duration":760.4175707189363,"trial":27,"RT":640,"MT":120,"sideResp":1,"stimulus":"img/750/randomdotsizeEA/R/2_Ratio_750_L_6_R_8.png","xmouse":[814,814,814,814,814,814,814,814,814,814,814,814,814,814,814,814,814,814,814,814,814,814,814,814,814,814,814,814,814,812,795,758,695,639,593,515,482,440],"ymouse":[601,601,601,601,601,601,601,601,601,601,601,601,601,601,601,601,601,601,601,601,601,601,601,601,601,601,601,601,601,601,589,555,494,424,354,206,130,34],"timestamp_mouse":[23,40,62,80,100,121,140,160,181,200,222,240,260,280,300,321,341,361,380,402,421,440,460,482,500,520,541,561,581,600,621,640,661,680,701,720,740,760],"xSR":741.5,"ySR":573.95,"xT1":424.9,"yT1":0,"xT2":1058.1,"yT2":0,"toosoon":0,"cond_shown":"randomdotsizeEA","ratio_trial":750,"smaller_num":"6","larger_num":"8","correct_side":2,"subjID":"sergioandrésguzmángarzón20","gender":"0","age":"11","school":"6"},{"start_time":1551893076326,"click_time":1551893077359,"finger_time":1551893076999,"fix_duration":766.4750294557396,"trial":28,"RT":673,"MT":360,"sideResp":2,"stimulus":"img/250/randomdotsizeEA/R/10_Ratio_250_L_4_R_16.png","xmouse":[810,810,810,810,810,810,810,808,808,808,808,808,808,808,808,808,808,808,808,808,808,808,808,808,808,807,807,807,807,807,807,810,816,824,843,877,1010,1090,1167,1237,1283,1319,1322,1322,1322,1313,1282,1257,1229,1200,1160,1119],"ymouse":[603,603,603,603,603,603,603,603,603,603,603,603,603,603,603,603,603,603,603,603,603,603,603,603,603,604,604,604,604,604,604,598,586,573,550,523,434,388,345,305,271,230,219,209,198,181,153,143,135,125,112,94],"timestamp_mouse":[14,33,54,73,93,114,135,153,173,193,213,233,253,273,293,315,333,353,374,394,413,434,453,473,493,513,533,554,573,595,613,634,653,673,694,713,733,753,773,793,814,833,853,873,894,913,933,954,974,993,1014,1033],"xSR":741.5,"ySR":573.95,"xT1":424.9,"yT1":0,"xT2":1058.1,"yT2":0,"toosoon":0,"cond_shown":"randomdotsizeEA","ratio_trial":250,"smaller_num":"4","larger_num":"16","correct_side":2,"subjID":"sergioandrésguzmángarzón20","gender":"0","age":"11","school":"6"},{"start_time":1551893079446,"click_time":1551893081159,"finger_time":1551893080140,"fix_duration":1105.9151438860465,"trial":29,"RT":694,"MT":1019,"sideResp":1,"stimulus":"img/750/randomdotsizeEA/R/2_Ratio_750_L_6_R_8.png","xmouse":[765,765,765,765,765,765,765,765,765,765,765,765,765,765,765,765,765,765,765,765,765,765,765,765,765,766,766,766,766,766,763,756,753,750,744,735,732,729,729,727,714,703,694,689,682,667,659,655,648,641,632,622,615,601,588,541,508,461,405,348,270,270,270,270,270,270,270,270,270,270,270,274,287,304,311,319,320,321,321,321,321,329,345,367,407,462],"ymouse":[645,645,645,645,645,645,645,645,645,645,645,645,645,645,645,645,645,645,645,645,645,645,645,645,645,645,646,646,646,646,634,617,604,585,554,505,481,452,410,376,306,277,256,242,217,190,179,173,164,155,142,128,119,100,83,27,0,0,0,0,0,0,0,0,0,0,0,0,0,0,0,2,8,14,17,19,19,20,20,20,20,21,25,36,48,57],"timestamp_mouse":[17,33,53,73,93,113,133,153,174,194,214,233,253,275,294,313,334,354,374,393,413,433,454,475,493,513,534,553,574,595,613,633,655,673,694,714,734,754,773,794,813,833,854,873,894,914,933,953,973,993,1013,1034,1054,1073,1094,1113,1133,1154,1174,1195,1214,1233,1253,1274,1293,1314,1333,1354,1373,1394,1414,1433,1454,1474,1495,1513,1534,1553,1574,1595,1614,1634,1653,1673,1694,1713],"xSR":741.5,"ySR":573.95,"xT1":424.9,"yT1":0,"xT2":1058.1,"yT2":0,"toosoon":0,"cond_shown":"randomdotsizeEA","ratio_trial":750,"smaller_num":"6","larger_num":"8","correct_side":2,"subjID":"sergioandrésguzmángarzón20","gender":"0","age":"11","school":"6"},{"start_time":1551893082983,"click_time":1551893083801,"finger_time":1551893083679,"fix_duration":962.6971368482552,"trial":30,"RT":696,"MT":122,"sideResp":1,"stimulus":"img/250/equaldotanddens/L/1_Ratio_250_L_8_R_2.png","xmouse":[821,821,821,821,821,821,821,821,821,821,821,821,821,821,821,821,821,821,821,821,821,821,821,821,821,821,821,821,821,821,821,821,821,813,786,738,723,603,547,507,479],"ymouse":[627,627,627,627,627,627,627,627,627,627,627,627,627,627,627,627,627,627,627,627,627,627,627,627,627,627,627,627,627,627,627,627,627,607,559,488,462,281,187,100,15],"timestamp_mouse":[17,37,57,77,97,116,136,156,177,196,216,237,256,276,296,316,336,356,376,396,417,436,457,477,496,516,536,557,577,596,617,638,657,676,696,716,738,757,776,796,818],"xSR":741.5,"ySR":573.95,"xT1":424.9,"yT1":0,"xT2":1058.1,"yT2":0,"toosoon":0,"cond_shown":"equaldotanddens","ratio_trial":250,"smaller_num":"2","larger_num":"8","correct_side":1,"subjID":"sergioandrésguzmángarzón20","gender":"0","age":"11","school":"6"},{"start_time":1551893087337,"click_time":1551893091357,"finger_time":1551893090757,"fix_duration":1298.2997761741847,"trial":31,"RT":3420,"MT":600,"sideResp":1,"stimulus":"img/500/equaldotanddens/R/12_Ratio_500_L_1_R_2.png","xmouse":[803,803,803,803,803,803,803,803,803,803,803,803,803,803,803,803,803,803,803,803,803,803,803,803,803,803,803,803,803,803,803,803,803,803,803,803,803,803,803,803,803,803,803,803,803,803,803,803,803,803,803,803,803,803,803,803,803,803,803,803,803,803,803,803,803,803,803,803,803,803,803,803,803,803,803,803,803,803,803,803,803,803,803,803,803,803,803,801,800,798,795,791,789,784,781,776,769,767,765,762,760,758,758,758,758,758,758,758,758,758,758,758,758,758,758,758,758,758,758,758,758,758,758,758,758,758,758,758,758,758,758,758,758,758,758,758,758,758,758,758,758,758,758,758,758,758,758,758,758,758,758,758,758,758,758,758,758,758,758,758,758,758,758,758,758,758,758,758,758,758,758,758,753,750,747,746,743,742,739,731,714,674,663,648,631,575,549,532,519,512,507,504,504,504,504,504,504,504,504,504,504,504],"ymouse":[648,648,648,648,648,648,648,648,648,648,648,648,648,648,648,648,648,648,648,648,648,648,648,648,648,648,648,648,648,648,648,648,648,648,648,648,648,648,648,648,648,648,648,648,648,648,648,648,648,648,648,648,648,648,648,648,648,648,648,648,648,648,648,648,648,648,648,648,648,648,648,648,648,648,648,648,648,648,648,648,648,648,648,648,648,648,648,647,647,645,643,641,641,641,641,640,638,637,636,633,631,627,627,627,627,627,627,627,627,627,627,627,627,627,627,627,627,627,627,627,627,627,627,627,627,627,627,627,627,627,627,627,627,627,627,627,627,627,627,627,627,627,627,627,627,627,627,627,627,627,627,627,627,627,627,627,627,627,627,627,627,627,627,627,627,627,627,627,627,620,604,570,545,521,504,496,484,481,476,470,460,431,417,396,367,303,273,248,223,201,173,143,127,112,109,107,107,107,107,107,101,96],"timestamp_mouse":[1,23,41,61,82,102,120,140,160,182,200,220,242,262,282,300,320,341,362,381,401,422,441,461,481,500,520,542,561,581,602,622,640,660,681,700,722,741,760,780,802,821,840,860,881,900,920,942,960,981,1001,1021,1041,1060,1080,1101,1121,1142,1162,1180,1200,1221,1241,1261,1280,1301,1322,1342,1361,1381,1401,1420,1441,1461,1480,1500,1521,1541,1561,1582,1600,1620,1641,1661,1682,1701,1720,1742,1760,1780,1801,1821,1840,1860,1880,1901,1920,1941,1960,1981,2001,2021,2040,2062,2080,2100,2120,2142,2162,2181,2202,2220,2240,2261,2280,2301,2321,2340,2360,2382,2401,2420,2441,2460,2482,2500,2520,2542,2562,2581,2601,2622,2642,2661,2681,2701,2722,2740,2761,2781,2802,2820,2840,2861,2881,2901,2921,2941,2962,2982,3000,3020,3041,3062,3080,3101,3120,3142,3162,3181,3202,3222,3240,3261,3282,3300,3320,3342,3360,3380,3401,3420,3440,3461,3480,3500,3520,3540,3560,3580,3601,3621,3640,3661,3681,3701,3720,3742,3761,3781,3801,3820,3840,3861,3881,3901,3921,3941,3960,3980,4001,4020],"xSR":741.5,"ySR":573.95,"xT1":424.9,"yT1":0,"xT2":1058.1,"yT2":0,"toosoon":0,"cond_shown":"equaldotanddens","ratio_trial":500,"smaller_num":"1","larger_num":"2","correct_side":2,"subjID":"sergioandrésguzmángarzón20","gender":"0","age":"11","school":"6"},{"start_time":1551893092828,"click_time":1551893094358,"finger_time":1551893093757,"fix_duration":250,"trial":32,"RT":929,"MT":601,"sideResp":1,"stimulus":"img/750/randomdotsizeEA/L/14_Ratio_750_L_8_R_6.png","xmouse":[787,787,787,787,787,787,787,787,787,787,787,787,787,787,787,787,787,787,787,787,787,787,787,787,787,787,787,787,787,787,787,787,787,787,787,787,787,787,787,787,787,787,787,790,792,797,818,835,855,882,914,962,975,983,985,987,987,987,987,987,987,987,987,987,987,987,987,987,987,987,971,938,875,795,713,634,504],"ymouse":[644,644,644,644,644,644,644,644,644,644,644,644,644,644,644,644,644,644,644,644,644,644,644,644,644,644,644,644,644,644,644,644,644,644,644,644,644,644,644,644,644,644,638,632,623,611,565,535,500,453,404,315,278,252,234,209,205,203,201,199,198,197,197,197,197,197,197,197,197,196,192,181,161,131,99,75,32],"timestamp_mouse":[10,31,50,70,91,109,130,150,171,191,210,231,249,271,291,309,330,351,370,389,410,431,449,471,490,511,531,550,571,589,609,631,651,669,690,710,731,749,769,789,810,829,850,870,890,910,929,949,969,990,1009,1029,1049,1070,1090,1110,1129,1149,1171,1189,1210,1229,1249,1269,1289,1310,1331,1351,1369,1389,1410,1430,1451,1470,1490,1509,1529],"xSR":741.5,"ySR":573.95,"xT1":424.9,"yT1":0,"xT2":1058.1,"yT2":0,"toosoon":0,"cond_shown":"randomdotsizeEA","ratio_trial":750,"smaller_num":"6","larger_num":"8","correct_side":1,"subjID":"sergioandrésguzmángarzón20","gender":"0","age":"11","school":"6"},{"start_time":1551893096467,"click_time":1551893097618,"finger_time":1551893097077,"fix_duration":667.0905462881332,"trial":33,"RT":610,"MT":541,"sideResp":2,"stimulus":"img/250/equaldotanddens/R/6_Ratio_250_L_6_R_24.png","xmouse":[770,770,770,770,770,770,770,770,770,770,770,770,770,770,770,770,770,770,770,770,770,770,770,770,770,770,770,770,770,770,777,789,802,817,885,913,939,961,977,1004,1018,1025,1029,1031,1031,1031,1031,1031,1031,1032,1034,1035,1036,1038,1040,1043,1054,1064],"ymouse":[620,620,620,620,620,620,620,620,620,620,620,620,620,620,620,620,620,620,620,620,620,620,620,620,620,620,620,620,620,601,558,515,473,424,264,199,140,76,19,0,0,0,0,0,0,0,0,2,8,30,39,44,51,55,60,64,69,72],"timestamp_mouse":[12,32,50,71,91,110,131,151,172,190,210,230,251,270,291,312,332,351,371,391,410,431,451,472,490,511,532,552,571,590,610,632,652,671,691,710,731,750,772,791,812,831,852,871,891,910,932,951,971,994,1011,1031,1051,1072,1091,1110,1132,1151],"xSR":741.5,"ySR":573.95,"xT1":424.9,"yT1":0,"xT2":1058.1,"yT2":0,"toosoon":0,"cond_shown":"equaldotanddens","ratio_trial":250,"smaller_num":"6","larger_num":"24","correct_side":2,"subjID":"sergioandrésguzmángarzón20","gender":"0","age":"11","school":"6"},{"start_time":1551893101501,"click_time":1551893102177,"finger_time":1551893102099,"fix_duration":1342.6002701422283,"trial":34,"RT":598,"MT":78,"sideResp":1,"stimulus":"img/900/randomdotsizeEA/L/1_Ratio_900_L_10_R_9.png","xmouse":[799,799,799,799,799,799,799,799,799,799,799,799,799,799,799,799,799,799,799,799,799,799,796,793,790,788,787,767,750,725,682,601,502,468],"ymouse":[621,621,621,621,621,621,621,621,621,621,621,621,621,621,621,621,621,621,621,621,621,621,620,620,619,619,618,597,575,535,465,329,123,40],"timestamp_mouse":[16,36,57,76,97,117,137,157,176,196,218,237,257,277,298,316,337,357,376,396,417,436,456,476,497,517,536,556,577,598,616,638,656,676],"xSR":741.5,"ySR":573.95,"xT1":424.9,"yT1":0,"xT2":1058.1,"yT2":0,"toosoon":0,"cond_shown":"randomdotsizeEA","ratio_trial":900,"smaller_num":"9","larger_num":"10","correct_side":1,"subjID":"sergioandrésguzmángarzón20","gender":"0","age":"11","school":"6"},{"start_time":1551893103628,"click_time":1551893104917,"finger_time":1551893104257,"fix_duration":250,"trial":35,"RT":629,"MT":660,"sideResp":2,"stimulus":"img/250/randomdotsizeEA/R/9_Ratio_250_L_3_R_12.png","xmouse":[767,767,767,767,767,767,767,767,767,767,767,767,767,767,767,767,767,767,767,767,767,767,767,767,767,767,767,767,767,768,774,806,837,875,957,1046,1125,1168,1198,1218,1229,1236,1236,1236,1236,1236,1209,1188,1165,1144,1125,1099,1094,1094,1094,1094,1094,1094,1094,1094,1093,1094,1102,1113,1129],"ymouse":[584,584,584,584,584,584,584,584,584,584,584,584,584,584,584,584,584,584,584,584,584,584,584,584,584,584,584,584,584,584,577,498,425,339,180,33,0,0,0,0,0,0,0,0,0,6,61,89,116,140,158,176,177,178,178,178,178,178,178,178,176,151,130,103,68],"timestamp_mouse":[9,31,49,69,90,110,129,149,171,189,210,231,250,269,290,310,329,349,369,390,410,430,450,469,489,509,530,550,569,589,610,629,649,669,689,711,730,750,770,789,810,829,850,870,889,910,930,949,970,990,1010,1030,1050,1069,1090,1110,1130,1150,1170,1189,1210,1229,1250,1270,1289],"xSR":741.5,"ySR":573.95,"xT1":424.9,"yT1":0,"xT2":1058.1,"yT2":0,"toosoon":0,"cond_shown":"randomdotsizeEA","ratio_trial":250,"smaller_num":"3","larger_num":"12","correct_side":2,"subjID":"sergioandrésguzmángarzón20","gender":"0","age":"11","school":"6"},{"start_time":1551893105888,"click_time":1551893106537,"finger_time":1551893106258,"fix_duration":250,"trial":36,"RT":370,"MT":279,"sideResp":2,"stimulus":"img/250/equaldotanddens/R/4_Ratio_250_L_3_R_12.png","xmouse":[783,782,781,781,781,781,781,781,781,781,781,781,781,781,781,781,781,784,801,813,823,833,844,864,878,895,921,947,993,1014,1027,1043,1063],"ymouse":[609,613,616,617,617,617,617,617,617,617,617,617,617,617,617,617,613,598,559,538,519,498,463,393,349,307,254,212,134,102,78,53,27],"timestamp_mouse":[9,30,49,71,89,109,130,151,169,191,209,230,250,269,290,310,330,349,370,389,410,430,450,469,489,509,529,549,569,589,609,629,649],"xSR":741.5,"ySR":573.95,"xT1":424.9,"yT1":0,"xT2":1058.1,"yT2":0,"toosoon":0,"cond_shown":"equaldotanddens","ratio_trial":250,"smaller_num":"3","larger_num":"12","correct_side":2,"subjID":"sergioandrésguzmángarzón20","gender":"0","age":"11","school":"6"},{"start_time":1551893107656,"click_time":1551893108538,"finger_time":1551893107678,"fix_duration":558.2367848145209,"trial":37,"RT":22,"MT":860,"sideResp":2,"stimulus":"img/500/equaldotanddens/R/15_Ratio_500_L_1_R_2.png","xmouse":[841,861,881,893,903,933,949,959,964,967,969,967,967,967,967,967,967,967,967,967,967,967,967,967,967,967,969,971,974,974,935,887,826,789,786,786,790,805,838,890,969,1001,1030,1050,1074],"ymouse":[611,603,592,584,574,532,495,461,437,416,391,386,385,385,385,385,385,385,385,385,385,385,384,380,377,362,343,324,297,260,168,129,106,95,95,95,95,95,95,95,81,68,57,50,42],"timestamp_mouse":[1,22,41,61,82,101,121,142,162,182,201,223,242,262,281,301,321,342,362,381,401,421,441,461,481,503,521,541,562,582,601,621,642,662,682,702,721,741,762,782,801,822,841,861,882],"xSR":741.5,"ySR":573.95,"xT1":424.9,"yT1":0,"xT2":1058.1,"yT2":0,"toosoon":0,"cond_shown":"equaldotanddens","ratio_trial":500,"smaller_num":"1","larger_num":"2","correct_side":2,"subjID":"sergioandrésguzmángarzón20","gender":"0","age":"11","school":"6"},{"start_time":1551893109744,"click_time":1551893110639,"finger_time":1551893110098,"fix_duration":445.8523585780071,"trial":38,"RT":354,"MT":541,"sideResp":1,"stimulus":"img/500/equaldotanddens/L/8_Ratio_500_L_8_R_4.png","xmouse":[789,789,789,789,789,789,789,789,789,789,789,789,789,789,789,789,765,738,629,544,364,293,251,229,218,222,232,240,247,265,268,270,270,272,279,320,345,366,387,403,411,411,415,422,428],"ymouse":[622,622,622,622,622,622,622,622,622,622,622,622,622,622,622,622,604,587,526,476,371,317,275,235,151,107,76,49,26,0,0,0,0,0,2,27,41,53,65,76,82,82,84,85,86],"timestamp_mouse":[15,33,53,74,93,114,135,154,173,193,213,234,254,275,294,314,333,354,375,393,414,433,453,474,494,513,534,554,575,594,613,634,653,674,693,714,733,755,775,794,813,833,853,873,894],"xSR":741.5,"ySR":573.95,"xT1":424.9,"yT1":0,"xT2":1058.1,"yT2":0,"toosoon":0,"cond_shown":"equaldotanddens","ratio_trial":500,"smaller_num":"4","larger_num":"8","correct_side":1,"subjID":"sergioandrésguzmángarzón20","gender":"0","age":"11","school":"6"},{"start_time":1551893112894,"click_time":1551893113878,"finger_time":1551893113177,"fix_duration":1494.0785637720662,"trial":39,"RT":283,"MT":701,"sideResp":1,"stimulus":"img/900/randomdotsizeEA/R/5_Ratio_900_L_9_R_10.png","xmouse":[810,810,810,810,810,810,810,810,810,810,810,810,810,831,860,900,940,961,968,968,968,968,968,968,968,968,968,968,968,968,968,968,968,968,968,968,967,960,872,783,699,647,609,599,583,564,544,518,461,445],"ymouse":[647,647,647,647,647,647,647,647,647,647,647,647,640,593,549,501,462,439,430,430,430,430,430,430,430,430,430,430,430,430,430,430,430,430,430,430,427,425,409,398,387,379,371,363,348,325,295,253,142,88],"timestamp_mouse":[5,23,43,65,84,103,124,145,163,183,204,223,244,264,283,303,324,344,364,383,404,423,444,464,485,504,523,544,564,583,604,624,643,664,683,704,723,744,763,783,804,825,844,863,883,904,924,943,963,984],"xSR":741.5,"ySR":573.95,"xT1":424.9,"yT1":0,"xT2":1058.1,"yT2":0,"toosoon":0,"cond_shown":"randomdotsizeEA","ratio_trial":900,"smaller_num":"9","larger_num":"10","correct_side":2,"subjID":"sergioandrésguzmángarzón20","gender":"0","age":"11","school":"6"},{"start_time":1551893116006,"click_time":1551893116657,"finger_time":1551893116517,"fix_duration":866.3154476327102,"trial":40,"RT":511,"MT":140,"sideResp":1,"stimulus":"img/250/randomdotsizeEA/L/3_Ratio_250_L_8_R_2.png","xmouse":[755,755,755,755,755,755,755,755,755,755,755,755,755,755,755,755,755,755,755,755,755,755,755,752,746,730,693,600,574,546,516,491,456],"ymouse":[600,600,600,600,600,600,600,600,600,600,600,600,600,600,600,600,600,600,600,600,600,600,600,599,595,573,521,371,304,239,174,115,36],"timestamp_mouse":[11,32,52,71,91,112,133,151,172,193,211,232,251,273,292,313,332,352,371,392,412,432,451,471,492,511,531,552,571,592,612,631,651],"xSR":741.5,"ySR":573.95,"xT1":424.9,"yT1":0,"xT2":1058.1,"yT2":0,"toosoon":0,"cond_shown":"randomdotsizeEA","ratio_trial":250,"smaller_num":"2","larger_num":"8","correct_side":1,"subjID":"sergioandrésguzmángarzón20","gender":"0","age":"11","school":"6"},{"start_time":1551893117871,"click_time":1551893118538,"finger_time":1551893118457,"fix_duration":613.70408926197,"trial":41,"RT":586,"MT":81,"sideResp":2,"stimulus":"img/250/equaldotanddens/R/4_Ratio_250_L_3_R_12.png","xmouse":[774,774,774,774,774,774,774,774,774,774,774,774,774,774,774,774,774,774,774,774,774,774,774,774,774,774,774,774,783,837,893,959,1034,1126],"ymouse":[608,608,608,608,608,608,608,608,608,608,608,608,608,608,608,608,608,608,608,608,608,608,608,608,608,608,608,608,580,448,351,241,136,10],"timestamp_mouse":[7,27,47,67,88,106,128,147,167,186,206,228,246,266,287,307,326,348,366,386,408,426,447,468,486,506,528,546,567,586,607,626,647,667],"xSR":741.5,"ySR":573.95,"xT1":424.9,"yT1":0,"xT2":1058.1,"yT2":0,"toosoon":0,"cond_shown":"equaldotanddens","ratio_trial":250,"smaller_num":"3","larger_num":"12","correct_side":2,"subjID":"sergioandrésguzmángarzón20","gender":"0","age":"11","school":"6"},{"start_time":1551893120602,"click_time":1551893121198,"finger_time":1551893121119,"fix_duration":843.6354617249546,"trial":42,"RT":517,"MT":79,"sideResp":2,"stimulus":"img/250/equaldotanddens/R/13_Ratio_250_L_2_R_8.png","xmouse":[761,761,761,761,761,761,761,761,761,761,761,761,761,761,761,761,761,761,761,761,761,760,766,779,797,850,897,1011,1071,1127],"ymouse":[653,653,653,653,653,653,653,653,653,653,653,653,653,653,653,653,653,653,653,653,653,652,630,606,574,484,418,248,156,55],"timestamp_mouse":[16,35,55,75,96,116,136,155,175,196,216,236,255,275,296,316,335,357,376,395,415,435,455,477,496,517,536,555,575,596],"xSR":741.5,"ySR":573.95,"xT1":424.9,"yT1":0,"xT2":1058.1,"yT2":0,"toosoon":0,"cond_shown":"equaldotanddens","ratio_trial":250,"smaller_num":"2","larger_num":"8","correct_side":2,"subjID":"sergioandrésguzmángarzón20","gender":"0","age":"11","school":"6"},{"start_time":1551893123928,"click_time":1551893124539,"finger_time":1551893124418,"fix_duration":250,"trial":43,"RT":490,"MT":121,"sideResp":1,"stimulus":"img/250/randomdotsizeEA/L/14_Ratio_250_L_12_R_3.png","xmouse":[763,763,763,763,763,763,763,763,763,763,763,763,763,763,763,763,763,763,763,763,763,763,759,752,727,674,551,507,483,472,468],"ymouse":[666,666,666,666,666,666,666,666,666,666,666,666,666,666,666,666,666,666,666,666,666,666,662,647,623,576,436,356,274,188,14],"timestamp_mouse":[10,30,50,70,90,109,129,149,170,189,210,229,250,270,289,311,330,350,369,389,410,430,449,471,490,511,529,549,569,589,611],"xSR":741.5,"ySR":573.95,"xT1":424.9,"yT1":0,"xT2":1058.1,"yT2":0,"toosoon":0,"cond_shown":"randomdotsizeEA","ratio_trial":250,"smaller_num":"3","larger_num":"12","correct_side":1,"subjID":"sergioandrésguzmángarzón20","gender":"0","age":"11","school":"6"},{"start_time":1551893127068,"click_time":1551893127777,"finger_time":1551893127517,"fix_duration":250,"trial":44,"RT":449,"MT":260,"sideResp":2,"stimulus":"img/900/equaldotanddens/L/1_Ratio_900_L_10_R_9.png","xmouse":[764,764,764,764,764,764,764,764,764,764,764,764,764,764,764,764,764,763,758,745,748,760,777,807,834,842,846,848,851,865,882,910,963,997,1051,1065],"ymouse":[666,666,666,666,666,666,666,666,666,666,666,666,666,666,666,666,666,667,665,646,613,577,545,501,461,440,424,411,393,346,315,276,209,164,92,72],"timestamp_mouse":[11,30,49,69,91,109,129,149,169,190,211,229,249,270,290,311,330,350,371,389,409,429,449,469,489,509,531,549,570,589,609,630,650,670,689,709],"xSR":741.5,"ySR":573.95,"xT1":424.9,"yT1":0,"xT2":1058.1,"yT2":0,"toosoon":0,"cond_shown":"equaldotanddens","ratio_trial":900,"smaller_num":"9","larger_num":"10","correct_side":1,"subjID":"sergioandrésguzmángarzón20","gender":"0","age":"11","school":"6"},{"start_time":1551893129875,"click_time":1551893131458,"finger_time":1551893130617,"fix_duration":1375.5567063279273,"trial":45,"RT":742,"MT":841,"sideResp":2,"stimulus":"img/750/randomdotsizeEA/R/7_Ratio_750_L_3_R_4.png","xmouse":[768,768,768,768,768,768,768,768,768,768,768,768,768,768,768,768,768,768,768,768,768,768,768,768,768,768,768,768,768,768,768,768,768,768,768,777,802,847,880,911,912,912,911,911,911,911,911,911,911,911,911,911,912,911,909,909,913,929,975,1155,1271,1375,1481,1512,1517,1501,1478,1455,1440,1430,1418,1399,1373,1339,1294,1274,1244,1204,1166,1136],"ymouse":[621,621,621,621,621,621,621,621,621,621,621,621,621,621,621,621,621,621,621,621,621,621,621,621,621,621,621,621,621,621,621,621,618,617,609,595,574,542,519,496,495,494,492,492,492,492,492,492,492,492,489,488,488,485,482,476,464,441,389,236,140,52,0,0,0,0,0,0,0,4,17,34,49,63,74,76,76,73,62,42],"timestamp_mouse":[4,23,43,63,84,104,122,143,162,184,203,222,244,263,283,302,323,343,363,382,403,422,444,463,482,504,523,542,564,583,602,622,644,662,682,702,722,742,764,782,803,822,843,862,884,903,922,942,963,982,1002,1022,1042,1062,1084,1103,1124,1143,1163,1182,1203,1223,1242,1263,1282,1302,1323,1343,1362,1383,1403,1423,1442,1463,1482,1502,1523,1542,1564,1583],"xSR":741.5,"ySR":573.95,"xT1":424.9,"yT1":0,"xT2":1058.1,"yT2":0,"toosoon":0,"cond_shown":"randomdotsizeEA","ratio_trial":750,"smaller_num":"3","larger_num":"4","correct_side":2,"subjID":"sergioandrésguzmángarzón20","gender":"0","age":"11","school":"6"},{"start_time":1551893134148,"click_time":1551893135457,"finger_time":1551893134919,"fix_duration":250,"trial":46,"RT":771,"MT":538,"sideResp":2,"stimulus":"img/750/equaldotanddens/R/11_Ratio_750_L_12_R_16.png","xmouse":[778,778,778,778,778,778,778,778,778,778,778,778,778,778,778,778,778,778,778,778,778,778,778,778,778,778,778,778,778,778,778,781,787,789,790,806,816,829,848,883,896,906,911,917,925,942,954,966,979,991,986,973,968,968,972,978,978,979,979,979,984,989,995,1008,1025,1064],"ymouse":[641,641,641,641,641,641,641,641,641,641,641,641,641,641,641,641,641,641,641,641,641,641,641,641,641,641,641,641,641,641,641,638,634,632,628,609,600,589,573,536,521,506,492,478,464,428,405,373,330,262,171,127,100,82,72,65,64,62,62,62,67,72,75,77,78,78],"timestamp_mouse":[12,31,49,70,90,109,129,150,170,189,209,231,249,269,290,311,331,349,370,391,409,429,449,471,489,511,530,549,569,589,609,629,650,670,690,709,730,749,771,790,810,829,849,869,890,909,930,951,970,990,1011,1029,1049,1069,1091,1111,1130,1149,1170,1189,1209,1229,1251,1270,1289,1309],"xSR":741.5,"ySR":573.95,"xT1":424.9,"yT1":0,"xT2":1058.1,"yT2":0,"toosoon":0,"cond_shown":"equaldotanddens","ratio_trial":750,"smaller_num":"12","larger_num":"16","correct_side":2,"subjID":"sergioandrésguzmángarzón20","gender":"0","age":"11","school":"6"},{"start_time":1551893136957,"click_time":1551893138197,"finger_time":1551893137518,"fix_duration":678.6969712552668,"trial":47,"RT":561,"MT":679,"sideResp":1,"stimulus":"img/750/randomdotsizeEA/L/8_Ratio_750_L_4_R_3.png","xmouse":[800,800,800,800,800,800,800,800,800,800,800,800,800,800,800,800,800,800,800,800,800,800,799,798,790,777,773,769,763,758,746,741,735,727,727,725,719,712,699,691,681,678,676,675,674,674,673,673,673,672,670,668,665,660,652,635,630,627,623,614,583,543,483],"ymouse":[616,616,616,616,616,616,616,616,616,616,616,616,616,616,616,616,616,616,616,616,616,616,615,612,605,599,596,590,571,552,504,469,423,366,324,246,211,178,140,123,100,95,91,90,90,90,89,89,89,89,89,88,88,87,83,61,49,38,25,11,1,1,1],"timestamp_mouse":[3,21,41,61,81,100,120,141,162,180,201,222,241,260,280,300,321,341,360,381,400,421,441,461,481,500,520,541,561,581,600,620,640,662,681,700,721,741,760,780,800,820,841,860,880,901,921,941,960,980,1000,1020,1042,1060,1080,1100,1121,1141,1162,1181,1201,1220,1240],"xSR":741.5,"ySR":573.95,"xT1":424.9,"yT1":0,"xT2":1058.1,"yT2":0,"toosoon":0,"cond_shown":"randomdotsizeEA","ratio_trial":750,"smaller_num":"3","larger_num":"4","correct_side":1,"subjID":"sergioandrésguzmángarzón20","gender":"0","age":"11","school":"6"},{"start_time":1551893141703,"click_time":1551893143257,"finger_time":1551893142377,"fix_duration":644.4596351254274,"trial":48,"RT":674,"MT":880,"sideResp":2,"stimulus":"img/750/equaldotanddens/R/3_Ratio_750_L_15_R_20.png","xmouse":[814,814,814,814,814,814,814,814,814,814,814,814,814,814,814,814,814,814,814,814,814,814,814,814,813,812,811,811,811,811,811,822,834,840,847,854,869,920,940,951,957,958,961,962,965,967,969,971,971,971,971,973,977,979,980,982,984,985,985,990,994,999,1005,1010,1014,1018,1022,1032,1041,1048,1052,1054,1054,1054,1058,1066,1072,1081],"ymouse":[638,638,638,638,638,638,638,638,638,638,638,638,638,638,638,638,638,638,638,638,638,638,638,638,636,634,633,632,632,626,621,598,574,559,540,519,485,395,362,344,331,321,308,301,289,276,258,226,208,194,175,167,159,157,153,151,147,144,143,142,141,139,134,130,126,123,121,118,115,112,110,108,108,108,105,103,100,94],"timestamp_mouse":[14,35,54,75,96,114,136,155,174,194,216,236,254,274,296,314,335,355,375,395,414,435,456,474,496,515,534,555,574,594,614,635,655,674,694,715,735,754,776,795,815,835,854,874,896,915,934,954,976,995,1016,1035,1054,1074,1094,1114,1135,1156,1175,1195,1215,1235,1255,1275,1294,1315,1336,1354,1374,1394,1415,1435,1454,1474,1495,1514,1535,1554],"xSR":741.5,"ySR":573.95,"xT1":424.9,"yT1":0,"xT2":1058.1,"yT2":0,"toosoon":0,"cond_shown":"equaldotanddens","ratio_trial":750,"smaller_num":"15","larger_num":"20","correct_side":2,"subjID":"sergioandrésguzmángarzón20","gender":"0","age":"11","school":"6"},{"start_time":1551893145383,"click_time":1551893146357,"finger_time":1551893146057,"fix_duration":1124.8351866669238,"trial":49,"RT":674,"MT":300,"sideResp":1,"stimulus":"img/750/equaldotsize/L/8_Ratio_750_L_4_R_3.png","xmouse":[747,747,747,747,747,747,747,747,747,747,747,747,747,747,747,747,747,747,747,747,747,746,746,746,746,746,746,746,746,746,746,746,746,723,700,674,646,611,574,560,545,530,515,485,468,456,448,450,463],"ymouse":[626,626,626,626,626,626,626,626,626,626,626,626,626,626,626,626,626,626,626,626,626,627,629,630,630,630,630,630,630,630,630,630,629,606,586,566,548,528,511,502,492,478,459,416,382,336,279,122,68],"timestamp_mouse":[15,35,54,76,95,114,136,154,174,196,214,235,256,274,296,316,334,354,374,395,415,434,455,474,496,514,534,555,575,594,615,634,655,674,694,714,735,755,775,794,814,835,854,874,894,915,936,955,974],"xSR":741.5,"ySR":573.95,"xT1":424.9,"yT1":0,"xT2":1058.1,"yT2":0,"toosoon":0,"cond_shown":"equaldotsize","ratio_trial":750,"smaller_num":"3","larger_num":"4","correct_side":1,"subjID":"sergioandrésguzmángarzón20","gender":"0","age":"11","school":"6"},{"start_time":1551893149846,"click_time":1551893150856,"finger_time":1551893150496,"fix_duration":1347.4668857524168,"trial":50,"RT":650,"MT":360,"sideResp":1,"stimulus":"img/500/equaldotsize/L/4_Ratio_500_L_18_R_9.png","xmouse":[784,784,784,784,784,784,784,784,784,784,784,784,784,784,784,784,784,784,784,784,784,784,784,784,784,785,785,785,785,785,782,770,754,715,688,626,597,563,531,477,456,440,432,428,427,427,427,429,429,431,433],"ymouse":[634,634,634,634,634,634,634,634,634,634,634,634,634,634,634,634,634,634,634,634,634,634,634,634,635,634,634,634,634,629,618,598,570,508,469,397,362,322,282,216,189,168,154,143,138,136,134,127,122,112,97],"timestamp_mouse":[13,31,51,70,90,112,130,150,172,190,210,232,251,272,291,311,331,350,372,392,410,432,450,471,491,511,530,551,570,591,610,631,650,671,691,710,730,750,770,791,810,830,850,872,891,910,930,951,971,991,1010],"xSR":741.5,"ySR":573.95,"xT1":424.9,"yT1":0,"xT2":1058.1,"yT2":0,"toosoon":0,"cond_shown":"equaldotsize","ratio_trial":500,"smaller_num":"9","larger_num":"18","correct_side":1,"subjID":"sergioandrésguzmángarzón20","gender":"0","age":"11","school":"6"},{"start_time":1551893152739,"click_time":1551893153456,"finger_time":1551893153337,"fix_duration":1140.7727321112243,"trial":51,"RT":598,"MT":119,"sideResp":1,"stimulus":"img/250/equaldotanddens/L/3_Ratio_250_L_8_R_2.png","xmouse":[789,789,789,789,789,789,789,789,789,789,789,789,789,789,789,789,789,789,789,789,789,789,789,787,787,785,783,770,748,696,628,605,586,567,548,521],"ymouse":[620,620,620,620,620,620,620,620,620,620,620,620,620,620,620,620,620,620,620,620,620,620,620,619,619,618,618,614,605,567,458,390,322,257,194,91],"timestamp_mouse":[20,38,58,78,98,117,138,157,177,198,217,237,258,279,298,317,338,358,378,397,417,438,458,479,498,517,539,558,579,598,617,637,657,677,698,717],"xSR":741.5,"ySR":573.95,"xT1":424.9,"yT1":0,"xT2":1058.1,"yT2":0,"toosoon":0,"cond_shown":"equaldotanddens","ratio_trial":250,"smaller_num":"2","larger_num":"8","correct_side":1,"subjID":"sergioandrésguzmángarzón20","gender":"0","age":"11","school":"6"},{"start_time":1551893154669,"click_time":1551893155756,"finger_time":1551893155316,"fix_duration":250,"trial":52,"RT":647,"MT":440,"sideResp":2,"stimulus":"img/750/equaldotanddens/R/11_Ratio_750_L_12_R_16.png","xmouse":[793,793,793,793,793,793,793,793,793,793,793,793,793,793,793,793,793,793,793,793,793,793,793,793,793,792,792,792,792,792,792,795,801,808,860,888,918,948,973,975,975,975,975,975,975,976,976,976,977,983,987,993,1013,1038,1113],"ymouse":[635,635,635,635,635,635,635,635,635,635,635,635,635,635,635,635,635,635,635,635,635,635,635,635,635,636,636,636,636,636,623,597,573,545,415,353,295,242,170,146,126,111,100,93,88,87,87,86,84,83,83,83,83,80,73],"timestamp_mouse":[7,29,47,67,87,109,128,147,168,189,207,227,249,267,289,307,328,349,367,387,407,429,447,467,489,508,527,547,568,587,609,627,647,668,689,707,727,748,768,787,809,828,849,868,889,908,927,947,968,987,1008,1028,1048,1067,1087],"xSR":741.5,"ySR":573.95,"xT1":424.9,"yT1":0,"xT2":1058.1,"yT2":0,"toosoon":0,"cond_shown":"equaldotanddens","ratio_trial":750,"smaller_num":"12","larger_num":"16","correct_side":2,"subjID":"sergioandrésguzmángarzón20","gender":"0","age":"11","school":"6"},{"start_time":1551893157131,"click_time":1551893157797,"finger_time":1551893157617,"fix_duration":594.1432140499467,"trial":53,"RT":486,"MT":180,"sideResp":1,"stimulus":"img/250/equaldotanddens/L/2_Ratio_250_L_16_R_4.png","xmouse":[813,813,813,813,813,813,813,813,813,813,813,813,813,813,813,813,813,813,813,813,813,813,797,766,707,636,545,527,513,499,494,469,453,436],"ymouse":[653,653,653,653,653,653,653,653,653,653,653,653,653,653,653,653,653,653,653,653,653,653,649,641,606,539,441,393,341,275,237,145,102,57],"timestamp_mouse":[12,25,46,66,86,106,125,145,165,185,205,226,245,266,285,306,326,347,366,385,405,425,445,466,486,506,525,545,566,585,606,626,645,666],"xSR":741.5,"ySR":573.95,"xT1":424.9,"yT1":0,"xT2":1058.1,"yT2":0,"toosoon":0,"cond_shown":"equaldotanddens","ratio_trial":250,"smaller_num":"4","larger_num":"16","correct_side":1,"subjID":"sergioandrésguzmángarzón20","gender":"0","age":"11","school":"6"},{"start_time":1551893159826,"click_time":1551893160398,"finger_time":1551893160196,"fix_duration":1329.4874226070556,"trial":54,"RT":370,"MT":202,"sideResp":1,"stimulus":"img/250/equaldotsize/L/7_Ratio_250_L_8_R_2.png","xmouse":[742,742,742,742,742,742,742,742,742,742,742,742,742,742,742,742,742,742,741,733,682,665,653,638,616,597,560,535,505],"ymouse":[618,618,618,618,618,618,618,618,618,618,618,618,618,618,618,618,618,618,613,599,525,485,444,400,316,253,128,71,21],"timestamp_mouse":[10,30,51,71,92,110,131,152,170,192,211,231,250,272,290,312,330,350,370,391,411,431,451,471,491,510,530,550,572],"xSR":741.5,"ySR":573.95,"xT1":424.9,"yT1":0,"xT2":1058.1,"yT2":0,"toosoon":0,"cond_shown":"equaldotsize","ratio_trial":250,"smaller_num":"2","larger_num":"8","correct_side":1,"subjID":"sergioandrésguzmángarzón20","gender":"0","age":"11","school":"6"},{"start_time":1551893162794,"click_time":1551893164256,"finger_time":1551893163537,"fix_duration":1035.3387979766972,"trial":55,"RT":743,"MT":719,"sideResp":2,"stimulus":"img/900/equaldotsize/R/13_Ratio_900_L_18_R_20.png","xmouse":[781,781,781,781,781,781,781,781,781,781,781,781,781,781,781,781,781,781,781,781,781,781,781,781,781,781,781,781,781,781,781,781,781,781,781,787,804,834,931,1003,1082,1143,1180,1193,1191,1184,1173,1152,1134,1127,1122,1116,1105,1098,1085,1069,1062,1060,1060,1059,1059,1059,1059,1054,1053,1053,1059,1074,1084,1086,1086,1087,1088,1101],"ymouse":[621,621,621,621,621,621,621,621,621,621,621,621,621,621,621,621,621,621,621,621,621,621,621,621,621,621,621,621,621,621,621,621,621,621,621,605,583,560,497,454,419,382,356,338,333,329,324,307,272,251,235,223,214,214,216,223,227,228,228,227,221,215,209,195,188,175,159,132,113,106,104,103,101,92],"timestamp_mouse":[3,22,43,64,82,102,124,144,163,183,203,222,243,263,284,303,322,343,364,384,403,422,442,464,483,502,522,542,562,582,602,623,644,662,682,702,722,743,763,782,803,824,843,862,882,902,923,943,964,983,1002,1022,1043,1062,1082,1102,1122,1142,1163,1182,1203,1222,1242,1262,1283,1302,1323,1342,1363,1384,1402,1423,1443,1462],"xSR":741.5,"ySR":573.95,"xT1":424.9,"yT1":0,"xT2":1058.1,"yT2":0,"toosoon":0,"cond_shown":"equaldotsize","ratio_trial":900,"smaller_num":"18","larger_num":"20","correct_side":2,"subjID":"sergioandrésguzmángarzón20","gender":"0","age":"11","school":"6"},{"start_time":1551893165789,"click_time":1551893166516,"finger_time":1551893166317,"fix_duration":731.2050787397711,"trial":56,"RT":528,"MT":199,"sideResp":1,"stimulus":"img/750/equaldotsize/L/13_Ratio_750_L_8_R_6.png","xmouse":[816,816,816,816,816,816,816,816,816,816,816,816,816,816,816,816,816,816,816,816,816,816,816,816,810,803,785,749,683,655,633,608,589,561,547,529,515],"ymouse":[596,596,596,596,596,596,596,596,596,596,596,596,596,596,596,596,596,596,596,596,596,596,596,596,594,586,570,544,480,443,401,347,294,201,152,109,76],"timestamp_mouse":[7,27,48,67,88,108,127,147,169,188,207,227,249,267,288,308,328,347,367,389,407,427,447,467,488,508,528,548,567,587,609,627,648,667,689,707,727],"xSR":741.5,"ySR":573.95,"xT1":424.9,"yT1":0,"xT2":1058.1,"yT2":0,"toosoon":0,"cond_shown":"equaldotsize","ratio_trial":750,"smaller_num":"6","larger_num":"8","correct_side":1,"subjID":"sergioandrésguzmángarzón20","gender":"0","age":"11","school":"6"},{"start_time":1551893167694,"click_time":1551893168397,"finger_time":1551893168256,"fix_duration":477.9157549429679,"trial":57,"RT":562,"MT":141,"sideResp":1,"stimulus":"img/250/equaldotanddens/L/14_Ratio_250_L_12_R_3.png","xmouse":[809,809,809,809,809,809,809,809,809,809,809,809,809,809,809,809,809,809,809,809,809,809,809,809,806,801,792,779,746,721,699,663,630,559,531,504],"ymouse":[621,621,621,621,621,621,621,621,621,621,621,621,621,621,621,621,621,621,621,621,621,621,621,621,618,614,601,583,535,497,460,385,324,196,144,96],"timestamp_mouse":[2,23,43,63,82,102,123,143,164,182,203,222,243,262,282,302,323,342,364,382,402,423,444,462,482,504,523,544,562,583,603,623,643,662,682,702],"xSR":741.5,"ySR":573.95,"xT1":424.9,"yT1":0,"xT2":1058.1,"yT2":0,"toosoon":0,"cond_shown":"equaldotanddens","ratio_trial":250,"smaller_num":"3","larger_num":"12","correct_side":1,"subjID":"sergioandrésguzmángarzón20","gender":"0","age":"11","school":"6"},{"start_time":1551893170525,"click_time":1551893171476,"finger_time":1551893171317,"fix_duration":1368.8113275755672,"trial":58,"RT":792,"MT":159,"sideResp":1,"stimulus":"img/750/randomdotsizeEA/R/5_Ratio_750_L_15_R_20.png","xmouse":[819,819,819,819,819,819,819,819,819,819,819,819,819,819,819,819,819,819,819,819,819,819,819,819,819,819,819,819,819,819,819,819,819,819,816,812,785,770,753,724,666,606,585,554,521,489,448,439],"ymouse":[629,629,629,629,629,629,629,629,629,629,629,629,629,629,629,629,629,629,629,629,629,629,629,629,629,629,629,629,629,629,629,629,629,629,630,630,623,619,614,598,564,524,502,460,397,317,143,70],"timestamp_mouse":[12,33,51,71,92,112,133,153,171,191,212,232,251,272,293,312,331,351,371,392,411,433,452,472,492,512,532,553,573,591,612,632,651,671,691,712,731,753,772,792,812,832,851,873,892,911,931,951],"xSR":741.5,"ySR":573.95,"xT1":424.9,"yT1":0,"xT2":1058.1,"yT2":0,"toosoon":0,"cond_shown":"randomdotsizeEA","ratio_trial":750,"smaller_num":"15","larger_num":"20","correct_side":2,"subjID":"sergioandrésguzmángarzón20","gender":"0","age":"11","school":"6"},{"start_time":1551893174114,"click_time":1551893175636,"finger_time":1551893174697,"fix_duration":1457.784757563701,"trial":59,"RT":583,"MT":939,"sideResp":1,"stimulus":"img/500/equaldotanddens/L/5_Ratio_500_L_4_R_2.png","xmouse":[757,757,757,757,757,757,757,757,757,757,757,757,757,757,757,757,757,757,757,757,757,757,757,757,757,757,757,757,751,726,671,628,521,469,422,379,349,336,343,352,357,360,360,361,369,389,421,508,550,583,611,617,627,636,647,660,665,665,655,642,628,603,597,595,595,594,586,582,581,581,581,577,574,569,553,525,497],"ymouse":[601,601,601,601,601,601,601,601,601,601,601,601,601,601,601,601,601,601,601,601,601,601,601,601,601,601,601,601,578,535,468,412,254,164,74,0,0,0,0,0,0,0,0,0,22,63,118,223,264,288,298,298,280,254,227,198,175,136,112,92,74,49,46,46,46,46,52,54,55,55,55,54,51,50,49,43,38],"timestamp_mouse":[4,23,43,63,84,102,122,144,164,182,204,224,242,264,283,302,324,342,362,384,403,422,443,462,483,504,523,542,563,583,603,623,642,662,683,703,722,742,762,782,803,823,843,862,883,902,924,942,962,983,1002,1023,1043,1062,1082,1103,1122,1142,1163,1183,1202,1223,1243,1262,1283,1303,1323,1342,1362,1383,1403,1422,1443,1462,1484,1503,1522],"xSR":741.5,"ySR":573.95,"xT1":424.9,"yT1":0,"xT2":1058.1,"yT2":0,"toosoon":0,"cond_shown":"equaldotanddens","ratio_trial":500,"smaller_num":"2","larger_num":"4","correct_side":1,"subjID":"sergioandrésguzmángarzón20","gender":"0","age":"11","school":"6"},{"start_time":1551893176850,"click_time":1551893177856,"finger_time":1551893177497,"fix_duration":250,"trial":60,"RT":647,"MT":359,"sideResp":2,"stimulus":"img/500/equaldotanddens/R/3_Ratio_500_L_10_R_20.png","xmouse":[767,767,767,767,767,767,767,767,767,767,767,767,767,767,767,767,767,767,767,767,767,767,767,767,767,767,767,767,767,767,767,767,767,808,869,1027,1101,1150,1174,1181,1182,1182,1182,1182,1182,1182,1182,1182,1182,1181,1146],"ymouse":[627,627,627,627,627,627,627,627,627,627,627,627,627,627,627,627,627,627,627,627,627,627,627,627,627,627,627,627,627,627,627,598,568,463,378,217,157,114,89,68,62,61,61,61,61,66,66,66,66,66,55],"timestamp_mouse":[10,27,46,66,88,107,126,146,166,187,206,226,247,266,287,306,326,347,366,387,408,426,447,468,487,507,527,547,568,588,606,626,647,666,687,707,726,746,767,787,806,826,847,867,886,908,927,947,966,986,1006],"xSR":741.5,"ySR":573.95,"xT1":424.9,"yT1":0,"xT2":1058.1,"yT2":0,"toosoon":0,"cond_shown":"equaldotanddens","ratio_trial":500,"smaller_num":"10","larger_num":"20","correct_side":2,"subjID":"sergioandrésguzmángarzón20","gender":"0","age":"11","school":"6"},{"start_time":1551893180943,"click_time":1551893181938,"finger_time":1551893181556,"fix_duration":664.9523468602681,"trial":61,"RT":613,"MT":382,"sideResp":2,"stimulus":"img/900/equaldotanddens/R/5_Ratio_900_L_9_R_10.png","xmouse":[789,789,789,789,789,789,789,789,789,789,789,789,789,789,789,789,789,789,789,789,789,789,789,789,789,789,788,787,783,776,770,769,769,772,780,806,824,843,863,895,925,938,952,970,995,1060,1092,1119,1137,1149],"ymouse":[632,632,632,632,632,632,632,632,632,632,632,632,632,632,632,632,632,632,632,632,632,632,632,632,632,632,624,621,608,581,540,521,501,487,473,445,432,418,404,375,339,319,299,280,253,197,167,139,114,79],"timestamp_mouse":[15,33,55,73,93,115,133,155,175,193,214,234,253,275,294,314,333,354,373,393,414,433,453,475,493,513,535,554,575,594,613,633,653,674,693,713,733,753,773,794,814,833,854,874,894,913,934,953,974,995],"xSR":741.5,"ySR":573.95,"xT1":424.9,"yT1":0,"xT2":1058.1,"yT2":0,"toosoon":0,"cond_shown":"equaldotanddens","ratio_trial":900,"smaller_num":"9","larger_num":"10","correct_side":2,"subjID":"sergioandrésguzmángarzón20","gender":"0","age":"11","school":"6"},{"start_time":1551893183529,"click_time":1551893184537,"finger_time":1551893184217,"fix_duration":552.3103686475007,"trial":62,"RT":688,"MT":320,"sideResp":2,"stimulus":"img/900/equaldotsize/L/8_Ratio_900_L_20_R_18.png","xmouse":[815,815,815,815,815,815,815,815,815,815,815,815,815,815,815,815,815,815,815,815,815,815,815,815,815,815,814,813,813,813,813,813,813,813,816,826,855,875,893,926,949,995,1014,1029,1040,1051,1053,1053,1054,1059,1062],"ymouse":[620,620,620,620,620,620,620,620,620,620,620,620,620,620,620,620,620,620,620,620,620,620,620,620,620,620,619,614,614,614,612,606,600,587,566,540,483,453,428,385,359,305,281,253,222,175,157,137,118,103,86],"timestamp_mouse":[13,29,47,68,88,107,128,147,167,189,207,228,247,268,289,308,328,347,369,388,407,428,447,469,487,507,527,548,568,588,608,628,647,668,688,707,727,747,768,789,807,828,847,869,889,908,927,948,967,987,1008],"xSR":741.5,"ySR":573.95,"xT1":424.9,"yT1":0,"xT2":1058.1,"yT2":0,"toosoon":0,"cond_shown":"equaldotsize","ratio_trial":900,"smaller_num":"18","larger_num":"20","correct_side":1,"subjID":"sergioandrésguzmángarzón20","gender":"0","age":"11","school":"6"},{"start_time":1551893187231,"click_time":1551893187997,"finger_time":1551893187656,"fix_duration":314.85566826139586,"trial":63,"RT":425,"MT":341,"sideResp":1,"stimulus":"img/900/equaldotanddens/R/6_Ratio_900_L_9_R_10.png","xmouse":[772,772,772,772,772,772,772,772,772,772,772,772,772,772,772,772,772,769,764,761,757,749,746,740,731,704,687,671,655,639,619,571,545,515,489,480,476,476,476],"ymouse":[636,636,636,636,636,636,636,636,636,636,636,636,636,636,636,636,636,629,620,610,596,553,525,494,459,354,294,240,185,131,75,0,0,0,0,0,0,0,6],"timestamp_mouse":[6,27,45,66,85,106,125,145,165,187,206,225,246,267,286,307,325,345,367,386,406,425,447,466,485,506,526,545,566,586,605,625,646,666,686,705,726,745,766],"xSR":741.5,"ySR":573.95,"xT1":424.9,"yT1":0,"xT2":1058.1,"yT2":0,"toosoon":0,"cond_shown":"equaldotanddens","ratio_trial":900,"smaller_num":"9","larger_num":"10","correct_side":2,"subjID":"sergioandrésguzmángarzón20","gender":"0","age":"11","school":"6"},{"start_time":1551893190531,"click_time":1551893191518,"finger_time":1551893191077,"fix_duration":1453.346038463391,"trial":64,"RT":546,"MT":441,"sideResp":1,"stimulus":"img/900/equaldotsize/L/1_Ratio_900_L_10_R_9.png","xmouse":[813,813,813,813,813,813,813,813,813,813,813,813,813,813,813,813,813,813,813,813,813,813,813,813,813,813,807,790,757,703,607,479,415,362,330,310,295,294,297,311,340,365,379,392,403,417,456,478,496,518],"ymouse":[608,608,608,608,608,608,608,608,608,608,608,608,608,608,608,608,608,608,608,608,608,608,608,608,608,608,591,570,539,501,446,372,334,296,262,225,159,128,103,80,52,34,25,15,8,0,0,0,0,9],"timestamp_mouse":[5,25,46,66,86,105,125,146,165,186,206,225,245,266,286,306,325,345,365,386,405,426,445,465,487,505,525,546,566,586,606,625,645,665,685,705,725,745,765,786,806,827,845,866,887,906,925,947,966,987],"xSR":741.5,"ySR":573.95,"xT1":424.9,"yT1":0,"xT2":1058.1,"yT2":0,"toosoon":0,"cond_shown":"equaldotsize","ratio_trial":900,"smaller_num":"9","larger_num":"10","correct_side":1,"subjID":"sergioandrésguzmángarzón20","gender":"0","age":"11","school":"6"},{"start_time":1551893192927,"click_time":1551893194118,"finger_time":1551893193497,"fix_duration":250,"trial":65,"RT":570,"MT":621,"sideResp":2,"stimulus":"img/900/equaldotanddens/R/12_Ratio_900_L_18_R_20.png","xmouse":[813,813,813,813,813,813,813,813,813,813,813,813,813,813,813,813,813,813,813,813,813,813,813,813,814,815,816,811,802,791,777,766,765,765,769,785,796,800,802,807,821,847,873,915,971,1027,1111,1131,1146,1149,1153,1158,1158,1158,1161,1165,1167,1166,1160,1152],"ymouse":[642,642,642,642,642,642,642,642,642,642,642,642,642,642,642,642,642,642,642,642,642,642,642,642,633,629,603,583,561,538,504,461,442,424,413,393,386,383,381,375,359,324,287,229,160,79,0,0,0,0,0,0,0,0,9,21,47,58,71,81],"timestamp_mouse":[11,31,50,69,89,110,129,149,169,191,209,229,249,269,290,310,330,349,370,391,410,429,450,470,489,510,529,551,570,589,610,631,649,670,690,710,729,749,769,790,810,831,849,869,889,911,929,950,969,989,1009,1030,1050,1070,1090,1110,1129,1150,1170,1191],"xSR":741.5,"ySR":573.95,"xT1":424.9,"yT1":0,"xT2":1058.1,"yT2":0,"toosoon":0,"cond_shown":"equaldotanddens","ratio_trial":900,"smaller_num":"18","larger_num":"20","correct_side":2,"subjID":"sergioandrésguzmángarzón20","gender":"0","age":"11","school":"6"},{"start_time":1551893195651,"click_time":1551893197518,"finger_time":1551893196337,"fix_duration":313.74888470637796,"trial":66,"RT":686,"MT":1181,"sideResp":2,"stimulus":"img/900/equaldotsize/R/5_Ratio_900_L_9_R_10.png","xmouse":[774,774,774,774,774,774,774,774,774,774,774,774,774,774,774,778,782,785,787,789,789,789,789,789,789,789,789,789,789,789,789,784,772,759,741,735,735,735,739,753,804,848,883,895,912,932,946,959,969,978,985,987,991,994,997,998,1000,1002,1006,1011,1013,1020,1028,1039,1052,1057,1057,1057,1057,1059,1061,1062,1063,1065,1067,1067,1067,1067,1067,1068,1069,1069,1069,1070,1070,1070,1070,1070,1070,1070,1070,1070,1070,1070],"ymouse":[669,669,669,669,669,669,669,669,669,669,669,669,669,669,669,670,670,672,672,673,673,673,673,673,673,673,673,673,673,673,670,660,643,629,610,601,597,589,579,562,504,473,446,423,379,319,292,269,250,234,210,196,184,176,171,166,164,162,161,161,161,161,161,161,161,161,161,161,161,160,158,153,149,143,137,136,136,136,135,131,128,126,125,124,124,122,121,121,121,121,116,111,103,87],"timestamp_mouse":[5,25,46,66,85,105,127,145,165,187,205,225,245,265,285,305,325,345,365,385,406,426,445,466,485,505,525,546,565,585,605,626,646,667,686,706,725,747,766,785,805,826,845,865,886,907,925,946,966,986,1005,1025,1045,1065,1085,1105,1126,1146,1165,1186,1205,1226,1246,1265,1285,1306,1325,1345,1365,1386,1405,1425,1445,1465,1486,1506,1526,1545,1566,1586,1605,1626,1645,1666,1685,1706,1726,1746,1766,1786,1805,1826,1846,1867],"xSR":741.5,"ySR":573.95,"xT1":424.9,"yT1":0,"xT2":1058.1,"yT2":0,"toosoon":0,"cond_shown":"equaldotsize","ratio_trial":900,"smaller_num":"9","larger_num":"10","correct_side":2,"subjID":"sergioandrésguzmángarzón20","gender":"0","age":"11","school":"6"},{"start_time":1551893199391,"click_time":1551893200176,"finger_time":1551893199957,"fix_duration":832.2266221477389,"trial":67,"RT":566,"MT":219,"sideResp":1,"stimulus":"img/250/equaldotsize/L/3_Ratio_250_L_8_R_2.png","xmouse":[820,820,820,820,820,820,820,820,820,820,820,820,820,820,820,820,820,820,820,820,820,820,820,820,820,815,803,785,734,694,647,593,540,453,430,419,410,410,416,425],"ymouse":[632,632,632,632,632,632,632,632,632,632,632,632,632,632,632,632,632,632,632,632,632,632,632,632,633,629,618,603,553,507,453,394,336,244,213,190,159,137,99,82],"timestamp_mouse":[5,26,47,66,86,106,126,146,166,186,207,225,246,267,286,305,327,346,366,385,407,426,446,466,487,505,526,546,566,585,606,626,646,665,686,705,725,746,766,785],"xSR":741.5,"ySR":573.95,"xT1":424.9,"yT1":0,"xT2":1058.1,"yT2":0,"toosoon":0,"cond_shown":"equaldotsize","ratio_trial":250,"smaller_num":"2","larger_num":"8","correct_side":1,"subjID":"sergioandrésguzmángarzón20","gender":"0","age":"11","school":"6"},{"start_time":1551893203356,"click_time":1551893204276,"finger_time":1551893203877,"fix_duration":738.5471949267339,"trial":68,"RT":521,"MT":399,"sideResp":1,"stimulus":"img/250/equaldotsize/L/2_Ratio_250_L_16_R_4.png","xmouse":[790,790,790,790,790,790,790,790,790,790,790,790,790,790,790,790,790,790,790,790,790,790,790,790,789,777,769,753,711,674,606,588,581,581,582,582,582,582,582,582,582,582,582,582,571,542,523],"ymouse":[654,654,654,654,654,654,654,654,654,654,654,654,654,654,654,654,654,654,654,654,654,654,652,644,629,596,566,524,428,352,215,158,129,110,104,104,104,104,104,104,104,104,104,97,85,50,29],"timestamp_mouse":[1,20,40,60,81,101,120,142,160,181,200,220,241,261,281,300,321,342,360,381,401,421,441,460,481,500,521,540,560,581,601,620,642,661,680,701,720,740,760,781,800,820,840,861,881,900,920],"xSR":741.5,"ySR":573.95,"xT1":424.9,"yT1":0,"xT2":1058.1,"yT2":0,"toosoon":0,"cond_shown":"equaldotsize","ratio_trial":250,"smaller_num":"4","larger_num":"16","correct_side":1,"subjID":"sergioandrésguzmángarzón20","gender":"0","age":"11","school":"6"},{"start_time":1551893206538,"click_time":1551893207756,"finger_time":1551893207198,"fix_duration":1239.6474648692656,"trial":69,"RT":660,"MT":558,"sideResp":2,"stimulus":"img/900/equaldotanddens/L/10_Ratio_900_L_20_R_18.png","xmouse":[773,773,773,773,773,773,