[{"start_time":1551899631556,"click_time":1551899633582,"finger_time":1551899633161,"fix_duration":1331.0296069433539,"trial":0,"RT":1605,"MT":421,"sideResp":2,"stimulus":[],"xmouse":[780,780,780,780,780,780,780,780,780,780,780,780,780,780,780,780,780,780,780,780,780,780,780,780,780,780,780,780,780,780,780,780,780,780,780,780,780,780,780,780,780,780,780,780,780,780,780,780,780,780,780,780,780,780,780,780,780,780,780,780,780,780,780,780,780,780,780,780,780,780,780,780,780,780,780,780,782,787,840,902,974,1049,1176,1228,1255,1265,1267,1255,1234,1210,1199,1193,1192,1190,1188,1186,1183,1175,1168,1162,1153],"ymouse":[523,523,523,523,523,523,523,523,523,523,523,523,523,523,523,523,523,523,523,523,523,523,523,523,523,523,523,523,523,523,523,523,523,523,523,523,523,523,523,523,523,523,523,523,523,523,523,523,523,523,523,523,523,523,523,523,523,523,523,523,523,523,523,523,523,523,523,523,523,523,523,523,523,523,523,523,523,523,499,448,385,306,146,75,37,20,16,14,11,9,7,5,5,5,4,4,7,13,15,16,17],"timestamp_mouse":[10,47,64,84,104,124,145,165,185,205,225,246,264,284,304,324,344,365,384,405,425,444,464,484,504,524,545,565,584,605,625,645,665,685,705,724,745,764,784,805,825,844,864,885,905,925,945,964,985,1004,1024,1044,1064,1084,1104,1124,1145,1165,1185,1205,1224,1245,1264,1284,1305,1324,1345,1364,1384,1405,1425,1445,1465,1484,1504,1524,1545,1564,1585,1605,1624,1645,1664,1684,1704,1724,1744,1764,1784,1804,1825,1844,1865,1884,1905,1924,1945,1965,1984,2004,2025],"xSR":741.5,"ySR":501.8,"xT1":424.9,"yT1":0,"xT2":1058.1,"yT2":0,"toosoon":0,"cond_shown":"Incongruent","ratio_trial":200,"L_num":7,"L_den":15,"R_num":6,"R_den":9,"correct_side":2,"subjID":"Sergiomalagon32","gender":"0","age":"11","school":"6","test":{"fix_dur":[250,1500],"timestim":1000,"targets_dim":[100,100],"targets_relative_coord":[0.3,0.7],"size_stim":[880,420],"start_dim":[100,100],"size_start":[300,300],"size_fix":60,"samplingrate":20,"img_types":["Congruent","Incongruent"],"ratios":[100,200,300],"rep_conds":19,"nTrials":120,"trials_to_rest":500,"Trials_order":[51,15,31,105,83,7,99,12,93,41,101,110,117,91,82,96,38,22,20,63,19,95,29,34,72,64,14,30,0,24,56,28,81,88,58,100,80,67,118,57,111,32,78,87,48,1,37,21,115,89,76,47,27,102,52,2,79,39,5,97,6,49,62,84,45,69,44,104,26,33,10,103,61,75,73,65,59,8,74,18,43,50,13,119,94,108,109,9,86,3,11,42,70,77,40,54,36,25,17,71,66,112,4,53,23,68,106,85,107,60,35,98,16,113,116,90,114,92,55,46],"cond_shown":["Incongruent","Incongruent","Incongruent","Incongruent","Incongruent","Incongruent","Incongruent","Congruent","Incongruent","Incongruent","Incongruent","Congruent","Incongruent","Incongruent","Congruent","Congruent","Congruent","Congruent","Congruent","Incongruent","Incongruent","Incongruent","Incongruent","Congruent","Congruent","Congruent","Congruent","Congruent","Congruent","Congruent","Congruent","Congruent","Incongruent","Congruent","Congruent","Congruent","Congruent","Incongruent","Congruent","Incongruent","Incongruent","Congruent","Congruent","Incongruent","Congruent","Incongruent","Incongruent","Incongruent","Incongruent","Incongruent","Congruent","Incongruent","Incongruent","Congruent","Congruent","Congruent","Incongruent","Incongruent","Incongruent","Incongruent","Congruent","Incongruent","Congruent","Congruent","Incongruent","Incongruent","Congruent","Congruent","Congruent","Incongruent","Congruent","Incongruent","Incongruent","Incongruent","Incongruent","Incongruent","Incongruent","Congruent","Congruent","Congruent","Incongruent","Congruent","Incongruent","Incongruent","Congruent","Congruent","Incongruent","Incongruent","Congruent","Incongruent","Incongruent","Congruent","Congruent","Incongruent","Congruent","Congruent","Congruent","Incongruent","Incongruent","Incongruent","Congruent","Congruent","Congruent","Incongruent","Incongruent","Congruent","Congruent","Incongruent","Incongruent","Congruent","Incongruent","Congruent","Congruent","Incongruent","Congruent","Congruent","Congruent","Congruent","Incongruent","Congruent"],"ratio_trial":[200,200,100,200,300,100,200,100,200,300,300,200,200,100,300,100,200,300,200,200,100,300,300,300,100,300,200,100,100,100,200,300,200,300,300,300,200,100,300,200,200,200,100,200,100,100,100,200,100,300,300,300,200,100,300,200,100,200,300,100,100,100,200,100,200,200,200,200,200,200,300,100,100,200,100,300,300,200,200,100,100,200,100,300,300,100,100,200,200,200,300,100,300,300,300,100,100,100,300,300,100,300,300,300,300,200,300,100,300,100,300,200,300,300,200,100,100,200,100,300],"left_num":[7,14,6,14,3,6,14,7,3,13,4,7,4,8,20,4,3,20,8,4,10,13,1,4,2,20,3,11,4,6,14,1,3,11,20,5,8,11,2,4,4,5,2,4,6,3,1,1,6,13,12,8,1,2,2,8,8,1,13,9,7,13,7,2,4,3,14,4,8,14,1,2,3,4,6,13,4,3,8,11,13,7,9,4,5,12,9,11,1,7,4,1,2,8,1,8,15,9,13,7,15,1,20,4,13,14,3,9,4,15,4,13,7,1,9,6,4,3,11,1],"right_num":[6,12,13,6,4,11,6,9,1,12,2,18,1,1,9,6,9,8,7,14,8,12,2,13,6,14,7,6,6,15,6,6,11,2,14,7,2,9,12,6,14,14,11,1,5,7,8,2,13,12,2,9,2,6,12,7,1,2,12,13,9,6,18,6,14,11,6,3,2,12,11,6,7,14,3,12,2,9,2,4,12,18,13,2,7,13,13,3,21,12,2,18,10,9,19,2,13,14,12,8,13,3,5,2,12,6,4,20,8,13,6,14,20,3,13,15,15,7,9,6],"left_den":[15,30,10,30,6,10,30,14,10,26,20,15,30,20,25,8,12,25,15,6,25,26,2,20,5,25,10,22,8,12,28,5,4,22,25,25,15,22,10,5,6,10,5,30,20,9,2,3,10,26,24,10,3,5,10,15,20,3,26,15,14,26,15,5,6,4,28,8,15,30,5,4,9,6,12,26,20,12,15,22,26,15,15,20,25,30,15,20,2,10,20,2,20,10,3,16,25,15,26,10,25,5,25,20,26,28,6,10,5,25,5,26,14,2,30,12,10,10,22,5],"right_den":[9,18,26,9,20,22,9,15,2,15,4,27,3,2,18,10,20,16,21,30,16,15,10,26,12,28,14,15,10,25,20,12,20,10,28,14,6,15,24,10,30,20,22,3,25,30,20,15,26,15,10,18,15,12,24,21,2,15,15,26,15,10,27,12,30,20,20,10,6,18,22,15,30,30,5,15,4,20,6,10,20,27,26,4,14,26,26,4,30,24,4,30,25,18,30,5,26,28,15,20,26,6,10,4,15,20,5,25,16,26,12,20,25,15,26,25,30,14,15,12],"correct_side":[2,2,1,2,1,1,2,2,2,2,2,2,2,2,1,2,2,1,1,1,2,2,1,2,2,1,2,1,2,2,1,2,1,1,1,2,1,2,2,1,1,2,2,2,1,1,1,1,1,2,1,1,1,2,2,1,2,1,2,1,2,2,2,2,1,1,1,1,1,2,2,1,1,1,2,2,2,2,1,1,2,2,1,2,2,2,1,2,2,1,2,2,2,1,2,1,1,1,2,1,1,2,1,2,2,1,2,1,1,1,1,2,2,1,2,2,2,2,2,2],"img_shown":["img2/200/Incongruent/R/I_Dist_200_LN_7_LD_15_RN_6_RD_9_1.png","img2/200/Incongruent/R/I_Dist_200_LN_14_LD_30_RN_12_RD_18_1.png","img2/100/Incongruent/L/I_Dist_100_LN_6_LD_10_RN_13_RD_26_0.png","img2/200/Incongruent/R/I_Dist_200_LN_14_LD_30_RN_6_RD_9_1.png","img2/300/Incongruent/L/I_Dist_300_LN_3_LD_6_RN_4_RD_20_0.png","img2/100/Incongruent/L/I_Dist_100_LN_6_LD_10_RN_11_RD_22_0.png","img2/200/Incongruent/R/I_Dist_200_LN_14_LD_30_RN_6_RD_9_1.png","img2/100/Congruent/R/C_Dist_100_LN_7_LD_14_RN_9_RD_15_1.png","img2/200/Incongruent/R/I_Dist_200_LN_3_LD_10_RN_1_RD_2_1.png","img2/300/Incongruent/R/I_Dist_300_LN_13_LD_26_RN_12_RD_15_1.png","img2/300/Incongruent/R/I_Dist_300_LN_4_LD_20_RN_2_RD_4_1.png","img2/200/Congruent/R/C_Dist_200_LN_7_LD_15_RN_18_RD_27_1.png","img2/200/Incongruent/R/I_Dist_200_LN_4_LD_30_RN_1_RD_3_1.png","img2/100/Incongruent/R/I_Dist_100_LN_8_LD_20_RN_1_RD_2_1.png","img2/300/Congruent/L/C_Dist_300_LN_20_LD_25_RN_9_RD_18_0.png","img2/100/Congruent/R/C_Dist_100_LN_4_LD_8_RN_6_RD_10_1.png","img2/200/Congruent/R/C_Dist_200_LN_3_LD_12_RN_9_RD_20_1.png","img2/300/Congruent/L/C_Dist_300_LN_20_LD_25_RN_8_RD_16_0.png","img2/200/Congruent/L/C_Dist_200_LN_8_LD_15_RN_7_RD_21_0.png","img2/200/Incongruent/L/I_Dist_200_LN_4_LD_6_RN_14_RD_30_0.png","img2/100/Incongruent/R/I_Dist_100_LN_10_LD_25_RN_8_RD_16_1.png","img2/300/Incongruent/R/I_Dist_300_LN_13_LD_26_RN_12_RD_15_1.png","img2/300/Incongruent/L/I_Dist_300_LN_1_LD_2_RN_2_RD_10_0.png","img2/300/Congruent/R/C_Dist_300_LN_4_LD_20_RN_13_RD_26_1.png","img2/100/Congruent/R/C_Dist_100_LN_2_LD_5_RN_6_RD_12_1.png","img2/300/Congruent/L/C_Dist_300_LN_20_LD_25_RN_14_RD_28_0.png","img2/200/Congruent/R/C_Dist_200_LN_3_LD_10_RN_7_RD_14_1.png","img2/100/Congruent/L/C_Dist_100_LN_11_LD_22_RN_6_RD_15_0.png","img2/100/Congruent/R/C_Dist_100_LN_4_LD_8_RN_6_RD_10_1.png","img2/100/Congruent/R/C_Dist_100_LN_6_LD_12_RN_15_RD_25_1.png","img2/200/Congruent/L/C_Dist_200_LN_14_LD_28_RN_6_RD_20_0.png","img2/300/Congruent/R/C_Dist_300_LN_1_LD_5_RN_6_RD_12_1.png","img2/200/Incongruent/L/I_Dist_200_LN_3_LD_4_RN_11_RD_20_0.png","img2/300/Congruent/L/C_Dist_300_LN_11_LD_22_RN_2_RD_10_0.png","img2/300/Congruent/L/C_Dist_300_LN_20_LD_25_RN_14_RD_28_0.png","img2/300/Congruent/R/C_Dist_300_LN_5_LD_25_RN_7_RD_14_1.png","img2/200/Congruent/L/C_Dist_200_LN_8_LD_15_RN_2_RD_6_0.png","img2/100/Incongruent/R/I_Dist_100_LN_11_LD_22_RN_9_RD_15_1.png","img2/300/Congruent/R/C_Dist_300_LN_2_LD_10_RN_12_RD_24_1.png","img2/200/Incongruent/L/I_Dist_200_LN_4_LD_5_RN_6_RD_10_0.png","img2/200/Incongruent/L/I_Dist_200_LN_4_LD_6_RN_14_RD_30_0.png","img2/200/Congruent/R/C_Dist_200_LN_5_LD_10_RN_14_RD_20_1.png","img2/100/Congruent/R/C_Dist_100_LN_2_LD_5_RN_11_RD_22_1.png","img2/200/Incongruent/R/I_Dist_200_LN_4_LD_30_RN_1_RD_3_1.png","img2/100/Congruent/L/C_Dist_100_LN_6_LD_20_RN_5_RD_25_0.png","img2/100/Incongruent/L/I_Dist_100_LN_3_LD_9_RN_7_RD_30_0.png","img2/100/Incongruent/L/I_Dist_100_LN_1_LD_2_RN_8_RD_20_0.png","img2/200/Incongruent/L/I_Dist_200_LN_1_LD_3_RN_2_RD_15_0.png","img2/100/Incongruent/L/I_Dist_100_LN_6_LD_10_RN_13_RD_26_0.png","img2/300/Incongruent/R/I_Dist_300_LN_13_LD_26_RN_12_RD_15_1.png","img2/300/Congruent/L/C_Dist_300_LN_12_LD_24_RN_2_RD_10_0.png","img2/300/Incongruent/L/I_Dist_300_LN_8_LD_10_RN_9_RD_18_0.png","img2/200/Incongruent/L/I_Dist_200_LN_1_LD_3_RN_2_RD_15_0.png","img2/100/Congruent/R/C_Dist_100_LN_2_LD_5_RN_6_RD_12_1.png","img2/300/Congruent/R/C_Dist_300_LN_2_LD_10_RN_12_RD_24_1.png","img2/200/Congruent/L/C_Dist_200_LN_8_LD_15_RN_7_RD_21_0.png","img2/100/Incongruent/R/I_Dist_100_LN_8_LD_20_RN_1_RD_2_1.png","img2/200/Incongruent/L/I_Dist_200_LN_1_LD_3_RN_2_RD_15_0.png","img2/300/Incongruent/R/I_Dist_300_LN_13_LD_26_RN_12_RD_15_1.png","img2/100/Incongruent/L/I_Dist_100_LN_9_LD_15_RN_13_RD_26_0.png","img2/100/Congruent/R/C_Dist_100_LN_7_LD_14_RN_9_RD_15_1.png","img2/100/Incongruent/R/I_Dist_100_LN_13_LD_26_RN_6_RD_10_1.png","img2/200/Congruent/R/C_Dist_200_LN_7_LD_15_RN_18_RD_27_1.png","img2/100/Congruent/R/C_Dist_100_LN_2_LD_5_RN_6_RD_12_1.png","img2/200/Incongruent/L/I_Dist_200_LN_4_LD_6_RN_14_RD_30_0.png","img2/200/Incongruent/L/I_Dist_200_LN_3_LD_4_RN_11_RD_20_0.png","img2/200/Congruent/L/C_Dist_200_LN_14_LD_28_RN_6_RD_20_0.png","img2/200/Congruent/L/C_Dist_200_LN_4_LD_8_RN_3_RD_10_0.png","img2/200/Congruent/L/C_Dist_200_LN_8_LD_15_RN_2_RD_6_0.png","img2/200/Incongruent/R/I_Dist_200_LN_14_LD_30_RN_12_RD_18_1.png","img2/300/Congruent/R/C_Dist_300_LN_1_LD_5_RN_11_RD_22_1.png","img2/100/Incongruent/L/I_Dist_100_LN_2_LD_4_RN_6_RD_15_0.png","img2/100/Incongruent/L/I_Dist_100_LN_3_LD_9_RN_7_RD_30_0.png","img2/200/Incongruent/L/I_Dist_200_LN_4_LD_6_RN_14_RD_30_0.png","img2/100/Incongruent/R/I_Dist_100_LN_6_LD_12_RN_3_RD_5_1.png","img2/300/Incongruent/R/I_Dist_300_LN_13_LD_26_RN_12_RD_15_1.png","img2/300/Incongruent/R/I_Dist_300_LN_4_LD_20_RN_2_RD_4_1.png","img2/200/Congruent/R/C_Dist_200_LN_3_LD_12_RN_9_RD_20_1.png","img2/200/Congruent/L/C_Dist_200_LN_8_LD_15_RN_2_RD_6_0.png","img2/100/Congruent/L/C_Dist_100_LN_11_LD_22_RN_4_RD_10_0.png","img2/100/Incongruent/R/I_Dist_100_LN_13_LD_26_RN_12_RD_20_1.png","img2/200/Congruent/R/C_Dist_200_LN_7_LD_15_RN_18_RD_27_1.png","img2/100/Incongruent/L/I_Dist_100_LN_9_LD_15_RN_13_RD_26_0.png","img2/300/Incongruent/R/I_Dist_300_LN_4_LD_20_RN_2_RD_4_1.png","img2/300/Congruent/R/C_Dist_300_LN_5_LD_25_RN_7_RD_14_1.png","img2/100/Congruent/R/C_Dist_100_LN_12_LD_30_RN_13_RD_26_1.png","img2/100/Incongruent/L/I_Dist_100_LN_9_LD_15_RN_13_RD_26_0.png","img2/200/Incongruent/R/I_Dist_200_LN_11_LD_20_RN_3_RD_4_1.png","img2/200/Congruent/R/C_Dist_200_LN_1_LD_2_RN_21_RD_30_1.png","img2/200/Incongruent/L/I_Dist_200_LN_7_LD_10_RN_12_RD_24_0.png","img2/300/Incongruent/R/I_Dist_300_LN_4_LD_20_RN_2_RD_4_1.png","img2/100/Congruent/R/C_Dist_100_LN_1_LD_2_RN_18_RD_30_1.png","img2/300/Congruent/R/C_Dist_300_LN_2_LD_20_RN_10_RD_25_1.png","img2/300/Incongruent/L/I_Dist_300_LN_8_LD_10_RN_9_RD_18_0.png","img2/300/Congruent/R/C_Dist_300_LN_1_LD_3_RN_19_RD_30_1.png","img2/100/Congruent/L/C_Dist_100_LN_8_LD_16_RN_2_RD_5_0.png","img2/100/Congruent/L/C_Dist_100_LN_15_LD_25_RN_13_RD_26_0.png","img2/100/Incongruent/L/I_Dist_100_LN_9_LD_15_RN_14_RD_28_0.png","img2/300/Incongruent/R/I_Dist_300_LN_13_LD_26_RN_12_RD_15_1.png","img2/300/Incongruent/L/I_Dist_300_LN_7_LD_10_RN_8_RD_20_0.png","img2/100/Congruent/L/C_Dist_100_LN_15_LD_25_RN_13_RD_26_0.png","img2/300/Congruent/R/C_Dist_300_LN_1_LD_5_RN_3_RD_6_1.png","img2/300/Congruent/L/C_Dist_300_LN_20_LD_25_RN_5_RD_10_0.png","img2/300/Incongruent/R/I_Dist_300_LN_4_LD_20_RN_2_RD_4_1.png","img2/300/Incongruent/R/I_Dist_300_LN_13_LD_26_RN_12_RD_15_1.png","img2/200/Congruent/L/C_Dist_200_LN_14_LD_28_RN_6_RD_20_0.png","img2/300/Congruent/R/C_Dist_300_LN_3_LD_6_RN_4_RD_5_1.png","img2/100/Incongruent/L/I_Dist_100_LN_9_LD_10_RN_20_RD_25_0.png","img2/300/Incongruent/L/I_Dist_300_LN_4_LD_5_RN_8_RD_16_0.png","img2/100/Congruent/L/C_Dist_100_LN_15_LD_25_RN_13_RD_26_0.png","img2/300/Incongruent/L/I_Dist_300_LN_4_LD_5_RN_6_RD_12_0.png","img2/200/Congruent/R/C_Dist_200_LN_13_LD_26_RN_14_RD_20_1.png","img2/300/Congruent/R/C_Dist_300_LN_7_LD_14_RN_20_RD_25_1.png","img2/300/Incongruent/L/I_Dist_300_LN_1_LD_2_RN_3_RD_15_0.png","img2/200/Congruent/R/C_Dist_200_LN_9_LD_30_RN_13_RD_26_1.png","img2/100/Congruent/R/C_Dist_100_LN_6_LD_12_RN_15_RD_25_1.png","img2/100/Congruent/R/C_Dist_100_LN_4_LD_10_RN_15_RD_30_1.png","img2/200/Congruent/R/C_Dist_200_LN_3_LD_10_RN_7_RD_14_1.png","img2/100/Incongruent/R/I_Dist_100_LN_11_LD_22_RN_9_RD_15_1.png","img2/300/Congruent/R/C_Dist_300_LN_1_LD_5_RN_6_RD_12_1.png"],"dist100_C":[["C_Dist_100_LN_10_LD_25_RN_3_RD_10_0.png","C_Dist_100_LN_11_LD_22_RN_4_RD_10_0.png","C_Dist_100_LN_11_LD_22_RN_6_RD_15_0.png","C_Dist_100_LN_15_LD_25_RN_13_RD_26_0.png","C_Dist_100_LN_3_LD_6_RN_2_RD_5_0.png","C_Dist_100_LN_6_LD_20_RN_5_RD_25_0.png","C_Dist_100_LN_8_LD_16_RN_2_RD_5_0.png","C_Dist_100_LN_9_LD_15_RN_8_RD_16_0.png"],["C_Dist_100_LN_1_LD_2_RN_18_RD_30_1.png","C_Dist_100_LN_1_LD_2_RN_3_RD_5_1.png","C_Dist_100_LN_12_LD_30_RN_13_RD_26_1.png","C_Dist_100_LN_2_LD_5_RN_11_RD_22_1.png","C_Dist_100_LN_2_LD_5_RN_6_RD_12_1.png","C_Dist_100_LN_3_LD_20_RN_4_RD_16_1.png","C_Dist_100_LN_4_LD_10_RN_15_RD_30_1.png","C_Dist_100_LN_4_LD_8_RN_6_RD_10_1.png","C_Dist_100_LN_6_LD_12_RN_15_RD_25_1.png","C_Dist_100_LN_7_LD_14_RN_15_RD_25_1.png","C_Dist_100_LN_7_LD_14_RN_9_RD_15_1.png"]],"dist100_I":[["I_Dist_100_LN_1_LD_2_RN_8_RD_20_0.png","I_Dist_100_LN_2_LD_4_RN_6_RD_15_0.png","I_Dist_100_LN_2_LD_4_RN_8_RD_20_0.png","I_Dist_100_LN_3_LD_5_RN_11_RD_22_0.png","I_Dist_100_LN_3_LD_5_RN_8_RD_16_0.png","I_Dist_100_LN_3_LD_6_RN_4_RD_10_0.png","I_Dist_100_LN_3_LD_9_RN_7_RD_30_0.png","I_Dist_100_LN_4_LD_8_RN_8_RD_20_0.png","I_Dist_100_LN_6_LD_10_RN_11_RD_22_0.png","I_Dist_100_LN_6_LD_10_RN_13_RD_26_0.png","I_Dist_100_LN_6_LD_10_RN_7_RD_14_0.png","I_Dist_100_LN_9_LD_10_RN_20_RD_25_0.png","I_Dist_100_LN_9_LD_15_RN_13_RD_26_0.png","I_Dist_100_LN_9_LD_15_RN_14_RD_28_0.png"],["I_Dist_100_LN_10_LD_25_RN_8_RD_16_1.png","I_Dist_100_LN_10_LD_25_RN_9_RD_18_1.png","I_Dist_100_LN_11_LD_22_RN_9_RD_15_1.png","I_Dist_100_LN_12_LD_24_RN_9_RD_15_1.png","I_Dist_100_LN_12_LD_30_RN_2_RD_4_1.png","I_Dist_100_LN_13_LD_26_RN_12_RD_20_1.png","I_Dist_100_LN_13_LD_26_RN_6_RD_10_1.png","I_Dist_100_LN_17_LD_30_RN_10_RD_15_1.png","I_Dist_100_LN_6_LD_12_RN_3_RD_5_1.png","I_Dist_100_LN_8_LD_16_RN_6_RD_10_1.png","I_Dist_100_LN_8_LD_20_RN_1_RD_2_1.png","I_Dist_100_LN_9_LD_18_RN_6_RD_10_1.png"]],"dist100_S":[["E_Dist_100_LN_2_LD_12_RN_2_RD_30_0.png","E_Dist_100_LN_6_LD_10_RN_6_RD_12_0.png"],["E_Dist_100_LN_6_LD_12_RN_6_RD_10_1.png"]],"dist200_C":[["C_Dist_200_LN_11_LD_22_RN_3_RD_10_0.png","C_Dist_200_LN_12_LD_15_RN_6_RD_10_0.png","C_Dist_200_LN_12_LD_20_RN_6_RD_15_0.png","C_Dist_200_LN_14_LD_28_RN_6_RD_20_0.png","C_Dist_200_LN_15_LD_25_RN_4_RD_10_0.png","C_Dist_200_LN_16_LD_20_RN_12_RD_20_0.png","C_Dist_200_LN_16_LD_30_RN_9_RD_27_0.png","C_Dist_200_LN_20_LD_25_RN_9_RD_15_0.png","C_Dist_200_LN_21_LD_30_RN_2_RD_4_0.png","C_Dist_200_LN_4_LD_10_RN_3_RD_15_0.png","C_Dist_200_LN_4_LD_8_RN_3_RD_10_0.png","C_Dist_200_LN_6_LD_15_RN_3_RD_15_0.png","C_Dist_200_LN_7_LD_21_RN_2_RD_15_0.png","C_Dist_200_LN_8_LD_15_RN_2_RD_6_0.png","C_Dist_200_LN_8_LD_15_RN_3_RD_9_0.png","C_Dist_200_LN_8_LD_15_RN_7_RD_21_0.png","C_Dist_200_LN_9_LD_20_RN_4_RD_16_0.png"],["C_Dist_200_LN_1_LD_2_RN_21_RD_30_1.png","C_Dist_200_LN_13_LD_26_RN_14_RD_20_1.png","C_Dist_200_LN_3_LD_10_RN_11_RD_22_1.png","C_Dist_200_LN_3_LD_10_RN_14_RD_28_1.png","C_Dist_200_LN_3_LD_10_RN_7_RD_14_1.png","C_Dist_200_LN_3_LD_12_RN_9_RD_20_1.png","C_Dist_200_LN_3_LD_6_RN_14_RD_20_1.png","C_Dist_200_LN_5_LD_10_RN_14_RD_20_1.png","C_Dist_200_LN_6_LD_12_RN_7_RD_10_1.png","C_Dist_200_LN_6_LD_20_RN_11_RD_22_1.png","C_Dist_200_LN_7_LD_15_RN_18_RD_27_1.png","C_Dist_200_LN_9_LD_30_RN_13_RD_26_1.png"]],"dist200_I":[["I_Dist_200_LN_1_LD_2_RN_3_RD_10_0.png","I_Dist_200_LN_1_LD_3_RN_2_RD_15_0.png","I_Dist_200_LN_3_LD_4_RN_11_RD_20_0.png","I_Dist_200_LN_4_LD_5_RN_6_RD_10_0.png","I_Dist_200_LN_4_LD_6_RN_14_RD_30_0.png","I_Dist_200_LN_7_LD_10_RN_12_RD_24_0.png","I_Dist_200_LN_7_LD_10_RN_14_RD_28_0.png","I_Dist_200_LN_7_LD_10_RN_8_RD_16_0.png"],["I_Dist_200_LN_11_LD_20_RN_3_RD_4_1.png","I_Dist_200_LN_14_LD_30_RN_12_RD_18_1.png","I_Dist_200_LN_14_LD_30_RN_6_RD_9_1.png","I_Dist_200_LN_3_LD_10_RN_1_RD_2_1.png","I_Dist_200_LN_4_LD_30_RN_1_RD_3_1.png","I_Dist_200_LN_6_LD_20_RN_3_RD_6_1.png","I_Dist_200_LN_7_LD_15_RN_4_RD_6_1.png","I_Dist_200_LN_7_LD_15_RN_6_RD_9_1.png","I_Dist_200_LN_9_LD_15_RN_8_RD_10_1.png"]],"dist200_S":[["E_Dist_200_LN_3_LD_6_RN_3_RD_10_0.png"],["E_Dist_200_LN_3_LD_10_RN_3_RD_6_1.png"]],"dist300_C":[["C_Dist_300_LN_11_LD_22_RN_1_RD_5_0.png","C_Dist_300_LN_11_LD_22_RN_2_RD_10_0.png","C_Dist_300_LN_11_LD_22_RN_4_RD_20_0.png","C_Dist_300_LN_12_LD_24_RN_2_RD_10_0.png","C_Dist_300_LN_18_LD_20_RN_9_RD_15_0.png","C_Dist_300_LN_20_LD_25_RN_13_RD_26_0.png","C_Dist_300_LN_20_LD_25_RN_14_RD_28_0.png","C_Dist_300_LN_20_LD_25_RN_5_RD_10_0.png","C_Dist_300_LN_20_LD_25_RN_8_RD_16_0.png","C_Dist_300_LN_20_LD_25_RN_9_RD_18_0.png","C_Dist_300_LN_24_LD_30_RN_2_RD_4_0.png","C_Dist_300_LN_24_LD_30_RN_8_RD_16_0.png","C_Dist_300_LN_3_LD_6_RN_2_RD_10_0.png","C_Dist_300_LN_4_LD_10_RN_1_RD_10_0.png","C_Dist_300_LN_4_LD_5_RN_2_RD_4_0.png","C_Dist_300_LN_8_LD_16_RN_1_RD_5_0.png","C_Dist_300_LN_9_LD_10_RN_3_RD_5_0.png"],["C_Dist_300_LN_1_LD_20_RN_7_RD_20_1.png","C_Dist_300_LN_1_LD_3_RN_19_RD_30_1.png","C_Dist_300_LN_1_LD_30_RN_8_RD_24_1.png","C_Dist_300_LN_1_LD_5_RN_11_RD_22_1.png","C_Dist_300_LN_1_LD_5_RN_3_RD_6_1.png","C_Dist_300_LN_1_LD_5_RN_6_RD_12_1.png","C_Dist_300_LN_2_LD_10_RN_12_RD_24_1.png","C_Dist_300_LN_2_LD_20_RN_10_RD_25_1.png","C_Dist_300_LN_3_LD_12_RN_11_RD_20_1.png","C_Dist_300_LN_3_LD_6_RN_4_RD_5_1.png","C_Dist_300_LN_4_LD_20_RN_13_RD_26_1.png","C_Dist_300_LN_5_LD_25_RN_6_RD_12_1.png","C_Dist_300_LN_5_LD_25_RN_7_RD_14_1.png","C_Dist_300_LN_7_LD_14_RN_20_RD_25_1.png","C_Dist_300_LN_8_LD_15_RN_10_RD_12_1.png"]],"dist300_I":[["I_Dist_300_LN_1_LD_2_RN_2_RD_10_0.png","I_Dist_300_LN_1_LD_2_RN_3_RD_15_0.png","I_Dist_300_LN_2_LD_4_RN_6_RD_30_0.png","I_Dist_300_LN_3_LD_6_RN_4_RD_20_0.png","I_Dist_300_LN_4_LD_5_RN_6_RD_12_0.png","I_Dist_300_LN_4_LD_5_RN_8_RD_16_0.png","I_Dist_300_LN_7_LD_10_RN_8_RD_20_0.png","I_Dist_300_LN_8_LD_10_RN_14_RD_28_0.png","I_Dist_300_LN_8_LD_10_RN_9_RD_18_0.png"],["I_Dist_300_LN_13_LD_26_RN_12_RD_15_1.png","I_Dist_300_LN_4_LD_20_RN_2_RD_4_1.png"]],"dist300_S":[["E_Dist_300_LN_9_LD_12_RN_9_RD_20_0.png"],["E_Dist_300_LN_18_LD_30_RN_18_RD_20_1.png","E_Dist_300_LN_3_LD_10_RN_3_RD_5_1.png","E_Dist_300_LN_9_LD_20_RN_9_RD_12_1.png"]],"dist500_C":[["C_Dist_500_LN_10_LD_13_RN_7_RD_26_0.png","C_Dist_500_LN_10_LD_15_RN_4_RD_24_0.png","C_Dist_500_LN_12_LD_16_RN_3_RD_12_0.png","C_Dist_500_LN_12_LD_18_RN_4_RD_24_0.png","C_Dist_500_LN_15_LD_18_RN_5_RD_15_0.png","C_Dist_500_LN_15_LD_20_RN_1_RD_4_0.png","C_Dist_500_LN_18_LD_27_RN_1_RD_6_0.png","C_Dist_500_LN_20_LD_24_RN_1_RD_3_0.png","C_Dist_500_LN_20_LD_24_RN_3_RD_9_0.png","C_Dist_500_LN_20_LD_24_RN_7_RD_21_0.png","C_Dist_500_LN_20_LD_28_RN_3_RD_14_0.png","C_Dist_500_LN_21_LD_28_RN_6_RD_24_0.png","C_Dist_500_LN_22_LD_28_RN_2_RD_7_0.png","C_Dist_500_LN_25_LD_30_RN_9_RD_27_0.png","C_Dist_500_LN_4_LD_6_RN_1_RD_6_0.png","C_Dist_500_LN_5_LD_6_RN_2_RD_6_0.png","C_Dist_500_LN_6_LD_9_RN_1_RD_6_0.png","C_Dist_500_LN_7_LD_10_RN_1_RD_5_0.png","C_Dist_500_LN_8_LD_12_RN_1_RD_6_0.png","C_Dist_500_LN_8_LD_12_RN_4_RD_24_0.png"],["C_Dist_500_LN_1_LD_4_RN_12_RD_16_1.png","C_Dist_500_LN_1_LD_4_RN_9_RD_12_1.png","C_Dist_500_LN_1_LD_9_RN_11_RD_18_1.png","C_Dist_500_LN_10_LD_24_RN_22_RD_24_1.png","C_Dist_500_LN_2_LD_12_RN_10_RD_15_1.png","C_Dist_500_LN_2_LD_12_RN_12_RD_18_1.png","C_Dist_500_LN_2_LD_12_RN_4_RD_6_1.png","C_Dist_500_LN_2_LD_24_RN_7_RD_12_1.png","C_Dist_500_LN_2_LD_5_RN_18_RD_20_1.png","C_Dist_500_LN_2_LD_5_RN_9_RD_10_1.png","C_Dist_500_LN_2_LD_8_RN_12_RD_16_1.png","C_Dist_500_LN_2_LD_8_RN_21_RD_28_1.png","C_Dist_500_LN_3_LD_10_RN_4_RD_5_1.png","C_Dist_500_LN_3_LD_12_RN_15_RD_20_1.png","C_Dist_500_LN_3_LD_30_RN_6_RD_10_1.png","C_Dist_500_LN_3_LD_8_RN_14_RD_16_1.png","C_Dist_500_LN_4_LD_16_RN_15_RD_20_1.png","C_Dist_500_LN_4_LD_24_RN_12_RD_18_1.png","C_Dist_500_LN_5_LD_14_RN_6_RD_7_1.png","C_Dist_500_LN_7_LD_21_RN_20_RD_24_1.png","C_Dist_500_LN_7_LD_28_RN_12_RD_16_1.png","C_Dist_500_LN_7_LD_28_RN_9_RD_12_1.png","C_Dist_500_LN_9_LD_27_RN_20_RD_24_1.png"]],"dist500_I":[["I_Dist_500_LN_2_LD_3_RN_4_RD_24_0.png","I_Dist_500_LN_5_LD_6_RN_6_RD_18_0.png","I_Dist_500_LN_7_LD_8_RN_9_RD_24_0.png"],["I_Dist_500_LN_7_LD_21_RN_5_RD_6_1.png"]],"dist500_S":[["E_Dist_500_LN_6_LD_8_RN_6_RD_24_0.png"],["E_Dist_500_LN_2_LD_12_RN_2_RD_3_1.png","E_Dist_500_LN_6_LD_24_RN_6_RD_8_1.png"]]}},{"start_time":1551899636276,"click_time":1551899638440,"finger_time":1551899637741,"fix_duration":1353.9650902362328,"trial":1,"RT":1465,"MT":699,"sideResp":2,"stimulus":[],"xmouse":[794,794,794,794,794,794,794,794,794,794,794,794,794,794,794,794,794,794,794,794,794,794,794,794,795,796,797,798,798,798,798,798,798,798,798,798,798,798,798,798,798,798,798,798,798,798,798,798,798,798,798,798,798,798,798,798,798,798,798,798,798,798,798,798,798,798,798,798,798,798,800,817,832,846,850,858,868,884,985,1017,1039,1052,1056,1057,1057,1057,1057,1057,1058,1058,1060,1061,1066,1076,1081,1085,1088,1089,1091,1091,1091,1091,1091,1091,1091,1091,1091,1091,1090],"ymouse":[520,520,520,520,520,520,520,520,520,520,520,520,520,520,520,520,520,520,520,520,520,520,520,520,520,520,520,520,520,520,520,520,520,520,520,520,520,520,520,520,520,520,520,520,520,520,520,520,520,520,520,520,520,520,520,520,520,520,520,520,520,520,520,520,520,520,520,520,520,520,520,513,508,506,504,501,494,483,338,268,221,196,187,185,184,184,182,180,177,176,175,173,169,155,144,133,124,119,111,111,111,111,111,111,110,109,108,105,97],"timestamp_mouse":[10,25,62,65,85,105,125,145,165,184,205,225,245,266,284,305,324,345,365,385,405,425,444,465,484,505,525,544,565,585,605,625,644,664,685,704,724,744,764,784,805,825,844,865,884,905,924,944,965,984,1004,1025,1045,1065,1085,1105,1125,1145,1165,1184,1205,1224,1244,1265,1285,1304,1325,1344,1365,1385,1405,1425,1444,1465,1486,1504,1525,1545,1564,1584,1604,1624,1645,1664,1685,1704,1724,1745,1764,1785,1804,1824,1845,1864,1884,1905,1924,1945,1965,1984,2005,2024,2045,2064,2084,2104,2125,2144,2164],"xSR":741.5,"ySR":469.95,"xT1":424.9,"yT1":0,"xT2":1058.1,"yT2":0,"toosoon":0,"cond_shown":"Incongruent","ratio_trial":200,"L_num":14,"L_den":30,"R_num":12,"R_den":18,"correct_side":2,"subjID":"Sergiomalagon32","gender":"0","school":"6","age":"11"},{"start_time":1551899640350,"click_time":1551899642180,"finger_time":1551899641781,"fix_duration":346.641226955789,"trial":2,"RT":1431,"MT":399,"sideResp":1,"stimulus":[],"xmouse":[785,785,785,785,785,785,785,785,785,785,785,785,785,785,785,785,785,785,785,785,785,785,785,785,785,785,785,785,785,785,785,785,785,785,785,785,785,785,785,785,785,785,785,785,785,785,785,785,785,785,785,785,785,785,785,785,785,785,785,785,785,785,785,785,785,785,785,781,774,764,745,741,723,711,649,627,604,584,565,550,550,550,550,550,550,550,550,550,550,550,550,504],"ymouse":[513,513,513,513,513,513,513,513,513,513,513,513,513,513,513,513,513,513,513,513,513,513,513,513,513,513,513,513,513,513,513,513,513,513,513,513,513,513,513,513,513,513,513,513,513,513,513,513,513,513,513,513,513,513,513,513,513,513,513,513,513,513,513,513,513,513,513,514,508,499,480,474,447,425,303,254,190,127,62,3,3,3,3,3,3,3,3,3,3,3,3,5],"timestamp_mouse":[13,30,50,72,90,110,130,151,171,190,211,230,251,271,290,310,331,350,370,392,410,430,450,471,490,510,530,550,570,590,611,631,651,670,690,710,731,750,771,790,811,832,851,871,891,910,930,950,970,991,1011,1031,1051,1071,1090,1110,1131,1151,1171,1190,1210,1231,1251,1270,1290,1310,1330,1351,1371,1390,1411,1431,1451,1471,1491,1509,1530,1550,1572,1591,1610,1631,1651,1671,1691,1710,1730,1751,1771,1790,1810,1830],"xSR":741.5,"ySR":469.95,"xT1":424.9,"yT1":0,"xT2":1058.1,"yT2":0,"toosoon":0,"cond_shown":"Incongruent","ratio_trial":100,"L_num":6,"L_den":10,"R_num":13,"R_den":26,"correct_side":1,"subjID":"Sergiomalagon32","gender":"0","school":"6","age":"11"},{"start_time":1551899645196,"click_time":1551899647161,"finger_time":1551899645261,"fix_duration":414.5591149447416,"trial":3,"RT":65,"MT":1900,"sideResp":2,"stimulus":[],"xmouse":[780,777,771,756,755,754,754,754,754,754,754,754,754,754,754,754,754,754,754,755,756,762,767,776,777,777,777,777,777,777,777,777,777,777,777,777,777,777,777,789,806,817,824,833,841,855,870,886,907,908,908,908,908,908,908,908,908,908,908,908,908,908,908,908,908,908,909,913,923,951,970,993,1017,1049,1057,1061,1064,1064,1064,1064,1061,1060,1060,1059,1059,1060,1062,1066,1075,1078,1078,1079,1079,1079,1079,1079,1079,1080,1089],"ymouse":[541,542,551,583,588,588,588,588,588,588,588,588,588,588,588,588,588,588,589,587,580,566,552,538,537,537,537,537,537,537,537,537,537,537,537,537,537,537,537,537,537,537,537,537,535,531,525,516,499,499,498,498,498,498,498,498,498,498,498,498,498,498,498,498,498,498,498,496,484,449,421,379,329,244,219,201,191,185,169,151,137,134,134,134,134,134,134,134,132,132,131,130,130,130,130,128,126,115,91],"timestamp_mouse":[9,26,47,65,85,105,125,144,165,184,204,224,246,264,284,304,324,346,364,384,404,425,445,464,485,505,525,544,564,585,605,624,645,665,685,705,725,744,765,785,804,825,844,864,885,905,924,945,964,984,1006,1025,1044,1064,1084,1105,1124,1144,1165,1185,1205,1224,1246,1264,1284,1304,1325,1346,1364,1384,1405,1425,1444,1464,1484,1505,1525,1544,1564,1585,1604,1625,1646,1664,1684,1704,1724,1744,1764,1785,1804,1825,1845,1864,1885,1904,1924,1944,1964],"xSR":741.5,"ySR":469.95,"xT1":424.9,"yT1":0,"xT2":1058.1,"yT2":0,"toosoon":0,"cond_shown":"Incongruent","ratio_trial":200,"L_num":14,"L_den":30,"R_num":6,"R_den":9,"correct_side":2,"subjID":"Sergiomalagon32","gender":"0","school":"6","age":"11"},{"start_time":1551899648580,"click_time":1551899650960,"finger_time":1551899650541,"fix_duration":278.72913876106895,"trial":4,"RT":1961,"MT":419,"sideResp":1,"stimulus":[],"xmouse":[794,790,784,781,781,781,781,780,780,784,792,798,800,800,800,800,800,800,800,800,800,800,800,800,800,800,800,800,800,800,800,795,792,791,791,791,791,791,791,791,791,791,791,791,791,791,791,791,791,791,791,791,791,791,791,791,791,791,791,791,791,791,791,791,791,791,791,791,791,791,791,791,791,791,791,791,791,791,791,791,791,791,791,791,791,791,791,791,791,791,791,791,791,791,791,791,791,784,771,707,673,645,627,613,589,576,568,567,567,567,567,566,557,543,536,536,535,533,528,523],"ymouse":[519,519,519,518,518,518,518,518,518,518,518,518,518,518,518,518,518,518,518,518,518,518,518,518,518,518,518,518,518,518,518,518,518,518,518,518,518,518,518,518,518,518,518,518,518,518,518,518,518,518,518,518,518,518,518,518,518,518,518,518,518,518,518,518,518,518,518,518,518,518,518,518,518,518,518,518,518,518,518,518,518,518,518,518,518,518,518,518,518,518,518,518,518,518,518,518,511,490,464,373,327,281,238,208,150,122,103,96,95,95,95,95,94,92,91,91,91,91,90,89],"timestamp_mouse":[1,22,40,60,80,100,120,141,161,180,201,220,241,260,280,300,321,341,360,380,401,420,441,460,480,501,521,541,561,581,600,620,641,660,681,701,720,740,761,780,800,821,840,860,880,900,920,940,961,980,999,1020,1040,1060,1080,1101,1120,1141,1161,1180,1200,1220,1240,1260,1280,1300,1321,1341,1361,1380,1401,1420,1441,1460,1480,1501,1521,1540,1561,1580,1600,1621,1641,1660,1681,1701,1721,1741,1761,1781,1801,1821,1840,1861,1880,1901,1921,1941,1961,1981,2000,2021,2041,2060,2081,2100,2120,2141,2161,2181,2200,2220,2241,2261,2281,2300,2320,2341,2361,2380],"xSR":741.5,"ySR":469.95,"xT1":424.9,"yT1":0,"xT2":1058.1,"yT2":0,"toosoon":0,"cond_shown":"Incongruent","ratio_trial":300,"L_num":3,"L_den":6,"R_num":4,"R_den":20,"correct_side":1,"subjID":"Sergiomalagon32","gender":"0","school":"6","age":"11"},{"start_time":1551899653425,"click_time":1551899656400,"finger_time":1551899655861,"fix_duration":1142.696618798969,"trial":5,"RT":2436,"MT":539,"sideResp":2,"stimulus":[],"xmouse":[797,797,797,797,797,797,797,797,797,797,797,797,797,797,797,797,797,797,797,797,797,797,797,797,797,797,797,797,797,797,797,797,797,797,797,797,797,797,797,797,797,797,797,797,797,797,797,797,797,797,797,797,797,797,797,797,797,797,797,797,797,797,797,797,797,797,797,797,797,797,797,797,797,797,797,797,797,797,797,797,797,797,797,797,797,797,797,797,797,797,797,797,797,797,797,797,797,797,797,797,797,797,797,797,796,796,796,796,796,796,796,796,796,796,797,800,806,818,821,825,833,844,876,902,941,972,1011,1054,1056,1056,1056,1056,1055,1055,1055,1055,1055,1055,1055,1055,1055,1055,1054,1054,1054,1054,1057,1058,1059],"ymouse":[515,515,515,515,515,515,515,515,515,515,515,515,515,515,515,515,515,515,515,515,515,515,515,515,515,515,515,515,515,515,515,515,515,515,515,515,515,515,515,515,515,515,515,515,515,515,515,515,515,515,515,515,515,515,515,515,515,515,515,515,515,515,515,515,515,515,515,515,515,515,515,515,515,515,515,515,515,515,515,515,515,515,515,515,515,515,515,515,515,515,515,515,515,515,515,515,515,515,515,515,515,515,515,515,515,515,515,515,515,515,515,515,515,515,515,515,512,499,495,491,483,473,432,392,328,260,186,57,33,23,22,22,22,22,22,22,22,22,22,22,22,22,22,22,22,22,23,24,25],"timestamp_mouse":[15,36,68,75,96,116,135,156,176,195,216,235,256,275,296,315,336,356,376,396,416,436,456,476,495,515,535,556,575,596,616,635,656,675,695,715,735,755,776,795,816,835,856,875,895,915,935,956,975,995,1016,1035,1056,1076,1096,1115,1136,1156,1176,1196,1216,1236,1255,1276,1296,1316,1336,1356,1376,1396,1417,1436,1456,1475,1496,1515,1535,1556,1576,1596,1616,1635,1656,1676,1695,1716,1736,1756,1775,1796,1815,1835,1855,1876,1896,1915,1936,1956,1975,1996,2015,2036,2056,2075,2095,2116,2135,2156,2175,2195,2215,2235,2256,2276,2296,2315,2335,2355,2375,2396,2415,2436,2455,2475,2495,2515,2535,2555,2575,2595,2615,2635,2655,2675,2695,2715,2736,2756,2776,2795,2815,2836,2855,2875,2895,2915,2936,2956,2975],"xSR":741.5,"ySR":469.95,"xT1":424.9,"yT1":0,"xT2":1058.1,"yT2":0,"toosoon":0,"cond_shown":"Incongruent","ratio_trial":100,"L_num":6,"L_den":10,"R_num":11,"R_den":22,"correct_side":1,"subjID":"Sergiomalagon32","gender":"0","school":"6","age":"11"},{"start_time":1551899662224,"click_time":1551899664200,"finger_time":1551899663660,"fix_duration":1021.872726837476,"trial":6,"RT":1436,"MT":540,"sideResp":2,"stimulus":[],"xmouse":[793,793,793,793,793,793,793,793,793,793,793,793,793,793,793,793,793,793,793,793,793,793,793,793,793,793,794,795,796,796,796,796,796,796,796,796,796,796,796,796,796,796,797,800,802,807,813,818,826,827,827,827,827,827,827,827,827,827,827,827,827,827,827,827,827,827,827,828,832,835,838,842,848,858,860,864,879,896,934,952,961,966,970,975,977,978,980,982,987,988,991,996,1004,1023,1031,1040,1047,1056,1077],"ymouse":[504,505,505,505,505,505,505,505,505,505,505,505,505,505,505,505,505,505,505,505,505,505,505,505,505,505,506,506,506,506,506,506,506,506,506,506,506,506,506,506,506,506,506,506,506,506,506,506,506,506,506,506,506,506,506,506,506,506,506,506,506,506,506,506,506,506,506,506,502,499,495,491,487,476,460,438,396,346,246,205,186,173,164,154,150,144,140,136,128,127,127,127,125,122,120,118,116,112,99],"timestamp_mouse":[20,41,56,76,97,117,137,157,177,197,216,237,257,278,296,317,337,357,377,397,417,436,456,476,497,517,537,556,576,596,616,637,657,676,696,716,737,756,776,796,817,836,857,877,897,916,936,956,976,996,1016,1037,1056,1076,1096,1116,1136,1156,1176,1196,1216,1237,1256,1277,1296,1316,1336,1356,1376,1397,1416,1436,1456,1477,1496,1516,1537,1556,1575,1596,1616,1636,1656,1676,1697,1717,1736,1756,1776,1797,1816,1836,1857,1876,1897,1916,1936,1957,1976],"xSR":741.5,"ySR":469.95,"xT1":424.9,"yT1":0,"xT2":1058.1,"yT2":0,"toosoon":0,"cond_shown":"Incongruent","ratio_trial":200,"L_num":14,"L_den":30,"R_num":6,"R_den":9,"correct_side":2,"subjID":"Sergiomalagon32","gender":"0","school":"6","age":"11"},{"start_time":1551899669329,"click_time":1551899671102,"finger_time":1551899670682,"fix_duration":886.031056603337,"trial":7,"RT":1353,"MT":420,"sideResp":2,"stimulus":[],"xmouse":[809,809,809,809,809,809,809,809,809,809,809,809,809,809,809,809,809,809,809,809,809,809,809,809,809,809,809,809,809,809,809,809,809,809,809,809,809,809,809,809,809,809,809,809,809,809,809,809,809,809,809,809,809,809,809,809,809,809,809,809,809,809,809,809,809,812,823,839,857,889,900,921,941,970,1059,1086,1098,1103,1105,1105,1105,1105,1105,1105,1105,1105,1105,1106,1107],"ymouse":[509,509,509,509,509,509,509,509,509,509,509,509,509,509,509,509,509,509,509,509,509,509,509,509,509,509,509,509,509,509,509,509,509,509,509,509,509,509,509,509,509,509,509,509,509,509,509,509,509,509,509,509,509,509,509,509,509,509,509,509,509,509,509,509,508,496,478,461,443,415,401,362,323,277,206,187,171,158,145,130,123,120,117,116,113,109,105,100,95],"timestamp_mouse":[11,32,51,71,91,111,132,152,172,192,211,232,252,271,292,312,332,352,372,392,412,432,451,472,491,511,532,551,572,592,611,631,652,671,692,712,732,752,771,791,811,831,852,872,891,912,931,951,971,992,1011,1034,1052,1071,1092,1112,1132,1151,1173,1191,1212,1232,1253,1271,1292,1311,1332,1352,1371,1391,1411,1431,1452,1472,1491,1511,1531,1552,1571,1591,1611,1632,1651,1671,1692,1711,1732,1751,1772],"xSR":741.5,"ySR":469.95,"xT1":424.9,"yT1":0,"xT2":1058.1,"yT2":0,"toosoon":0,"cond_shown":"Congruent","ratio_trial":100,"L_num":7,"L_den":14,"R_num":9,"R_den":15,"correct_side":2,"subjID":"Sergiomalagon32","gender":"0","school":"6","age":"11"},{"start_time":1551899673324,"click_time":1551899675042,"finger_time":1551899674661,"fix_duration":1101.5975224413587,"trial":8,"RT":1337,"MT":381,"sideResp":2,"stimulus":[],"xmouse":[794,794,794,794,794,794,794,794,794,794,794,794,794,794,794,794,794,794,794,794,794,794,794,794,794,794,794,794,794,794,794,794,794,794,794,794,794,794,794,794,794,794,794,794,794,794,794,794,794,794,794,794,794,794,794,794,794,794,794,794,794,794,794,794,807,817,825,834,843,868,884,898,908,916,934,943,953,964,977,1004,1015,1030,1044,1057,1079,1086],"ymouse":[524,524,524,524,524,524,524,524,524,524,524,524,524,524,524,524,524,524,524,524,524,524,524,524,524,524,524,524,524,524,524,524,524,524,524,524,524,524,524,524,524,524,524,524,524,524,524,524,524,524,524,524,524,524,524,524,524,524,524,524,524,524,520,512,486,471,460,443,429,386,366,348,335,323,300,287,272,257,240,203,192,176,159,143,112,99],"timestamp_mouse":[16,49,56,77,97,117,137,157,177,196,217,237,257,277,296,317,336,357,376,397,416,436,456,477,497,517,537,556,576,597,617,636,657,676,696,717,737,756,777,797,817,836,856,876,897,916,936,957,977,996,1017,1036,1056,1077,1096,1116,1136,1157,1176,1197,1217,1237,1256,1277,1296,1316,1337,1357,1376,1396,1416,1436,1456,1477,1497,1516,1536,1557,1577,1597,1616,1636,1656,1676,1696,1717],"xSR":741.5,"ySR":469.95,"xT1":424.9,"yT1":0,"xT2":1058.1,"yT2":0,"toosoon":0,"cond_shown":"Incongruent","ratio_trial":200,"L_num":3,"L_den":10,"R_num":1,"R_den":2,"correct_side":2,"subjID":"Sergiomalagon32","gender":"0","school":"6","age":"11"},{"start_time":1551899678362,"click_time":1551899680101,"finger_time":1551899679701,"fix_duration":341.3666987806633,"trial":9,"RT":1339,"MT":400,"sideResp":2,"stimulus":[],"xmouse":[785,785,785,785,785,785,785,785,785,785,785,785,785,785,785,785,785,785,785,785,785,785,785,785,785,785,785,785,785,785,785,785,785,785,785,785,785,785,785,785,785,785,785,785,785,785,785,785,785,785,785,785,785,785,785,785,785,785,785,785,785,785,785,787,806,826,852,883,927,943,960,974,998,1008,1022,1029,1032,1036,1036,1036,1038,1039,1042,1047,1057,1063,1070],"ymouse":[510,510,510,510,510,510,510,510,510,510,510,510,510,510,510,510,510,510,510,510,510,510,510,510,510,510,510,510,510,510,510,510,510,510,510,510,510,510,510,510,510,510,510,510,510,510,510,510,510,510,510,510,510,510,510,510,510,510,510,510,510,510,510,510,505,494,480,463,439,424,409,394,355,333,300,283,267,250,244,237,226,214,197,160,130,112,97],"timestamp_mouse":[26,43,59,78,98,119,139,158,178,198,219,238,258,279,298,318,339,358,379,398,419,439,459,480,499,519,539,559,578,599,619,638,659,678,699,719,739,758,778,798,819,839,858,878,898,918,939,959,978,999,1018,1038,1059,1078,1099,1119,1140,1159,1179,1198,1218,1238,1259,1279,1298,1318,1339,1358,1377,1398,1418,1438,1460,1478,1498,1518,1539,1560,1578,1599,1618,1638,1658,1678,1699,1718,1739],"xSR":741.5,"ySR":469.95,"xT1":424.9,"yT1":0,"xT2":1058.1,"yT2":0,"toosoon":0,"cond_shown":"Incongruent","ratio_trial":300,"L_num":13,"L_den":26,"R_num":12,"R_den":15,"correct_side":2,"subjID":"Sergiomalagon32","gender":"0","school":"6","age":"11"},{"start_time":1551899682435,"click_time":1551899684041,"finger_time":1551899683861,"fix_duration":1491.1379256117634,"trial":10,"RT":1426,"MT":180,"sideResp":2,"stimulus":[],"xmouse":[814,814,814,814,813,811,810,810,810,810,810,810,810,810,810,810,810,810,810,810,810,810,810,810,810,810,810,810,810,810,810,810,810,810,810,810,810,810,810,810,810,810,810,810,810,810,810,810,810,810,810,810,810,810,810,810,810,810,810,810,810,810,810,810,810,810,810,810,813,817,822,828,836,865,900,938,1007,1032,1052,1055,1060],"ymouse":[544,544,544,544,544,542,541,541,541,541,541,541,541,541,541,541,541,541,541,541,541,541,541,541,541,541,541,541,541,541,541,541,541,541,541,541,541,541,541,541,541,541,541,541,541,541,541,541,541,541,541,541,541,541,541,541,541,541,541,541,541,541,541,541,541,541,534,529,521,505,470,449,422,358,297,228,112,70,30,23,16],"timestamp_mouse":[10,25,53,65,86,105,126,145,166,185,205,225,246,266,285,306,326,345,365,386,405,426,445,465,486,506,526,546,566,585,606,625,646,666,686,705,726,745,765,786,805,826,847,866,886,905,926,946,965,985,1006,1025,1045,1065,1085,1105,1125,1145,1166,1186,1206,1225,1246,1265,1286,1305,1325,1346,1365,1385,1405,1426,1445,1466,1486,1505,1526,1545,1565,1585,1606],"xSR":741.5,"ySR":469.95,"xT1":424.9,"yT1":0,"xT2":1058.1,"yT2":0,"toosoon":0,"cond_shown":"Incongruent","ratio_trial":300,"L_num":4,"L_den":20,"R_num":2,"R_den":4,"correct_side":2,"subjID":"Sergiomalagon32","gender":"0","school":"6","age":"11"},{"start_time":1551899685333,"click_time":1551899688442,"finger_time":1551899687860,"fix_duration":250,"trial":11,"RT":2527,"MT":582,"sideResp":2,"stimulus":[],"xmouse":[816,816,816,816,816,816,816,816,816,816,816,816,816,816,816,816,816,816,816,816,816,816,816,816,816,816,816,816,816,816,816,816,816,816,816,816,816,816,816,816,816,816,816,816,816,816,816,816,816,816,816,816,816,816,816,816,816,816,816,816,816,816,816,816,816,816,816,816,816,816,816,816,816,816,815,814,814,814,814,814,814,814,814,814,814,814,814,814,814,814,814,814,814,814,814,814,814,814,814,814,814,814,814,814,814,814,814,814,814,814,814,814,814,814,814,814,814,814,814,814,814,814,814,814,816,835,849,868,887,903,934,949,968,983,1012,1038,1071,1075,1075,1075,1073,1073,1072,1072,1072,1072,1072,1074,1077,1079,1081,1082,1083,1085,1085,1087],"ymouse":[533,533,533,533,533,533,533,533,533,533,533,533,533,533,533,533,533,533,533,533,533,533,533,533,533,533,533,533,533,533,533,533,533,533,533,533,533,533,533,533,533,533,533,533,533,533,533,533,533,533,533,533,533,533,533,533,533,533,533,533,533,533,533,533,533,533,533,533,533,533,533,533,533,533,531,528,527,526,526,526,526,526,526,526,526,526,526,526,526,526,526,526,526,526,526,526,526,526,526,526,526,526,526,526,526,526,526,526,526,526,526,526,526,526,526,526,526,526,526,526,526,526,526,522,516,495,484,468,452,438,412,399,374,348,302,257,167,143,131,128,127,127,127,127,127,127,127,125,123,121,119,114,109,105,100,97],"timestamp_mouse":[9,28,49,67,88,107,127,147,167,188,207,228,248,268,287,307,327,348,368,388,408,428,448,468,487,507,527,548,568,587,608,627,647,667,688,707,728,748,767,787,807,828,848,868,888,907,928,947,968,988,1008,1027,1047,1067,1088,1107,1127,1148,1167,1187,1207,1228,1248,1268,1287,1307,1327,1347,1368,1388,1407,1427,1447,1468,1487,1508,1528,1547,1567,1587,1607,1628,1648,1668,1688,1708,1727,1748,1768,1788,1808,1827,1848,1867,1887,1907,1927,1947,1968,1988,2007,2027,2048,2067,2088,2108,2128,2148,2168,2188,2207,2227,2248,2268,2287,2308,2327,2348,2368,2387,2408,2427,2447,2467,2487,2508,2527,2547,2568,2587,2609,2627,2648,2667,2688,2708,2727,2748,2767,2787,2809,2827,2847,2868,2886,2908,2928,2947,2968,2987,3009,3028,3047,3067,3088,3108],"xSR":741.5,"ySR":469.95,"xT1":424.9,"yT1":0,"xT2":1058.1,"yT2":0,"toosoon":0,"cond_shown":"Congruent","ratio_trial":200,"L_num":7,"L_den":15,"R_num":18,"R_den":27,"correct_side":2,"subjID":"Sergiomalagon32","gender":"0","school":"6","age":"11"},{"start_time":1551899690500,"click_time":1551899693542,"finger_time":1551899693202,"fix_duration":676.5572887035119,"trial":12,"RT":2702,"MT":340,"sideResp":2,"stimulus":[],"xmouse":[774,774,774,774,774,774,774,774,774,774,774,774,774,774,774,774,774,774,774,774,774,774,774,774,774,774,774,774,774,774,774,774,774,774,774,774,775,775,775,775,775,775,775,775,775,775,775,775,775,775,775,775,775,775,775,775,775,775,775,775,775,775,775,775,775,775,775,775,775,775,775,775,775,775,775,775,775,775,775,775,775,775,775,775,775,775,775,775,775,775,775,775,775,775,775,775,775,775,775,775,775,775,775,775,775,775,775,775,775,775,775,775,775,775,775,775,775,775,775,775,775,775,775,775,775,776,779,784,790,791,792,799,809,826,833,845,862,878,895,919,930,950,974,996,1032,1048,1058,1066,1072,1074,1074,1074,1076],"ymouse":[509,509,509,509,509,509,509,509,509,509,509,509,509,509,509,509,509,509,509,509,509,509,509,509,509,509,509,509,509,509,509,509,509,509,509,509,509,509,509,509,509,509,509,509,509,509,509,509,509,509,509,509,509,509,509,509,509,509,509,509,509,509,509,509,509,509,509,509,509,509,509,509,509,509,509,509,509,509,509,509,509,509,509,509,509,509,509,509,509,509,509,509,509,509,509,509,509,509,509,509,509,509,509,509,509,509,509,509,509,509,509,509,509,509,509,509,509,509,509,509,509,509,509,509,509,509,509,509,509,509,509,509,506,500,495,488,476,462,448,415,396,363,324,287,206,170,147,129,109,107,105,102,97],"timestamp_mouse":[9,21,52,62,81,101,122,141,162,181,201,221,241,262,282,301,322,342,361,381,402,422,442,462,481,502,521,541,562,581,602,620,641,661,681,701,721,740,761,781,801,822,841,862,881,901,920,942,961,981,1001,1022,1042,1060,1082,1101,1122,1142,1160,1181,1202,1221,1241,1261,1282,1302,1321,1340,1361,1382,1400,1421,1441,1462,1481,1500,1521,1541,1561,1581,1601,1621,1642,1662,1681,1702,1722,1742,1762,1781,1801,1822,1841,1860,1880,1902,1921,1941,1960,1981,2002,2021,2041,2061,2082,2102,2121,2142,2160,2181,2202,2220,2240,2261,2281,2301,2321,2341,2362,2381,2400,2422,2442,2461,2480,2501,2521,2540,2561,2582,2601,2621,2642,2660,2681,2702,2722,2741,2761,2781,2801,2821,2842,2861,2881,2900,2922,2942,2962,2981,3000,3021,3042],"xSR":741.5,"ySR":469.95,"xT1":424.9,"yT1":0,"xT2":1058.1,"yT2":0,"toosoon":0,"cond_shown":"Incongruent","ratio_trial":200,"L_num":4,"L_den":30,"R_num":1,"R_den":3,"correct_side":2,"subjID":"Sergiomalagon32","gender":"0","school":"6","age":"11"},{"start_time":1551899696718,"click_time":1551899698382,"finger_time":1551899697701,"fix_duration":1335.746445323215,"trial":13,"RT":983,"MT":681,"sideResp":2,"stimulus":[],"xmouse":[818,818,818,818,818,818,818,818,818,818,818,818,818,818,818,818,818,818,818,818,818,818,818,818,818,818,818,818,818,818,818,818,818,818,818,818,818,818,818,818,818,818,818,818,818,818,818,820,834,854,859,861,861,861,861,861,861,861,861,861,861,861,863,872,882,893,905,919,973,1003,1017,1023,1029,1035,1039,1041,1044,1047,1055,1059,1065,1072,1080,1094],"ymouse":[496,496,496,496,496,496,496,496,496,496,496,496,496,496,496,496,496,496,496,496,496,496,496,496,496,496,496,496,496,496,496,496,496,496,496,496,496,496,496,496,496,496,496,496,496,496,496,496,490,484,483,481,481,481,481,481,481,481,481,481,481,481,479,465,452,436,418,392,290,237,214,199,186,173,168,163,159,154,140,135,126,117,105,80],"timestamp_mouse":[8,24,44,75,83,104,124,144,164,183,202,223,243,264,282,302,324,343,364,384,402,424,444,462,482,503,524,543,562,583,603,624,644,664,683,704,723,743,762,784,803,823,843,864,884,902,922,943,964,983,1003,1023,1043,1062,1083,1102,1123,1143,1163,1184,1204,1223,1244,1264,1283,1303,1323,1344,1363,1384,1404,1423,1443,1462,1483,1504,1523,1545,1564,1583,1603,1623,1643,1663],"xSR":741.5,"ySR":469.95,"xT1":424.9,"yT1":0,"xT2":1058.1,"yT2":0,"toosoon":0,"cond_shown":"Incongruent","ratio_trial":100,"L_num":8,"L_den":20,"R_num":1,"R_den":2,"correct_side":2,"subjID":"Sergiomalagon32","gender":"0","school":"6","age":"11"},{"start_time":1551899700858,"click_time":1551899702481,"finger_time":1551899702181,"fix_duration":1153.6410444338142,"trial":14,"RT":1323,"MT":300,"sideResp":1,"stimulus":[],"xmouse":[792,792,792,792,792,792,792,792,792,792,792,792,792,792,792,792,792,792,792,792,792,792,792,792,792,792,792,792,792,792,792,792,792,792,792,792,792,792,792,792,792,792,792,792,792,792,792,792,792,792,792,792,792,792,792,792,791,790,790,790,790,790,790,790,781,766,703,660,623,597,574,559,556,555,555,555,555,555,555,554,533,515],"ymouse":[530,530,530,530,530,530,530,530,530,530,530,530,530,530,530,530,530,530,530,530,530,530,530,530,530,530,530,530,530,529,529,529,529,529,529,529,529,529,529,529,529,529,529,529,529,529,529,529,529,529,529,529,529,529,529,529,525,524,524,524,524,524,524,520,504,479,384,328,276,224,175,103,84,73,65,65,65,65,64,64,61,58],"timestamp_mouse":[9,23,43,72,83,103,123,143,163,184,202,224,242,264,284,302,323,343,364,382,403,424,443,463,483,503,524,542,564,583,602,622,644,664,684,702,723,744,764,783,802,822,843,864,884,903,923,943,964,983,1002,1024,1043,1063,1083,1103,1124,1143,1164,1184,1203,1223,1243,1264,1284,1304,1323,1343,1363,1383,1404,1423,1443,1462,1483,1503,1524,1543,1562,1582,1604,1623],"xSR":741.5,"ySR":469.95,"xT1":424.9,"yT1":0,"xT2":1058.1,"yT2":0,"toosoon":0,"cond_shown":"Congruent","ratio_trial":300,"L_num":20,"L_den":25,"R_num":9,"R_den":18,"correct_side":1,"subjID":"Sergiomalagon32","gender":"0","school":"6","age":"11"},{"start_time":1551899704527,"click_time":1551899708001,"finger_time":1551899707801,"fix_duration":905.0042759940468,"trial":15,"RT":3274,"MT":200,"sideResp":2,"stimulus":[],"xmouse":[785,785,785,785,785,785,785,785,785,785,785,785,785,785,785,785,785,785,785,785,785,785,785,785,785,785,785,785,785,785,785,785,785,785,785,785,785,785,785,785,785,785,785,785,785,785,785,785,785,785,785,785,785,785,785,785,785,785,785,785,785,785,785,785,785,785,785,785,785,785,785,785,785,785,785,785,785,785,785,785,785,785,785,785,785,785,785,785,785,785,785,785,785,785,785,785,785,785,785,785,785,785,785,785,785,785,785,785,785,785,785,785,785,785,785,785,785,785,785,785,785,785,785,785,785,785,785,785,785,785,785,785,785,785,785,785,785,785,785,785,785,785,785,785,785,785,785,785,785,785,785,785,785,785,785,785,785,785,795,804,815,827,834,860,892,925,979,1016,1075,1094,1107,1116,1121,1123],"ymouse":[510,510,510,510,510,510,510,510,510,510,510,510,510,510,510,510,510,510,510,510,510,510,510,510,510,510,510,510,510,510,510,510,510,510,510,510,510,510,510,510,510,510,510,510,510,510,510,510,510,510,510,510,510,510,510,510,510,510,510,510,510,510,510,510,510,510,510,510,510,510,510,510,510,510,510,510,510,510,510,510,510,510,510,510,510,510,510,510,510,510,510,510,510,510,510,510,510,510,510,510,510,510,510,510,510,510,510,510,510,510,510,510,510,510,510,510,510,510,510,510,510,510,510,510,510,510,510,510,510,510,510,510,510,510,510,510,510,510,510,510,510,510,510,510,510,510,510,510,510,510,510,510,510,510,510,510,510,510,508,503,494,486,478,441,422,387,330,287,188,156,137,119,108,99],"timestamp_mouse":[13,33,55,75,94,114,135,155,174,194,215,234,255,275,293,313,334,353,374,395,414,435,453,474,494,514,534,554,574,594,615,634,653,675,694,715,735,754,774,794,814,835,854,875,894,915,935,954,973,993,1013,1035,1054,1074,1095,1115,1134,1155,1175,1194,1213,1235,1255,1274,1293,1315,1335,1354,1373,1394,1414,1435,1455,1475,1495,1515,1533,1554,1574,1594,1614,1633,1654,1674,1694,1714,1735,1755,1774,1793,1813,1835,1854,1873,1894,1915,1935,1955,1975,1994,2013,2035,2054,2073,2094,2114,2133,2155,2174,2194,2213,2233,2253,2275,2293,2313,2335,2354,2373,2395,2414,2435,2453,2474,2494,2514,2533,2554,2575,2594,2613,2634,2653,2675,2695,2715,2733,2754,2774,2793,2813,2835,2854,2875,2895,2914,2934,2954,2974,2993,3015,3034,3054,3075,3095,3114,3134,3154,3174,3193,3215,3235,3254,3274,3294,3314,3334,3354,3373,3394,3415,3434,3455,3474],"xSR":741.5,"ySR":469.95,"xT1":424.9,"yT1":0,"xT2":1058.1,"yT2":0,"toosoon":0,"cond_shown":"Congruent","ratio_trial":100,"L_num":4,"L_den":8,"R_num":6,"R_den":10,"correct_side":2,"subjID":"Sergiomalagon32","gender":"0","school":"6","age":"11"},{"start_time":1551899711234,"click_time":1551899713303,"finger_time":1551899712720,"fix_duration":250,"trial":16,"RT":1486,"MT":583,"sideResp":2,"stimulus":[],"xmouse":[784,784,784,784,784,784,784,784,784,784,784,784,784,784,784,784,784,784,784,784,784,784,784,784,784,784,784,784,784,784,784,784,784,784,784,784,784,784,784,784,784,784,784,784,784,784,784,784,784,784,784,784,784,784,784,784,784,784,784,784,784,784,784,784,784,784,784,784,785,789,796,802,807,820,856,887,928,947,963,978,985,991,996,1024,1046,1072,1076,1089,1096,1105,1108,1109,1111,1113,1115,1115,1115,1111,1107,1101,1101,1099,1098,1095],"ymouse":[516,516,516,516,516,516,516,516,516,516,516,516,516,516,516,516,516,516,516,516,516,516,516,516,516,516,516,516,516,516,516,516,516,516,516,516,516,516,516,516,516,516,516,516,516,516,516,516,516,516,516,516,516,516,516,516,516,516,516,516,516,516,516,516,516,516,516,516,516,516,516,515,514,509,490,478,453,439,425,404,391,379,369,313,287,261,255,232,218,195,185,173,159,146,124,119,118,117,116,113,111,107,104,93],"timestamp_mouse":[10,43,47,68,88,107,128,146,166,186,208,227,247,268,288,307,328,346,367,388,408,427,448,468,486,507,527,548,566,587,608,627,646,668,687,707,726,747,767,787,808,828,846,867,888,908,927,947,967,988,1006,1026,1048,1067,1086,1107,1128,1147,1167,1186,1207,1227,1248,1267,1288,1306,1326,1348,1368,1387,1407,1427,1448,1468,1486,1507,1527,1547,1568,1587,1607,1627,1647,1669,1686,1707,1726,1747,1768,1787,1807,1827,1848,1866,1888,1907,1926,1947,1968,1987,2007,2027,2048,2069],"xSR":741.5,"ySR":469.95,"xT1":424.9,"yT1":0,"xT2":1058.1,"yT2":0,"toosoon":0,"cond_shown":"Congruent","ratio_trial":200,"L_num":3,"L_den":12,"R_num":9,"R_den":20,"correct_side":2,"subjID":"Sergiomalagon32","gender":"0","school":"6","age":"11"},{"start_time":1551899714524,"click_time":1551899716222,"finger_time":1551899715842,"fix_duration":260.3666109885513,"trial":17,"RT":1318,"MT":380,"sideResp":1,"stimulus":[],"xmouse":[784,784,784,784,784,784,784,784,784,784,784,784,784,784,784,784,784,784,784,784,784,784,784,784,784,784,784,784,784,784,784,784,784,784,784,784,784,784,784,784,784,784,784,784,784,784,784,784,784,784,784,784,784,784,784,784,784,784,784,784,784,784,784,784,784,759,707,651,606,565,561,558,554,549,544,544,542,540,538,526,521,517,513,509,500],"ymouse":[503,503,503,503,503,503,503,503,503,503,503,503,503,503,503,503,503,503,503,503,503,503,503,503,503,503,503,503,503,503,503,503,503,503,503,503,503,503,503,503,503,503,503,503,503,503,503,503,503,503,503,503,503,503,503,503,503,503,503,503,503,503,503,503,500,467,416,358,312,253,245,241,235,229,219,215,206,194,178,132,118,109,103,100,94],"timestamp_mouse":[21,39,58,78,97,117,137,157,177,197,218,238,257,277,297,318,338,358,377,398,418,438,456,477,498,516,537,557,577,597,616,638,657,678,697,717,738,758,778,797,816,838,858,877,896,916,938,957,978,997,1017,1037,1058,1078,1098,1116,1138,1158,1178,1197,1216,1238,1258,1278,1297,1318,1338,1357,1376,1396,1418,1437,1457,1477,1497,1518,1536,1558,1578,1596,1618,1637,1656,1676,1697],"xSR":741.5,"ySR":469.95,"xT1":424.9,"yT1":0,"xT2":1058.1,"yT2":0,"toosoon":0,"cond_shown":"Congruent","ratio_trial":300,"L_num":20,"L_den":25,"R_num":8,"R_den":16,"correct_side":1,"subjID":"Sergiomalagon32","gender":"0","school":"6","age":"11"},{"start_time":1551899717716,"click_time":1551899720141,"finger_time":1551899719761,"fix_duration":773.763888060482,"trial":18,"RT":2045,"MT":380,"sideResp":1,"stimulus":[],"xmouse":[807,807,807,807,807,807,807,807,807,807,807,807,807,807,807,807,807,807,807,807,807,807,807,807,807,807,807,807,807,807,807,807,807,807,807,807,807,807,807,807,807,807,807,807,807,807,807,807,807,807,807,807,807,807,807,807,807,807,807,807,807,807,807,807,807,806,799,793,790,790,790,790,789,789,789,789,789,789,789,789,789,789,789,789,789,789,789,789,789,789,789,789,789,789,789,789,789,789,789,785,760,743,730,713,697,628,590,561,556,553,552,549,545,542,539,537,533,522,513,496,479,477],"ymouse":[530,530,530,530,530,530,530,530,530,530,530,530,530,530,530,530,530,530,530,530,530,530,530,530,530,530,530,530,530,530,530,530,530,530,530,530,530,530,530,530,530,530,530,530,530,530,530,530,530,530,530,530,530,530,530,530,530,530,530,529,525,525,525,525,525,524,523,522,521,521,521,521,521,521,521,521,521,521,521,521,521,521,521,521,521,521,521,521,521,521,521,521,521,521,521,521,521,521,521,518,501,486,469,444,416,310,262,217,208,195,181,173,164,155,149,145,142,138,132,117,101,97],"timestamp_mouse":[9,25,44,80,85,106,126,145,166,185,206,225,246,266,286,306,325,345,364,384,406,424,444,465,484,506,524,546,565,584,604,626,646,666,685,705,726,745,764,784,805,826,846,866,886,906,926,945,966,985,1005,1026,1044,1064,1085,1106,1124,1145,1166,1186,1205,1226,1244,1266,1285,1306,1324,1345,1365,1386,1406,1425,1445,1465,1485,1504,1526,1546,1566,1584,1605,1625,1645,1666,1684,1704,1726,1746,1764,1786,1805,1825,1845,1866,1886,1905,1925,1945,1965,1985,2004,2025,2045,2066,2086,2106,2125,2146,2165,2186,2205,2225,2244,2265,2285,2305,2324,2345,2366,2385,2406,2424],"xSR":741.5,"ySR":469.95,"xT1":424.9,"yT1":0,"xT2":1058.1,"yT2":0,"toosoon":0,"cond_shown":"Congruent","ratio_trial":200,"L_num":8,"L_den":15,"R_num":7,"R_den":21,"correct_side":1,"subjID":"Sergiomalagon32","gender":"0","school":"6","age":"11"},{"start_time":1551899721845,"click_time":1551899723601,"finger_time":1551899723162,"fix_duration":521.4450251945203,"trial":19,"RT":1317,"MT":439,"sideResp":1,"stimulus":[],"xmouse":[799,799,799,799,799,799,799,799,799,799,799,799,799,799,799,799,799,799,799,799,799,799,799,799,799,799,799,799,799,799,799,799,799,799,799,799,799,799,799,799,799,799,799,799,799,799,799,799,799,799,799,799,799,799,799,799,799,799,799,799,799,799,799,796,777,747,703,665,616,599,567,563,557,553,551,549,545,540,532,528,522,513,508,505,501,497,490,484],"ymouse":[514,514,514,514,514,514,514,514,514,514,514,514,514,514,514,514,514,514,514,514,514,514,514,514,514,514,514,514,514,514,514,514,514,514,514,514,514,514,514,514,514,514,514,514,514,514,514,514,514,514,514,514,514,514,514,514,514,514,514,514,514,514,514,511,487,454,406,362,304,286,248,242,235,224,212,204,192,178,159,149,139,131,126,122,117,114,103,93],"timestamp_mouse":[16,37,57,76,96,116,136,156,176,197,216,237,255,276,296,317,337,356,376,395,416,436,455,477,495,517,537,556,577,595,617,637,655,677,697,717,736,757,777,803,815,836,855,877,896,916,935,955,976,996,1017,1037,1055,1077,1095,1117,1137,1155,1175,1197,1215,1235,1256,1276,1295,1317,1336,1356,1378,1396,1421,1436,1455,1477,1496,1516,1537,1556,1578,1595,1617,1635,1656,1677,1696,1716,1736,1756],"xSR":741.5,"ySR":469.95,"xT1":424.9,"yT1":0,"xT2":1058.1,"yT2":0,"toosoon":0,"cond_shown":"Incongruent","ratio_trial":200,"L_num":4,"L_den":6,"R_num":14,"R_den":30,"correct_side":1,"subjID":"Sergiomalagon32","gender":"0","school":"6","age":"11"},{"start_time":1551899724806,"click_time":1551899726922,"finger_time":1551899726422,"fix_duration":443.46098744273576,"trial":20,"RT":1616,"MT":500,"sideResp":2,"stimulus":[],"xmouse":[812,812,812,812,812,812,812,812,812,812,812,812,812,812,812,812,812,812,812,812,812,812,812,812,812,812,812,812,812,812,812,812,812,812,812,812,812,812,812,812,812,812,812,812,812,812,812,812,812,812,812,812,812,812,812,812,812,812,812,812,812,812,812,812,813,813,813,813,813,813,813,813,813,813,813,813,813,817,825,837,866,896,910,916,922,931,944,953,966,989,1008,1039,1045,1048,1050,1051,1051,1053,1054,1055,1056,1058,1060,1061,1065,1067],"ymouse":[515,515,515,515,515,515,515,515,515,515,515,515,515,515,515,515,515,515,515,515,515,515,515,515,515,515,515,515,515,515,515,515,515,515,515,515,515,515,515,515,515,515,515,515,515,515,515,515,515,515,515,515,515,515,515,515,515,515,515,515,515,515,515,512,511,511,511,511,511,511,511,511,511,511,511,511,511,505,494,481,455,415,394,385,371,359,333,320,304,274,252,203,184,170,162,156,155,151,148,144,141,126,118,112,103,97],"timestamp_mouse":[15,50,54,76,96,115,134,154,176,196,214,235,255,276,295,316,336,356,376,395,416,435,455,475,495,516,535,556,576,595,615,635,654,676,694,715,736,755,775,795,816,836,856,874,896,914,936,955,974,996,1016,1035,1055,1075,1096,1116,1136,1154,1175,1195,1215,1235,1255,1274,1296,1316,1336,1355,1374,1395,1414,1435,1456,1475,1496,1516,1534,1554,1575,1596,1616,1635,1655,1676,1696,1715,1736,1754,1775,1794,1814,1835,1856,1876,1895,1916,1935,1955,1975,1995,2015,2035,2054,2074,2096,2116],"xSR":741.5,"ySR":469.95,"xT1":424.9,"yT1":0,"xT2":1058.1,"yT2":0,"toosoon":0,"cond_shown":"Incongruent","ratio_trial":100,"L_num":10,"L_den":25,"R_num":8,"R_den":16,"correct_side":2,"subjID":"Sergiomalagon32","gender":"0","school":"6","age":"11"},{"start_time":1551899728912,"click_time":1551899730821,"finger_time":1551899730241,"fix_duration":869.2843665197408,"trial":21,"RT":1329,"MT":580,"sideResp":2,"stimulus":[],"xmouse":[807,807,807,807,807,807,807,807,807,807,807,807,807,807,807,807,807,807,807,807,807,807,807,807,807,807,807,807,807,807,807,807,807,807,807,807,807,807,807,807,807,807,807,807,807,807,807,807,807,807,807,807,807,807,807,807,807,807,807,807,807,807,807,807,808,831,873,886,891,893,894,895,899,903,911,921,935,961,975,984,994,1014,1024,1031,1041,1047,1050,1057,1061,1065,1068,1073,1080,1084,1087,1092],"ymouse":[511,511,511,511,511,511,511,511,511,511,511,511,511,511,511,511,511,511,511,511,511,511,511,511,511,511,511,511,511,511,511,511,511,511,511,511,511,511,511,511,511,511,511,511,511,511,511,511,511,511,511,511,511,511,511,511,511,511,511,511,511,511,511,512,512,509,492,483,478,475,473,471,466,460,445,425,404,362,342,324,309,281,268,258,244,233,228,213,204,195,185,173,147,126,112,99],"timestamp_mouse":[12,35,50,68,89,110,128,148,170,190,209,229,249,268,290,309,329,348,368,390,410,428,450,469,490,510,529,550,568,590,610,629,650,670,688,708,729,750,768,790,810,830,849,868,889,909,929,949,969,988,1009,1030,1049,1068,1090,1108,1128,1148,1170,1190,1209,1230,1250,1269,1290,1310,1329,1349,1369,1388,1409,1430,1449,1469,1489,1509,1528,1548,1569,1589,1610,1630,1648,1669,1688,1709,1730,1749,1768,1789,1810,1829,1850,1868,1889,1909],"xSR":741.5,"ySR":469.95,"xT1":424.9,"yT1":0,"xT2":1058.1,"yT2":0,"toosoon":0,"cond_shown":"Incongruent","ratio_trial":300,"L_num":13,"L_den":26,"R_num":12,"R_den":15,"correct_side":2,"subjID":"Sergiomalagon32","gender":"0","school":"6","age":"11"},{"start_time":1551899734498,"click_time":1551899735781,"finger_time":1551899735422,"fix_duration":614.8894114924777,"trial":22,"RT":924,"MT":359,"sideResp":1,"stimulus":[],"xmouse":[830,830,830,830,830,830,830,830,830,830,830,830,830,830,830,830,830,830,830,830,830,830,830,830,830,830,830,830,830,830,830,830,830,830,830,830,830,830,830,830,830,830,830,813,791,763,751,727,696,686,676,666,661,647,641,636,631,623,603,586,570,552,532,493,486],"ymouse":[504,504,504,504,504,504,504,504,504,504,504,504,504,504,504,504,504,504,504,504,504,504,504,504,504,504,504,504,504,504,504,504,504,504,504,504,504,504,504,504,504,504,504,499,485,472,465,450,425,412,398,385,375,353,341,329,313,294,259,240,224,203,177,110,92],"timestamp_mouse":[9,39,44,64,83,103,122,144,164,184,204,222,242,264,284,304,323,344,364,383,403,423,444,464,483,503,523,543,562,584,602,623,644,664,683,704,723,744,762,784,804,822,844,862,883,902,924,943,963,982,1003,1024,1044,1062,1083,1103,1124,1142,1163,1184,1204,1222,1243,1262,1283],"xSR":741.5,"ySR":469.95,"xT1":424.9,"yT1":0,"xT2":1058.1,"yT2":0,"toosoon":0,"cond_shown":"Incongruent","ratio_trial":300,"L_num":1,"L_den":2,"R_num":2,"R_den":10,"correct_side":1,"subjID":"Sergiomalagon32","gender":"0","school":"6","age":"11"},{"start_time":1551899738992,"click_time":1551899740580,"finger_time":1551899740281,"fix_duration":889.1671201146833,"trial":23,"RT":1289,"MT":299,"sideResp":2,"stimulus":[],"xmouse":[805,805,805,805,805,805,805,805,805,805,805,805,805,805,805,805,805,805,805,805,805,805,805,805,805,805,805,805,805,805,805,805,805,805,805,805,805,805,805,805,805,805,805,805,805,805,805,805,805,805,805,805,805,805,805,805,805,805,805,805,805,805,805,807,846,879,918,949,970,995,1009,1019,1031,1041,1063,1088,1101,1114,1120,1125],"ymouse":[519,519,519,519,519,519,519,519,519,519,519,519,519,519,519,519,519,519,519,519,519,519,519,519,519,519,519,519,519,519,519,519,519,519,519,519,519,519,519,519,519,519,519,519,519,519,519,519,519,519,519,519,519,519,519,519,519,519,519,519,519,519,519,516,500,486,472,459,447,429,417,406,389,369,307,244,197,154,127,95],"timestamp_mouse":[11,30,48,68,88,108,129,150,169,189,210,228,249,269,290,310,330,348,370,390,408,430,450,470,489,510,530,550,569,589,610,630,650,668,690,709,730,750,770,788,810,828,848,869,888,910,929,950,969,989,1009,1028,1049,1068,1089,1108,1128,1148,1169,1189,1210,1230,1249,1269,1289,1309,1328,1350,1370,1389,1410,1430,1449,1468,1488,1509,1529,1549,1568,1588],"xSR":741.5,"ySR":469.95,"xT1":424.9,"yT1":0,"xT2":1058.1,"yT2":0,"toosoon":0,"cond_shown":"Congruent","ratio_trial":300,"L_num":4,"L_den":20,"R_num":13,"R_den":26,"correct_side":2,"subjID":"Sergiomalagon32","gender":"0","school":"6","age":"11"},{"start_time":1551899744454,"click_time":1551899747042,"finger_time":1551899746281,"fix_duration":250,"trial":24,"RT":1827,"MT":761,"sideResp":1,"stimulus":[],"xmouse":[823,823,823,823,823,823,823,823,823,823,823,823,823,823,823,823,823,823,823,823,823,823,823,822,822,822,822,822,822,822,822,822,822,822,822,822,822,822,822,822,822,822,822,822,822,822,822,822,822,822,822,822,822,822,822,822,822,822,822,822,822,822,822,822,822,822,822,822,822,822,822,822,822,822,822,822,822,822,822,818,817,814,811,811,811,810,810,808,805,791,773,689,625,557,517,494,477,474,473,473,473,478,481,485,487,488,489,489,489,489,489,487,484,484,483,483,482,482,482,482,482,482,482,482,482,483,484,485,485,485],"ymouse":[515,515,515,515,515,515,515,515,515,515,515,515,515,515,515,515,515,515,515,515,515,515,515,515,515,515,515,515,515,515,515,515,515,515,515,515,515,515,515,515,515,515,515,515,515,515,515,515,515,515,515,515,515,515,515,515,515,515,515,515,515,515,515,515,515,515,515,515,515,515,515,515,515,515,515,515,515,515,515,513,513,513,512,512,512,511,511,510,504,494,481,427,388,340,306,285,257,247,242,239,235,225,216,207,196,186,175,160,155,148,144,138,130,128,126,125,124,122,121,118,116,110,109,107,106,105,103,100,100,99],"timestamp_mouse":[9,44,48,67,88,106,127,148,168,187,206,228,248,267,287,307,327,347,368,387,407,427,447,467,488,507,526,548,567,586,608,627,647,668,687,707,728,747,768,786,807,828,847,868,887,907,926,947,966,987,1007,1027,1048,1067,1088,1107,1127,1148,1167,1188,1207,1227,1247,1266,1288,1306,1327,1348,1367,1388,1407,1426,1447,1468,1488,1508,1527,1548,1568,1587,1608,1627,1648,1667,1687,1706,1728,1747,1767,1787,1808,1827,1847,1867,1886,1906,1928,1947,1967,1988,2006,2028,2046,2066,2087,2107,2126,2147,2167,2186,2207,2227,2247,2267,2288,2307,2327,2347,2366,2386,2408,2427,2447,2467,2487,2507,2527,2547,2567,2587],"xSR":741.5,"ySR":469.95,"xT1":424.9,"yT1":0,"xT2":1058.1,"yT2":0,"toosoon":0,"cond_shown":"Congruent","ratio_trial":100,"L_num":2,"L_den":5,"R_num":6,"R_den":12,"correct_side":2,"subjID":"Sergiomalagon32","gender":"0","school":"6","age":"11"},{"start_time":1551899751420,"click_time":1551899753120,"finger_time":1551899752781,"fix_duration":1496.2757000525828,"trial":25,"RT":1361,"MT":339,"sideResp":1,"stimulus":[],"xmouse":[784,784,784,784,784,784,784,784,784,784,784,784,784,784,784,784,784,784,784,784,784,784,784,784,784,784,784,784,784,784,784,784,784,784,784,784,784,784,784,784,784,784,784,784,784,784,784,784,784,784,784,784,784,784,784,784,784,784,784,784,784,784,784,782,774,768,761,759,750,724,710,695,684,676,657,644,626,606,582,546,537,532,525,517,490,480],"ymouse":[512,512,512,512,512,512,512,512,512,512,512,512,512,512,512,512,512,512,512,512,512,512,512,512,512,512,512,512,512,512,512,512,512,512,512,512,512,512,512,512,512,512,512,512,512,512,512,512,512,512,512,512,512,512,512,512,512,512,512,512,512,512,512,509,502,495,484,475,455,422,408,395,383,370,333,309,286,256,227,181,168,160,150,141,107,94],"timestamp_mouse":[13,21,41,61,82,100,120,141,161,181,201,220,241,261,281,301,320,342,361,382,401,422,440,461,482,501,521,542,561,581,600,622,640,661,682,701,721,741,761,781,801,820,840,861,882,901,922,941,961,982,1001,1022,1041,1062,1082,1100,1120,1141,1162,1180,1200,1222,1242,1260,1280,1302,1321,1342,1361,1381,1402,1421,1440,1460,1481,1500,1520,1540,1562,1581,1600,1620,1641,1661,1682,1700],"xSR":741.5,"ySR":469.95,"xT1":424.9,"yT1":0,"xT2":1058.1,"yT2":0,"toosoon":0,"cond_shown":"Congruent","ratio_trial":300,"L_num":20,"L_den":25,"R_num":14,"R_den":28,"correct_side":1,"subjID":"Sergiomalagon32","gender":"0","school":"6","age":"11"},{"start_time":1551899755261,"click_time":1551899756721,"finger_time":1551899756602,"fix_duration":1058.1669297773933,"trial":26,"RT":1341,"MT":119,"sideResp":2,"stimulus":[],"xmouse":[810,810,810,810,810,810,810,810,810,810,810,810,810,810,810,810,810,810,810,810,810,810,810,810,810,810,810,810,810,810,810,810,810,810,810,810,810,810,810,810,810,810,810,810,810,810,810,810,810,810,810,810,810,810,810,810,810,810,810,810,810,810,810,812,816,828,840,867,881,908,940,984,1079,1112],"ymouse":[516,516,516,516,516,516,516,516,516,516,516,516,516,516,516,516,516,516,516,516,516,516,516,516,516,516,516,516,516,516,516,516,516,516,516,516,516,516,516,516,516,516,516,516,516,516,516,516,516,516,516,516,516,516,516,516,516,516,516,516,516,516,516,517,517,517,516,503,486,425,357,272,117,63],"timestamp_mouse":[10,21,40,60,81,100,121,140,160,180,201,219,241,260,280,300,320,340,361,381,399,419,441,460,481,500,520,540,560,580,601,620,640,661,681,701,721,739,760,780,799,820,841,860,881,900,920,940,961,981,999,1021,1040,1060,1079,1101,1121,1141,1161,1180,1200,1219,1240,1259,1281,1301,1320,1341,1359,1380,1400,1421,1442,1459],"xSR":741.5,"ySR":469.95,"xT1":424.9,"yT1":0,"xT2":1058.1,"yT2":0,"toosoon":0,"cond_shown":"Congruent","ratio_trial":200,"L_num":3,"L_den":10,"R_num":7,"R_den":14,"correct_side":2,"subjID":"Sergiomalagon32","gender":"0","school":"6","age":"11"},{"start_time":1551899759228,"click_time":1551899762961,"finger_time":1551899762662,"fix_duration":1064.0936482512507,"trial":27,"RT":3434,"MT":299,"sideResp":2,"stimulus":[],"xmouse":[819,819,818,818,818,818,818,818,818,818,818,818,818,818,818,818,818,818,818,818,818,818,818,818,818,818,818,818,818,818,818,818,818,818,818,818,818,818,818,818,818,818,818,818,818,818,818,818,818,818,818,818,818,818,818,818,818,818,818,818,818,818,818,818,818,818,818,818,818,818,818,818,818,818,818,818,818,818,818,818,818,818,818,818,818,818,818,818,818,818,818,818,818,818,818,818,818,818,818,818,818,818,818,818,818,818,818,818,818,818,818,818,818,818,818,818,818,818,818,818,818,818,818,818,818,818,818,818,818,818,818,818,818,818,818,818,818,818,818,818,818,818,818,818,818,818,818,818,818,818,818,818,818,818,818,818,818,818,818,818,818,818,818,818,818,818,818,818,818,820,822,827,838,844,886,908,931,943,957,980,996,1015,1048,1087,1099,1107,1107],"ymouse":[517,517,517,517,517,517,517,517,517,517,517,515,514,512,510,509,509,509,509,509,509,509,509,509,509,509,509,509,509,509,509,509,509,509,509,509,509,509,509,509,509,509,509,509,509,509,509,509,509,509,509,509,509,509,509,509,509,509,509,509,509,509,509,509,509,509,509,509,509,509,509,509,509,509,509,509,509,509,509,509,509,509,509,509,509,509,509,509,509,509,509,509,509,509,509,509,509,509,509,509,509,509,509,509,509,509,509,509,509,509,509,509,509,509,509,509,509,509,509,509,509,509,509,509,509,509,509,509,509,509,509,509,509,509,509,509,509,509,508,506,506,506,506,506,506,506,506,506,501,498,498,498,498,498,498,498,495,494,493,492,492,492,492,492,492,492,492,492,489,483,477,466,446,438,397,382,371,361,349,317,295,269,227,174,151,106,90],"timestamp_mouse":[13,34,55,74,94,114,133,154,174,194,213,233,254,274,292,313,334,354,372,393,413,433,452,472,493,514,533,553,573,593,612,633,652,672,692,712,733,754,773,793,813,833,854,873,892,913,941,954,973,994,1014,1034,1053,1074,1093,1114,1133,1152,1172,1194,1213,1234,1253,1273,1292,1312,1332,1352,1372,1392,1412,1432,1452,1472,1492,1512,1532,1552,1572,1592,1613,1634,1652,1673,1694,1712,1733,1752,1772,1792,1813,1832,1853,1874,1894,1913,1933,1954,1974,1993,2014,2033,2053,2073,2093,2113,2133,2153,2174,2193,2214,2234,2254,2273,2293,2312,2332,2354,2373,2393,2414,2433,2454,2472,2493,2513,2532,2553,2572,2593,2613,2634,2654,2673,2692,2713,2734,2753,2774,2794,2813,2833,2853,2874,2893,2913,2934,2953,2972,2993,3014,3034,3052,3072,3093,3113,3133,3154,3173,3193,3213,3233,3253,3273,3294,3314,3334,3353,3374,3392,3413,3434,3454,3473,3494,3512,3534,3554,3572,3594,3612,3633,3652,3673,3693,3712,3732],"xSR":741.5,"ySR":469.95,"xT1":424.9,"yT1":0,"xT2":1058.1,"yT2":0,"toosoon":0,"cond_shown":"Congruent","ratio_trial":100,"L_num":11,"L_den":22,"R_num":6,"R_den":15,"correct_side":1,"subjID":"Sergiomalagon32","gender":"0","school":"6","age":"11"},{"start_time":1551899766907,"click_time":1551899769261,"finger_time":1551899768841,"fix_duration":665.6257924997659,"trial":28,"RT":1934,"MT":420,"sideResp":2,"stimulus":[],"xmouse":[810,810,810,810,810,810,810,810,810,810,810,810,810,810,810,810,810,810,810,810,810,810,810,810,810,810,810,810,810,810,810,810,810,810,810,810,810,810,810,810,810,810,810,810,810,810,810,810,810,810,810,810,810,810,810,810,810,810,810,810,810,810,810,810,810,810,810,810,810,810,810,810,810,810,810,810,810,810,810,810,810,810,810,810,810,810,810,810,810,810,810,810,809,809,816,840,860,867,870,877,887,919,947,989,1036,1056,1079,1086,1092,1100,1105,1114,1115,1116,1116,1116,1116,1116],"ymouse":[519,519,519,519,519,519,519,519,519,519,519,519,519,519,519,519,519,519,519,519,519,519,519,519,519,519,519,519,519,519,519,519,519,519,519,519,519,519,519,519,519,519,519,519,519,519,519,519,519,519,519,519,519,519,519,519,519,519,519,519,519,519,519,519,519,519,519,519,519,519,519,519,519,519,519,519,519,519,519,519,519,519,519,519,519,519,519,519,519,519,519,519,519,516,504,484,468,447,429,411,391,336,306,273,241,224,192,175,164,152,143,128,122,117,112,109,101,99],"timestamp_mouse":[13,36,53,74,94,113,134,154,175,195,215,234,255,275,295,315,334,354,374,395,413,433,455,474,495,515,534,554,575,595,615,634,654,674,695,714,735,753,773,795,814,835,854,874,894,914,934,955,975,994,1015,1033,1053,1075,1094,1113,1133,1154,1174,1193,1213,1235,1255,1275,1295,1313,1334,1354,1374,1395,1414,1434,1455,1474,1495,1513,1533,1555,1575,1594,1614,1635,1653,1675,1695,1714,1734,1753,1774,1795,1814,1835,1853,1874,1894,1914,1934,1954,1973,1994,2013,2033,2055,2074,2093,2113,2133,2154,2174,2195,2214,2234,2254,2273,2294,2314,2334,2354],"xSR":741.5,"ySR":469.95,"xT1":424.9,"yT1":0,"xT2":1058.1,"yT2":0,"toosoon":0,"cond_shown":"Congruent","ratio_trial":100,"L_num":4,"L_den":8,"R_num":6,"R_den":10,"correct_side":2,"subjID":"Sergiomalagon32","gender":"0","school":"6","age":"11"},{"start_time":1551899770813,"click_time":1551899772362,"finger_time":1551899772141,"fix_duration":250,"trial":29,"RT":1328,"MT":221,"sideResp":2,"stimulus":[],"xmouse":[803,803,804,804,804,804,804,804,804,804,804,804,804,804,804,804,804,804,804,804,804,806,815,821,824,827,836,839,839,839,839,839,839,839,839,839,839,839,839,839,836,831,831,831,831,831,831,831,831,831,831,830,830,830,830,830,830,830,830,830,830,830,830,830,830,836,862,875,883,895,902,911,921,938,959,988,1045,1069],"ymouse":[552,550,547,547,547,547,547,547,547,547,547,547,547,547,547,547,547,547,547,547,547,547,547,547,547,547,546,546,545,545,545,545,545,545,545,545,545,545,545,545,545,545,545,545,545,545,545,545,545,545,545,545,545,545,545,545,545,545,545,545,545,545,545,545,542,538,522,512,502,481,463,448,407,350,294,237,119,79],"timestamp_mouse":[13,28,47,75,88,108,128,147,167,188,209,229,248,268,287,308,328,348,368,388,409,428,449,469,488,507,528,549,568,589,608,627,647,668,688,708,728,747,767,788,809,828,848,867,887,909,928,949,967,989,1009,1027,1048,1068,1088,1108,1127,1149,1167,1188,1208,1228,1247,1268,1288,1308,1328,1348,1368,1387,1408,1427,1447,1467,1487,1507,1529,1549],"xSR":741.5,"ySR":469.95,"xT1":424.9,"yT1":0,"xT2":1058.1,"yT2":0,"toosoon":0,"cond_shown":"Congruent","ratio_trial":100,"L_num":6,"L_den":12,"R_num":15,"R_den":25,"correct_side":2,"subjID":"Sergiomalagon32","gender":"0","school":"6","age":"11"},{"start_time":1551899774479,"click_time":1551899776144,"finger_time":1551899775802,"fix_duration":995.2619050242937,"trial":30,"RT":1323,"MT":342,"sideResp":1,"stimulus":[],"xmouse":[790,790,790,790,792,792,792,791,785,785,785,785,785,785,785,785,785,785,785,785,785,785,785,785,785,785,785,785,785,785,785,785,785,785,785,785,785,790,800,797,796,796,796,796,794,794,794,790,779,777,777,777,777,776,779,781,782,783,784,784,784,784,784,782,766,751,738,724,709,680,669,661,655,632,606,572,554,542,532,516,509,497,489,482],"ymouse":[510,510,510,511,512,512,511,506,485,485,485,485,485,485,485,485,485,485,485,485,485,485,485,485,485,485,485,485,485,485,485,485,485,485,485,485,485,485,483,486,487,489,492,493,495,495,495,495,497,498,498,498,498,498,503,505,506,508,511,516,517,517,517,518,518,518,515,506,491,452,430,408,385,338,308,276,259,246,231,195,177,149,126,89],"timestamp_mouse":[10,22,43,62,82,103,122,142,163,183,202,223,243,263,281,302,321,341,363,382,403,422,443,462,483,502,523,543,563,582,602,622,643,663,683,703,722,743,762,782,803,823,843,861,882,903,921,943,963,981,1002,1023,1042,1062,1081,1102,1123,1141,1163,1183,1202,1222,1242,1261,1283,1303,1323,1342,1362,1382,1403,1422,1442,1463,1481,1502,1522,1542,1561,1582,1602,1622,1642,1664],"xSR":741.5,"ySR":469.95,"xT1":424.9,"yT1":0,"xT2":1058.1,"yT2":0,"toosoon":0,"cond_shown":"Congruent","ratio_trial":200,"L_num":14,"L_den":28,"R_num":6,"R_den":20,"correct_side":1,"subjID":"Sergiomalagon32","gender":"0","school":"6","age":"11"},{"start_time":1551899778226,"click_time":1551899780301,"finger_time":1551899779560,"fix_duration":1363.2701747734116,"trial":31,"RT":1334,"MT":741,"sideResp":2,"stimulus":[],"xmouse":[810,810,810,810,810,810,810,810,810,810,810,810,810,810,810,810,810,810,810,810,810,810,810,810,810,810,810,810,810,810,810,810,810,810,810,810,810,810,810,810,810,810,810,810,810,810,810,810,810,810,810,810,810,810,810,810,810,810,810,810,810,810,810,810,813,824,856,876,900,920,931,944,948,957,968,994,1024,1044,1062,1074,1083,1094,1096,1096,1097,1097,1098,1097,1090,1087,1086,1086,1087,1091,1104,1112,1116,1116,1116,1116,1116,1116,1116,1116],"ymouse":[536,536,536,536,536,536,536,536,536,536,536,536,536,536,536,536,536,536,536,536,536,536,536,536,536,536,536,536,536,536,536,536,536,536,536,536,536,536,536,536,536,536,536,536,536,536,536,536,536,536,536,536,536,536,536,536,536,536,536,536,536,536,536,536,528,516,488,474,459,442,424,389,377,363,345,316,280,262,242,225,212,193,189,186,182,178,162,152,140,135,134,134,134,133,127,120,112,111,110,110,110,109,104,97],"timestamp_mouse":[15,40,55,75,95,114,134,155,176,196,214,235,256,276,295,316,336,355,375,396,416,436,455,474,495,514,535,555,576,596,615,635,655,674,695,715,735,756,776,794,815,836,855,875,895,916,934,954,976,996,1014,1034,1056,1075,1094,1116,1135,1156,1175,1196,1216,1235,1256,1276,1295,1315,1334,1354,1375,1395,1414,1435,1455,1475,1495,1515,1535,1556,1575,1595,1616,1635,1654,1674,1695,1714,1735,1754,1775,1795,1816,1835,1855,1875,1894,1916,1935,1955,1975,1996,2016,2035,2056,2074],"xSR":741.5,"ySR":469.95,"xT1":424.9,"yT1":0,"xT2":1058.1,"yT2":0,"toosoon":0,"cond_shown":"Congruent","ratio_trial":300,"L_num":1,"L_den":5,"R_num":6,"R_den":12,"correct_side":2,"subjID":"Sergiomalagon32","gender":"0","school":"6","age":"11"},{"start_time":1551899784919,"click_time":1551899786802,"finger_time":1551899786202,"fix_duration":1456.7304545174793,"trial":32,"RT":1283,"MT":600,"sideResp":1,"stimulus":[],"xmouse":[799,799,799,799,799,799,799,799,799,799,799,799,799,799,799,799,799,799,799,799,799,799,799,799,799,799,799,799,799,799,799,799,799,799,799,799,799,799,799,799,799,799,799,799,799,799,799,799,799,799,799,799,799,799,799,799,799,799,799,799,799,798,796,762,721,681,622,570,490,467,465,465,465,466,468,469,472,474,476,476,476,476,476,476,475,475,475,475,475,475,475,476,477,478,479],"ymouse":[517,517,517,517,517,517,517,517,517,517,517,517,517,517,517,517,517,517,517,517,517,517,517,517,517,517,517,517,517,517,517,517,517,517,517,517,517,517,517,517,517,517,517,517,517,517,517,517,517,517,517,517,517,517,517,517,517,517,517,517,517,517,517,507,483,451,401,352,209,165,147,139,135,130,127,126,126,124,120,119,117,115,115,111,109,107,106,104,104,104,103,102,101,100,99],"timestamp_mouse":[9,22,55,63,82,102,122,143,162,181,202,223,242,263,282,301,323,341,361,382,402,422,443,463,483,502,522,541,563,582,602,622,642,663,683,703,722,742,761,783,803,822,841,862,881,903,922,942,963,983,1002,1022,1043,1063,1083,1102,1122,1142,1163,1183,1202,1223,1241,1261,1283,1302,1323,1343,1362,1382,1401,1421,1442,1462,1482,1502,1522,1542,1561,1582,1602,1623,1642,1662,1683,1702,1722,1742,1762,1783,1802,1821,1842,1862,1883],"xSR":741.5,"ySR":469.95,"xT1":424.9,"yT1":0,"xT2":1058.1,"yT2":0,"toosoon":0,"cond_shown":"Incongruent","ratio_trial":200,"L_num":3,"L_den":4,"R_num":11,"R_den":20,"correct_side":1,"subjID":"Sergiomalagon32","gender":"0","school":"6","age":"11"},{"start_time":1551899788780,"click_time":1551899790181,"finger_time":1551899790021,"fix_duration":1037.8670880130258,"trial":33,"RT":1241,"MT":160,"sideResp":1,"stimulus":[],"xmouse":[800,800,800,800,800,800,800,800,800,800,800,800,800,800,800,800,800,800,800,800,800,800,800,800,800,800,800,800,800,800,800,800,800,800,800,800,800,800,800,800,800,800,800,800,800,800,800,800,800,800,800,800,800,800,800,800,800,800,800,800,795,770,755,746,736,725,686,656,616,572,520],"ymouse":[515,515,515,515,515,515,515,515,515,515,515,515,515,515,515,515,515,515,515,515,515,515,515,515,515,515,515,515,515,515,515,515,515,515,515,515,515,515,515,515,515,515,515,515,515,515,515,515,515,515,515,515,515,515,515,515,515,515,515,514,508,484,459,445,429,408,339,284,219,152,71],"timestamp_mouse":[12,24,40,65,81,100,121,142,161,181,200,221,241,262,281,302,320,340,360,382,400,421,440,460,482,501,522,541,561,580,601,621,641,661,682,701,722,741,762,782,800,821,842,861,881,901,921,941,962,980,1000,1022,1041,1062,1082,1101,1121,1142,1161,1181,1201,1222,1241,1261,1281,1302,1320,1340,1360,1380,1400],"xSR":741.5,"ySR":469.95,"xT1":424.9,"yT1":0,"xT2":1058.1,"yT2":0,"toosoon":0,"cond_shown":"Congruent","ratio_trial":300,"L_num":11,"L_den":22,"R_num":2,"R_den":10,"correct_side":1,"subjID":"Sergiomalagon32","gender":"0","school":"6","age":"11"},{"start_time":1551899796413,"click_time":1551899798141,"finger_time":1551899797722,"fix_duration":250,"trial":34,"RT":1309,"MT":419,"sideResp":1,"stimulus":[],"xmouse":[798,798,798,798,798,798,798,798,798,798,798,798,798,798,798,798,798,798,798,798,798,798,798,798,798,798,798,798,798,798,798,798,798,798,798,798,798,798,798,798,798,798,798,798,798,798,798,798,798,797,797,795,794,793,793,793,793,793,793,793,793,793,793,793,780,740,664,567,423,307,297,296,296,296,309,329,353,371,376,376,380,387,396,405,417,442,452],"ymouse":[502,502,502,502,502,502,502,502,502,502,502,502,502,502,502,502,502,502,502,502,502,502,502,502,502,502,502,502,502,502,502,502,502,502,502,502,502,502,502,502,502,502,502,502,502,502,502,502,502,502,502,502,502,502,502,502,502,502,502,502,502,502,502,502,488,454,402,337,234,137,120,116,113,112,112,112,113,116,117,117,117,117,117,117,117,107,83],"timestamp_mouse":[15,39,49,68,88,109,129,149,168,188,208,229,248,267,288,309,329,347,369,389,409,427,449,467,488,508,528,548,567,589,608,628,649,667,687,708,728,749,769,787,807,828,849,867,888,907,927,949,968,987,1009,1027,1047,1067,1088,1108,1128,1148,1168,1188,1208,1227,1249,1269,1288,1309,1328,1349,1368,1388,1409,1427,1449,1468,1488,1507,1528,1548,1568,1588,1609,1629,1648,1668,1687,1708,1728],"xSR":741.5,"ySR":469.95,"xT1":424.9,"yT1":0,"xT2":1058.1,"yT2":0,"toosoon":0,"cond_shown":"Congruent","ratio_trial":300,"L_num":20,"L_den":25,"R_num":14,"R_den":28,"correct_side":1,"subjID":"Sergiomalagon32","gender":"0","school":"6","age":"11"},{"start_time":1551899800144,"click_time":1551899802061,"finger_time":1551899801522,"fix_duration":841.2259214423592,"trial":35,"RT":1378,"MT":539,"sideResp":2,"stimulus":[],"xmouse":[791,791,791,791,791,791,791,791,791,791,791,791,791,791,791,791,791,791,791,791,791,791,791,792,793,793,793,793,793,793,793,793,793,793,793,793,793,793,793,793,793,793,793,793,793,793,793,793,793,793,793,793,793,793,793,793,793,793,793,793,793,793,793,793,793,793,801,812,863,879,887,891,897,917,927,936,945,954,980,989,995,1000,1004,1011,1015,1018,1025,1031,1042,1048,1055,1060,1063,1069,1070,1073],"ymouse":[508,508,508,508,508,508,508,508,508,508,508,508,508,508,508,508,508,508,508,508,508,508,509,509,509,509,509,509,509,509,509,509,509,509,509,509,509,509,509,509,509,509,509,509,509,509,509,509,509,509,509,509,509,509,509,509,509,509,509,509,509,509,509,509,509,509,509,509,505,503,501,500,498,494,488,480,467,446,381,359,341,323,307,274,260,246,231,218,186,160,146,134,123,105,100,93],"timestamp_mouse":[17,44,57,77,97,118,137,158,178,196,216,237,256,278,298,317,337,358,377,397,416,438,457,478,496,517,538,558,577,597,618,637,657,677,696,718,738,757,776,796,817,838,858,878,897,917,936,958,977,998,1017,1037,1057,1077,1098,1116,1138,1157,1178,1197,1218,1238,1256,1276,1298,1317,1337,1357,1378,1397,1418,1436,1457,1477,1497,1517,1536,1556,1576,1596,1617,1636,1658,1676,1696,1716,1737,1756,1777,1797,1818,1837,1856,1877,1897,1917],"xSR":741.5,"ySR":469.95,"xT1":424.9,"yT1":0,"xT2":1058.1,"yT2":0,"toosoon":0,"cond_shown":"Congruent","ratio_trial":300,"L_num":5,"L_den":25,"R_num":7,"R_den":14,"correct_side":2,"subjID":"Sergiomalagon32","gender":"0","school":"6","age":"11"},{"start_time":1551899803599,"click_time":1551899805381,"finger_time":1551899805021,"fix_duration":656.2464143519082,"trial":36,"RT":1422,"MT":360,"sideResp":1,"stimulus":[],"xmouse":[778,778,778,778,778,778,778,778,778,778,778,778,778,778,778,778,778,778,778,778,778,778,778,778,778,778,778,778,778,778,778,778,778,778,778,778,778,778,778,778,778,778,778,778,778,778,778,778,778,778,778,778,778,778,778,778,778,778,778,778,778,778,778,778,778,778,778,778,773,762,750,731,723,716,710,699,689,673,667,661,652,614,591,576,571,567,547,538,528,519],"ymouse":[504,504,504,504,504,504,504,504,504,504,504,504,504,504,504,504,504,504,504,504,504,504,504,504,504,504,504,504,504,504,504,504,504,504,504,504,504,504,504,504,504,504,504,504,504,504,504,504,504,504,504,504,504,504,504,504,504,504,504,504,504,504,504,504,504,504,504,504,504,496,486,468,458,447,438,419,401,372,364,357,346,293,248,204,177,150,89,74,62,53],"timestamp_mouse":[10,21,42,62,83,102,121,142,162,183,201,222,241,263,282,301,323,342,361,382,401,423,442,461,483,502,522,541,562,583,602,623,642,662,683,702,722,741,763,782,802,822,842,861,883,902,923,942,963,982,1001,1022,1043,1062,1081,1103,1121,1141,1163,1182,1202,1222,1243,1262,1281,1302,1322,1342,1362,1382,1402,1422,1442,1463,1482,1502,1522,1542,1563,1583,1603,1622,1642,1662,1682,1703,1721,1743,1763,1782],"xSR":741.5,"ySR":469.95,"xT1":424.9,"yT1":0,"xT2":1058.1,"yT2":0,"toosoon":0,"cond_shown":"Congruent","ratio_trial":200,"L_num":8,"L_den":15,"R_num":2,"R_den":6,"correct_side":1,"subjID":"Sergiomalagon32","gender":"0","school":"6","age":"11"},{"start_time":1551899809977,"click_time":1551899811841,"finger_time":1551899811341,"fix_duration":1253.1697529097098,"trial":37,"RT":1364,"MT":500,"sideResp":2,"stimulus":[],"xmouse":[798,798,798,798,798,798,798,798,798,798,798,798,798,798,798,798,798,798,798,798,798,798,798,798,798,798,798,798,798,798,798,798,798,798,798,798,798,798,798,798,798,798,798,798,798,798,798,798,798,798,798,798,798,798,798,798,798,798,798,798,798,798,798,798,799,802,810,825,868,897,923,943,958,978,984,999,1019,1036,1056,1060,1061,1062,1062,1062,1063,1064,1066,1067,1069,1070,1074,1076,1079,1083],"ymouse":[522,522,522,522,522,522,522,522,522,522,522,522,522,522,522,522,522,522,522,522,522,522,522,522,522,522,522,522,522,522,522,522,522,522,522,522,522,522,522,522,522,522,522,522,522,522,522,522,522,522,522,522,522,522,522,522,522,522,522,522,522,522,521,518,516,511,500,485,458,441,426,412,399,373,362,335,305,271,220,206,198,193,189,176,167,160,153,147,138,132,121,116,106,92],"timestamp_mouse":[11,24,43,63,83,103,125,145,165,184,203,224,245,265,283,303,323,345,364,383,403,423,444,465,485,505,524,545,564,583,604,624,645,665,685,704,725,744,765,783,804,824,845,864,884,904,924,945,964,983,1004,1023,1044,1064,1083,1105,1125,1145,1164,1184,1203,1225,1244,1264,1284,1304,1324,1343,1364,1384,1404,1424,1445,1464,1484,1504,1525,1543,1564,1583,1604,1624,1644,1663,1684,1704,1724,1744,1764,1785,1803,1823,1844,1864],"xSR":741.5,"ySR":469.95,"xT1":424.9,"yT1":0,"xT2":1058.1,"yT2":0,"toosoon":0,"cond_shown":"Incongruent","ratio_trial":100,"L_num":11,"L_den":22,"R_num":9,"R_den":15,"correct_side":2,"subjID":"Sergiomalagon32","gender":"0","school":"6","age":"11"},{"start_time":1551899814541,"click_time":1551899816421,"finger_time":1551899815862,"fix_duration":1498.7202775018118,"trial":38,"RT":1321,"MT":559,"sideResp":2,"stimulus":[],"xmouse":[789,789,789,789,789,789,789,789,789,789,789,789,789,789,789,789,789,789,789,789,789,789,789,789,789,789,789,789,789,789,789,789,789,789,789,789,789,789,789,789,789,789,789,789,789,789,789,789,789,789,789,789,789,789,789,789,789,789,789,789,789,789,789,789,790,800,845,879,914,934,953,957,960,966,978,992,1014,1023,1029,1035,1041,1051,1061,1066,1070,1072,1072,1072,1072,1072,1072,1077,1080,1081,1082],"ymouse":[512,512,512,512,512,512,512,512,512,512,512,512,512,512,512,512,512,512,512,512,512,512,512,512,512,512,512,512,512,512,512,512,512,512,512,512,512,512,512,512,512,512,512,512,512,512,512,512,512,512,512,512,512,512,512,512,512,512,512,512,512,512,512,512,512,508,473,447,417,398,368,361,355,344,330,313,274,252,234,216,203,178,154,139,127,116,115,115,115,115,115,107,102,100,97],"timestamp_mouse":[2,20,41,66,81,100,121,139,160,181,199,221,241,260,280,299,321,341,360,379,401,420,441,459,479,501,521,541,560,579,600,621,641,660,680,699,720,741,760,781,800,821,840,861,880,900,920,941,960,980,1000,1019,1040,1060,1080,1100,1120,1139,1159,1181,1200,1221,1240,1260,1279,1300,1321,1340,1361,1380,1401,1419,1440,1460,1481,1500,1520,1539,1559,1580,1599,1619,1640,1661,1681,1701,1720,1741,1760,1779,1801,1820,1840,1860,1880],"xSR":741.5,"ySR":469.95,"xT1":424.9,"yT1":0,"xT2":1058.1,"yT2":0,"toosoon":0,"cond_shown":"Congruent","ratio_trial":300,"L_num":2,"L_den":10,"R_num":12,"R_den":24,"correct_side":2,"subjID":"Sergiomalagon32","gender":"0","school":"6","age":"11"},{"start_time":1551899818372,"click_time":1551899820043,"finger_time":1551899819681,"fix_duration":988.0346971555072,"trial":39,"RT":1309,"MT":362,"sideResp":1,"stimulus":[],"xmouse":[797,797,797,797,797,797,797,797,797,797,797,797,797,797,797,797,797,797,797,797,797,797,797,797,797,797,797,797,797,797,797,797,797,797,797,797,797,797,797,797,797,797,797,797,797,797,797,797,797,797,797,797,797,797,797,797,797,797,797,797,797,797,797,796,778,738,663,584,504,420,398,394,391,391,391,393,394,398,402,409,414,420,427,436],"ymouse":[504,504,504,504,504,504,504,504,504,504,504,504,504,504,504,504,504,504,504,504,504,504,504,504,504,504,504,504,504,504,504,504,504,504,504,504,504,504,504,504,504,504,504,504,504,504,504,504,504,504,504,504,504,504,504,504,504,504,504,504,504,504,504,505,496,473,432,390,345,272,240,228,219,205,196,184,174,163,152,136,126,116,104,90],"timestamp_mouse":[10,29,48,69,89,109,130,149,169,190,210,230,248,269,290,309,330,349,370,390,410,429,448,470,490,510,528,550,570,589,609,630,649,670,690,709,728,748,770,790,808,830,849,869,890,909,928,950,970,990,1008,1028,1049,1070,1090,1109,1130,1149,1170,1189,1209,1230,1249,1269,1290,1309,1328,1349,1369,1389,1410,1429,1450,1471,1488,1509,1528,1548,1569,1589,1609,1630,1649,1670],"xSR":741.5,"ySR":469.95,"xT1":424.9,"yT1":0,"xT2":1058.1,"yT2":0,"toosoon":0,"cond_shown":"Incongruent","ratio_trial":200,"L_num":4,"L_den":5,"R_num":6,"R_den":10,"correct_side":1,"subjID":"Sergiomalagon32","gender":"0","school":"6","age":"11"},{"start_time":1551899822101,"click_time":1551899823861,"finger_time":1551899823440,"fix_duration":898.6041792975949,"trial":40,"RT":1339,"MT":421,"sideResp":1,"stimulus":[],"xmouse":[804,804,804,804,804,804,804,804,804,804,804,804,804,804,804,804,804,804,804,804,804,804,804,804,804,804,804,804,804,804,804,804,804,804,804,804,804,804,804,804,804,804,804,804,804,804,804,804,804,804,804,804,804,804,804,804,804,804,804,804,804,804,804,804,796,762,714,615,582,563,549,527,514,491,479,471,471,470,470,470,470,472,474,474,474,474,474,474],"ymouse":[532,532,532,532,532,532,532,532,532,532,532,532,532,532,532,532,532,532,532,532,532,532,532,532,532,532,532,532,532,532,532,532,532,532,532,532,532,532,532,532,532,532,532,532,532,532,532,532,532,532,532,532,532,532,532,532,532,532,532,532,532,532,532,531,518,490,453,373,339,319,302,272,253,211,190,176,170,161,159,156,150,147,139,134,128,122,116,96],"timestamp_mouse":[20,39,61,80,100,121,140,159,180,200,220,239,261,279,300,321,341,361,380,401,419,441,460,481,499,520,540,561,580,600,620,641,661,680,701,719,739,760,781,800,821,840,859,880,901,921,940,960,980,1000,1019,1039,1060,1080,1099,1119,1141,1160,1180,1199,1221,1239,1260,1280,1301,1320,1339,1360,1380,1399,1419,1440,1460,1480,1499,1520,1539,1560,1579,1599,1621,1641,1660,1681,1699,1720,1740,1760],"xSR":741.5,"ySR":469.95,"xT1":424.9,"yT1":0,"xT2":1058.1,"yT2":0,"toosoon":0,"cond_shown":"Incongruent","ratio_trial":200,"L_num":4,"L_den":6,"R_num":14,"R_den":30,"correct_side":1,"subjID":"Sergiomalagon32","gender":"0","school":"6","age":"11"},{"start_time":1551899826973,"click_time":1551899828801,"finger_time":1551899828281,"fix_duration":1090.520837254075,"trial":41,"RT":1308,"MT":520,"sideResp":2,"stimulus":[],"xmouse":[771,771,771,771,771,771,771,771,771,771,771,771,771,771,771,771,771,771,771,771,771,771,771,771,771,771,771,771,771,771,771,771,771,771,771,771,771,771,771,771,771,771,771,771,771,771,771,771,771,771,771,771,771,771,776,795,798,798,798,798,798,798,800,804,823,867,889,904,913,923,950,974,998,1016,1039,1046,1046,1046,1047,1047,1047,1048,1050,1051,1051,1052,1054,1055,1060,1064,1074,1079],"ymouse":[518,518,518,518,518,518,518,518,518,518,518,518,518,518,518,518,518,518,518,518,518,518,518,518,518,518,518,518,518,518,518,518,518,518,518,518,518,518,518,518,518,518,518,518,518,518,518,518,518,518,518,518,518,518,518,516,515,515,515,515,515,515,514,510,496,465,449,439,430,423,404,391,374,340,293,234,211,195,179,162,135,126,116,112,109,108,106,106,105,104,100,96],"timestamp_mouse":[9,29,48,69,88,108,129,149,167,187,209,228,248,268,288,309,329,348,367,389,408,429,449,467,488,509,529,549,567,589,609,629,648,669,689,707,728,749,767,788,809,829,848,868,887,907,929,949,967,989,1009,1027,1048,1068,1088,1109,1128,1148,1169,1188,1208,1229,1248,1268,1288,1308,1329,1349,1369,1387,1408,1428,1448,1467,1488,1508,1527,1547,1568,1589,1608,1628,1648,1668,1688,1708,1728,1747,1768,1787,1808,1828],"xSR":741.5,"ySR":469.95,"xT1":424.9,"yT1":0,"xT2":1058.1,"yT2":0,"toosoon":0,"cond_shown":"Congruent","ratio_trial":200,"L_num":5,"L_den":10,"R_num":14,"R_den":20,"correct_side":2,"subjID":"Sergiomalagon32","gender":"0","school":"6","age":"11"},{"start_time":1551899832134,"click_time":1551899834140,"finger_time":1551899833520,"fix_duration":250,"trial":42,"RT":1386,"MT":620,"sideResp":2,"stimulus":[],"xmouse":[810,810,810,810,810,810,810,810,810,810,810,810,810,810,810,810,810,810,810,810,810,810,810,810,810,810,810,810,810,810,810,810,810,810,810,810,810,810,810,810,810,810,810,810,810,810,810,810,810,810,810,810,810,810,810,810,810,810,810,810,810,810,810,810,810,810,810,810,831,864,900,934,974,1001,1008,1025,1032,1046,1056,1067,1077,1080,1085,1085,1085,1085,1085,1085,1085,1085,1085,1085,1085,1085,1085,1085,1085,1085,1085,1084,1082],"ymouse":[502,502,502,502,502,502,502,502,502,502,502,502,502,502,502,502,502,502,502,502,502,502,502,502,502,502,502,502,502,502,502,502,502,502,502,502,502,502,502,502,502,502,502,502,502,502,502,502,502,502,502,502,502,502,502,502,502,502,502,502,502,502,502,502,502,502,502,502,492,473,449,423,387,365,358,339,324,286,262,235,209,190,168,165,165,165,165,160,156,150,143,136,129,120,120,120,120,117,113,108,99],"timestamp_mouse":[9,27,63,68,87,108,127,147,168,187,207,227,248,268,286,307,327,347,368,388,407,426,447,468,488,507,527,547,568,586,606,628,647,668,688,708,726,746,766,788,808,828,847,866,886,908,927,947,967,987,1007,1027,1047,1068,1087,1107,1128,1147,1167,1186,1206,1228,1247,1268,1286,1306,1327,1348,1368,1386,1406,1427,1448,1467,1486,1506,1527,1547,1566,1587,1608,1626,1648,1667,1686,1707,1726,1747,1767,1787,1807,1826,1848,1866,1887,1908,1927,1948,1967,1987,2006],"xSR":741.5,"ySR":469.95,"xT1":424.9,"yT1":0,"xT2":1058.1,"yT2":0,"toosoon":0,"cond_shown":"Congruent","ratio_trial":100,"L_num":2,"L_den":5,"R_num":11,"R_den":22,"correct_side":2,"subjID":"Sergiomalagon32","gender":"0","school":"6","age":"11"},{"start_time":1551899835454,"click_time":1551899838982,"finger_time":1551899837122,"fix_duration":250,"trial":43,"RT":1668,"MT":1860,"sideResp":2,"stimulus":[],"xmouse":[805,805,805,805,805,805,805,805,805,805,805,805,805,805,805,805,805,805,805,805,805,805,805,805,805,805,805,805,805,805,805,805,805,805,805,805,805,805,805,805,805,805,805,805,805,805,805,805,805,805,805,805,805,805,805,805,805,805,805,805,805,805,805,805,805,805,805,805,805,805,805,805,805,805,805,805,805,805,805,805,805,805,794,760,720,698,683,662,650,639,624,612,607,607,607,607,607,607,607,607,607,607,607,616,628,633,634,634,634,634,634,634,634,634,634,635,635,651,668,683,692,701,717,723,726,733,750,773,779,785,792,799,810,812,813,813,813,813,813,813,813,813,813,813,813,813,813,813,813,813,813,813,813,813,813,813,813,813,813,813,813,813,815,827,844,866,895,947,973,995,1012,1032,1058,1067,1074,1082,1084],"ymouse":[503,503,503,503,503,503,503,503,503,503,503,503,503,503,503,503,503,503,503,503,503,503,503,503,503,503,503,503,503,503,503,503,503,503,503,503,503,503,503,503,503,503,503,503,503,503,503,503,503,503,503,503,503,503,503,503,503,503,503,503,503,503,503,503,503,503,503,503,503,503,503,503,503,503,503,503,503,503,503,503,503,503,493,468,443,425,408,370,355,344,333,327,325,325,325,325,325,325,325,325,325,325,325,325,325,326,326,326,326,326,326,326,326,326,326,327,327,329,335,339,341,343,348,349,349,352,357,363,365,366,368,369,371,371,371,371,371,371,371,371,371,371,371,371,371,371,371,371,371,371,371,371,371,371,371,371,371,371,371,371,371,371,371,362,349,333,301,251,228,208,192,176,143,129,116,101,97],"timestamp_mouse":[12,28,47,67,87,106,128,148,167,188,208,228,247,267,288,308,328,348,368,388,407,426,448,467,487,508,528,548,566,586,607,628,648,667,688,708,727,748,768,787,807,828,848,866,886,906,928,947,968,988,1006,1027,1047,1067,1087,1108,1127,1147,1168,1187,1208,1226,1248,1266,1288,1308,1326,1347,1368,1386,1406,1428,1448,1466,1487,1508,1526,1548,1568,1586,1608,1628,1648,1668,1686,1707,1727,1746,1766,1786,1806,1826,1847,1867,1886,1906,1927,1947,1967,1987,2007,2028,2047,2067,2087,2107,2128,2147,2167,2186,2207,2227,2247,2267,2287,2307,2327,2346,2367,2387,2407,2427,2448,2468,2488,2507,2526,2546,2566,2587,2608,2628,2646,2667,2688,2707,2728,2747,2768,2787,2807,2826,2847,2868,2888,2907,2927,2947,2968,2986,3007,3027,3047,3067,3086,3107,3127,3147,3168,3188,3208,3228,3247,3268,3286,3306,3327,3346,3367,3387,3408,3428,3447,3467,3488,3507,3527],"xSR":741.5,"ySR":469.95,"xT1":424.9,"yT1":0,"xT2":1058.1,"yT2":0,"toosoon":0,"cond_shown":"Incongruent","ratio_trial":200,"L_num":4,"L_den":30,"R_num":1,"R_den":3,"correct_side":2,"subjID":"Sergiomalagon32","gender":"0","school":"6","age":"11"},{"start_time":1551899840551,"click_time":1551899843560,"finger_time":1551899842580,"fix_duration":549.4545317336498,"trial":44,"RT":2029,"MT":980,"sideResp":1,"stimulus":[],"xmouse":[778,778,778,778,778,778,778,778,778,778,778,778,778,778,778,778,778,778,778,778,778,778,778,778,778,778,778,778,778,778,778,778,778,778,778,778,778,778,778,778,778,778,778,778,778,778,778,778,778,778,778,778,778,778,778,778,778,778,778,778,778,778,778,778,778,778,778,778,778,778,778,778,778,778,778,778,778,778,778,778,778,778,778,778,778,778,778,779,779,775,775,772,771,770,769,769,769,769,774,777,789,805,817,840,854,864,876,891,933,951,963,968,970,979,985,989,993,994,994,994,994,993,979,964,947,933,925,918,911,897,889,877,841,818,794,773,753,725,718,712,703,689,648,630,610,594,580,554,541,525,520],"ymouse":[524,524,524,524,524,524,524,524,524,524,524,524,524,524,524,524,524,524,524,524,524,524,524,524,524,524,524,524,524,524,524,524,524,524,524,524,524,524,524,524,524,524,524,524,524,524,524,524,524,524,524,524,524,524,524,524,524,524,524,524,524,524,524,524,524,524,524,524,524,524,524,524,524,524,524,524,524,524,524,524,524,524,524,524,524,524,524,524,516,510,508,505,504,503,501,501,501,498,494,492,480,464,446,398,366,344,324,308,280,265,251,234,220,190,176,171,167,167,167,167,167,167,167,167,168,170,171,171,171,171,171,171,171,171,171,171,171,171,171,170,164,158,139,130,119,109,103,92,86,80,77],"timestamp_mouse":[11,30,50,71,90,109,131,151,171,191,209,231,249,271,291,310,329,349,370,389,410,430,450,469,489,510,530,550,569,589,611,629,649,669,691,710,729,750,770,791,810,829,850,869,891,910,929,950,970,989,1009,1029,1051,1069,1091,1111,1130,1150,1169,1191,1209,1230,1249,1271,1289,1309,1329,1350,1369,1391,1411,1429,1449,1471,1491,1509,1530,1550,1570,1591,1610,1629,1650,1671,1690,1710,1730,1749,1769,1791,1811,1830,1851,1870,1890,1911,1931,1950,1969,1991,2010,2029,2051,2071,2089,2109,2129,2151,2170,2190,2211,2229,2250,2269,2289,2310,2331,2350,2369,2390,2410,2431,2451,2469,2490,2510,2530,2551,2570,2590,2611,2630,2650,2669,2690,2711,2730,2751,2770,2789,2810,2829,2851,2870,2891,2910,2931,2952,2970,2990,3009],"xSR":741.5,"ySR":469.95,"xT1":424.9,"yT1":0,"xT2":1058.1,"yT2":0,"toosoon":0,"cond_shown":"Congruent","ratio_trial":100,"L_num":6,"L_den":20,"R_num":5,"R_den":25,"correct_side":1,"subjID":"Sergiomalagon32","gender":"0","school":"6","age":"11"},{"start_time":1551899846043,"click_time":1551899848261,"finger_time":1551899847902,"fix_duration":1219.2584671398401,"trial":45,"RT":1859,"MT":359,"sideResp":1,"stimulus":[],"xmouse":[794,794,794,794,794,794,794,794,794,794,794,794,794,794,794,794,794,794,794,794,794,794,794,794,794,794,794,794,794,794,794,794,794,794,794,794,794,794,794,794,794,794,794,794,794,794,794,794,794,794,794,794,794,794,794,794,794,794,794,794,794,794,794,794,794,794,794,794,794,794,794,794,794,794,794,794,794,794,794,794,794,794,794,794,794,794,794,78