[{"start_time":1551900241425,"click_time":1551900243707,"finger_time":1551900243385,"fix_duration":1294.8979610982265,"trial":0,"RT":1960,"MT":322,"sideResp":2,"stimulus":"img/900/randomdotsizeEA/R/3_Ratio_900_L_9_R_10.png","xmouse":[803,803,803,803,803,803,803,803,803,803,803,803,803,803,803,803,803,803,803,803,803,803,803,803,803,803,803,803,803,803,803,803,803,803,803,803,803,803,803,803,803,803,803,803,803,803,803,803,803,803,803,803,803,803,803,803,803,803,803,803,803,803,802,801,801,801,801,814,821,825,826,826,826,826,826,826,826,826,826,825,824,824,824,824,824,824,824,824,823,822,820,818,818,818,818,818,818,818,840,887,913,1001,1100,1126,1141,1153,1160,1168,1171,1171,1171,1171,1165,1153,1140],"ymouse":[554,554,554,554,554,554,554,554,554,554,554,554,554,554,554,554,554,554,554,554,554,554,554,554,554,554,554,554,554,554,554,554,554,554,554,554,554,554,554,554,554,554,554,554,549,546,544,543,543,543,543,543,543,543,543,543,543,543,543,543,543,541,534,527,525,524,520,500,488,482,481,480,480,480,480,480,480,480,480,481,481,482,482,482,482,482,482,482,483,484,487,488,489,489,489,489,489,489,466,412,383,302,227,207,192,175,164,151,146,144,143,143,130,113,94],"timestamp_mouse":[10,20,45,61,80,101,121,141,161,181,202,221,241,262,282,300,320,342,362,381,402,421,441,461,481,501,522,541,562,580,602,621,641,661,681,700,722,741,761,781,801,822,841,860,880,900,921,942,962,981,1001,1022,1042,1061,1082,1101,1120,1142,1162,1181,1201,1221,1241,1262,1281,1300,1321,1342,1360,1381,1402,1422,1441,1462,1482,1501,1520,1541,1561,1582,1601,1622,1641,1660,1682,1702,1721,1741,1761,1780,1801,1822,1840,1860,1882,1900,1921,1942,1960,1980,2000,2020,2042,2060,2080,2101,2121,2143,2160,2181,2200,2221,2242,2261,2281],"xSR":741.5,"ySR":501.8,"xT1":424.9,"yT1":0,"xT2":1058.1,"yT2":0,"toosoon":0,"cond_shown":"randomdotsizeEA","ratio_trial":900,"smaller_num":"9","larger_num":"10","correct_side":2,"subjID":"segiomalagom32","gender":"0","age":"11","school":"6","test":{"fix_dur":[250,1500],"timestim":300,"targets_dim":[100,100],"targets_relative_coord":[0.3,0.7],"size_stim":[880,420],"start_dim":[100,100],"size_start":[300,300],"size_fix":60,"samplingrate":20,"img_types":["equaldotsize","equaldotanddens","randomdotsizeEA"],"ratios":[250,500,750,900],"rep_conds":9,"nTrials":120,"trials_to_rest":500,"Trials_order":[95,74,65,60,96,38,102,112,46,90,107,29,35,4,44,21,76,6,63,11,1,105,13,41,94,27,57,85,28,86,119,69,99,30,43,12,37,92,2,79,84,20,14,36,61,50,78,26,113,0,52,39,56,116,87,54,53,34,33,40,22,62,15,55,72,5,118,64,68,75,104,19,77,25,100,51,93,7,42,88,71,73,45,58,114,98,66,17,59,48,10,110,31,101,24,111,106,32,108,49,47,89,23,97,9,83,82,109,117,67,3,18,103,81,8,80,91,70,16,115],"cond_shown":["randomdotsizeEA","randomdotsizeEA","randomdotsizeEA","equaldotsize","equaldotsize","randomdotsizeEA","equaldotsize","equaldotanddens","equaldotanddens","equaldotsize","randomdotsizeEA","randomdotsizeEA","randomdotsizeEA","equaldotanddens","randomdotsizeEA","equaldotsize","equaldotanddens","equaldotsize","equaldotsize","randomdotsizeEA","equaldotanddens","equaldotsize","equaldotanddens","randomdotsizeEA","equaldotanddens","equaldotsize","equaldotsize","equaldotanddens","equaldotanddens","randomdotsizeEA","randomdotsizeEA","equaldotsize","equaldotsize","equaldotsize","equaldotanddens","equaldotsize","equaldotanddens","randomdotsizeEA","randomdotsizeEA","equaldotanddens","equaldotsize","randomdotsizeEA","randomdotsizeEA","equaldotsize","equaldotanddens","randomdotsizeEA","equaldotsize","randomdotsizeEA","randomdotsizeEA","equaldotsize","equaldotanddens","equaldotsize","randomdotsizeEA","randomdotsizeEA","equaldotsize","equaldotsize","randomdotsizeEA","equaldotanddens","equaldotsize","equaldotanddens","equaldotanddens","randomdotsizeEA","equaldotsize","equaldotanddens","equaldotsize","randomdotsizeEA","equaldotanddens","equaldotanddens","randomdotsizeEA","equaldotsize","randomdotsizeEA","equaldotanddens","randomdotsizeEA","equaldotanddens","equaldotanddens","equaldotsize","equaldotsize","equaldotanddens","equaldotsize","equaldotanddens","randomdotsizeEA","equaldotanddens","equaldotsize","equaldotanddens","equaldotsize","randomdotsizeEA","equaldotsize","randomdotsizeEA","randomdotsizeEA","equaldotsize","equaldotanddens","randomdotsizeEA","equaldotanddens","randomdotsizeEA","equaldotsize","equaldotsize","equaldotanddens","randomdotsizeEA","equaldotsize","equaldotanddens","randomdotsizeEA","randomdotsizeEA","randomdotsizeEA","equaldotanddens","equaldotsize","randomdotsizeEA","equaldotanddens","equaldotanddens","equaldotsize","equaldotanddens","equaldotsize","equaldotsize","equaldotanddens","equaldotsize","randomdotsizeEA","randomdotsizeEA","equaldotanddens","equaldotanddens","equaldotanddens","equaldotanddens"],"ratio_trial":[900,250,500,250,250,250,750,500,900,750,900,500,900,500,750,900,500,750,500,900,250,900,250,500,900,500,900,250,500,250,900,900,500,750,750,250,250,750,250,750,250,750,250,250,250,250,750,250,500,250,500,500,750,750,500,750,500,900,900,500,900,250,500,750,250,500,900,500,750,500,750,750,500,250,500,500,900,750,750,500,900,250,900,900,750,250,750,500,900,250,900,250,750,500,250,500,900,750,250,250,900,500,900,250,900,900,900,250,900,750,500,750,750,900,750,750,750,900,500,750],"smaller_num":["9","1","2","4","4","3","15","3","9","3","9","5","18","2","6","9","9","3","9","9","3","18","2","5","9","9","9","3","6","2","9","18","1","9","9","3","2","6","6","6","3","18","3","5","3","3","3","2","3","4","1","4","3","15","6","3","2","9","9","2","9","1","9","6","3","6","18","9","15","6","15","3","9","3","6","10","18","6","15","9","18","2","18","9","3","3","15","10","18","5","18","6","12","5","2","3","18","15","5","3","18","9","9","2","9","18","9","5","18","15","4","3","6","9","9","3","6","9","1","3"],"larger_num":["10","4","4","16","16","12","20","6","10","4","10","10","20","4","8","10","18","4","18","10","12","20","8","10","10","18","10","12","12","8","10","20","2","12","12","12","8","8","24","8","12","24","12","20","12","12","4","8","6","16","2","8","4","20","12","4","4","10","10","4","10","4","18","8","12","12","20","18","20","12","20","4","18","12","12","20","20","8","20","18","20","8","20","10","4","12","20","20","20","20","20","24","16","10","8","6","20","20","20","12","20","18","10","8","10","20","10","20","20","20","8","4","8","10","12","4","8","10","2","4"],"correct_side":[2,2,1,2,1,2,2,2,1,2,2,1,1,1,2,2,1,2,2,1,1,1,1,2,2,1,2,2,1,2,2,1,2,2,2,2,2,1,1,2,2,1,2,2,2,2,1,1,2,2,2,1,2,2,1,1,1,2,2,1,2,2,2,2,2,1,1,1,2,1,2,1,2,2,1,2,2,2,2,2,2,1,1,2,1,1,2,2,1,2,1,1,2,1,1,2,1,2,2,2,1,1,2,1,1,1,1,2,1,2,1,1,2,2,2,1,2,2,2,1],"img_shown":["img/900/randomdotsizeEA/R/3_Ratio_900_L_9_R_10.png","img/250/randomdotsizeEA/R/8_Ratio_250_L_1_R_4.png","img/500/randomdotsizeEA/L/5_Ratio_500_L_4_R_2.png","img/250/equaldotsize/R/10_Ratio_250_L_4_R_16.png","img/250/equaldotsize/L/2_Ratio_250_L_16_R_4.png","img/250/randomdotsizeEA/R/9_Ratio_250_L_3_R_12.png","img/750/equaldotsize/R/4_Ratio_750_L_15_R_20.png","img/500/equaldotanddens/R/2_Ratio_500_L_3_R_6.png","img/900/equaldotanddens/L/1_Ratio_900_L_10_R_9.png","img/750/equaldotsize/R/7_Ratio_750_L_3_R_4.png","img/900/randomdotsizeEA/R/3_Ratio_900_L_9_R_10.png","img/500/randomdotsizeEA/L/7_Ratio_500_L_10_R_5.png","img/900/randomdotsizeEA/L/2_Ratio_900_L_20_R_18.png","img/500/equaldotanddens/L/10_Ratio_500_L_4_R_2.png","img/750/randomdotsizeEA/R/2_Ratio_750_L_6_R_8.png","img/900/equaldotsize/R/5_Ratio_900_L_9_R_10.png","img/500/equaldotanddens/L/4_Ratio_500_L_18_R_9.png","img/750/equaldotsize/R/7_Ratio_750_L_3_R_4.png","img/500/equaldotsize/R/1_Ratio_500_L_9_R_18.png","img/900/randomdotsizeEA/L/1_Ratio_900_L_10_R_9.png","img/250/equaldotanddens/L/15_Ratio_250_L_12_R_3.png","img/900/equaldotsize/L/4_Ratio_900_L_20_R_18.png","img/250/equaldotanddens/L/3_Ratio_250_L_8_R_2.png","img/500/randomdotsizeEA/R/14_Ratio_500_L_5_R_10.png","img/900/equaldotanddens/R/15_Ratio_900_L_9_R_10.png","img/500/equaldotsize/L/4_Ratio_500_L_18_R_9.png","img/900/equaldotsize/R/5_Ratio_900_L_9_R_10.png","img/250/equaldotanddens/R/9_Ratio_250_L_3_R_12.png","img/500/equaldotanddens/L/11_Ratio_500_L_12_R_6.png","img/250/randomdotsizeEA/R/13_Ratio_250_L_2_R_8.png","img/900/randomdotsizeEA/R/3_Ratio_900_L_9_R_10.png","img/900/equaldotsize/L/2_Ratio_900_L_20_R_18.png","img/500/equaldotsize/R/12_Ratio_500_L_1_R_2.png","img/750/equaldotsize/R/15_Ratio_750_L_9_R_12.png","img/750/equaldotanddens/R/15_Ratio_750_L_9_R_12.png","img/250/equaldotsize/R/4_Ratio_250_L_3_R_12.png","img/250/equaldotanddens/R/13_Ratio_250_L_2_R_8.png","img/750/randomdotsizeEA/L/14_Ratio_750_L_8_R_6.png","img/250/randomdotsizeEA/L/5_Ratio_250_L_24_R_6.png","img/750/equaldotanddens/R/2_Ratio_750_L_6_R_8.png","img/250/equaldotsize/R/11_Ratio_250_L_3_R_12.png","img/750/randomdotsizeEA/L/6_Ratio_750_L_24_R_18.png","img/250/randomdotsizeEA/R/4_Ratio_250_L_3_R_12.png","img/250/equaldotsize/R/12_Ratio_250_L_5_R_20.png","img/250/equaldotanddens/R/11_Ratio_250_L_3_R_12.png","img/250/randomdotsizeEA/R/4_Ratio_250_L_3_R_12.png","img/750/equaldotsize/L/9_Ratio_750_L_4_R_3.png","img/250/randomdotsizeEA/L/7_Ratio_250_L_8_R_2.png","img/500/randomdotsizeEA/R/2_Ratio_500_L_3_R_6.png","img/250/equaldotsize/R/10_Ratio_250_L_4_R_16.png","img/500/equaldotanddens/R/15_Ratio_500_L_1_R_2.png","img/500/equaldotsize/L/8_Ratio_500_L_8_R_4.png","img/750/randomdotsizeEA/R/12_Ratio_750_L_3_R_4.png","img/750/randomdotsizeEA/R/4_Ratio_750_L_15_R_20.png","img/500/equaldotsize/L/11_Ratio_500_L_12_R_6.png","img/750/equaldotsize/L/8_Ratio_750_L_4_R_3.png","img/500/randomdotsizeEA/L/10_Ratio_500_L_4_R_2.png","img/900/equaldotanddens/R/15_Ratio_900_L_9_R_10.png","img/900/equaldotsize/R/15_Ratio_900_L_9_R_10.png","img/500/equaldotanddens/L/5_Ratio_500_L_4_R_2.png","img/900/equaldotanddens/R/3_Ratio_900_L_9_R_10.png","img/250/randomdotsizeEA/R/8_Ratio_250_L_1_R_4.png","img/500/equaldotsize/R/6_Ratio_500_L_9_R_18.png","img/750/equaldotanddens/R/2_Ratio_750_L_6_R_8.png","img/250/equaldotsize/R/11_Ratio_250_L_3_R_12.png","img/500/randomdotsizeEA/L/11_Ratio_500_L_12_R_6.png","img/900/equaldotanddens/L/10_Ratio_900_L_20_R_18.png","img/500/equaldotanddens/L/4_Ratio_500_L_18_R_9.png","img/750/randomdotsizeEA/R/4_Ratio_750_L_15_R_20.png","img/500/equaldotsize/L/11_Ratio_500_L_12_R_6.png","img/750/randomdotsizeEA/R/5_Ratio_750_L_15_R_20.png","img/750/equaldotanddens/L/10_Ratio_750_L_4_R_3.png","img/500/randomdotsizeEA/R/6_Ratio_500_L_9_R_18.png","img/250/equaldotanddens/R/4_Ratio_250_L_3_R_12.png","img/500/equaldotanddens/L/11_Ratio_500_L_12_R_6.png","img/500/equaldotsize/R/3_Ratio_500_L_10_R_20.png","img/900/equaldotsize/R/14_Ratio_900_L_18_R_20.png","img/750/equaldotanddens/R/2_Ratio_750_L_6_R_8.png","img/750/equaldotsize/R/3_Ratio_750_L_15_R_20.png","img/500/equaldotanddens/R/1_Ratio_500_L_9_R_18.png","img/900/randomdotsizeEA/R/13_Ratio_900_L_18_R_20.png","img/250/equaldotanddens/L/1_Ratio_250_L_8_R_2.png","img/900/equaldotsize/L/8_Ratio_900_L_20_R_18.png","img/900/equaldotanddens/R/6_Ratio_900_L_9_R_10.png","img/750/equaldotsize/L/9_Ratio_750_L_4_R_3.png","img/250/randomdotsizeEA/L/15_Ratio_250_L_12_R_3.png","img/750/equaldotsize/R/3_Ratio_750_L_15_R_20.png","img/500/randomdotsizeEA/R/3_Ratio_500_L_10_R_20.png","img/900/randomdotsizeEA/L/4_Ratio_900_L_20_R_18.png","img/250/equaldotsize/R/12_Ratio_250_L_5_R_20.png","img/900/equaldotanddens/L/2_Ratio_900_L_20_R_18.png","img/250/randomdotsizeEA/L/5_Ratio_250_L_24_R_6.png","img/750/equaldotanddens/R/11_Ratio_750_L_12_R_16.png","img/500/randomdotsizeEA/L/7_Ratio_500_L_10_R_5.png","img/250/equaldotsize/L/3_Ratio_250_L_8_R_2.png","img/500/equaldotsize/R/2_Ratio_500_L_3_R_6.png","img/900/equaldotanddens/L/10_Ratio_900_L_20_R_18.png","img/750/randomdotsizeEA/R/4_Ratio_750_L_15_R_20.png","img/250/equaldotsize/R/12_Ratio_250_L_5_R_20.png","img/250/equaldotanddens/R/4_Ratio_250_L_3_R_12.png","img/900/randomdotsizeEA/L/2_Ratio_900_L_20_R_18.png","img/500/randomdotsizeEA/L/4_Ratio_500_L_18_R_9.png","img/900/randomdotsizeEA/R/7_Ratio_900_L_9_R_10.png","img/250/equaldotanddens/L/3_Ratio_250_L_8_R_2.png","img/900/equaldotsize/L/1_Ratio_900_L_10_R_9.png","img/900/randomdotsizeEA/L/8_Ratio_900_L_20_R_18.png","img/900/equaldotanddens/L/1_Ratio_900_L_10_R_9.png","img/250/equaldotanddens/R/12_Ratio_250_L_5_R_20.png","img/900/equaldotsize/L/8_Ratio_900_L_20_R_18.png","img/750/equaldotanddens/R/5_Ratio_750_L_15_R_20.png","img/500/equaldotsize/L/8_Ratio_500_L_8_R_4.png","img/750/equaldotsize/L/8_Ratio_750_L_4_R_3.png","img/750/equaldotanddens/R/2_Ratio_750_L_6_R_8.png","img/900/equaldotsize/R/7_Ratio_900_L_9_R_10.png","img/750/randomdotsizeEA/R/15_Ratio_750_L_9_R_12.png","img/750/randomdotsizeEA/L/10_Ratio_750_L_4_R_3.png","img/750/equaldotanddens/R/2_Ratio_750_L_6_R_8.png","img/900/equaldotanddens/R/6_Ratio_900_L_9_R_10.png","img/500/equaldotanddens/R/15_Ratio_500_L_1_R_2.png","img/750/equaldotanddens/L/9_Ratio_750_L_4_R_3.png"],"Rat0":[["12_Ratio_0_L_9_R_0.png","13_Ratio_0_L_6_R_0.png","5_Ratio_0_L_2_R_0.png","6_Ratio_0_L_4_R_0.png","8_Ratio_0_L_6_R_0.png"],["1_Ratio_0_L_0_R_17.png","10_Ratio_0_L_0_R_22.png","11_Ratio_0_L_0_R_1.png","14_Ratio_0_L_0_R_24.png","15_Ratio_0_L_0_R_4.png","2_Ratio_0_L_0_R_5.png","3_Ratio_0_L_0_R_17.png","4_Ratio_0_L_0_R_7.png","7_Ratio_0_L_0_R_19.png","9_Ratio_0_L_0_R_15.png"]],"Rat250":[["1_Ratio_250_L_8_R_2.png","14_Ratio_250_L_12_R_3.png","15_Ratio_250_L_12_R_3.png","2_Ratio_250_L_16_R_4.png","3_Ratio_250_L_8_R_2.png","5_Ratio_250_L_24_R_6.png","7_Ratio_250_L_8_R_2.png"],["10_Ratio_250_L_4_R_16.png","11_Ratio_250_L_3_R_12.png","12_Ratio_250_L_5_R_20.png","13_Ratio_250_L_2_R_8.png","4_Ratio_250_L_3_R_12.png","6_Ratio_250_L_6_R_24.png","8_Ratio_250_L_1_R_4.png","9_Ratio_250_L_3_R_12.png"]],"Rat500":[["10_Ratio_500_L_4_R_2.png","11_Ratio_500_L_12_R_6.png","13_Ratio_500_L_12_R_6.png","4_Ratio_500_L_18_R_9.png","5_Ratio_500_L_4_R_2.png","7_Ratio_500_L_10_R_5.png","8_Ratio_500_L_8_R_4.png"],["1_Ratio_500_L_9_R_18.png","12_Ratio_500_L_1_R_2.png","14_Ratio_500_L_5_R_10.png","15_Ratio_500_L_1_R_2.png","2_Ratio_500_L_3_R_6.png","3_Ratio_500_L_10_R_20.png","6_Ratio_500_L_9_R_18.png","9_Ratio_500_L_2_R_4.png"]],"Rat750":[["1_Ratio_750_L_20_R_15.png","10_Ratio_750_L_4_R_3.png","13_Ratio_750_L_8_R_6.png","14_Ratio_750_L_8_R_6.png","6_Ratio_750_L_24_R_18.png","8_Ratio_750_L_4_R_3.png","9_Ratio_750_L_4_R_3.png"],["11_Ratio_750_L_12_R_16.png","12_Ratio_750_L_3_R_4.png","15_Ratio_750_L_9_R_12.png","2_Ratio_750_L_6_R_8.png","3_Ratio_750_L_15_R_20.png","4_Ratio_750_L_15_R_20.png","5_Ratio_750_L_15_R_20.png","7_Ratio_750_L_3_R_4.png"]],"Rat900":[["1_Ratio_900_L_10_R_9.png","10_Ratio_900_L_20_R_18.png","2_Ratio_900_L_20_R_18.png","4_Ratio_900_L_20_R_18.png","8_Ratio_900_L_20_R_18.png"],["11_Ratio_900_L_18_R_20.png","12_Ratio_900_L_18_R_20.png","13_Ratio_900_L_18_R_20.png","14_Ratio_900_L_18_R_20.png","15_Ratio_900_L_9_R_10.png","3_Ratio_900_L_9_R_10.png","5_Ratio_900_L_9_R_10.png","6_Ratio_900_L_9_R_10.png","7_Ratio_900_L_9_R_10.png","9_Ratio_900_L_18_R_20.png"]],"Rat1000":[["10_Ratio_1000_L_16_R_16.png","11_Ratio_1000_L_6_R_6.png","12_Ratio_1000_L_14_R_14.png","13_Ratio_1000_L_20_R_20.png","15_Ratio_1000_L_15_R_15.png","2_Ratio_1000_L_17_R_17.png","4_Ratio_1000_L_9_R_9.png","5_Ratio_1000_L_6_R_6.png","6_Ratio_1000_L_19_R_19.png","8_Ratio_1000_L_14_R_14.png","9_Ratio_1000_L_25_R_25.png"],["1_Ratio_1000_L_1_R_1.png","14_Ratio_1000_L_17_R_17.png","3_Ratio_1000_L_17_R_17.png","7_Ratio_1000_L_6_R_6.png"]]}},{"start_time":1551900248427,"click_time":1551900250425,"finger_time":1551900249786,"fix_duration":900.5843364247885,"trial":1,"RT":1359,"MT":639,"sideResp":2,"stimulus":"img/250/randomdotsizeEA/R/8_Ratio_250_L_1_R_4.png","xmouse":[805,805,805,805,805,805,805,805,805,805,805,805,805,805,805,805,805,805,805,805,805,805,805,805,805,805,805,805,805,805,805,805,805,805,805,805,805,805,805,805,805,805,805,805,805,805,805,805,805,805,805,805,805,805,805,805,805,805,805,805,805,805,805,805,808,811,820,868,893,921,950,992,1055,1069,1078,1085,1087,1098,1103,1107,1112,1115,1115,1113,1112,1111,1109,1108,1108,1108,1108,1108,1108,1108,1108,1108,1108,1108,1108,1109],"ymouse":[488,488,488,488,488,488,488,488,488,488,488,488,488,488,488,488,488,488,488,488,488,488,488,488,488,488,488,488,488,488,488,488,488,488,488,488,488,488,488,488,488,488,488,488,488,488,488,488,488,488,488,488,488,488,488,488,488,488,488,488,488,488,488,487,486,486,484,478,473,464,456,435,396,385,373,358,347,297,271,242,214,190,164,157,152,147,129,114,114,114,114,114,108,105,103,101,100,100,100,99],"timestamp_mouse":[19,39,60,87,99,120,138,159,180,200,219,240,259,280,298,319,339,359,380,399,419,440,459,479,498,520,540,558,578,600,620,639,659,678,699,719,740,759,779,799,819,838,860,880,899,919,940,959,979,998,1019,1040,1059,1078,1098,1120,1140,1159,1179,1200,1219,1238,1258,1279,1298,1318,1339,1359,1378,1398,1418,1438,1459,1479,1499,1518,1538,1560,1578,1599,1619,1638,1660,1678,1699,1720,1739,1760,1778,1798,1819,1838,1859,1878,1899,1919,1938,1959,1979,1998],"xSR":741.5,"ySR":469.95,"xT1":424.9,"yT1":0,"xT2":1058.1,"yT2":0,"toosoon":0,"cond_shown":"randomdotsizeEA","ratio_trial":250,"smaller_num":"1","larger_num":"4","correct_side":2,"subjID":"segiomalagom32","gender":"0","age":"11","school":"6"},{"start_time":1551900252257,"click_time":1551900253266,"finger_time":1551900253047,"fix_duration":890.6045835690531,"trial":2,"RT":790,"MT":219,"sideResp":1,"stimulus":"img/500/randomdotsizeEA/L/5_Ratio_500_L_4_R_2.png","xmouse":[781,781,781,781,781,781,781,781,781,781,781,781,781,781,781,781,781,781,781,781,781,781,781,781,781,781,781,781,781,781,781,781,781,781,781,781,781,780,761,732,690,638,556,528,514,502,500,497,495,491,485],"ymouse":[536,536,536,536,536,536,536,536,536,536,536,536,536,536,536,536,536,536,536,536,536,536,536,536,536,536,536,536,536,536,536,536,536,536,536,536,536,530,501,464,406,340,215,179,153,132,128,122,118,111,99],"timestamp_mouse":[13,28,49,69,88,108,128,148,168,189,209,230,248,269,288,308,328,349,370,389,409,429,450,469,488,510,529,549,570,590,609,630,649,668,690,710,730,750,769,790,808,828,848,870,889,909,928,948,969,989,1009],"xSR":741.5,"ySR":469.95,"xT1":424.9,"yT1":0,"xT2":1058.1,"yT2":0,"toosoon":0,"cond_shown":"randomdotsizeEA","ratio_trial":500,"smaller_num":"2","larger_num":"4","correct_side":1,"subjID":"segiomalagom32","gender":"0","age":"11","school":"6"},{"start_time":1551900255033,"click_time":1551900256106,"finger_time":1551900255786,"fix_duration":885.4205487167609,"trial":3,"RT":753,"MT":320,"sideResp":2,"stimulus":"img/250/equaldotsize/R/10_Ratio_250_L_4_R_16.png","xmouse":[806,806,806,806,806,806,806,806,806,806,806,806,806,806,806,806,806,806,806,806,806,806,806,806,806,806,806,806,806,806,806,806,806,806,806,808,816,843,920,944,965,982,999,1049,1068,1086,1099,1105,1108,1108,1108,1108,1108,1108],"ymouse":[504,505,505,505,505,505,505,505,505,505,505,505,505,505,505,505,505,505,505,505,505,505,505,505,505,505,505,505,505,505,505,505,505,505,505,505,504,492,461,448,434,421,405,361,336,298,259,225,178,163,150,136,120,80],"timestamp_mouse":[12,33,58,74,92,113,134,153,172,193,214,234,253,272,293,312,333,354,373,392,414,434,452,474,492,514,533,553,573,593,613,632,653,674,693,713,733,753,773,793,812,832,853,873,893,913,934,954,973,992,1012,1032,1053,1073],"xSR":741.5,"ySR":469.95,"xT1":424.9,"yT1":0,"xT2":1058.1,"yT2":0,"toosoon":0,"cond_shown":"equaldotsize","ratio_trial":250,"smaller_num":"4","larger_num":"16","correct_side":2,"subjID":"segiomalagom32","gender":"0","age":"11","school":"6"},{"start_time":1551900258433,"click_time":1551900259326,"finger_time":1551900259106,"fix_duration":1226.8046413567438,"trial":4,"RT":673,"MT":220,"sideResp":1,"stimulus":"img/250/equaldotsize/L/2_Ratio_250_L_16_R_4.png","xmouse":[811,811,811,811,811,811,811,811,811,811,811,811,811,811,811,811,811,811,811,811,811,811,811,811,811,811,811,811,811,811,811,795,749,631,586,569,563,561,559,552,546,540,528,512,503],"ymouse":[510,510,510,510,510,510,510,510,510,510,510,510,510,510,510,510,510,510,510,510,510,510,510,510,510,510,510,510,510,511,511,507,481,404,369,350,334,316,302,273,256,236,194,128,98],"timestamp_mouse":[13,33,53,73,92,114,133,153,172,193,214,232,253,273,293,313,333,354,373,393,414,434,453,473,494,514,534,553,572,593,613,633,653,673,692,713,732,752,773,792,813,833,854,874,893],"xSR":741.5,"ySR":469.95,"xT1":424.9,"yT1":0,"xT2":1058.1,"yT2":0,"toosoon":0,"cond_shown":"equaldotsize","ratio_trial":250,"smaller_num":"4","larger_num":"16","correct_side":1,"subjID":"segiomalagom32","gender":"0","age":"11","school":"6"},{"start_time":1551900260538,"click_time":1551900261725,"finger_time":1551900261425,"fix_duration":409.91056224650356,"trial":5,"RT":887,"MT":300,"sideResp":2,"stimulus":"img/250/randomdotsizeEA/R/9_Ratio_250_L_3_R_12.png","xmouse":[773,773,773,773,773,773,773,773,773,773,773,773,773,773,773,773,773,773,773,773,773,773,773,773,773,773,773,773,773,773,773,773,773,773,773,773,773,773,773,773,776,786,796,813,879,930,989,1039,1057,1058,1061,1063,1065,1070,1087,1100,1107,1111,1112,1117],"ymouse":[505,505,505,505,505,505,505,505,505,505,505,505,505,505,505,505,505,505,505,505,505,505,505,505,505,505,505,505,505,505,505,505,505,505,505,505,505,505,505,505,505,505,505,501,464,433,398,362,339,332,323,316,302,283,240,195,167,142,119,79],"timestamp_mouse":[10,28,48,69,88,108,129,147,168,189,208,227,248,267,288,307,329,348,368,388,409,428,448,467,487,509,528,548,568,589,609,628,648,669,688,709,728,748,769,787,808,829,847,868,887,908,928,949,969,987,1008,1028,1048,1068,1087,1108,1129,1148,1168,1187],"xSR":741.5,"ySR":469.95,"xT1":424.9,"yT1":0,"xT2":1058.1,"yT2":0,"toosoon":0,"cond_shown":"randomdotsizeEA","ratio_trial":250,"smaller_num":"3","larger_num":"12","correct_side":2,"subjID":"segiomalagom32","gender":"0","age":"11","school":"6"},{"start_time":1551900263173,"click_time":1551900264226,"finger_time":1551900263925,"fix_duration":506.1674882531588,"trial":6,"RT":752,"MT":301,"sideResp":2,"stimulus":"img/750/equaldotsize/R/4_Ratio_750_L_15_R_20.png","xmouse":[787,787,787,787,787,787,787,787,787,787,787,787,787,787,787,787,787,787,787,787,787,787,787,787,787,787,787,787,787,787,787,787,787,787,787,796,804,850,891,938,967,991,1032,1061,1078,1093,1105,1119,1122,1122,1122,1121,1111],"ymouse":[529,529,529,529,529,529,529,529,529,529,529,529,529,529,529,529,529,529,529,529,529,529,529,529,529,529,529,529,529,529,529,529,529,529,529,517,509,466,435,401,377,358,323,295,274,250,226,184,164,145,128,111,85],"timestamp_mouse":[13,33,53,83,92,113,132,152,173,193,213,232,254,274,294,313,333,354,372,394,413,432,454,473,494,513,532,554,574,593,612,632,654,673,693,713,732,752,773,793,813,834,853,873,893,914,933,952,974,992,1013,1033,1052],"xSR":741.5,"ySR":469.95,"xT1":424.9,"yT1":0,"xT2":1058.1,"yT2":0,"toosoon":0,"cond_shown":"equaldotsize","ratio_trial":750,"smaller_num":"15","larger_num":"20","correct_side":2,"subjID":"segiomalagom32","gender":"0","age":"11","school":"6"},{"start_time":1551900266390,"click_time":1551900267527,"finger_time":1551900267086,"fix_duration":1324.2409128636907,"trial":7,"RT":696,"MT":441,"sideResp":2,"stimulus":"img/500/equaldotanddens/R/2_Ratio_500_L_3_R_6.png","xmouse":[798,798,798,798,798,798,798,798,798,798,798,798,798,798,798,798,798,798,798,798,798,798,798,798,798,798,798,798,798,798,798,800,814,832,860,893,912,940,954,978,1002,1044,1052,1058,1061,1063,1067,1081,1087,1090,1092,1092,1092,1094,1095,1099,1103],"ymouse":[542,542,542,542,542,542,542,542,542,542,542,542,542,542,542,542,542,542,542,542,542,542,542,542,542,542,542,542,542,542,542,538,518,499,480,465,451,419,397,362,326,250,232,218,205,192,178,148,138,130,127,126,124,120,113,104,93],"timestamp_mouse":[16,40,57,76,97,116,136,156,176,196,217,235,255,276,296,316,336,356,377,396,415,437,455,476,496,516,537,557,577,595,617,636,655,675,696,715,736,755,777,795,815,836,855,875,896,915,936,955,975,996,1016,1037,1057,1075,1096,1117,1136],"xSR":741.5,"ySR":469.95,"xT1":424.9,"yT1":0,"xT2":1058.1,"yT2":0,"toosoon":0,"cond_shown":"equaldotanddens","ratio_trial":500,"smaller_num":"3","larger_num":"6","correct_side":2,"subjID":"segiomalagom32","gender":"0","age":"11","school":"6"},{"start_time":1551900269842,"click_time":1551900270905,"finger_time":1551900270565,"fix_duration":1414.3522863840112,"trial":8,"RT":723,"MT":340,"sideResp":1,"stimulus":"img/900/equaldotanddens/L/1_Ratio_900_L_10_R_9.png","xmouse":[769,769,769,769,769,769,769,769,769,769,769,769,769,769,769,769,769,769,769,769,769,769,769,769,769,769,769,769,769,769,769,769,769,769,769,758,732,709,695,682,652,636,625,609,569,558,557,555,553,548,546,539,528,519],"ymouse":[509,509,509,509,509,509,509,509,509,509,509,509,509,509,509,509,509,509,509,509,509,509,509,509,509,509,509,509,509,509,509,509,509,509,509,492,463,432,406,377,268,228,184,142,80,62,60,55,51,49,49,49,48,48],"timestamp_mouse":[9,24,43,68,84,104,124,143,163,183,203,225,243,264,285,303,324,344,365,384,404,425,443,463,484,504,523,544,563,584,605,625,643,663,684,703,723,743,764,784,803,823,844,864,885,904,924,944,965,985,1003,1025,1043,1063],"xSR":741.5,"ySR":469.95,"xT1":424.9,"yT1":0,"xT2":1058.1,"yT2":0,"toosoon":0,"cond_shown":"equaldotanddens","ratio_trial":900,"smaller_num":"9","larger_num":"10","correct_side":1,"subjID":"segiomalagom32","gender":"0","age":"11","school":"6"},{"start_time":1551900273150,"click_time":1551900274531,"finger_time":1551900274046,"fix_duration":903.8929109011058,"trial":9,"RT":896,"MT":485,"sideResp":2,"stimulus":"img/750/equaldotsize/R/7_Ratio_750_L_3_R_4.png","xmouse":[785,785,785,785,785,785,785,785,785,785,785,785,785,785,785,785,785,785,785,785,785,785,785,785,785,785,785,785,785,785,785,785,785,785,785,785,785,786,790,805,808,809,811,815,843,862,881,900,914,929,946,947,947,947,947,947,947,948,951,963,975,988,1002,1013,1043,1053,1061,1067,1072],"ymouse":[534,534,534,534,534,534,534,534,534,534,534,534,534,534,534,534,534,534,534,534,534,534,534,534,534,534,534,534,534,534,534,534,534,534,534,534,534,524,519,502,499,497,495,491,469,453,439,423,406,388,364,363,363,363,363,363,363,362,360,340,321,298,269,240,173,146,123,103,78],"timestamp_mouse":[15,35,56,76,95,115,137,155,175,197,216,236,257,277,295,316,336,356,376,395,416,435,456,475,497,516,536,556,576,596,616,637,656,676,696,716,736,755,776,795,815,837,856,875,896,915,936,955,975,996,1015,1036,1056,1077,1096,1117,1135,1156,1175,1196,1216,1235,1256,1277,1296,1315,1335,1355,1381],"xSR":741.5,"ySR":469.95,"xT1":424.9,"yT1":0,"xT2":1058.1,"yT2":0,"toosoon":0,"cond_shown":"equaldotsize","ratio_trial":750,"smaller_num":"3","larger_num":"4","correct_side":2,"subjID":"segiomalagom32","gender":"0","age":"11","school":"6"},{"start_time":1551900276906,"click_time":1551900278186,"finger_time":1551900277726,"fix_duration":1457.4091273351366,"trial":10,"RT":820,"MT":460,"sideResp":2,"stimulus":"img/900/randomdotsizeEA/R/3_Ratio_900_L_9_R_10.png","xmouse":[774,774,774,774,774,774,774,774,774,774,774,774,774,774,774,774,775,775,775,775,775,775,775,775,775,775,775,775,775,775,775,775,775,775,775,775,775,784,796,810,827,851,888,914,944,968,988,1015,1025,1033,1037,1042,1043,1045,1046,1050,1054,1058,1068,1077,1083,1087,1087,1088,1088],"ymouse":[530,530,530,530,530,530,530,530,530,530,530,530,530,530,530,530,531,531,531,531,531,531,531,531,531,531,531,531,531,531,531,531,531,531,531,531,531,523,511,500,486,462,399,356,312,267,231,192,181,174,170,165,164,163,163,162,160,155,142,129,117,109,104,101,99],"timestamp_mouse":[9,21,40,61,81,101,121,139,160,179,201,219,239,259,280,299,320,340,361,380,401,419,440,460,481,500,520,540,559,580,600,621,640,659,679,699,719,741,759,780,800,820,842,859,879,900,919,942,959,980,1000,1020,1039,1061,1080,1099,1121,1140,1159,1180,1200,1220,1241,1260,1280],"xSR":741.5,"ySR":469.95,"xT1":424.9,"yT1":0,"xT2":1058.1,"yT2":0,"toosoon":0,"cond_shown":"randomdotsizeEA","ratio_trial":900,"smaller_num":"9","larger_num":"10","correct_side":2,"subjID":"segiomalagom32","gender":"0","age":"11","school":"6"},{"start_time":1551900279898,"click_time":1551900281165,"finger_time":1551900280766,"fix_duration":871.1970381035449,"trial":11,"RT":868,"MT":399,"sideResp":1,"stimulus":"img/500/randomdotsizeEA/L/7_Ratio_500_L_10_R_5.png","xmouse":[832,832,832,832,832,832,832,832,832,832,832,832,832,832,832,832,832,832,832,832,832,832,832,832,832,832,832,832,832,832,832,832,832,832,832,832,832,832,832,821,796,772,752,722,701,672,631,593,542,530,529,529,530,530,530,530,527,527,524,521,517,513,511,509],"ymouse":[543,543,543,543,543,543,543,543,543,543,543,543,543,543,543,543,543,543,543,543,543,543,543,543,543,543,543,543,543,543,543,543,543,543,543,543,543,543,543,534,522,508,500,484,473,452,425,390,322,292,273,252,228,180,160,148,138,133,125,120,113,106,101,95],"timestamp_mouse":[9,34,48,68,87,108,129,147,168,187,209,229,249,268,288,307,329,348,368,388,409,429,447,468,488,508,529,549,569,587,607,628,649,669,687,709,729,747,767,787,808,828,847,868,888,909,928,948,968,987,1009,1027,1049,1068,1087,1108,1129,1148,1167,1188,1209,1227,1248,1267],"xSR":741.5,"ySR":469.95,"xT1":424.9,"yT1":0,"xT2":1058.1,"yT2":0,"toosoon":0,"cond_shown":"randomdotsizeEA","ratio_trial":500,"smaller_num":"5","larger_num":"10","correct_side":1,"subjID":"segiomalagom32","gender":"0","age":"11","school":"6"},{"start_time":1551900282866,"click_time":1551900283987,"finger_time":1551900283746,"fix_duration":917.461205623912,"trial":12,"RT":880,"MT":241,"sideResp":1,"stimulus":"img/900/randomdotsizeEA/L/2_Ratio_900_L_20_R_18.png","xmouse":[797,797,797,797,797,797,797,797,797,797,797,797,797,797,797,797,797,797,797,797,797,797,797,797,797,797,797,797,797,797,797,797,797,797,797,797,797,797,800,800,799,789,777,764,748,709,696,684,673,663,627,616,611,606,595,539,524],"ymouse":[530,530,530,530,530,530,530,530,530,530,530,530,530,530,530,530,530,530,530,530,530,530,530,530,530,530,530,530,530,530,530,530,530,530,530,530,530,530,527,526,511,500,486,474,455,401,378,355,336,321,294,284,275,259,231,125,88],"timestamp_mouse":[11,20,41,59,79,100,120,139,160,181,201,220,239,260,281,299,321,340,359,381,400,421,440,459,480,501,520,540,560,580,599,619,639,659,680,700,721,741,760,780,800,820,839,859,880,900,920,940,961,979,999,1020,1040,1060,1081,1100,1121],"xSR":741.5,"ySR":469.95,"xT1":424.9,"yT1":0,"xT2":1058.1,"yT2":0,"toosoon":0,"cond_shown":"randomdotsizeEA","ratio_trial":900,"smaller_num":"18","larger_num":"20","correct_side":1,"subjID":"segiomalagom32","gender":"0","age":"11","school":"6"},{"start_time":1551900286160,"click_time":1551900287068,"finger_time":1551900286767,"fix_duration":1351.6791937270502,"trial":13,"RT":607,"MT":301,"sideResp":1,"stimulus":"img/500/equaldotanddens/L/10_Ratio_500_L_4_R_2.png","xmouse":[779,779,779,779,779,779,779,779,779,779,779,779,779,779,779,779,779,779,779,779,779,779,779,779,779,779,779,774,770,762,741,728,709,670,647,590,574,562,553,547,541,530,528,527,525,518],"ymouse":[535,535,535,535,535,535,535,535,535,535,535,535,535,535,535,535,535,535,535,535,535,535,535,535,535,535,535,527,521,511,482,459,426,370,323,235,206,185,169,157,143,121,112,108,98,83],"timestamp_mouse":[10,25,45,69,86,107,126,145,166,187,206,226,246,265,286,307,325,347,365,387,406,426,446,465,486,506,525,546,565,585,607,625,646,666,685,708,725,746,765,786,805,825,846,867,886,907],"xSR":741.5,"ySR":469.95,"xT1":424.9,"yT1":0,"xT2":1058.1,"yT2":0,"toosoon":0,"cond_shown":"equaldotanddens","ratio_trial":500,"smaller_num":"2","larger_num":"4","correct_side":1,"subjID":"segiomalagom32","gender":"0","age":"11","school":"6"},{"start_time":1551900289485,"click_time":1551900290565,"finger_time":1551900290145,"fix_duration":1056.939269195622,"trial":14,"RT":660,"MT":420,"sideResp":2,"stimulus":"img/750/randomdotsizeEA/R/2_Ratio_750_L_6_R_8.png","xmouse":[791,791,791,791,791,791,791,791,790,790,790,790,790,790,790,790,790,790,790,790,790,790,790,790,790,790,790,790,791,793,804,816,832,848,861,894,918,948,980,1008,1030,1032,1035,1037,1038,1046,1049,1049,1049,1049,1049,1049,1050,1058,1065],"ymouse":[477,477,477,477,477,477,477,478,484,498,522,526,526,526,526,526,526,526,526,526,526,526,526,526,526,526,526,526,526,525,515,506,494,479,460,390,350,306,264,228,196,188,182,176,169,148,137,137,137,137,122,108,91,69,47],"timestamp_mouse":[10,22,41,62,80,100,122,140,161,180,200,221,241,262,280,301,321,340,361,381,402,420,440,462,481,500,521,542,562,580,600,620,641,660,681,701,721,741,761,782,800,821,842,862,880,900,922,941,960,980,1001,1022,1041,1061,1080],"xSR":741.5,"ySR":469.95,"xT1":424.9,"yT1":0,"xT2":1058.1,"yT2":0,"toosoon":0,"cond_shown":"randomdotsizeEA","ratio_trial":750,"smaller_num":"6","larger_num":"8","correct_side":2,"subjID":"segiomalagom32","gender":"0","age":"11","school":"6"},{"start_time":1551900291978,"click_time":1551900292926,"finger_time":1551900292805,"fix_duration":290.9417846830825,"trial":15,"RT":827,"MT":121,"sideResp":2,"stimulus":"img/900/equaldotsize/R/5_Ratio_900_L_9_R_10.png","xmouse":[772,772,772,772,772,772,772,772,772,772,772,772,772,772,772,772,772,772,772,772,772,772,772,772,772,772,772,772,772,772,772,772,772,772,772,772,772,772,775,781,807,820,845,877,915,1004,1062,1123],"ymouse":[541,541,541,541,541,541,541,541,541,541,541,541,541,541,541,541,541,541,541,541,541,541,541,541,541,541,541,541,541,541,541,541,541,541,541,541,541,541,538,529,486,464,422,366,306,192,137,86],"timestamp_mouse":[10,28,47,67,87,119,127,149,167,187,208,228,247,267,287,308,327,347,367,387,409,429,448,467,488,508,529,549,568,589,608,628,648,668,687,707,729,748,767,787,807,827,847,868,887,908,927,947],"xSR":741.5,"ySR":469.95,"xT1":424.9,"yT1":0,"xT2":1058.1,"yT2":0,"toosoon":0,"cond_shown":"equaldotsize","ratio_trial":900,"smaller_num":"9","larger_num":"10","correct_side":2,"subjID":"segiomalagom32","gender":"0","age":"11","school":"6"},{"start_time":1551900295387,"click_time":1551900296306,"finger_time":1551900295985,"fix_duration":580.365103754557,"trial":16,"RT":598,"MT":321,"sideResp":1,"stimulus":"img/500/equaldotanddens/L/4_Ratio_500_L_18_R_9.png","xmouse":[815,815,815,815,815,815,815,815,815,815,815,815,815,815,815,815,815,815,816,817,817,817,817,817,817,817,817,809,794,740,612,553,517,498,486,479,478,478,478,478,478,479,479,479,479,480],"ymouse":[520,520,520,520,520,520,520,520,520,520,520,520,520,520,520,520,520,519,514,513,513,513,513,513,513,513,513,510,508,495,431,385,336,297,261,200,171,149,135,132,128,122,114,106,102,96],"timestamp_mouse":[19,49,58,79,99,118,140,160,179,198,220,240,258,279,300,319,339,358,378,398,420,438,459,478,500,520,539,558,579,598,618,639,658,678,699,718,739,758,778,798,818,839,859,878,898,919],"xSR":741.5,"ySR":469.95,"xT1":424.9,"yT1":0,"xT2":1058.1,"yT2":0,"toosoon":0,"cond_shown":"equaldotanddens","ratio_trial":500,"smaller_num":"9","larger_num":"18","correct_side":1,"subjID":"segiomalagom32","gender":"0","age":"11","school":"6"},{"start_time":1551900298774,"click_time":1551900299826,"finger_time":1551900299447,"fix_duration":1466.3072809893379,"trial":17,"RT":673,"MT":379,"sideResp":2,"stimulus":"img/750/equaldotsize/R/7_Ratio_750_L_3_R_4.png","xmouse":[786,786,786,786,786,786,786,786,786,786,786,786,786,786,786,786,786,786,786,786,786,786,786,786,786,786,786,786,786,786,791,816,830,844,858,874,951,967,982,997,1015,1035,1038,1040,1040,1040,1041,1044,1047,1049,1051,1062,1074],"ymouse":[518,518,518,518,518,518,518,518,518,518,518,518,518,518,518,518,518,518,518,518,518,518,518,518,518,518,518,518,518,518,518,508,499,489,475,459,400,375,337,305,282,245,231,218,204,188,156,136,130,125,119,102,90],"timestamp_mouse":[15,44,52,72,91,113,132,151,173,193,211,232,251,273,292,312,331,353,372,391,412,431,452,472,493,513,534,553,571,591,613,632,651,673,693,712,732,752,772,792,811,832,851,872,892,913,931,952,972,991,1013,1031,1052],"xSR":741.5,"ySR":469.95,"xT1":424.9,"yT1":0,"xT2":1058.1,"yT2":0,"toosoon":0,"cond_shown":"equaldotsize","ratio_trial":750,"smaller_num":"3","larger_num":"4","correct_side":2,"subjID":"segiomalagom32","gender":"0","age":"11","school":"6"},{"start_time":1551900301294,"click_time":1551900303287,"finger_time":1551900302625,"fix_duration":486.6084677024779,"trial":18,"RT":1331,"MT":662,"sideResp":2,"stimulus":"img/500/equaldotsize/R/1_Ratio_500_L_9_R_18.png","xmouse":[815,815,815,815,815,815,815,815,815,815,815,815,815,815,815,815,815,815,815,815,815,815,815,815,815,815,815,815,815,815,815,815,815,815,815,815,815,815,815,815,815,815,815,815,815,815,815,815,815,815,815,815,815,815,815,815,815,815,815,815,815,815,815,815,818,838,864,900,925,945,957,957,957,957,957,957,957,957,957,961,975,987,998,1006,1012,1015,1020,1021,1022,1023,1026,1029,1035,1039,1043,1046,1047,1050,1053,1062],"ymouse":[519,519,519,519,519,519,519,519,519,519,519,519,519,519,519,519,519,519,519,519,519,519,519,519,519,519,519,519,519,519,519,519,519,519,519,519,519,519,519,519,519,519,519,519,519,519,519,519,519,519,519,519,519,519,519,519,519,519,519,519,519,519,519,519,518,502,478,447,424,405,390,390,390,390,390,390,390,390,390,383,354,336,311,281,257,232,195,189,186,180,158,144,130,118,110,105,103,102,101,97],"timestamp_mouse":[11,32,51,72,93,111,132,152,171,191,212,233,253,273,291,312,331,351,372,391,413,431,451,473,492,511,532,553,573,592,623,631,652,671,691,711,733,751,773,792,812,831,853,871,891,911,932,951,973,991,1012,1031,1051,1071,1093,1113,1133,1152,1173,1193,1212,1231,1252,1272,1291,1312,1331,1351,1371,1392,1413,1431,1451,1472,1492,1512,1532,1551,1572,1592,1612,1631,1652,1672,1693,1711,1731,1751,1771,1792,1812,1831,1852,1871,1893,1913,1931,1951,1972,1993],"xSR":741.5,"ySR":469.95,"xT1":424.9,"yT1":0,"xT2":1058.1,"yT2":0,"toosoon":0,"cond_shown":"equaldotsize","ratio_trial":500,"smaller_num":"9","larger_num":"18","correct_side":2,"subjID":"segiomalagom32","gender":"0","age":"11","school":"6"},{"start_time":1551900304378,"click_time":1551900306065,"finger_time":1551900305826,"fix_duration":250,"trial":19,"RT":1448,"MT":239,"sideResp":1,"stimulus":"img/900/randomdotsizeEA/L/1_Ratio_900_L_10_R_9.png","xmouse":[786,786,786,786,786,786,786,786,786,786,786,786,786,787,789,789,789,789,790,790,790,790,790,790,790,790,790,790,790,790,790,790,790,790,790,790,790,790,790,790,790,790,790,790,791,792,793,794,794,794,794,794,794,794,794,794,790,788,788,788,788,788,787,787,786,786,786,786,786,786,782,777,740,703,685,669,647,606,597,585,567,545,531,526,521],"ymouse":[502,502,502,502,502,502,502,502,502,502,502,502,502,503,504,504,504,505,505,505,505,505,505,505,505,505,505,505,505,505,505,505,505,505,505,505,505,505,505,505,505,505,505,505,505,502,495,494,494,494,494,494,494,494,494,493,493,493,493,493,493,493,495,499,500,500,500,500,500,500,501,501,466,422,402,382,346,237,184,136,83,44,18,7,1],"timestamp_mouse":[8,27,49,67,89,109,128,148,167,189,208,227,248,267,288,309,328,348,367,387,409,427,448,469,489,508,527,549,568,588,608,627,648,668,687,708,729,748,767,787,807,829,848,868,887,907,927,949,968,987,1008,1028,1049,1068,1089,1108,1127,1148,1167,1188,1208,1228,1248,1267,1288,1308,1327,1347,1368,1388,1407,1429,1448,1468,1487,1507,1527,1547,1568,1589,1609,1628,1647,1668,1687],"xSR":741.5,"ySR":469.95,"xT1":424.9,"yT1":0,"xT2":1058.1,"yT2":0,"toosoon":0,"cond_shown":"randomdotsizeEA","ratio_trial":900,"smaller_num":"9","larger_num":"10","correct_side":1,"subjID":"segiomalagom32","gender":"0","age":"11","school":"6"},{"start_time":1551900307257,"click_time":1551900308367,"finger_time":1551900307886,"fix_duration":250,"trial":20,"RT":629,"MT":481,"sideResp":1,"stimulus":"img/250/equaldotanddens/L/15_Ratio_250_L_12_R_3.png","xmouse":[781,792,799,805,805,807,807,807,807,807,807,807,807,807,807,807,807,807,807,807,807,807,807,807,807,807,807,807,807,797,774,736,684,606,590,579,571,559,534,520,514,507,497,467,451,436,427,424,422,421,420,420,420,420,422,427],"ymouse":[519,520,521,522,522,523,523,523,523,523,523,523,523,523,523,523,523,523,523,523,523,523,523,523,523,523,523,523,523,523,518,502,476,426,411,398,389,373,349,335,321,304,282,237,214,190,169,154,119,107,99,95,91,88,87,87],"timestamp_mouse":[10,29,48,84,89,108,129,149,168,188,209,230,248,269,288,310,330,349,368,390,408,429,449,470,489,509,528,548,570,589,610,629,649,668,688,708,728,750,768,789,809,830,848,869,888,908,930,948,969,988,1008,1029,1049,1068,1088,1110],"xSR":741.5,"ySR":469.95,"xT1":424.9,"yT1":0,"xT2":1058.1,"yT2":0,"toosoon":0,"cond_shown":"equaldotanddens","ratio_trial":250,"smaller_num":"3","larger_num":"12","correct_side":1,"subjID":"segiomalagom32","gender":"0","age":"11","school":"6"},{"start_time":1551900311257,"click_time":1551900312345,"finger_time":1551900312025,"fix_duration":250,"trial":21,"RT":768,"MT":320,"sideResp":1,"stimulus":"img/900/equaldotsize/L/4_Ratio_900_L_20_R_18.png","xmouse":[806,806,806,806,806,806,806,806,806,806,806,806,806,806,806,806,806,806,806,806,806,806,806,806,806,806,806,806,806,806,806,806,806,806,805,802,785,762,728,691,668,646,631,612,584,579,578,578,570,563,556,550,541,530,510],"ymouse":[507,507,507,507,507,507,507,507,507,507,507,507,507,507,507,507,507,507,507,507,507,507,507,507,507,507,507,507,507,507,507,507,507,507,507,507,507,501,488,458,434,409,383,343,245,201,191,158,119,103,88,78,67,56,43],"timestamp_mouse":[10,37,48,69,90,110,129,149,169,188,209,229,250,270,289,309,329,350,369,389,409,428,449,469,489,510,528,548,569,590,609,629,648,670,688,708,728,750,768,788,809,828,848,869,889,909,928,948,970,988,1009,1029,1049,1068,1088],"xSR":741.5,"ySR":469.95,"xT1":424.9,"yT1":0,"xT2":1058.1,"yT2":0,"toosoon":0,"cond_shown":"equaldotsize","ratio_trial":900,"smaller_num":"18","larger_num":"20","correct_side":1,"subjID":"segiomalagom32","gender":"0","age":"11","school":"6"},{"start_time":1551900313761,"click_time":1551900314406,"finger_time":1551900314265,"fix_duration":613.1981791447229,"trial":22,"RT":504,"MT":141,"sideResp":1,"stimulus":"img/250/equaldotanddens/L/3_Ratio_250_L_8_R_2.png","xmouse":[793,793,793,793,793,793,793,793,793,793,793,793,793,793,793,793,793,793,793,793,793,793,793,792,758,707,638,583,561,533,497,478,458],"ymouse":[519,519,519,519,519,519,519,519,519,519,519,519,519,519,519,519,519,519,519,519,519,519,519,519,501,470,432,400,383,334,219,131,53],"timestamp_mouse":[11,26,45,64,84,105,125,144,165,186,205,224,244,265,286,304,325,345,366,386,404,425,445,466,485,504,525,544,565,585,605,624,645],"xSR":741.5,"ySR":469.95,"xT1":424.9,"yT1":0,"xT2":1058.1,"yT2":0,"toosoon":0,"cond_shown":"equaldotanddens","ratio_trial":250,"smaller_num":"2","larger_num":"8","correct_side":1,"subjID":"segiomalagom32","gender":"0","age":"11","school":"6"},{"start_time":1551900315640,"click_time":1551900316765,"finger_time":1551900315946,"fix_duration":471.49119386827584,"trial":23,"RT":306,"MT":819,"sideResp":2,"stimulus":"img/500/randomdotsizeEA/R/14_Ratio_500_L_5_R_10.png","xmouse":[798,798,798,798,798,798,798,798,798,798,798,798,798,792,785,728,694,670,652,640,619,606,597,591,587,586,586,586,586,586,586,586,586,586,586,586,586,586,586,586,592,614,648,680,705,737,771,804,843,865,900,925,981,1047,1090,1138,1148],"ymouse":[523,523,523,523,523,523,523,523,523,523,523,523,523,520,514,475,450,429,414,402,379,369,360,354,351,349,349,349,349,349,349,349,349,349,349,349,349,349,349,348,348,355,365,371,374,376,376,374,361,352,326,307,273,224,180,112,92],"timestamp_mouse":[6,26,47,65,86,106,127,147,165,186,206,226,247,265,286,306,327,346,366,385,405,425,446,465,486,506,526,546,567,585,605,625,646,666,686,705,725,745,766,786,806,826,846,867,887,906,927,946,966,987,1006,1026,1045,1066,1086,1105,1125],"xSR":741.5,"ySR":469.95,"xT1":424.9,"yT1":0,"xT2":1058.1,"yT2":0,"toosoon":0,"cond_shown":"randomdotsizeEA","ratio_trial":500,"smaller_num":"5","larger_num":"10","correct_side":2,"subjID":"segiomalagom32","gender":"0","age":"11","school":"6"},{"start_time":1551900318629,"click_time":1551900319826,"finger_time":1551900319586,"fix_duration":1121.017014261752,"trial":24,"RT":957,"MT":240,"sideResp":2,"stimulus":"img/900/equaldotanddens/R/15_Ratio_900_L_9_R_10.png","xmouse":[795,795,795,795,795,795,795,795,795,795,795,795,795,795,795,795,795,795,795,795,795,795,795,795,795,795,795,795,795,795,795,795,795,795,795,795,795,795,795,795,795,795,798,803,808,827,840,848,862,885,955,1022,1078,1103,1127,1139,1143,1146,1149,1153],"ymouse":[542,542,542,542,542,542,542,542,542,542,542,542,542,542,542,542,542,542,542,542,542,542,542,542,542,542,542,542,542,542,542,542,542,542,542,542,542,542,541,541,541,541,537,532,527,509,499,491,480,464,426,386,337,299,239,184,158,134,111,86],"timestamp_mouse":[17,39,56,76,97,116,136,158,177,197,217,236,256,277,298,317,336,356,377,398,418,436,456,477,497,516,538,556,578,597,616,637,658,678,697,716,737,758,777,796,816,837,858,877,897,917,938,957,976,996,1018,1036,1057,1078,1096,1117,1136,1158,1177,1197],"xSR":741.5,"ySR":469.95,"xT1":424.9,"yT1":0,"xT2":1058.1,"yT2":0,"toosoon":0,"cond_shown":"equaldotanddens","ratio_trial":900,"smaller_num":"9","larger_num":"10","correct_side":2,"subjID":"segiomalagom32","gender":"0","age":"11","school":"6"},{"start_time":1551900322105,"click_time":1551900323107,"finger_time":1551900322666,"fix_duration":1319.371829303553,"trial":25,"RT":561,"MT":441,"sideResp":1,"stimulus":"img/500/equaldotsize/L/4_Ratio_500_L_18_R_9.png","xmouse":[805,805,805,805,805,805,805,805,805,805,805,805,805,805,805,805,805,805,805,805,805,805,805,805,805,805,805,800,729,633,586,567,553,536,534,534,534,534,533,533,537,537,537,535,533,531,524,519,504,499,496],"ymouse":[537,537,537,537,537,537,537,537,537,537,537,537,537,537,537,537,537,537,537,537,537,537,537,537,537,537,537,533,502,458,434,417,399,366,357,346,332,319,301,295,283,273,251,240,228,214,193,174,127,109,93],"timestamp_mouse":[9,20,42,67,81,102,120,140,162,181,202,221,241,262,281,301,321,341,360,382,401,421,441,460,481,502,522,541,561,581,600,620,641,661,681,702,720,740,760,780,801,821,842,860,882,901,920,940,960,981,1002],"xSR":741.5,"ySR":469.95,"xT1":424.9,"yT1":0,"xT2":1058.1,"yT2":0,"toosoon":0,"cond_shown":"equaldotsize","ratio_trial":500,"smaller_num":"9","larger_num":"18","correct_side":1,"subjID":"segiomalagom32","gender":"0","age":"11","school":"6"},{"start_time":1551900324179,"click_time":1551900325385,"finger_time":1551900324907,"fix_duration":250,"trial":26,"RT":728,"MT":478,"sideResp":2,"stimulus":"img/900/equaldotsize/R/5_Ratio_900_L_9_R_10.png","xmouse":[809,809,809,809,809,809,809,809,809,809,809,809,809,809,809,809,809,809,809,809,809,809,809,809,809,809,809,809,809,809,809,809,809,809,809,821,851,884,906,935,952,973,988,1001,1038,1048,1054,1056,1056,1056,1056,1056,1056,1058,1063,1064,1064,1066,1067,1069,1071],"ymouse":[522,522,522,522,522,522,522,522,522,522,522,522,522,522,522,522,522,522,522,522,522,522,522,522,522,522,522,522,522,522,522,522,522,522,522,517,507,491,476,441,421,397,378,356,285,261,238,223,215,205,197,187,178,165,133,125,120,114,110,101,94],"timestamp_mouse":[12,42,46,66,87,107,127,148,167,187,207,227,246,268,288,308,328,347,366,388,408,427,447,466,486,507,528,548,566,587,606,627,646,667,686,706,728,747,768,786,806,826,846,866,887,906,927,948,968,986,1006,1026,1047,1068,1087,1108,1127,1147,1167,1186,1206],"xSR":741.5,"ySR":469.95,"xT1":424.9,"yT1":0,"xT2":1058.1,"yT2":0,"toosoon":0,"cond_shown":"equaldotsize","ratio_trial":900,"smaller_num":"9","larger_num":"10","correct_side":2,"subjID":"segiomalagom32","gender":"0","age":"11","school":"6"},{"start_time":1551900327740,"click_time":1551900328666,"finger_time":1551900328366,"fix_duration":1473.6778853460335,"trial":27,"RT":626,"MT":300,"sideResp":2,"stimulus":"img/250/equaldotanddens/R/9_Ratio_250_L_3_R_12.png","xmouse":[808,808,808,808,808,808,808,808,808,808,808,808,808,808,808,808,808,808,808,808,808,808,808,808,808,808,808,808,808,812,832,887,977,996,1010,1024,1042,1050,1056,1058,1060,1061,1062,1062,1064,1065,1079],"ymouse":[527,527,527,527,527,527,527,527,527,527,527,527,527,527,527,527,527,527,527,527,527,527,527,527,527,527,527,527,527,525,520,511,487,452,381,271,186,164,147,137,130,119,115,109,106,103,98],"timestamp_mouse":[9,26,45,73,85,106,125,147,167,187,206,227,245,266,287,306,326,346,367,387,406,426,446,466,485,507,526,545,566,586,605,626,646,665,686,707,726,745,765,787,807,827,845,866,885,906,926],"xSR":741.5,"ySR":469.95,"xT1":424.9,"yT1":0,"xT2":1058.1,"yT2":0,"toosoon":0,"cond_shown":"equaldotanddens","ratio_trial":250,"smaller_num":"3","larger_num":"12","correct_side":2,"subjID":"segiomalagom32","gender":"0","age":"11","school":"6"},{"start_time":1551900330130,"click_time":1551900331346,"finger_time":1551900330687,"fix_duration":663.0423372486325,"trial":28,"RT":557,"MT":659,"sideResp":1,"stimulus":"img/500/equaldotanddens/L/11_Ratio_500_L_12_R_6.png","xmouse":[789,789,789,789,789,789,789,789,789,789,789,789,789,789,789,789,789,789,789,789,789,789,789,789,789,786,774,729,700,668,638,587,571,560,552,549,547,546,545,543,541,539,538,537,537,537,537,537,538,538,539,540,540,540,540,540,540,540,540,540,520],"ymouse":[533,533,533,533,533,533,533,533,533,533,533,533,533,533,533,533,533,533,533,533,533,533,533,533,533,530,511,448,406,362,307,219,190,169,148,135,124,94,81,67,57,41,36,31,24,20,16,10,6,5,2,0,0,0,0,0,0,0,0,0,7],"timestamp_mouse":[15,45,55,76,95,115,137,156,176,197,216,236,255,277,297,316,336,357,375,396,415,436,456,475,497,515,535,557,576,596,616,638,655,676,696,716,736,755,777,796,815,837,855,876,897,916,936,956,975,996,1016,1036,1055,1076,1095,1117,1137,1155,1176,1196,1216],"xSR":741.5,"ySR":469.95,"xT1":424.9,"yT1":0,"xT2":1058.1,"yT2":0,"toosoon":0,"cond_shown":"equaldotanddens","ratio_trial":500,"smaller_num":"6","larger_num":"12","correct_side":1,"subjID":"segiomalagom32","gender":"0","age":"11","school":"6"},{"start_time":1551900333629,"click_time":1551900334546,"finger_time":1551900334265,"fix_duration":1001.1762011329796,"trial":29,"RT":636,"MT":281,"sideResp":2,"stimulus":"img/250/randomdotsizeEA/R/13_Ratio_250_L_2_R_8.png","xmouse":[783,783,783,783,783,783,783,783,783,783,783,783,783,783,783,783,783,783,783,783,783,783,783,783,783,783,783,783,783,797,823,860,929,959,987,1020,1048,1096,1107,1113,1117,1118,1122,1124,1124,1124],"ymouse":[532,532,532,532,532,532,532,532,532,532,532,532,532,532,532,532,532,532,532,532,532,532,532,532,532,532,532,532,532,519,491,454,386,353,321,293,268,216,199,187,173,161,132,117,106,97],"timestamp_mouse":[17,44,58,77,97,117,137,157,178,196,217,237,258,276,297,317,337,357,376,397,417,437,456,477,497,517,537,556,578,597,616,636,657,676,697,716,736,757,776,797,817,838,857,877,896,917],"xSR":741.5,"ySR":469.95,"xT1":424.9,"yT1":0,"xT2":1058.1,"yT2":0,"toosoon":0,"cond_shown":"randomdotsizeEA","ratio_trial":250,"smaller_num":"2","larger_num":"8","correct_side":2,"subjID":"segiomalagom32","gender":"0","age":"11","school":"6"},{"start_time":1551900336528,"click_time":1551900337487,"finger_time":1551900337147,"fix_duration":1240.7228408009398,"trial":30,"RT":619,"MT":340,"sideResp":1,"stimulus":"img/900/randomdotsizeEA/R/3_Ratio_900_L_9_R_10.png","xmouse":[811,811,811,811,811,811,811,811,811,811,811,811,811,811,811,811,811,811,811,811,811,811,811,811,811,811,811,811,811,797,766,737,689,671,652,636,617,583,569,560,551,546,533,525,516,508,501,493],"ymouse":[514,514,514,514,514,514,514,514,514,514,514,514,514,514,514,514,514,514,514,514,514,514,514,514,514,514,514,514,514,497,462,431,390,375,361,350,339,315,304,293,277,263,219,190,160,132,105,68],"timestamp_mouse":[17,38,58,77,97,118,139,157,178,198,218,239,257,278,298,317,339,359,378,399,418,438,458,477,498,518,539,558,578,598,619,638,659,677,698,719,738,758,778,798,818,838,859,877,899,918,939,958],"xSR":741.5,"ySR":469.95,"xT1":424.9,"yT1":0,"xT2":1058.1,"yT2":0,"toosoon":0,"cond_shown":"randomdotsizeEA","ratio_trial":900,"smaller_num":"9","larger_num":"10","correct_side":2,"subjID":"segiomalagom32","gender":"0","age":"11","school":"6"},{"start_time":1551900340893,"click_time":1551900342345,"finger_time":1551900341825,"fix_duration":264.8892251200009,"trial":31,"RT":932,"MT":520,"sideResp":1,"stimulus":"img/900/equaldotsize/L/2_Ratio_900_L_20_R_18.png","xmouse":[799,799,799,799,799,799,799,799,799,799,799,799,799,799,799,799,799,799,799,799,799,799,799,799,799,799,799,799,799,799,799,799,799,799,799,799,799,799,801,803,807,807,807,808,808,817,829,852,878,892,909,909,909,909,909,878,845,804,771,745,701,695,690,678,662,609,586,570,563,559,545,534,524],"ymouse":[539,539,539,539,539,539,539,539,539,539,539,539,539,539,539,539,539,539,539,539,539,539,539,539,539,539,539,539,539,539,539,539,539,539,539,539,533,531,526,520,511,510,509,509,507,483,456,407,360,337,303,301,301,301,300,300,300,300,300,300,293,291,285,267,245,183,152,123,103,86,52,38,29],"timestamp_mouse":[18,35,52,73,92,113,134,153,174,193,214,233,253,272,293,313,333,353,374,393,412,434,453,472,494,514,532,553,572,592,614,633,653,673,693,714,733,754,772,792,813,832,852,874,893,913,932,952,973,994,1013,1033,1052,1073,1092,1112,1133,1153,1173,1193,1212,1234,1253,1273,1293,1313,1333,1353,1374,1394,1412,1433,1452],"xSR":741.5,"ySR":469.95,"xT1":424.9,"yT1":0,"xT2":1058.1,"yT2":0,"toosoon":0,"cond_shown":"equaldotsize","ratio_trial":900,"smaller_num":"18","larger_num":"20","correct_side":1,"subjID":"segiomalagom32","gender":"0","age":"11","school":"6"},{"start_time":1551900344610,"click_time":1551900345607,"finger_time":1551900345267,"fix_duration":1402.193398360144,"trial":32,"RT":657,"MT":340,"sideResp":2,"stimulus":"img/500/equaldotsize/R/12_Ratio_500_L_1_R_2.png","xmouse":[795,795,795,795,795,795,795,795,795,795,795,795,795,795,795,795,795,795,795,795,795,795,795,795,795,795,795,795,795,795,795,807,871,969,1192,1271,1304,1313,1315,1316,1316,1316,1315,1295,1249,1226,1209,1193,1177,1157],"ymouse":[547,547,547,547,547,547,547,547,547,547,547,547,547,547,547,547,547,547,547,547,547,547,547,547,547,547,547,547,547,547,547,536,475,403,261,206,170,152,143,133,124,113,99,73,49,46,44,42,40,36],"timestamp_mouse":[17,36,62,77,95,116,137,155,176,195,217,236,256,277,297,316,336,357,375,396,417,435,456,477,496,516,537,557,576,595,617,637,657,676,696,715,736,757,777,797,815,836,855,876,896,915,937,957,977,996],"xSR":741.5,"ySR":469.95,"xT1":424.9,"yT1":0,"xT2":1058.1,"yT2":0,"toosoon":0,"cond_shown":"equaldotsize","ratio_trial":500,"smaller_num":"1","larger_num":"2","correct_side":2,"subjID":"segiomalagom32","gender":"0","age":"11","school":"6"},{"start_time":1551900347628,"click_time":1551900348885,"finger_time":1551900348486,"fix_duration":1140.5171161999747,"trial":33,"RT":858,"MT":399,"sideResp":1,"stimulus":"img/750/equaldotsize/R/15_Ratio_750_L_9_R_12.png","xmouse":[792,792,792,792,792,792,792,792,792,792,792,792,792,792,792,792,792,792,792,792,792,792,792,792,792,792,792,792,792,792,792,792,792,792,792,792,792,792,792,792,778,762,743,725,698,686,671,660,648,621,608,587,580,563,556,547,541,535,530,521,510,504,498],"ymouse":[531,531,531,531,531,531,531,531,531,531,531,531,531,531,531,531,531,531,531,531,531,531,531,531,531,531,531,531,531,531,531,531,531,531,531,531,531,531,531,526,505,483,464,441,404,388,370,357,343,312,295,270,253,218,198,180,165,152,141,123,108,102,96],"timestamp_mouse":[18,40,58,79,98,118,138,159,179,197,217,238,259,277,297,318,339,359,379,398,417,439,459,479,498,519,539,559,578,597,618,639,658,679,698,718,738,758,778,798,819,839,858,878,898,919,938,959,977,997,1017,1038,1058,1080,1097,1119,1138,1159,1177,1198,1219,1237,1257],"xSR":741.5,"ySR":469.95,"xT1":424.9,"yT1":0,"xT2":1058.1,"yT2":0,"toosoon":0,"cond_shown":"equaldotsize","ratio_trial":750,"smaller_num":"9","larger_num":"12","correct_side":2,"subjID":"segiomalagom32","gender":"0","age":"11","school":"6"},{"start_time":1551900350973,"click_time":1551900352187,"finger_time":1551900351785,"fix_duration":666.1910463702776,"trial":34,"RT":812,"MT":402,"sideResp":2,"stimulus":"img/750/equaldotanddens/R/15_Ratio_750_L_9_R_12.png","xmouse":[787,787,787,787,787,787,787,787,787,787,787,787,787,787,787,787,787,787,787,787,787,787,787,788,789,789,789,789,789,789,789,789,789,789,789,789,789,792,802,816,841,869,941,967,985,999,1012,1032,1040,1050,1061,1072,1096,1102,1106,1108,1109,1111,1113,1114,1115],"ymouse":[515,515,515,515,515,515,515,515,515,515,515,515,515,515,515,515,515,515,515,515,515,515,511,508,508,508,508,508,508,508,508,508,508,508,508,508,508,503,493,482,466,446,382,356,336,317,301,279,268,253,235,216,168,152,142,136,132,121,111,100,89],"timestamp_mouse":[12,32,52,74,92,112,134,152,172,192,213,234,254,273,294,314,333,353,372,393,412,433,453,473,492,513,532,554,574,593,613,634,654,672,693,714,733,753,772,792,812,833,853,872,893,913,934,953,972,993,1012,1033,1052,1073,1093,1113,1133,1152,1172,1193,1214],"xSR":741.5,"ySR":469.95,"xT1":424.9,"yT1":0,"xT2":1058.1,"yT2":0,"toosoon":0,"cond_shown":"equaldotanddens","ratio_trial":750,"smaller_num":"9","larger_num":"12","correct_side":2,"subjID":"segiomalagom32","gender":"0","age":"11","school":"6"},{"start_time":1551900354629,"click_time":1551900355605,"finger_time":1551900355265,"fix_duration":1380.2251242551931,"trial":35,"RT":636,"MT":340,"sideResp":2,"stimulus":"img/250/equaldotsize/R/4_Ratio_250_L_3_R_12.png","xmouse":[820,820,820,820,820,820,820,820,820,820,820,820,820,820,820,820,820,820,820,820,820,820,820,820,820,820,820,820,819,823,836,857,885,921,998,1026,1045,1058,1076,1093,1099,1102,1105,1107,1107,1107,1107,1107,1107],"ymouse":[536,536,536,536,536,536,536,536,536,536,536,536,536,536,536,536,536,536,536,536,536,536,536,536,536,536,536,536,534,524,510,488,459,427,354,326,304,280,251,213,191,172,152,135,118,112,109,104,98],"timestamp_mouse":[17,36,61,76,97,117,138,158,177,197,216,236,258,276,296,316,337,358,377,398,418,437,456,477,498,517,536,557,578,597,617,636,658,678,697,717,736,756,776,798,817,837,858,878,898,916,936,956,976],"xSR":741.5,"ySR":469.95,"xT1":424.9,"yT1":0,"xT2":1058.1,"yT2":0,"toosoon":0,"cond_shown":"equaldotsize","ratio_trial":250,"smaller_num":"3","larger_num":"12","correct_side":2,"subjID":"segiomalagom32","gender":"0","age":"11","school":"6"},{"start_time":1551900357743,"click_time":1551900359206,"finger_time":1551900358927,"fix_duration":1136.9991918491307,"trial":36,"RT":1184,"MT":279,"sideResp":2,"stimulus":"img/250/equaldotanddens/R/13_Ratio_250_L_2_R_8.png","xmouse":[820,820,820,820,820,820,820,820,820,820,820,820,820,820,820,820,820,820,820,820,820,820,820,820,820,820,820,820,820,820,820,820,820,820,820,820,820,820,820,820,820,820,820,820,820,820,820,820,820,820,820,820,820,820,820,824,829,833,839,845,873,906,917,931,950,982,993,1003,1014,1026,1061,1090,1108,1121],"ymouse":[515,515,515,515,515,515,515,515,515,515,515,515,515,515,515,515,515,515,515,515,515,515,515,515,515,515,515,515,515,515,515,515,515,515,515,515,515,515,515,515,515,515,515,515,515,515,515,515,515,515,515,515,515,515,515,512,508,505,500,495,475,451,437,424,409,379,365,352,336,319,253,175,127,86],"timestamp_mouse":[10,24,42,62,82,103,122,142,163,183,204,222,242,264,284,303,324,342,363,384,404,422,443,464,484,503,524,542,564,583,603,624,644,663,682,704,723,743,763,784,803,823,842,862,883,904,922,943,964,982,1002,1023,1043,1062,1082,1104,1122,1143,1164,1184,1202,1223,1243,1263,1283,1302,1324,1342,1362,1382,1402,1423,1443,1463],"xSR":741.5,"ySR":469.95,"xT1":424.9,"yT1":0,"xT2":1058.1,"yT2":0,"toosoon":0,"cond_shown":"equaldotanddens","ratio_trial":250,"smaller_num":"2","larger_num":"8","correct_side":2,"subjID":"segiomalagom32","gender":"0","age":"11","school":"6"},{"start_time":1551900360471,"click_time":1551900361585,"finger_time":1551900361207,"fix_duration":443.4346646430518,"trial":37,"RT":736,"MT":378,"sideResp":1,"stimulus":"img/750/randomdotsizeEA/L/14_Ratio_750_L_8_R_6.png","xmouse":[771,771,771,771,771,770,770,770,770,770,770,770,770,770,770,770,770,770,770,770,770,770,770,770,770,770,770,770,770,770,770,770,770,761,754,745,735,726,715,706,690,667,623,468,438,421,398,386,385,390,393,399,401,416,423,434],"ymouse":[530,530,530,530,530,530,530,530,530,530,530,530,530,530,530,530,530,530,530,530,530,530,530,530,530,530,530,530,530,530,530,530,530,525,523,520,518,516,511,504,494,473,432,273,208,156,102,73,37,23,17,12,11,10,10,10],"timestamp_mouse":[16,36,55,75,95,114,135,155,174,194,215,236,254,274,294,315,334,354,374,395,416,436,455,475,494,516,536,555,575,595,615,635,655,675,696,715,736,756,775,795,816,835,856,875,895,916,935,956,975,996,1015,1035,1054,1074,1095,1114],"xSR":741.5,"ySR":469.95,"xT1":424.9,"yT1":0,"xT2":1058.1,"yT2":0,"toosoon":0,"cond_shown":"randomdotsizeEA","ratio_trial":750,"smaller_num":"6","larger_num":"8","correct_side":1,"subjID":"segiomalagom32","gender":"0","age":"11","school":"6"},{"start_time":1551900363372,"click_time":1551900364147,"finger_time":1551900364006,"fix_duration":842.2359866858648,"trial":38,"RT":634,"MT":141,"sideResp":1,"stimulus":"img/250/randomdotsizeEA/L/5_Ratio_250_L_24_R_6.png","xmouse":[804,804,804,804,804,804,804,804,804,804,804,804,804,804,804,804,804,804,804,804,804,804,804,804,804,804,804,804,804,803,775,743,686,597,570,549,524,503,491],"ymouse":[537,537,537,537,537,537,537,537,537,537,537,537,537,537,537,537,537,537,537,537,537,537,537,537,537,537,537,537,537,531,499,450,390,267,222,178,140,104,75],"timestamp_mouse":[16,33,53,75,93,114,134,154,175,194,214,234,255,275,293,314,335,354,374,393,415,433,455,473,494,515,534,555,574,593,614,634,654,675,693,713,733,753,775],"xSR":741.5,"ySR":469.95,"xT1":424.9,"yT1":0,"xT2":1058.1,"yT2":0,"toosoon":0,"cond_shown":"randomdotsizeEA","ratio_trial":250,"smaller_num":"6","larger_num":"24","correct_side":1,"subjID":"segiomalagom32","gender":"0","age":"11","school":"6"},{"start_time":1551900365259,"click_time":1551900366166,"finger_time":1551900365965,"fix_duration":250,"trial":39,"RT":706,"MT":201,"sideResp":2,"stimulus":"img/750/equaldotanddens/R/2_Ratio_750_L_6_R_8.png","xmouse":[814,814,814,814,814,814,814,814,814,814,814,814,814,814,814,814,814,814,814,814,814,814,814,814,814,814,814,814,814,814,814,814,814,814,832,858,895,934,975,1038,1058,1062,1067,1070,1077,1085],"ymouse":[525,525,525,525,525,525,525,525,525,525,525,525,525,525,525,525,525,525,525,525,525,525,525,525,525,525,525,525,525,525,525,525,525,525,516,496,466,427,374,260,199,183,147,129,114,93],"timestamp_mouse":[7,27,48,67,87,107,128,148,166,187,206,226,247,266,288,307,326,346,368,387,406,428,446,467,486,508,528,548,566,587,608,627,646,668,688,706,727,746,767,789,807,828,846,867,886,907],"xSR":741.5,"ySR":469.95,"xT1":424.9,"yT1":0,"xT2":1058.1,"yT2":0,"toosoon":0,"cond_shown":"equaldotanddens","ratio_trial":750,"smaller_num":"6","larger_num":"8","correct_side":2,"subjID":"segiomalagom32","gender":"0","age":"11","school":"6"},{"start_time":1551900368226,"click_time":1551900368886,"finger_time":1551900368806,"fix_duration":1436.0234792452793,"trial":40,"RT":580,"MT":80,"sideResp":2,"stimulus":"img/250/equaldotsize/R/11_Ratio_250_L_3_R_12.png","xmouse":[803,803,803,803,803,803,803,803,803,803,803,803,803,803,803,803,803,803,803,803,803,803,803,803,803,803,803,808,823,846,892,955,1068,1082],"ymouse":[532,532,532,532,532,532,532,532,532,532,532,532,532,532,532,532,532,532,532,532,532,532,532,532,532,532,532,524,508,482,430,358,138,67],"timestamp_mouse":[1,22,54,59,81,100,121,140,159,179,201,221,239,260,280,300,320,340,360,381,399,421,440,459,479,500,520,539,559,580,601,620,640,660],"xSR":741.5,"ySR":469.95,"xT1":424.9,"yT1":0,"xT2":1058.1,"yT2":0,"toosoon":0,"cond_shown":"equaldotsize","ratio_trial":250,"smaller_num":"3","larger_num":"12","correct_side":2,"subjID":"segiomalagom32","gender":"0","age":"11","school":"6"},{"start_time":1551900370505,"click_time":1551900371506,"finger_time":1551900371186,"fix_duration":698.524590866675,"trial":41,"RT":681,"MT":320,"sideResp":1,"stimulus":"img/750/randomdotsizeEA/L/6_Ratio_750_L_24_R_18.png","xmouse":[805,805,805,805,805,805,805,805,805,805,805,805,805,805,805,805,805,805,805,805,805,805,805,805,805,805,805,805,805,805,805,805,805,787,752,698,639,597,558,548,538,529,522,515,515,513,510,508,489,478,469],"ymouse":[495,495,495,495,495,495,495,495,495,495,495,495,495,495,495,495,495,495,495,495,495,495,495,495,495,495,495,495,495,495,495,495,496,483,452,420,384,353,304,281,259,236,217,200,195,188,179,168,121,101,85],"timestamp_mouse":[9,20,56,61,81,102,122,141,160,182,200,220,241,262,281,301,322,340,361,382,402,422,441,461,482,501,522,540,560,581,601,622,640,660,681,702,721,740,762,780,801,822,841,861,880,900,920,940,961,981,1001],"xSR":741.5,"ySR":469.95,"xT1":424.9,"yT1":0,"xT2":1058.1,"yT2":0,"toosoon":0,"cond_shown":"randomdotsizeEA","ratio_trial":750,"smaller_num":"18","larger_num":"24","correct_side":1,"subjID":"segiomalagom32","gender":"0","age":"11","school":"6"},{"start_time":1551900372772,"click_time":1551900373647,"finger_time":1551900373345,"fix_duration":524.761293787534,"trial":42,"RT":573,"MT":302,"sideResp":2,"stimulus":"img/250/randomdotsizeEA/R/4_Ratio_250_L_3_R_12.png","xmouse":[775,775,775,775,775,775,775,775,775,775,775,775,775,775,775,775,775,775,775,775,775,775,775,775,775,779,795,826,873,986,1029,1064,1094,1117,1141,1147,1154,1157,1160,1160,1160,1160,1160,1158],"ymouse":[513,513,513,513,513,513,513,513,513,513,513,513,513,513,513,513,513,513,513,513,513,513,513,513,513,513,513,507,491,444,420,388,348,302,248,226,203,177,145,58,30,18,17,16],"timestamp_mouse":[14,49,54,73,93,114,134,154,174,194,214,234,254,274,295,315,333,353,374,394,413,434,454,473,493,513,534,554,573,595,614,634,653,673,695,713,734,754,774,796,814,834,855,875],"xSR":741.5,"ySR":469.95,"xT1":424.9,"yT1":0,"xT2":1058.1,"yT2":0,"toosoon":0,"cond_shown":"randomdotsizeEA","ratio_trial":250,"smaller_num":"3","larger_num":"12","correct_side":2,"subjID":"segiomalagom32","gender":"0","age":"11","school":"6"},{"start_time":1551900376703,"click_time":1551900377565,"finger_time":1551900377186,"fix_duration":313.3483388332463,"trial":43,"RT":483,"MT":379,"sideResp":2,"stimulus":"img/250/equaldotsize/R/12_Ratio_250_L_5_R_20.png","xmouse":[809,809,809,809,809,809,809,809,809,809,809,809,809,809,809,809,809,809,809,809,809,809,820,829,868,883,899,923,943,998,1026,1049,1062,1073,1081,1082,1082,1083,1083,1085,1087,1089,1095,1101],"ymouse":[517,517,517,517,517,517,517,517,517,517,517,517,517,517,517,517,517,517,517,517,517,517,515,514,499,484,463,428,393,312,269,231,209,190,175,172,171,169,166,155,141,126,109,94],"timestamp_mouse":[11,24,42,62,82,104,122,143,162,183,204,224,244,263,283,302,324,344,363,383,403,422,444,464,483,503,523,543,563,583,602,622,642,664,682,704,723,743,762,782,803,823,842,862],"xSR":741.5,"ySR":469.95,"xT1":424.9,"yT1":0,"xT2":1058.1,"yT2":0,"toosoon":0,"cond_shown":"equaldotsize","ratio_trial":250,"smaller_num":"5","larger_num":"20","correct_side":2,"subjID":"segiomalagom32","gender":"0","age":"11","school":"6"},{"start_time":1551900378705,"click_time":1551900379706,"finger_time":1551900379346,"fix_duration":316.4179653432838,"trial":44,"RT":641,"MT":360,"sideResp":2,"stimulus":"img/250/equaldotanddens/R/11_Ratio_250_L_3_R_12.png","xmouse":[776,776,776,776,776,776,778,780,781,781,781,781,781,781,781,781,781,781,781,781,781,781,781,781,781,781,781,781,781,790,810,838,868,895,944,970,986,1003,1017,1039,1048,1055,1060,1063,1070,1074,1079,1084,1090,1107,1118],"ymouse":[539,539,539,539,539,539,539,539,539,539,539,539,539,539,539,539,539,539,539,539,539,539,539,539,539,539,539,539,539,533,523,507,486,461,392,355,331,306,289,255,240,224,209,196,175,165,155,144,133,103,85],"timestamp_mouse":[5,20,41,64,80,101,120,141,160,181,201,220,242,261,280,300,321,342,360,380,401,421,441,460,481,500,522,541,562,581,602,620,641,662,680,700,721,741,761,780,800,820,840,860,881,900,921,941,961,982,1001],"xSR":741.5,"ySR":469.95,"xT1":424.9,"yT1":0,"xT2":1058.1,"yT2":0,"toosoon":0,"cond_shown":"equaldotanddens","ratio_trial":250,"smaller_num":"3","larger_num":"12","correct_side":2,"subjID":"segiomalagom32","gender":"0","age":"11","school":"6"},{"start_time":1551900383325,"click_time":1551900384126,"finger_time":1551900383806,"fix_duration":818.0599256037814,"trial":45,"RT":481,"MT":320,"sideResp":2,"stimulus":"img/250/randomdotsizeEA/R/4_Ratio_250_L_3_R_12.png","xmouse":[798,798,798,798,798,798,798,798,798,798,798,798,798,798,798,798,798,798,798,798,798,798,801,818,858,872,886,900,915,956,985,1023,1044,1063,1078,1078,1078,1079,1079,1083,1093],"ymouse":[513,513,513,513,513,513,513,513,513,513,513,513,513,513,513,513,513,513,513,513,513,513,513,511,503,497,484,469,449,396,361,304,269,239,211,209,209,208,205,152,88],"timestamp_mouse":[10,20,41,62,81,102,120,141,160,181,201,220,241,262,280,300,321,342,360,381,402,422,441,460,481,502,521,542,563,580,600,620,642,661,680,701,721,741,760,780,801],"xSR":741.5,"ySR":469.95,"xT1":424.9,"yT1":0,"xT2":1058.1,"yT2":0,"toosoon":0,"cond_shown":"randomdotsizeEA","ratio_trial":250,"smaller_num":"3","larger_num":"12","correct_side":2,"subjID":"segiomalagom32","gender":"0","age":"11","school":"6"},{"start_time":1551900386002,"click_time":1551900387006,"finger_time":1551900386625,"fix_duration":735.3674737112269,"trial":46,"RT":623,"MT":381,"sideResp":1,"stimulus":"img/750/equaldotsize/L/9_Ratio_750_L_4_R_3.png","xmouse":[792,792,792,792,792,792,792,792,792,792,792,792,792,792,792,792,792,792,792,792,792,792,792,792,792,792,792,792,792,790,754,718,682,650,624,601,589,577,571,569,567,567,567,565,562,547,543,538,530,525,519],"ymouse":[527,527,527,527,527,527,527,527,527,527,527,527,527,527,527,527,527,527,527,527,527,527,527,527,527,527,527,527,527,527,513,495,476,459,439,403,380,356,334,318,283,263,243,224,204,155,139,124,104,90,80],"timestamp_mouse":[10,25,43,68,84,104,123,144,165,183,204,225,243,265,283,303,325,343,365,383,405,423,443,465,485,504,525,545,564,583,603,623,644,665,685,704,723,743,765,785,804,824,843,865,883,904,925,945,964,985,1004],"xSR":741.5,"ySR":469.95,"xT1":424.9,"yT1":0,"xT2":1058.1,"yT2":0,"toosoon":0,"cond_shown":"equaldotsize","ratio_trial":750,"smaller_num":"3","larger_num":"4","correct_side":1,"subjID":"segiomalagom32","gender":"0","age":"11","school":"6"},{"start_time":1551900389240,"click_time":1551900390126,"finger_time":1551900389745,"fix_duration":1472.351441159911,"trial":47,"RT":505,"MT":381,"sideResp":1,"stimulus":"img/250/randomdotsizeEA/L/7_Ratio_250_L_8_R_2.png","xmouse":[815,815,815,815,815,815,815,815,815,815,815,815,815,815,815,815,815,815,815,815,815,815,815,801,763,716,666,638,616,606,596,582,577,565,553,545,538,533,518,505,488,482,480,480,480],"ymouse":[539,539,539,539,539,539,539,539,539,539,539,539,539,539,539,539,539,539,539,539,539,539,539,535,518,493,465,441,406,384,363,331,320,292,259,242,226,212,183,162,135,122,111,101,90],"timestamp_mouse":[9,38,45,65,86,106,125,145,166,186,206,225,246,265,285,305,326,346,366,386,405,426,444,465,486,505,526,546,567,585,604,625,645,666,686,705,725,746,765,785,805,826,845,866,886],"xSR":741.5,"ySR":469.95,"xT1":424.9,"yT1":0,"xT2":1058.1,"yT2":0,"toosoon":0,"cond_shown":"randomdotsizeEA","ratio_trial":250,"smaller_num":"2","larger_num":"8","correct_side":1,"subjID":"segiomalagom32","gender":"0","age":"11","school":"6"},{"start_time":1551900393868,"click_time":1551900395046,"finger_time":1551900394625,"fix_duration":920.9967262206485,"trial":48,"RT":757,"MT":421,"sideResp":2,"stimulus":"img/500/randomdotsizeEA/R/2_Ratio_500_L_3_R_6.png","xmouse":[806,806,806,806,806,806,806,806,806,806,806,806,806,806,806,806,806,806,806,806,806,806,806,806,806,806,806,806,806,806,806,806,806,806,806,809,816,859,875,890,903,917,938,947,954,961,973,1002,1009,1014,1018,1020,1024,1034,1043,1054,1062,1085,1092],"ymouse":[518,518,518,518,518,518,518,518,518,518,518,518,518,518,518,518,518,518,518,518,518,518,518,518,518,518,518,518,518,518,518,518,518,518,518,518,515,498,489,476,461,446,418,402,387,371,346,273,250,231,223,219,216,205,195,179,164,111,89],"timestamp_mouse":[17,37,57,77,98,116,138,158,177,196,218,237,258,278,297,318,337,356,377,398,416,438,458,477,496,517,537,558,577,598,617,637,658,677,698,717,737,757,777,797,817,838,857,876,898,918,937,957,978,997,1017,1036,1056,1076,1097,1117,1137,1157,1177],"xSR":741.5,"ySR":469.95,"xT1":424.9,"yT1":0,"xT2":1058.1,"yT2":0,"toosoon":0,"cond_shown":"randomdotsizeEA","ratio_trial":500,"smaller_num":"3","larger_num":"6","correct_side":2,"subjID":"segiomalagom32","gender":"0","age":"11","school":"6"},{"start_time":1551900397043,"click_time":1551900397785,"finger_time":1551900397546,"fix_duration":1195.6218870250798,"trial":49,"RT":503,"MT":239,"sideResp":2,"stimulus":"img/250/equaldotsize/R/10_Ratio_250_L_4_R_16.png","xmouse":[795,795,795,795,795,795,795,795,795,795,795,795,795,795,795,795,795,795,795,795,795,795,795,797,821,846,866,887,913,932,1000,1034,1061,1081,1098,1101,1102,1102],"ymouse":[528,528,528,528,528,528,528,528,528,528,528,528,528,528,528,528,528,528,528,528,528,528,528,528,525,517,509,496,470,447,360,303,253,207,143,126,106,87],"timestamp_mouse":[10,34,43,62,82,103,122,141,163,183,203,222,242,263,282,302,323,342,363,382,403,423,442,463,482,503,522,542,563,583,603,622,642,663,683,701,723,742],"xSR":741.5,"ySR":469.95,"xT1":424.9,"yT1":0,"xT2":1058.1,"yT2":0,"toosoon":0,"cond_shown":"equaldotsize","ratio_trial":250,"smaller_num":"4","larger_num":"16","correct_side":2,"subjID":"segiomalagom32","gender":"0","age":"11","school":"6"},{"start_time":1551900398956,"click_time":1551900401345,"finger_time":1551900400785,"fix_duration":429.53486956850963,"trial":50,"RT":1829,"MT":560,"sideResp":1,"stimulus":"img/500/equaldotanddens/R/15_Ratio_500_L_1_R_2.png","xmouse":[796,796,796,796,796,796,796,796,796,796,796,796,796,796,796,796,796,796,796,796,796,796,796,796,796,796,796,796,796,796,796,796,796,796,796,796,796,796,796,796,796,796,796,796,796,796,796,796,796,796,796,796,796,796,796,796,796,796,796,796,796,796,796,796,796,796,796,796,796,796,796,796,796,796,796,796,796,796,796,796,796,796,796,796,796,796,796,796,795,769,762,740,730,721,713,704,691,679,668,640,629,613,595,558,553,548,544,539,535,533,534,534,535,537,540,540,541,541,537,524],"ymouse":[504,504,504,504,504,504,504,504,504,504,504,504,504,504,504,504,504,504,504,504,504,504,504,504,504,504,504,504,504,504,504,504,504,504,504,504,504,504,504,504,504,504,504,504,504,504,504,504,504,504,504,504,504,504,504,504,504,504,504,504,504,504,504,504,504,504,504,504,504,504,504,504,504,504,504,504,504,504,504,504,504,504,504,504,504,504,504,504,505,495,491,480,474,466,460,452,443,433,422,385,369,346,316,241,216,189,162,130,99,62,56,56,56,56,56,56,57,57,58,58],"timestamp_mouse":[8,30,51,69,89,108,130,150,168,189,210,230,250,269,290,309,330,350,370,390,409,430,449,470,490,509,530,549,570,589,610,630,650,670,690,710,730,750,770,790,810,829,850,870,890,909,930,949,970,989,1010,1029,1049,1070,1089,1110,1129,1150,1169,1189,1208,1230,1250,1270,1290,1310,1330,1350,1370,1389,1409,1429,1450,1470,1488,1510,1530,1549,1570,1589,1610,1629,1650,1669,1690,1709,1728,1749,1769,1789,1810,1829,1848,1870,1889,1909,1929,1950,1969,1988,2010,2029,2050,2071,2089,2109,2128,2148,2168,2190,2209,2230,2250,2271,2289,2309,2330,2349,2371,2389],"xSR":741.5,"ySR":469.95,"xT1":424.9,"yT1":0,"xT2":1058.1,"yT2":0,"toosoon":0,"cond_shown":"equaldotanddens","ratio_trial":500,"smaller_num":"1","larger_num":"2","correct_side":2,"subjID":"segiomalagom32","gender":"0","age":"11","school":"6"},{"start_time":1551900403218,"click_time":1551900404265,"finger_time":1551900403945,"fix_duration":832.1149427813982,"trial":51,"RT":727,"MT":320,"sideResp":1,"stimulus":"img/500/equaldotsize/L/8_Ratio_500_L_8_R_4.png","xmouse":[790,790,790,790,790,790,790,790,790,790,790,790,790,790,790,790,790,790,790,790,790,790,790,790,790,790,790,790,790,790,790,790,785,777,762,754,733,715,693,666,647,626,619,612,604,596,572,563,558,552,542,522,520],"ymouse":[529,529,529,529,529,529,529,529,529,529,529,529,529,529,529,529,529,529,529,529,529,529,529,529,529,529,529,529,529,529,529,529,530,530,525,519,496,482,466,447,432,404,388,375,359,341,288,264,243,218,185,102,65],"timestamp_mouse":[9,27,48,68,87,107,127,148,166,188,207,228,247,266,287,307,328,346,368,387,408,427,448,468,488,507,528,548,567,587,606,627,647,667,688,707,727,747,767,788,808,827,847,867,887,908,927,947,968,987,1008,1026,1047],"xSR":741.5,"ySR":469.95,"xT1":424.9,"yT1":0,"xT2":1058.1,"yT2":0,"toosoon":0,"cond_shown":"equaldotsize","ratio_trial":500,"smaller_num":"4","larger_num":"8","correct_side":1,"subjID":"segiomalagom32","gender":"0","age":"11","school":"6"},{"start_time":1551900406649,"click_time":1551900408006,"finger_time":1551900407325,"fix_duration":1463.682933594546,"trial":52,"RT":676,"MT":681,"sideResp":2,"stimulus":"img/750/randomdotsizeEA/R/12_Ratio_750_L_3_R_4.png","xmouse":[795,795,795,795,795,795,795,795,795,795,795,795,795,795,795,795,795,795,795,795,795,795,795,795,795,795,795,795,795,795,799,811,828,853,881,906,935,959,980,994,1002,1004,1004,1004,1004,1004,1004,1005,1009,1022,1030,1041,1060,1070,1089,1097,1101,1104,1106,1109,1110,1110,1110,1110,1109,1109,1108,1108],"ymouse":[515,515,515,515,515,515,515,515,515,515,515,515,515,515,515,515,515,515,515,515,515,515,515,515,515,515,515,515,515,515,515,515,515,512,500,481,455,422,375,338,295,287,284,284,283,280,274,266,251,219,205,191,170,157,137,134,131,131,129,125,121,117,117,116,112,107,101,96],"timestamp_mouse":[16,40,57,76,97,116,135,156,177,196,217,236,256,276,296,316,335,357,377,397,416,437,456,477,496,517,536,557,577,597,616,637,656,675,697,716,736,756,776,797,816,836,856,876,897,916,937,956,976,997,1015,1037,1056,1077,1097,1115,1136,1157,1177,1197,1216,1235,1255,1275,1297,1315,1337,1357],"xSR":741.5,"ySR":469.95,"xT1":424.9,"yT1":0,"xT2":1058.1,"yT2":0,"toosoon":0,"cond_shown":"randomdotsizeEA","ratio_trial":750,"smaller_num":"3","larger_num":"4","correct_side":2,"subjID":"segiomalagom32","gender":"0","age":"11","school":"6"},{"start_time":1551900414280,"click_time":1551900415485,"finger_time":1551900415024,"fix_duration":1334.690800089547,"trial":53,"RT":744,"MT":461,"sideResp":1,"stimulus":"img/750/randomdotsizeEA/R/4_Ratio_750_L_15_R_20.png","xmouse":[811,811,811,811,811,811,811,811,811,811,811,811,811,811,811,811,811,811,811,811,811,811,811,811,811,811,811,811,811,811,811,811,811,811,811,800,775,737,711,677,671,663,650,641,620,608,591,574,560,525,515,509,504,502,499,498,497,497,497,492,488],"ymouse":[513,513,513,513,513,513,513,513,513,513,513,513,513,513,513,513,513,513,513,513,513,513,513,513,513,513,513,513,513,513,513,513,513,513,512,502,488,465,444,401,387,371,355,341,314,302,286,266,243,181,160,146,138,134,128,126,125,125,123,103,85],"timestamp_mouse":[13,25,46,66,85,106,125,144,165,185,206,224,245,266,286,304,325,346,366,386,405,426,445,466,484,506,526,546,565,585,605,626,645,666,686,706,725,744,766,785,805,825,846,865,885,905,925,944,965,985,1005,1025,1046,1066,1086,1105,1124,1145,1164,1186,1205],"xSR":741.5,"ySR":469.95,"xT1":424.9,"yT1":0,"xT2":1058.1,"yT2":0,"toosoon":0,"cond_shown":"randomdotsizeEA","ratio_trial":750,"smaller_num":"15","larger_num":"20","correct_side":2,"subjID":"segiomalagom32","gender":"0","age":"11","school":"6"},{"start_time":1551900419776,"click_time":1551900420765,"finger_time":1551900420385,"fix_duration":790.0833750697751,"trial":54,"RT":609,"MT":380,"sideResp":1,"stimulus":"img/500/equaldotsize/L/11_Ratio_500_L_12_R_6.png","xmouse":[818,818,818,818,818,818,818,818,818,818,818,818,818,818,818,818,818,818,818,818,818,818,818,818,818,818,818,818,811,799,702,660,616,590,569,535,521,507,493,480,458,454,451,451,450,448,448,447,447,447],"ymouse":[517,517,517,517,517,517,517,517,517,517,517,517,517,517,517,517,517,517,517,517,517,517,517,517,517,517,517,517,516,513,466,444,412,391,373,336,316,297,275,251,205,191,182,173,163,139,125,113,101,93],"timestamp_mouse":[10,29,49,69,89,110,130,149,170,189,209,228,249,270,289,308,329,349,369,389,410,429,449,469,490,510,530,549,569,590,609,629,650,670,689,710,729,749,770,789,809,830,848,869,890,909,930,948,970,989],"xSR":741.5,"ySR":469.95,"xT1":424.9,"yT1":0,"xT2":1058.1,"yT2":0,"toosoon":0,"cond_shown":"equaldotsize","ratio_trial":500,"smaller_num":"6","larger_num":"12","correct_side":1,"subjID":"segiomalagom32","gender":"0","age":"11","school":"6"},{"start_time":1551900423188,"click_time":1551900424305,"finger_time":1551900423625,"fix_duration":1200.8237831021468,"trial":55,"RT":437,"MT":680,"sideResp":1,"stimulus":"img/750/equaldotsize/L/8_Ratio_750_L_4_R_3.png","xmouse":[805,805,805,805,805,805,805,805,805,805,805,805,805,805,805,805,805,805,805,787,765,735,696,674,648,641,634,629,628,627,627,627,627,627,627,629,631,634,637,637,637,637,629,616,591,580,569,561,552,544,542,539,532,520,490,474],"ymouse":[539,539,539,539,539,539,539,539,539,539,539,539,539,539,539,539,539,538,536,521,502,477,445,422,389,376,363,355,352,350,350,350,350,350,350,349,349,349,348,348,348,346,342,334,312,299,283,269,247,220,207,192,175,154,110,89],"timestamp_mouse":[17,37,57,77,98,118,138,158,178,197,216,237,258,277,298,318,336,357,377,397,417,437,457,476,497,517,537,558,576,598,617,638,657,677,698,717,737,758,777,798,818,838,857,877,897,916,938,956,978,999,1017,1037,1058,1078,1098,1117],"xSR":741.5,"ySR":469.95,"xT1":424.9,"yT1":0,"xT2":1058.1,"yT2":0,"toosoon":0,"cond_shown":"equaldotsize","ratio_trial":750,"smaller_num":"3","larger_num":"4","correct_side":1,"subjID":"segiomalagom32","gender":"0","age":"11","school":"6"},{"start_time":1551900425851,"click_time":1551900426805,"finger_time":1551900426505,"fix_duration":744.1136610108686,"trial":56,"RT":654,"MT":300,"sideResp":1,"stimulus":"img/500/randomdotsizeEA/L/10_Ratio_500_L_4_R_2.png","xmouse":[792,792,792,792,792,792,792,792,792,792,792,792,792,792,792,792,792,792,792,792,792,792,792,792,792,792,792,792,791,786,777,763,718,700,671,656,639,605,592,583,576,564,556,546,528,506,486,440],"ymouse":[536,536,536,536,536,536,536,536,536,536,536,536,536,536,536,536,536,536,536,536,536,536,536,536,536,536,532,526,521,510,496,480,440,424,401,384,365,332,316,303,291,259,239,215,175,139,110,49],"timestamp_mouse":[15,35,67,75,95,115,135,154,175,194,215,234,253,275,295,314,334,355,374,393,415,435,454,474,495,514,533,555,575,594,613,635,654,674,694,714,734,754,774,794,814,836,853,875,894,914,935,954],"xSR":741.5,"ySR":469.95,"xT1":424.9,"yT1":0,"xT2":1058.1,"yT2":0,"toosoon":0,"cond_shown":"randomdotsizeEA","ratio_trial":500,"smaller_num":"2","larger_num":"4","correct_side":1,"subjID":"segiomalagom32","gender":"0","age":"11","school":"6"},{"start_time":1551900428638,"click_time":1551900429786,"finger_time":1551900429505,"fix_duration":1130.746981332797,"trial":57,"RT":867,"MT":281,"sideResp":2,"stimulus":"img/900/equaldotanddens/R/15_Ratio_900_L_9_R_10.png","xmouse":[807,807,807,807,807,807,807,807,807,807,807,807,807,807,807,807,807,807,807,807,807,807,807,807,807,807,807,807,807,807,807,807,807,807,807,807,807,807,807,807,807,808,815,853,872,888,902,915,934,938,943,951,962,1029,1057,1082,1095,1104],"ymouse":[532,532,532,532,532,532,532,532,532,532,532,532,532,532,532,532,532,532,532,532,532,532,532,532,532,532,532,532,532,532,532,532,532,532,532,532,532,532,532,532,532,531,530,519,513,504,497,489,475,465,451,432,414,289,225,171,124,87],"timestamp_mouse":[19,28,47,68,88,107,127,148,166,186,208,228,247,268,287,308,326,348,367,387,407,428,446,468,488,507,526,548,567,587,608,627,646,667,688,707,727,747,767,787,808,826,848,867,888,907,927,947,967,987,1007,1028,1047,1067,1088,1107,1127,1148],"xSR":741.5,"ySR":469.95,"xT1":424.9,"yT1":0,"xT2":1058.1,"yT2":0,"toosoon":0,"cond_shown":"equaldotanddens","ratio_trial":900,"smaller_num":"9","larger_num":"10","correct_side":2,"subjID":"segiomalagom32","gender":"0","age":"11","school":"6"},{"start_time":1551900431844,"click_time":1551900432865,"finger_time":1551900432605,"fix_duration":1216.8153126373584,"trial":58,"RT":761,"MT":260,"sideResp":2,"stimulus":"img/900/equaldotsize/R/15_Ratio_900_L_9_R_10.png","xmouse":[822,822,822,822,822,822,822,822,822,822,822,822,822,822,822,822,822,822,822,822,822,822,822,822,822,822,822,822,822,822,822,822,822,822,822,822,832,839,853,887,898,902,924,959,972,986,998,1008,1034,1045,1058,1080],"ymouse":[500,500,500,500,500,500,500,500,500,500,500,500,500,500,500,500,500,500,500,500,500,500,500,500,500,500,500,500,500,500,500,500,500,500,500,499,496,494,489,471,463,453,421,376,353,325,300,274,202,167,118,41],"timestamp_mouse":[9,22,54,62,81,101,122,141,161,182,202,221,242,262,281,301,322,341,362,382,401,420,442,462,481,501,521,541,560,581,600,621,641,661,682,702,721,741,761,780,801,821,842,862,881,902,921,942,962,980,1001,1021],"xSR":741.5,"ySR":469.95,"xT1":424.9,"yT1":0,"xT2":1058.1,"yT2":0,"toosoon":0,"cond_shown":"equaldotsize","ratio_trial":900,"smaller_num":"9","larger_num":"10","correct_side":2,"subjID":"segiomalagom32","gender":"0","age":"11","school":"6"},{"start_time":1551900435078,"click_time":1551900436065,"finger_time":1551900435626,"fix_duration":1232.5878495239108,"trial":59,"RT":548,"MT":439,"sideResp":1,"stimulus":"img/500/equaldotanddens/L/5_Ratio_500_L_4_R_2.png","xmouse":[814,814,814,814,814,814,814,814,814,814,814,814,814,814,814,814,814,814,814,814,814,814,814,814,814,810,800,737,666,619,578,534,519,509,504,504,504,504,503,503,502,501,500,499,497,493,492,492,492,492],"ymouse":[513,513,513,513,513,513,513,513,513,513,513,513,513,513,513,513,513,513,513,513,513,513,513,513,513,514,509,472,426,390,353,305,284,266,249,236,220,196,181,173,163,156,143,134,124,114,106,101,100,94],"timestamp_mouse":[9,42,48,67,87,108,127,148,168,188,206,228,247,267,288,307,328,347,367,386,408,426,447,467,487,508,527,548,568,587,608,629,647,668,687,706,728,747,767,787,807,828,847,867,887,907,929,947,968,987],"xSR":741.5,"ySR":469.95,"xT1":424.9,"yT1":0,"xT2":1058.1,"yT2":0,"toosoon":0,"cond_shown":"equaldotanddens","ratio_trial":500,"smaller_num":"2","larger_num":"4","correct_side":1,"subjID":"segiomalagom32","gender":"0","age":"11","school":"6"},{"start_time":1551900438119,"click_time":1551900439145,"finger_time":1551900438806,"fix_duration":1431.8400465396933,"trial":60,"RT":687,"MT":339,"sideResp":2,"stimulus":"img/900/equaldotanddens/R/3_Ratio_900_L_9_R_10.png","xmouse":[772,772,772,772,772,772,772,772,772,772,772,772,772,772,772,772,772,772,772,772,772,772,772,772,772,772,772,772,772,772,772,786,797,825,855,921,937,948,960,973,994,1005,1016,1026,1037,1070,1078,1084,1087,1089,1089,1089],"ymouse":[533,533,533,533,533,533,533,533,533,533,533,533,533,533,533,533,533,533,533,533,533,533,533,533,533,533,533,533,533,533,533,530,527,519,505,465,451,441,428,413,381,366,350,336,316,255,227,199,171,148,107,88],"timestamp_mouse":[9,42,47,65,87,106,126,147,167,187,207,227,246,267,287,306,327,347,365,387,406,425,447,466,487,507,526,547,566,587,607,626,646,666,687,707,727,746,766,786,806,827,847,867,886,906,926,946,966,987,1005,1026],"xSR":741.5,"ySR":469.95,"xT1":424.9,"yT1":0,"xT2":1058.1,"yT2":0,"toosoon":0,"cond_shown":"equaldotanddens","ratio_trial":900,"smaller_num":"9","larger_num":"10","correct_side":2,"subjID":"segiomalagom32","gender":"0","age":"11","school":"6"},{"start_time":1551900440945,"click_time":1551900441827,"finger_time":1551900441604,"fix_duration":960.0860815342039,"trial":61,"RT":659,"MT":223,"sideResp":2,"stimulus":"img/250/randomdotsizeEA/R/8_Ratio_250_L_1_R_4.png","xmouse":[799,799,799,799,799,799,799,799,799,799,799,799,799,799,799,799,799,799,799,799,799,799,799,799,799,799,799,799,799,806,817,833,855,890,907,924,940,965,1013,1035,1059,1082,1099,1126],"ymouse":[536,536,536,536,536,536,536,536,536,536,536,536,536,536,536,536,536,536,536,536,536,536,536,536,536,536,536,536,536,533,530,523,509,480,463,445,425,393,318,276,236,189,152,75],"timestamp_mouse":[36,40,61,81,101,120,140,161,179,201,220,240,259,280,300,320,341,360,381,401,420,441,460,481,501,519,541,561,580,600,620,640,659,681,700,720,739,760,780,799,819,839,860,881],"xSR":741.5,"ySR":469.95,"xT1":424.9,"yT1":0,"xT2":1058.1,"yT2":0,"toosoon":0,"cond_shown":"randomdotsizeEA","ratio_trial":250,"smaller_num":"1","larger_num":"4","correct_side":2,"subjID":"segiomalagom32","gender":"0","age":"11","school":"6"},{"start_time":1551900445727,"click_time":1551900446686,"finger_time":1551900446365,"fix_duration":321.1009725527989,"trial":62,"RT":638,"MT":321,"sideResp":2,"stimulus":"img/500/equaldotsize/R/6_Ratio_500_L_9_R_18.png","xmouse":[818,812,806,806,806,806,806,806,806,806,806,806,806,806,806,806,806,806,806,806,806,806,806,806,806,806,806,806,806,806,834,857,880,897,912,937,952,962,971,975,991,1005,1015,1028,1046,1084,1092,1099],"ymouse":[519,519,519,519,519,519,519,519,519,519,519,519,519,519,519,519,519,519,519,519,519,519,519,519,519,519,519,519,519,519,507,498,488,478,461,423,406,391,378,367,345,319,299,266,218,132,102,79],"timestamp_mouse":[18,40,59,77,98,119,138,158,178,198,219,238,258,278,299,318,338,359,379,397,419,439,458,478,499,517,538,559,577,598,618,638,659,679,698,718,738,758,779,798,818,839,859,878,899,919,938,959],"xSR":741.5,"ySR":469.95,"xT1":424.9,"yT1":0,"xT2":1058.1,"yT2":0,"toosoon":0,"cond_shown":"equaldotsize","ratio_trial":500,"smaller_num":"9","larger_num":"18","correct_side":2,"subjID":"segiomalagom32","gender":"0","age":"11","school":"6"},{"start_time":1551900448792,"click_time":1551900450105,"finger_time":1551900449585,"fix_duration":1365.7682242360297,"trial":63,"RT":793,"MT":520,"sideResp":2,"stimulus":"img/750/equaldotanddens/R/2_Ratio_750_L_6_R_8.png","xmouse":[794,794,794,794,794,794,794,794,794,794,794,794,794,794,794,794,794,794,794,794,794,794,794,794,794,794,794,794,794,794,794,794,794,794,794,795,798,824,841,859,877,901,922,947,952,956,960,972,976,983,989,996,1009,1016,1023,1032,1041,1045,1050,1054,1056,1057,1057,1057,1058,1059],"ymouse":[529,529,529,529,529,529,529,529,529,529,529,529,529,529,529,529,529,529,529,529,529,529,529,529,529,529,529,529,529,529,529,529,529,529,529,527,522,497,483,470,457,443,433,415,405,394,384,347,328,308,287,264,204,175,148,126,102,94,87,86,86,86,86,86,86,85],"timestamp_mouse":[13,33,53,73,92,112,134,153,172,193,213,233,253,273,294,313,334,354,374,394,414,434,452,473,493,512,532,554,574,592,613,632,653,672,693,713,733,753,773,793,813,833,853,872,894,914,932,953,972,993,1012,1034,1053,1072,1092,1114,1133,1153,1173,1193,1212,1232,1253,1272,1293,1313],"xSR":741.5,"ySR":469.95,"xT1":424.9,"yT1":0,"xT2":1058.1,"yT2":0,"toosoon":0,"cond_shown":"equaldotanddens","ratio_trial":750,"smaller_num":"6","larger_num":"8","correct_side":2,"subjID":"segiomalagom32","gender":"0","age":"11","school":"6"},{"start_time":1551900451555,"click_time":1551900452525,"finger_time":1551900452005,"fix_duration":528.3693414865342,"trial":64,"RT":450,"MT":520,"sideResp":2,"stimulus":"img/250/equaldotsize/R/11_Ratio_250_L_3_R_12.png","xmouse":[770,770,770,770,770,770,770,770,770,770,770,770,770,772,783,807,813,830,835,838,838,841,846,865,894,936,943,970,989,1024,1039,1053,1062,1065,1065,1065,1065,1065,1065,1065,1065,1065,1068,1071,1078,1081,1086,1088,1090],"ymouse":[541,541,541,541,541,541,541,541,541,541,541,541,541,541,539,524,519,507,505,503,503,502,500,491,475,447,440,410,388,338,310,279,253,229,205,158,149,143,138,130,127,125,121,118,110,106,103,100,99],"timestamp_mouse":[13,40,49,69,89,109,129,149,171,190,211,229,250,269,290,310,330,350,369,390,410,429,450,470,491,510,529,550,570,591,609,630,650,670,690,710,730,749,769,791,809,830,850,869,892,909,931,949,969],"xSR":741.5,"ySR":469.95,"xT1":424.9,"yT1":0,"xT2":1058.1,"yT2":0,"toosoon":0,"cond_shown":"equaldotsize","ratio_trial":250,"smaller_num":"3","larger_num":"12","correct_side":2,"subjID":"segiomalagom32","gender":"0","age":"11","school":"6"},{"start_time":1551900459233,"click_time":1551900460166,"finger_time":1551900459864,"fix_duration":1068.179372789219,"trial":65,"RT":631,"MT":302,"sideResp":1,"stimulus":"img/500/randomdotsizeEA/L/11_Ratio_500_L_12_R_6.png","xmouse":[811,811,811,811,811,811,811,818,819,819,820,820,820,820,820,820,820,821,824,826,826,826,826,826,826,826,826,826,824,800,763,725,671,664,660,655,634,622,610,597,566,546,542,534,520,485,448],"ymouse":[520,520,520,520,520,519,519,506,504,504,503,503,503,503,503,503,503,501,495,489,488,488,488,488,488,488,488,488,487,483,475,464,446,442,435,422,385,364,346,326,286,255,246,229,199,140,69],"timestamp_mouse":[12,41,52,72,93,112,131,152,173,192,212,232,253,271,292,313,333,353,372,391,411,432,452,473,492,513,532,551,572,591,611,631,652,672,691,712,733,751,772,793,813,832,851,872,893,912,933],"xSR":741.5,"ySR":469.95,"xT1":424.9,"yT1":0,"xT2":1058.1,"yT2":0,"toosoon":0,"cond_shown":"randomdotsizeEA","ratio_trial":500,"smaller_num":"6","larger_num":"12","correct_side":1,"subjID":"segiomalagom32","gender":"0","age":"11","school":"6"},{"start_time":1551900463138,"click_time":1551900464444,"finger_time":1551900463984,"fix_duration":250,"trial":66,"RT":846,"MT":460,"sideResp":1,"stimulus":"img/900/equaldotanddens/L/10_Ratio_900_L_20_R_18.png","xmouse":[795,795,795,795,795,795,795,795,795,795,795,795,795,795,795,795,795,795,795,795,795,795,795,795,795,795,795,795,795,795,795,795,795,795,795,795,795,795,795,789,784,754,673,632,603,585,570,546,541,540,540,540,540,538,535,528,519,509,508,508,507,505,498,495,491,483],"ymouse":[540,540,540,540,540,540,540,540,540,540,540,540,540,540,540,540,540,540,540,540,540,540,540,540,540,540,540,540,540,540,540,540,540,540,540,540,540,540,540,536,531,512,466,447,431,418,404,357,339,318,298,279,243,235,227,215,206,193,184,172,159,146,123,114,105,90],"timestamp_mouse":[9,40,46,66,86,106,126,148,168,188,206,226,248,268,287,306,327,346,367,387,407,426,448,467,487,508,527,546,567,588,607,627,647,667,688,706,726,747,766,787,807,827,846,866,886,907,926,947,968,987,1007,1028,1046,1066,1086,1107,1127,1146,1167,1187,1207,1228,1246,1268,1287,1306],"xSR":741.5,"ySR":469.95,"xT1":424.9,"yT1":0,"xT2":1058.1,"yT2":0,"toosoon":0,"cond_shown":"equaldotanddens","ratio_trial":900,"smaller_num":"18","larger_num":"20","correct_side":1,"subjID":"segiomalagom32","gender":"0","age":"11","school":"6"},{"start_time":1551900465576,"click_time":1551900466545,"finger_time":1551900466165,"fix_duration":290.84527333994527,"trial":67,"RT":589,"MT":380,"sideResp":1,"stimulus":"img/500/equaldotanddens/L/4_Ratio_500_L_18_R_9.png","xmouse":[788,788,788,788,788,788,788,788,788,788,788,788,788,788,788,788,788,788,788,788,788,788,788,788,788,788,788,785,776,727,627,577,544,525,512,503,495,495,495,495,494,498,501,503,503,499,496,494,490],"ymouse":[513,513,513,513,513,513,513,513,513,513,513,513,513,513,513,513,513,513,513,513,513,513,513,512,512,512,512,510,500,459,380,345,322,308,297,282,239,223,210,200,190,186,182,176,167,136,123,107,92],"timestamp_mouse":[12,39,49,68,89,109,128,149,170,189,209,229,248,269,290,309,330,349,368,390,409,429,450,469,490,508,528,549,570,589,609,628,648,668,690,709,730,748,768,788,809,829,849,869,889,910,929,948,969],"xSR":741.5,"ySR":469.95,"xT1":424.9,"yT1":0,"xT2":1058.1,"yT2":0,"toosoon":0,"cond_shown":"equaldotanddens","ratio_trial":500,"smaller_num":"9","larger_num":"18","correct_side":1,"subjID":"segiomalagom32","gender":"0","age":"11","school":"6"},{"start_time":1551900468662,"click_time":1551900469526,"finger_time":1551900469405,"fix_duration":1376.0051986976205,"trial":68,"RT":743,"MT":121,"sideResp":1,"stimulus":"img/750/randomdotsizeEA/R/4_Ratio_750_L_15_R_20.png","xmouse":[773,773,773,773,773,773,773,773,773,773,773,773,773,773,773,773,773,773,773,773,773,773,773,773,773,773,773,773,773,773,773,773,773,773,773,762,733,705,674,639,563,500,464],"ymouse":[524,524,524,524,524,524,524,524,524,524,524,524,524,524,524,524,524,524,524,524,524,524,524,524,524,524,524,524,524,524,524,524,524,524,524,503,469,423,374,311,197,125,87],"timestamp_mouse":[19,44,62,82,102,123,142,163,183,204,223,243,263,282,302,324,343,364,383,403,424,443,462,483,504,524,543,563,584,602,623,644,663,682,703,724,743,763,782,803,824,842,863],"xSR":741.5,"ySR":469.95,"xT1":424.9,"yT1":0,"xT2":1058.1,"yT2":0,"toosoon":0,"cond_shown":"randomdotsizeEA","ratio_trial":750,"smaller_num":"15","larger_num":"20","correct_side":2,"subjID":"segiomalagom32","gender":"0","age":"11","school":"6"},{"start_time":1551900471086,"click_time":1551900471745,"finger_time":1551900471645,"fix_duration":519.331547312109,"trial":69,"RT":559,"MT":100,"sideResp":1,"stimulus":"img/500/equaldotsize/L/11_Ratio_500_L_12_R_6.png","xmouse":[821,821,821,821,821,821,821,821,821,821,821,821,821,821,821,820,820,820,820,822,823,823,823,823,823,801,755,700,644,593,509,481,457],"ymouse":[547,547,547,547,547,547,547,547,547,547,547,547,547,547,547,547,540,532,527,518,517,516,516,516,515,508,494,468,433,389,233,148,92],"timestamp_mouse":[18,38,60,79,98,119,140,159,179,200,218,239,260,280,298,319,339,358,380,400,419,439,458,480,499,519,539,559,579,599,618,639,659],"xSR":741.5,"ySR":469.95,"xT1":424.9,"yT1":0,"xT2":1058.1,"yT2":0,"toosoon":0,"cond_shown":"equaldotsize","ratio_trial":500,"smaller_num":"6","larger_num":"12","correct_side":1,"subjID":"segiomalagom32","gender":"0","age":"11","school":"6"},{"start_time":1551900473907,"click_time":1551900474885,"finger_time":1551900474644,"fix_duration":1341.202557948802,"trial":70,"RT":737,"MT":241,"sideResp":2,"stimulus":"img/750/randomdotsizeEA/R/5_Ratio_750_L_15_R_20.png","xmouse":[823,823,823,823,823,823,823,823,823,823,823,823,823,823,823,823,823,823,823,823,823,823,823,823,823,823,823,823,823,823,823,823,823,823,823,831,853,900,919,981,1000,1014,1027,1039,1060,1068,1075,1082,1093],"ymouse":[514,514,514,514,514,514,514,514,514,514,514,514,514,514,514,514,514,514,514,514,514,514,514,514,514,514,514,514,514,514,514,514,514,514,514,506,484,427,398,253,212,182,161,144,123,118,110,101,87],"timestamp_mouse":[17,38,64,78,97,119,138,157,177,197,219,237,257,278,297,318,338,357,378,398,419,438,458,477,498,519,538,558,578,599,618,638,659,677,698,717,737,759,779,797,818,839,858,879,898,919,938,958,978],"xSR":741.5,"ySR":469.95,"xT1":424.9,"yT1":0,"xT2":1058.1,"yT2":0,"toosoon":0,"cond_shown":"randomdotsizeEA","ratio_trial":750,"smaller_num":"15","larger_num":"20","correct_side":2,"subjID":"segiomalagom32","gender":"0","age":"11","school":"6"},{"start_time":1551900476244,"click_time":1551900477145,"finger_time":1551900476905,"fix_duration":437.50333152295093,"trial":71,"RT":661,"MT":240,"sideResp":1,"stimulus":"img/750/equaldotanddens/L/10_Ratio_750_L_4_R_3.png","xmouse":[780,780,780,780,780,780,780,780,780,780,780,780,780,780,780,780,780,780,780,780,780,780,780,780,780,780,780,780,780,780,780,774,743,644,596,555,529,514,485,474,463,460,457,457,457,457],"ymouse":[549,549,549,549,549,549,549,549,549,549,549,549,549,549,549,549,549,549,549,549,549,549,549,549,549,549,549,549,549,549,549,546,528,466,430,393,365,341,285,249,210,199,169,151,116,97],"timestamp_mouse":[9,21,48,61,82,102,121,140,160,181,200,221,241,261,280,300,321,342,362,380,401,421,441,462,481,500,520,541,560,581,601,622,641,661,681,701,720,740,762,780,802,822,841,860,880,900],"xSR":741.5,"ySR":469.95,"xT1":424.9,"yT1":0,"xT2":1058.1,"yT2":0,"toosoon":0,"cond_shown":"equaldotanddens","ratio_trial":750,"smaller_num":"3","larger_num":"4","correct_side":1,"subjID":"segiomalagom32","gender":"0","age":"11","school":"6"},{"start_time":1551900478447,"click_time":1551900479365,"finger_time":1551900479124,"fix_duration":440.94745422767244,"trial":72,"RT":677,"MT":241,"sideResp":2,"stimulus":"img/500/randomdotsizeEA/R/6_Ratio_500_L_9_R_18.png","xmouse":[782,782,782,782,782,782,782,782,782,782,782,782,782,782,782,782,782,782,782,782,782,782,782,782,782,782,782,782,782,782,782,782,789,813,840,871,898,928,1006,1055,1069,1079,1089,1110,1118,1125],"ymouse":[507,507,507,507,507,507,507,507,507,507,507,507,507,507,507,507,507,507,507,507,507,507,507,507,507,507,507,507,507,507,507,507,496,464,434,395,358,312,230,184,168,156,144,118,105,90],"timestamp_mouse":[18,53,58,77,98,119,138,158,178,198,218,239,258,277,297,318,338,358,377,398,417,438,459,478,499,518,538,557,577,599,618,638,658,677,698,719,738,758,777,797,817,837,858,877,898,918],"xSR":741.5,"ySR":469.95,"xT1":424.9,"yT1":0,"xT2":1058.1,"yT2":0,"toosoon":0,"cond_shown":"randomdotsizeEA","ratio_trial":500,"smaller_num":"9","larger_num":"18","correct_side":2,"subjID":"segiomalagom32","gender":"0","age":"11","school":"6"},{"start_time":1551900483182,"click_time":1551900483884,"finger_time":1551900483725,"fix_duration":1355.4936162935549,"trial":73,"RT":543,"MT":159,"sideResp":2,"stimulus":"img/250/equaldotanddens/R/4_Ratio_250_L_3_R_12.png","xmouse":[790,790,790,790,790,790,790,790,790,790,790,790,790,790,790,790,