[{"start_time":1551801373964,"click_time":1551801375249,"finger_time":1551801374609,"fix_duration":250,"trial":0,"RT":645,"MT":640,"sideResp":2,"stimulus":"img/250/equaldotanddens/R/6_Ratio_250_L_6_R_24.png","xmouse":[796,796,796,796,796,796,796,796,796,796,796,796,796,796,796,796,796,796,796,796,796,796,796,796,796,797,799,802,805,817,828,837,848,858,864,864,864,860,858,884,896,907,913,915,927,936,949,960,970,978,978,979,982,990,996,996,996,996,996,996,998,1008,1021,1038,1112],"ymouse":[560,560,560,560,560,560,560,560,560,560,560,560,560,560,560,560,560,560,560,560,560,560,560,560,560,560,560,560,560,561,561,560,552,541,523,513,504,491,480,420,410,402,397,394,375,363,347,335,321,282,266,246,224,192,161,161,160,159,158,157,155,150,143,133,87],"timestamp_mouse":[8,29,46,67,85,105,126,146,166,185,207,227,246,265,286,305,325,345,365,385,407,425,445,467,485,505,525,547,565,585,605,625,645,666,685,705,725,747,766,785,806,825,845,865,885,905,926,947,965,986,1005,1025,1045,1065,1085,1105,1126,1145,1165,1185,1205,1225,1245,1266,1285],"xSR":741.5,"ySR":501.8,"xT1":424.9,"yT1":0,"xT2":1058.1,"yT2":0,"toosoon":0,"cond_shown":"equaldotanddens","ratio_trial":250,"smaller_num":"6","larger_num":"24","correct_side":2,"subjID":"sharonlozano22","gender":"1","age":"11","school":"6","test":{"fix_dur":[250,1500],"timestim":300,"targets_dim":[100,100],"targets_relative_coord":[0.3,0.7],"size_stim":[880,420],"start_dim":[100,100],"size_start":[300,300],"size_fix":60,"samplingrate":20,"img_types":["equaldotsize","equaldotanddens","randomdotsizeEA"],"ratios":[250,500,750,900],"rep_conds":9,"nTrials":120,"trials_to_rest":500,"Trials_order":[109,76,74,87,33,12,17,18,6,54,64,66,20,98,35,96,51,90,116,11,23,9,3,69,40,57,107,4,117,71,78,93,100,112,29,27,63,44,103,41,115,62,72,80,86,77,0,106,5,97,84,79,70,104,83,99,31,89,88,61,34,32,81,43,94,58,108,19,101,25,37,56,2,119,110,68,36,47,21,75,28,39,42,55,7,46,82,105,67,52,118,59,16,111,38,26,15,22,102,53,48,95,1,49,91,60,65,13,50,10,113,73,85,45,30,114,14,8,92,24],"cond_shown":["equaldotanddens","equaldotanddens","randomdotsizeEA","equaldotsize","equaldotsize","equaldotsize","randomdotsizeEA","equaldotsize","equaldotsize","equaldotsize","equaldotanddens","equaldotsize","randomdotsizeEA","randomdotsizeEA","randomdotsizeEA","equaldotsize","equaldotsize","equaldotsize","randomdotsizeEA","randomdotsizeEA","randomdotsizeEA","equaldotsize","equaldotsize","equaldotsize","equaldotanddens","equaldotsize","randomdotsizeEA","equaldotanddens","equaldotsize","randomdotsizeEA","equaldotsize","equaldotsize","equaldotanddens","equaldotanddens","randomdotsizeEA","equaldotsize","equaldotsize","randomdotsizeEA","equaldotanddens","randomdotsizeEA","equaldotanddens","randomdotsizeEA","equaldotsize","randomdotsizeEA","randomdotsizeEA","randomdotsizeEA","equaldotsize","equaldotanddens","randomdotsizeEA","equaldotanddens","equaldotsize","equaldotanddens","equaldotanddens","randomdotsizeEA","randomdotsizeEA","equaldotsize","equaldotanddens","randomdotsizeEA","equaldotanddens","equaldotanddens","equaldotanddens","randomdotsizeEA","equaldotsize","equaldotanddens","equaldotanddens","equaldotanddens","equaldotsize","equaldotanddens","randomdotsizeEA","equaldotanddens","equaldotanddens","randomdotsizeEA","randomdotsizeEA","randomdotsizeEA","randomdotsizeEA","randomdotsizeEA","equaldotsize","randomdotsizeEA","equaldotsize","equaldotsize","equaldotanddens","equaldotsize","equaldotsize","equaldotanddens","equaldotanddens","equaldotanddens","equaldotanddens","equaldotsize","equaldotanddens","equaldotanddens","equaldotanddens","randomdotsizeEA","equaldotanddens","equaldotsize","randomdotsizeEA","randomdotsizeEA","equaldotsize","equaldotanddens","equaldotsize","randomdotsizeEA","equaldotsize","randomdotsizeEA","equaldotanddens","equaldotanddens","equaldotanddens","equaldotsize","randomdotsizeEA","equaldotanddens","randomdotsizeEA","equaldotanddens","randomdotsizeEA","equaldotanddens","equaldotanddens","equaldotsize","equaldotsize","equaldotsize","randomdotsizeEA","randomdotsizeEA","randomdotsizeEA","equaldotsize"],"ratio_trial":[250,500,250,500,900,250,500,750,750,750,500,750,750,250,900,250,500,750,750,900,900,900,500,900,500,900,900,500,900,900,750,900,500,500,500,500,500,750,750,500,750,250,250,750,250,500,250,900,500,250,250,750,900,750,900,500,750,500,500,250,900,750,900,750,900,900,250,750,500,250,250,750,250,900,250,750,250,900,900,500,500,500,750,750,750,900,900,900,750,500,900,900,500,500,250,250,500,900,750,500,250,900,250,250,750,250,500,250,250,900,500,250,250,900,750,750,250,750,750,250],"smaller_num":["6","10","2","5","18","3","6","3","15","3","5","6","15","3","18","2","3","15","15","18","9","18","6","18","1","9","18","10","18","18","3","18","1","4","5","9","3","18","6","5","3","3","4","6","3","6","6","18","5","2","3","18","18","9","18","9","3","4","6","3","18","6","18","15","18","18","2","12","9","2","2","6","3","18","3","3","2","9","9","4","4","2","12","3","15","18","18","9","3","4","18","18","2","2","6","3","6","18","15","2","3","9","3","2","3","3","1","2","2","18","9","3","2","18","3","15","3","3","15","1"],"larger_num":["24","20","8","10","20","12","12","4","20","4","10","8","20","12","20","8","6","20","20","20","10","20","12","20","2","10","20","20","20","20","4","20","2","8","10","18","6","24","8","10","4","12","16","8","12","12","24","20","10","8","12","24","20","12","20","18","4","8","12","12","20","8","20","20","20","20","8","16","18","8","8","8","12","20","12","4","8","10","10","8","8","4","16","4","20","20","20","10","4","8","20","20","4","4","24","12","12","20","20","4","12","10","12","8","4","12","2","8","8","20","18","12","8","20","4","20","12","4","20","4"],"correct_side":[2,2,2,2,1,1,1,1,2,1,1,1,2,2,1,1,2,2,1,1,2,2,1,1,2,2,1,2,2,1,1,1,2,1,1,1,2,1,1,2,2,1,1,2,2,1,2,2,1,1,2,1,2,2,1,2,1,1,1,2,1,1,1,1,2,2,2,2,1,1,2,1,2,1,1,2,1,1,2,1,1,2,2,1,2,2,1,1,1,1,1,1,1,2,2,1,1,2,2,2,2,1,1,1,2,2,2,1,1,1,2,1,1,2,2,2,1,2,1,2],"img_shown":["img/250/equaldotanddens/R/6_Ratio_250_L_6_R_24.png","img/500/equaldotanddens/R/3_Ratio_500_L_10_R_20.png","img/250/randomdotsizeEA/R/13_Ratio_250_L_2_R_8.png","img/500/equaldotsize/R/14_Ratio_500_L_5_R_10.png","img/900/equaldotsize/L/4_Ratio_900_L_20_R_18.png","img/250/equaldotsize/L/14_Ratio_250_L_12_R_3.png","img/500/randomdotsizeEA/L/11_Ratio_500_L_12_R_6.png","img/750/equaldotsize/L/10_Ratio_750_L_4_R_3.png","img/750/equaldotsize/R/5_Ratio_750_L_15_R_20.png","img/750/equaldotsize/L/9_Ratio_750_L_4_R_3.png","img/500/equaldotanddens/L/7_Ratio_500_L_10_R_5.png","img/750/equaldotsize/L/14_Ratio_750_L_8_R_6.png","img/750/randomdotsizeEA/R/3_Ratio_750_L_15_R_20.png","img/250/randomdotsizeEA/R/4_Ratio_250_L_3_R_12.png","img/900/randomdotsizeEA/L/10_Ratio_900_L_20_R_18.png","img/250/equaldotsize/L/7_Ratio_250_L_8_R_2.png","img/500/equaldotsize/R/2_Ratio_500_L_3_R_6.png","img/750/equaldotsize/R/5_Ratio_750_L_15_R_20.png","img/750/randomdotsizeEA/L/1_Ratio_750_L_20_R_15.png","img/900/randomdotsizeEA/L/2_Ratio_900_L_20_R_18.png","img/900/randomdotsizeEA/R/3_Ratio_900_L_9_R_10.png","img/900/equaldotsize/R/13_Ratio_900_L_18_R_20.png","img/500/equaldotsize/L/11_Ratio_500_L_12_R_6.png","img/900/equaldotsize/L/2_Ratio_900_L_20_R_18.png","img/500/equaldotanddens/R/12_Ratio_500_L_1_R_2.png","img/900/equaldotsize/R/3_Ratio_900_L_9_R_10.png","img/900/randomdotsizeEA/L/8_Ratio_900_L_20_R_18.png","img/500/equaldotanddens/R/3_Ratio_500_L_10_R_20.png","img/900/equaldotsize/R/9_Ratio_900_L_18_R_20.png","img/900/randomdotsizeEA/L/4_Ratio_900_L_20_R_18.png","img/750/equaldotsize/L/8_Ratio_750_L_4_R_3.png","img/900/equaldotsize/L/10_Ratio_900_L_20_R_18.png","img/500/equaldotanddens/R/12_Ratio_500_L_1_R_2.png","img/500/equaldotanddens/L/8_Ratio_500_L_8_R_4.png","img/500/randomdotsizeEA/L/7_Ratio_500_L_10_R_5.png","img/500/equaldotsize/L/4_Ratio_500_L_18_R_9.png","img/500/equaldotsize/R/2_Ratio_500_L_3_R_6.png","img/750/randomdotsizeEA/L/6_Ratio_750_L_24_R_18.png","img/750/equaldotanddens/L/13_Ratio_750_L_8_R_6.png","img/500/randomdotsizeEA/R/14_Ratio_500_L_5_R_10.png","img/750/equaldotanddens/R/12_Ratio_750_L_3_R_4.png","img/250/randomdotsizeEA/L/15_Ratio_250_L_12_R_3.png","img/250/equaldotsize/L/2_Ratio_250_L_16_R_4.png","img/750/randomdotsizeEA/R/2_Ratio_750_L_6_R_8.png","img/250/randomdotsizeEA/R/11_Ratio_250_L_3_R_12.png","img/500/randomdotsizeEA/L/13_Ratio_500_L_12_R_6.png","img/250/equaldotsize/R/6_Ratio_250_L_6_R_24.png","img/900/equaldotanddens/R/12_Ratio_900_L_18_R_20.png","img/500/randomdotsizeEA/L/7_Ratio_500_L_10_R_5.png","img/250/equaldotanddens/L/1_Ratio_250_L_8_R_2.png","img/250/equaldotsize/R/11_Ratio_250_L_3_R_12.png","img/750/equaldotanddens/L/6_Ratio_750_L_24_R_18.png","img/900/equaldotanddens/R/14_Ratio_900_L_18_R_20.png","img/750/randomdotsizeEA/R/15_Ratio_750_L_9_R_12.png","img/900/randomdotsizeEA/L/2_Ratio_900_L_20_R_18.png","img/500/equaldotsize/R/1_Ratio_500_L_9_R_18.png","img/750/equaldotanddens/L/10_Ratio_750_L_4_R_3.png","img/500/randomdotsizeEA/L/8_Ratio_500_L_8_R_4.png","img/500/equaldotanddens/L/11_Ratio_500_L_12_R_6.png","img/250/equaldotanddens/R/4_Ratio_250_L_3_R_12.png","img/900/equaldotanddens/L/4_Ratio_900_L_20_R_18.png","img/750/randomdotsizeEA/L/13_Ratio_750_L_8_R_6.png","img/900/equaldotsize/L/10_Ratio_900_L_20_R_18.png","img/750/equaldotanddens/L/1_Ratio_750_L_20_R_15.png","img/900/equaldotanddens/R/12_Ratio_900_L_18_R_20.png","img/900/equaldotanddens/R/14_Ratio_900_L_18_R_20.png","img/250/equaldotsize/R/13_Ratio_250_L_2_R_8.png","img/750/equaldotanddens/R/11_Ratio_750_L_12_R_16.png","img/500/randomdotsizeEA/L/4_Ratio_500_L_18_R_9.png","img/250/equaldotanddens/L/7_Ratio_250_L_8_R_2.png","img/250/equaldotanddens/R/13_Ratio_250_L_2_R_8.png","img/750/randomdotsizeEA/L/13_Ratio_750_L_8_R_6.png","img/250/randomdotsizeEA/R/9_Ratio_250_L_3_R_12.png","img/900/randomdotsizeEA/L/2_Ratio_900_L_20_R_18.png","img/250/randomdotsizeEA/L/15_Ratio_250_L_12_R_3.png","img/750/randomdotsizeEA/R/12_Ratio_750_L_3_R_4.png","img/250/equaldotsize/L/7_Ratio_250_L_8_R_2.png","img/900/randomdotsizeEA/L/1_Ratio_900_L_10_R_9.png","img/900/equaldotsize/R/5_Ratio_900_L_9_R_10.png","img/500/equaldotsize/L/8_Ratio_500_L_8_R_4.png","img/500/equaldotanddens/L/8_Ratio_500_L_8_R_4.png","img/500/equaldotsize/R/9_Ratio_500_L_2_R_4.png","img/750/equaldotsize/R/11_Ratio_750_L_12_R_16.png","img/750/equaldotanddens/L/10_Ratio_750_L_4_R_3.png","img/750/equaldotanddens/R/5_Ratio_750_L_15_R_20.png","img/900/equaldotanddens/R/12_Ratio_900_L_18_R_20.png","img/900/equaldotanddens/L/2_Ratio_900_L_20_R_18.png","img/900/equaldotsize/L/1_Ratio_900_L_10_R_9.png","img/750/equaldotanddens/L/10_Ratio_750_L_4_R_3.png","img/500/equaldotanddens/L/8_Ratio_500_L_8_R_4.png","img/900/equaldotanddens/L/2_Ratio_900_L_20_R_18.png","img/900/randomdotsizeEA/L/4_Ratio_900_L_20_R_18.png","img/500/equaldotanddens/L/10_Ratio_500_L_4_R_2.png","img/500/equaldotsize/R/9_Ratio_500_L_2_R_4.png","img/250/randomdotsizeEA/R/6_Ratio_250_L_6_R_24.png","img/250/randomdotsizeEA/L/14_Ratio_250_L_12_R_3.png","img/500/equaldotsize/L/13_Ratio_500_L_12_R_6.png","img/900/equaldotanddens/R/12_Ratio_900_L_18_R_20.png","img/750/equaldotsize/R/4_Ratio_750_L_15_R_20.png","img/500/randomdotsizeEA/R/9_Ratio_500_L_2_R_4.png","img/250/equaldotsize/R/9_Ratio_250_L_3_R_12.png","img/900/randomdotsizeEA/L/1_Ratio_900_L_10_R_9.png","img/250/equaldotanddens/L/14_Ratio_250_L_12_R_3.png","img/250/equaldotanddens/L/3_Ratio_250_L_8_R_2.png","img/750/equaldotanddens/R/12_Ratio_750_L_3_R_4.png","img/250/equaldotsize/R/9_Ratio_250_L_3_R_12.png","img/500/randomdotsizeEA/R/12_Ratio_500_L_1_R_2.png","img/250/equaldotanddens/L/7_Ratio_250_L_8_R_2.png","img/250/randomdotsizeEA/L/1_Ratio_250_L_8_R_2.png","img/900/equaldotanddens/L/10_Ratio_900_L_20_R_18.png","img/500/randomdotsizeEA/R/1_Ratio_500_L_9_R_18.png","img/250/equaldotanddens/L/14_Ratio_250_L_12_R_3.png","img/250/equaldotanddens/L/7_Ratio_250_L_8_R_2.png","img/900/equaldotsize/R/9_Ratio_900_L_18_R_20.png","img/750/equaldotsize/R/7_Ratio_750_L_3_R_4.png","img/750/equaldotsize/R/4_Ratio_750_L_15_R_20.png","img/250/randomdotsizeEA/L/14_Ratio_250_L_12_R_3.png","img/750/randomdotsizeEA/R/7_Ratio_750_L_3_R_4.png","img/750/randomdotsizeEA/L/1_Ratio_750_L_20_R_15.png","img/250/equaldotsize/R/8_Ratio_250_L_1_R_4.png"],"Rat0":[["12_Ratio_0_L_9_R_0.png","13_Ratio_0_L_6_R_0.png","5_Ratio_0_L_2_R_0.png","6_Ratio_0_L_4_R_0.png","8_Ratio_0_L_6_R_0.png"],["1_Ratio_0_L_0_R_17.png","10_Ratio_0_L_0_R_22.png","11_Ratio_0_L_0_R_1.png","14_Ratio_0_L_0_R_24.png","15_Ratio_0_L_0_R_4.png","2_Ratio_0_L_0_R_5.png","3_Ratio_0_L_0_R_17.png","4_Ratio_0_L_0_R_7.png","7_Ratio_0_L_0_R_19.png","9_Ratio_0_L_0_R_15.png"]],"Rat250":[["1_Ratio_250_L_8_R_2.png","14_Ratio_250_L_12_R_3.png","15_Ratio_250_L_12_R_3.png","2_Ratio_250_L_16_R_4.png","3_Ratio_250_L_8_R_2.png","5_Ratio_250_L_24_R_6.png","7_Ratio_250_L_8_R_2.png"],["10_Ratio_250_L_4_R_16.png","11_Ratio_250_L_3_R_12.png","12_Ratio_250_L_5_R_20.png","13_Ratio_250_L_2_R_8.png","4_Ratio_250_L_3_R_12.png","6_Ratio_250_L_6_R_24.png","8_Ratio_250_L_1_R_4.png","9_Ratio_250_L_3_R_12.png"]],"Rat500":[["10_Ratio_500_L_4_R_2.png","11_Ratio_500_L_12_R_6.png","13_Ratio_500_L_12_R_6.png","4_Ratio_500_L_18_R_9.png","5_Ratio_500_L_4_R_2.png","7_Ratio_500_L_10_R_5.png","8_Ratio_500_L_8_R_4.png"],["1_Ratio_500_L_9_R_18.png","12_Ratio_500_L_1_R_2.png","14_Ratio_500_L_5_R_10.png","15_Ratio_500_L_1_R_2.png","2_Ratio_500_L_3_R_6.png","3_Ratio_500_L_10_R_20.png","6_Ratio_500_L_9_R_18.png","9_Ratio_500_L_2_R_4.png"]],"Rat750":[["1_Ratio_750_L_20_R_15.png","10_Ratio_750_L_4_R_3.png","13_Ratio_750_L_8_R_6.png","14_Ratio_750_L_8_R_6.png","6_Ratio_750_L_24_R_18.png","8_Ratio_750_L_4_R_3.png","9_Ratio_750_L_4_R_3.png"],["11_Ratio_750_L_12_R_16.png","12_Ratio_750_L_3_R_4.png","15_Ratio_750_L_9_R_12.png","2_Ratio_750_L_6_R_8.png","3_Ratio_750_L_15_R_20.png","4_Ratio_750_L_15_R_20.png","5_Ratio_750_L_15_R_20.png","7_Ratio_750_L_3_R_4.png"]],"Rat900":[["1_Ratio_900_L_10_R_9.png","10_Ratio_900_L_20_R_18.png","2_Ratio_900_L_20_R_18.png","4_Ratio_900_L_20_R_18.png","8_Ratio_900_L_20_R_18.png"],["11_Ratio_900_L_18_R_20.png","12_Ratio_900_L_18_R_20.png","13_Ratio_900_L_18_R_20.png","14_Ratio_900_L_18_R_20.png","15_Ratio_900_L_9_R_10.png","3_Ratio_900_L_9_R_10.png","5_Ratio_900_L_9_R_10.png","6_Ratio_900_L_9_R_10.png","7_Ratio_900_L_9_R_10.png","9_Ratio_900_L_18_R_20.png"]],"Rat1000":[["10_Ratio_1000_L_16_R_16.png","11_Ratio_1000_L_6_R_6.png","12_Ratio_1000_L_14_R_14.png","13_Ratio_1000_L_20_R_20.png","15_Ratio_1000_L_15_R_15.png","2_Ratio_1000_L_17_R_17.png","4_Ratio_1000_L_9_R_9.png","5_Ratio_1000_L_6_R_6.png","6_Ratio_1000_L_19_R_19.png","8_Ratio_1000_L_14_R_14.png","9_Ratio_1000_L_25_R_25.png"],["1_Ratio_1000_L_1_R_1.png","14_Ratio_1000_L_17_R_17.png","3_Ratio_1000_L_17_R_17.png","7_Ratio_1000_L_6_R_6.png"]]}},{"start_time":1551801379201,"click_time":1551801380049,"finger_time":1551801379730,"fix_duration":250,"trial":1,"RT":529,"MT":319,"sideResp":2,"stimulus":"img/500/equaldotanddens/R/3_Ratio_500_L_10_R_20.png","xmouse":[798,798,798,798,798,798,798,798,798,798,798,798,798,798,797,797,797,797,797,797,797,797,797,801,812,832,847,871,874,875,875,875,880,904,963,1048,1087,1111,1111,1111,1110,1110,1109],"ymouse":[530,530,530,530,530,530,530,530,530,530,530,530,530,529,529,529,529,529,529,529,529,529,529,527,520,507,496,467,457,447,436,429,411,379,304,199,151,120,119,118,116,114,94],"timestamp_mouse":[8,38,48,69,88,108,128,149,169,188,208,228,248,270,288,309,328,348,370,388,408,428,448,469,488,509,529,549,568,588,608,628,648,668,690,708,729,749,768,789,809,829,848],"xSR":741.5,"ySR":469.95,"xT1":424.9,"yT1":0,"xT2":1058.1,"yT2":0,"toosoon":0,"cond_shown":"equaldotanddens","ratio_trial":500,"smaller_num":"10","larger_num":"20","correct_side":2,"subjID":"sharonlozano22","gender":"1","age":"11","school":"6"},{"start_time":1551801381255,"click_time":1551801383311,"finger_time":1551801381589,"fix_duration":283.1559805403001,"trial":2,"RT":334,"MT":1722,"sideResp":2,"stimulus":"img/250/randomdotsizeEA/R/13_Ratio_250_L_2_R_8.png","xmouse":[791,792,793,793,790,790,790,790,790,790,790,790,790,791,805,828,857,889,943,1020,1036,1044,1047,1047,1048,1048,1047,1044,1038,1027,1021,1016,1013,1012,998,981,966,951,937,917,914,912,911,909,906,906,906,906,907,919,922,922,922,922,931,942,952,958,960,961,961,961,961,961,941,922,894,871,854,848,848,848,848,849,862,877,897,923,955,1051,1119,1193,1261,1315,1342,1342,1336,1329,1321,1304,1302,1300,1295,1290,1262,1243,1225,1210,1198,1176,1169,1163,1158],"ymouse":[528,525,522,518,517,517,517,517,517,517,517,517,517,517,520,523,523,523,511,474,465,460,458,458,458,458,457,457,457,460,464,466,467,468,474,481,488,495,500,507,508,510,510,512,514,514,514,514,514,513,512,512,512,512,508,504,499,497,496,495,495,495,495,496,501,506,515,522,527,528,528,528,528,528,526,524,521,516,507,469,435,394,352,308,267,257,247,240,231,200,186,176,167,163,139,125,115,107,102,97,96,95,94],"timestamp_mouse":[22,34,56,75,94,115,135,156,175,195,216,234,254,275,294,315,334,356,375,395,415,434,454,474,494,514,535,556,575,594,614,635,654,675,694,715,734,755,775,795,815,834,854,875,894,915,934,955,975,995,1015,1035,1054,1074,1094,1114,1134,1155,1175,1194,1214,1234,1254,1275,1295,1315,1334,1354,1374,1395,1415,1435,1455,1474,1495,1515,1535,1556,1575,1594,1614,1635,1655,1675,1694,1714,1734,1755,1775,1795,1816,1835,1855,1875,1894,1915,1935,1954,1974,1994,2015,2035,2056],"xSR":741.5,"ySR":469.95,"xT1":424.9,"yT1":0,"xT2":1058.1,"yT2":0,"toosoon":0,"cond_shown":"randomdotsizeEA","ratio_trial":250,"smaller_num":"2","larger_num":"8","correct_side":2,"subjID":"sharonlozano22","gender":"1","age":"11","school":"6"},{"start_time":1551801385583,"click_time":1551801386850,"finger_time":1551801386249,"fix_duration":1331.6293281785136,"trial":3,"RT":666,"MT":601,"sideResp":2,"stimulus":"img/500/equaldotsize/R/14_Ratio_500_L_5_R_10.png","xmouse":[756,756,756,755,755,755,755,755,755,755,755,755,754,754,754,753,753,753,753,753,753,753,753,753,753,753,752,752,750,750,749,748,746,741,739,737,736,736,736,736,737,742,748,758,763,768,782,794,816,827,839,852,869,931,975,1027,1080,1096,1106,1106,1104,1103,1102,1101],"ymouse":[529,529,529,529,529,529,529,529,529,529,529,529,529,529,529,530,531,531,532,532,534,536,537,538,538,539,539,540,541,542,542,542,542,543,543,544,544,544,544,544,545,547,548,549,549,549,549,549,550,547,543,537,525,461,391,320,227,191,162,154,145,133,120,81],"timestamp_mouse":[9,28,48,66,86,106,126,146,166,186,208,226,246,266,287,306,327,346,367,386,406,427,447,466,487,507,527,546,566,588,606,626,648,666,686,707,726,747,767,786,806,827,846,866,887,908,927,947,966,986,1006,1028,1046,1067,1087,1106,1126,1148,1166,1186,1206,1226,1246,1267],"xSR":741.5,"ySR":469.95,"xT1":424.9,"yT1":0,"xT2":1058.1,"yT2":0,"toosoon":0,"cond_shown":"equaldotsize","ratio_trial":500,"smaller_num":"5","larger_num":"10","correct_side":2,"subjID":"sharonlozano22","gender":"1","age":"11","school":"6"},{"start_time":1551801389141,"click_time":1551801390390,"finger_time":1551801389870,"fix_duration":1250.0773116126604,"trial":4,"RT":729,"MT":520,"sideResp":1,"stimulus":"img/900/equaldotsize/L/4_Ratio_900_L_20_R_18.png","xmouse":[805,805,805,805,805,805,805,805,805,805,805,805,805,805,805,805,805,805,805,805,805,805,805,805,805,805,805,805,805,805,801,790,774,761,753,745,736,723,699,654,607,591,572,552,532,502,493,486,481,481,478,476,476,476,476,472,472,472,471,471,468,468,467],"ymouse":[536,536,536,536,536,536,536,536,536,536,536,536,536,536,536,536,536,536,536,536,536,536,536,536,536,536,536,536,536,536,535,529,521,516,513,509,504,494,479,446,391,356,310,262,230,201,195,191,186,186,184,181,172,161,150,129,116,108,105,104,102,100,99],"timestamp_mouse":[10,35,48,69,88,108,128,148,168,189,208,228,248,268,289,308,330,348,368,388,408,428,448,468,489,508,528,549,568,589,608,629,648,669,688,709,729,748,769,789,809,829,855,868,888,908,929,949,968,988,1009,1028,1048,1068,1088,1109,1128,1149,1168,1189,1208,1229,1248],"xSR":741.5,"ySR":469.95,"xT1":424.9,"yT1":0,"xT2":1058.1,"yT2":0,"toosoon":0,"cond_shown":"equaldotsize","ratio_trial":900,"smaller_num":"18","larger_num":"20","correct_side":1,"subjID":"sharonlozano22","gender":"1","age":"11","school":"6"},{"start_time":1551801391631,"click_time":1551801392649,"finger_time":1551801392209,"fix_duration":498.6606335779992,"trial":5,"RT":578,"MT":440,"sideResp":1,"stimulus":"img/250/equaldotsize/L/14_Ratio_250_L_12_R_3.png","xmouse":[812,812,812,812,812,812,810,808,806,804,801,799,799,799,799,799,799,799,799,799,799,799,799,799,799,799,797,783,755,710,682,648,629,606,579,546,528,525,519,514,510,504,499,494,491,487,484,481,480,478,477,473],"ymouse":[532,532,532,532,532,532,533,535,537,540,543,546,546,546,546,546,546,546,546,546,546,546,546,546,546,546,547,547,541,524,509,486,469,442,401,329,237,214,202,194,186,177,170,162,155,149,146,142,136,125,111,88],"timestamp_mouse":[1,19,38,59,78,99,118,139,158,178,198,218,239,259,279,300,319,339,360,378,399,418,438,458,479,499,518,538,559,578,598,618,638,659,678,698,719,738,758,778,798,818,839,858,878,898,918,940,959,979,998,1018],"xSR":741.5,"ySR":469.95,"xT1":424.9,"yT1":0,"xT2":1058.1,"yT2":0,"toosoon":0,"cond_shown":"equaldotsize","ratio_trial":250,"smaller_num":"3","larger_num":"12","correct_side":1,"subjID":"sharonlozano22","gender":"1","age":"11","school":"6"},{"start_time":1551801397142,"click_time":1551801398830,"finger_time":1551801397869,"fix_duration":250,"trial":6,"RT":727,"MT":961,"sideResp":2,"stimulus":"img/500/randomdotsizeEA/L/11_Ratio_500_L_12_R_6.png","xmouse":[818,820,822,824,826,827,827,827,827,827,827,827,827,827,826,821,814,807,802,795,790,788,787,785,784,779,779,779,779,779,780,788,797,806,816,837,845,850,854,860,866,870,873,877,883,890,892,895,898,899,891,879,863,846,830,797,786,782,781,786,853,910,940,961,977,998,1013,1033,1064,1111,1143,1148,1149,1149,1146,1132,1129,1129,1128,1123,1103,1093,1085,1082,1082],"ymouse":[525,525,527,527,528,529,529,529,529,529,529,529,529,529,529,529,525,522,518,515,512,512,512,511,511,510,510,510,510,510,510,513,516,520,525,537,543,547,549,556,560,560,561,561,562,562,562,561,556,544,510,490,473,455,442,418,412,409,407,406,401,401,401,403,406,406,400,388,370,344,321,314,309,303,294,267,258,252,246,230,202,181,153,118,93],"timestamp_mouse":[20,37,47,67,88,107,127,147,167,187,207,227,247,268,288,307,328,348,368,387,407,428,448,467,487,507,528,548,567,587,607,628,647,667,688,707,727,747,767,789,807,828,847,867,888,907,928,947,968,988,1008,1028,1047,1067,1088,1108,1128,1148,1168,1187,1207,1229,1248,1267,1287,1308,1327,1349,1368,1387,1407,1427,1448,1468,1487,1508,1527,1548,1568,1587,1607,1628,1648,1667,1688],"xSR":741.5,"ySR":469.95,"xT1":424.9,"yT1":0,"xT2":1058.1,"yT2":0,"toosoon":0,"cond_shown":"randomdotsizeEA","ratio_trial":500,"smaller_num":"6","larger_num":"12","correct_side":1,"subjID":"sharonlozano22","gender":"1","age":"11","school":"6"},{"start_time":1551801402440,"click_time":1551801403250,"finger_time":1551801402891,"fix_duration":250,"trial":7,"RT":451,"MT":359,"sideResp":1,"stimulus":"img/750/equaldotsize/L/10_Ratio_750_L_4_R_3.png","xmouse":[747,747,747,748,748,749,749,750,750,750,752,752,752,752,753,753,753,753,753,753,748,743,734,722,713,702,699,698,697,697,697,696,694,690,679,643,618,587,553,530,486],"ymouse":[534,534,534,533,533,532,532,532,532,532,531,531,531,531,530,530,528,524,520,516,505,497,485,464,449,420,410,404,402,401,401,400,398,391,372,308,263,210,159,121,57],"timestamp_mouse":[12,34,51,69,90,109,130,149,169,189,210,230,250,269,290,310,330,350,370,390,409,430,451,470,489,509,529,549,569,590,609,631,650,670,690,709,730,749,770,789,810],"xSR":741.5,"ySR":469.95,"xT1":424.9,"yT1":0,"xT2":1058.1,"yT2":0,"toosoon":0,"cond_shown":"equaldotsize","ratio_trial":750,"smaller_num":"3","larger_num":"4","correct_side":1,"subjID":"sharonlozano22","gender":"1","age":"11","school":"6"},{"start_time":1551801405379,"click_time":1551801406870,"finger_time":1551801406049,"fix_duration":1188.9855566982333,"trial":8,"RT":670,"MT":821,"sideResp":1,"stimulus":"img/750/equaldotsize/R/5_Ratio_750_L_15_R_20.png","xmouse":[785,784,783,783,783,783,783,783,783,783,783,783,783,783,783,783,783,783,783,783,783,783,783,783,783,783,783,783,783,783,783,794,804,879,911,934,950,956,957,957,957,957,957,947,935,920,908,894,872,851,822,784,745,691,674,659,642,609,555,529,509,494,489,483,479,474,464,458,453,453,455,460,461,463,467],"ymouse":[509,509,510,511,511,511,511,511,511,511,511,511,511,511,511,511,511,511,511,511,511,511,511,511,511,511,511,511,511,511,511,508,504,464,446,431,422,419,419,418,418,418,418,422,429,438,446,453,463,472,482,493,500,501,494,483,464,418,348,318,301,287,279,254,237,228,213,202,184,171,152,137,126,103,84],"timestamp_mouse":[12,30,51,71,90,110,132,151,171,191,211,231,251,270,292,312,330,351,370,390,412,430,450,470,493,510,532,550,571,591,610,630,650,670,690,712,730,750,771,791,810,831,850,871,890,911,931,951,970,991,1010,1030,1050,1070,1091,1110,1132,1151,1170,1190,1210,1230,1250,1270,1290,1312,1331,1350,1371,1390,1410,1430,1450,1471,1490],"xSR":741.5,"ySR":469.95,"xT1":424.9,"yT1":0,"xT2":1058.1,"yT2":0,"toosoon":0,"cond_shown":"equaldotsize","ratio_trial":750,"smaller_num":"15","larger_num":"20","correct_side":2,"subjID":"sharonlozano22","gender":"1","age":"11","school":"6"},{"start_time":1551801408557,"click_time":1551801409889,"finger_time":1551801409450,"fix_duration":967.5486939412382,"trial":9,"RT":893,"MT":439,"sideResp":1,"stimulus":"img/750/equaldotsize/L/9_Ratio_750_L_4_R_3.png","xmouse":[792,792,792,792,792,793,794,796,799,801,801,801,801,802,802,803,804,805,806,807,807,807,807,807,807,807,807,807,807,807,807,807,807,807,807,807,807,807,807,807,807,807,804,786,728,694,671,647,616,580,566,554,544,535,520,512,505,494,477,460,456,452,451,449,447,446,446],"ymouse":[523,523,523,523,523,524,526,530,536,540,540,540,540,541,541,541,542,543,543,543,544,544,544,544,544,544,544,544,544,544,544,544,544,544,544,544,544,544,544,544,544,541,537,521,480,459,447,429,401,354,330,309,292,275,241,224,206,188,161,134,124,116,113,110,106,102,99],"timestamp_mouse":[16,35,52,72,92,112,132,153,172,192,213,233,253,274,293,312,332,354,374,392,413,432,452,473,494,512,534,554,573,592,613,633,652,672,692,712,733,752,773,792,813,832,852,872,893,912,932,953,973,992,1013,1032,1053,1073,1092,1112,1132,1152,1172,1194,1213,1233,1252,1272,1292,1313,1332],"xSR":741.5,"ySR":469.95,"xT1":424.9,"yT1":0,"xT2":1058.1,"yT2":0,"toosoon":0,"cond_shown":"equaldotsize","ratio_trial":750,"smaller_num":"3","larger_num":"4","correct_side":1,"subjID":"sharonlozano22","gender":"1","age":"11","school":"6"},{"start_time":1551801411729,"click_time":1551801412671,"finger_time":1551801412329,"fix_duration":958.1892725306702,"trial":10,"RT":600,"MT":342,"sideResp":1,"stimulus":"img/500/equaldotanddens/L/7_Ratio_500_L_10_R_5.png","xmouse":[782,782,782,782,782,781,781,780,780,780,780,780,780,780,780,780,779,779,779,779,779,778,778,778,776,774,770,768,762,759,738,672,619,580,559,542,511,498,488,474,453,439,435,433,433,438,463,476],"ymouse":[521,521,521,521,521,521,521,521,521,521,522,522,522,522,522,522,522,522,522,522,522,522,522,523,523,526,530,530,530,530,524,490,451,419,402,391,377,372,367,359,337,310,296,277,253,215,110,69],"timestamp_mouse":[9,29,41,61,82,100,121,141,162,180,200,220,241,261,282,301,321,342,360,380,401,421,441,461,482,501,520,542,561,581,600,620,640,660,680,700,721,741,760,781,801,821,841,861,880,901,921,942],"xSR":741.5,"ySR":469.95,"xT1":424.9,"yT1":0,"xT2":1058.1,"yT2":0,"toosoon":0,"cond_shown":"equaldotanddens","ratio_trial":500,"smaller_num":"5","larger_num":"10","correct_side":1,"subjID":"sharonlozano22","gender":"1","age":"11","school":"6"},{"start_time":1551801413954,"click_time":1551801415409,"finger_time":1551801414730,"fix_duration":323.05905701726556,"trial":11,"RT":776,"MT":679,"sideResp":1,"stimulus":"img/750/equaldotsize/L/14_Ratio_750_L_8_R_6.png","xmouse":[777,774,771,769,768,768,768,768,768,767,764,762,759,756,756,756,756,756,756,756,756,756,756,756,756,756,756,756,756,756,756,756,756,756,756,753,749,747,735,707,689,670,653,630,580,553,535,505,480,443,437,432,428,424,418,416,415,415,415,415,415,415,415,415,415,415,415,415,415,417,420,424,425],"ymouse":[532,532,532,532,532,532,532,532,532,532,535,538,540,542,542,542,542,542,542,542,542,542,542,542,542,542,542,542,542,542,542,542,542,542,542,541,537,535,524,505,492,478,467,451,415,392,375,342,304,220,197,181,171,158,138,130,126,125,125,125,125,125,123,117,99,94,91,89,88,84,79,75,73],"timestamp_mouse":[16,39,55,76,96,116,136,155,175,196,215,237,255,275,295,316,335,356,375,395,415,437,457,476,495,515,535,557,575,595,617,636,657,675,695,717,735,756,776,796,816,835,855,876,895,916,936,955,976,995,1016,1036,1057,1076,1096,1116,1135,1155,1175,1195,1215,1236,1255,1276,1295,1315,1336,1356,1376,1396,1417,1435,1455],"xSR":741.5,"ySR":469.95,"xT1":424.9,"yT1":0,"xT2":1058.1,"yT2":0,"toosoon":0,"cond_shown":"equaldotsize","ratio_trial":750,"smaller_num":"6","larger_num":"8","correct_side":1,"subjID":"sharonlozano22","gender":"1","age":"11","school":"6"},{"start_time":1551801421291,"click_time":1551801422731,"finger_time":1551801421550,"fix_duration":340.2383355683686,"trial":12,"RT":259,"MT":1181,"sideResp":2,"stimulus":"img/750/randomdotsizeEA/R/3_Ratio_750_L_15_R_20.png","xmouse":[793,793,790,786,784,780,779,775,770,764,757,743,728,722,714,705,695,674,662,653,648,647,647,647,647,649,652,677,692,706,732,745,771,785,797,806,815,855,886,923,931,945,962,963,963,963,963,972,984,999,1018,1060,1119,1149,1179,1204,1216,1216,1216,1216,1216,1216,1216,1216,1216,1216,1216,1216,1171,1170,1165,1157],"ymouse":[511,510,509,508,507,507,507,506,506,505,504,501,496,494,490,487,482,471,464,457,453,452,452,452,452,452,453,460,466,472,477,479,483,485,487,487,487,480,466,449,444,435,421,419,419,419,419,412,403,392,373,324,234,171,106,44,8,8,8,8,8,8,8,8,8,8,8,8,4,9,20,34],"timestamp_mouse":[19,39,58,79,98,118,138,158,179,199,219,239,259,278,298,320,338,359,379,398,419,439,459,478,499,518,540,558,578,598,618,639,660,678,699,719,738,759,778,799,819,839,858,878,899,918,938,959,978,999,1018,1039,1058,1079,1100,1119,1139,1159,1178,1198,1218,1239,1258,1279,1299,1319,1338,1358,1379,1399,1418,1439],"xSR":741.5,"ySR":469.95,"xT1":424.9,"yT1":0,"xT2":1058.1,"yT2":0,"toosoon":0,"cond_shown":"randomdotsizeEA","ratio_trial":750,"smaller_num":"15","larger_num":"20","correct_side":2,"subjID":"sharonlozano22","gender":"1","age":"11","school":"6"},{"start_time":1551801430286,"click_time":1551801431631,"finger_time":1551801431091,"fix_duration":1395.0893638584803,"trial":13,"RT":805,"MT":540,"sideResp":2,"stimulus":"img/250/randomdotsizeEA/R/4_Ratio_250_L_3_R_12.png","xmouse":[769,769,769,769,769,769,769,769,769,769,769,769,769,769,769,769,769,769,769,769,769,769,769,769,769,769,769,769,769,769,769,769,769,769,769,769,770,773,801,823,850,894,963,1029,1053,1064,1067,1067,1063,1057,1052,1049,1047,1047,1047,1047,1047,1047,1047,1047,1047,1048,1049,1049,1049,1049,1052,1060],"ymouse":[532,532,532,532,532,532,532,532,532,532,532,532,532,532,532,532,532,532,532,532,532,532,532,532,532,532,532,532,532,532,532,532,532,532,532,532,532,532,520,502,477,417,319,199,159,139,125,118,111,104,94,82,73,72,72,72,72,72,72,72,73,74,75,75,75,75,76,78],"timestamp_mouse":[8,32,45,63,84,103,123,144,164,183,203,225,244,263,283,303,323,344,364,384,404,423,443,464,484,503,524,543,564,584,604,624,644,664,684,704,724,743,763,784,805,823,844,863,883,903,924,943,964,984,1004,1023,1043,1063,1084,1104,1125,1144,1164,1184,1204,1225,1245,1263,1284,1303,1323,1344],"xSR":741.5,"ySR":469.95,"xT1":424.9,"yT1":0,"xT2":1058.1,"yT2":0,"toosoon":0,"cond_shown":"randomdotsizeEA","ratio_trial":250,"smaller_num":"3","larger_num":"12","correct_side":2,"subjID":"sharonlozano22","gender":"1","age":"11","school":"6"},{"start_time":1551801433816,"click_time":1551801435431,"finger_time":1551801434611,"fix_duration":684.5069231541332,"trial":14,"RT":795,"MT":820,"sideResp":1,"stimulus":"img/900/randomdotsizeEA/L/10_Ratio_900_L_20_R_18.png","xmouse":[786,786,786,788,789,789,789,789,790,790,790,791,791,791,791,791,791,791,791,791,791,791,791,791,791,791,791,791,791,791,791,791,792,793,797,806,825,833,838,842,844,846,847,847,847,847,847,847,847,847,847,847,846,829,795,770,714,690,669,647,628,591,577,566,557,542,523,515,508,503,498,477,466,457,449,442,442,442,442,442,442],"ymouse":[537,537,537,537,537,537,537,537,537,537,537,537,537,537,537,537,537,537,537,537,537,537,537,537,537,537,537,537,537,537,537,537,537,537,537,532,523,519,518,516,514,514,513,513,513,513,513,513,513,513,513,513,513,510,509,509,509,509,505,491,458,381,357,337,322,300,262,245,238,234,232,224,218,214,211,189,146,130,116,103,93],"timestamp_mouse":[14,33,54,74,94,114,133,153,174,193,214,233,254,273,293,314,333,353,373,395,413,433,453,474,493,514,533,553,574,594,613,634,655,673,694,714,733,754,773,795,813,834,854,874,895,914,934,954,973,994,1014,1034,1053,1074,1093,1114,1134,1154,1173,1194,1213,1233,1254,1273,1295,1315,1333,1353,1373,1394,1414,1434,1454,1474,1493,1514,1533,1553,1574,1594,1614],"xSR":741.5,"ySR":469.95,"xT1":424.9,"yT1":0,"xT2":1058.1,"yT2":0,"toosoon":0,"cond_shown":"randomdotsizeEA","ratio_trial":900,"smaller_num":"18","larger_num":"20","correct_side":1,"subjID":"sharonlozano22","gender":"1","age":"11","school":"6"},{"start_time":1551801437465,"click_time":1551801438551,"finger_time":1551801438169,"fix_duration":1152.308351166446,"trial":15,"RT":704,"MT":382,"sideResp":1,"stimulus":"img/250/equaldotsize/L/7_Ratio_250_L_8_R_2.png","xmouse":[812,812,812,812,812,812,812,812,812,812,812,812,812,812,812,812,812,812,812,812,812,812,812,812,812,812,812,812,812,812,812,812,812,812,803,790,776,743,686,566,529,510,495,482,469,460,445,431,420,406,405,408,416,422,427],"ymouse":[477,477,477,477,477,477,477,477,477,477,477,477,477,477,477,477,477,477,477,477,477,477,477,477,477,477,477,477,477,477,477,477,477,477,476,469,461,442,413,334,303,283,268,260,251,242,230,218,208,182,167,150,125,107,88],"timestamp_mouse":[8,25,44,64,85,106,125,144,166,184,205,224,245,264,284,305,326,345,364,385,404,426,444,464,486,504,524,545,565,584,605,626,645,665,684,704,725,744,765,785,804,826,845,866,884,904,924,945,964,984,1004,1025,1045,1066,1086],"xSR":741.5,"ySR":469.95,"xT1":424.9,"yT1":0,"xT2":1058.1,"yT2":0,"toosoon":0,"cond_shown":"equaldotsize","ratio_trial":250,"smaller_num":"2","larger_num":"8","correct_side":1,"subjID":"sharonlozano22","gender":"1","age":"11","school":"6"},{"start_time":1551801439921,"click_time":1551801441129,"finger_time":1551801440629,"fix_duration":250,"trial":16,"RT":708,"MT":500,"sideResp":2,"stimulus":"img/500/equaldotsize/R/2_Ratio_500_L_3_R_6.png","xmouse":[827,822,818,815,811,805,796,793,789,783,779,775,773,772,772,772,771,771,771,771,770,770,770,770,770,770,770,772,775,778,780,794,801,813,827,848,942,985,1028,1067,1094,1098,1098,1098,1098,1098,1113,1118,1121,1121,1121,1119,1114,1111,1109,1108,1107,1107,1104,1103,1098],"ymouse":[495,496,497,497,498,499,500,500,500,501,502,503,503,503,503,503,503,503,503,503,503,503,503,503,503,503,503,504,505,506,507,509,509,509,506,500,466,440,412,382,356,341,333,321,302,271,175,153,144,142,141,129,120,113,110,109,108,107,104,103,97],"timestamp_mouse":[10,38,49,69,89,109,129,149,170,188,209,229,249,270,288,308,328,349,368,389,409,428,452,468,489,509,529,548,569,589,609,628,648,669,688,708,728,749,768,788,809,828,848,869,889,910,929,948,969,989,1009,1029,1049,1069,1089,1108,1128,1149,1169,1188,1208],"xSR":741.5,"ySR":469.95,"xT1":424.9,"yT1":0,"xT2":1058.1,"yT2":0,"toosoon":0,"cond_shown":"equaldotsize","ratio_trial":500,"smaller_num":"3","larger_num":"6","correct_side":2,"subjID":"sharonlozano22","gender":"1","age":"11","school":"6"},{"start_time":1551801442570,"click_time":1551801443830,"finger_time":1551801443269,"fix_duration":379.5562685899013,"trial":17,"RT":699,"MT":561,"sideResp":2,"stimulus":"img/750/equaldotsize/R/5_Ratio_750_L_15_R_20.png","xmouse":[791,791,791,791,791,791,791,791,791,791,791,791,791,791,791,791,791,791,791,791,791,791,791,791,791,791,791,791,791,791,791,791,789,791,826,850,871,892,919,964,995,1024,1043,1054,1059,1059,1056,1049,1041,1029,1028,1028,1028,1028,1028,1028,1032,1036,1045,1052,1054,1055,1056,1060],"ymouse":[552,552,552,552,552,552,552,552,552,552,552,552,552,552,552,552,552,552,552,552,552,552,552,552,552,552,552,552,552,552,552,552,552,550,511,493,481,470,449,383,311,233,168,134,113,111,107,97,85,51,46,46,46,46,46,45,46,48,53,57,58,58,59,60],"timestamp_mouse":[8,27,40,59,79,100,120,139,161,179,200,220,241,259,279,299,320,341,359,380,399,419,440,459,479,499,520,539,559,579,600,621,640,660,679,699,720,739,760,779,800,820,841,861,880,900,920,940,961,979,999,1019,1039,1061,1080,1101,1120,1139,1159,1179,1200,1219,1240,1260],"xSR":741.5,"ySR":469.95,"xT1":424.9,"yT1":0,"xT2":1058.1,"yT2":0,"toosoon":0,"cond_shown":"equaldotsize","ratio_trial":750,"smaller_num":"15","larger_num":"20","correct_side":2,"subjID":"sharonlozano22","gender":"1","age":"11","school":"6"},{"start_time":1551801449946,"click_time":1551801451750,"finger_time":1551801450949,"fix_duration":1094.926837390477,"trial":18,"RT":1003,"MT":801,"sideResp":1,"stimulus":"img/750/randomdotsizeEA/L/1_Ratio_750_L_20_R_15.png","xmouse":[786,786,786,786,787,788,788,790,790,791,791,791,791,791,791,791,791,791,791,791,791,791,791,791,791,791,791,791,791,791,791,791,793,794,794,794,794,794,794,794,794,794,794,794,794,794,794,794,796,807,863,908,955,990,1016,1050,1057,1060,1060,1060,1059,1059,1059,1058,1046,1006,970,926,869,836,783,755,732,705,674,608,586,571,555,536,519,514,508,501,493,477,469,460,448,436,426],"ymouse":[499,499,499,499,501,503,504,505,507,507,508,508,508,508,508,508,508,508,508,508,508,508,508,508,508,508,508,508,508,508,508,508,508,508,508,508,508,508,508,508,508,508,508,508,508,508,508,508,509,509,475,440,402,366,330,261,233,212,210,209,205,205,205,205,211,251,289,333,388,412,431,431,427,416,393,308,269,250,241,226,208,199,194,189,184,177,172,163,152,129,99],"timestamp_mouse":[21,42,44,64,84,103,124,143,163,184,204,223,244,265,283,303,324,343,365,383,403,423,445,463,484,503,524,545,564,583,604,623,643,664,684,703,723,744,764,783,803,824,844,863,883,904,924,943,965,984,1003,1024,1044,1064,1084,1104,1123,1144,1164,1185,1204,1224,1244,1264,1283,1303,1323,1344,1363,1384,1403,1424,1443,1464,1484,1503,1524,1544,1563,1583,1604,1624,1643,1665,1683,1704,1723,1744,1764,1784,1804],"xSR":741.5,"ySR":469.95,"xT1":424.9,"yT1":0,"xT2":1058.1,"yT2":0,"toosoon":0,"cond_shown":"randomdotsizeEA","ratio_trial":750,"smaller_num":"15","larger_num":"20","correct_side":1,"subjID":"sharonlozano22","gender":"1","age":"11","school":"6"},{"start_time":1551801453336,"click_time":1551801454871,"finger_time":1551801454250,"fix_duration":605.0155630132108,"trial":19,"RT":914,"MT":621,"sideResp":2,"stimulus":"img/900/randomdotsizeEA/L/2_Ratio_900_L_20_R_18.png","xmouse":[797,797,797,797,797,797,797,797,797,797,797,797,797,797,797,797,797,797,797,797,797,797,797,797,797,797,797,797,797,797,797,797,797,797,797,797,797,797,797,801,818,825,828,832,837,844,846,848,848,848,848,848,848,849,850,862,873,896,913,933,952,958,963,965,967,964,960,952,936,929,926,926,929,935,946,1038,1069],"ymouse":[520,520,520,520,520,520,520,520,520,520,520,520,520,520,520,520,520,520,520,520,520,520,520,520,520,520,520,520,520,520,520,520,520,520,520,520,520,520,520,519,515,512,511,510,510,510,510,510,510,510,510,510,510,510,509,497,484,458,439,417,379,359,340,322,306,293,285,269,239,219,201,197,194,187,177,61,22],"timestamp_mouse":[13,35,53,73,93,114,135,153,175,194,213,234,253,273,294,313,334,353,373,393,414,434,455,474,494,513,534,553,573,593,613,635,654,675,693,713,735,753,774,793,814,834,854,873,895,914,933,954,974,994,1014,1033,1054,1074,1095,1114,1134,1153,1175,1194,1214,1233,1253,1274,1293,1313,1333,1354,1375,1394,1414,1434,1453,1474,1494,1514,1535],"xSR":741.5,"ySR":469.95,"xT1":424.9,"yT1":0,"xT2":1058.1,"yT2":0,"toosoon":0,"cond_shown":"randomdotsizeEA","ratio_trial":900,"smaller_num":"18","larger_num":"20","correct_side":1,"subjID":"sharonlozano22","gender":"1","age":"11","school":"6"},{"start_time":1551801457006,"click_time":1551801458250,"finger_time":1551801457871,"fix_duration":974.9160082936822,"trial":20,"RT":865,"MT":379,"sideResp":2,"stimulus":"img/900/randomdotsizeEA/R/3_Ratio_900_L_9_R_10.png","xmouse":[814,814,814,814,814,814,814,814,814,814,814,814,814,814,814,810,804,789,784,781,780,780,780,780,780,780,780,780,780,780,780,780,780,780,780,780,780,780,780,780,780,784,810,851,888,907,971,1129,1183,1183,1183,1183,1183,1183,1183,1183,1183,1183,1183,1183,1172,1163,1138],"ymouse":[528,528,528,528,528,528,528,528,528,528,528,528,528,528,528,526,524,517,515,514,513,513,513,513,513,513,513,513,513,513,513,513,513,513,513,513,513,513,513,513,513,510,487,441,396,372,299,106,27,27,27,27,27,27,27,27,27,27,27,27,2,14,44],"timestamp_mouse":[8,23,44,63,83,105,125,144,163,183,203,223,243,264,283,303,324,343,363,384,403,425,444,464,483,505,523,544,565,583,604,624,644,663,684,703,724,743,764,784,805,823,844,865,884,903,925,943,963,985,1005,1023,1043,1063,1084,1103,1124,1144,1164,1184,1204,1225,1244],"xSR":741.5,"ySR":469.95,"xT1":424.9,"yT1":0,"xT2":1058.1,"yT2":0,"toosoon":0,"cond_shown":"randomdotsizeEA","ratio_trial":900,"smaller_num":"9","larger_num":"10","correct_side":2,"subjID":"sharonlozano22","gender":"1","age":"11","school":"6"},{"start_time":1551801465221,"click_time":1551801466650,"finger_time":1551801466111,"fix_duration":1449.8849447900172,"trial":21,"RT":890,"MT":539,"sideResp":2,"stimulus":"img/900/equaldotsize/R/13_Ratio_900_L_18_R_20.png","xmouse":[786,786,786,786,786,786,786,786,786,786,786,786,786,786,786,786,786,786,786,786,786,786,786,786,786,786,786,786,786,786,786,786,786,786,786,786,786,786,786,786,786,786,786,796,824,851,904,923,934,940,947,955,961,971,992,1002,1011,1015,1021,1028,1036,1048,1052,1052,1052,1052,1052,1052,1053,1053,1054,1068],"ymouse":[536,536,536,536,536,536,536,536,536,536,536,536,536,536,536,536,536,536,536,536,536,536,536,536,536,536,536,536,536,536,536,536,536,536,536,536,536,536,536,536,536,536,531,513,463,422,334,302,281,263,246,221,207,191,167,158,151,143,128,110,92,64,55,51,51,51,51,51,51,51,51,56],"timestamp_mouse":[9,39,49,69,88,109,129,148,169,189,210,228,249,268,289,309,330,348,370,388,409,428,450,469,489,508,529,548,570,589,608,629,648,670,689,709,728,749,770,788,808,829,849,869,890,909,929,949,969,988,1009,1029,1048,1070,1090,1109,1128,1148,1168,1189,1208,1228,1249,1270,1289,1309,1330,1350,1369,1388,1410,1429],"xSR":741.5,"ySR":469.95,"xT1":424.9,"yT1":0,"xT2":1058.1,"yT2":0,"toosoon":0,"cond_shown":"equaldotsize","ratio_trial":900,"smaller_num":"18","larger_num":"20","correct_side":2,"subjID":"sharonlozano22","gender":"1","age":"11","school":"6"},{"start_time":1551801468716,"click_time":1551801470430,"finger_time":1551801469810,"fix_duration":863.3436217145164,"trial":22,"RT":1094,"MT":620,"sideResp":1,"stimulus":"img/500/equaldotsize/L/11_Ratio_500_L_12_R_6.png","xmouse":[771,771,771,771,771,771,771,771,771,771,771,771,771,771,771,771,771,771,771,771,771,771,771,771,771,771,771,771,771,771,771,771,771,771,771,771,771,771,771,771,771,771,771,771,771,771,771,771,771,771,771,771,770,756,723,686,621,593,568,536,476,397,365,351,351,351,351,351,351,351,351,351,351,351,351,351,351,351,351,351,351,351,351,351,399,449],"ymouse":[556,556,556,556,556,556,556,556,556,556,556,556,556,556,556,556,556,556,556,556,556,556,556,556,556,556,556,556,556,556,556,556,556,556,556,556,556,556,556,556,556,556,556,556,556,556,556,556,556,556,556,556,556,557,569,574,543,507,450,382,266,137,69,38,38,38,38,38,38,38,38,38,38,38,38,38,38,38,38,38,38,38,38,38,31,60],"timestamp_mouse":[14,34,54,74,95,113,133,154,174,194,213,234,255,275,293,313,335,354,374,394,414,435,454,475,494,514,534,553,574,593,613,635,654,674,693,714,733,753,774,795,814,834,855,873,893,914,934,955,975,994,1014,1033,1054,1075,1094,1114,1134,1154,1174,1194,1214,1234,1255,1274,1294,1315,1335,1354,1374,1393,1413,1434,1454,1474,1495,1514,1535,1555,1574,1594,1614,1634,1655,1674,1694,1714],"xSR":741.5,"ySR":469.95,"xT1":424.9,"yT1":0,"xT2":1058.1,"yT2":0,"toosoon":0,"cond_shown":"equaldotsize","ratio_trial":500,"smaller_num":"6","larger_num":"12","correct_side":1,"subjID":"sharonlozano22","gender":"1","age":"11","school":"6"},{"start_time":1551801473320,"click_time":1551801474969,"finger_time":1551801474170,"fix_duration":829.6744667694703,"trial":23,"RT":850,"MT":799,"sideResp":1,"stimulus":"img/900/equaldotsize/L/2_Ratio_900_L_20_R_18.png","xmouse":[816,817,817,817,817,817,817,817,817,817,817,817,817,817,817,817,817,817,817,817,817,817,817,817,817,817,817,817,817,817,817,817,817,817,817,817,817,817,817,817,817,802,764,712,662,607,516,476,449,427,397,367,361,356,351,348,345,345,344,344,344,346,348,353,370,384,406,413,420,430,440,443,443,444,444,444,441,441,441,441,441,441,441],"ymouse":[482,482,482,482,482,482,482,482,482,482,482,482,482,482,482,482,482,482,482,482,482,482,482,482,482,482,482,482,482,482,482,482,482,482,482,482,482,482,482,482,482,476,465,451,432,407,367,352,344,335,315,281,271,259,241,214,146,130,125,121,117,112,109,108,108,109,115,117,117,117,118,119,119,119,119,118,108,108,106,105,105,101,99],"timestamp_mouse":[10,39,50,70,89,110,129,149,171,190,209,230,249,271,291,309,329,351,371,389,410,430,450,471,489,510,530,550,570,591,610,629,651,670,690,710,730,749,770,791,810,830,850,870,891,910,930,950,970,990,1010,1030,1050,1069,1090,1109,1130,1150,1170,1190,1210,1229,1250,1269,1290,1310,1329,1350,1371,1390,1410,1430,1449,1470,1490,1511,1530,1550,1570,1590,1611,1630,1649],"xSR":741.5,"ySR":469.95,"xT1":424.9,"yT1":0,"xT2":1058.1,"yT2":0,"toosoon":0,"cond_shown":"equaldotsize","ratio_trial":900,"smaller_num":"18","larger_num":"20","correct_side":1,"subjID":"sharonlozano22","gender":"1","age":"11","school":"6"},{"start_time":1551801479692,"click_time":1551801480470,"finger_time":1551801480390,"fix_duration":980.8442697232678,"trial":24,"RT":698,"MT":80,"sideResp":2,"stimulus":"img/500/equaldotanddens/R/12_Ratio_500_L_1_R_2.png","xmouse":[830,830,830,830,830,830,830,830,830,830,830,830,830,830,830,830,830,830,830,830,830,830,830,830,830,830,830,830,830,830,830,830,830,836,861,906,967,1101,1157],"ymouse":[531,531,531,531,531,531,531,531,531,531,531,531,531,531,531,531,531,531,531,531,531,531,531,531,531,531,531,531,531,531,531,531,531,522,480,405,321,136,69],"timestamp_mouse":[18,38,58,78,99,117,137,158,178,197,219,237,257,277,299,318,338,358,378,397,418,437,458,477,498,519,538,557,577,598,617,637,658,678,698,718,738,758,778],"xSR":741.5,"ySR":469.95,"xT1":424.9,"yT1":0,"xT2":1058.1,"yT2":0,"toosoon":0,"cond_shown":"equaldotanddens","ratio_trial":500,"smaller_num":"1","larger_num":"2","correct_side":2,"subjID":"sharonlozano22","gender":"1","age":"11","school":"6"},{"start_time":1551801482729,"click_time":1551801484170,"finger_time":1551801483450,"fix_duration":1118.3929286016241,"trial":25,"RT":721,"MT":720,"sideResp":2,"stimulus":"img/900/equaldotsize/R/3_Ratio_900_L_9_R_10.png","xmouse":[779,779,779,779,779,779,779,779,779,779,779,779,779,779,779,779,779,779,779,779,779,779,779,779,779,779,779,779,779,779,779,779,779,779,795,805,862,895,925,946,961,1013,1060,1104,1132,1143,1147,1147,1147,1148,1149,1152,1152,1151,1147,1139,1119,1108,1099,1092,1083,1081,1081,1081,1082,1085,1088,1091,1092,1092,1092,1092,1092],"ymouse":[532,532,532,532,532,532,532,532,532,532,532,532,532,532,532,532,532,532,532,532,532,532,532,532,532,532,532,532,532,532,532,532,532,532,528,524,497,479,467,458,451,417,384,353,332,324,320,320,318,314,305,287,282,276,265,249,216,199,182,165,140,128,125,121,117,113,108,104,102,101,101,101,99],"timestamp_mouse":[9,21,42,61,81,100,122,140,162,181,201,221,240,260,281,301,321,341,361,382,401,422,441,460,482,502,521,540,561,580,601,621,642,661,681,701,721,741,761,782,802,821,841,861,882,900,920,940,962,981,1001,1020,1041,1060,1081,1101,1120,1140,1161,1181,1201,1221,1240,1260,1281,1301,1320,1340,1362,1381,1401,1421,1441],"xSR":741.5,"ySR":469.95,"xT1":424.9,"yT1":0,"xT2":1058.1,"yT2":0,"toosoon":0,"cond_shown":"equaldotsize","ratio_trial":900,"smaller_num":"9","larger_num":"10","correct_side":2,"subjID":"sharonlozano22","gender":"1","age":"11","school":"6"},{"start_time":1551801487447,"click_time":1551801489889,"finger_time":1551801488850,"fix_duration":1135.6349310942849,"trial":26,"RT":1403,"MT":1039,"sideResp":1,"stimulus":"img/900/randomdotsizeEA/L/8_Ratio_900_L_20_R_18.png","xmouse":[807,807,807,807,807,807,807,806,805,804,803,803,802,802,802,802,802,802,802,802,802,802,802,802,802,802,802,802,802,802,802,802,802,802,802,802,802,802,802,802,802,802,802,802,802,802,802,802,802,802,802,802,802,802,802,802,802,802,802,802,802,802,802,802,802,802,802,802,804,811,844,864,884,902,925,927,927,917,900,883,852,845,839,817,803,778,776,776,776,771,763,757,749,742,735,729,723,713,699,686,669,659,652,646,624,594,580,569,560,553,551,551,551,551,551,551,551,551,551,551,544,533,522],"ymouse":[523,523,523,523,523,523,523,521,521,519,518,518,518,517,517,517,517,517,517,517,517,517,517,517,517,517,517,517,517,517,517,517,517,517,517,517,517,517,517,517,517,517,517,517,517,517,517,517,517,517,517,517,517,517,517,517,517,517,517,517,517,517,517,517,517,517,517,517,515,506,477,465,445,434,422,420,420,420,420,420,412,415,411,396,386,369,366,366,366,358,320,312,305,300,295,292,288,281,270,257,229,212,199,188,160,123,107,97,88,82,80,80,80,80,80,80,80,80,80,80,80,79,77],"timestamp_mouse":[13,30,43,63,83,103,123,144,164,183,203,222,243,262,283,303,323,343,362,383,403,422,442,464,483,503,524,544,563,584,603,622,643,662,683,702,724,742,762,783,802,823,842,864,882,902,923,943,962,983,1002,1024,1042,1063,1083,1102,1123,1144,1162,1184,1204,1222,1243,1262,1282,1303,1322,1344,1363,1383,1403,1422,1442,1462,1482,1502,1523,1542,1563,1583,1603,1622,1642,1663,1684,1702,1724,1744,1764,1783,1803,1823,1844,1863,1883,1904,1923,1944,1964,1984,2003,2023,2044,2064,2083,2103,2123,2142,2163,2184,2203,2223,2243,2262,2283,2304,2324,2343,2363,2383,2403,2424,2442],"xSR":741.5,"ySR":469.95,"xT1":424.9,"yT1":0,"xT2":1058.1,"yT2":0,"toosoon":0,"cond_shown":"randomdotsizeEA","ratio_trial":900,"smaller_num":"18","larger_num":"20","correct_side":1,"subjID":"sharonlozano22","gender":"1","age":"11","school":"6"},{"start_time":1551801492667,"click_time":1551801494031,"finger_time":1551801493410,"fix_duration":1036.5467927712689,"trial":27,"RT":743,"MT":621,"sideResp":2,"stimulus":"img/500/equaldotanddens/R/3_Ratio_500_L_10_R_20.png","xmouse":[812,812,812,812,812,812,812,812,811,811,810,810,810,810,810,810,809,809,809,809,809,809,809,809,809,809,809,809,809,809,809,809,809,809,809,809,809,849,890,1095,1177,1242,1293,1317,1350,1355,1355,1355,1348,1316,1289,1252,1225,1196,1179,1174,1171,1169,1169,1166,1163,1162,1162,1162,1162,1162,1160,1159,1157],"ymouse":[491,491,491,491,491,490,490,490,490,490,490,490,490,491,491,491,491,491,491,491,491,491,491,491,491,491,491,491,491,491,491,491,491,491,491,491,491,478,467,424,400,381,367,360,339,331,325,315,299,257,232,203,178,147,118,106,98,95,93,87,82,80,79,79,79,79,77,75,72],"timestamp_mouse":[9,28,42,63,82,102,123,142,162,183,202,222,243,263,282,303,323,343,363,382,403,423,442,464,483,503,523,544,563,583,604,623,643,663,682,703,724,743,763,782,804,823,843,863,882,902,923,944,963,983,1002,1023,1044,1063,1082,1103,1123,1142,1163,1183,1204,1223,1243,1263,1283,1303,1323,1342,1364],"xSR":741.5,"ySR":469.95,"xT1":424.9,"yT1":0,"xT2":1058.1,"yT2":0,"toosoon":0,"cond_shown":"equaldotanddens","ratio_trial":500,"smaller_num":"10","larger_num":"20","correct_side":2,"subjID":"sharonlozano22","gender":"1","age":"11","school":"6"},{"start_time":1551801497378,"click_time":1551801498770,"finger_time":1551801498070,"fix_duration":425.67090241077466,"trial":28,"RT":692,"MT":700,"sideResp":2,"stimulus":"img/900/equaldotsize/R/9_Ratio_900_L_18_R_20.png","xmouse":[776,776,776,776,776,776,776,776,776,776,776,776,776,776,776,776,776,776,776,776,776,776,776,776,776,776,776,776,776,776,776,774,772,757,738,727,721,717,719,731,749,771,793,826,836,845,856,892,951,963,968,970,976,1001,1026,1048,1065,1070,1071,1073,1078,1085,1090,1096,1097,1097,1099,1105,1109,1110],"ymouse":[529,529,529,529,529,529,529,529,529,529,529,529,529,529,529,529,529,529,529,529,529,529,529,529,529,529,529,529,529,529,529,529,528,516,494,474,463,448,426,406,392,384,378,368,366,363,358,350,337,334,332,330,325,304,286,270,256,251,243,234,220,204,193,174,165,157,144,124,101,92],"timestamp_mouse":[12,31,52,73,93,111,131,152,172,192,211,232,251,272,292,313,333,352,372,393,411,432,451,471,492,511,533,551,572,592,612,632,653,672,692,713,731,752,773,793,812,832,852,872,891,913,932,952,973,992,1012,1032,1052,1071,1091,1113,1133,1153,1171,1192,1211,1232,1253,1272,1292,1312,1333,1352,1372,1392],"xSR":741.5,"ySR":469.95,"xT1":424.9,"yT1":0,"xT2":1058.1,"yT2":0,"toosoon":0,"cond_shown":"equaldotsize","ratio_trial":900,"smaller_num":"18","larger_num":"20","correct_side":2,"subjID":"sharonlozano22","gender":"1","age":"11","school":"6"},{"start_time":1551801500286,"click_time":1551801501570,"finger_time":1551801501069,"fix_duration":435.1853183669198,"trial":29,"RT":783,"MT":501,"sideResp":1,"stimulus":"img/900/randomdotsizeEA/L/4_Ratio_900_L_20_R_18.png","xmouse":[817,817,816,815,814,814,814,812,812,811,810,808,805,803,803,803,803,803,803,803,803,803,803,803,803,803,803,803,803,802,802,800,792,780,776,774,772,770,744,677,613,568,542,525,521,518,510,501,478,474,473,473,474,474,474,474,474,474,474,474,474,474,474,473,473],"ymouse":[505,505,506,506,506,506,506,506,506,507,507,507,508,508,508,508,508,508,508,508,508,508,508,508,508,508,508,508,508,508,508,509,509,509,509,508,507,502,482,438,389,356,334,316,310,302,288,268,225,206,186,170,161,149,144,137,129,123,119,119,117,117,111,100,98],"timestamp_mouse":[11,25,43,64,84,103,124,145,163,184,204,223,244,263,284,304,325,344,363,385,404,424,443,464,484,503,525,543,564,583,604,624,644,664,683,704,725,745,764,783,805,824,843,863,884,904,924,943,963,983,1005,1024,1045,1063,1084,1104,1124,1144,1164,1184,1203,1224,1244,1264,1284],"xSR":741.5,"ySR":469.95,"xT1":424.9,"yT1":0,"xT2":1058.1,"yT2":0,"toosoon":0,"cond_shown":"randomdotsizeEA","ratio_trial":900,"smaller_num":"18","larger_num":"20","correct_side":1,"subjID":"sharonlozano22","gender":"1","age":"11","school":"6"},{"start_time":1551801517475,"click_time":1551801518749,"finger_time":1551801518209,"fix_duration":305.862345842841,"trial":30,"RT":734,"MT":540,"sideResp":1,"stimulus":"img/750/equaldotsize/L/8_Ratio_750_L_4_R_3.png","xmouse":[754,754,754,754,754,754,754,754,754,754,754,754,754,754,754,754,754,754,751,751,751,751,751,751,751,751,751,751,751,751,751,751,751,751,751,746,735,718,685,670,656,637,627,612,604,601,601,601,595,589,580,570,549,515,502,492,482,473,462,459,455,453,451,451],"ymouse":[560,560,560,560,560,560,560,560,560,560,560,560,560,560,560,561,561,561,565,566,566,566,566,566,566,566,566,566,566,566,566,566,566,566,566,563,551,536,504,488,477,462,454,427,406,384,362,346,322,310,295,281,261,243,238,232,222,208,169,150,135,121,101,84],"timestamp_mouse":[13,37,54,74,94,115,134,154,175,195,213,234,254,273,294,314,334,353,374,395,413,434,455,473,495,514,534,553,574,595,614,635,653,674,693,714,734,755,773,793,814,834,854,874,894,914,934,955,974,993,1013,1035,1054,1074,1094,1113,1134,1154,1174,1194,1214,1233,1255,1274],"xSR":741.5,"ySR":469.95,"xT1":424.9,"yT1":0,"xT2":1058.1,"yT2":0,"toosoon":0,"cond_shown":"equaldotsize","ratio_trial":750,"smaller_num":"3","larger_num":"4","correct_side":1,"subjID":"sharonlozano22","gender":"1","age":"11","school":"6"},{"start_time":1551801520432,"click_time":1551801521529,"finger_time":1551801521129,"fix_duration":821.4002156275609,"trial":31,"RT":697,"MT":400,"sideResp":1,"stimulus":"img/900/equaldotsize/L/10_Ratio_900_L_20_R_18.png","xmouse":[824,824,824,824,824,824,824,824,824,824,824,824,824,824,824,824,824,824,824,824,824,824,824,824,824,824,824,824,824,824,824,824,820,814,793,761,742,725,713,705,688,681,669,656,648,627,616,602,589,578,555,544,532,515,507],"ymouse":[497,497,497,497,497,497,497,497,497,497,497,497,497,497,497,497,497,497,497,497,497,497,497,497,497,497,497,497,497,497,497,497,495,489,467,412,374,342,321,304,276,263,247,231,221,203,196,189,182,176,158,147,133,108,91],"timestamp_mouse":[17,36,58,77,97,118,138,157,177,198,216,238,258,278,297,317,337,357,378,396,417,438,457,476,498,517,536,557,576,596,616,637,657,677,697,717,737,757,778,797,816,837,857,877,897,916,937,958,978,997,1017,1036,1057,1077,1097],"xSR":741.5,"ySR":469.95,"xT1":424.9,"yT1":0,"xT2":1058.1,"yT2":0,"toosoon":0,"cond_shown":"equaldotsize","ratio_trial":900,"smaller_num":"18","larger_num":"20","correct_side":1,"subjID":"sharonlozano22","gender":"1","age":"11","school":"6"},{"start_time":1551801522907,"click_time":1551801523909,"finger_time":1551801523529,"fix_duration":556.2050167513321,"trial":32,"RT":622,"MT":380,"sideResp":2,"stimulus":"img/500/equaldotanddens/R/12_Ratio_500_L_1_R_2.png","xmouse":[760,760,760,760,760,760,760,760,760,760,760,760,760,760,760,760,760,760,760,760,760,760,760,760,760,760,763,785,801,816,828,845,899,966,1041,1124,1186,1231,1231,1231,1227,1225,1224,1217,1207,1200,1194,1179,1171,1165,1156],"ymouse":[498,498,498,498,498,498,498,498,498,498,498,498,498,498,498,498,498,498,498,498,498,498,498,498,498,498,498,503,507,508,508,506,485,459,425,395,368,341,335,326,304,261,190,164,150,141,133,114,101,93,89],"timestamp_mouse":[12,22,42,62,81,102,122,143,162,183,201,222,242,261,283,302,321,342,361,382,403,421,442,463,481,502,522,542,562,583,602,622,642,662,682,702,723,742,763,782,803,821,842,862,882,901,923,942,962,982,1001],"xSR":741.5,"ySR":469.95,"xT1":424.9,"yT1":0,"xT2":1058.1,"yT2":0,"toosoon":0,"cond_shown":"equaldotanddens","ratio_trial":500,"smaller_num":"1","larger_num":"2","correct_side":2,"subjID":"sharonlozano22","gender":"1","age":"11","school":"6"},{"start_time":1551801526038,"click_time":1551801526909,"finger_time":1551801526669,"fix_duration":306.6344083656449,"trial":33,"RT":631,"MT":240,"sideResp":2,"stimulus":"img/500/equaldotanddens/L/8_Ratio_500_L_8_R_4.png","xmouse":[823,823,823,823,823,823,823,823,823,823,823,823,823,823,823,823,823,823,823,823,823,823,823,823,823,823,823,823,825,827,840,853,868,895,914,942,955,969,990,1023,1090,1103,1110,1115],"ymouse":[508,508,508,508,508,508,508,508,508,508,508,508,508,508,508,508,508,508,508,508,508,508,508,508,508,508,508,508,507,504,486,468,450,423,403,371,357,337,301,240,139,122,110,97],"timestamp_mouse":[11,36,51,70,91,112,132,152,170,191,211,230,250,272,292,311,331,350,372,390,410,431,451,471,491,512,531,551,571,591,611,631,651,670,691,712,731,751,771,791,811,830,851,871],"xSR":741.5,"ySR":469.95,"xT1":424.9,"yT1":0,"xT2":1058.1,"yT2":0,"toosoon":0,"cond_shown":"equaldotanddens","ratio_trial":500,"smaller_num":"4","larger_num":"8","correct_side":1,"subjID":"sharonlozano22","gender":"1","age":"11","school":"6"},{"start_time":1551801528382,"click_time":1551801529270,"finger_time":1551801528948,"fix_duration":591.3067560123361,"trial":34,"RT":566,"MT":322,"sideResp":1,"stimulus":"img/500/randomdotsizeEA/L/7_Ratio_500_L_10_R_5.png","xmouse":[799,799,799,799,799,799,799,799,799,798,798,798,797,797,796,796,796,795,794,794,793,792,792,791,789,788,777,762,708,680,657,641,627,605,597,590,579,567,549,543,539,530,519,497,492],"ymouse":[553,553,553,553,553,553,553,553,553,553,553,553,552,551,551,551,549,549,548,548,547,546,545,545,543,541,528,507,444,409,382,363,346,308,288,266,229,203,162,152,144,132,119,102,98],"timestamp_mouse":[8,28,47,68,87,107,128,147,166,188,206,227,247,266,287,307,328,347,367,387,406,427,448,467,486,508,528,547,566,587,607,628,648,667,687,706,727,748,768,787,807,828,847,867,888],"xSR":741.5,"ySR":469.95,"xT1":424.9,"yT1":0,"xT2":1058.1,"yT2":0,"toosoon":0,"cond_shown":"randomdotsizeEA","ratio_trial":500,"smaller_num":"5","larger_num":"10","correct_side":1,"subjID":"sharonlozano22","gender":"1","age":"11","school":"6"},{"start_time":1551801533013,"click_time":1551801533929,"finger_time":1551801533648,"fix_duration":1363.8801193547529,"trial":35,"RT":635,"MT":281,"sideResp":1,"stimulus":"img/500/equaldotsize/L/4_Ratio_500_L_18_R_9.png","xmouse":[779,779,779,779,779,779,779,779,779,779,779,779,779,779,779,779,779,779,779,779,779,779,779,779,779,779,779,779,779,769,745,672,632,601,573,550,508,490,479,474,470,466,465,465,465,465],"ymouse":[530,530,530,530,530,530,530,530,530,530,530,530,530,530,530,530,530,530,530,530,530,530,530,530,530,530,530,530,527,512,476,404,372,348,323,292,223,193,172,161,149,133,127,119,106,97],"timestamp_mouse":[16,35,56,75,97,116,136,155,177,195,217,235,255,275,296,316,335,356,375,396,416,436,456,477,497,516,535,557,577,596,617,635,657,677,696,715,736,756,777,796,816,835,856,876,895,916],"xSR":741.5,"ySR":469.95,"xT1":424.9,"yT1":0,"xT2":1058.1,"yT2":0,"toosoon":0,"cond_shown":"equaldotsize","ratio_trial":500,"smaller_num":"9","larger_num":"18","correct_side":1,"subjID":"sharonlozano22","gender":"1","age":"11","school":"6"},{"start_time":1551801535205,"click_time":1551801536949,"finger_time":1551801536169,"fix_duration":595.2369794693311,"trial":36,"RT":964,"MT":780,"sideResp":2,"stimulus":"img/500/equaldotsize/R/2_Ratio_500_L_3_R_6.png","xmouse":[780,780,780,780,780,780,780,780,780,780,780,780,780,780,780,780,780,780,780,780,780,780,780,780,780,780,780,780,780,780,780,780,780,780,780,780,780,780,780,780,780,780,780,780,780,780,783,832,869,894,913,931,968,1007,1072,1154,1172,1179,1181,1183,1187,1195,1210,1217,1221,1222,1222,1220,1217,1213,1211,1210,1207,1202,1196,1190,1181,1171,1169,1167,1166,1165,1165,1165,1165,1164,1161,1155],"ymouse":[543,543,543,543,543,543,543,543,543,543,543,543,543,543,543,543,543,543,543,543,543,543,543,543,543,543,543,543,543,543,543,543,543,543,543,543,543,543,543,543,543,543,543,543,543,541,536,504,483,469,454,439,404,371,330,285,275,268,264,257,244,225,187,170,159,148,133,119,115,112,110,110,110,108,106,103,101,98,98,98,97,97,97,97,97,97,97,95],"timestamp_mouse":[4,24,43,64,84,104,124,144,164,184,204,224,244,264,284,304,324,344,364,384,405,424,444,463,483,505,524,545,563,583,603,624,643,663,684,705,724,744,763,785,805,825,843,864,883,903,925,945,964,984,1004,1024,1044,1064,1085,1105,1124,1144,1164,1184,1204,1225,1243,1264,1284,1305,1323,1344,1364,1385,1404,1424,1444,1464,1484,1503,1524,1545,1564,1584,1604,1623,1643,1664,1685,1705,1724,1744],"xSR":741.5,"ySR":469.95,"xT1":424.9,"yT1":0,"xT2":1058.1,"yT2":0,"toosoon":0,"cond_shown":"equaldotsize","ratio_trial":500,"smaller_num":"3","larger_num":"6","correct_side":2,"subjID":"sharonlozano22","gender":"1","age":"11","school":"6"},{"start_time":1551801538909,"click_time":1551801539788,"finger_time":1551801539649,"fix_duration":318.24655482357844,"trial":37,"RT":740,"MT":139,"sideResp":1,"stimulus":"img/750/randomdotsizeEA/L/6_Ratio_750_L_24_R_18.png","xmouse":[775,775,775,775,775,775,775,775,775,775,775,775,775,775,775,775,775,775,775,775,775,775,775,775,775,775,775,775,775,775,775,775,775,775,775,775,773,718,666,619,580,543,518,508,503],"ymouse":[525,525,525,525,525,525,525,525,525,525,525,525,525,525,525,525,525,525,525,525,525,525,525,525,525,525,525,525,525,525,525,525,525,525,525,525,522,445,376,313,260,199,140,106,82],"timestamp_mouse":[8,21,40,60,80,100,120,140,159,180,200,219,240,260,280,299,319,340,361,379,400,419,439,459,481,499,519,540,559,580,599,620,640,661,681,699,720,740,759,780,800,820,840,860,879],"xSR":741.5,"ySR":469.95,"xT1":424.9,"yT1":0,"xT2":1058.1,"yT2":0,"toosoon":0,"cond_shown":"randomdotsizeEA","ratio_trial":750,"smaller_num":"18","larger_num":"24","correct_side":1,"subjID":"sharonlozano22","gender":"1","age":"11","school":"6"},{"start_time":1551801541005,"click_time":1551801542629,"finger_time":1551801541669,"fix_duration":354.6168985288388,"trial":38,"RT":664,"MT":960,"sideResp":1,"stimulus":"img/750/equaldotanddens/L/13_Ratio_750_L_8_R_6.png","xmouse":[831,831,831,831,829,820,818,818,818,818,818,818,818,818,818,818,818,818,818,818,818,818,818,818,818,818,816,803,793,783,775,769,762,755,744,736,721,684,667,652,642,630,607,596,589,586,585,584,583,582,580,579,577,576,575,570,531,410,361,338,333,333,333,333,333,333,332,347,371,397,426,450,478,482,482,482,482,482,482,482,480,475],"ymouse":[524,524,524,524,524,528,529,530,530,530,530,530,530,530,530,530,530,530,530,530,530,530,530,530,530,530,530,517,508,500,494,489,478,460,434,405,343,206,146,109,87,67,38,28,23,22,21,20,20,19,19,19,20,20,20,22,32,62,70,71,71,71,71,71,71,71,71,87,97,106,113,118,125,125,125,125,125,125,125,123,114,99],"timestamp_mouse":[8,25,45,63,84,104,123,144,164,185,203,224,244,263,283,303,324,345,365,383,405,424,443,465,483,503,524,543,564,584,604,624,644,664,684,704,725,743,764,783,804,825,843,864,883,903,925,944,964,983,1004,1024,1044,1065,1084,1105,1124,1144,1164,1184,1205,1223,1243,1265,1284,1303,1324,1344,1364,1384,1404,1423,1444,1465,1485,1504,1524,1544,1564,1584,1605,1624],"xSR":741.5,"ySR":469.95,"xT1":424.9,"yT1":0,"xT2":1058.1,"yT2":0,"toosoon":0,"cond_shown":"equaldotanddens","ratio_trial":750,"smaller_num":"6","larger_num":"8","correct_side":1,"subjID":"sharonlozano22","gender":"1","age":"11","school":"6"},{"start_time":1551801544045,"click_time":1551801545350,"finger_time":1551801544609,"fix_duration":474.07192334570925,"trial":39,"RT":564,"MT":741,"sideResp":1,"stimulus":"img/500/randomdotsizeEA/R/14_Ratio_500_L_5_R_10.png","xmouse":[762,762,762,762,762,762,762,762,762,762,762,762,762,762,762,762,762,762,762,762,762,762,762,762,762,762,759,745,733,721,703,695,692,690,690,690,690,691,694,705,736,749,755,758,759,759,758,753,745,730,675,641,612,596,587,576,570,564,554,544,531,531,531,531,529,520],"ymouse":[513,513,513,513,513,513,513,513,513,513,513,513,513,513,513,513,513,513,513,513,513,513,513,513,513,513,508,484,462,441,405,391,381,374,373,373,373,372,371,371,371,368,364,361,354,345,338,330,315,296,244,220,198,185,171,148,136,127,116,106,96,96,96,96,96,91],"timestamp_mouse":[15,33,45,64,84,103,124,143,164,184,203,225,243,265,284,303,323,345,364,384,403,423,445,465,484,503,524,544,564,583,604,625,645,664,685,704,724,743,764,785,803,824,844,864,884,905,924,945,965,984,1003,1024,1044,1063,1084,1103,1124,1144,1164,1184,1204,1224,1244,1263,1284,1304],"xSR":741.5,"ySR":469.95,"xT1":424.9,"yT1":0,"xT2":1058.1,"yT2":0,"toosoon":0,"cond_shown":"randomdotsizeEA","ratio_trial":500,"smaller_num":"5","larger_num":"10","correct_side":2,"subjID":"sharonlozano22","gender":"1","age":"11","school":"6"},{"start_time":1551801546828,"click_time":1551801547789,"finger_time":1551801547409,"fix_duration":638.8126025592088,"trial":40,"RT":581,"MT":380,"sideResp":2,"stimulus":"img/750/equaldotanddens/R/12_Ratio_750_L_3_R_4.png","xmouse":[764,764,764,764,764,764,764,764,764,764,764,764,764,764,764,764,764,764,764,764,764,764,764,764,765,768,784,799,821,853,890,951,966,981,994,1023,1076,1094,1112,1129,1139,1148,1153,1155,1156,1156,1148,1145,1139],"ymouse":[533,533,533,533,533,533,533,533,533,533,533,533,533,533,533,533,533,533,533,533,533,533,533,533,533,533,532,530,527,519,510,477,462,444,428,397,343,322,297,274,253,225,211,191,161,143,112,101,91],"timestamp_mouse":[9,29,40,62,80,100,120,142,160,181,202,220,242,261,280,302,320,340,361,381,401,421,441,461,481,501,521,540,561,581,601,621,640,661,681,701,720,740,761,781,802,820,841,861,881,901,920,941,961],"xSR":741.5,"ySR":469.95,"xT1":424.9,"yT1":0,"xT2":1058.1,"yT2":0,"toosoon":0,"cond_shown":"equaldotanddens","ratio_trial":750,"smaller_num":"3","larger_num":"4","correct_side":2,"subjID":"sharonlozano22","gender":"1","age":"11","school":"6"},{"start_time":1551801549020,"click_time":1551801550089,"finger_time":1551801549690,"fix_duration":369.93277268300426,"trial":41,"RT":670,"MT":399,"sideResp":1,"stimulus":"img/250/randomdotsizeEA/L/15_Ratio_250_L_12_R_3.png","xmouse":[831,831,831,831,831,831,831,831,831,831,831,831,831,831,831,831,831,831,831,831,831,831,831,831,828,823,817,815,814,813,810,790,770,744,703,686,663,654,646,638,631,611,600,594,591,588,574,567,560,554,546,532,526,518],"ymouse":[533,533,533,533,533,533,533,533,533,533,533,533,533,533,533,533,533,533,533,533,533,533,533,532,532,532,532,532,531,530,527,497,472,442,397,381,346,324,305,288,275,239,223,210,195,174,151,141,132,123,114,96,89,79],"timestamp_mouse":[8,28,53,69,90,110,129,150,169,188,209,230,248,269,288,310,330,349,369,388,410,428,449,469,490,508,529,549,569,589,610,629,648,670,690,709,729,749,768,789,810,829,848,869,889,909,929,949,968,988,1009,1028,1049,1069],"xSR":741.5,"ySR":469.95,"xT1":424.9,"yT1":0,"xT2":1058.1,"yT2":0,"toosoon":0,"cond_shown":"randomdotsizeEA","ratio_trial":250,"smaller_num":"3","larger_num":"12","correct_side":1,"subjID":"sharonlozano22","gender":"1","age":"11","school":"6"},{"start_time":1551801551397,"click_time":1551801552669,"finger_time":1551801552049,"fix_duration":446.11360740120665,"trial":42,"RT":652,"MT":620,"sideResp":1,"stimulus":"img/250/equaldotsize/L/2_Ratio_250_L_16_R_4.png","xmouse":[795,795,795,795,795,795,795,795,795,795,795,795,795,795,795,795,795,795,795,795,795,795,795,795,795,795,795,795,795,795,789,775,752,740,724,702,673,641,626,616,605,595,566,555,553,550,545,531,524,518,513,508,500,498,496,495,495,495,495,494,494,491,489,485],"ymouse":[543,543,543,543,543,543,543,543,543,543,543,543,543,543,543,543,543,543,543,543,543,543,543,543,543,543,543,543,543,542,534,513,465,441,415,386,346,284,251,226,205,190,167,159,158,156,151,143,138,134,131,127,122,118,116,115,115,115,115,113,111,107,102,97],"timestamp_mouse":[11,32,53,73,92,111,132,151,172,191,212,231,252,271,292,312,332,352,373,392,411,432,452,473,493,511,531,552,573,592,613,632,652,673,692,712,732,752,773,792,813,832,851,871,893,913,933,953,972,991,1012,1033,1052,1073,1093,1113,1132,1152,1172,1193,1212,1233,1252,1272],"xSR":741.5,"ySR":469.95,"xT1":424.9,"yT1":0,"xT2":1058.1,"yT2":0,"toosoon":0,"cond_shown":"equaldotsize","ratio_trial":250,"smaller_num":"4","larger_num":"16","correct_side":1,"subjID":"sharonlozano22","gender":"1","age":"11","school":"6"},{"start_time":1551801554044,"click_time":1551801555149,"finger_time":1551801554788,"fix_duration":473.07267301260123,"trial":43,"RT":744,"MT":361,"sideResp":2,"stimulus":"img/750/randomdotsizeEA/R/2_Ratio_750_L_6_R_8.png","xmouse":[816,816,816,816,816,816,816,816,816,816,816,816,816,816,816,815,815,815,815,815,815,815,815,815,815,815,815,815,815,815,815,815,815,815,816,822,827,847,903,979,1109,1147,1167,1178,1189,1192,1192,1194,1198,1200,1199,1194,1188,1174,1167,1157],"ymouse":[535,535,535,535,536,537,537,537,537,537,537,537,537,537,537,537,537,537,537,537,537,537,537,537,537,537,537,537,537,537,537,537,537,537,537,532,528,513,481,440,368,345,332,321,302,264,236,208,182,156,125,116,108,94,87,76],"timestamp_mouse":[8,30,46,65,86,105,124,145,165,186,206,225,245,266,284,304,325,345,364,385,404,426,444,466,486,504,526,546,564,586,605,625,645,666,685,705,725,744,764,785,805,825,844,865,886,905,925,944,966,986,1005,1025,1045,1065,1086,1105],"xSR":741.5,"ySR":469.95,"xT1":424.9,"yT1":0,"xT2":1058.1,"yT2":0,"toosoon":0,"cond_shown":"randomdotsizeEA","ratio_trial":750,"smaller_num":"6","larger_num":"8","correct_side":2,"subjID":"sharonlozano22","gender":"1","age":"11","school":"6"},{"start_time":1551801557047,"click_time":1551801558209,"finger_time":1551801557729,"fix_duration":1096.9143488925263,"trial":44,"RT":682,"MT":480,"sideResp":2,"stimulus":"img/250/randomdotsizeEA/R/11_Ratio_250_L_3_R_12.png","xmouse":[816,816,816,816,816,816,816,816,816,816,816,816,816,816,816,816,816,816,816,816,816,816,816,816,816,816,816,816,816,816,816,816,820,831,861,930,993,1057,1116,1157,1196,1201,1202,1204,1211,1213,1213,1210,1199,1187,1173,1168,1163,1152,1147,1138,1136,1133,1132],"ymouse":[510,510,510,510,510,510,510,510,510,510,510,510,510,510,510,510,510,510,510,510,510,510,510,510,510,510,510,510,510,510,510,506,499,486,468,432,403,375,342,313,278,266,255,244,223,196,182,168,152,139,127,123,120,114,110,106,104,101,99],"timestamp_mouse":[13,31,42,62,82,102,122,143,162,181,202,223,242,262,282,303,323,342,362,382,402,423,442,462,482,503,523,541,563,582,601,623,642,663,682,702,723,742,761,781,802,822,842,861,882,902,921,942,962,983,1001,1021,1041,1062,1081,1101,1122,1142,1162],"xSR":741.5,"ySR":469.95,"xT1":424.9,"yT1":0,"xT2":1058.1,"yT2":0,"toosoon":0,"cond_shown":"randomdotsizeEA","ratio_trial":250,"smaller_num":"3","larger_num":"12","correct_side":2,"subjID":"sharonlozano22","gender":"1","age":"11","school":"6"},{"start_time":1551801559555,"click_time":1551801560749,"finger_time":1551801560328,"fix_duration":324.76398877059876,"trial":45,"RT":773,"MT":421,"sideResp":1,"stimulus":"img/500/randomdotsizeEA/L/13_Ratio_500_L_12_R_6.png","xmouse":[807,807,807,807,807,807,807,807,807,807,807,807,807,807,807,807,807,807,807,807,807,807,807,807,807,807,807,807,807,807,807,807,807,807,807,807,806,802,757,664,623,594,576,562,543,531,523,515,507,504,503,502,501,500,497,496,495,490,483,473],"ymouse":[517,517,517,517,517,517,517,517,517,517,517,517,517,517,517,517,517,517,517,517,517,517,517,517,517,517,517,517,517,517,517,517,517,517,517,517,516,512,465,401,374,352,335,310,251,225,205,190,173,160,153,147,142,137,131,129,127,119,109,93],"timestamp_mouse":[14,37,54,73,94,113,134,154,174,193,215,233,253,275,294,313,333,354,374,393,414,433,454,475,494,513,534,555,575,593,614,634,653,673,694,714,734,754,773,793,814,834,854,875,893,915,935,954,974,993,1014,1034,1054,1074,1094,1115,1133,1154,1175,1194],"xSR":741.5,"ySR":469.95,"xT1":424.9,"yT1":0,"xT2":1058.1,"yT2":0,"toosoon":0,"cond_shown":"randomdotsizeEA","ratio_trial":500,"smaller_num":"6","larger_num":"12","correct_side":1,"subjID":"sharonlozano22","gender":"1","age":"11","school":"6"},{"start_time":1551801562365,"click_time":1551801563430,"finger_time":1551801562990,"fix_duration":692.1565494084496,"trial":46,"RT":625,"MT":440,"sideResp":2,"stimulus":"img/250/equaldotsize/R/6_Ratio_250_L_6_R_24.png","xmouse":[828,828,828,828,828,828,828,828,828,828,828,826,826,825,824,824,823,823,823,823,822,822,822,822,822,822,822,822,822,823,830,842,855,869,947,1005,1056,1112,1144,1187,1208,1222,1229,1229,1218,1211,1207,1203,1195,1181,1175,1168,1163,1156],"ymouse":[540,540,540,540,540,540,540,540,540,540,540,538,537,535,531,530,529,529,528,528,526,526,526,526,526,526,526,526,525,523,518,514,508,501,459,426,397,364,346,311,290,264,242,222,182,163,149,136,119,103,98,94,90,88],"timestamp_mouse":[8,28,45,64,83,104,123,145,163,183,204,225,244,263,284,304,323,344,364,384,405,425,445,464,485,503,524,545,564,585,604,625,644,665,684,703,724,744,765,784,804,824,845,864,884,904,925,945,965,983,1004,1024,1044,1065],"xSR":741.5,"ySR":469.95,"xT1":424.9,"yT1":0,"xT2":1058.1,"yT2":0,"toosoon":0,"cond_shown":"equaldotsize","ratio_trial":250,"smaller_num":"6","larger_num":"24","correct_side":2,"subjID":"sharonlozano22","gender":"1","age":"11","school":"6"},{"start_time":1551801565280,"click_time":1551801567030,"finger_time":1551801566169,"fix_duration":1049.2985749259815,"trial":47,"RT":889,"MT":861,"sideResp":2,"stimulus":"img/900/equaldotanddens/R/12_Ratio_900_L_18_R_20.png","xmouse":[748,748,748,748,748,748,748,748,748,748,748,748,748,748,748,748,748,748,748,748,748,748,748,748,748,748,748,748,748,748,748,748,748,748,748,748,748,748,748,748,748,748,748,742,741,741,742,746,755,769,797,869,940,1092,1149,1178,1192,1196,1196,1196,1196,1196,1196,1194,1191,1187,1183,1178,1173,1171,1170,1169,1169,1169,1169,1169,1169,1169,1169,1169,1169,1168,1168,1162,1160,1159,1159,1158],"ymouse":[533,532,532,532,532,532,532,532,532,532,532,532,532,532,532,532,532,532,532,532,532,532,532,532,532,532,532,532,532,532,532,532,532,532,532,532,532,532,532,532,531,525,518,492,479,469,464,458,456,455,445,419,384,298,258,234,217,208,189,170,150,130,101,72,62,54,49,45,41,41,41,41,41,41,41,41,41,41,41,41,41,41,41,42,43,43,44,44],"timestamp_mouse":[8,28,50,69,89,109,130,149,169,188,210,230,250,270,289,310,329,348,370,389,409,429,450,470,489,508,530,549,569,589,609,629,648,669,690,710,729,748,770,789,809,828,850,869,889,909,930,949,969,988,1010,1030,1049,1069,1089,1110,1130,1150,1169,1189,1209,1230,1248,1268,1289,1309,1329,1350,1369,1389,1409,1428,1449,1470,1489,1509,1530,1549,1569,1589,1609,1629,1649,1670,1689,1708,1728,1750],"xSR":741.5,"ySR":469.95,"xT1":424.9,"yT1":0,"xT2":1058.1,"yT2":0,"toosoon":0,"cond_shown":"equaldotanddens","ratio_trial":900,"smaller_num":"18","larger_num":"20","correct_side":2,"subjID":"sharonlozano22","gender":"1","age":"11","school":"6"},{"start_time":1551801568956,"click_time":1551801570228,"finger_time":1551801569569,"fix_duration":766.4981390543363,"trial":48,"RT":613,"MT":659,"sideResp":1,"stimulus":"img/500/randomdotsizeEA/L/7_Ratio_500_L_10_R_5.png","xmouse":[788,788,788,788,788,788,788,788,788,788,788,788,788,788,788,788,788,788,788,786,785,784,783,782,781,779,777,772,768,744,728,709,685,668,641,632,624,613,607,593,587,582,578,574,569,565,559,557,553,548,546,545,543,542,537,534,530,525,519,507,503,497,490,483],"ymouse":[562,562,562,562,562,562,562,562,562,562,562,562,562,562,562,562,562,562,562,561,559,557,555,554,553,551,549,546,543,522,508,494,474,458,435,423,408,379,359,325,310,301,293,285,263,254,236,230,213,187,175,164,157,152,145,141,136,130,125,117,113,110,105,99],"timestamp_mouse":[12,35,54,73,94,114,134,153,173,193,212,234,254,274,292,314,333,352,373,393,413,434,453,473,493,513,532,554,574,593,613,632,654,674,693,712,734,753,773,792,813,833,853,873,893,913,933,953,973,993,1013,1033,1054,1073,1093,1113,1133,1153,1173,1194,1213,1234,1254,1272],"xSR":741.5,"ySR":469.95,"xT1":424.9,"yT1":0,"xT2":1058.1,"yT2":0,"toosoon":0,"cond_shown":"randomdotsizeEA","ratio_trial":500,"smaller_num":"5","larger_num":"10","correct_side":1,"subjID":"sharonlozano22","gender":"1","age":"11","school":"6"},{"start_time":1551801572885,"click_time":1551801575870,"finger_time":1551801574809,"fix_duration":454.88556967944737,"trial":49,"RT":1924,"MT":1061,"sideResp":1,"stimulus":"img/250/equaldotanddens/L/1_Ratio_250_L_8_R_2.png","xmouse":[776,776,776,776,776,776,776,776,776,776,776,776,776,776,776,776,776,776,776,776,776,776,776,776,776,776,776,776,776,776,776,776,776,776,776,776,776,776,776,776,776,776,776,776,776,776,776,776,776,776,776,776,776,776,776,776,774,772,769,766,764,762,758,757,757,757,757,757,757,757,757,757,757,757,757,757,757,757,757,757,757,757,757,757,757,757,757,757,757,757,757,757,757,757,757,757,757,756,746,741,735,727,716,704,699,693,690,686,681,679,676,675,672,648,629,614,598,584,556,550,547,546,544,544,544,544,544,544,544,544,544,544,544,544,544,544,544,544,544,544,544,544,544,544,544,544,544,543,533,520],"ymouse":[523,523,523,523,523,523,523,523,523,523,523,523,523,523,523,523,523,523,523,523,523,523,523,523,523,523,523,523,523,523,523,523,523,523,523,523,523,523,523,523,523,523,523,523,523,523,523,523,523,523,523,523,523,523,523,523,515,510,504,488,478,476,470,470,470,470,470,470,470,470,470,470,470,470,470,470,470,470,470,470,470,470,470,470,470,470,470,470,470,470,470,470,470,470,470,470,469,464,446,436,423,410,392,375,368,358,350,342,330,327,322,319,310,255,221,194,176,162,134,127,122,120,118,117,117,117,117,117,117,117,117,117,117,117,117,117,117,117,117,117,117,117,117,117,117,117,117,116,98,76],"timestamp_mouse":[10,24,43,64,84,105,124,145,163,184,205,225,245,264,285,304,325,344,365,384,404,423,445,463,484,503,524,543,564,585,605,623,643,664,684,705,725,745,764,784,805,824,843,864,884,905,924,944,965,983,1005,1025,1045,1064,1084,1104,1124,1143,1163,1184,1204,1224,1244,1264,1284,1303,1324,1344,1363,1384,1403,1423,1444,1463,1484,1504,1525,1543,1563,1584,1605,1623,1643,1664,1684,1704,1724,1745,1764,1783,1804,1823,1843,1864,1884,1903,1924,1944,1964,1984,2003,2023,2045,2064,2085,2104,2124,2144,2163,2184,2204,2224,2245,2263,2284,2304,2325,2344,2363,2384,2404,2424,2443,2464,2483,2504,2525,2544,2565,2585,2605,2624,2644,2665,2684,2704,2724,2743,2764,2783,2803,2825,2844,2865,2885,2904,2924,2943,2963,2985],"xSR":741.5,"ySR":469.95,"xT1":424.9,"yT1":0,"xT2":1058.1,"yT2":0,"toosoon":0,"cond_shown":"equaldotanddens","ratio_trial":250,"smaller_num":"2","larger_num":"8","correct_side":1,"subjID":"sharonlozano22","gender":"1","age":"11","school":"6"},{"start_time":1551801577576,"click_time":1551801578969,"finger_time":1551801578071,"fix_duration":284.7624420560577,"trial":50,"RT":495,"MT":898,"sideResp":2,"stimulus":"img/250/equaldotsize/R/11_Ratio_250_L_3_R_12.png","xmouse":[816,816,816,816,816,816,816,816,816,816,816,816,816,816,816,816,816,816,816,816,816,816,815,812,812,811,811,811,811,811,811,809,805,796,795,795,795,827,912,918,918,928,969,1123,1186,1220,1241,1241,1241,1241,1241,1241,1241,1241,1241,1241,1241,1240,1231,1228,1222,1217,1209,1197,1193,1188,1182,1180,1173,1157],"ymouse":[559,559,559,559,559,559,559,559,559,559,559,559,559,559,559,559,559,559,559,559,559,559,560,568,572,573,573,573,573,573,574,578,583,591,592,592,592,565,507,505,505,495,444,294,247,221,204,203,203,203,203,203,203,203,202,202,193,185,176,172,162,141,115,78,72,68,66,66,63,57],"timestamp_mouse":[14,36,54,73,95,113,133,154,174,195,214,233,253,273,295,314,334,354,374,395,414,433,454,473,495,514,533,554,574,594,613,633,653,673,693,714,735,754,773,793,813,834,853,874,893,914,934,953,974,993,1015,1035,1054,1074,1093,1114,1133,1155,1173,1193,1213,1233,1254,1273,1294,1314,1333,1354,1373,1393],"xSR":741.5,"ySR":469.95,"xT1":424.9,"yT1":0,"xT2":1058.1,"yT2":0,"toosoon":0,"cond_shown":"equaldotsize","ratio_trial":250,"smaller_num":"3","larger_num":"12","correct_side":2,"subjID":"sharonlozano22","gender":"1","age":"11","school":"6"},{"start_time":1551801589824,"click_time":1551801591169,"finger_time":1551801590770,"fix_duration":793.7858064598413,"trial":51,"RT":946,"MT":399,"sideResp":2,"stimulus":"img/750/equaldotanddens/L/6_Ratio_750_L_24_R_18.png","xmouse":[819,819,819,819,819,819,819,819,819,819,819,819,819,819,819,819,819,819,819,819,819,821,821,821,822,822,822,822,822,822,822,822,822,822,822,822,822,822,818,813,813,813,813,813,813,813,831,855,871,878,882,913,950,988,1009,1022,1025,1026,1029,1036,1052,1094,1103,1106,1106,1107,1107,1107],"ymouse":[500,500,500,499,499,499,499,499,499,499,499,499,499,499,499,499,499,499,499,497,496,492,492,492,491,491,491,491,491,491,491,491,491,491,491,491,491,491,490,489,489,489,489,489,489,489,476,458,443,432,423,387,349,314,291,264,249,244,236,219,199,162,154,151,148,142,111,98],"timestamp_mouse":[10,34,47,66,86,105,126,145,165,186,206,225,246,267,287,305,325,347,366,386,406,426,446,466,485,506,527,547,565,586,606,626,645,665,685,705,727,745,767,786,807,825,846,866,885,906,927,946,965,985,1006,1026,1045,1065,1086,1106,1126,1145,1165,1186,1206,1225,1246,1266,1286,1306,1326,1345],"xSR":741.5,"ySR":469.95,"xT1":424.9,"yT1":0,"xT2":1058.1,"yT2":0,"toosoon":0,"cond_shown":"equaldotanddens","ratio_trial":750,"smaller_num":"18","larger_num":"24","correct_side":1,"subjID":"sharonlozano22","gender":"1","age":"11","school":"6"},{"start_time":1551801592699,"click_time":1551801593770,"finger_time":1551801593389,"fix_duration":507.8474664808549,"trial":52,"RT":690,"MT":381,"sideResp":2,"stimulus":"img/900/equaldotanddens/R/14_Ratio_900_L_18_R_20.png","xmouse":[814,814,814,814,814,814,814,814,814,814,814,814,814,814,814,814,814,814,814,814,814,814,814,814,814,814,814,814,814,814,814,814,814,836,885,956,1019,1114,1138,1151,1160,1176,1196,1208,1214,1217,1217,1210,1207,1203,1197,1186,1166,1153],"ymouse":[487,487,487,487,487,487,487,487,487,487,487,487,487,487,487,487,487,487,487,487,487,487,487,487,487,487,487,487,487,487,487,487,487,477,455,434,402,340,321,306,289,257,204,177,161,148,141,132,129,125,118,107,99,95],"timestamp_mouse":[11,32,51,71,91,112,131,150,170,190,210,232,250,270,290,311,331,352,370,390,412,430,450,471,491,511,530,552,572,590,611,630,652,671,690,710,731,750,771,792,812,831,851,870,890,910,932,951,970,990,1010,1030,1051,1071],"xSR":741.5,"ySR":469.95,"xT1":424.9,"yT1":0,"xT2":1058.1,"yT2":0,"toosoon":0,"cond_shown":"equaldotanddens","ratio_trial":900,"smaller_num":"18","larger_num":"20","correct_side":2,"subjID":"sharonlozano22","gender":"1","age":"11","school":"6"},{"start_time":1551801597705,"click_time":1551801598750,"finger_time":1551801598310,"fix_duration":1074.6115567393417,"trial":53,"RT":605,"MT":440,"sideResp":2,"stimulus":"img/750/randomdotsizeEA/R/15_Ratio_750_L_9_R_12.png","xmouse":[805,805,805,805,805,805,805,805,805,805,805,805,805,805,805,805,805,805,805,805,805,805,805,805,805,805,808,811,816,825,842,867,919,964,1015,1076,1143,1224,1249,1259,1262,1262,1251,1247,1244,1242,1241,1238,1223,1202,1185,1165,1158],"ymouse":[527,527,527,527,527,527,527,527,527,527,527,527,527,527,527,527,527,527,527,527,527,527,527,527,527,527,528,529,529,529,525,517,493,468,437,388,331,236,182,142,114,86,66,60,57,55,55,54,54,57,59,62,62],"timestamp_mouse":[13,24,45,64,84,104,124,144,164,184,204,226,245,264,284,306,326,344,364,385,406,425,445,465,486,504,524,544,564,585,605,626,645,664,684,705,724,744,764,784,804,824,844,865,884,904,926,944,965,985,1004,1024,1045],"xSR":741.5,"ySR":469.95,"xT1":424.9,"yT1":0,"xT2":1058.1,"yT2":0,"toosoon":0,"cond_shown":"randomdotsizeEA","ratio_trial":750,"smaller_num":"9","larger_num":"12","correct_side":2,"subjID":"sharonlozano22","gender":"1","age":"11","school":"6"},{"start_time":1551801600582,"click_time":1551801601550,"finger_time":1551801601250,"fix_duration":250,"trial":54,"RT":668,"MT":300,"sideResp":1,"stimulus":"img/900/randomdotsizeEA/L/2_Ratio_900_L_20_R_18.png","xmouse":[804,804,804,804,804,804,804,804,804,804,804,804,803,803,803,803,803,803,803,803,803,803,803,803,803,803,803,803,803,802,798,791,773,704,643,610,586,570,558,555,554,549,546,542,539,535,528,520,495],"ymouse":[520,520,520,520,520,520,520,520,520,520,520,520,520,520,520,520,520,520,520,520,520,520,520,520,520,520,520,520,520,516,512,504,490,422,359,328,303,280,250,243,234,216,198,173,164,152,138,120,84],"timestamp_mouse":[9,27,47,67,89,107,128,149,167,189,207,228,249,267,289,308,327,347,367,388,409,428,448,468,488,507,527,547,567,587,608,627,647,668,688,708,728,747,767,788,807,827,847,867,888,908,927,947,968],"xSR":741.5,"ySR":469.95,"xT1":424.9,"yT1":0,"xT2":1058.1,"yT2":0,"toosoon":0,"cond_shown":"randomdotsizeEA","ratio_trial":900,"smaller_num":"18","larger_num":"20","correct_side":1,"subjID":"sharonlozano22","gender":"1","age":"11","school":"6"},{"start_time":1551801603002,"click_time":1551801603910,"finger_time":1551801603550,"fix_duration":250,"trial":55,"RT":548,"MT":360,"sideResp":2,"stimulus":"img/500/equaldotsize/R/1_Ratio_500_L_9_R_18.png","xmouse":[760,760,760,760,760,760,760,760,760,760,760,760,760,760,761,765,774,798,804,807,809,812,814,815,816,819,841,903,945,972,995,1015,1046,1059,1076,1092,1112,1129,1134,1135,1135,1135,1135,1135,1135,1131],"ymouse":[511,511,511,511,511,511,511,511,511,511,511,511,511,511,511,511,505,493,489,488,487,485,485,484,484,483,477,467,460,457,450,440,417,398,368,339,302,244,213,196,182,174,147,129,110,86],"timestamp_mouse":[10,29,47,68,87,107,127,149,168,187,207,227,249,268,287,307,327,347,367,387,407,427,447,468,488,508,527,548,567,587,607,628,647,668,687,707,728,747,768,787,808,827,847,868,888,908],"xSR":741.5,"ySR":469.95,"xT1":424.9,"yT1":0,"xT2":1058.1,"yT2":0,"toosoon":0,"cond_shown":"equaldotsize","ratio_trial":500,"smaller_num":"9","larger_num":"18","correct_side":2,"subjID":"sharonlozano22","gender":"1","age":"11","school":"6"},{"start_time":1551801606243,"click_time":1551801607009,"finger_time":1551801606669,"fix_duration":1031.4671971557275,"trial":56,"RT":426,"MT":340,"sideResp":1,"stimulus":"img/750/equaldotanddens/L/10_Ratio_750_L_4_R_3.png","xmouse":[796,796,796,797,797,798,798,799,800,800,804,804,804,805,807,814,818,824,828,833,839,839,836,824,795,728,707,691,683,678,670,661,651,637,626,598,570,540,512],"ymouse":[524,523,522,522,519,518,517,516,513,512,508,507,507,505,502,495,493,489,485,480,470,463,452,437,414,373,360,347,339,329,315,305,293,273,254,200,164,129,96],"timestamp_mouse":[13,33,46,66,86,108,126,146,167,186,206,226,247,267,287,306,326,346,366,386,406,426,446,466,488,506,526,547,568,587,607,626,646,666,688,707,727,747,766],"xSR":741.5,"ySR":469.95,"xT1":424.9,"yT1":0,"xT2":1058.1,"yT2":0,"toosoon":0,"cond_shown":"equaldotanddens","ratio_trial":750,"smaller_num":"3","larger_num":"4","correct_side":1,"subjID":"sharonlozano22","gender":"1","age":"11","school":"6"},{"start_time":1551801608152,"click_time":1551801608769,"finger_time":1551801608510,"fix_duration":320.76583888403997,"trial":57,"RT":358,"MT":259,"sideResp":1,"stimulus":"img/500/randomdotsizeEA/L/8_Ratio_500_L_8_R_4.png","xmouse":[796,796,796,796,796,796,796,796,796,796,796,796,796,794,790,787,780,766,749,720,715,714,713,713,709,700,688,670,628,553,518],"ymouse":[528,528,528,528,528,528,528,528,528,528,528,528,528,523,506,496,479,451,426,396,391,390,389,389,384,375,360,339,266,141,93],"timestamp_mouse":[23,38,57,78,98,118,137,158,177,198,218,238,257,277,298,318,338,358,377,397,417,437,458,479,498,517,538,557,578,597,617],"xSR":741.5,"ySR":469.95,"xT1":424.9,"yT1":0,"xT2":1058.1,"yT2":0,"toosoon":0,"cond_shown":"randomdotsizeEA","ratio_trial":500,"smaller_num":"4","larger_num":"8","correct_side":1,"subjID":"sharonlozano22","gender":"1","age":"11","school":"6"},{"start_time":1551801610341,"click_time":1551801611291,"finger_time":1551801610930,"fix_duration":790.2000549377545,"trial":58,"RT":589,"MT":361,"sideResp":1,"stimulus":"img/500/equaldotanddens/L/11_Ratio_500_L_12_R_6.png","xmouse":[774,774,774,774,775,775,776,776,776,777,777,777,778,779,779,780,780,780,780,780,780,780,780,780,780,780,780,772,750,691,591,562,548,543,542,541,537,529,521,507,494,490,488,487,483,480,477,477],"ymouse":[529,529,529,529,529,529,529,529,529,530,530,530,530,530,530,530,530,530,530,530,530,530,530,530,530,530,527,512,479,408,320,293,277,272,270,262,248,225,203,171,145,135,129,121,114,104,100,98],"timestamp_mouse":[14,33,48,69,88,108,128,148,169,188,208,229,248,269,289,309,328,349,369,388,408,428,450,469,488,509,529,550,569,589,608,628,648,669,688,709,728,748,770,788,808,828,849,868,888,908,929,950],"xSR":741.5,"ySR":469.95,"xT1":424.9,"yT1":0,"xT2":1058.1,"yT2":0,"toosoon":0,"cond_shown":"equaldotanddens","ratio_trial":500,"smaller_num":"6","larger_num":"12","correct_side":1,"subjID":"sharonlozano22","gender":"1","age":"11","school":"6"},{"start_time":1551801615105,"click_time":1551801616170,"finger_time":1551801615749,"fix_duration":1014.6643572882015,"trial":59,"RT":644,"MT":421,"sideResp":2,"stimulus":"img/250/equaldotanddens/R/4_Ratio_250_L_3_R_12.png","xmouse":[785,785,785,785,785,785,785,785,785,785,785,785,785,785,785,785,785,785,785,785,785,785,785,785,786,787,790,802,812,818,825,830,868,901,931,953,986,996,1005,1016,1030,1053,1072,1075,1078,1080,1086,1093,1096,1097,1097,1097,1097,1097],"ymouse":[546,546,546,546,546,546,546,546,546,546,546,546,546,546,546,546,546,546,546,546,546,546,546,546,544,544,543,538,536,534,531,528,509,498,490,483,470,462,452,436,415,384,342,326,307,281,247,206,186,168,148,121,100,99],"timestamp_mouse":[8,24,44,64,85,105,125,144,164,185,204,224,245,264,285,305,324,344,364,385,406,424,445,464,484,505,524,544,566,585,604,625,644,664,684,706,726,744,765,784,804,824,844,864,884,904,924,944,964,985,1005,1024,1044,1065],"xSR":741.5,"ySR":469.95,"xT1":424.9,"yT1":0,"xT2":1058.1,"yT2":0,"toosoon":0,"cond_shown":"equaldotanddens","ratio_trial":250,"smaller_num":"3","larger_num":"12","correct_side":2,"subjID":"sharonlozano22","gender":"1","age":"11","school":"6"},{"start_time":1551801617496,"click_time":1551801618450,"finger_time":1551801618191,"fix_duration":285.07946421749443,"trial":60,"RT":695,"MT":259,"sideResp":2,"stimulus":"img/900/equaldotanddens/L/4_Ratio_900_L_20_R_18.png","xmouse":[811,811,811,811,811,811,811,811,811,811,811,811,811,811,811,811,811,811,811,811,811,811,811,811,811,811,811,811,811,811,811,812,818,831,851,877,911,996,1036,1066,1089,1105,1119,1125,1132,1135,1138,1139],"ymouse":[521,521,521,521,521,521,521,521,521,521,521,521,521,521,521,521,521,521,521,521,521,521,521,521,521,521,521,521,521,521,521,520,515,507,497,482,463,402,356,317,282,250,203,179,157,132,102,67],"timestamp_mouse":[15,33,53,73,93,113,135,153,175,194,213,234,253,273,293,313,334,354,374,394,413,433,454,473,495,513,533,553,575,593,613,633,655,673,695,714,734,753,774,794,814,833,853,873,893,913,934,953],"xSR":741.5,"ySR":469.95,"xT1":424.9,"yT1":0,"xT2":1058.1,"yT2":0,"toosoon":0,"cond_shown":"equaldotanddens","ratio_trial":900,"smaller_num":"18","larger_num":"20","correct_side":1,"subjID":"sharonlozano22","gender":"1","age":"11","school":"6"},{"start_time":1551801620765,"click_time":1551801621610,"finger_time":1551801621309,"fix_duration":573.7060879339887,"trial":61,"RT":544,"MT":301,"sideResp":1,"stimulus":"img/750/randomdotsizeEA/L/13_Ratio_750_L_8_R_6.png","xmouse":[780,780,780,780,780,780,780,780,780,780,780,780,780,780,780,780,780,780,780,780,780,780,780,780,780,772,759,738,714,708,702,698,693,684,666,654,633,609,579,555,541,527,515],"ymouse":[519,519,519,519,519,519,519,519,519,519,519,519,519,519,519,519,519,519,519,519,519,519,519,519,519,508,493,465,427,414,401,390,372,353,312,286,243,203,159,124,108,93,78],"timestamp_mouse":[8,34,45,64,85,104,125,145,165,185,206,224,244,264,285,305,324,345,364,385,404,424,445,466,484,504,525,544,566,584,604,625,645,664,685,704,724,744,764,785,804,824,845],"xSR":741.5,"ySR":469.95,"xT1":424.9,"yT1":0,"xT2":1058.1,"yT2":0,"toosoon":0,"cond_shown":"randomdotsizeEA","ratio_trial":750,"smaller_num":"6","larger_num":"8","correct_side":1,"subjID":"sharonlozano22","gender":"1","age":"11","school":"6"},{"start_time":1551801622682,"click_time":1551801623491,"finger_time":1551801622930,"fix_duration":250,"trial":62,"RT":248,"MT":561,"sideResp":1,"stimulus":"img/900/equaldotsize/L/10_Ratio_900_L_20_R_18.png","xmouse":[759,759,759,759,759,759,759,759,757,754,748,746,740,734,727,720,711,692,683,675,666,660,654,654,654,654,653,653,649,642,627,619,577,560,548,538,530,524,512,508,505],"ymouse":[524,524,524,524,524,524,524,524,523,518,510,507,499,488,476,459,445,411,396,383,368,359,348,347,347,346,345,344,336,325,303,293,239,216,199,179,161,146,118,106,92],"timestamp_mouse":[7,28,49,67,88,108,127,148,168,188,207,228,248,267,287,308,327,349,367,387,407,428,448,467,487,507,527,547,567,587,607,628,649,667,688,707,727,748,767,788,809],"xSR":741.5,"ySR":469.95,"xT1":424.9,"yT1":0,"xT2":1058.1,"yT2":0,"toosoon":0,"cond_shown":"equaldotsize","ratio_trial":900,"smaller_num":"18","larger_num":"20","correct_side":1,"subjID":"sharonlozano22","gender":"1","age":"11","school":"6"},{"start_time":1551801626341,"click_time":1551801627229,"finger_time":1551801626769,"fix_duration":250,"trial":63,"RT":428,"MT":460,"sideResp":1,"stimulus":"img/750/equaldotanddens/L/1_Ratio_750_L_20_R_15.png","xmouse":[772,772,772,772,772,772,772,772,772,772,773,773,773,773,773,773,776,777,778,780,766,743,711,684,667,658,652,647,642,634,623,618,614,607,601,586,579,574,566,558,546,540,534,529,524],"ymouse":[565,565,565,565,565,564,562,562,562,562,561,561,561,561,561,561,558,555,550,539,494,467,430,380,323,267,249,240,235,227,213,206,196,185,178,162,159,154,146,127,90,76,62,52,43],"timestamp_mouse":[11,34,48,68,90,108,128,149,169,189,208,228,248,269,288,309,328,348,370,388,408,428,450,469,488,509,528,548,570,590,608,628,649,668,688,708,729,749,768,789,808,828,849,868,888],"xSR":741.5,"ySR":469.95,"xT1":424.9,"yT1":0,"xT2":1058.1,"yT2":0,"toosoon":0,"cond_shown":"equaldotanddens","ratio_trial":750,"smaller_num":"15","larger_num":"20","correct_side":1,"subjID":"sharonlozano22","gender":"1","age":"11","school":"6"},{"start_time":1551801628301,"click_time":1551801629791,"finger_time":1551801628649,"fix_duration":250,"trial":64,"RT":348,"MT":1142,"sideResp":2,"stimulus":"img/900/equaldotanddens/R/12_Ratio_900_L_18_R_20.png","xmouse":[795,795,795,795,795,795,795,795,795,795,795,795,791,791,790,788,777,737,720,710,710,710,710,710,710,710,710,711,723,731,733,733,733,733,733,733,735,737,738,738,738,736,674,635,609,593,589,601,616,637,662,716,775,794,813,832,851,884,900,910,929,943,972,989,1005,1020,1030,1046,1054,1067,1086,1092,1097,1097,1097],"ymouse":[551,551,551,551,551,551,551,551,551,551,551,551,547,547,544,538,522,482,470,464,464,464,464,464,464,464,464,464,464,465,465,465,465,465,465,465,466,472,473,473,473,473,422,378,336,293,258,227,211,202,199,199,199,199,195,193,190,180,174,171,163,157,143,137,130,124,119,115,114,112,108,104,101,100,94],"timestamp_mouse":[10,29,49,68,90,110,128,149,169,189,208,228,249,268,288,310,329,348,368,388,409,429,448,468,488,508,529,549,568,589,608,628,648,670,689,708,729,749,768,788,808,828,849,869,888,909,929,948,969,989,1009,1029,1048,1068,1089,1108,1129,1148,1169,1190,1208,1228,1248,1268,1289,1309,1329,1348,1369,1390,1410,1428,1448,1468,1489],"xSR":741.5,"ySR":469.95,"xT1":424.9,"yT1":0,"xT2":1058.1,"yT2":0,"toosoon":0,"cond_shown":"equaldotanddens","ratio_trial":900,"smaller_num":"18","larger_num":"20","correct_side":2,"subjID":"sharonlozano22","gender":"1","age":"11","school":"6"},{"start_time":1551801632172,"click_time":1551801633490,"finger_time":1551801632810,"fix_duration":1338.7675598053636,"trial":65,"RT":638,"MT":680,"sideResp":2,"stimulus":"img/900/equaldotanddens/R/14_Ratio_900_L_18_R_20.png","xmouse":[798,798,798,798,798,798,798,798,798,798,798,798,798,798,798,798,798,798,798,798,798,798,798,798,798,798,798,798,798,805,830,867,933,952,963,971,974,974,964,949,925,887,843,755,740,740,740,740,741,755,779,809,861,989,1023,1035,1040,1041,1041,1041,1041,1047,1057,1085,1109,1116],"ymouse":[535,535,535,535,535,535,535,535,535,535,535,535,535,535,535,535,535,535,535,535,535,535,535,535,535,535,535,535,535,532,520,505,474,467,461,453,449,438,412,395,376,353,321,258,248,247,247,247,247,247,247,247,247,247,245,241,236,231,223,216,208,192,178,132,102,93],"timestamp_mouse":[17,38,59,78,98,117,139,159,177,197,217,238,257,278,297,318,337,358,377,398,419,437,457,477,499,517,538,558,578,597,617,638,659,678,697,717,738,758,778,798,817,837,857,877,898,918,937,958,978,997,1017,1037,1057,1077,1098,1117,1137,1158,1178,1197,1218,1237,1258,1277,1299,1318],"xSR":741.5,"ySR":469.95,"xT1":424.9,"yT1":0,"xT2":1058.1,"yT2":0,"toosoon":0,"cond_shown":"equaldotanddens","ratio_trial":900,"smaller_num":"18","larger_num":"20","correct_side":2,"subjID":"sharonlozano22","gender":"1","age":"11","school":"6"},{"start_time":1551801635373,"click_time":1551801636649,"finger_time":1551801636150,"fix_duration":301.56519425200304,"trial":66,"RT":777,"MT":499,"sideResp":2,"stimulus":"img/250/equaldotsize/R/13_Ratio_250_L_2_R_8.png","xmouse":[817,817,817,817,817,817,817,817,817,817,817,817,817,817,817,817,817,817,817,817,817,817,817,817,817,817,817,817,817,817,817,817,817,817,817,817,817,817,892,895,896,896,896,897,899,900,904,921,995,1021,1042,1050,1054,1057,1060,1067,1078,1083,1084,1082,1081,1081,1081,1081],"ymouse":[528,528,528,528,528,528,528,528,528,528,528,528,528,528,528,528,528,528,528,528,528,528,528,528,528,528,528,528,528,528,528,528,528,528,528,528,528,525,423,412,407,399,389,375,369,364,356,340,299,287,278,274,271,269,264,254,232,216,178,163,148,133,117,89],"timestamp_mouse":[17,36,56,76,96,116,137,157,177,196,216,236,256,277,296,317,337,356,377,396,416,437,456,476,498,516,537,558,578,596,618,636,658,676,698,717,736,758,777,797,816,836,857,877,897,917,936,956,976,996,1016,1037,1056,1076,1097,1116,1136,1157,1176,1196,1217,1237,1256,1276],"xSR":741.5,"ySR":469.95,"xT1":424.9,"yT1":0,"xT2":1058.1,"yT2":0,"toosoon":0,"cond_shown":"equaldotsize","ratio_trial":250,"smaller_num":"2","larger_num":"8","correct_side":2,"subjID":"sharonlozano22","gender":"1","age":"11","school":"6"},{"start_time":1551801646789,"click_time":1551801647890,"finger_time":1551801647389,"fix_duration":737.5555636283008,"trial":67,"RT":600,"MT":501,"sideResp":2,"stimulus":"img/750/equaldotanddens/R/11_Ratio_750_L_12_R_16.png","xmouse":[806,806,806,806,806,806,806,806,806,806,806,806,806,806,806,806,806,806,806,806,806,806,806,806,806,806,806,805,825,838,852,868,883,920,946,982,1030,1105,1171,1184,1191,1192,1193,1193,1193,1193,1193,1193,1193,1193,1193,1193,1193,1178,1160,1137],"ymouse":[514,514,514,514,514,514,51