[{"start_time":1551790886593,"click_time":1551790887210,"finger_time":1551790887110,"fix_duration":458.58870236569436,"trial":0,"RT":517,"MT":100,"sideResp":1,"stimulus":"img/750/equaldotsize/L/10_Ratio_750_L_4_R_3.png","xmouse":[775,775,774,774,779,781,783,784,785,788,788,788,788,788,788,788,788,788,788,788,788,789,789,784,777,762,741,651,606,566,536,515],"ymouse":[567,567,566,566,559,558,557,556,555,554,554,553,553,553,553,553,553,553,553,553,553,553,551,544,537,525,508,404,312,227,148,77],"timestamp_mouse":[0,17,47,57,77,96,118,136,156,177,196,218,237,257,278,298,317,338,357,377,397,418,437,458,477,497,517,538,557,577,597,617],"xSR":741.5,"ySR":490.1,"xT1":424.9,"yT1":0,"xT2":1058.1,"yT2":0,"toosoon":0,"cond_shown":"equaldotsize","ratio_trial":750,"smaller_num":"3","larger_num":"4","correct_side":1,"subjID":"SharonMelissaCorpasTORRES9","gender":"1","age":"11","school":"6","test":{"fix_dur":[250,1500],"timestim":300,"targets_dim":[100,100],"targets_relative_coord":[0.3,0.7],"size_stim":[880,420],"start_dim":[100,100],"size_start":[300,300],"size_fix":60,"samplingrate":20,"img_types":["equaldotsize","equaldotanddens","randomdotsizeEA"],"ratios":[250,500,750,900],"rep_conds":9,"nTrials":120,"trials_to_rest":500,"Trials_order":[54,57,68,42,27,1,75,46,16,32,90,56,28,84,80,55,105,44,82,87,2,98,11,35,102,9,34,38,41,25,103,3,52,81,53,50,114,63,39,70,26,58,92,0,88,61,117,12,29,89,10,37,112,86,108,79,6,69,21,7,77,15,106,17,72,97,101,59,66,62,48,93,5,40,115,110,8,113,18,104,47,100,30,14,24,36,4,13,119,64,23,74,118,111,116,94,109,73,45,71,51,95,49,31,76,96,67,78,91,22,65,19,60,43,83,20,99,85,107,33],"cond_shown":["equaldotsize","equaldotsize","randomdotsizeEA","equaldotsize","equaldotsize","equaldotanddens","equaldotsize","equaldotanddens","equaldotanddens","randomdotsizeEA","equaldotsize","randomdotsizeEA","equaldotanddens","equaldotsize","randomdotsizeEA","equaldotanddens","equaldotsize","randomdotsizeEA","equaldotanddens","equaldotsize","randomdotsizeEA","randomdotsizeEA","randomdotsizeEA","randomdotsizeEA","equaldotsize","equaldotsize","equaldotanddens","randomdotsizeEA","randomdotsizeEA","equaldotanddens","equaldotanddens","equaldotsize","equaldotanddens","equaldotsize","randomdotsizeEA","randomdotsizeEA","equaldotsize","equaldotsize","equaldotsize","equaldotanddens","randomdotsizeEA","equaldotanddens","randomdotsizeEA","equaldotsize","equaldotanddens","equaldotanddens","equaldotsize","equaldotsize","randomdotsizeEA","randomdotsizeEA","equaldotanddens","equaldotanddens","equaldotanddens","randomdotsizeEA","equaldotsize","equaldotanddens","equaldotsize","equaldotsize","equaldotsize","equaldotanddens","randomdotsizeEA","equaldotsize","equaldotanddens","randomdotsizeEA","equaldotsize","equaldotanddens","randomdotsizeEA","randomdotsizeEA","equaldotsize","randomdotsizeEA","equaldotsize","equaldotsize","randomdotsizeEA","equaldotanddens","equaldotanddens","randomdotsizeEA","randomdotsizeEA","randomdotsizeEA","equaldotsize","randomdotsizeEA","randomdotsizeEA","equaldotanddens","equaldotsize","randomdotsizeEA","equaldotsize","equaldotsize","equaldotanddens","equaldotanddens","randomdotsizeEA","equaldotanddens","randomdotsizeEA","randomdotsizeEA","equaldotanddens","equaldotsize","randomdotsizeEA","equaldotanddens","equaldotanddens","equaldotanddens","equaldotsize","randomdotsizeEA","equaldotsize","randomdotsizeEA","equaldotanddens","equaldotanddens","equaldotanddens","equaldotsize","equaldotanddens","equaldotsize","equaldotanddens","equaldotanddens","randomdotsizeEA","equaldotanddens","equaldotsize","equaldotanddens","randomdotsizeEA","randomdotsizeEA","equaldotsize","equaldotanddens","randomdotsizeEA","equaldotsize"],"ratio_trial":[750,900,750,750,500,250,500,900,500,750,750,750,500,250,750,750,900,750,900,500,250,250,900,900,750,900,900,250,500,250,750,500,500,900,500,250,750,500,500,900,250,900,750,250,500,250,900,250,500,500,900,250,500,250,250,750,750,900,900,750,500,500,900,500,250,250,500,900,750,250,250,900,500,500,750,250,750,500,750,750,900,500,750,250,250,250,500,250,900,500,900,250,900,500,750,900,250,250,900,900,500,900,250,750,500,250,750,750,750,900,500,750,250,750,900,750,500,250,900,900],"smaller_num":["3","9","15","3","4","5","4","9","6","15","15","18","1","1","9","15","9","12","9","6","3","3","18","18","12","18","9","3","9","3","15","2","9","18","1","2","15","9","1","9","2","18","9","5","5","6","18","2","9","2","18","3","9","5","2","15","6","18","18","15","9","2","18","3","3","5","6","9","3","3","4","18","6","5","9","3","6","9","15","6","9","1","3","6","3","2","1","5","18","1","18","3","18","6","18","9","3","5","18","18","4","18","2","3","5","1","15","15","18","9","1","3","3","3","18","6","5","3","9","18"],"larger_num":["4","10","20","4","8","20","8","10","12","20","20","24","2","4","12","20","10","16","10","12","12","12","20","20","16","20","10","12","18","12","20","4","18","20","2","8","20","18","2","10","8","20","12","20","10","24","20","8","18","4","20","12","18","20","8","20","8","20","20","20","18","4","20","6","12","20","12","10","4","12","16","20","12","10","12","12","8","18","20","8","10","2","4","24","12","8","2","20","20","2","20","12","20","12","24","10","12","20","20","20","8","20","8","4","10","4","20","20","24","10","2","4","12","4","20","8","10","12","10","20"],"correct_side":[1,1,2,2,1,2,1,2,1,2,1,1,2,2,2,2,1,2,2,1,1,2,2,1,2,1,1,2,2,2,2,1,2,1,2,1,2,2,2,2,1,2,2,2,2,1,2,1,2,2,1,1,2,2,1,2,2,2,2,2,2,1,1,2,2,2,1,2,1,1,1,2,1,2,2,1,1,2,2,1,1,2,2,1,2,1,2,2,1,2,1,2,1,1,1,2,2,2,2,2,1,1,1,1,1,2,2,1,1,2,2,2,1,2,1,2,1,1,2,2],"img_shown":["img/750/equaldotsize/L/10_Ratio_750_L_4_R_3.png","img/900/equaldotsize/L/1_Ratio_900_L_10_R_9.png","img/750/randomdotsizeEA/R/4_Ratio_750_L_15_R_20.png","img/750/equaldotsize/R/12_Ratio_750_L_3_R_4.png","img/500/equaldotsize/L/8_Ratio_500_L_8_R_4.png","img/250/equaldotanddens/R/12_Ratio_250_L_5_R_20.png","img/500/equaldotsize/L/8_Ratio_500_L_8_R_4.png","img/900/equaldotanddens/R/15_Ratio_900_L_9_R_10.png","img/500/equaldotanddens/L/13_Ratio_500_L_12_R_6.png","img/750/randomdotsizeEA/R/5_Ratio_750_L_15_R_20.png","img/750/equaldotsize/L/1_Ratio_750_L_20_R_15.png","img/750/randomdotsizeEA/L/6_Ratio_750_L_24_R_18.png","img/500/equaldotanddens/R/15_Ratio_500_L_1_R_2.png","img/250/equaldotsize/R/8_Ratio_250_L_1_R_4.png","img/750/randomdotsizeEA/R/15_Ratio_750_L_9_R_12.png","img/750/equaldotanddens/R/4_Ratio_750_L_15_R_20.png","img/900/equaldotsize/L/1_Ratio_900_L_10_R_9.png","img/750/randomdotsizeEA/R/11_Ratio_750_L_12_R_16.png","img/900/equaldotanddens/R/15_Ratio_900_L_9_R_10.png","img/500/equaldotsize/L/13_Ratio_500_L_12_R_6.png","img/250/randomdotsizeEA/L/15_Ratio_250_L_12_R_3.png","img/250/randomdotsizeEA/R/9_Ratio_250_L_3_R_12.png","img/900/randomdotsizeEA/R/14_Ratio_900_L_18_R_20.png","img/900/randomdotsizeEA/L/8_Ratio_900_L_20_R_18.png","img/750/equaldotsize/R/11_Ratio_750_L_12_R_16.png","img/900/equaldotsize/L/4_Ratio_900_L_20_R_18.png","img/900/equaldotanddens/L/1_Ratio_900_L_10_R_9.png","img/250/randomdotsizeEA/R/9_Ratio_250_L_3_R_12.png","img/500/randomdotsizeEA/R/6_Ratio_500_L_9_R_18.png","img/250/equaldotanddens/R/11_Ratio_250_L_3_R_12.png","img/750/equaldotanddens/R/5_Ratio_750_L_15_R_20.png","img/500/equaldotsize/L/10_Ratio_500_L_4_R_2.png","img/500/equaldotanddens/R/1_Ratio_500_L_9_R_18.png","img/900/equaldotsize/L/2_Ratio_900_L_20_R_18.png","img/500/randomdotsizeEA/R/12_Ratio_500_L_1_R_2.png","img/250/randomdotsizeEA/L/3_Ratio_250_L_8_R_2.png","img/750/equaldotsize/R/3_Ratio_750_L_15_R_20.png","img/500/equaldotsize/R/1_Ratio_500_L_9_R_18.png","img/500/equaldotsize/R/12_Ratio_500_L_1_R_2.png","img/900/equaldotanddens/R/6_Ratio_900_L_9_R_10.png","img/250/randomdotsizeEA/L/1_Ratio_250_L_8_R_2.png","img/900/equaldotanddens/R/12_Ratio_900_L_18_R_20.png","img/750/randomdotsizeEA/R/15_Ratio_750_L_9_R_12.png","img/250/equaldotsize/R/12_Ratio_250_L_5_R_20.png","img/500/equaldotanddens/R/14_Ratio_500_L_5_R_10.png","img/250/equaldotanddens/L/5_Ratio_250_L_24_R_6.png","img/900/equaldotsize/R/12_Ratio_900_L_18_R_20.png","img/250/equaldotsize/L/7_Ratio_250_L_8_R_2.png","img/500/randomdotsizeEA/R/6_Ratio_500_L_9_R_18.png","img/500/randomdotsizeEA/R/9_Ratio_500_L_2_R_4.png","img/900/equaldotanddens/L/10_Ratio_900_L_20_R_18.png","img/250/equaldotanddens/L/14_Ratio_250_L_12_R_3.png","img/500/equaldotanddens/R/6_Ratio_500_L_9_R_18.png","img/250/randomdotsizeEA/R/12_Ratio_250_L_5_R_20.png","img/250/equaldotsize/L/1_Ratio_250_L_8_R_2.png","img/750/equaldotanddens/R/5_Ratio_750_L_15_R_20.png","img/750/equaldotsize/R/2_Ratio_750_L_6_R_8.png","img/900/equaldotsize/R/9_Ratio_900_L_18_R_20.png","img/900/equaldotsize/R/13_Ratio_900_L_18_R_20.png","img/750/equaldotanddens/R/5_Ratio_750_L_15_R_20.png","img/500/randomdotsizeEA/R/1_Ratio_500_L_9_R_18.png","img/500/equaldotsize/L/10_Ratio_500_L_4_R_2.png","img/900/equaldotanddens/L/8_Ratio_900_L_20_R_18.png","img/500/randomdotsizeEA/R/2_Ratio_500_L_3_R_6.png","img/250/equaldotsize/R/11_Ratio_250_L_3_R_12.png","img/250/equaldotanddens/R/12_Ratio_250_L_5_R_20.png","img/500/randomdotsizeEA/L/11_Ratio_500_L_12_R_6.png","img/900/randomdotsizeEA/R/3_Ratio_900_L_9_R_10.png","img/750/equaldotsize/L/9_Ratio_750_L_4_R_3.png","img/250/randomdotsizeEA/L/15_Ratio_250_L_12_R_3.png","img/250/equaldotsize/L/2_Ratio_250_L_16_R_4.png","img/900/equaldotsize/R/13_Ratio_900_L_18_R_20.png","img/500/randomdotsizeEA/L/11_Ratio_500_L_12_R_6.png","img/500/equaldotanddens/R/14_Ratio_500_L_5_R_10.png","img/750/equaldotanddens/R/15_Ratio_750_L_9_R_12.png","img/250/randomdotsizeEA/L/14_Ratio_250_L_12_R_3.png","img/750/randomdotsizeEA/L/14_Ratio_750_L_8_R_6.png","img/500/randomdotsizeEA/R/1_Ratio_500_L_9_R_18.png","img/750/equaldotsize/R/3_Ratio_750_L_15_R_20.png","img/750/randomdotsizeEA/L/14_Ratio_750_L_8_R_6.png","img/900/randomdotsizeEA/L/1_Ratio_900_L_10_R_9.png","img/500/equaldotanddens/R/15_Ratio_500_L_1_R_2.png","img/750/equaldotsize/R/12_Ratio_750_L_3_R_4.png","img/250/randomdotsizeEA/L/5_Ratio_250_L_24_R_6.png","img/250/equaldotsize/R/11_Ratio_250_L_3_R_12.png","img/250/equaldotsize/L/1_Ratio_250_L_8_R_2.png","img/500/equaldotanddens/R/12_Ratio_500_L_1_R_2.png","img/250/equaldotanddens/R/12_Ratio_250_L_5_R_20.png","img/900/randomdotsizeEA/L/10_Ratio_900_L_20_R_18.png","img/500/equaldotanddens/R/12_Ratio_500_L_1_R_2.png","img/900/randomdotsizeEA/L/10_Ratio_900_L_20_R_18.png","img/250/randomdotsizeEA/R/9_Ratio_250_L_3_R_12.png","img/900/equaldotanddens/L/10_Ratio_900_L_20_R_18.png","img/500/equaldotsize/L/13_Ratio_500_L_12_R_6.png","img/750/randomdotsizeEA/L/6_Ratio_750_L_24_R_18.png","img/900/equaldotanddens/R/15_Ratio_900_L_9_R_10.png","img/250/equaldotanddens/R/4_Ratio_250_L_3_R_12.png","img/250/equaldotanddens/R/12_Ratio_250_L_5_R_20.png","img/900/equaldotsize/R/12_Ratio_900_L_18_R_20.png","img/900/randomdotsizeEA/R/12_Ratio_900_L_18_R_20.png","img/500/equaldotsize/L/8_Ratio_500_L_8_R_4.png","img/900/randomdotsizeEA/L/4_Ratio_900_L_20_R_18.png","img/250/equaldotanddens/L/3_Ratio_250_L_8_R_2.png","img/750/equaldotanddens/L/9_Ratio_750_L_4_R_3.png","img/500/equaldotanddens/L/7_Ratio_500_L_10_R_5.png","img/250/equaldotsize/R/8_Ratio_250_L_1_R_4.png","img/750/equaldotanddens/R/5_Ratio_750_L_15_R_20.png","img/750/equaldotsize/L/1_Ratio_750_L_20_R_15.png","img/750/equaldotanddens/L/6_Ratio_750_L_24_R_18.png","img/900/equaldotanddens/R/7_Ratio_900_L_9_R_10.png","img/500/randomdotsizeEA/R/12_Ratio_500_L_1_R_2.png","img/750/equaldotanddens/R/7_Ratio_750_L_3_R_4.png","img/250/equaldotsize/L/15_Ratio_250_L_12_R_3.png","img/750/equaldotanddens/R/12_Ratio_750_L_3_R_4.png","img/900/randomdotsizeEA/L/10_Ratio_900_L_20_R_18.png","img/750/randomdotsizeEA/R/2_Ratio_750_L_6_R_8.png","img/500/equaldotsize/L/7_Ratio_500_L_10_R_5.png","img/250/equaldotanddens/L/15_Ratio_250_L_12_R_3.png","img/900/randomdotsizeEA/R/3_Ratio_900_L_9_R_10.png","img/900/equaldotsize/R/13_Ratio_900_L_18_R_20.png"],"Rat0":[["12_Ratio_0_L_9_R_0.png","13_Ratio_0_L_6_R_0.png","5_Ratio_0_L_2_R_0.png","6_Ratio_0_L_4_R_0.png","8_Ratio_0_L_6_R_0.png"],["1_Ratio_0_L_0_R_17.png","10_Ratio_0_L_0_R_22.png","11_Ratio_0_L_0_R_1.png","14_Ratio_0_L_0_R_24.png","15_Ratio_0_L_0_R_4.png","2_Ratio_0_L_0_R_5.png","3_Ratio_0_L_0_R_17.png","4_Ratio_0_L_0_R_7.png","7_Ratio_0_L_0_R_19.png","9_Ratio_0_L_0_R_15.png"]],"Rat250":[["1_Ratio_250_L_8_R_2.png","14_Ratio_250_L_12_R_3.png","15_Ratio_250_L_12_R_3.png","2_Ratio_250_L_16_R_4.png","3_Ratio_250_L_8_R_2.png","5_Ratio_250_L_24_R_6.png","7_Ratio_250_L_8_R_2.png"],["10_Ratio_250_L_4_R_16.png","11_Ratio_250_L_3_R_12.png","12_Ratio_250_L_5_R_20.png","13_Ratio_250_L_2_R_8.png","4_Ratio_250_L_3_R_12.png","6_Ratio_250_L_6_R_24.png","8_Ratio_250_L_1_R_4.png","9_Ratio_250_L_3_R_12.png"]],"Rat500":[["10_Ratio_500_L_4_R_2.png","11_Ratio_500_L_12_R_6.png","13_Ratio_500_L_12_R_6.png","4_Ratio_500_L_18_R_9.png","5_Ratio_500_L_4_R_2.png","7_Ratio_500_L_10_R_5.png","8_Ratio_500_L_8_R_4.png"],["1_Ratio_500_L_9_R_18.png","12_Ratio_500_L_1_R_2.png","14_Ratio_500_L_5_R_10.png","15_Ratio_500_L_1_R_2.png","2_Ratio_500_L_3_R_6.png","3_Ratio_500_L_10_R_20.png","6_Ratio_500_L_9_R_18.png","9_Ratio_500_L_2_R_4.png"]],"Rat750":[["1_Ratio_750_L_20_R_15.png","10_Ratio_750_L_4_R_3.png","13_Ratio_750_L_8_R_6.png","14_Ratio_750_L_8_R_6.png","6_Ratio_750_L_24_R_18.png","8_Ratio_750_L_4_R_3.png","9_Ratio_750_L_4_R_3.png"],["11_Ratio_750_L_12_R_16.png","12_Ratio_750_L_3_R_4.png","15_Ratio_750_L_9_R_12.png","2_Ratio_750_L_6_R_8.png","3_Ratio_750_L_15_R_20.png","4_Ratio_750_L_15_R_20.png","5_Ratio_750_L_15_R_20.png","7_Ratio_750_L_3_R_4.png"]],"Rat900":[["1_Ratio_900_L_10_R_9.png","10_Ratio_900_L_20_R_18.png","2_Ratio_900_L_20_R_18.png","4_Ratio_900_L_20_R_18.png","8_Ratio_900_L_20_R_18.png"],["11_Ratio_900_L_18_R_20.png","12_Ratio_900_L_18_R_20.png","13_Ratio_900_L_18_R_20.png","14_Ratio_900_L_18_R_20.png","15_Ratio_900_L_9_R_10.png","3_Ratio_900_L_9_R_10.png","5_Ratio_900_L_9_R_10.png","6_Ratio_900_L_9_R_10.png","7_Ratio_900_L_9_R_10.png","9_Ratio_900_L_18_R_20.png"]],"Rat1000":[["10_Ratio_1000_L_16_R_16.png","11_Ratio_1000_L_6_R_6.png","12_Ratio_1000_L_14_R_14.png","13_Ratio_1000_L_20_R_20.png","15_Ratio_1000_L_15_R_15.png","2_Ratio_1000_L_17_R_17.png","4_Ratio_1000_L_9_R_9.png","5_Ratio_1000_L_6_R_6.png","6_Ratio_1000_L_19_R_19.png","8_Ratio_1000_L_14_R_14.png","9_Ratio_1000_L_25_R_25.png"],["1_Ratio_1000_L_1_R_1.png","14_Ratio_1000_L_17_R_17.png","3_Ratio_1000_L_17_R_17.png","7_Ratio_1000_L_6_R_6.png"]]}},{"start_time":1551790888522,"click_time":1551790889131,"finger_time":1551790888890,"fix_duration":250,"trial":1,"RT":368,"MT":241,"sideResp":2,"stimulus":"img/900/equaldotsize/L/1_Ratio_900_L_10_R_9.png","xmouse":[759,759,759,759,759,758,759,759,760,762,765,768,769,769,769,769,773,777,785,802,835,858,881,898,920,932,956,972,990,1025,1059],"ymouse":[536,536,536,536,536,536,535,535,535,535,534,533,533,533,533,533,520,496,451,394,317,286,260,237,203,179,131,107,82,40,2],"timestamp_mouse":[8,29,56,68,89,108,128,147,169,187,208,229,248,268,289,308,327,347,368,388,408,427,449,468,488,508,529,548,568,588,609],"xSR":741.5,"ySR":490.1,"xT1":424.9,"yT1":0,"xT2":1058.1,"yT2":0,"toosoon":0,"cond_shown":"equaldotsize","ratio_trial":900,"smaller_num":"9","larger_num":"10","correct_side":1,"subjID":"SharonMelissaCorpasTORRES9","gender":"1","age":"11","school":"6"},{"start_time":1551790890640,"click_time":1551790891050,"finger_time":1551790890950,"fix_duration":488.6065872421802,"trial":2,"RT":310,"MT":100,"sideResp":1,"stimulus":"img/750/randomdotsizeEA/R/4_Ratio_750_L_15_R_20.png","xmouse":[763,763,763,763,763,763,763,763,763,763,763,763,763,763,761,734,695,639,561,539,469],"ymouse":[518,518,518,518,518,518,518,518,518,518,518,518,518,518,511,461,387,291,152,115,2],"timestamp_mouse":[10,30,50,69,91,111,130,149,169,190,210,229,251,269,290,309,330,350,371,390,410],"xSR":741.5,"ySR":490.1,"xT1":424.9,"yT1":0,"xT2":1058.1,"yT2":0,"toosoon":0,"cond_shown":"randomdotsizeEA","ratio_trial":750,"smaller_num":"15","larger_num":"20","correct_side":2,"subjID":"SharonMelissaCorpasTORRES9","gender":"1","age":"11","school":"6"},{"start_time":1551790896348,"click_time":1551790897350,"finger_time":1551790896810,"fix_duration":796.7065534453552,"trial":3,"RT":462,"MT":540,"sideResp":1,"stimulus":"img/750/equaldotsize/R/12_Ratio_750_L_3_R_4.png","xmouse":[779,779,779,779,779,779,779,779,779,779,779,779,779,779,779,779,779,779,779,779,779,779,779,779,779,729,682,622,585,585,585,585,585,585,585,585,585,585,196,226,269,285,298,307,322,329,339,355,377,396,427],"ymouse":[503,503,503,503,503,503,503,503,503,503,503,503,503,503,503,503,503,503,503,503,503,503,496,470,412,242,149,57,8,8,8,8,8,8,8,8,8,8,9,32,61,70,74,75,75,75,73,71,68,66,64],"timestamp_mouse":[11,22,44,62,82,101,122,142,163,182,203,222,243,262,282,302,322,342,362,382,401,423,441,462,482,502,521,542,562,583,603,622,643,662,683,703,723,743,762,783,802,822,842,863,883,902,921,942,962,981,1001],"xSR":741.5,"ySR":490.1,"xT1":424.9,"yT1":0,"xT2":1058.1,"yT2":0,"toosoon":0,"cond_shown":"equaldotsize","ratio_trial":750,"smaller_num":"3","larger_num":"4","correct_side":2,"subjID":"SharonMelissaCorpasTORRES9","gender":"1","age":"11","school":"6"},{"start_time":1551790898816,"click_time":1551790900431,"finger_time":1551790899230,"fix_duration":545.0950457821573,"trial":4,"RT":414,"MT":1201,"sideResp":1,"stimulus":"img/500/equaldotsize/L/8_Ratio_500_L_8_R_4.png","xmouse":[796,796,796,796,796,796,796,796,796,796,796,796,796,796,796,796,796,796,798,800,832,859,898,941,993,1050,1116,1125,1126,1126,1126,1126,1126,1126,1126,1119,1117,1117,1117,1117,1117,1117,1117,1117,1117,1117,1117,1117,1113,1111,1089,1006,957,911,886,874,874,874,874,866,794,765,752,743,738,725,707,676,655,648,645,634,622,605,588,576,568,563,554,542,522],"ymouse":[527,527,527,527,527,527,527,527,527,527,527,527,527,527,527,527,527,527,527,525,480,429,358,281,214,161,116,107,105,105,105,105,105,105,105,105,105,105,105,105,105,105,105,105,105,105,105,105,105,107,131,233,299,355,395,420,420,420,420,405,304,256,224,200,181,146,128,108,99,96,96,96,98,100,100,100,99,96,91,82,70],"timestamp_mouse":[15,41,54,74,95,114,134,154,175,194,213,235,253,275,295,314,333,354,373,394,414,434,453,474,494,514,534,554,574,594,614,633,655,675,693,715,733,754,774,794,815,834,855,875,895,915,935,954,973,993,1013,1034,1054,1075,1094,1115,1133,1154,1174,1193,1214,1233,1253,1275,1294,1315,1334,1354,1374,1394,1414,1433,1454,1475,1494,1514,1535,1555,1574,1594,1614],"xSR":741.5,"ySR":490.1,"xT1":424.9,"yT1":0,"xT2":1058.1,"yT2":0,"toosoon":0,"cond_shown":"equaldotsize","ratio_trial":500,"smaller_num":"4","larger_num":"8","correct_side":1,"subjID":"SharonMelissaCorpasTORRES9","gender":"1","age":"11","school":"6"},{"start_time":1551790902290,"click_time":1551790903131,"finger_time":1551790902851,"fix_duration":1037.5899234230772,"trial":5,"RT":561,"MT":280,"sideResp":2,"stimulus":"img/250/equaldotanddens/R/12_Ratio_250_L_5_R_20.png","xmouse":[770,770,770,770,770,770,770,770,770,770,770,770,770,770,770,770,770,770,770,770,770,770,770,770,770,770,774,787,834,855,869,877,879,879,881,889,919,962,1047,1080,1098,1112,1130],"ymouse":[523,523,523,523,523,523,523,523,523,523,523,523,523,523,523,523,523,523,523,523,523,523,523,523,523,523,523,507,451,427,409,398,392,392,390,381,352,317,221,172,137,106,71],"timestamp_mouse":[2,19,41,61,80,101,120,141,160,181,201,220,239,260,280,300,321,341,361,380,401,419,440,460,480,500,521,540,561,579,601,620,641,659,681,700,720,741,760,780,801,820,840],"xSR":741.5,"ySR":490.1,"xT1":424.9,"yT1":0,"xT2":1058.1,"yT2":0,"toosoon":0,"cond_shown":"equaldotanddens","ratio_trial":250,"smaller_num":"5","larger_num":"20","correct_side":2,"subjID":"SharonMelissaCorpasTORRES9","gender":"1","age":"11","school":"6"},{"start_time":1551790905672,"click_time":1551790906790,"finger_time":1551790906390,"fix_duration":1381.467109431811,"trial":6,"RT":718,"MT":400,"sideResp":1,"stimulus":"img/500/equaldotsize/L/8_Ratio_500_L_8_R_4.png","xmouse":[789,789,789,789,789,789,789,789,789,789,789,789,789,789,789,789,789,789,789,789,789,789,789,789,789,789,789,789,789,789,789,789,788,779,764,734,685,513,448,394,363,357,357,357,357,357,358,368,373,380,389,397,413,419,424,426],"ymouse":[513,513,513,513,513,513,513,513,513,513,513,513,513,513,513,513,513,513,513,513,513,513,513,513,513,513,513,513,513,513,513,513,514,510,499,468,405,221,159,114,93,88,87,87,87,86,85,83,83,81,80,79,76,74,73,72],"timestamp_mouse":[18,40,59,78,98,119,138,159,179,199,218,239,259,279,298,319,339,359,377,398,418,438,458,479,499,519,538,559,578,599,619,639,658,677,698,718,738,758,778,797,819,838,857,878,899,918,938,958,978,998,1018,1038,1058,1077,1098,1118],"xSR":741.5,"ySR":490.1,"xT1":424.9,"yT1":0,"xT2":1058.1,"yT2":0,"toosoon":0,"cond_shown":"equaldotsize","ratio_trial":500,"smaller_num":"4","larger_num":"8","correct_side":1,"subjID":"SharonMelissaCorpasTORRES9","gender":"1","age":"11","school":"6"},{"start_time":1551790908422,"click_time":1551790909532,"finger_time":1551790908989,"fix_duration":250,"trial":7,"RT":567,"MT":543,"sideResp":2,"stimulus":"img/900/equaldotanddens/R/15_Ratio_900_L_9_R_10.png","xmouse":[797,797,797,797,797,797,797,797,797,797,798,799,799,799,799,799,799,799,799,799,799,799,799,799,799,799,799,799,809,816,848,903,929,950,964,975,997,1015,1030,1044,1059,1064,1067,1071,1075,1080,1087,1087,1087,1087,1087,1087,1087,1087,1088,1090],"ymouse":[513,513,513,513,514,514,514,514,514,514,514,514,514,514,514,514,514,514,514,514,514,514,514,514,513,511,509,502,472,457,406,335,303,277,255,236,213,204,199,191,178,165,156,145,131,119,104,103,102,102,102,102,102,102,100,96],"timestamp_mouse":[9,38,49,68,88,107,129,148,169,188,207,229,249,268,288,309,328,348,368,389,409,428,449,469,488,508,528,549,567,587,607,628,648,667,688,708,727,748,768,788,807,829,848,869,888,909,928,948,968,989,1008,1028,1048,1068,1088,1109],"xSR":741.5,"ySR":490.1,"xT1":424.9,"yT1":0,"xT2":1058.1,"yT2":0,"toosoon":0,"cond_shown":"equaldotanddens","ratio_trial":900,"smaller_num":"9","larger_num":"10","correct_side":2,"subjID":"SharonMelissaCorpasTORRES9","gender":"1","age":"11","school":"6"},{"start_time":1551790910895,"click_time":1551790911550,"finger_time":1551790911331,"fix_duration":284.5832373285134,"trial":8,"RT":436,"MT":219,"sideResp":1,"stimulus":"img/500/equaldotanddens/L/13_Ratio_500_L_12_R_6.png","xmouse":[758,759,760,761,761,762,762,763,763,764,764,764,764,764,764,764,764,764,764,762,752,716,696,681,671,662,649,621,601,572,542,517,481],"ymouse":[559,558,555,554,553,552,552,550,549,548,548,548,548,548,548,548,548,545,541,533,517,473,451,428,413,393,359,294,251,200,147,102,33],"timestamp_mouse":[18,35,56,75,95,115,134,156,174,195,215,235,256,275,295,316,335,356,374,396,415,436,454,475,495,515,535,555,574,595,615,636,654],"xSR":741.5,"ySR":490.1,"xT1":424.9,"yT1":0,"xT2":1058.1,"yT2":0,"toosoon":0,"cond_shown":"equaldotanddens","ratio_trial":500,"smaller_num":"6","larger_num":"12","correct_side":1,"subjID":"SharonMelissaCorpasTORRES9","gender":"1","age":"11","school":"6"},{"start_time":1551790913733,"click_time":1551790914531,"finger_time":1551790914311,"fix_duration":1242.4809222987146,"trial":9,"RT":578,"MT":220,"sideResp":2,"stimulus":"img/750/randomdotsizeEA/R/5_Ratio_750_L_15_R_20.png","xmouse":[799,799,799,799,799,799,799,799,799,799,799,799,799,799,799,799,799,799,799,799,799,799,799,799,799,799,800,805,815,854,893,936,981,1034,1074,1084,1092,1099,1105,1119],"ymouse":[520,520,520,520,520,520,520,520,520,520,520,520,520,520,520,520,520,520,520,520,520,520,520,520,520,519,514,502,481,409,357,301,250,189,152,143,131,117,104,68],"timestamp_mouse":[17,39,58,77,98,117,138,156,177,197,217,237,258,277,298,318,337,356,378,397,418,438,457,477,497,517,536,558,578,598,617,637,657,677,697,716,736,758,777,798],"xSR":741.5,"ySR":490.1,"xT1":424.9,"yT1":0,"xT2":1058.1,"yT2":0,"toosoon":0,"cond_shown":"randomdotsizeEA","ratio_trial":750,"smaller_num":"15","larger_num":"20","correct_side":2,"subjID":"SharonMelissaCorpasTORRES9","gender":"1","age":"11","school":"6"},{"start_time":1551790916127,"click_time":1551790916731,"finger_time":1551790916589,"fix_duration":394.80089953973817,"trial":10,"RT":462,"MT":142,"sideResp":1,"stimulus":"img/750/equaldotsize/L/1_Ratio_750_L_20_R_15.png","xmouse":[808,808,808,808,808,808,808,808,808,808,808,808,807,807,807,807,807,807,806,805,803,792,777,739,699,634,602,569,535,502,443],"ymouse":[559,559,559,559,559,559,559,559,559,559,559,559,557,557,557,557,557,557,557,556,551,530,508,455,410,321,279,230,181,134,47],"timestamp_mouse":[8,24,43,69,83,104,124,144,163,183,202,223,243,263,284,302,324,342,363,383,403,422,443,462,483,504,523,542,563,583,604],"xSR":741.5,"ySR":490.1,"xT1":424.9,"yT1":0,"xT2":1058.1,"yT2":0,"toosoon":0,"cond_shown":"equaldotsize","ratio_trial":750,"smaller_num":"15","larger_num":"20","correct_side":1,"subjID":"SharonMelissaCorpasTORRES9","gender":"1","age":"11","school":"6"},{"start_time":1551790918083,"click_time":1551790918831,"finger_time":1551790918490,"fix_duration":250,"trial":11,"RT":407,"MT":341,"sideResp":2,"stimulus":"img/750/randomdotsizeEA/L/6_Ratio_750_L_24_R_18.png","xmouse":[794,794,794,794,794,794,795,795,795,795,795,796,796,796,797,798,798,798,799,799,801,804,815,822,830,841,854,877,923,950,969,987,1005,1034,1047,1061,1074,1094],"ymouse":[511,511,511,511,511,511,511,511,511,511,511,511,511,511,511,511,510,507,499,492,483,469,439,424,409,391,372,339,275,239,209,185,166,140,130,118,107,87],"timestamp_mouse":[7,42,48,67,87,107,128,148,168,187,207,227,248,267,287,306,327,346,367,386,407,427,448,467,487,507,526,547,567,587,608,627,647,667,687,707,727,748],"xSR":741.5,"ySR":490.1,"xT1":424.9,"yT1":0,"xT2":1058.1,"yT2":0,"toosoon":0,"cond_shown":"randomdotsizeEA","ratio_trial":750,"smaller_num":"18","larger_num":"24","correct_side":1,"subjID":"SharonMelissaCorpasTORRES9","gender":"1","age":"11","school":"6"},{"start_time":1551790920729,"click_time":1551790921291,"finger_time":1551790921190,"fix_duration":897.2416408586093,"trial":12,"RT":461,"MT":101,"sideResp":1,"stimulus":"img/500/equaldotanddens/R/15_Ratio_500_L_1_R_2.png","xmouse":[753,753,753,753,753,753,753,753,753,753,753,753,753,753,753,753,753,753,753,753,752,750,744,732,704,632,587,538,501],"ymouse":[552,552,552,552,552,552,552,552,552,552,552,552,552,552,552,552,552,552,552,552,543,525,499,456,368,221,146,73,21],"timestamp_mouse":[8,21,41,62,81,100,122,142,161,182,202,221,241,262,281,301,321,341,360,382,402,420,441,461,481,501,521,541,562],"xSR":741.5,"ySR":490.1,"xT1":424.9,"yT1":0,"xT2":1058.1,"yT2":0,"toosoon":0,"cond_shown":"equaldotanddens","ratio_trial":500,"smaller_num":"1","larger_num":"2","correct_side":2,"subjID":"SharonMelissaCorpasTORRES9","gender":"1","age":"11","school":"6"},{"start_time":1551790923885,"click_time":1551790924790,"finger_time":1551790924310,"fix_duration":1473.527183806321,"trial":13,"RT":425,"MT":480,"sideResp":2,"stimulus":"img/250/equaldotsize/R/8_Ratio_250_L_1_R_4.png","xmouse":[812,812,812,812,812,812,812,812,812,812,812,812,812,812,812,812,812,812,811,810,809,809,809,811,816,821,830,845,867,879,889,902,934,955,976,1003,1028,1056,1071,1073,1073,1073,1073,1076,1076,1076],"ymouse":[522,522,522,522,522,522,522,522,522,522,522,522,522,522,522,522,522,522,515,506,494,482,468,439,421,402,383,354,323,310,297,282,251,233,217,197,181,160,145,142,141,139,136,115,100,81],"timestamp_mouse":[10,36,46,65,84,105,125,146,165,184,206,226,244,265,285,306,324,344,365,384,405,425,446,465,485,505,525,544,565,585,606,625,645,665,686,705,725,745,765,785,805,825,846,865,885,905],"xSR":741.5,"ySR":490.1,"xT1":424.9,"yT1":0,"xT2":1058.1,"yT2":0,"toosoon":0,"cond_shown":"equaldotsize","ratio_trial":250,"smaller_num":"1","larger_num":"4","correct_side":2,"subjID":"SharonMelissaCorpasTORRES9","gender":"1","age":"11","school":"6"},{"start_time":1551790930383,"click_time":1551790931310,"finger_time":1551790930910,"fix_duration":250,"trial":14,"RT":527,"MT":400,"sideResp":1,"stimulus":"img/750/randomdotsizeEA/R/15_Ratio_750_L_9_R_12.png","xmouse":[795,795,795,795,795,795,795,795,795,795,795,795,795,795,795,795,795,795,795,795,795,795,795,795,792,780,764,728,702,673,638,601,537,524,518,518,517,517,517,517,517,517,517,517,517,517,515],"ymouse":[535,535,535,535,535,535,535,535,535,535,535,535,535,535,535,535,535,535,535,535,535,535,535,531,522,503,485,446,415,373,324,270,149,123,113,113,112,112,112,112,112,111,109,107,106,103,96],"timestamp_mouse":[8,41,48,66,87,108,126,147,167,188,208,228,247,267,287,307,328,348,366,387,407,427,447,467,486,508,527,547,566,587,607,627,648,667,687,707,728,747,766,787,808,828,847,866,887,908,927],"xSR":741.5,"ySR":490.1,"xT1":424.9,"yT1":0,"xT2":1058.1,"yT2":0,"toosoon":0,"cond_shown":"randomdotsizeEA","ratio_trial":750,"smaller_num":"9","larger_num":"12","correct_side":2,"subjID":"SharonMelissaCorpasTORRES9","gender":"1","age":"11","school":"6"},{"start_time":1551790933013,"click_time":1551790933830,"finger_time":1551790933389,"fix_duration":302.1575194828171,"trial":15,"RT":376,"MT":441,"sideResp":2,"stimulus":"img/750/equaldotanddens/R/4_Ratio_750_L_15_R_20.png","xmouse":[798,798,798,798,798,798,798,798,798,798,798,798,798,798,798,798,798,799,817,833,968,1030,1078,1109,1126,1135,1138,1139,1139,1140,1141,1140,1140,1139,1138,1137,1134,1132,1126,1118,1102],"ymouse":[508,508,508,508,508,508,508,508,508,508,508,508,508,508,508,508,508,508,490,476,345,291,251,228,216,209,204,202,197,189,159,149,142,139,137,133,129,125,117,107,84],"timestamp_mouse":[17,46,57,76,97,117,138,157,178,198,218,236,258,278,298,317,338,358,376,397,418,437,457,477,497,517,537,556,577,597,618,637,656,677,697,718,736,757,777,797,817],"xSR":741.5,"ySR":490.1,"xT1":424.9,"yT1":0,"xT2":1058.1,"yT2":0,"toosoon":0,"cond_shown":"equaldotanddens","ratio_trial":750,"smaller_num":"15","larger_num":"20","correct_side":2,"subjID":"SharonMelissaCorpasTORRES9","gender":"1","age":"11","school":"6"},{"start_time":1551790935977,"click_time":1551790936690,"finger_time":1551790936451,"fix_duration":1105.2688871057608,"trial":16,"RT":474,"MT":239,"sideResp":1,"stimulus":"img/900/equaldotsize/L/1_Ratio_900_L_10_R_9.png","xmouse":[773,773,773,773,773,773,773,773,773,773,773,773,773,773,773,773,773,773,772,771,769,765,765,765,765,754,725,643,617,602,592,586,560,546,526,500],"ymouse":[538,538,538,538,538,538,538,538,538,538,538,538,538,538,538,538,538,538,534,531,523,506,491,443,405,346,274,176,155,144,138,132,114,105,94,76],"timestamp_mouse":[13,37,54,73,94,113,133,153,172,193,214,233,253,273,293,313,333,354,373,394,413,434,453,474,493,513,533,555,573,593,613,633,654,673,693,713],"xSR":741.5,"ySR":490.1,"xT1":424.9,"yT1":0,"xT2":1058.1,"yT2":0,"toosoon":0,"cond_shown":"equaldotsize","ratio_trial":900,"smaller_num":"9","larger_num":"10","correct_side":1,"subjID":"SharonMelissaCorpasTORRES9","gender":"1","age":"11","school":"6"},{"start_time":1551790937738,"click_time":1551790938532,"finger_time":1551790938191,"fix_duration":307.5935360779881,"trial":17,"RT":453,"MT":341,"sideResp":2,"stimulus":"img/750/randomdotsizeEA/R/11_Ratio_750_L_12_R_16.png","xmouse":[833,833,833,833,833,833,833,833,833,833,833,833,833,833,833,833,833,833,833,833,833,833,844,857,932,972,1002,1019,1027,1036,1037,1040,1043,1046,1060,1067,1076,1086,1098,1117],"ymouse":[533,533,533,533,533,533,533,533,533,533,533,533,533,533,533,533,533,533,533,533,533,526,513,495,417,383,358,335,318,288,278,271,264,258,227,211,192,168,139,79],"timestamp_mouse":[17,40,53,72,93,113,133,153,171,192,212,233,252,272,292,312,331,353,372,392,411,433,453,472,492,512,532,552,571,593,612,632,652,673,692,712,731,752,772,794],"xSR":741.5,"ySR":490.1,"xT1":424.9,"yT1":0,"xT2":1058.1,"yT2":0,"toosoon":0,"cond_shown":"randomdotsizeEA","ratio_trial":750,"smaller_num":"12","larger_num":"16","correct_side":2,"subjID":"SharonMelissaCorpasTORRES9","gender":"1","age":"11","school":"6"},{"start_time":1551790942869,"click_time":1551790943691,"finger_time":1551790943330,"fix_duration":1136.3506102771596,"trial":18,"RT":461,"MT":361,"sideResp":1,"stimulus":"img/900/equaldotanddens/R/15_Ratio_900_L_9_R_10.png","xmouse":[806,806,806,806,806,806,806,806,806,806,806,806,806,806,806,806,806,806,806,806,806,806,804,799,793,782,766,743,695,624,598,576,563,549,547,545,543,540,519,506,494,481],"ymouse":[499,499,499,499,499,499,499,499,499,499,499,499,499,499,499,499,499,499,499,499,499,496,493,473,456,435,412,385,330,262,239,217,201,186,183,180,178,174,139,122,106,90],"timestamp_mouse":[8,32,41,62,81,100,120,141,161,180,202,221,240,261,282,301,321,340,362,381,401,421,442,461,481,500,521,541,561,581,601,621,641,661,681,701,721,741,762,781,800,822],"xSR":741.5,"ySR":490.1,"xT1":424.9,"yT1":0,"xT2":1058.1,"yT2":0,"toosoon":0,"cond_shown":"equaldotanddens","ratio_trial":900,"smaller_num":"9","larger_num":"10","correct_side":2,"subjID":"SharonMelissaCorpasTORRES9","gender":"1","age":"11","school":"6"},{"start_time":1551790944956,"click_time":1551790945569,"finger_time":1551790945310,"fix_duration":405.70223657696556,"trial":19,"RT":354,"MT":259,"sideResp":1,"stimulus":"img/500/equaldotsize/L/13_Ratio_500_L_12_R_6.png","xmouse":[829,829,829,829,829,829,829,829,829,829,829,829,829,829,829,830,837,853,911,946,973,1004,1019,1027,1027,1021,998,951,769,647,516],"ymouse":[523,523,523,523,523,523,523,523,523,523,523,523,523,523,523,518,503,475,385,324,264,213,178,156,155,153,151,145,120,100,69],"timestamp_mouse":[19,37,54,74,95,115,134,154,175,194,214,233,255,274,294,313,335,354,374,393,413,433,454,475,493,515,535,554,574,594,613],"xSR":741.5,"ySR":490.1,"xT1":424.9,"yT1":0,"xT2":1058.1,"yT2":0,"toosoon":0,"cond_shown":"equaldotsize","ratio_trial":500,"smaller_num":"6","larger_num":"12","correct_side":1,"subjID":"SharonMelissaCorpasTORRES9","gender":"1","age":"11","school":"6"},{"start_time":1551790947760,"click_time":1551790948451,"finger_time":1551790948251,"fix_duration":1208.8323160619245,"trial":20,"RT":491,"MT":200,"sideResp":1,"stimulus":"img/250/randomdotsizeEA/L/15_Ratio_250_L_12_R_3.png","xmouse":[795,795,795,795,795,795,795,795,795,795,795,795,795,795,795,795,795,795,795,795,795,790,783,774,736,725,716,707,682,659,630,599,567,546,524],"ymouse":[521,521,521,521,521,521,521,521,521,521,521,521,521,521,521,521,521,521,521,521,521,518,514,510,485,474,461,443,381,327,264,206,157,125,95],"timestamp_mouse":[10,36,49,69,90,110,129,150,170,190,209,229,251,269,291,309,329,350,370,391,410,430,449,470,491,509,529,549,571,590,611,629,649,670,691],"xSR":741.5,"ySR":490.1,"xT1":424.9,"yT1":0,"xT2":1058.1,"yT2":0,"toosoon":0,"cond_shown":"randomdotsizeEA","ratio_trial":250,"smaller_num":"3","larger_num":"12","correct_side":1,"subjID":"SharonMelissaCorpasTORRES9","gender":"1","age":"11","school":"6"},{"start_time":1551790952269,"click_time":1551790953791,"finger_time":1551790952730,"fix_duration":1037.7204193294328,"trial":21,"RT":461,"MT":1061,"sideResp":2,"stimulus":"img/250/randomdotsizeEA/R/9_Ratio_250_L_3_R_12.png","xmouse":[799,799,799,799,799,799,799,799,799,799,799,799,799,799,799,799,799,799,795,785,777,768,760,749,729,720,712,705,699,699,699,699,699,699,699,699,699,702,708,745,775,830,887,969,977,976,958,885,754,754,754,754,754,754,754,754,754,754,754,580,678,799,933,1084,1328,1386,1408,1414,1414,1414,1412,1400,1373,1324,1203,1162,1144],"ymouse":[562,562,562,562,562,562,562,562,562,562,562,562,562,562,562,562,562,562,555,536,521,507,492,474,435,414,396,379,364,362,360,357,356,355,355,355,355,355,357,362,360,336,296,210,170,142,117,73,17,17,17,17,17,17,17,17,17,17,17,47,83,116,138,160,184,184,184,184,182,179,173,163,148,126,86,75,69],"timestamp_mouse":[11,21,42,61,81,102,122,141,161,180,202,221,241,261,281,301,322,341,361,382,401,422,441,461,481,501,521,540,562,580,601,621,641,662,681,701,722,741,761,781,800,822,841,862,881,901,921,942,961,980,1000,1020,1041,1062,1081,1101,1121,1141,1160,1182,1202,1221,1240,1260,1281,1301,1321,1341,1361,1381,1401,1421,1441,1461,1481,1500,1522],"xSR":741.5,"ySR":490.1,"xT1":424.9,"yT1":0,"xT2":1058.1,"yT2":0,"toosoon":0,"cond_shown":"randomdotsizeEA","ratio_trial":250,"smaller_num":"3","larger_num":"12","correct_side":2,"subjID":"SharonMelissaCorpasTORRES9","gender":"1","age":"11","school":"6"},{"start_time":1551790955322,"click_time":1551790956630,"finger_time":1551790956011,"fix_duration":250,"trial":22,"RT":689,"MT":619,"sideResp":2,"stimulus":"img/900/randomdotsizeEA/R/14_Ratio_900_L_18_R_20.png","xmouse":[792,792,792,792,792,792,792,792,792,792,792,792,792,792,792,792,792,792,792,792,792,792,792,792,792,792,792,792,792,792,792,791,788,784,776,733,716,699,689,684,669,661,651,642,630,603,590,577,562,552,547,546,547,555,567,612,650,701,767,838,970,1022,1058,1085,1088,1093],"ymouse":[517,517,517,517,517,517,517,517,517,517,517,517,517,517,517,517,517,517,517,517,517,517,517,517,517,517,517,517,517,517,516,512,508,500,489,458,445,433,426,420,404,396,386,375,358,319,302,282,262,248,240,228,223,213,204,183,172,159,149,139,122,114,109,103,102,98],"timestamp_mouse":[8,28,55,68,89,108,128,147,169,188,209,227,248,268,289,308,328,348,369,388,408,428,448,468,488,509,528,548,568,589,608,628,647,668,689,708,727,747,768,787,809,828,848,868,888,909,927,949,968,988,1008,1027,1048,1068,1087,1108,1128,1148,1169,1188,1208,1228,1248,1268,1289,1308],"xSR":741.5,"ySR":490.1,"xT1":424.9,"yT1":0,"xT2":1058.1,"yT2":0,"toosoon":0,"cond_shown":"randomdotsizeEA","ratio_trial":900,"smaller_num":"18","larger_num":"20","correct_side":2,"subjID":"SharonMelissaCorpasTORRES9","gender":"1","age":"11","school":"6"},{"start_time":1551790958472,"click_time":1551790960270,"finger_time":1551790959189,"fix_duration":419.0634912945807,"trial":23,"RT":717,"MT":1081,"sideResp":1,"stimulus":"img/900/randomdotsizeEA/L/8_Ratio_900_L_20_R_18.png","xmouse":[803,803,803,803,803,803,803,803,803,803,803,803,803,803,803,803,803,803,803,803,803,803,803,803,803,803,803,803,803,803,803,802,801,794,789,782,767,744,732,721,716,715,715,715,715,715,715,715,715,717,718,718,720,720,720,720,718,713,709,704,703,702,702,702,702,702,702,702,702,702,702,702,702,703,704,704,704,703,699,696,694,691,686,683,668,658,617,584,534,501],"ymouse":[514,514,514,514,514,514,514,514,514,514,514,514,514,514,514,514,514,514,514,514,514,514,514,514,514,514,514,514,514,514,514,514,514,503,496,486,451,367,328,303,291,287,287,286,284,283,283,283,280,275,270,265,252,244,235,227,222,209,202,195,192,191,191,187,187,187,187,186,186,186,186,186,185,183,181,179,176,166,159,154,150,146,137,132,118,113,90,74,40,4],"timestamp_mouse":[18,43,59,78,99,118,137,159,179,199,219,238,258,278,297,318,338,358,378,398,418,438,458,477,498,519,538,558,579,597,617,638,657,678,698,717,737,759,778,798,817,838,859,878,899,917,938,958,978,997,1018,1038,1058,1078,1097,1118,1138,1159,1177,1197,1218,1239,1258,1279,1297,1319,1338,1358,1378,1398,1418,1437,1459,1478,1498,1518,1538,1558,1577,1597,1618,1638,1658,1677,1698,1717,1737,1758,1777,1798],"xSR":741.5,"ySR":490.1,"xT1":424.9,"yT1":0,"xT2":1058.1,"yT2":0,"toosoon":0,"cond_shown":"randomdotsizeEA","ratio_trial":900,"smaller_num":"18","larger_num":"20","correct_side":1,"subjID":"SharonMelissaCorpasTORRES9","gender":"1","age":"11","school":"6"},{"start_time":1551790962289,"click_time":1551790963571,"finger_time":1551790963051,"fix_duration":1178.4095089186274,"trial":24,"RT":762,"MT":520,"sideResp":2,"stimulus":"img/750/equaldotsize/R/11_Ratio_750_L_12_R_16.png","xmouse":[803,803,803,803,803,803,803,803,803,803,803,803,803,803,803,803,803,803,803,803,803,803,803,803,803,803,803,803,803,803,803,803,803,803,803,805,811,831,881,905,930,948,961,962,964,964,965,967,969,971,972,976,983,984,991,997,1004,1022,1029,1037,1046,1053,1064,1071,1076],"ymouse":[513,513,513,513,513,513,513,513,513,513,513,513,513,513,513,513,513,513,513,513,513,513,513,513,513,513,513,513,513,513,513,513,513,513,513,510,506,492,456,440,420,405,386,380,374,373,369,365,356,351,345,338,317,308,288,265,240,185,169,154,138,129,111,102,95],"timestamp_mouse":[1,21,43,61,82,101,121,141,160,181,201,221,241,261,281,302,321,342,360,382,400,421,441,460,481,500,522,540,560,582,600,622,641,660,681,701,721,741,762,780,801,820,842,860,881,901,920,942,961,981,1001,1020,1042,1060,1081,1101,1121,1141,1160,1181,1200,1221,1242,1260,1282],"xSR":741.5,"ySR":490.1,"xT1":424.9,"yT1":0,"xT2":1058.1,"yT2":0,"toosoon":0,"cond_shown":"equaldotsize","ratio_trial":750,"smaller_num":"12","larger_num":"16","correct_side":2,"subjID":"SharonMelissaCorpasTORRES9","gender":"1","age":"11","school":"6"},{"start_time":1551790965498,"click_time":1551790966831,"finger_time":1551790966271,"fix_duration":685.630914481576,"trial":25,"RT":773,"MT":560,"sideResp":2,"stimulus":"img/900/equaldotsize/L/4_Ratio_900_L_20_R_18.png","xmouse":[756,756,756,756,756,756,756,756,756,756,756,756,756,756,756,756,756,756,756,756,756,756,756,756,756,756,756,756,756,757,757,761,765,769,779,781,793,814,829,846,877,921,1004,1018,1027,1032,1040,1046,1049,1051,1054,1058,1061,1061,1062,1062,1063,1064,1065,1067,1069,1073,1078,1086,1090,1092,1095],"ymouse":[538,538,538,538,538,538,538,538,538,538,538,538,538,538,538,538,538,538,538,538,538,538,538,538,538,538,538,538,538,538,537,534,529,526,520,518,510,498,487,472,450,416,351,326,299,276,235,223,214,205,197,177,164,153,142,136,131,130,127,123,117,112,110,106,103,101,96],"timestamp_mouse":[13,38,52,72,92,113,131,153,173,192,213,231,252,272,291,312,331,352,373,391,412,431,451,473,491,513,531,551,573,592,612,632,652,672,692,712,731,752,773,792,813,832,851,872,893,913,932,951,972,993,1011,1033,1052,1072,1092,1112,1132,1152,1171,1191,1212,1233,1252,1273,1291,1312,1333],"xSR":741.5,"ySR":490.1,"xT1":424.9,"yT1":0,"xT2":1058.1,"yT2":0,"toosoon":0,"cond_shown":"equaldotsize","ratio_trial":900,"smaller_num":"18","larger_num":"20","correct_side":1,"subjID":"SharonMelissaCorpasTORRES9","gender":"1","age":"11","school":"6"},{"start_time":1551790968242,"click_time":1551790969049,"finger_time":1551790968710,"fix_duration":250,"trial":26,"RT":468,"MT":339,"sideResp":1,"stimulus":"img/900/equaldotanddens/L/1_Ratio_900_L_10_R_9.png","xmouse":[800,800,800,800,800,800,800,800,800,800,800,800,800,800,799,799,799,798,798,796,794,792,791,788,786,780,778,777,777,777,777,769,754,732,704,639,605,576,551,528,521],"ymouse":[518,518,518,519,519,519,519,519,519,519,519,519,519,519,520,520,520,520,520,511,506,499,493,486,480,464,456,456,456,456,452,431,401,364,319,221,174,135,99,69,62],"timestamp_mouse":[10,38,49,68,89,108,129,148,168,188,207,228,249,269,288,308,328,347,369,388,407,428,449,468,488,508,528,549,567,588,608,627,648,668,689,708,728,748,767,788,807],"xSR":741.5,"ySR":490.1,"xT1":424.9,"yT1":0,"xT2":1058.1,"yT2":0,"toosoon":0,"cond_shown":"equaldotanddens","ratio_trial":900,"smaller_num":"9","larger_num":"10","correct_side":1,"subjID":"SharonMelissaCorpasTORRES9","gender":"1","age":"11","school":"6"},{"start_time":1551790972417,"click_time":1551790973870,"finger_time":1551790973150,"fix_duration":1025.375328795988,"trial":27,"RT":733,"MT":720,"sideResp":2,"stimulus":"img/250/randomdotsizeEA/R/9_Ratio_250_L_3_R_12.png","xmouse":[794,794,794,794,794,794,794,794,794,794,794,794,794,794,794,794,794,794,794,794,794,794,794,794,794,794,794,790,788,787,786,786,786,786,786,786,782,782,781,781,781,781,781,781,781,781,781,781,781,781,781,781,793,819,839,867,878,889,903,921,953,992,1001,1007,1011,1016,1016,1018,1022,1035,1043,1056,1060],"ymouse":[551,551,551,551,551,551,551,551,551,551,551,551,551,551,551,551,551,551,551,551,551,551,551,551,551,551,551,548,545,542,536,530,526,521,515,508,482,473,470,468,468,468,468,468,468,468,468,468,468,468,468,468,464,456,450,435,427,416,399,374,321,262,244,228,210,171,151,130,102,74,55,34,26],"timestamp_mouse":[12,32,53,74,93,112,134,154,172,193,214,234,253,273,293,314,333,352,373,392,412,433,452,472,494,513,534,554,573,592,613,634,653,673,693,712,733,753,773,792,814,833,853,874,892,914,933,954,973,994,1012,1032,1052,1073,1093,1113,1133,1153,1173,1193,1213,1234,1254,1273,1293,1313,1332,1352,1373,1393,1413,1433,1452],"xSR":741.5,"ySR":490.1,"xT1":424.9,"yT1":0,"xT2":1058.1,"yT2":0,"toosoon":0,"cond_shown":"randomdotsizeEA","ratio_trial":250,"smaller_num":"3","larger_num":"12","correct_side":2,"subjID":"SharonMelissaCorpasTORRES9","gender":"1","age":"11","school":"6"},{"start_time":1551790976859,"click_time":1551790978590,"finger_time":1551790978050,"fix_duration":608.3809152187063,"trial":28,"RT":1191,"MT":540,"sideResp":2,"stimulus":"img/500/randomdotsizeEA/R/6_Ratio_500_L_9_R_18.png","xmouse":[782,782,782,782,782,782,782,782,782,782,782,782,782,782,782,782,782,782,782,782,782,782,782,782,782,782,782,782,782,782,782,782,782,782,782,782,782,782,782,782,782,782,782,782,782,782,782,782,782,782,782,782,782,782,782,782,782,784,818,844,879,921,961,1010,1026,1033,1038,1043,1057,1063,1070,1074,1076,1076,1076,1076,1076,1077,1080,1081,1081,1081,1081,1082,1083,1083,1084],"ymouse":[550,550,550,550,550,550,550,550,550,550,550,550,550,550,550,550,550,550,550,550,550,550,550,550,550,550,550,550,550,550,550,550,550,550,550,550,550,550,550,550,550,550,550,550,550,550,550,550,550,550,550,550,550,550,550,550,550,550,529,514,493,468,443,406,389,380,372,360,316,293,270,248,225,175,154,138,128,121,110,108,107,107,107,106,104,102,99],"timestamp_mouse":[10,47,50,72,91,110,130,152,171,190,211,231,252,270,292,311,332,352,371,391,411,432,452,470,492,510,532,552,571,592,612,631,652,671,691,710,732,752,770,790,812,832,851,872,890,911,931,952,972,992,1011,1032,1052,1071,1092,1110,1131,1151,1171,1191,1210,1231,1250,1272,1291,1311,1331,1352,1371,1390,1410,1431,1451,1471,1491,1511,1531,1550,1571,1591,1611,1631,1652,1671,1690,1710,1731],"xSR":741.5,"ySR":490.1,"xT1":424.9,"yT1":0,"xT2":1058.1,"yT2":0,"toosoon":0,"cond_shown":"randomdotsizeEA","ratio_trial":500,"smaller_num":"9","larger_num":"18","correct_side":2,"subjID":"SharonMelissaCorpasTORRES9","gender":"1","age":"11","school":"6"},{"start_time":1551790981250,"click_time":1551790982610,"finger_time":1551790982230,"fix_duration":1419.4811474068392,"trial":29,"RT":980,"MT":380,"sideResp":2,"stimulus":"img/250/equaldotanddens/R/11_Ratio_250_L_3_R_12.png","xmouse":[797,797,797,797,797,797,797,797,797,797,797,797,797,797,797,797,797,797,797,797,797,797,797,797,797,797,797,797,797,797,797,797,797,797,797,797,797,797,797,797,797,797,797,797,797,797,797,802,820,856,1081,1136,1167,1179,1182,1187,1189,1190,1192,1192,1192,1190,1188,1187,1181,1176,1170,1162,1152],"ymouse":[515,515,515,515,515,515,515,515,515,515,515,515,515,515,515,515,515,515,515,515,515,515,515,515,515,515,515,515,515,515,515,515,515,515,515,515,515,515,515,515,515,515,515,515,515,515,515,511,495,467,285,234,203,182,167,132,114,98,84,62,57,52,48,46,42,41,41,41,41],"timestamp_mouse":[8,21,39,60,80,100,121,141,160,180,200,221,241,260,280,300,320,341,361,380,400,420,440,460,479,500,520,540,561,579,600,619,641,660,680,700,721,739,759,781,801,820,841,860,881,901,921,940,959,980,1001,1019,1041,1060,1080,1100,1121,1140,1160,1180,1200,1221,1240,1260,1280,1299,1320,1340,1360],"xSR":741.5,"ySR":490.1,"xT1":424.9,"yT1":0,"xT2":1058.1,"yT2":0,"toosoon":0,"cond_shown":"equaldotanddens","ratio_trial":250,"smaller_num":"3","larger_num":"12","correct_side":2,"subjID":"SharonMelissaCorpasTORRES9","gender":"1","age":"11","school":"6"},{"start_time":1551790984690,"click_time":1551790985931,"finger_time":1551790985350,"fix_duration":859.9428585740396,"trial":30,"RT":660,"MT":581,"sideResp":2,"stimulus":"img/750/equaldotanddens/R/5_Ratio_750_L_15_R_20.png","xmouse":[770,770,770,770,770,770,770,770,770,770,770,770,770,770,770,770,770,770,770,770,770,770,770,770,770,770,770,770,770,770,770,771,797,824,861,895,926,997,1017,1037,1052,1065,1098,1123,1159,1186,1209,1215,1233,1236,1239,1239,1239,1239,1239,1239,1239,1239,1239,1239,1170,1166,1157],"ymouse":[521,521,521,521,521,521,521,521,521,521,521,521,521,521,521,521,521,521,521,521,521,521,521,521,521,521,521,521,521,521,521,521,499,478,452,423,388,293,267,239,221,204,159,129,99,75,50,43,15,7,0,0,0,0,0,0,0,0,0,0,6,14,30],"timestamp_mouse":[9,20,47,60,80,100,120,140,159,181,199,221,241,260,280,301,319,341,359,380,400,421,439,459,480,501,521,539,561,580,599,620,640,660,681,700,719,740,759,779,801,819,840,859,880,900,920,939,959,980,1000,1020,1040,1061,1080,1101,1121,1141,1161,1179,1201,1221,1241],"xSR":741.5,"ySR":490.1,"xT1":424.9,"yT1":0,"xT2":1058.1,"yT2":0,"toosoon":0,"cond_shown":"equaldotanddens","ratio_trial":750,"smaller_num":"15","larger_num":"20","correct_side":2,"subjID":"SharonMelissaCorpasTORRES9","gender":"1","age":"11","school":"6"},{"start_time":1551790990665,"click_time":1551790991849,"finger_time":1551790991390,"fix_duration":813.2899251989905,"trial":31,"RT":725,"MT":459,"sideResp":1,"stimulus":"img/500/equaldotsize/L/10_Ratio_500_L_4_R_2.png","xmouse":[795,795,795,795,795,795,795,795,795,795,795,795,795,795,795,795,795,795,795,795,795,795,795,795,795,795,795,795,795,795,795,795,795,795,795,795,793,789,769,766,764,757,751,743,728,725,725,725,725,725,725,725,725,725,725,725,725,725,533,519],"ymouse":[491,491,491,491,491,491,491,491,491,491,491,491,491,491,491,491,491,491,491,491,491,491,491,491,491,491,491,491,491,491,491,491,491,491,491,491,489,480,427,350,260,191,134,90,19,8,8,8,8,8,8,8,8,8,8,8,8,8,12,19],"timestamp_mouse":[9,34,44,66,84,105,125,146,166,186,205,224,246,264,286,305,325,344,366,385,404,424,446,465,485,505,524,546,564,585,605,625,644,665,686,705,725,746,766,785,805,825,844,866,885,905,924,944,964,985,1005,1026,1044,1066,1085,1105,1125,1145,1165,1184],"xSR":741.5,"ySR":490.1,"xT1":424.9,"yT1":0,"xT2":1058.1,"yT2":0,"toosoon":0,"cond_shown":"equaldotsize","ratio_trial":500,"smaller_num":"2","larger_num":"4","correct_side":1,"subjID":"SharonMelissaCorpasTORRES9","gender":"1","age":"11","school":"6"},{"start_time":1551790994758,"click_time":1551790995790,"finger_time":1551790995529,"fix_duration":1126.574250141704,"trial":32,"RT":771,"MT":261,"sideResp":2,"stimulus":"img/500/equaldotanddens/R/1_Ratio_500_L_9_R_18.png","xmouse":[780,780,780,780,780,780,780,780,780,780,780,780,780,780,780,780,780,780,780,780,780,780,780,780,780,780,780,780,780,780,780,780,780,780,780,780,780,790,816,839,868,907,931,955,1001,1025,1045,1057,1069,1073,1077,1080],"ymouse":[494,494,494,494,494,494,494,494,494,494,494,494,494,494,494,494,494,494,494,494,494,494,494,494,494,494,494,494,494,494,494,494,494,494,494,494,494,491,480,474,460,440,420,391,315,272,233,202,153,128,101,79],"timestamp_mouse":[12,44,52,72,92,112,131,153,172,193,213,233,252,272,292,312,332,352,373,392,412,433,452,473,492,512,531,552,572,593,611,631,652,672,693,712,732,752,771,791,811,832,853,871,891,911,932,952,972,993,1011,1031],"xSR":741.5,"ySR":490.1,"xT1":424.9,"yT1":0,"xT2":1058.1,"yT2":0,"toosoon":0,"cond_shown":"equaldotanddens","ratio_trial":500,"smaller_num":"9","larger_num":"18","correct_side":2,"subjID":"SharonMelissaCorpasTORRES9","gender":"1","age":"11","school":"6"},{"start_time":1551790998173,"click_time":1551790999770,"finger_time":1551790999430,"fix_duration":1022.0142413610295,"trial":33,"RT":1257,"MT":340,"sideResp":1,"stimulus":"img/900/equaldotsize/L/2_Ratio_900_L_20_R_18.png","xmouse":[754,754,754,754,754,754,754,754,754,754,754,754,754,754,754,754,754,754,754,754,754,754,754,754,754,754,754,754,754,754,754,754,754,754,754,754,754,754,754,754,754,754,754,754,754,754,754,754,754,754,754,754,754,754,754,754,754,754,754,753,752,743,735,725,722,719,714,695,680,659,631,571,538,508,501,498,496,494,490,488],"ymouse":[506,506,506,506,506,506,506,506,506,506,506,506,506,506,506,506,506,506,506,506,506,506,506,506,506,506,506,506,506,506,506,506,506,506,506,506,506,506,506,506,506,506,506,506,506,506,506,506,506,506,506,506,506,506,506,506,506,506,506,507,507,493,479,453,446,441,436,428,424,416,400,339,290,216,187,162,143,127,102,92],"timestamp_mouse":[17,41,57,78,97,116,138,158,176,197,218,237,257,277,296,317,337,356,377,397,416,437,456,478,497,517,537,557,577,597,617,637,656,677,698,718,736,756,776,797,816,838,857,877,897,917,937,958,978,998,1018,1037,1057,1078,1098,1117,1136,1158,1177,1197,1217,1237,1257,1278,1296,1317,1336,1358,1376,1397,1416,1437,1457,1477,1496,1517,1537,1557,1577,1597],"xSR":741.5,"ySR":490.1,"xT1":424.9,"yT1":0,"xT2":1058.1,"yT2":0,"toosoon":0,"cond_shown":"equaldotsize","ratio_trial":900,"smaller_num":"18","larger_num":"20","correct_side":1,"subjID":"SharonMelissaCorpasTORRES9","gender":"1","age":"11","school":"6"},{"start_time":1551791003598,"click_time":1551791004831,"finger_time":1551791004430,"fix_duration":1166.1235416679401,"trial":34,"RT":832,"MT":401,"sideResp":2,"stimulus":"img/500/randomdotsizeEA/R/12_Ratio_500_L_1_R_2.png","xmouse":[811,811,811,811,811,811,811,811,811,811,811,811,811,811,811,811,811,811,811,811,811,811,811,811,811,811,811,811,811,811,813,816,817,817,817,817,817,818,819,822,828,860,883,909,937,959,1006,1026,1046,1066,1082,1117,1129,1142,1149,1152,1154,1155,1155,1155,1153,1142],"ymouse":[572,572,572,572,572,572,572,572,572,572,572,572,572,572,572,572,572,572,572,572,572,572,572,572,572,572,572,572,572,567,562,555,550,548,547,547,547,545,543,537,527,477,446,410,371,340,274,246,221,201,187,161,151,142,134,129,123,120,116,111,102,83],"timestamp_mouse":[12,36,53,72,92,112,133,154,172,193,213,234,253,272,294,313,333,353,372,394,413,432,453,472,493,513,533,552,572,592,612,632,654,672,693,713,733,753,772,792,812,832,852,872,892,912,933,952,972,992,1012,1033,1052,1073,1092,1113,1133,1153,1173,1192,1213,1233],"xSR":741.5,"ySR":490.1,"xT1":424.9,"yT1":0,"xT2":1058.1,"yT2":0,"toosoon":0,"cond_shown":"randomdotsizeEA","ratio_trial":500,"smaller_num":"1","larger_num":"2","correct_side":2,"subjID":"SharonMelissaCorpasTORRES9","gender":"1","age":"11","school":"6"},{"start_time":1551791007097,"click_time":1551791008332,"finger_time":1551791007891,"fix_duration":1104.7236742831703,"trial":35,"RT":794,"MT":441,"sideResp":1,"stimulus":"img/250/randomdotsizeEA/L/3_Ratio_250_L_8_R_2.png","xmouse":[792,792,792,792,792,792,792,792,792,792,792,792,792,792,792,792,792,792,792,792,792,792,792,792,792,792,792,792,792,792,792,792,792,792,792,792,792,782,756,697,617,430,352,294,263,246,238,238,239,241,244,250,279,298,314,328,352,366,381,397,410,425],"ymouse":[554,554,554,554,554,554,554,554,554,554,554,554,554,554,554,554,554,554,554,554,554,554,554,554,554,554,554,554,554,554,554,554,554,554,554,554,552,527,498,461,414,285,221,161,119,89,59,56,53,51,49,47,38,32,29,27,24,22,22,22,22,22],"timestamp_mouse":[13,44,53,74,93,113,134,154,174,194,214,233,253,273,294,313,334,353,375,395,414,433,453,474,495,515,533,555,573,593,613,633,655,673,694,713,733,754,773,794,813,833,853,873,894,914,934,953,975,993,1013,1033,1053,1073,1094,1114,1134,1153,1174,1193,1213,1235],"xSR":741.5,"ySR":490.1,"xT1":424.9,"yT1":0,"xT2":1058.1,"yT2":0,"toosoon":0,"cond_shown":"randomdotsizeEA","ratio_trial":250,"smaller_num":"2","larger_num":"8","correct_side":1,"subjID":"SharonMelissaCorpasTORRES9","gender":"1","age":"11","school":"6"},{"start_time":1551791010781,"click_time":1551791011831,"finger_time":1551791011452,"fix_duration":1229.3119427737615,"trial":36,"RT":671,"MT":379,"sideResp":2,"stimulus":"img/750/equaldotsize/R/3_Ratio_750_L_15_R_20.png","xmouse":[776,777,777,777,777,778,778,778,778,779,779,779,780,780,780,780,780,780,780,781,781,781,781,782,782,782,782,784,785,787,789,794,812,853,883,917,955,994,1070,1090,1102,1107,1109,1109,1109,1109,1109,1106,1101,1101,1100,1100,1099],"ymouse":[540,539,538,538,538,537,536,536,536,536,536,536,535,535,535,535,535,534,534,533,532,532,532,531,531,531,530,529,527,525,522,517,507,478,452,412,352,288,179,151,134,127,124,124,124,121,117,113,107,106,104,102,98],"timestamp_mouse":[11,29,50,70,89,111,129,150,169,191,210,229,250,270,289,309,330,349,370,389,411,429,449,469,489,510,529,550,569,590,609,630,649,671,690,709,729,749,769,789,810,829,850,869,891,911,930,950,970,989,1010,1031,1049],"xSR":741.5,"ySR":490.1,"xT1":424.9,"yT1":0,"xT2":1058.1,"yT2":0,"toosoon":0,"cond_shown":"equaldotsize","ratio_trial":750,"smaller_num":"15","larger_num":"20","correct_side":2,"subjID":"SharonMelissaCorpasTORRES9","gender":"1","age":"11","school":"6"},{"start_time":1551791014197,"click_time":1551791015371,"finger_time":1551791015112,"fix_duration":1144.9909830795418,"trial":37,"RT":915,"MT":259,"sideResp":2,"stimulus":"img/500/equaldotsize/R/1_Ratio_500_L_9_R_18.png","xmouse":[802,802,802,802,802,802,802,802,802,802,802,802,802,802,802,802,802,802,802,802,802,802,802,802,802,802,802,802,802,802,802,802,802,802,802,802,802,802,802,802,802,802,802,807,814,848,945,1003,1049,1113,1140,1154,1162,1162,1162,1162,1157,1155,1150],"ymouse":[560,560,560,560,560,560,560,560,560,560,560,560,560,560,560,560,560,560,560,560,560,560,560,560,560,560,560,560,560,560,560,560,560,560,560,560,560,560,560,560,560,560,560,555,548,518,435,379,325,251,213,182,140,122,120,116,105,104,99],"timestamp_mouse":[14,36,53,73,94,113,134,154,173,193,215,233,254,273,293,313,334,354,373,394,413,433,454,474,495,514,534,554,573,594,614,633,653,673,694,714,733,753,773,795,813,833,855,873,894,915,934,953,973,993,1013,1033,1053,1073,1093,1113,1133,1154,1174],"xSR":741.5,"ySR":490.1,"xT1":424.9,"yT1":0,"xT2":1058.1,"yT2":0,"toosoon":0,"cond_shown":"equaldotsize","ratio_trial":500,"smaller_num":"9","larger_num":"18","correct_side":2,"subjID":"SharonMelissaCorpasTORRES9","gender":"1","age":"11","school":"6"},{"start_time":1551791017964,"click_time":1551791018971,"finger_time":1551791018531,"fix_duration":1132.9986741585656,"trial":38,"RT":567,"MT":440,"sideResp":2,"stimulus":"img/500/equaldotsize/R/12_Ratio_500_L_1_R_2.png","xmouse":[799,799,799,799,799,799,799,799,799,799,799,799,799,799,799,799,799,799,799,799,799,799,799,799,799,799,799,799,801,806,812,823,854,878,914,926,935,941,949,953,957,959,962,970,978,989,1003,1014,1036,1050,1064],"ymouse":[498,498,498,498,498,498,498,498,498,498,498,498,498,498,498,498,498,498,498,498,498,498,498,498,498,498,498,497,490,478,464,444,394,356,284,259,240,224,204,195,184,177,168,146,134,119,104,94,72,61,52],"timestamp_mouse":[8,41,46,67,87,107,126,147,167,187,208,228,247,267,286,306,326,346,366,387,406,427,446,467,486,507,526,547,567,586,606,626,647,667,687,706,726,746,766,787,807,826,846,867,886,906,926,946,967,987,1007],"xSR":741.5,"ySR":490.1,"xT1":424.9,"yT1":0,"xT2":1058.1,"yT2":0,"toosoon":0,"cond_shown":"equaldotsize","ratio_trial":500,"smaller_num":"1","larger_num":"2","correct_side":2,"subjID":"SharonMelissaCorpasTORRES9","gender":"1","age":"11","school":"6"},{"start_time":1551791020322,"click_time":1551791022750,"finger_time":1551791022251,"fix_duration":250,"trial":39,"RT":1929,"MT":499,"sideResp":2,"stimulus":"img/900/equaldotanddens/R/6_Ratio_900_L_9_R_10.png","xmouse":[748,748,748,748,748,748,749,749,749,749,749,749,750,750,750,750,750,750,750,750,750,750,751,751,752,752,752,752,753,753,753,753,753,753,754,754,754,754,754,754,754,754,754,754,754,754,754,754,754,754,755,755,755,755,755,755,755,755,755,755,755,755,755,755,755,755,755,755,755,755,756,757,757,757,758,758,758,759,759,759,759,759,759,759,760,761,762,763,763,763,763,763,763,763,764,770,777,788,802,816,824,839,844,848,851,859,863,868,878,886,905,917,931,945,959,986,1017,1030,1041,1050,1060,1063],"ymouse":[538,538,538,538,538,538,538,538,538,538,537,537,536,536,536,535,535,535,535,535,535,535,535,535,534,534,533,532,532,531,530,530,530,529,528,528,528,528,528,528,528,528,528,527,527,527,527,527,527,527,526,526,526,526,526,526,526,526,526,526,526,526,526,526,526,526,526,526,526,526,525,523,522,521,520,520,520,518,518,518,517,517,515,512,509,507,506,505,505,505,505,505,505,505,504,493,486,479,470,463,457,446,439,431,419,393,383,368,348,331,298,282,265,247,231,209,180,166,151,127,103,94],"timestamp_mouse":[8,39,49,69,89,109,129,149,170,189,210,229,248,269,288,309,330,348,369,388,409,428,449,468,489,508,530,548,569,588,610,629,648,669,688,709,728,748,769,790,808,828,850,869,890,909,928,948,969,990,1009,1030,1049,1069,1088,1109,1128,1148,1169,1188,1208,1228,1250,1270,1288,1309,1328,1349,1369,1389,1409,1428,1449,1469,1488,1509,1530,1548,1569,1588,1610,1628,1650,1669,1689,1708,1728,1748,1769,1789,1808,1830,1850,1869,1888,1909,1929,1948,1968,1988,2008,2028,2048,2068,2088,2110,2128,2148,2170,2188,2210,2228,2249,2269,2288,2308,2328,2349,2369,2390,2409,2428],"xSR":741.5,"ySR":490.1,"xT1":424.9,"yT1":0,"xT2":1058.1,"yT2":0,"toosoon":0,"cond_shown":"equaldotanddens","ratio_trial":900,"smaller_num":"9","larger_num":"10","correct_side":2,"subjID":"SharonMelissaCorpasTORRES9","gender":"1","age":"11","school":"6"},{"start_time":1551791025382,"click_time":1551791026531,"finger_time":1551791026170,"fix_duration":250,"trial":40,"RT":788,"MT":361,"sideResp":1,"stimulus":"img/250/randomdotsizeEA/L/1_Ratio_250_L_8_R_2.png","xmouse":[782,782,782,782,782,782,782,782,782,782,782,782,782,782,782,782,782,782,782,782,782,782,782,782,782,782,782,782,782,782,782,782,782,782,782,782,781,771,754,737,723,711,687,674,660,652,645,614,581,569,551,547,536,527,514,496,475,460],"ymouse":[536,536,536,536,536,536,536,536,536,536,536,536,536,536,536,536,536,536,536,536,536,536,536,536,536,536,536,536,536,536,536,536,536,536,536,536,534,528,522,511,498,489,473,468,462,449,427,279,203,182,160,155,144,139,132,120,105,93],"timestamp_mouse":[9,34,49,69,89,109,129,149,168,190,209,229,249,270,288,309,330,349,368,389,409,430,448,469,488,508,528,549,569,590,608,630,649,670,688,708,729,749,769,788,809,830,849,868,888,909,928,950,968,989,1008,1028,1050,1068,1089,1108,1128,1149],"xSR":741.5,"ySR":490.1,"xT1":424.9,"yT1":0,"xT2":1058.1,"yT2":0,"toosoon":0,"cond_shown":"randomdotsizeEA","ratio_trial":250,"smaller_num":"2","larger_num":"8","correct_side":1,"subjID":"SharonMelissaCorpasTORRES9","gender":"1","age":"11","school":"6"},{"start_time":1551791028811,"click_time":1551791029832,"finger_time":1551791029731,"fix_duration":1479.7709234481242,"trial":41,"RT":920,"MT":101,"sideResp":2,"stimulus":"img/900/equaldotanddens/R/12_Ratio_900_L_18_R_20.png","xmouse":[785,785,785,785,785,785,785,786,786,786,786,786,786,786,786,786,787,787,787,787,787,787,787,787,787,787,787,787,787,787,787,787,787,787,787,787,787,787,787,787,787,787,787,787,788,792,843,905,978,1031,1074,1136],"ymouse":[537,537,537,537,537,536,535,535,535,535,535,534,533,532,532,531,531,531,531,531,531,531,531,531,531,531,531,531,531,531,531,531,531,531,531,531,531,531,531,531,531,531,531,531,530,523,465,406,345,290,212,38],"timestamp_mouse":[1,19,40,59,79,100,119,140,161,179,199,220,240,260,279,299,320,339,360,379,400,419,440,460,481,500,519,539,559,581,600,619,641,659,681,701,720,739,761,779,799,821,839,861,880,899,920,939,960,979,999,1021],"xSR":741.5,"ySR":490.1,"xT1":424.9,"yT1":0,"xT2":1058.1,"yT2":0,"toosoon":0,"cond_shown":"equaldotanddens","ratio_trial":900,"smaller_num":"18","larger_num":"20","correct_side":2,"subjID":"SharonMelissaCorpasTORRES9","gender":"1","age":"11","school":"6"},{"start_time":1551791032492,"click_time":1551791033411,"finger_time":1551791033131,"fix_duration":1459.645115449248,"trial":42,"RT":639,"MT":280,"sideResp":2,"stimulus":"img/750/randomdotsizeEA/R/15_Ratio_750_L_9_R_12.png","xmouse":[789,789,789,789,789,789,789,789,789,789,789,789,789,789,789,789,789,789,789,789,789,789,789,789,789,789,789,789,789,792,801,814,834,918,959,1005,1039,1083,1116,1130,1138,1140,1141,1142,1142,1142,1138],"ymouse":[534,534,534,534,534,534,534,534,534,534,534,534,534,534,534,534,534,534,534,534,534,534,534,534,534,534,534,534,534,530,517,497,470,377,339,298,264,220,177,157,144,140,135,123,115,107,94],"timestamp_mouse":[1,19,38,58,78,99,120,138,159,179,200,218,239,259,278,299,319,338,358,380,399,419,438,460,478,500,519,540,558,578,599,618,639,658,679,700,718,738,758,780,800,818,839,858,879,898,918],"xSR":741.5,"ySR":490.1,"xT1":424.9,"yT1":0,"xT2":1058.1,"yT2":0,"toosoon":0,"cond_shown":"randomdotsizeEA","ratio_trial":750,"smaller_num":"9","larger_num":"12","correct_side":2,"subjID":"SharonMelissaCorpasTORRES9","gender":"1","age":"11","school":"6"},{"start_time":1551791034513,"click_time":1551791035631,"finger_time":1551791035250,"fix_duration":261.974601874941,"trial":43,"RT":737,"MT":381,"sideResp":2,"stimulus":"img/250/equaldotsize/R/12_Ratio_250_L_5_R_20.png","xmouse":[794,794,794,794,794,794,794,794,794,794,794,794,794,794,794,794,794,794,794,794,794,794,794,794,794,794,794,794,794,794,794,794,794,794,803,814,849,868,892,911,936,946,952,956,957,961,971,977,991,1007,1027,1061,1078,1093,1107,1137],"ymouse":[569,569,569,569,569,569,569,569,569,569,569,569,569,569,569,569,569,569,569,569,569,569,569,569,569,569,569,569,569,569,569,566,563,550,524,500,452,436,409,391,363,352,347,342,337,327,303,288,269,249,225,183,164,146,128,92],"timestamp_mouse":[22,37,59,77,97,117,138,158,177,197,219,237,258,278,297,318,338,357,377,397,417,438,457,479,497,517,538,558,577,597,618,638,659,678,698,717,737,758,777,797,819,837,858,877,897,918,937,957,977,998,1018,1037,1057,1078,1097,1118],"xSR":741.5,"ySR":490.1,"xT1":424.9,"yT1":0,"xT2":1058.1,"yT2":0,"toosoon":0,"cond_shown":"equaldotsize","ratio_trial":250,"smaller_num":"5","larger_num":"20","correct_side":2,"subjID":"SharonMelissaCorpasTORRES9","gender":"1","age":"11","school":"6"},{"start_time":1551791037496,"click_time":1551791038751,"finger_time":1551791038091,"fix_duration":944.1072562742661,"trial":44,"RT":595,"MT":660,"sideResp":2,"stimulus":"img/500/equaldotanddens/R/14_Ratio_500_L_5_R_10.png","xmouse":[802,802,802,802,802,802,802,802,802,802,802,802,802,802,802,802,802,802,802,802,802,802,802,802,802,802,802,802,810,821,833,850,857,868,883,897,923,928,929,929,929,929,930,933,940,942,949,953,956,959,961,966,972,978,987,989,999,1005,1009,1015,1024,1048,1062],"ymouse":[498,498,498,498,498,498,498,498,498,498,498,498,498,498,498,498,498,498,498,498,498,498,498,498,498,498,498,498,492,473,457,434,425,416,406,396,379,375,374,374,372,365,357,349,322,315,273,218,200,184,166,143,133,118,108,106,94,90,87,84,79,70,65],"timestamp_mouse":[14,48,54,75,95,115,135,156,176,195,215,235,255,275,294,316,335,354,374,395,414,435,454,474,494,515,534,555,574,595,615,635,654,675,694,714,735,754,775,796,815,835,854,875,894,914,934,954,974,995,1014,1036,1054,1074,1094,1114,1135,1154,1175,1195,1214,1235,1255],"xSR":741.5,"ySR":490.1,"xT1":424.9,"yT1":0,"xT2":1058.1,"yT2":0,"toosoon":0,"cond_shown":"equaldotanddens","ratio_trial":500,"smaller_num":"5","larger_num":"10","correct_side":2,"subjID":"SharonMelissaCorpasTORRES9","gender":"1","age":"11","school":"6"},{"start_time":1551791042337,"click_time":1551791043510,"finger_time":1551791043030,"fix_duration":1426.302283285167,"trial":45,"RT":693,"MT":480,"sideResp":1,"stimulus":"img/250/equaldotanddens/L/5_Ratio_250_L_24_R_6.png","xmouse":[798,798,798,798,798,798,798,798,798,798,798,798,798,798,798,798,798,798,798,798,798,798,798,798,798,798,798,798,798,798,798,797,790,771,724,677,662,655,647,628,617,608,600,592,579,557,545,533,522,511,486,470,456,443,425,424,424,424,427],"ymouse":[519,519,519,519,519,519,519,519,519,519,519,519,519,519,519,519,519,519,519,519,519,519,519,519,519,519,519,519,519,519,519,519,518,515,508,483,469,448,424,379,359,342,329,313,291,252,234,221,210,203,188,178,170,162,148,140,128,111,92],"timestamp_mouse":[13,42,54,75,93,113,135,153,173,193,214,235,253,273,294,314,333,354,373,394,413,433,453,473,493,514,534,555,573,593,613,634,654,673,693,715,734,753,773,795,813,834,853,873,893,921,933,953,973,994,1013,1033,1054,1074,1094,1113,1133,1153,1173],"xSR":741.5,"ySR":490.1,"xT1":424.9,"yT1":0,"xT2":1058.1,"yT2":0,"toosoon":0,"cond_shown":"equaldotanddens","ratio_trial":250,"smaller_num":"6","larger_num":"24","correct_side":1,"subjID":"SharonMelissaCorpasTORRES9","gender":"1","age":"11","school":"6"},{"start_time":1551791045677,"click_time":1551791046591,"finger_time":1551791046410,"fix_duration":1245.8659756853124,"trial":46,"RT":733,"MT":181,"sideResp":2,"stimulus":"img/900/equaldotsize/R/12_Ratio_900_L_18_R_20.png","xmouse":[825,825,825,825,825,825,825,825,825,825,825,825,825,825,825,825,825,825,825,825,825,825,825,825,825,825,825,825,825,825,825,825,825,825,830,838,861,922,1023,1060,1083,1099,1117,1121,1123,1123],"ymouse":[517,517,517,517,517,517,517,517,517,517,517,517,517,517,517,517,517,517,517,517,517,517,517,517,517,517,517,517,517,517,517,517,517,517,504,491,460,396,300,263,236,210,147,122,102,93],"timestamp_mouse":[14,43,55,74,94,115,133,154,174,194,213,233,255,273,294,314,333,353,374,394,415,434,453,475,494,514,535,555,575,594,614,633,654,675,694,714,733,753,774,793,814,834,854,874,893,913],"xSR":741.5,"ySR":490.1,"xT1":424.9,"yT1":0,"xT2":1058.1,"yT2":0,"toosoon":0,"cond_shown":"equaldotsize","ratio_trial":900,"smaller_num":"18","larger_num":"20","correct_side":2,"subjID":"SharonMelissaCorpasTORRES9","gender":"1","age":"11","school":"6"},{"start_time":1551791048255,"click_time":1551791049510,"finger_time":1551791049131,"fix_duration":743.1309249642328,"trial":47,"RT":876,"MT":379,"sideResp":1,"stimulus":"img/250/equaldotsize/L/7_Ratio_250_L_8_R_2.png","xmouse":[747,743,742,742,742,742,742,742,742,742,742,742,742,742,742,742,742,743,748,751,756,764,770,775,784,789,792,794,796,797,797,797,797,797,797,797,797,797,795,789,779,765,748,700,667,638,617,598,580,559,549,540,531,517,513,508,503,501,495,494,492,492,492],"ymouse":[581,581,581,581,581,581,581,581,581,581,581,581,581,581,581,581,579,578,573,569,566,562,560,557,552,551,550,548,548,547,547,547,547,547,547,547,547,547,541,534,523,511,495,433,389,350,313,278,250,222,208,196,184,164,154,142,134,128,112,108,104,100,97],"timestamp_mouse":[19,40,57,76,95,115,136,155,175,197,215,235,257,275,295,315,335,356,376,396,415,435,456,476,495,516,535,556,576,596,616,637,655,675,696,717,735,755,776,796,815,835,855,876,895,915,935,955,975,996,1015,1035,1055,1077,1095,1115,1135,1156,1176,1195,1215,1235,1255],"xSR":741.5,"ySR":490.1,"xT1":424.9,"yT1":0,"xT2":1058.1,"yT2":0,"toosoon":0,"cond_shown":"equaldotsize","ratio_trial":250,"smaller_num":"2","larger_num":"8","correct_side":1,"subjID":"SharonMelissaCorpasTORRES9","gender":"1","age":"11","school":"6"},{"start_time":1551791052575,"click_time":1551791053870,"finger_time":1551791053470,"fix_duration":901.4479547871033,"trial":48,"RT":895,"MT":400,"sideResp":2,"stimulus":"img/500/randomdotsizeEA/R/6_Ratio_500_L_9_R_18.png","xmouse":[812,812,812,812,812,812,812,812,812,812,812,812,812,812,812,812,812,812,812,812,812,812,812,812,812,812,812,812,812,812,812,812,812,812,812,811,809,804,804,804,804,804,808,824,858,938,1029,1180,1200,1213,1221,1223,1218,1208,1200,1195,1189,1185,1185,1179,1175,1173,1164,1160,1158],"ymouse":[544,544,544,544,544,544,544,544,544,544,544,544,544,544,544,544,544,544,544,544,544,544,544,544,544,544,544,544,544,544,544,544,544,544,544,545,546,551,551,551,551,551,551,549,540,510,471,407,396,384,372,361,327,300,281,263,245,221,212,192,163,151,95,80,72],"timestamp_mouse":[17,39,56,76,95,115,136,156,176,195,215,236,255,277,295,315,335,355,376,395,416,435,455,475,497,515,536,557,575,597,615,637,655,676,695,715,735,756,776,796,817,836,855,876,895,916,937,956,975,995,1016,1036,1055,1076,1095,1115,1135,1156,1175,1196,1215,1236,1256,1275,1295],"xSR":741.5,"ySR":490.1,"xT1":424.9,"yT1":0,"xT2":1058.1,"yT2":0,"toosoon":0,"cond_shown":"randomdotsizeEA","ratio_trial":500,"smaller_num":"9","larger_num":"18","correct_side":2,"subjID":"SharonMelissaCorpasTORRES9","gender":"1","age":"11","school":"6"},{"start_time":1551791055187,"click_time":1551791056452,"finger_time":1551791055910,"fix_duration":595.193134748608,"trial":49,"RT":723,"MT":542,"sideResp":2,"stimulus":"img/500/randomdotsizeEA/R/9_Ratio_500_L_2_R_4.png","xmouse":[771,771,771,771,771,771,771,771,771,771,771,771,771,771,771,771,771,771,771,771,771,771,771,771,771,771,771,771,771,771,771,771,771,771,771,790,882,1122,1233,1321,1347,1347,1347,1347,1347,1347,1347,1347,1347,1347,1347,1347,1347,1347,1347,1347,1347,1347,1347,1347,1347,1347,1347,1150],"ymouse":[520,520,520,520,520,520,520,520,520,520,520,520,520,520,520,520,520,520,520,520,520,520,520,520,520,520,520,520,520,520,520,520,520,520,517,495,414,225,127,37,2,2,2,2,2,2,2,2,2,2,2,2,2,2,2,2,2,2,2,2,2,2,2,6],"timestamp_mouse":[9,24,43,65,85,103,124,144,164,184,203,225,243,264,283,303,323,343,363,384,403,424,443,463,484,505,523,543,564,584,603,624,643,665,684,703,723,744,763,783,804,824,844,864,883,903,924,944,963,984,1003,1024,1044,1064,1084,1104,1123,1144,1163,1183,1204,1223,1243,1264],"xSR":741.5,"ySR":490.1,"xT1":424.9,"yT1":0,"xT2":1058.1,"yT2":0,"toosoon":0,"cond_shown":"randomdotsizeEA","ratio_trial":500,"smaller_num":"2","larger_num":"4","correct_side":2,"subjID":"SharonMelissaCorpasTORRES9","gender":"1","age":"11","school":"6"},{"start_time":1551791057767,"click_time":1551791058750,"finger_time":1551791058230,"fix_duration":354.1715295793629,"trial":50,"RT":463,"MT":520,"sideResp":2,"stimulus":"img/900/equaldotanddens/L/10_Ratio_900_L_20_R_18.png","xmouse":[792,792,792,792,792,792,792,792,792,792,792,792,792,792,792,792,792,792,792,792,792,799,818,864,881,894,904,908,914,918,923,929,936,956,961,964,966,966,966,967,968,970,972,978,979,980,981,986,1053,1140],"ymouse":[531,531,531,531,531,531,531,531,531,531,531,531,531,531,531,531,531,531,531,531,531,531,528,511,504,495,487,483,473,464,452,439,422,366,348,332,318,307,281,268,255,242,228,201,195,188,182,171,122,80],"timestamp_mouse":[8,24,45,63,83,105,137,143,164,183,203,225,244,263,284,304,323,343,363,383,403,423,443,463,483,504,525,545,565,584,603,623,645,664,684,704,723,743,764,783,803,823,843,864,883,904,925,944,964,983],"xSR":741.5,"ySR":490.1,"xT1":424.9,"yT1":0,"xT2":1058.1,"yT2":0,"toosoon":0,"cond_shown":"equaldotanddens","ratio_trial":900,"smaller_num":"18","larger_num":"20","correct_side":1,"subjID":"SharonMelissaCorpasTORRES9","gender":"1","age":"11","school":"6"},{"start_time":1551791062496,"click_time":1551791063530,"finger_time":1551791063430,"fix_duration":943.0945375196869,"trial":51,"RT":934,"MT":100,"sideResp":1,"stimulus":"img/250/equaldotanddens/L/14_Ratio_250_L_12_R_3.png","xmouse":[804,804,804,804,804,804,804,804,804,804,804,804,804,804,804,804,804,804,804,804,804,804,804,804,804,804,804,804,804,804,804,804,804,804,804,804,804,804,804,804,804,804,804,804,804,804,763,726,680,630,581,504],"ymouse":[532,532,532,532,532,532,532,532,532,532,532,532,532,532,532,532,532,532,532,532,532,532,532,532,532,532,532,532,532,532,532,532,532,532,532,532,532,532,532,532,532,532,532,532,532,531,467,400,320,228,132,13],"timestamp_mouse":[15,34,54,74,95,114,135,154,175,194,215,234,254,275,295,314,335,355,374,395,415,436,455,475,495,515,536,554,574,594,614,635,656,675,694,714,734,755,775,795,815,835,856,874,896,914,934,955,974,994,1015,1034],"xSR":741.5,"ySR":490.1,"xT1":424.9,"yT1":0,"xT2":1058.1,"yT2":0,"toosoon":0,"cond_shown":"equaldotanddens","ratio_trial":250,"smaller_num":"3","larger_num":"12","correct_side":1,"subjID":"SharonMelissaCorpasTORRES9","gender":"1","age":"11","school":"6"},{"start_time":1551791066225,"click_time":1551791067332,"finger_time":1551791066871,"fix_duration":250,"trial":52,"RT":646,"MT":461,"sideResp":2,"stimulus":"img/500/equaldotanddens/R/6_Ratio_500_L_9_R_18.png","xmouse":[808,808,808,808,808,808,808,808,808,808,808,808,808,808,808,808,808,808,808,808,807,807,807,807,807,807,807,807,807,807,807,808,815,823,846,928,988,1050,1119,1206,1206,1206,1206,1206,1206,1206,1206,1206,1206,1206,1206,1206,1206,1206,1206,1120],"ymouse":[555,555,555,555,555,555,555,555,555,555,555,555,554,554,554,554,553,553,551,549,547,539,535,530,526,525,524,524,523,521,517,504,490,470,431,309,242,171,103,13,13,13,13,13,13,13,13,13,13,13,13,13,13,13,13,4],"timestamp_mouse":[8,38,46,68,88,108,126,148,166,188,206,228,246,266,286,307,326,348,367,386,406,426,446,466,486,508,527,547,567,586,606,627,646,667,686,706,726,747,766,786,807,827,847,867,886,907,926,947,968,988,1007,1027,1046,1067,1087,1107],"xSR":741.5,"ySR":490.1,"xT1":424.9,"yT1":0,"xT2":1058.1,"yT2":0,"toosoon":0,"cond_shown":"equaldotanddens","ratio_trial":500,"smaller_num":"9","larger_num":"18","correct_side":2,"subjID":"SharonMelissaCorpasTORRES9","gender":"1","age":"11","school":"6"},{"start_time":1551791069546,"click_time":1551791070291,"finger_time":1551791070152,"fix_duration":693.97455336829,"trial":53,"RT":606,"MT":139,"sideResp":2,"stimulus":"img/250/randomdotsizeEA/R/12_Ratio_250_L_5_R_20.png","xmouse":[766,766,766,766,766,766,766,766,766,766,766,766,766,766,766,766,766,766,766,766,766,766,766,766,766,766,768,772,780,805,823,843,887,904,1025,1049,1065,1073],"ymouse":[519,519,519,519,519,519,519,519,519,519,519,519,519,519,519,519,519,519,519,519,519,519,519,519,519,519,519,519,517,501,487,465,410,392,233,176,131,96],"timestamp_mouse":[9,26,47,65,85,105,126,146,166,186,206,227,247,265,285,306,325,347,366,386,406,426,445,467,486,505,525,546,565,585,606,626,645,665,685,706,725,745],"xSR":741.5,"ySR":490.1,"xT1":424.9,"yT1":0,"xT2":1058.1,"yT2":0,"toosoon":0,"cond_shown":"randomdotsizeEA","ratio_trial":250,"smaller_num":"5","larger_num":"20","correct_side":2,"subjID":"SharonMelissaCorpasTORRES9","gender":"1","age":"11","school":"6"},{"start_time":1551791071883,"click_time":1551791072853,"finger_time":1551791072391,"fix_duration":250,"trial":54,"RT":508,"MT":462,"sideResp":1,"stimulus":"img/250/equaldotsize/L/1_Ratio_250_L_8_R_2.png","xmouse":[790,790,790,790,790,790,790,790,790,790,790,790,790,790,791,791,791,791,791,792,793,795,798,799,799,799,793,782,757,737,716,684,634,613,591,569,569,569,569,569,569,569,569,569,569,569,569,569,478],"ymouse":[539,539,539,539,539,539,539,539,539,540,540,540,540,540,540,540,540,540,540,540,540,536,524,514,503,486,465,428,370,336,296,233,127,85,48,4,4,4,4,4,4,4,4,4,4,4,4,4,2],"timestamp_mouse":[9,29,48,68,89,110,128,149,168,188,210,229,248,269,289,308,328,350,368,388,409,428,449,469,489,508,528,548,568,589,610,628,649,668,688,708,729,749,769,789,808,830,848,869,888,909,928,949,969],"xSR":741.5,"ySR":490.1,"xT1":424.9,"yT1":0,"xT2":1058.1,"yT2":0,"toosoon":0,"cond_shown":"equaldotsize","ratio_trial":250,"smaller_num":"2","larger_num":"8","correct_side":1,"subjID":"SharonMelissaCorpasTORRES9","gender":"1","age":"11","school":"6"},{"start_time":1551791075240,"click_time":1551791076212,"finger_time":1551791075751,"fix_duration":1268.152112290558,"trial":55,"RT":511,"MT":461,"sideResp":2,"stimulus":"img/750/equaldotanddens/R/5_Ratio_750_L_15_R_20.png","xmouse":[772,772,772,772,773,774,775,776,776,776,779,780,782,783,787,791,799,804,810,813,823,828,832,835,838,844,849,858,861,872,886,893,899,903,905,905,905,905,907,930,952,980,1011,1036,1055,1077,1086,1090,1092],"ymouse":[541,541,541,541,541,541,541,540,540,539,538,538,538,538,536,535,533,532,530,527,520,517,512,509,506,489,472,452,445,421,390,372,355,342,316,303,295,288,281,253,238,223,208,190,173,137,118,103,90],"timestamp_mouse":[27,32,53,73,91,111,131,153,173,191,212,231,251,271,292,311,332,353,371,391,413,431,452,471,491,511,531,551,571,591,611,631,653,672,692,711,732,752,772,792,811,832,851,872,891,911,931,953,972],"xSR":741.5,"ySR":490.1,"xT1":424.9,"yT1":0,"xT2":1058.1,"yT2":0,"toosoon":0,"cond_shown":"equaldotanddens","ratio_trial":750,"smaller_num":"15","larger_num":"20","correct_side":2,"subjID":"SharonMelissaCorpasTORRES9","gender":"1","age":"11","school":"6"},{"start_time":1551791077164,"click_time":1551791078132,"finger_time":1551791077853,"fix_duration":251.8454779045638,"trial":56,"RT":689,"MT":279,"sideResp":2,"stimulus":"img/750/equaldotsize/R/2_Ratio_750_L_6_R_8.png","xmouse":[774,774,774,774,774,774,774,774,774,774,774,774,774,775,778,778,779,780,782,782,782,782,782,782,782,782,783,783,784,784,785,785,785,785,785,787,788,789,794,799,807,818,833,845,877,920,983,1050,1134],"ymouse":[556,556,556,556,556,556,556,556,556,556,556,556,556,555,553,553,552,552,551,551,551,551,551,549,548,547,545,542,538,533,527,519,504,493,478,468,463,458,449,443,437,432,429,423,393,337,255,160,21],"timestamp_mouse":[7,37,49,67,88,108,128,149,167,188,209,229,247,268,287,308,328,349,368,389,408,428,448,467,488,507,528,547,568,588,608,629,648,667,689,708,728,748,769,787,808,827,849,868,888,907,927,947,967],"xSR":741.5,"ySR":490.1,"xT1":424.9,"yT1":0,"xT2":1058.1,"yT2":0,"toosoon":0,"cond_shown":"equaldotsize","ratio_trial":750,"smaller_num":"6","larger_num":"8","correct_side":2,"subjID":"SharonMelissaCorpasTORRES9","gender":"1","age":"11","school":"6"},{"start_time":1551791082317,"click_time":1551791083732,"finger_time":1551791083071,"fix_duration":1263.4572282150816,"trial":57,"RT":754,"MT":661,"sideResp":1,"stimulus":"img/900/equaldotsize/R/9_Ratio_900_L_18_R_20.png","xmouse":[786,788,788,788,788,788,788,789,789,789,789,789,789,789,789,791,791,791,791,792,792,792,794,795,798,806,808,810,811,813,817,819,821,823,827,829,835,836,837,837,837,837,837,837,837,825,782,766,750,725,693,686,678,672,668,663,660,658,657,657,653,648,642,633,617,599,586,572,555,539,507],"ymouse":[527,527,527,527,527,527,527,526,526,526,526,526,526,526,526,524,524,524,524,523,523,523,522,522,521,518,517,516,515,515,512,510,509,507,504,500,492,488,487,485,482,482,479,476,471,455,403,382,346,287,205,179,155,131,112,91,76,73,70,69,67,67,67,67,67,67,67,67,67,67,67],"timestamp_mouse":[15,45,54,74,94,116,135,154,175,195,215,234,255,275,295,316,334,356,374,394,414,435,455,474,494,514,535,554,575,594,614,636,654,674,695,714,735,754,775,794,815,834,854,875,895,914,934,954,975,996,1015,1035,1054,1076,1095,1114,1135,1155,1175,1194,1215,1234,1254,1275,1296,1314,1335,1354,1376,1395,1415],"xSR":741.5,"ySR":490.1,"xT1":424.9,"yT1":0,"xT2":1058.1,"yT2":0,"toosoon":0,"cond_shown":"equaldotsize","ratio_trial":900,"smaller_num":"18","larger_num":"20","correct_side":2,"subjID":"SharonMelissaCorpasTORRES9","gender":"1","age":"11","school":"6"},{"start_time":1551791085792,"click_time":1551791086711,"finger_time":1551791086271,"fix_duration":579.1933041605399,"trial":58,"RT":479,"MT":440,"sideResp":2,"stimulus":"img/900/equaldotsize/R/13_Ratio_900_L_18_R_20.png","xmouse":[806,806,806,806,806,806,806,806,806,806,806,806,806,806,806,806,806,806,806,806,806,806,809,820,824,834,847,874,890,905,920,934,948,953,956,960,963,969,981,990,1000,1008,1025,1062,1081,1098,1110],"ymouse":[527,527,527,527,527,527,527,527,527,527,527,527,527,527,527,527,527,527,527,527,527,527,516,495,486,468,444,395,370,342,318,286,253,243,233,225,216,208,186,174,163,155,142,122,111,102,94],"timestamp_mouse":[1,19,45,60,80,100,120,139,161,179,200,219,241,260,280,300,320,340,359,379,401,419,439,464,479,500,519,539,559,580,600,621,640,660,680,700,720,740,759,781,800,819,840,859,880,900,919],"xSR":741.5,"ySR":490.1,"xT1":424.9,"yT1":0,"xT2":1058.1,"yT2":0,"toosoon":0,"cond_shown":"equaldotsize","ratio_trial":900,"smaller_num":"18","larger_num":"20","correct_side":2,"subjID":"SharonMelissaCorpasTORRES9","gender":"1","age":"11","school":"6"},{"start_time":1551791088497,"click_time":1551791090212,"finger_time":1551791089332,"fix_duration":425.0738010401326,"trial":59,"RT":835,"MT":880,"sideResp":2,"stimulus":"img/750/equaldotanddens/R/5_Ratio_750_L_15_R_20.png","xmouse":[812,812,812,812,812,812,812,812,812,812,812,812,812,812,812,812,812,812,812,812,812,812,812,812,812,812,812,812,812,812,812,812,812,812,812,812,812,812,809,797,781,738,713,687,661,640,623,609,602,600,599,599,608,618,630,642,687,720,750,782,797,797,797,797,797,797,797,797,797,797,797,797,797,797,797,797,797,797,797,797,797,797,797,797,797,1114],"ymouse":[524,524,524,524,524,524,524,524,524,524,524,524,524,524,524,524,524,524,524,524,524,524,524,524,524,524,524,524,524,524,524,524,524,524,524,524,524,523,520,515,509,491,480,472,464,454,439,423,415,410,405,400,378,363,345,322,143,94,55,20,6,6,6,6,6,6,6,6,6,6,6,6,6,6,6,6,6,6,6,6,6,6,6,6,6,3],"timestamp_mouse":[15,34,56,75,94,115,134,156,176,195,216,235,254,275,296,315,334,356,374,395,416,434,454,476,494,516,535,554,574,596,614,635,656,674,694,716,734,755,774,794,814,835,855,875,895,914,934,954,976,995,1015,1035,1055,1074,1095,1114,1135,1154,1174,1196,1216,1236,1255,1275,1294,1314,1336,1355,1374,1395,1414,1436,1454,1474,1495,1515,1535,1555,1575,1595,1614,1634,1655,1675,1695,1715],"xSR":741.5,"ySR":490.1,"xT1":424.9,"yT1":0,"xT2":1058.1,"yT2":0,"toosoon":0,"cond_shown":"equaldotanddens","ratio_trial":750,"smaller_num":"15","larger_num":"20","correct_side":2,"subjID":"SharonMelissaCorpasTORRES9","gender":"1","age":"11","school":"6"},{"start_time":1551791091464,"click_time":1551791093333,"finger_time":1551791092911,"fix_duration":250,"trial":60,"RT":1447,"MT":422,"sideResp":2,"stimulus":"img/500/randomdotsizeEA/R/1_Ratio_500_L_9_R_18.png","xmouse":[787,787,787,787,787,787,787,787,787,787,787,787,787,787,787,787,787,787,787,787,787,787,787,787,787,787,787,787,787,787,787,787,787,787,787,787,787,787,787,788,788,788,788,788,788,788,788,788,788,788,788,788,788,788,788,788,788,788,788,788,788,788,789,789,790,791,794,797,800,808,814,826,842,886,911,952,981,1001,1035,1041,1045,1048,1049,1050,1050,1050,1050,1050,1050,1050,1050,1050,1050,1062],"ymouse":[533,533,533,533,533,533,533,533,533,533,533,533,533,533,533,533,533,533,533,533,533,533,533,533,533,533,533,533,533,533,533,533,533,533,531,530,529,528,528,527,527,527,527,527,527,527,527,527,527,527,527,527,527,527,527,527,527,527,527,527,525,525,525,523,522,521,516,513,509,502,498,492,486,467,454,427,405,387,346,336,324,314,304,286,276,266,251,235,195,175,151,124,98,68],"timestamp_mouse":[8,31,48,67,89,107,128,149,167,189,207,228,248,269,287,308,328,348,369,387,407,428,448,467,488,507,528,549,567,588,607,628,649,668,687,708,728,748,767,788,807,828,849,869,888,907,928,948,967,987,1008,1028,1047,1067,1088,1109,1127,1149,1167,1188,1207,1227,1248,1268,1287,1307,1328,1347,1367,1388,1407,1427,1447,1468,1487,1508,1529,1548,1568,1587,1608,1628,1649,1668,1687,1707,1728,1749,1768,1788,1808,1827,1847,1869],"xSR":741.5,"ySR":490.1,"xT1":424.9,"yT1":0,"xT2":1058.1,"yT2":0,"toosoon":0,"cond_shown":"randomdotsizeEA","ratio_trial":500,"smaller_num":"9","larger_num":"18","correct_side":2,"subjID":"SharonMelissaCorpasTORRES9","gender":"1","age":"11","school":"6"},{"start_time":1551791094523,"click_time":1551791095591,"finger_time":1551791095191,"fix_duration":429.3445945290308,"trial":61,"RT":668,"MT":400,"sideResp":1,"stimulus":"img/500/equaldotsize/L/10_Ratio_500_L_4_R_2.png","xmouse":[810,810,810,810,810,810,810,810,810,810,810,810,810,810,810,810,810,810,810,810,810,810,810,810,810,810,810,810,810,805,790,777,761,739,717,667,651,635,614,601,595,588,584,579,573,570,561,554,546,537,514,503,490,477],"ymouse":[588,588,588,588,588,588,588,588,588,588,588,588,588,588,588,588,588,588,588,588,588,588,588,588,588,588,588,588,588,583,563,546,530,510,492,426,393,357,323,297,275,255,250,247,244,242,235,230,224,215,184,153,124,99],"timestamp_mouse":[20,34,48,68,88,110,130,149,169,189,208,228,249,268,289,309,330,349,368,388,410,430,448,470,488,508,529,549,568,588,608,629,650,668,690,709,729,748,770,788,809,828,849,870,889,908,929,949,969,990,1008,1028,1049,1068],"xSR":741.5,"ySR":490.1,"xT1":424.9,"yT1":0,"xT2":1058.1,"yT2":0,"toosoon":0,"cond_shown":"equaldotsize","ratio_trial":500,"smaller_num":"2","larger_num":"4","correct_side":1,"subjID":"SharonMelissaCorpasTORRES9","gender":"1","age":"11","school":"6"},{"start_time":1551791097519,"click_time":1551791098972,"finger_time":1551791098251,"fix_duration":1005.8741368346821,"trial":62,"RT":732,"MT":721,"sideResp":1,"stimulus":"img/900/equaldotanddens/L/8_Ratio_900_L_20_R_18.png","xmouse":[830,830,830,830,830,830,830,830,830,830,830,830,830,830,830,830,830,830,830,830,830,830,830,830,830,830,830,830,830,830,830,830,830,830,830,829,829,829,826,822,816,812,809,805,800,789,775,768,762,759,751,742,731,714,679,653,606,583,565,551,540,537,535,535,534,534,533,532,530,529,520,513,506],"ymouse":[513,513,513,513,513,513,513,513,513,513,513,513,513,513,513,513,513,513,513,513,513,513,513,513,513,513,513,513,513,513,513,513,513,513,513,508,486,461,445,431,410,401,394,386,379,365,344,334,325,321,311,301,287,266,231,214,190,180,174,170,166,165,164,164,164,164,163,162,159,153,129,113,99],"timestamp_mouse":[12,33,61,73,93,113,132,152,172,192,214,233,253,274,292,313,334,352,372,394,412,433,453,472,494,513,532,554,574,594,612,633,653,672,694,713,732,753,774,794,813,832,852,872,893,912,933,952,973,994,1012,1032,1052,1072,1093,1113,1134,1153,1172,1192,1212,1232,1253,1273,1292,1314,1333,1352,1373,1394,1413,1432,1453],"xSR":741.5,"ySR":490.1,"xT1":424.9,"yT1":0,"xT2":1058.1,"yT2":0,"toosoon":0,"cond_shown":"equaldotanddens","ratio_trial":900,"smaller_num":"18","larger_num":"20","correct_side":1,"subjID":"SharonMelissaCorpasTORRES9","gender":"1","age":"11","school":"6"},{"start_time":1551791100711,"click_time":1551791101892,"finger_time":1551791101531,"fix_duration":679.7594886254681,"trial":63,"RT":820,"MT":361,"sideResp":2,"stimulus":"img/500/randomdotsizeEA/R/2_Ratio_500_L_3_R_6.png","xmouse":[832,832,832,832,832,832,832,832,832,832,832,832,832,832,832,832,832,832,832,832,832,832,832,832,832,832,832,832,832,832,832,832,832,832,832,832,832,832,832,833,835,837,840,844,850,858,882,896,915,934,953,984,1001,1014,1027,1048,1071,1079,1084,1084],"ymouse":[559,559,559,559,559,559,559,559,559,559,559,559,559,559,559,559,559,559,559,559,559,559,559,559,559,559,559,559,559,559,559,559,559,559,559,558,554,536,524,513,502,489,472,460,446,429,379,359,340,322,306,277,262,247,232,201,150,127,107,95],"timestamp_mouse":[9,35,41,61,82,101,120,141,161,180,202,220,240,262,280,300,320,342,361,380,400,421,440,461,480,501,522,542,561,582,601,621,641,661,680,700,720,741,762,780,801,820,840,860,880,900,921,941,960,981,1001,1022,1040,1062,1082,1102,1121,1141,1161,1181],"xSR":741.5,"ySR":490.1,"xT1":424.9,"yT1":0,"xT2":1058.1,"yT2":0,"toosoon":0,"cond_shown":"randomdotsizeEA","ratio_trial":500,"smaller_num":"3","larger_num":"6","correct_side":2,"subjID":"SharonMelissaCorpasTORRES9","gender":"1","age":"11","school":"6"},{"start_time":1551791103412,"click_time":1551791104613,"finger_time":1551791104132,"fix_duration":698.8990294758299,"trial":64,"RT":720,"MT":481,"sideResp":2,"stimulus":"img/250/equaldotsize/R/11_Ratio_250_L_3_R_12.png","xmouse":[792,792,792,792,792,792,792,792,792,792,792,792,792,792,792,792,792,792,792,792,792,792,792,792,792,792,792,792,792,792,792,792,792,792,795,798,812,823,836,852,873,921,942,964,980,994,998,992,988,987,986,986,986,986,989,995,1004,1031,1048,1063,1086],"ymouse":[539,539,539,539,539,539,539,539,539,539,539,539,539,539,539,539,539,539,539,539,539,539,539,539,539,539,539,539,539,539,539,539,539,539,528,519,482,458,435,410,384,327,306,284,261,227,176,157,143,135,134,133,133,132,129,126,122,112,108,103,97],"timestamp_mouse":[1,20,40,60,80,100,119,141,159,179,201,220,240,261,279,301,320,339,360,381,401,419,440,461,479,500,520,540,561,580,599,619,640,661,679,699,720,741,759,779,800,820,839,860,879,899,919,939,960,981,999,1020,1039,1060,1080,1101,1119,1141,1159,1180,1200],"xSR":741.5,"ySR":490.1,"xT1":424.9,"yT1":0,"xT2":1058.1,"yT2":0,"toosoon":0,"cond_shown":"equaldotsize","ratio_trial":250,"smaller_num":"3","larger_num":"12","correct_side":2,"subjID":"SharonMelissaCorpasTORRES9","gender":"1","age":"11","school":"6"},{"start_time":1551791106760,"click_time":1551791107551,"finger_time":1551791107231,"fix_duration":985.0841169386786,"trial":65,"RT":471,"MT":320,"sideResp":2,"stimulus":"img/250/equaldotanddens/R/12_Ratio_250_L_5_R_20.png","xmouse":[786,786,786,786,786,786,786,786,786,786,786,786,786,786,786,786,786,786,786,786,786,775,763,716,680,666,647,628,612,612,612,615,627,685,732,782,847,915,1028,1070],"ymouse":[543,543,543,543,543,543,543,543,543,543,543,543,543,543,543,543,543,543,543,543,543,540,534,514,481,460,426,392,360,359,354,346,330,280,250,221,191,161,111,88],"timestamp_mouse":[11,35,52,72,91,111,133,151,172,191,211,232,251,272,291,311,332,351,371,391,413,431,452,471,492,511,532,553,572,592,611,631,652,672,691,712,731,752,772,791],"xSR":741.5,"ySR":490.1,"xT1":424.9,"yT1":0,"xT2":1058.1,"yT2":0,"toosoon":0,"cond_shown":"equaldotanddens","ratio_trial":250,"smaller_num":"5","larger_num":"20","correct_side":2,"subjID":"SharonMelissaCorpasTORRES9","gender":"1","age":"11","school":"6"},{"start_time":1551791110117,"click_time":1551791111552,"finger_time":1551791111052,"fix_duration":1364.877858894892,"trial":66,"RT":935,"MT":500,"sideResp":1,"stimulus":"img/500/randomdotsizeEA/L/11_Ratio_500_L_12_R_6.png","xmouse":[814,814,814,814,814,814,814,814,814,814,814,814,814,814,814,814,814,814,814,814,814,814,814,814,814,814,814,814,814,814,814,814,814,814,814,814,814,814,814,814,814,813,811,809,800,764,675,612,555,489,375,328,296,274,257,255,255,262,270,281,292,297,297,297,297,297,297,297,395,411,423,446],"ymouse":[560,560,560,560,560,560,560,560,560,560,560,560,560,560,560,560,560,560,560,560,560,560,560,560,560,560,560,560,560,560,560,557,556,554,552,551,551,551,550,550,550,548,547,546,544,542,528,507,469,408,269,205,159,128,103,87,77,60,41,23,6,0,0,0,0,0,0,0,8,17,24,35],"timestamp_mouse":[16,38,54,75,94,115,134,154,176,194,214,236,255,274,294,315,335,354,375,394,416,435,455,474,496,515,534,554,576,594,614,635,655,675,695,714,735,756,774,795,814,835,855,874,894,914,935,955,975,994,1016,1034,1054,1076,1096,1115,1134,1155,1176,1194,1215,1234,1254,1275,1294,1314,1334,1354,1375,1395,1414,1435],"xSR":741.5,"ySR":490.1,"xT1":424.9,"yT1":0,"xT2":1058.1,"yT2":0,"toosoon":0,"cond_shown":"randomdotsizeEA","ratio_trial":500,"smaller_num":"6","larger_num":"12","correct_side":1,"subjID":"SharonMelissaCorpasTORRES9","gender":"1","age":"11","school":"6"},{"start_time":1551791112783,"click_time":1551791113993,"finger_time":1551791113652,"fix_duration":250,"trial":67,"RT":869,"MT":341,"sideResp":2,"stimulus":"img/900/randomdotsizeEA/R/3_Ratio_900_L_9_R_10.png","xmouse":[794,794,794,794,794,794,794,794,794,794,794,794,794,794,794,794,794,794,794,794,794,794,794,794,794,794,794,794,794,794,794,794,794,794,794,794,794,794,794,794,799,807,828,877,902,930,958,1017,1044,1070,1093,1106,1124,1128,1130,1132,1134,1141,1145,1146,1147],"ymouse":[518,518,518,518,518,518,518,518,518,518,518,518,518,518,518,518,518,518,518,518,518,518,518,518,518,518,518,518,518,518,518,518,518,518,518,518,518,518,518,518,517,512,504,483,470,456,437,394,373,351,331,314,271,254,239,221,205,160,129,106,88],"timestamp_mouse":[9,33,49,69,89,109,130,150,169,190,208,230,248,268,289,309,329,348,370,389,408,430,448,468,489,510,528,548,570,588,609,630,649,670,689,708,730,748,770,789,808,830,848,869,888,909,928,949,968,989,1010,1028,1049,1069,1088,1109,1129,1149,1170,1190,1210],"xSR":741.5,"ySR":490.1,"xT1":424.9,"yT1":0,"xT2":1058.1,"yT2":0,"toosoon":0,"cond_shown":"randomdotsizeEA","ratio_trial":900,"smaller_num":"9","larger_num":"10","correct_side":2,"subjID":"SharonMelissaCorpasTORRES9","gender":"1","age":"11","school":"6"},{"start_time":1551791118247,"click_time":1551791119473,"finger_time":1551791118991,"fix_duration":1392.2126493612757,"trial":68,"RT":744,"MT":482,"sideResp":1,"stimulus":"img/750/equaldotsize/L/9_Ratio_750_L_4_R_3.png","xmouse":[821,821,821,821,821,821,821,821,821,821,821,821,821,821,821,821,821,821,821,821,821,821,821,821,821,821,821,821,821,821,813,804,794,787,773,768,763,754,742,703,682,659,638,620,599,589,580,572,559,532,523,517,514,513,510,508,504,501,498,496,495,495],"ymouse":[516,516,516,516,516,516,516,516,516,516,516,516,516,516,516,516,516,516,516,516,516,516,516,516,516,516,516,516,516,516,515,514,513,510,503,499,494,480,463,414,395,382,375,369,358,351,345,339,333,313,303,290,272,252,207,183,161,142,120,104,100,96],"timestamp_mouse":[10,24,46,65,85,104,125,144,164,184,206,225,245,264,286,305,324,344,365,384,404,425,444,465,485,506,524,546,564,584,604,625,644,665,685,705,724,744,766,785,804,824,845,866,885,904,924,944,965,984,1006,1025,1045,1066,1085,1104,1125,1144,1166,1185,1204,1226],"xSR":741.5,"ySR":490.1,"xT1":424.9,"yT1":0,"xT2":1058.1,"yT2":0,"toosoon":0,"cond_shown":"equaldotsize","ratio_trial":750,"smaller_num":"3","larger_num":"4","correct_side":1,"subjID":"SharonMelissaCorpasTORRES9","gender":"1","age":"11","school":"6"},{"start_time":1551791121176,"click_time":1551791122393,"finger_time":1551791121972,"fix_duration":742.0022094252499,"trial":69,"RT":796,"MT":421,"sideResp":1,"stimulus":"img/250/randomdotsizeEA/L/15_Ratio_250_L_12_R_3.png","xmouse":[830,830,830,830,830,830,830,830,830,830,830,830,830,830,830,830,830,830,830,830,830,830,830,830,830,830,830,830,830,830,830,830,830,830,830,830,829,821,779,742,700,659,614,580,571,562,554,544,541,536,529,525,501,492,483,474,467,453,448,443,438],"ymouse":[560,560,560,560,560,560,560,560,560,560,560,560,560,560,560,560,560,560,560,560,560,560,560,560,560,560,560,560,560,560,560,560,560,560,560,560,560,556,492,449,408,368,327,295,283,274,265,250,245,237,225,216,183,171,161,151,142,123,113,102,91],"timestamp_mouse":[16,36,56,76,95,116,135,156,176,196,217,235,256,275,295,315,335,356,375,395,416,437,455,477,495,517,535,557,575,595,616,635,656,675,697,715,735,756,776,796,817,836,855,875,895,917,936,956,976,995,1017,1036,1056,1077,1095,1116,1136,1156,1176,1195,1217],"xSR":741.5,"ySR":490.1,"xT1":424.9,"yT1":0,"xT2":1058.1,"yT2":0,"toosoon":0,"cond_shown":"randomdotsizeEA","ratio_trial":250,"smaller_num":"3","larger_num":"12","correct_side":1,"subjID":"SharonMelissaCorpasTORRES9","gender":"1","age":"11","school":"6"},{"start_time":1551791124550,"click_time":1551791125832,"finger_time":1551791125191,"fix_duration":1335.3081537850258,"trial":70,"RT":641,"MT":641,"sideResp":1,"stimulus":"img/250/equaldotsize/L/2_Ratio_250_L_16_R_4.png","xmouse":[817,817,817,817,817,817,817,817,817,817,817,817,817,817,817,817,817,817,817,817,817,817,817,817,817,817,817,817,817,816,799,764,714,666,553,542,534,531,530,530,530,530,528,527,523,520,517,513,509,502,499,498,497,496,494,494,493,492,492,492,492,493,494,495,496],"ymouse":[501,501,501,501,501,501,501,501,501,501,501,501,501,501,501,501,501,501,501,501,501,501,501,501,501,501,501,501,501,502,500,492,475,443,324,304,283,268,257,241,235,229,223,213,199,192,187,182,177,167,162,159,155,152,141,137,133,131,130,126,119,114,109,104,96],"timestamp_mouse":[8,22,45,62,81,101,122,141,162,183,201,222,241,263,282,302,321,342,361,381,401,422,441,462,482,502,521,541,561,582,603,622,641,662,682,703,722,742,761,781,802,822,843,863,882,901,922,941,961,981,1001,1022,1042,1062,1082,1102,1122,1142,1162,1182,1201,1221,1241,1262,1282],"xSR":741.5,"ySR":490.1,"xT1":424.9,"yT1":0,"xT2":1058.1,"yT2":0,"toosoon":0,"cond_shown":"equaldotsize","ratio_trial":250,"smaller_num":"4","larger_num":"16","correct_side":1,"subjID":"SharonMelissaCorpasTORRES9","gender":"1","age":"11","school":"6"},{"start_time":1551791127904,"click_time":1551791128812,"finger_time":1551791128593,"fix_duration":831.2006708817959,"trial":71,"RT":689,"MT":219,"sideResp":2,"stimulus":"img/900/equaldotsize/R/13_Ratio_900_L_18_R_20.png","xmouse":[796,796,796,796,796,796,796,796,796,796,796,796,796,796,796,796,796,796,796,796,796,796,796,796,796,796,796,796,796,796,796,797,804,813,828,845,915,943,968,991,1010,1029,1076,1100,1122,1140],"ymouse":[561,561,561,561,561,561,561,561,561,561,561,561,561,561,561,561,561,561,561,561,561,561,561,561,561,561,561,561,561,561,560,550,535,515,481,440,320,284,256,229,208,191,153,131,112,92],"timestamp_mouse":[11,28,49,68,88,108,129,147,168,188,209,227,248,269,287,308,328,348,368,389,407,429,447,469,487,508,527,548,567,589,608,628,647,668,689,708,728,747,767,788,809,828,847,867,888,908],"xSR":741.5,"ySR":490.1,"xT1":424.9,"yT1":0,"xT2":1058.1,"yT2":0,"toosoon":0,"cond_shown":"equaldotsize","ratio_trial":900,"smaller_num":"18","larger_num":"20","correct_side":2,"subjID":"SharonMelissaCorpasTORRES9","gender":"1","age":"11","school":"6"},{"start_time":1551791132314,"click_time":1551791133492,"finger_time":1551791133011,"fix_duration":642.2012312803752,"trial":72,"RT":697,"MT":481,"sideResp":1,"stimulus":"img/500/randomdotsizeEA/L/11_Ratio_500_L_12_R_6.png","xmouse":[808,808,808,808,808,808,808,808,808,808,808,808,808,808,808,808,808,808,808,808,808,808,808,808,808,808,808,805,800,797,783,776,767,756,729,687,577,518,456,400,354,352,352,351,349,348,348,348,348,348,348,348,348,348,348,392,402,417,431],"ymouse":[516,516,516,516,516,516,516,516,516,516,516,516,516,516,516,516,516,516,516,516,516,516,516,516,516,516,516,516,516,516,511,507,502,493,463,433,376,342,299,257,158,92,45,21,8,0,0,0,0,0,0,0,0,0,0,0,7,15,24],"timestamp_mouse":[33,39,58,78,98,118,