[{"start_time":1551880602755,"click_time":1551880617716,"finger_time":1551880602765,"fix_duration":1253.3024256148685,"trial":0,"RT":10,"MT":14951,"sideResp":2,"stimulus":[],"xmouse":[762,762,762,762,762,762,762,762,762,762,762,762,762,762,762,762,762,762,762,762,762,762,762,762,762,762,762,762,762,762,762,762,762,762,762,762,762,762,762,762,762,762,762,762,762,762,762,762,762,762,762,762,762,762,762,759,755,752,750,750,750,750,750,750,750,750,750,750,750,750,750,750,750,751,752,752,752,753,754,754,755,755,755,755,755,755,755,755,755,755,755,755,755,755,755,755,755,755,755,755,755,755,755,755,755,755,755,755,755,756,760,767,783,786,786,786,786,705,705,705,705,705,612,624,637,642,643,649,651,654,659,662,667,674,676,678,680,686,689,689,690,690,690,690,690,690,690,690,690,691,695,701,707,722,734,747,757,767,768,768,770,771,773,774,774,774,774,774,774,774,775,775,775,775,776,778,778,778,779,779,779,780,780,781,781,781,781,781,781,781,781,781,781,781,781,781,781,781,781,781,781,781,781,781,781,781,781,781,781,781,781,781,781,781,781,781,781,781,781,781,781,781,781,781,781,781,781,781,781,781,780,778,774,773,773,773,773,773,773,773,773,772,772,772,772,772,772,772,772,772,767,766,766,766,763,761,759,756,744,719,676,624,567,431,366,305,295,286,286,286,286,286,286,286,286,286,286,286,286,286,286,286,286,286,286,286,286,286,286,286,286,286,286,286,286,286,286,286,286,286,286,286,286,286,286,286,286,286,286,286,286,286,286,286,286,286,286,286,286,286,286,286,286,286,286,286,286,286,286,286,286,286,286,286,286,286,286,286,286,286,286,286,286,286,286,286,286,286,286,286,286,286,286,286,286,286,286,286,286,286,286,286,286,286,286,286,286,286,286,286,286,286,286,286,286,286,286,286,286,286,286,286,286,286,286,286,286,286,286,286,286,286,286,286,286,286,286,286,286,286,286,292,301,328,330,330,330,339,417,493,578,674,770,956,956,956,956,956,956,956,956,956,956,1056,998,928,855,843,843,843,843,843,843,843,843,843,843,843,843,843,843,843,837,826,819,812,799,783,721,691,679,678,678,678,680,689,703,724,757,769,778,782,783,783,783,783,783,783,783,783,783,783,783,783,783,783,783,783,782,782,782,782,782,782,782,782,782,782,782,782,782,782,782,782,782,782,782,782,782,782,782,782,782,782,782,782,782,782,782,782,782,782,782,782,782,782,782,782,782,782,782,782,782,782,782,782,782,782,782,782,782,782,782,782,782,782,782,782,782,782,782,782,782,782,782,782,782,782,782,782,782,782,782,782,782,782,782,782,782,782,782,782,782,782,782,782,782,782,782,782,782,782,782,782,782,782,782,782,782,782,782,782,782,782,782,782,782,782,782,782,782,782,782,782,782,782,782,782,782,782,782,782,782,782,782,782,782,782,782,782,782,782,782,782,782,782,782,782,782,782,782,782,782,782,782,782,782,782,782,782,782,782,782,782,782,782,782,782,782,782,782,782,782,782,782,782,782,782,782,782,782,782,782,782,782,782,782,782,782,782,782,782,782,782,782,782,782,782,782,782,782,782,782,782,782,782,782,782,782,782,782,782,782,782,782,782,782,782,782,782,782,782,782,782,782,782,782,782,782,782,782,782,782,782,782,782,782,782,782,782,782,782,782,782,782,782,782,782,782,782,782,782,782,782,782,782,786,795,821,842,868,906,928,938,952,962,991,1002,1006,1007,1009,1019,1048,1051,1051,1051,1051,1051,1061],"ymouse":[503,503,503,503,503,503,503,503,503,503,503,503,503,503,503,503,503,503,503,503,503,503,503,503,503,503,503,503,503,503,503,503,503,503,503,503,503,503,503,503,503,503,503,503,503,503,503,503,503,503,503,503,503,505,510,516,524,543,550,555,558,562,573,579,583,587,589,592,593,593,593,593,596,598,599,601,602,605,607,608,609,609,609,609,609,609,609,609,609,609,609,609,609,609,609,609,609,609,609,609,609,609,609,609,609,609,609,609,609,609,606,596,565,555,553,553,553,690,690,690,690,690,857,818,765,724,694,654,649,644,636,630,621,607,604,602,600,593,587,583,578,574,573,573,573,576,593,599,607,608,606,602,598,589,582,576,573,571,571,571,572,574,578,580,581,582,583,589,596,598,599,599,599,599,600,601,601,601,601,602,602,603,603,604,604,604,604,604,604,604,604,604,604,604,604,604,604,604,604,604,604,604,604,604,604,604,604,604,604,604,604,604,604,604,604,604,604,604,604,604,604,604,604,604,604,604,604,604,605,605,605,605,604,602,602,602,602,602,602,602,602,602,601,601,601,601,601,601,601,601,601,601,601,601,591,586,581,578,578,578,578,578,572,553,534,508,503,498,498,498,498,498,498,498,498,498,498,498,498,498,498,498,498,498,498,498,498,498,498,498,498,498,498,498,498,498,498,498,498,498,498,498,498,498,498,498,498,498,498,498,498,498,498,498,498,498,498,498,498,498,498,498,498,498,498,498,498,498,498,498,498,498,498,498,498,498,498,498,498,498,498,498,498,498,498,498,498,498,498,498,498,498,498,498,498,498,498,498,498,498,498,498,498,498,498,498,498,498,498,498,498,498,498,498,498,498,498,498,498,498,498,498,498,498,498,498,498,498,498,498,498,498,498,498,498,498,498,498,498,498,498,499,506,525,526,526,526,525,532,571,634,717,788,868,868,868,868,868,868,868,868,868,868,852,812,766,704,688,684,684,684,684,684,684,684,684,684,684,684,684,684,683,680,677,673,669,660,648,606,586,576,575,575,574,573,573,573,573,580,584,587,589,589,589,589,589,589,589,589,590,598,598,598,598,598,598,598,598,607,607,607,607,607,607,607,607,607,607,607,607,607,607,607,607,607,607,607,607,607,607,607,607,607,607,607,607,607,607,607,607,607,607,607,607,607,607,607,607,607,607,607,607,607,607,607,607,607,607,607,607,607,607,607,607,607,607,607,607,607,607,607,607,607,607,607,607,607,607,607,607,607,607,607,607,607,607,607,607,607,607,607,607,607,607,607,607,607,607,607,607,607,607,607,607,607,607,607,607,607,607,607,607,607,607,607,607,607,607,607,607,607,607,607,607,607,607,607,607,607,607,607,607,607,607,607,607,607,607,607,607,607,607,607,607,607,607,607,607,607,607,607,607,607,607,607,607,607,607,607,607,607,607,607,607,607,607,607,607,607,607,607,607,607,607,607,607,607,607,607,607,607,607,607,607,607,607,607,607,607,607,607,607,607,607,607,607,607,607,607,607,607,607,607,607,607,607,607,607,607,607,607,607,607,607,607,607,607,607,607,607,607,607,607,607,607,607,607,607,607,607,607,607,607,607,607,607,607,607,607,607,607,607,607,607,607,607,607,607,607,607,607,607,607,607,607,607,589,554,506,490,476,457,450,426,354,289,217,200,197,195,188,175,111,66,56,56,55,55,51],"timestamp_mouse":[9,21,41,62,81,101,121,141,161,181,201,220,242,261,282,301,320,342,362,382,401,421,441,460,480,502,522,541,561,582,601,622,642,662,681,701,721,742,760,780,800,820,841,862,882,900,920,940,960,981,1002,1021,1041,1060,1080,1101,1122,1141,1161,1181,1201,1221,1241,1260,1281,1302,1321,1341,1362,1381,1401,1422,1441,1461,1481,1500,1521,1541,1562,1580,1602,1621,1642,1662,1680,1702,1722,1740,1761,1782,1801,1821,1841,1860,1881,1901,1922,1940,1962,1982,2001,2021,2042,2061,2081,2101,2121,2140,2160,2181,2201,2220,2242,2260,2281,2301,2321,2341,2361,2381,2400,2421,2443,2461,2482,2502,2522,2541,2561,2581,2600,2620,2640,2660,2682,2700,2722,2740,2760,2781,2800,2822,2841,2861,2880,2900,2920,2940,2960,2980,3000,3020,3040,3060,3082,3102,3122,3141,3160,3181,3200,3221,3241,3262,3280,3301,3321,3341,3362,3380,3402,3421,3441,3461,3480,3502,3522,3540,3562,3580,3600,3622,3641,3661,3681,3701,3722,3741,3761,3782,3801,3821,3841,3861,3881,3900,3922,3940,3961,3982,4001,4020,4042,4062,4081,4103,4122,4142,4162,4181,4202,4222,4242,4260,4281,4302,4321,4340,4362,4382,4401,4422,4441,4462,4480,4502,4520,4542,4561,4581,4602,4620,4642,4660,4681,4702,4722,4742,4760,4781,4801,4821,4842,4862,4882,4902,4922,4940,4961,4981,5001,5022,5040,5060,5082,5101,5121,5141,5161,5181,5201,5221,5242,5261,5281,5301,5322,5342,5360,5381,5402,5421,5442,5462,5480,5501,5521,5541,5562,5581,5602,5621,5641,5661,5682,5701,5722,5741,5760,5781,5801,5822,5841,5860,5881,5901,5921,5941,5961,5981,6000,6020,6042,6061,6081,6102,6121,6141,6161,6180,6201,6222,6241,6261,6281,6301,6322,6341,6361,6382,6401,6420,6441,6461,6481,6502,6521,6540,6561,6581,6601,6621,6641,6661,6680,6702,6722,6741,6761,6781,6801,6822,6841,6862,6881,6901,6920,6941,6962,6981,7002,7021,7042,7060,7081,7100,7120,7141,7162,7182,7201,7222,7241,7260,7281,7301,7321,7341,7361,7380,7401,7422,7441,7461,7482,7502,7522,7541,7561,7582,7602,7622,7642,7662,7681,7701,7720,7742,7762,7781,7801,7822,7841,7861,7882,7902,7922,7942,7961,7981,8001,8020,8041,8060,8082,8102,8121,8140,8160,8181,8202,8220,8241,8261,8282,8301,8322,8340,8361,8380,8401,8420,8441,8460,8481,8501,8521,8542,8561,8582,8601,8622,8640,8661,8681,8702,8722,8741,8761,8782,8800,8820,8841,8861,8881,8901,8921,8940,8960,8980,9001,9020,9042,9060,9080,9100,9121,9142,9161,9181,9200,9220,9242,9261,9281,9301,9322,9342,9362,9380,9402,9421,9441,9461,9480,9501,9520,9540,9561,9581,9602,9620,9642,9661,9682,9700,9721,9742,9761,9780,9800,9821,9840,9861,9881,9902,9920,9941,9961,9981,10001,10020,10041,10061,10081,10101,10120,10140,10162,10182,10201,10221,10241,10261,10282,10300,10322,10341,10361,10382,10401,10422,10441,10461,10480,10502,10522,10541,10562,10582,10601,10621,10641,10662,10681,10702,10721,10741,10761,10781,10801,10820,10841,10861,10881,10901,10921,10940,10962,10980,11002,11022,11040,11062,11081,11101,11121,11142,11160,11182,11202,11222,11240,11260,11282,11301,11321,11341,11361,11381,11402,11420,11441,11462,11480,11502,11522,11542,11561,11580,11601,11621,11640,11662,11680,11700,11722,11741,11761,11782,11802,11821,11841,11861,11882,11901,11920,11942,11962,11982,12002,12021,12040,12062,12081,12100,12121,12142,12161,12182,12201,12220,12240,12260,12282,12302,12320,12341,12361,12382,12402,12420,12440,12461,12480,12502,12522,12540,12562,12582,12602,12622,12641,12662,12682,12701,12721,12742,12760,12780,12802,12821,12841,12860,12882,12902,12921,12942,12961,12980,13002,13021,13040,13062,13081,13101,13120,13140,13160,13181,13201,13221,13240,13261,13280,13300,13320,13340,13361,13380,13400,13421,13441,13461,13481,13502,13521,13540,13561,13581,13600,13620,13641,13661,13680,13702,13721,13740,13761,13782,13802,13820,13841,13861,13881,13902,13920,13942,13961,13982,14002,14021,14041,14062,14081,14101,14122,14142,14162,14181,14200,14222,14242,14260,14282,14302,14322,14342,14361,14382,14402,14421,14441,14460,14482,14501,14520,14542,14561,14581,14602,14621,14641,14660,14682,14701,14722,14741,14760,14780,14801,14822,14842,14861,14881,14902,14921,14940,14960],"xSR":741.5,"ySR":479.7,"xT1":424.9,"yT1":0,"xT2":1058.1,"yT2":0,"toosoon":0,"cond_shown":"Incongruent","ratio_trial":300,"L_num":13,"L_den":26,"R_num":12,"R_den":15,"correct_side":2,"subjID":"SilvanaPinedaDuran16","gender":"1","age":"11","school":"6","test":{"fix_dur":[250,1500],"timestim":1000,"targets_dim":[100,100],"targets_relative_coord":[0.3,0.7],"size_stim":[880,420],"start_dim":[100,100],"size_start":[300,300],"size_fix":60,"samplingrate":20,"img_types":["Congruent","Incongruent"],"ratios":[100,200,300],"rep_conds":19,"nTrials":120,"trials_to_rest":500,"Trials_order":[59,8,97,1,92,72,95,103,76,51,68,114,22,10,119,102,5,29,9,52,46,40,113,26,34,79,66,47,84,49,18,60,94,54,6,21,15,30,42,41,80,55,4,20,28,39,106,86,116,67,115,64,85,96,27,48,71,111,43,17,93,82,24,108,112,110,105,100,58,0,104,50,11,38,31,53,32,98,13,12,69,91,3,44,19,63,62,45,109,74,81,117,7,25,2,61,65,118,87,16,37,107,101,70,35,83,89,99,88,90,57,75,78,77,56,23,14,36,33,73],"cond_shown":["Incongruent","Congruent","Incongruent","Incongruent","Congruent","Congruent","Incongruent","Incongruent","Congruent","Incongruent","Congruent","Congruent","Congruent","Congruent","Incongruent","Congruent","Incongruent","Incongruent","Incongruent","Congruent","Congruent","Congruent","Incongruent","Congruent","Congruent","Incongruent","Congruent","Incongruent","Congruent","Incongruent","Congruent","Congruent","Congruent","Congruent","Congruent","Incongruent","Incongruent","Congruent","Congruent","Incongruent","Congruent","Incongruent","Congruent","Congruent","Congruent","Incongruent","Congruent","Congruent","Congruent","Incongruent","Incongruent","Congruent","Incongruent","Congruent","Incongruent","Congruent","Incongruent","Incongruent","Incongruent","Incongruent","Incongruent","Congruent","Congruent","Congruent","Congruent","Congruent","Incongruent","Congruent","Congruent","Congruent","Congruent","Congruent","Incongruent","Congruent","Incongruent","Incongruent","Congruent","Congruent","Incongruent","Congruent","Incongruent","Incongruent","Incongruent","Congruent","Incongruent","Incongruent","Congruent","Incongruent","Incongruent","Congruent","Incongruent","Incongruent","Incongruent","Incongruent","Congruent","Incongruent","Incongruent","Congruent","Incongruent","Congruent","Incongruent","Incongruent","Incongruent","Congruent","Incongruent","Incongruent","Incongruent","Incongruent","Congruent","Congruent","Incongruent","Incongruent","Congruent","Incongruent","Congruent","Incongruent","Congruent","Congruent","Incongruent","Incongruent"],"ratio_trial":[300,200,100,100,200,100,300,100,300,200,200,100,300,300,300,100,300,300,200,300,300,300,300,200,300,100,100,300,100,100,100,100,300,100,100,200,200,100,100,300,200,100,300,200,300,200,300,200,200,100,100,300,100,100,200,100,300,200,100,300,200,300,100,100,300,200,200,300,300,100,200,200,300,200,100,300,200,200,100,100,200,100,200,200,100,200,200,200,100,200,200,200,100,100,200,100,300,300,200,300,100,300,300,300,300,300,300,200,300,100,200,200,100,300,200,300,200,100,200,100],"left_num":[13,8,3,3,3,4,4,10,20,7,7,7,24,9,13,4,13,13,4,1,2,5,1,3,20,6,1,4,3,4,4,1,18,8,8,11,1,6,3,4,6,3,2,21,11,7,3,3,1,9,8,9,10,6,11,7,4,14,2,2,4,4,9,6,1,5,1,5,20,3,8,12,4,9,9,1,21,3,11,2,1,10,7,7,2,14,6,1,8,6,7,7,4,6,6,3,1,12,11,24,3,2,1,12,13,2,4,4,11,11,7,4,2,4,14,13,15,1,14,6],"right_num":[12,3,11,11,11,15,2,8,8,6,18,9,2,3,12,15,12,12,14,11,10,6,3,11,5,13,3,2,2,8,6,18,9,2,2,3,2,5,2,6,7,4,12,2,1,12,4,9,21,20,1,3,8,5,3,15,8,6,8,6,1,2,8,5,3,14,3,7,13,2,3,6,2,13,20,2,2,9,9,11,2,8,12,2,6,6,11,2,6,7,14,4,8,7,3,7,3,2,3,2,8,6,3,2,12,6,2,6,2,6,14,6,6,2,6,12,4,3,12,7],"left_den":[26,15,5,5,10,10,20,25,25,15,15,14,30,10,26,10,26,26,6,5,20,25,2,10,25,10,2,20,6,8,8,2,20,16,16,20,3,20,6,5,12,6,10,30,22,10,6,12,2,10,20,10,25,20,20,14,5,30,4,4,30,5,15,20,5,10,2,25,25,6,15,15,20,30,10,2,30,12,22,5,3,25,10,21,4,30,20,3,16,12,10,15,8,10,15,9,2,24,20,30,5,4,2,24,26,4,20,5,22,22,10,5,5,20,28,26,25,2,30,10],"right_den":[15,9,22,22,22,30,4,16,16,9,27,15,4,5,15,30,15,15,30,22,25,12,15,22,10,26,5,4,5,20,10,30,15,5,5,4,15,25,5,12,10,10,24,4,5,24,5,20,30,25,2,5,16,25,4,25,16,9,20,30,3,4,16,25,6,20,10,14,26,5,9,10,4,26,25,10,4,20,15,22,15,16,24,15,15,9,22,15,10,10,28,6,20,14,15,30,15,10,4,4,16,30,15,10,15,30,4,10,10,15,28,10,12,4,20,15,10,5,18,14],"correct_side":[2,1,1,1,2,2,2,2,1,2,2,2,1,1,2,2,2,2,1,2,2,2,1,2,1,1,2,2,1,1,2,2,1,1,1,2,1,1,1,1,2,1,2,1,1,1,2,2,2,1,2,1,2,1,2,2,1,2,1,1,2,1,1,1,2,2,1,2,1,1,1,1,2,2,1,1,1,2,2,2,1,2,1,1,1,2,2,1,2,2,1,2,1,1,1,1,1,1,2,1,1,1,1,1,2,1,2,1,1,1,1,1,2,2,1,2,1,2,2,1],"img_shown":["img2/300/Incongruent/R/I_Dist_300_LN_13_LD_26_RN_12_RD_15_1.png","img2/200/Congruent/L/C_Dist_200_LN_8_LD_15_RN_3_RD_9_0.png","img2/100/Incongruent/L/I_Dist_100_LN_3_LD_5_RN_11_RD_22_0.png","img2/100/Incongruent/L/I_Dist_100_LN_3_LD_5_RN_11_RD_22_0.png","img2/200/Congruent/R/C_Dist_200_LN_3_LD_10_RN_11_RD_22_1.png","img2/100/Congruent/R/C_Dist_100_LN_4_LD_10_RN_15_RD_30_1.png","img2/300/Incongruent/R/I_Dist_300_LN_4_LD_20_RN_2_RD_4_1.png","img2/100/Incongruent/R/I_Dist_100_LN_10_LD_25_RN_8_RD_16_1.png","img2/300/Congruent/L/C_Dist_300_LN_20_LD_25_RN_8_RD_16_0.png","img2/200/Incongruent/R/I_Dist_200_LN_7_LD_15_RN_6_RD_9_1.png","img2/200/Congruent/R/C_Dist_200_LN_7_LD_15_RN_18_RD_27_1.png","img2/100/Congruent/R/C_Dist_100_LN_7_LD_14_RN_9_RD_15_1.png","img2/300/Congruent/L/C_Dist_300_LN_24_LD_30_RN_2_RD_4_0.png","img2/300/Congruent/L/C_Dist_300_LN_9_LD_10_RN_3_RD_5_0.png","img2/300/Incongruent/R/I_Dist_300_LN_13_LD_26_RN_12_RD_15_1.png","img2/100/Congruent/R/C_Dist_100_LN_4_LD_10_RN_15_RD_30_1.png","img2/300/Incongruent/R/I_Dist_300_LN_13_LD_26_RN_12_RD_15_1.png","img2/300/Incongruent/R/I_Dist_300_LN_13_LD_26_RN_12_RD_15_1.png","img2/200/Incongruent/L/I_Dist_200_LN_4_LD_6_RN_14_RD_30_0.png","img2/300/Congruent/R/C_Dist_300_LN_1_LD_5_RN_11_RD_22_1.png","img2/300/Congruent/R/C_Dist_300_LN_2_LD_20_RN_10_RD_25_1.png","img2/300/Congruent/R/C_Dist_300_LN_5_LD_25_RN_6_RD_12_1.png","img2/300/Incongruent/L/I_Dist_300_LN_1_LD_2_RN_3_RD_15_0.png","img2/200/Congruent/R/C_Dist_200_LN_3_LD_10_RN_11_RD_22_1.png","img2/300/Congruent/L/C_Dist_300_LN_20_LD_25_RN_5_RD_10_0.png","img2/100/Incongruent/L/I_Dist_100_LN_6_LD_10_RN_13_RD_26_0.png","img2/100/Congruent/R/C_Dist_100_LN_1_LD_2_RN_3_RD_5_1.png","img2/300/Incongruent/R/I_Dist_300_LN_4_LD_20_RN_2_RD_4_1.png","img2/100/Congruent/L/C_Dist_100_LN_3_LD_6_RN_2_RD_5_0.png","img2/100/Incongruent/L/I_Dist_100_LN_4_LD_8_RN_8_RD_20_0.png","img2/100/Congruent/R/C_Dist_100_LN_4_LD_8_RN_6_RD_10_1.png","img2/100/Congruent/R/C_Dist_100_LN_1_LD_2_RN_18_RD_30_1.png","img2/300/Congruent/L/C_Dist_300_LN_18_LD_20_RN_9_RD_15_0.png","img2/100/Congruent/L/C_Dist_100_LN_8_LD_16_RN_2_RD_5_0.png","img2/100/Congruent/L/C_Dist_100_LN_8_LD_16_RN_2_RD_5_0.png","img2/200/Incongruent/R/I_Dist_200_LN_11_LD_20_RN_3_RD_4_1.png","img2/200/Incongruent/L/I_Dist_200_LN_1_LD_3_RN_2_RD_15_0.png","img2/100/Congruent/L/C_Dist_100_LN_6_LD_20_RN_5_RD_25_0.png","img2/100/Congruent/L/C_Dist_100_LN_3_LD_6_RN_2_RD_5_0.png","img2/300/Incongruent/L/I_Dist_300_LN_4_LD_5_RN_6_RD_12_0.png","img2/200/Congruent/R/C_Dist_200_LN_6_LD_12_RN_7_RD_10_1.png","img2/100/Incongruent/L/I_Dist_100_LN_3_LD_6_RN_4_RD_10_0.png","img2/300/Congruent/R/C_Dist_300_LN_2_LD_10_RN_12_RD_24_1.png","img2/200/Congruent/L/C_Dist_200_LN_21_LD_30_RN_2_RD_4_0.png","img2/300/Congruent/L/C_Dist_300_LN_11_LD_22_RN_1_RD_5_0.png","img2/200/Incongruent/L/I_Dist_200_LN_7_LD_10_RN_12_RD_24_0.png","img2/300/Congruent/R/C_Dist_300_LN_3_LD_6_RN_4_RD_5_1.png","img2/200/Congruent/R/C_Dist_200_LN_3_LD_12_RN_9_RD_20_1.png","img2/200/Congruent/R/C_Dist_200_LN_1_LD_2_RN_21_RD_30_1.png","img2/100/Incongruent/L/I_Dist_100_LN_9_LD_10_RN_20_RD_25_0.png","img2/100/Incongruent/R/I_Dist_100_LN_8_LD_20_RN_1_RD_2_1.png","img2/300/Congruent/L/C_Dist_300_LN_9_LD_10_RN_3_RD_5_0.png","img2/100/Incongruent/R/I_Dist_100_LN_10_LD_25_RN_8_RD_16_1.png","img2/100/Congruent/L/C_Dist_100_LN_6_LD_20_RN_5_RD_25_0.png","img2/200/Incongruent/R/I_Dist_200_LN_11_LD_20_RN_3_RD_4_1.png","img2/100/Congruent/R/C_Dist_100_LN_7_LD_14_RN_15_RD_25_1.png","img2/300/Incongruent/L/I_Dist_300_LN_4_LD_5_RN_8_RD_16_0.png","img2/200/Incongruent/R/I_Dist_200_LN_14_LD_30_RN_6_RD_9_1.png","img2/100/Incongruent/L/I_Dist_100_LN_2_LD_4_RN_8_RD_20_0.png","img2/300/Incongruent/L/I_Dist_300_LN_2_LD_4_RN_6_RD_30_0.png","img2/200/Incongruent/R/I_Dist_200_LN_4_LD_30_RN_1_RD_3_1.png","img2/300/Congruent/L/C_Dist_300_LN_4_LD_5_RN_2_RD_4_0.png","img2/100/Congruent/L/C_Dist_100_LN_9_LD_15_RN_8_RD_16_0.png","img2/100/Congruent/L/C_Dist_100_LN_6_LD_20_RN_5_RD_25_0.png","img2/300/Congruent/R/C_Dist_300_LN_1_LD_5_RN_3_RD_6_1.png","img2/200/Congruent/R/C_Dist_200_LN_5_LD_10_RN_14_RD_20_1.png","img2/200/Incongruent/L/I_Dist_200_LN_1_LD_2_RN_3_RD_10_0.png","img2/300/Congruent/R/C_Dist_300_LN_5_LD_25_RN_7_RD_14_1.png","img2/300/Congruent/L/C_Dist_300_LN_20_LD_25_RN_13_RD_26_0.png","img2/100/Congruent/L/C_Dist_100_LN_3_LD_6_RN_2_RD_5_0.png","img2/200/Congruent/L/C_Dist_200_LN_8_LD_15_RN_3_RD_9_0.png","img2/200/Congruent/L/C_Dist_200_LN_12_LD_15_RN_6_RD_10_0.png","img2/300/Incongruent/R/I_Dist_300_LN_4_LD_20_RN_2_RD_4_1.png","img2/200/Congruent/R/C_Dist_200_LN_9_LD_30_RN_13_RD_26_1.png","img2/100/Incongruent/L/I_Dist_100_LN_9_LD_10_RN_20_RD_25_0.png","img2/300/Incongruent/L/I_Dist_300_LN_1_LD_2_RN_2_RD_10_0.png","img2/200/Congruent/L/C_Dist_200_LN_21_LD_30_RN_2_RD_4_0.png","img2/200/Congruent/R/C_Dist_200_LN_3_LD_12_RN_9_RD_20_1.png","img2/100/Incongruent/R/I_Dist_100_LN_11_LD_22_RN_9_RD_15_1.png","img2/100/Congruent/R/C_Dist_100_LN_2_LD_5_RN_11_RD_22_1.png","img2/200/Incongruent/L/I_Dist_200_LN_1_LD_3_RN_2_RD_15_0.png","img2/100/Incongruent/R/I_Dist_100_LN_10_LD_25_RN_8_RD_16_1.png","img2/200/Incongruent/L/I_Dist_200_LN_7_LD_10_RN_12_RD_24_0.png","img2/200/Congruent/L/C_Dist_200_LN_7_LD_21_RN_2_RD_15_0.png","img2/100/Incongruent/L/I_Dist_100_LN_2_LD_4_RN_6_RD_15_0.png","img2/200/Incongruent/R/I_Dist_200_LN_14_LD_30_RN_6_RD_9_1.png","img2/200/Congruent/R/C_Dist_200_LN_6_LD_20_RN_11_RD_22_1.png","img2/200/Incongruent/L/I_Dist_200_LN_1_LD_3_RN_2_RD_15_0.png","img2/100/Incongruent/R/I_Dist_100_LN_8_LD_16_RN_6_RD_10_1.png","img2/200/Congruent/R/C_Dist_200_LN_6_LD_12_RN_7_RD_10_1.png","img2/200/Incongruent/L/I_Dist_200_LN_7_LD_10_RN_14_RD_28_0.png","img2/200/Incongruent/R/I_Dist_200_LN_7_LD_15_RN_4_RD_6_1.png","img2/100/Incongruent/L/I_Dist_100_LN_4_LD_8_RN_8_RD_20_0.png","img2/100/Incongruent/L/I_Dist_100_LN_6_LD_10_RN_7_RD_14_0.png","img2/200/Congruent/L/C_Dist_200_LN_6_LD_15_RN_3_RD_15_0.png","img2/100/Incongruent/L/I_Dist_100_LN_3_LD_9_RN_7_RD_30_0.png","img2/300/Incongruent/L/I_Dist_300_LN_1_LD_2_RN_3_RD_15_0.png","img2/300/Congruent/L/C_Dist_300_LN_12_LD_24_RN_2_RD_10_0.png","img2/200/Incongruent/R/I_Dist_200_LN_11_LD_20_RN_3_RD_4_1.png","img2/300/Congruent/L/C_Dist_300_LN_24_LD_30_RN_2_RD_4_0.png","img2/100/Incongruent/L/I_Dist_100_LN_3_LD_5_RN_8_RD_16_0.png","img2/300/Incongruent/L/I_Dist_300_LN_2_LD_4_RN_6_RD_30_0.png","img2/300/Incongruent/L/I_Dist_300_LN_1_LD_2_RN_3_RD_15_0.png","img2/300/Congruent/L/C_Dist_300_LN_12_LD_24_RN_2_RD_10_0.png","img2/300/Incongruent/R/I_Dist_300_LN_13_LD_26_RN_12_RD_15_1.png","img2/300/Incongruent/L/I_Dist_300_LN_2_LD_4_RN_6_RD_30_0.png","img2/300/Incongruent/R/I_Dist_300_LN_4_LD_20_RN_2_RD_4_1.png","img2/200/Incongruent/L/I_Dist_200_LN_4_LD_5_RN_6_RD_10_0.png","img2/300/Congruent/L/C_Dist_300_LN_11_LD_22_RN_2_RD_10_0.png","img2/100/Congruent/L/C_Dist_100_LN_11_LD_22_RN_6_RD_15_0.png","img2/200/Incongruent/L/I_Dist_200_LN_7_LD_10_RN_14_RD_28_0.png","img2/200/Incongruent/L/I_Dist_200_LN_4_LD_5_RN_6_RD_10_0.png","img2/100/Congruent/R/C_Dist_100_LN_2_LD_5_RN_6_RD_12_1.png","img2/300/Incongruent/R/I_Dist_300_LN_4_LD_20_RN_2_RD_4_1.png","img2/200/Congruent/L/C_Dist_200_LN_14_LD_28_RN_6_RD_20_0.png","img2/300/Incongruent/R/I_Dist_300_LN_13_LD_26_RN_12_RD_15_1.png","img2/200/Congruent/L/C_Dist_200_LN_15_LD_25_RN_4_RD_10_0.png","img2/100/Congruent/R/C_Dist_100_LN_1_LD_2_RN_3_RD_5_1.png","img2/200/Incongruent/R/I_Dist_200_LN_14_LD_30_RN_12_RD_18_1.png","img2/100/Incongruent/L/I_Dist_100_LN_6_LD_10_RN_7_RD_14_0.png"],"dist100_C":[["C_Dist_100_LN_10_LD_25_RN_3_RD_10_0.png","C_Dist_100_LN_11_LD_22_RN_4_RD_10_0.png","C_Dist_100_LN_11_LD_22_RN_6_RD_15_0.png","C_Dist_100_LN_15_LD_25_RN_13_RD_26_0.png","C_Dist_100_LN_3_LD_6_RN_2_RD_5_0.png","C_Dist_100_LN_6_LD_20_RN_5_RD_25_0.png","C_Dist_100_LN_8_LD_16_RN_2_RD_5_0.png","C_Dist_100_LN_9_LD_15_RN_8_RD_16_0.png"],["C_Dist_100_LN_1_LD_2_RN_18_RD_30_1.png","C_Dist_100_LN_1_LD_2_RN_3_RD_5_1.png","C_Dist_100_LN_12_LD_30_RN_13_RD_26_1.png","C_Dist_100_LN_2_LD_5_RN_11_RD_22_1.png","C_Dist_100_LN_2_LD_5_RN_6_RD_12_1.png","C_Dist_100_LN_3_LD_20_RN_4_RD_16_1.png","C_Dist_100_LN_4_LD_10_RN_15_RD_30_1.png","C_Dist_100_LN_4_LD_8_RN_6_RD_10_1.png","C_Dist_100_LN_6_LD_12_RN_15_RD_25_1.png","C_Dist_100_LN_7_LD_14_RN_15_RD_25_1.png","C_Dist_100_LN_7_LD_14_RN_9_RD_15_1.png"]],"dist100_I":[["I_Dist_100_LN_1_LD_2_RN_8_RD_20_0.png","I_Dist_100_LN_2_LD_4_RN_6_RD_15_0.png","I_Dist_100_LN_2_LD_4_RN_8_RD_20_0.png","I_Dist_100_LN_3_LD_5_RN_11_RD_22_0.png","I_Dist_100_LN_3_LD_5_RN_8_RD_16_0.png","I_Dist_100_LN_3_LD_6_RN_4_RD_10_0.png","I_Dist_100_LN_3_LD_9_RN_7_RD_30_0.png","I_Dist_100_LN_4_LD_8_RN_8_RD_20_0.png","I_Dist_100_LN_6_LD_10_RN_11_RD_22_0.png","I_Dist_100_LN_6_LD_10_RN_13_RD_26_0.png","I_Dist_100_LN_6_LD_10_RN_7_RD_14_0.png","I_Dist_100_LN_9_LD_10_RN_20_RD_25_0.png","I_Dist_100_LN_9_LD_15_RN_13_RD_26_0.png","I_Dist_100_LN_9_LD_15_RN_14_RD_28_0.png"],["I_Dist_100_LN_10_LD_25_RN_8_RD_16_1.png","I_Dist_100_LN_10_LD_25_RN_9_RD_18_1.png","I_Dist_100_LN_11_LD_22_RN_9_RD_15_1.png","I_Dist_100_LN_12_LD_24_RN_9_RD_15_1.png","I_Dist_100_LN_12_LD_30_RN_2_RD_4_1.png","I_Dist_100_LN_13_LD_26_RN_12_RD_20_1.png","I_Dist_100_LN_13_LD_26_RN_6_RD_10_1.png","I_Dist_100_LN_17_LD_30_RN_10_RD_15_1.png","I_Dist_100_LN_6_LD_12_RN_3_RD_5_1.png","I_Dist_100_LN_8_LD_16_RN_6_RD_10_1.png","I_Dist_100_LN_8_LD_20_RN_1_RD_2_1.png","I_Dist_100_LN_9_LD_18_RN_6_RD_10_1.png"]],"dist100_S":[["E_Dist_100_LN_2_LD_12_RN_2_RD_30_0.png","E_Dist_100_LN_6_LD_10_RN_6_RD_12_0.png"],["E_Dist_100_LN_6_LD_12_RN_6_RD_10_1.png"]],"dist200_C":[["C_Dist_200_LN_11_LD_22_RN_3_RD_10_0.png","C_Dist_200_LN_12_LD_15_RN_6_RD_10_0.png","C_Dist_200_LN_12_LD_20_RN_6_RD_15_0.png","C_Dist_200_LN_14_LD_28_RN_6_RD_20_0.png","C_Dist_200_LN_15_LD_25_RN_4_RD_10_0.png","C_Dist_200_LN_16_LD_20_RN_12_RD_20_0.png","C_Dist_200_LN_16_LD_30_RN_9_RD_27_0.png","C_Dist_200_LN_20_LD_25_RN_9_RD_15_0.png","C_Dist_200_LN_21_LD_30_RN_2_RD_4_0.png","C_Dist_200_LN_4_LD_10_RN_3_RD_15_0.png","C_Dist_200_LN_4_LD_8_RN_3_RD_10_0.png","C_Dist_200_LN_6_LD_15_RN_3_RD_15_0.png","C_Dist_200_LN_7_LD_21_RN_2_RD_15_0.png","C_Dist_200_LN_8_LD_15_RN_2_RD_6_0.png","C_Dist_200_LN_8_LD_15_RN_3_RD_9_0.png","C_Dist_200_LN_8_LD_15_RN_7_RD_21_0.png","C_Dist_200_LN_9_LD_20_RN_4_RD_16_0.png"],["C_Dist_200_LN_1_LD_2_RN_21_RD_30_1.png","C_Dist_200_LN_13_LD_26_RN_14_RD_20_1.png","C_Dist_200_LN_3_LD_10_RN_11_RD_22_1.png","C_Dist_200_LN_3_LD_10_RN_14_RD_28_1.png","C_Dist_200_LN_3_LD_10_RN_7_RD_14_1.png","C_Dist_200_LN_3_LD_12_RN_9_RD_20_1.png","C_Dist_200_LN_3_LD_6_RN_14_RD_20_1.png","C_Dist_200_LN_5_LD_10_RN_14_RD_20_1.png","C_Dist_200_LN_6_LD_12_RN_7_RD_10_1.png","C_Dist_200_LN_6_LD_20_RN_11_RD_22_1.png","C_Dist_200_LN_7_LD_15_RN_18_RD_27_1.png","C_Dist_200_LN_9_LD_30_RN_13_RD_26_1.png"]],"dist200_I":[["I_Dist_200_LN_1_LD_2_RN_3_RD_10_0.png","I_Dist_200_LN_1_LD_3_RN_2_RD_15_0.png","I_Dist_200_LN_3_LD_4_RN_11_RD_20_0.png","I_Dist_200_LN_4_LD_5_RN_6_RD_10_0.png","I_Dist_200_LN_4_LD_6_RN_14_RD_30_0.png","I_Dist_200_LN_7_LD_10_RN_12_RD_24_0.png","I_Dist_200_LN_7_LD_10_RN_14_RD_28_0.png","I_Dist_200_LN_7_LD_10_RN_8_RD_16_0.png"],["I_Dist_200_LN_11_LD_20_RN_3_RD_4_1.png","I_Dist_200_LN_14_LD_30_RN_12_RD_18_1.png","I_Dist_200_LN_14_LD_30_RN_6_RD_9_1.png","I_Dist_200_LN_3_LD_10_RN_1_RD_2_1.png","I_Dist_200_LN_4_LD_30_RN_1_RD_3_1.png","I_Dist_200_LN_6_LD_20_RN_3_RD_6_1.png","I_Dist_200_LN_7_LD_15_RN_4_RD_6_1.png","I_Dist_200_LN_7_LD_15_RN_6_RD_9_1.png","I_Dist_200_LN_9_LD_15_RN_8_RD_10_1.png"]],"dist200_S":[["E_Dist_200_LN_3_LD_6_RN_3_RD_10_0.png"],["E_Dist_200_LN_3_LD_10_RN_3_RD_6_1.png"]],"dist300_C":[["C_Dist_300_LN_11_LD_22_RN_1_RD_5_0.png","C_Dist_300_LN_11_LD_22_RN_2_RD_10_0.png","C_Dist_300_LN_11_LD_22_RN_4_RD_20_0.png","C_Dist_300_LN_12_LD_24_RN_2_RD_10_0.png","C_Dist_300_LN_18_LD_20_RN_9_RD_15_0.png","C_Dist_300_LN_20_LD_25_RN_13_RD_26_0.png","C_Dist_300_LN_20_LD_25_RN_14_RD_28_0.png","C_Dist_300_LN_20_LD_25_RN_5_RD_10_0.png","C_Dist_300_LN_20_LD_25_RN_8_RD_16_0.png","C_Dist_300_LN_20_LD_25_RN_9_RD_18_0.png","C_Dist_300_LN_24_LD_30_RN_2_RD_4_0.png","C_Dist_300_LN_24_LD_30_RN_8_RD_16_0.png","C_Dist_300_LN_3_LD_6_RN_2_RD_10_0.png","C_Dist_300_LN_4_LD_10_RN_1_RD_10_0.png","C_Dist_300_LN_4_LD_5_RN_2_RD_4_0.png","C_Dist_300_LN_8_LD_16_RN_1_RD_5_0.png","C_Dist_300_LN_9_LD_10_RN_3_RD_5_0.png"],["C_Dist_300_LN_1_LD_20_RN_7_RD_20_1.png","C_Dist_300_LN_1_LD_3_RN_19_RD_30_1.png","C_Dist_300_LN_1_LD_30_RN_8_RD_24_1.png","C_Dist_300_LN_1_LD_5_RN_11_RD_22_1.png","C_Dist_300_LN_1_LD_5_RN_3_RD_6_1.png","C_Dist_300_LN_1_LD_5_RN_6_RD_12_1.png","C_Dist_300_LN_2_LD_10_RN_12_RD_24_1.png","C_Dist_300_LN_2_LD_20_RN_10_RD_25_1.png","C_Dist_300_LN_3_LD_12_RN_11_RD_20_1.png","C_Dist_300_LN_3_LD_6_RN_4_RD_5_1.png","C_Dist_300_LN_4_LD_20_RN_13_RD_26_1.png","C_Dist_300_LN_5_LD_25_RN_6_RD_12_1.png","C_Dist_300_LN_5_LD_25_RN_7_RD_14_1.png","C_Dist_300_LN_7_LD_14_RN_20_RD_25_1.png","C_Dist_300_LN_8_LD_15_RN_10_RD_12_1.png"]],"dist300_I":[["I_Dist_300_LN_1_LD_2_RN_2_RD_10_0.png","I_Dist_300_LN_1_LD_2_RN_3_RD_15_0.png","I_Dist_300_LN_2_LD_4_RN_6_RD_30_0.png","I_Dist_300_LN_3_LD_6_RN_4_RD_20_0.png","I_Dist_300_LN_4_LD_5_RN_6_RD_12_0.png","I_Dist_300_LN_4_LD_5_RN_8_RD_16_0.png","I_Dist_300_LN_7_LD_10_RN_8_RD_20_0.png","I_Dist_300_LN_8_LD_10_RN_14_RD_28_0.png","I_Dist_300_LN_8_LD_10_RN_9_RD_18_0.png"],["I_Dist_300_LN_13_LD_26_RN_12_RD_15_1.png","I_Dist_300_LN_4_LD_20_RN_2_RD_4_1.png"]],"dist300_S":[["E_Dist_300_LN_9_LD_12_RN_9_RD_20_0.png"],["E_Dist_300_LN_18_LD_30_RN_18_RD_20_1.png","E_Dist_300_LN_3_LD_10_RN_3_RD_5_1.png","E_Dist_300_LN_9_LD_20_RN_9_RD_12_1.png"]],"dist500_C":[["C_Dist_500_LN_10_LD_13_RN_7_RD_26_0.png","C_Dist_500_LN_10_LD_15_RN_4_RD_24_0.png","C_Dist_500_LN_12_LD_16_RN_3_RD_12_0.png","C_Dist_500_LN_12_LD_18_RN_4_RD_24_0.png","C_Dist_500_LN_15_LD_18_RN_5_RD_15_0.png","C_Dist_500_LN_15_LD_20_RN_1_RD_4_0.png","C_Dist_500_LN_18_LD_27_RN_1_RD_6_0.png","C_Dist_500_LN_20_LD_24_RN_1_RD_3_0.png","C_Dist_500_LN_20_LD_24_RN_3_RD_9_0.png","C_Dist_500_LN_20_LD_24_RN_7_RD_21_0.png","C_Dist_500_LN_20_LD_28_RN_3_RD_14_0.png","C_Dist_500_LN_21_LD_28_RN_6_RD_24_0.png","C_Dist_500_LN_22_LD_28_RN_2_RD_7_0.png","C_Dist_500_LN_25_LD_30_RN_9_RD_27_0.png","C_Dist_500_LN_4_LD_6_RN_1_RD_6_0.png","C_Dist_500_LN_5_LD_6_RN_2_RD_6_0.png","C_Dist_500_LN_6_LD_9_RN_1_RD_6_0.png","C_Dist_500_LN_7_LD_10_RN_1_RD_5_0.png","C_Dist_500_LN_8_LD_12_RN_1_RD_6_0.png","C_Dist_500_LN_8_LD_12_RN_4_RD_24_0.png"],["C_Dist_500_LN_1_LD_4_RN_12_RD_16_1.png","C_Dist_500_LN_1_LD_4_RN_9_RD_12_1.png","C_Dist_500_LN_1_LD_9_RN_11_RD_18_1.png","C_Dist_500_LN_10_LD_24_RN_22_RD_24_1.png","C_Dist_500_LN_2_LD_12_RN_10_RD_15_1.png","C_Dist_500_LN_2_LD_12_RN_12_RD_18_1.png","C_Dist_500_LN_2_LD_12_RN_4_RD_6_1.png","C_Dist_500_LN_2_LD_24_RN_7_RD_12_1.png","C_Dist_500_LN_2_LD_5_RN_18_RD_20_1.png","C_Dist_500_LN_2_LD_5_RN_9_RD_10_1.png","C_Dist_500_LN_2_LD_8_RN_12_RD_16_1.png","C_Dist_500_LN_2_LD_8_RN_21_RD_28_1.png","C_Dist_500_LN_3_LD_10_RN_4_RD_5_1.png","C_Dist_500_LN_3_LD_12_RN_15_RD_20_1.png","C_Dist_500_LN_3_LD_30_RN_6_RD_10_1.png","C_Dist_500_LN_3_LD_8_RN_14_RD_16_1.png","C_Dist_500_LN_4_LD_16_RN_15_RD_20_1.png","C_Dist_500_LN_4_LD_24_RN_12_RD_18_1.png","C_Dist_500_LN_5_LD_14_RN_6_RD_7_1.png","C_Dist_500_LN_7_LD_21_RN_20_RD_24_1.png","C_Dist_500_LN_7_LD_28_RN_12_RD_16_1.png","C_Dist_500_LN_7_LD_28_RN_9_RD_12_1.png","C_Dist_500_LN_9_LD_27_RN_20_RD_24_1.png"]],"dist500_I":[["I_Dist_500_LN_2_LD_3_RN_4_RD_24_0.png","I_Dist_500_LN_5_LD_6_RN_6_RD_18_0.png","I_Dist_500_LN_7_LD_8_RN_9_RD_24_0.png"],["I_Dist_500_LN_7_LD_21_RN_5_RD_6_1.png"]],"dist500_S":[["E_Dist_500_LN_6_LD_8_RN_6_RD_24_0.png"],["E_Dist_500_LN_2_LD_12_RN_2_RD_3_1.png","E_Dist_500_LN_6_LD_24_RN_6_RD_8_1.png"]]}},{"start_time":1551880619781,"click_time":1551880622298,"finger_time":1551880622156,"fix_duration":1324.3328315953577,"trial":1,"RT":2375,"MT":142,"sideResp":1,"stimulus":[],"xmouse":[796,796,796,796,796,796,796,796,796,796,796,796,796,796,796,796,796,796,796,796,796,796,796,796,796,796,796,796,796,796,796,796,796,796,796,796,796,796,796,796,796,796,796,796,796,796,796,796,796,796,796,796,796,796,796,796,796,796,796,796,796,796,796,796,796,796,796,796,796,796,796,796,796,796,796,796,796,796,796,796,796,796,796,796,796,796,796,796,796,796,796,796,796,796,796,796,796,796,796,796,796,796,796,796,796,796,796,796,796,796,796,796,796,796,796,796,796,796,781,753,714,627,582,538,482,456],"ymouse":[626,626,626,626,626,626,626,626,626,626,626,626,626,626,626,626,626,626,626,626,626,626,626,626,626,626,626,626,626,626,626,626,626,626,626,626,626,626,626,626,626,626,626,626,626,626,626,626,626,626,626,626,626,626,626,626,626,626,626,626,626,626,626,626,626,626,626,626,626,626,626,626,626,626,626,626,626,626,626,626,626,626,626,626,626,626,626,626,626,626,626,626,626,626,626,626,626,626,626,626,626,626,626,626,626,626,626,626,626,626,626,626,626,626,626,626,626,624,573,503,443,320,260,197,111,65],"timestamp_mouse":[14,43,54,75,95,116,135,155,175,196,214,234,254,275,295,315,336,355,376,396,416,434,455,475,494,514,534,555,576,595,614,636,656,676,695,716,735,755,774,795,815,835,854,874,894,914,934,954,974,994,1014,1034,1054,1074,1094,1114,1134,1154,1175,1195,1215,1235,1255,1276,1295,1315,1334,1355,1375,1394,1415,1436,1454,1474,1495,1515,1535,1555,1576,1595,1616,1636,1656,1674,1695,1714,1736,1754,1776,1796,1815,1835,1855,1876,1894,1915,1936,1955,1976,1996,2014,2036,2056,2076,2096,2114,2136,2156,2174,2194,2216,2236,2255,2275,2296,2314,2335,2355,2375,2394,2415,2434,2455,2475,2496,2516],"xSR":741.5,"ySR":573.95,"xT1":424.9,"yT1":0,"xT2":1058.1,"yT2":0,"toosoon":0,"cond_shown":"Congruent","ratio_trial":200,"L_num":8,"L_den":15,"R_num":3,"R_den":9,"correct_side":1,"subjID":"SilvanaPinedaDuran16","gender":"1","school":"6","age":"11"},{"start_time":1551880625048,"click_time":1551880626676,"finger_time":1551880626315,"fix_duration":250,"trial":2,"RT":1267,"MT":361,"sideResp":1,"stimulus":[],"xmouse":[784,784,784,784,784,784,784,784,784,784,784,784,784,784,784,784,784,784,784,784,784,784,784,784,784,784,784,784,784,784,780,771,765,760,760,759,759,759,759,759,759,759,759,759,759,759,759,759,759,759,759,759,759,759,759,759,759,759,759,759,759,758,757,734,714,693,667,644,612,592,576,565,561,545,539,537,537,537,536,532,525,518],"ymouse":[600,600,600,600,600,600,600,600,600,600,600,600,600,600,600,600,600,600,600,600,600,600,600,600,600,600,600,600,600,600,600,598,595,593,593,593,593,593,593,593,593,593,593,593,593,593,593,593,593,593,593,593,593,593,593,593,593,593,593,593,593,591,581,500,425,336,252,186,84,41,5,0,0,0,0,0,0,0,0,13,32,57],"timestamp_mouse":[10,28,47,68,89,109,129,148,169,188,209,227,249,268,287,309,328,348,367,388,408,427,448,468,487,509,529,548,569,589,608,627,647,669,687,707,728,749,767,787,808,828,847,869,888,908,929,948,967,989,1009,1028,1048,1068,1087,1108,1128,1148,1169,1187,1207,1228,1248,1267,1288,1308,1328,1349,1368,1388,1408,1428,1448,1468,1487,1508,1527,1548,1567,1587,1608,1628],"xSR":741.5,"ySR":573.95,"xT1":424.9,"yT1":0,"xT2":1058.1,"yT2":0,"toosoon":0,"cond_shown":"Incongruent","ratio_trial":100,"L_num":3,"L_den":5,"R_num":11,"R_den":22,"correct_side":1,"subjID":"SilvanaPinedaDuran16","gender":"1","school":"6","age":"11"},{"start_time":1551880634719,"click_time":1551880636297,"finger_time":1551880635836,"fix_duration":342.10346272709467,"trial":3,"RT":1117,"MT":461,"sideResp":1,"stimulus":[],"xmouse":[785,785,785,785,785,785,785,785,785,785,785,785,785,785,785,785,785,785,785,785,785,785,785,785,785,785,785,785,785,785,785,785,785,785,785,785,785,785,785,785,785,785,785,785,785,785,785,785,785,785,785,785,781,776,766,758,749,733,722,693,678,664,653,642,625,617,603,598,588,576,569,565,563,561,556,552,545,530,508],"ymouse":[610,610,610,610,610,610,610,610,610,610,610,610,610,610,610,610,610,610,610,610,610,610,610,610,610,610,610,610,610,610,610,610,610,610,610,610,610,610,610,610,610,610,610,610,610,610,610,610,610,610,610,610,607,600,583,571,558,535,515,465,430,391,352,314,251,223,186,174,138,96,79,67,63,60,56,54,50,40,14],"timestamp_mouse":[18,38,57,78,97,117,138,156,178,197,216,238,256,278,298,318,336,358,378,397,417,436,457,477,497,518,538,558,576,598,618,636,657,676,698,717,737,757,777,798,818,838,858,876,898,918,938,957,978,997,1018,1036,1056,1077,1096,1117,1137,1157,1177,1198,1217,1236,1256,1277,1296,1316,1336,1357,1377,1396,1417,1436,1458,1477,1497,1517,1537,1557,1578],"xSR":741.5,"ySR":573.95,"xT1":424.9,"yT1":0,"xT2":1058.1,"yT2":0,"toosoon":0,"cond_shown":"Incongruent","ratio_trial":100,"L_num":3,"L_den":5,"R_num":11,"R_den":22,"correct_side":1,"subjID":"SilvanaPinedaDuran16","gender":"1","school":"6","age":"11"},{"start_time":1551880642129,"click_time":1551880644417,"finger_time":1551880643756,"fix_duration":250,"trial":4,"RT":1627,"MT":661,"sideResp":2,"stimulus":[],"xmouse":[768,768,768,768,768,768,768,768,768,768,768,768,768,768,768,768,768,768,768,768,768,768,768,768,768,768,768,768,768,768,768,768,768,768,768,768,768,768,768,768,768,768,768,768,768,768,768,768,768,768,768,768,768,768,768,768,768,768,768,768,768,768,768,768,768,768,768,768,768,768,768,768,768,768,768,768,768,768,767,794,820,855,901,945,1062,1130,1195,1257,1353,1446,1470,1493,1503,1506,1506,1506,1505,1494,1475,1448,1436,1425,1413,1399,1378,1370,1365,1355,1342,1279,1238,1210,1190,1170,1129],"ymouse":[623,623,623,623,623,623,623,623,623,623,623,623,623,623,623,623,623,623,623,623,623,623,623,623,623,623,623,623,623,623,623,623,623,623,623,623,623,623,623,623,623,623,623,623,623,623,623,623,623,623,623,623,623,623,623,623,623,623,623,623,623,623,623,623,623,623,623,623,623,623,623,623,623,623,623,623,623,623,623,598,576,547,504,453,314,221,109,0,0,0,0,0,0,0,0,0,1,18,39,59,68,75,81,85,89,89,89,89,88,80,75,70,70,70,70],"timestamp_mouse":[8,35,47,66,88,108,127,147,168,186,207,227,246,267,288,307,327,346,368,388,408,428,447,467,488,508,528,548,567,587,607,627,647,667,687,707,728,746,767,787,807,827,847,867,887,908,928,947,966,988,1007,1027,1046,1067,1087,1107,1126,1148,1168,1186,1207,1226,1248,1266,1288,1307,1327,1346,1367,1386,1408,1428,1446,1467,1488,1507,1528,1547,1567,1587,1607,1627,1647,1668,1687,1707,1727,1747,1767,1787,1807,1827,1848,1867,1886,1906,1927,1948,1968,1986,2007,2027,2048,2067,2088,2108,2127,2147,2167,2188,2207,2227,2247,2268,2288],"xSR":741.5,"ySR":573.95,"xT1":424.9,"yT1":0,"xT2":1058.1,"yT2":0,"toosoon":0,"cond_shown":"Congruent","ratio_trial":200,"L_num":3,"L_den":10,"R_num":11,"R_den":22,"correct_side":2,"subjID":"SilvanaPinedaDuran16","gender":"1","school":"6","age":"11"},{"start_time":1551880648176,"click_time":1551880650316,"finger_time":1551880649716,"fix_duration":818.583538457441,"trial":5,"RT":1540,"MT":600,"sideResp":2,"stimulus":[],"xmouse":[794,794,794,794,794,794,794,794,794,794,794,794,794,794,794,794,794,794,794,794,794,794,794,794,794,794,794,794,794,794,794,794,794,794,794,794,794,794,794,794,794,794,794,794,794,794,794,794,794,794,794,794,794,794,794,794,794,794,794,794,794,794,794,794,794,794,794,794,794,794,794,794,794,794,794,794,800,898,996,1107,1208,1301,1403,1432,1458,1468,1481,1486,1485,1480,1475,1467,1440,1399,1385,1338,1311,1286,1282,1277,1270,1260,1241,1226,1209,1181,1161,1113],"ymouse":[630,630,630,630,630,630,630,630,630,630,630,630,630,630,630,630,630,630,630,630,630,630,630,630,630,630,630,630,630,630,630,630,630,630,630,630,630,630,630,630,630,630,630,630,630,630,630,630,630,630,630,630,630,630,630,630,630,630,630,630,630,630,630,630,630,630,630,630,630,630,630,630,630,630,630,630,628,571,519,464,415,364,282,222,127,92,6,0,0,0,0,0,0,0,0,0,0,3,4,5,7,8,9,10,13,18,20,29],"timestamp_mouse":[8,20,40,60,80,100,120,140,160,180,201,220,239,259,280,300,320,340,359,380,401,420,441,460,480,499,520,540,561,580,601,621,640,659,681,700,720,740,760,779,800,821,840,861,881,901,919,940,959,980,1001,1021,1039,1060,1081,1100,1121,1140,1160,1179,1199,1220,1241,1260,1281,1299,1320,1339,1361,1379,1401,1421,1441,1459,1480,1501,1519,1540,1559,1580,1600,1619,1639,1661,1680,1701,1720,1740,1760,1781,1800,1820,1840,1859,1880,1899,1919,1939,1959,1980,2000,2020,2039,2061,2081,2101,2120,2139],"xSR":741.5,"ySR":573.95,"xT1":424.9,"yT1":0,"xT2":1058.1,"yT2":0,"toosoon":0,"cond_shown":"Congruent","ratio_trial":100,"L_num":4,"L_den":10,"R_num":15,"R_den":30,"correct_side":2,"subjID":"SilvanaPinedaDuran16","gender":"1","school":"6","age":"11"},{"start_time":1551880654467,"click_time":1551880656836,"finger_time":1551880656656,"fix_duration":1130.476940052118,"trial":6,"RT":2189,"MT":180,"sideResp":2,"stimulus":[],"xmouse":[790,790,790,790,790,790,790,790,790,790,790,790,790,790,790,790,790,790,790,790,790,790,790,790,790,790,790,790,790,790,790,790,790,790,790,790,790,790,790,790,790,790,790,790,790,790,790,790,790,790,790,790,790,790,790,790,790,790,790,790,790,790,790,790,790,790,790,790,790,790,790,790,790,790,790,790,790,790,790,790,790,790,790,790,790,790,790,790,790,790,790,790,790,790,790,790,787,786,785,785,785,785,785,785,785,785,785,790,801,831,864,908,1006,1043,1065,1075,1083,1100,1113],"ymouse":[616,616,616,616,616,616,616,616,616,616,616,616,616,616,616,616,616,616,616,616,616,616,616,616,616,616,616,616,616,616,616,616,616,616,616,616,616,616,616,616,616,616,616,616,616,616,616,616,616,616,616,616,616,616,616,616,616,616,616,616,616,616,616,616,616,616,616,616,616,616,616,616,616,616,616,616,616,616,616,616,616,616,616,616,616,616,616,616,616,616,616,616,616,616,616,616,613,610,609,609,609,609,609,609,609,609,606,591,574,526,475,407,268,216,177,156,139,112,97],"timestamp_mouse":[9,36,49,68,89,109,129,149,169,188,209,228,249,270,289,309,329,350,368,389,409,429,448,470,488,508,530,549,570,589,609,629,650,668,688,709,729,749,770,788,809,829,849,869,888,910,930,949,970,989,1009,1030,1050,1069,1090,1110,1128,1150,1169,1190,1210,1229,1249,1269,1289,1309,1330,1348,1368,1388,1409,1429,1450,1468,1489,1509,1529,1549,1568,1590,1610,1628,1650,1668,1689,1709,1729,1749,1769,1788,1810,1829,1849,1869,1889,1908,1930,1950,1969,1989,2008,2029,2050,2069,2090,2110,2130,2148,2169,2189,2209,2228,2249,2269,2288,2308,2330,2349,2369],"xSR":741.5,"ySR":573.95,"xT1":424.9,"yT1":0,"xT2":1058.1,"yT2":0,"toosoon":0,"cond_shown":"Incongruent","ratio_trial":300,"L_num":4,"L_den":20,"R_num":2,"R_den":4,"correct_side":2,"subjID":"SilvanaPinedaDuran16","gender":"1","school":"6","age":"11"},{"start_time":1551880660527,"click_time":1551880662616,"finger_time":1551880662117,"fix_duration":1089.11882904236,"trial":7,"RT":1590,"MT":499,"sideResp":2,"stimulus":[],"xmouse":[791,791,791,791,791,791,791,791,791,791,791,791,791,791,791,791,791,791,791,791,791,791,791,791,791,791,791,791,791,791,791,791,791,791,791,791,791,791,791,791,791,791,791,791,791,791,791,791,791,791,791,791,791,791,791,791,791,791,791,791,791,791,791,791,791,791,791,791,791,791,791,791,791,791,791,791,791,791,791,873,931,993,1046,1082,1112,1119,1122,1123,1125,1126,1126,1126,1126,1126,1125,1125,1125,1125,1125,1125,1125,1125,1125,1124,1124],"ymouse":[650,650,650,650,650,650,650,650,650,650,650,650,650,650,650,650,650,650,650,650,650,650,650,650,650,650,650,650,650,650,650,650,650,650,650,650,650,650,650,650,650,650,650,650,650,650,650,650,650,650,650,650,650,650,650,650,650,650,650,650,650,650,650,650,650,650,650,650,650,650,650,650,650,650,650,650,650,650,649,520,441,366,302,255,199,181,167,160,149,132,121,111,108,107,106,106,106,106,106,106,106,106,106,104,94],"timestamp_mouse":[10,41,49,70,89,110,130,150,169,189,210,228,249,268,289,308,329,349,369,390,409,428,449,470,489,509,528,550,568,589,609,629,650,668,688,710,729,750,770,789,809,830,849,869,889,909,930,949,969,990,1009,1030,1050,1069,1090,1110,1130,1150,1169,1189,1208,1228,1250,1269,1289,1310,1329,1349,1369,1390,1410,1429,1450,1468,1489,1508,1530,1549,1569,1589,1608,1629,1648,1669,1688,1710,1729,1749,1770,1790,1809,1829,1849,1869,1889,1909,1929,1950,1969,1988,2010,2029,2049,2069,2088],"xSR":741.5,"ySR":573.95,"xT1":424.9,"yT1":0,"xT2":1058.1,"yT2":0,"toosoon":0,"cond_shown":"Incongruent","ratio_trial":100,"L_num":10,"L_den":25,"R_num":8,"R_den":16,"correct_side":2,"subjID":"SilvanaPinedaDuran16","gender":"1","school":"6","age":"11"},{"start_time":1551880666380,"click_time":1551880667677,"finger_time":1551880667117,"fix_duration":582.8268712846019,"trial":8,"RT":737,"MT":560,"sideResp":1,"stimulus":[],"xmouse":[823,823,823,823,823,823,823,823,823,823,823,823,823,823,823,823,823,823,823,823,823,823,823,823,823,823,823,823,823,823,823,823,823,823,823,812,752,710,666,624,588,493,438,401,386,382,382,382,381,379,378,375,372,369,367,367,368,369,369,369,372,399,413,423,428],"ymouse":[650,650,650,650,650,650,650,650,650,650,650,650,650,650,650,650,650,650,650,650,650,650,650,650,650,650,650,650,650,650,650,650,650,650,644,613,463,364,264,162,76,0,0,0,0,0,0,0,0,1,3,14,21,28,35,42,49,50,50,51,51,45,42,40,39],"timestamp_mouse":[16,38,57,76,96,117,136,156,176,197,216,237,255,277,297,317,336,356,377,396,416,436,456,477,497,516,537,557,576,596,616,637,656,675,697,716,737,756,776,796,817,835,856,876,896,916,936,957,976,996,1016,1036,1056,1075,1096,1115,1135,1157,1177,1197,1217,1236,1257,1276,1297],"xSR":741.5,"ySR":573.95,"xT1":424.9,"yT1":0,"xT2":1058.1,"yT2":0,"toosoon":0,"cond_shown":"Congruent","ratio_trial":300,"L_num":20,"L_den":25,"R_num":8,"R_den":16,"correct_side":1,"subjID":"SilvanaPinedaDuran16","gender":"1","school":"6","age":"11"},{"start_time":1551880670644,"click_time":1551880671656,"finger_time":1551880671477,"fix_duration":1146.5592560430339,"trial":9,"RT":833,"MT":179,"sideResp":2,"stimulus":[],"xmouse":[786,786,786,786,786,786,786,786,786,786,786,786,786,786,786,786,786,786,786,786,786,786,786,786,786,786,786,786,786,786,786,786,786,786,786,786,786,786,786,789,795,846,944,994,1033,1060,1074,1088,1091,1095,1098],"ymouse":[637,637,637,637,637,637,637,637,637,637,637,637,637,637,637,637,637,637,637,637,637,637,637,637,637,637,637,637,637,637,637,637,637,637,637,637,637,637,637,635,620,501,335,269,214,173,146,118,112,106,95],"timestamp_mouse":[12,37,51,73,92,113,132,152,173,193,212,233,252,272,292,313,333,353,373,393,412,431,453,473,493,512,531,553,573,593,611,633,652,672,693,712,732,753,773,793,812,833,853,871,891,912,932,953,972,993,1012],"xSR":741.5,"ySR":573.95,"xT1":424.9,"yT1":0,"xT2":1058.1,"yT2":0,"toosoon":0,"cond_shown":"Incongruent","ratio_trial":200,"L_num":7,"L_den":15,"R_num":6,"R_den":9,"correct_side":2,"subjID":"SilvanaPinedaDuran16","gender":"1","school":"6","age":"11"},{"start_time":1551880678858,"click_time":1551880680176,"finger_time":1551880679996,"fix_duration":300.55551822186067,"trial":10,"RT":1138,"MT":180,"sideResp":2,"stimulus":[],"xmouse":[807,807,807,807,807,807,807,807,807,807,807,807,807,807,807,807,807,807,807,807,807,807,807,807,807,807,807,807,807,807,807,807,807,807,807,807,807,807,807,807,807,807,807,807,807,807,807,807,807,807,807,807,807,807,811,817,831,882,913,941,966,994,1024,1040,1055,1072],"ymouse":[615,615,615,615,615,615,615,615,615,615,615,615,615,615,615,615,615,615,615,615,615,615,615,615,615,615,615,615,615,615,615,615,615,615,615,615,615,615,615,615,615,615,615,615,615,615,615,615,615,615,615,615,615,611,598,576,540,417,349,291,247,196,149,121,86,48],"timestamp_mouse":[19,37,58,79,98,118,138,158,178,198,219,237,259,277,299,318,338,358,378,398,418,439,458,478,499,518,538,558,578,598,617,637,658,678,698,719,738,759,801,802,819,839,857,879,897,919,938,959,978,998,1018,1038,1058,1078,1098,1118,1138,1157,1177,1198,1218,1237,1259,1278,1297,1318],"xSR":741.5,"ySR":573.95,"xT1":424.9,"yT1":0,"xT2":1058.1,"yT2":0,"toosoon":0,"cond_shown":"Congruent","ratio_trial":200,"L_num":7,"L_den":15,"R_num":18,"R_den":27,"correct_side":2,"subjID":"SilvanaPinedaDuran16","gender":"1","school":"6","age":"11"},{"start_time":1551880683950,"click_time":1551880685417,"finger_time":1551880685316,"fix_duration":350.62885660689733,"trial":11,"RT":1366,"MT":101,"sideResp":2,"stimulus":[],"xmouse":[781,781,781,781,781,781,781,781,781,781,781,781,781,781,781,781,781,781,781,781,781,781,781,781,781,781,781,781,781,781,781,781,781,781,781,781,781,781,781,781,781,781,781,781,781,781,781,781,781,781,781,781,781,781,781,781,781,781,781,781,781,781,781,781,781,781,780,788,881,946,1010,1072,1129,1134],"ymouse":[646,646,646,646,646,646,646,646,646,646,646,646,646,646,646,646,646,646,646,646,646,646,646,646,646,646,646,646,646,646,646,646,646,646,646,646,646,646,646,646,646,646,646,646,646,646,646,646,646,646,646,646,646,646,646,646,646,646,646,646,646,646,646,646,646,646,643,624,481,386,291,204,109,91],"timestamp_mouse":[8,36,47,67,87,106,126,147,166,187,206,226,247,267,287,307,326,346,367,386,407,427,446,466,485,506,526,547,565,587,606,626,647,665,687,706,727,747,765,787,806,826,846,867,885,907,926,946,966,986,1006,1026,1047,1065,1087,1106,1126,1146,1166,1186,1206,1226,1246,1267,1286,1307,1326,1346,1366,1386,1407,1426,1447,1467],"xSR":741.5,"ySR":573.95,"xT1":424.9,"yT1":0,"xT2":1058.1,"yT2":0,"toosoon":0,"cond_shown":"Congruent","ratio_trial":100,"L_num":7,"L_den":14,"R_num":9,"R_den":15,"correct_side":2,"subjID":"SilvanaPinedaDuran16","gender":"1","school":"6","age":"11"},{"start_time":1551880690628,"click_time":1551880692176,"finger_time":1551880691296,"fix_duration":1212.786012435059,"trial":12,"RT":668,"MT":880,"sideResp":1,"stimulus":[],"xmouse":[786,786,786,786,786,786,786,786,786,786,786,786,786,786,786,786,786,786,786,786,786,786,786,786,786,786,786,786,786,786,785,778,755,684,542,461,380,338,272,250,249,249,249,249,250,250,250,250,253,294,380,414,551,640,756,767,767,767,767,764,756,728,705,683,649,642,639,636,628,606,593,579,572,568,561,554,538,518],"ymouse":[622,622,622,622,622,622,622,622,622,622,622,622,622,622,622,622,622,622,622,622,622,622,622,622,622,622,622,622,622,622,622,617,577,457,251,147,55,15,0,0,0,0,0,0,0,0,0,0,0,23,74,92,152,179,195,195,195,195,192,185,174,153,143,135,127,122,122,121,119,112,106,98,95,94,89,83,73,60],"timestamp_mouse":[9,37,49,68,88,109,129,147,169,189,209,228,247,269,289,309,328,349,367,389,407,428,447,468,488,508,528,549,568,587,609,628,649,668,688,708,727,748,767,787,808,828,848,867,889,908,928,949,969,989,1008,1028,1047,1068,1089,1108,1129,1148,1169,1187,1208,1228,1249,1268,1288,1308,1328,1348,1368,1389,1408,1428,1448,1468,1489,1508,1527,1548],"xSR":741.5,"ySR":573.95,"xT1":424.9,"yT1":0,"xT2":1058.1,"yT2":0,"toosoon":0,"cond_shown":"Congruent","ratio_trial":300,"L_num":24,"L_den":30,"R_num":2,"R_den":4,"correct_side":1,"subjID":"SilvanaPinedaDuran16","gender":"1","school":"6","age":"11"},{"start_time":1551880697928,"click_time":1551880699316,"finger_time":1551880699235,"fix_duration":530.41140886543,"trial":13,"RT":1307,"MT":81,"sideResp":1,"stimulus":[],"xmouse":[810,810,809,809,809,809,809,809,809,809,809,809,809,809,809,809,809,809,809,809,809,809,809,809,809,809,809,809,809,809,809,809,809,809,809,809,809,809,809,809,809,809,809,809,809,809,809,809,809,809,809,809,809,809,809,809,809,809,809,809,809,809,809,809,806,791,761,697,637,478],"ymouse":[594,593,592,592,592,592,592,592,592,592,592,592,592,592,592,592,592,592,592,592,592,592,592,592,592,592,592,592,592,592,592,592,592,592,592,592,592,592,592,592,592,592,592,592,592,592,592,592,592,592,592,592,592,592,592,592,592,592,592,592,592,592,592,592,590,573,523,383,272,88],"timestamp_mouse":[10,27,49,68,88,108,128,148,168,189,208,227,247,268,288,308,328,348,368,388,408,428,447,469,489,507,529,548,568,588,609,627,648,668,688,708,728,748,769,787,808,828,848,867,889,907,928,948,967,988,1008,1028,1049,1068,1088,1108,1127,1148,1169,1187,1208,1228,1248,1268,1288,1307,1328,1348,1369,1388],"xSR":741.5,"ySR":573.95,"xT1":424.9,"yT1":0,"xT2":1058.1,"yT2":0,"toosoon":0,"cond_shown":"Congruent","ratio_trial":300,"L_num":9,"L_den":10,"R_num":3,"R_den":5,"correct_side":1,"subjID":"SilvanaPinedaDuran16","gender":"1","school":"6","age":"11"},{"start_time":1551880703949,"click_time":1551880705497,"finger_time":1551880704997,"fix_duration":449.6563617460687,"trial":14,"RT":1048,"MT":500,"sideResp":2,"stimulus":[],"xmouse":[803,803,803,803,803,803,803,803,803,803,803,803,803,803,803,803,803,803,803,803,803,803,803,803,803,803,803,803,803,803,803,803,803,803,803,803,803,803,803,803,803,803,803,803,803,803,803,803,803,802,802,807,829,852,880,907,929,941,962,966,969,973,994,1007,1020,1029,1033,1034,1034,1034,1034,1036,1038,1045,1045,1046,1049,1072],"ymouse":[619,619,619,619,619,619,619,619,619,619,619,619,619,619,619,619,619,619,619,619,619,619,619,619,619,619,619,619,619,619,619,619,619,619,619,619,619,619,619,619,619,619,619,619,619,619,619,619,619,617,602,580,513,459,394,327,276,249,199,190,183,175,147,125,100,79,67,62,62,62,62,62,62,60,60,60,58,55],"timestamp_mouse":[14,40,47,68,87,106,127,147,166,187,207,227,247,267,287,308,326,348,367,388,406,427,448,466,488,507,528,547,567,587,608,626,647,667,687,707,728,746,767,787,808,826,847,867,886,906,927,946,968,986,1008,1028,1048,1066,1086,1107,1127,1147,1167,1186,1206,1227,1248,1267,1287,1307,1326,1348,1368,1388,1408,1426,1447,1467,1487,1507,1527,1547],"xSR":741.5,"ySR":573.95,"xT1":424.9,"yT1":0,"xT2":1058.1,"yT2":0,"toosoon":0,"cond_shown":"Incongruent","ratio_trial":300,"L_num":13,"L_den":26,"R_num":12,"R_den":15,"correct_side":2,"subjID":"SilvanaPinedaDuran16","gender":"1","school":"6","age":"11"},{"start_time":1551880707759,"click_time":1551880709076,"finger_time":1551880709015,"fix_duration":841.1861688936774,"trial":15,"RT":1256,"MT":61,"sideResp":2,"stimulus":[],"xmouse":[811,811,811,811,811,811,811,811,811,811,811,811,811,811,811,811,811,811,811,811,811,811,811,811,811,811,811,811,811,811,811,811,811,811,811,811,811,811,811,811,811,811,811,811,811,811,811,811,811,811,811,811,811,811,811,811,811,811,811,811,811,819,894,960,1051,1145],"ymouse":[641,641,641,641,641,641,641,641,641,641,641,641,641,641,641,641,641,641,641,641,641,641,641,641,641,641,641,641,641,641,641,641,641,641,641,641,641,641,641,641,641,641,641,641,641,641,641,641,641,641,641,641,641,641,641,641,641,641,641,641,641,612,474,354,217,84],"timestamp_mouse":[17,37,57,76,98,117,137,156,177,197,217,237,257,277,297,317,337,357,377,396,417,438,457,477,498,516,536,557,578,597,618,636,658,677,697,717,737,757,777,798,818,837,858,876,898,918,937,957,976,998,1017,1037,1057,1078,1097,1117,1136,1157,1178,1196,1217,1238,1256,1276,1297,1317],"xSR":741.5,"ySR":573.95,"xT1":424.9,"yT1":0,"xT2":1058.1,"yT2":0,"toosoon":0,"cond_shown":"Congruent","ratio_trial":100,"L_num":4,"L_den":10,"R_num":15,"R_den":30,"correct_side":2,"subjID":"SilvanaPinedaDuran16","gender":"1","school":"6","age":"11"},{"start_time":1551880712836,"click_time":1551880713736,"finger_time":1551880713376,"fix_duration":257.6657390178566,"trial":16,"RT":540,"MT":360,"sideResp":2,"stimulus":[],"xmouse":[808,808,808,808,808,808,808,808,808,808,808,808,808,808,808,808,808,808,808,808,808,808,808,808,808,808,813,844,896,1027,1100,1174,1255,1279,1303,1306,1309,1309,1309,1300,1292,1281,1267,1250,1166,1101],"ymouse":[620,620,620,620,620,620,620,620,620,620,620,620,620,620,620,620,620,620,620,620,620,620,620,620,618,606,579,533,471,348,279,205,110,70,15,4,0,0,0,0,0,0,0,0,22,41],"timestamp_mouse":[10,20,45,61,81,100,121,140,160,181,201,221,240,260,281,299,321,339,361,379,400,419,441,459,480,499,521,540,561,580,600,620,640,660,679,700,720,740,760,781,800,821,841,860,879,900],"xSR":741.5,"ySR":573.95,"xT1":424.9,"yT1":0,"xT2":1058.1,"yT2":0,"toosoon":0,"cond_shown":"Incongruent","ratio_trial":300,"L_num":13,"L_den":26,"R_num":12,"R_den":15,"correct_side":2,"subjID":"SilvanaPinedaDuran16","gender":"1","school":"6","age":"11"},{"start_time":1551880716028,"click_time":1551880717237,"finger_time":1551880716896,"fix_duration":250,"trial":17,"RT":868,"MT":341,"sideResp":2,"stimulus":[],"xmouse":[802,802,802,802,802,802,802,802,802,802,802,802,802,802,802,802,802,802,802,802,802,802,802,802,802,802,802,802,802,802,802,802,802,802,802,802,802,802,802,802,802,801,814,846,947,1005,1061,1100,1131,1166,1176,1178,1180,1181,1179,1175,1169,1161,1146,1135,1124],"ymouse":[634,634,634,634,634,634,634,634,634,634,634,634,634,634,634,634,634,634,634,634,634,634,634,634,634,634,634,634,634,634,634,634,634,634,634,634,634,634,634,634,634,633,600,538,361,272,200,150,106,44,6,0,0,0,0,0,0,0,0,0,2],"timestamp_mouse":[8,29,49,68,88,108,129,148,168,189,208,228,249,268,288,307,329,347,368,389,409,427,449,469,489,507,529,548,569,588,608,629,648,667,689,707,729,748,768,787,809,828,848,868,888,908,927,949,968,987,1009,1029,1049,1069,1088,1108,1128,1148,1170,1188,1209],"xSR":741.5,"ySR":573.95,"xT1":424.9,"yT1":0,"xT2":1058.1,"yT2":0,"toosoon":0,"cond_shown":"Incongruent","ratio_trial":300,"L_num":13,"L_den":26,"R_num":12,"R_den":15,"correct_side":2,"subjID":"SilvanaPinedaDuran16","gender":"1","school":"6","age":"11"},{"start_time":1551880719082,"click_time":1551880720316,"finger_time":1551880719956,"fix_duration":585.8946501868759,"trial":18,"RT":874,"MT":360,"sideResp":1,"stimulus":[],"xmouse":[803,803,803,803,803,803,803,803,803,803,803,803,803,803,803,803,803,803,803,803,803,803,803,803,803,803,803,803,803,803,803,803,803,803,803,803,803,803,803,803,803,801,794,781,768,695,643,597,558,525,499,497,497,497,497,497,497,497,497,497,497,497],"ymouse":[607,607,607,607,607,607,607,607,607,607,607,607,607,607,607,607,607,607,605,602,597,589,588,588,588,588,588,588,588,588,588,588,588,588,588,588,588,588,588,588,588,585,576,557,535,412,316,208,119,46,0,0,0,0,0,0,0,0,0,0,0,2],"timestamp_mouse":[14,35,55,75,93,114,134,154,174,195,214,234,255,275,294,314,335,355,373,395,414,434,454,474,495,514,535,554,574,594,615,634,653,674,694,715,734,753,775,795,813,835,853,874,894,915,934,954,974,995,1014,1034,1054,1074,1094,1114,1134,1154,1175,1195,1214,1234],"xSR":741.5,"ySR":573.95,"xT1":424.9,"yT1":0,"xT2":1058.1,"yT2":0,"toosoon":0,"cond_shown":"Incongruent","ratio_trial":200,"L_num":4,"L_den":6,"R_num":14,"R_den":30,"correct_side":1,"subjID":"SilvanaPinedaDuran16","gender":"1","school":"6","age":"11"},{"start_time":1551880722015,"click_time":1551880723115,"finger_time":1551880722675,"fix_duration":478.66007471055303,"trial":19,"RT":660,"MT":440,"sideResp":2,"stimulus":[],"xmouse":[795,795,795,795,795,795,795,795,795,795,795,795,795,795,795,795,795,795,795,795,795,795,795,795,795,795,795,795,795,795,795,797,800,809,814,822,825,825,825,825,826,827,827,828,832,839,841,843,846,852,883,910,947,969,1002,1073],"ymouse":[624,624,624,624,624,624,624,624,624,624,624,624,624,624,624,624,624,624,624,624,624,624,624,624,624,624,624,624,624,624,624,623,615,571,542,479,459,443,428,416,390,376,364,341,318,276,265,254,241,228,175,143,103,84,62,29],"timestamp_mouse":[8,37,41,60,79,101,121,140,160,181,200,221,241,261,281,300,321,341,361,380,401,421,441,461,481,499,521,541,560,580,600,620,640,660,681,701,720,741,760,780,800,820,840,861,879,900,920,940,960,980,1000,1021,1040,1060,1080,1100],"xSR":741.5,"ySR":573.95,"xT1":424.9,"yT1":0,"xT2":1058.1,"yT2":0,"toosoon":0,"cond_shown":"Congruent","ratio_trial":300,"L_num":1,"L_den":5,"R_num":11,"R_den":22,"correct_side":2,"subjID":"SilvanaPinedaDuran16","gender":"1","school":"6","age":"11"},{"start_time":1551880725536,"click_time":1551880726695,"finger_time":1551880726236,"fix_duration":1399.873291599716,"trial":20,"RT":700,"MT":459,"sideResp":2,"stimulus":[],"xmouse":[829,829,829,829,829,829,829,829,829,829,829,829,829,829,829,829,829,829,829,829,829,829,829,829,829,829,829,829,829,829,829,829,829,829,831,838,849,863,887,903,903,903,903,903,905,907,907,908,909,909,909,911,913,922,946,966,991,1024,1092],"ymouse":[615,615,615,615,615,615,615,615,615,615,615,615,615,615,615,615,615,615,615,615,615,615,615,615,615,615,615,615,615,615,615,615,615,611,590,563,525,479,392,282,236,200,167,141,105,95,89,84,83,83,83,83,83,85,91,93,93,87,61],"timestamp_mouse":[1,20,41,59,80,99,120,139,159,179,199,219,239,259,280,298,319,339,359,379,400,419,439,459,479,499,519,539,559,579,599,619,639,659,678,700,719,739,759,780,799,820,839,860,878,899,919,939,959,980,999,1019,1039,1060,1078,1099,1118,1139,1159],"xSR":741.5,"ySR":573.95,"xT1":424.9,"yT1":0,"xT2":1058.1,"yT2":0,"toosoon":0,"cond_shown":"Congruent","ratio_trial":300,"L_num":2,"L_den":20,"R_num":10,"R_den":25,"correct_side":2,"subjID":"SilvanaPinedaDuran16","gender":"1","school":"6","age":"11"},{"start_time":1551880728800,"click_time":1551880730195,"finger_time":1551880729756,"fix_duration":763.0908321940178,"trial":21,"RT":956,"MT":439,"sideResp":2,"stimulus":[],"xmouse":[784,784,784,784,784,784,784,784,784,784,784,784,784,784,784,784,784,784,784,784,784,784,784,784,784,784,784,784,784,784,784,784,783,782,782,782,782,782,782,782,782,782,782,782,782,787,792,802,812,820,826,827,827,827,828,836,841,847,850,857,884,903,929,939,966,1006,1023,1038,1052,1066],"ymouse":[629,629,629,629,629,629,629,629,629,629,629,629,629,629,629,629,629,629,629,629,629,629,629,629,629,629,629,629,629,629,629,629,628,628,627,627,627,627,627,627,627,627,627,627,626,609,591,571,553,540,523,519,516,508,500,477,457,430,396,357,273,246,214,204,172,126,108,90,74,62],"timestamp_mouse":[16,35,63,75,96,116,136,156,175,195,216,235,255,275,295,315,335,356,376,395,415,436,455,476,496,515,536,555,575,596,615,635,655,676,695,715,736,755,775,795,816,836,856,875,895,916,935,956,975,995,1014,1035,1055,1075,1095,1116,1135,1155,1175,1195,1215,1235,1255,1276,1295,1315,1335,1355,1375,1395],"xSR":741.5,"ySR":573.95,"xT1":424.9,"yT1":0,"xT2":1058.1,"yT2":0,"toosoon":0,"cond_shown":"Congruent","ratio_trial":300,"L_num":5,"L_den":25,"R_num":6,"R_den":12,"correct_side":2,"subjID":"SilvanaPinedaDuran16","gender":"1","school":"6","age":"11"},{"start_time":1551880732762,"click_time":1551880734075,"finger_time":1551880733495,"fix_duration":1443.9448006931818,"trial":22,"RT":733,"MT":580,"sideResp":1,"stimulus":[],"xmouse":[807,807,807,807,807,807,807,807,807,807,807,807,807,807,807,807,807,807,807,807,807,807,807,807,807,807,807,807,807,807,807,807,807,807,804,794,784,741,702,655,613,513,472,446,430,430,430,430,430,429,428,428,428,428,429,436,446,454,456,458,458,458,458,456,453,449],"ymouse":[603,603,603,603,603,603,603,603,603,603,603,603,603,603,603,603,603,603,603,603,603,603,603,603,603,603,603,603,603,603,603,603,603,603,600,587,572,518,472,418,370,259,221,203,194,194,194,194,194,193,191,190,188,185,182,174,162,151,144,136,129,119,115,110,102,95],"timestamp_mouse":[13,34,53,73,93,114,133,152,174,194,213,233,253,273,293,312,334,353,372,394,413,434,453,473,493,514,533,553,573,594,613,634,654,674,693,713,733,753,773,793,813,834,853,873,893,913,933,954,973,992,1012,1033,1053,1073,1092,1113,1134,1153,1173,1193,1212,1233,1252,1273,1294,1313],"xSR":741.5,"ySR":573.95,"xT1":424.9,"yT1":0,"xT2":1058.1,"yT2":0,"toosoon":0,"cond_shown":"Incongruent","ratio_trial":300,"L_num":1,"L_den":2,"R_num":3,"R_den":15,"correct_side":1,"subjID":"SilvanaPinedaDuran16","gender":"1","school":"6","age":"11"},{"start_time":1551880736047,"click_time":1551880737156,"finger_time":1551880736775,"fix_duration":250,"trial":23,"RT":728,"MT":381,"sideResp":2,"stimulus":[],"xmouse":[796,796,796,796,796,796,796,796,796,796,796,796,796,796,796,796,796,796,796,796,796,796,796,796,796,796,796,796,796,796,796,796,796,796,797,798,800,805,825,832,839,848,873,879,883,889,897,915,925,939,955,971,991,1018,1038,1060],"ymouse":[590,590,590,590,590,590,590,590,590,590,590,590,590,590,590,590,590,590,590,590,590,590,590,590,590,590,590,590,590,590,590,590,590,590,590,577,555,522,452,420,381,328,223,203,186,169,152,116,100,87,77,69,62,53,47,40],"timestamp_mouse":[11,34,49,68,88,109,128,148,169,188,209,229,248,269,288,308,329,349,369,388,409,429,448,469,488,508,528,549,568,588,609,628,648,669,688,709,728,749,768,788,808,829,849,868,888,908,928,949,968,989,1008,1029,1048,1067,1088,1109],"xSR":741.5,"ySR":573.95,"xT1":424.9,"yT1":0,"xT2":1058.1,"yT2":0,"toosoon":0,"cond_shown":"Congruent","ratio_trial":200,"L_num":3,"L_den":10,"R_num":11,"R_den":22,"correct_side":2,"subjID":"SilvanaPinedaDuran16","gender":"1","school":"6","age":"11"},{"start_time":1551880738686,"click_time":1551880739916,"finger_time":1551880739375,"fix_duration":250,"trial":24,"RT":689,"MT":541,"sideResp":1,"stimulus":[],"xmouse":[790,790,790,790,790,790,790,790,790,790,790,790,790,790,790,790,790,790,790,790,790,790,790,790,790,790,790,790,790,790,790,790,784,769,736,652,613,585,563,546,515,509,503,495,483,472,453,445,442,440,437,436,436,436,436,436,436,435,432,430,429,437],"ymouse":[631,631,631,631,631,631,631,631,631,631,631,631,631,631,631,631,631,631,631,631,631,631,631,631,631,631,631,631,631,631,631,631,626,611,580,502,465,432,399,372,325,312,304,296,285,272,248,237,227,220,203,194,188,180,173,164,161,154,145,133,107,50],"timestamp_mouse":[9,42,49,70,89,109,129,149,170,189,208,229,250,269,289,309,329,348,370,389,409,429,450,469,489,509,529,549,569,590,609,629,649,670,689,709,729,750,769,789,809,828,849,870,889,909,929,949,968,989,1011,1029,1049,1069,1089,1110,1129,1149,1169,1189,1209,1229],"xSR":741.5,"ySR":573.95,"xT1":424.9,"yT1":0,"xT2":1058.1,"yT2":0,"toosoon":0,"cond_shown":"Congruent","ratio_trial":300,"L_num":20,"L_den":25,"R_num":5,"R_den":10,"correct_side":1,"subjID":"SilvanaPinedaDuran16","gender":"1","school":"6","age":"11"},{"start_time":1551880741847,"click_time":1551880742915,"finger_time":1551880742415,"fix_duration":769.8609651476044,"trial":25,"RT":568,"MT":500,"sideResp":2,"stimulus":[],"xmouse":[796,796,796,796,796,796,796,796,796,796,796,796,796,796,796,796,796,796,796,796,796,796,796,796,796,796,796,800,819,838,875,881,889,898,905,906,911,913,918,919,919,921,924,924,925,926,926,926,944,962,994,1006,1052,1059],"ymouse":[621,621,621,621,621,621,621,621,621,621,621,621,621,621,621,621,621,621,621,621,621,621,621,621,621,621,621,607,545,482,399,377,342,275,231,192,147,117,79,68,56,41,34,32,32,31,31,31,31,31,31,31,25,22],"timestamp_mouse":[8,35,49,69,88,109,128,148,168,189,209,229,249,269,289,309,328,348,368,387,408,429,448,468,488,508,528,549,568,588,607,628,648,668,688,708,728,748,768,789,808,828,849,868,888,909,928,949,967,988,1009,1028,1049,1068],"xSR":741.5,"ySR":573.95,"xT1":424.9,"yT1":0,"xT2":1058.1,"yT2":0,"toosoon":0,"cond_shown":"Incongruent","ratio_trial":100,"L_num":6,"L_den":10,"R_num":13,"R_den":26,"correct_side":1,"subjID":"SilvanaPinedaDuran16","gender":"1","school":"6","age":"11"},{"start_time":1551880746186,"click_time":1551880747956,"finger_time":1551880747515,"fix_duration":250,"trial":26,"RT":1329,"MT":441,"sideResp":2,"stimulus":[],"xmouse":[789,789,789,789,789,789,789,789,789,789,789,789,789,789,789,789,789,789,789,789,789,789,789,789,789,789,789,789,789,789,789,789,789,789,789,789,789,789,789,789,789,789,789,789,789,789,789,789,789,789,789,789,789,789,789,789,789,789,789,789,789,789,789,793,802,819,858,877,896,911,939,949,956,962,968,974,976,977,979,981,984,991,996,1002,1013,1021,1043,1058,1075],"ymouse":[645,645,645,645,645,645,645,645,645,645,645,645,645,645,645,645,645,645,645,645,645,645,645,645,645,645,645,645,645,645,645,645,645,645,645,645,645,645,645,645,645,645,645,645,645,645,645,645,645,645,645,645,645,645,645,645,645,645,645,645,645,645,645,635,616,592,524,481,440,405,336,304,279,259,238,196,183,174,164,155,146,135,127,119,106,97,77,64,51],"timestamp_mouse":[9,42,49,69,89,109,129,149,169,190,209,229,249,270,289,310,330,349,368,389,410,429,450,469,490,509,529,549,569,590,608,629,650,669,689,709,729,750,770,789,809,829,849,869,889,909,930,949,970,989,1009,1029,1049,1069,1089,1110,1129,1149,1169,1189,1209,1229,1248,1268,1289,1309,1329,1349,1370,1389,1410,1429,1449,1469,1490,1510,1528,1549,1569,1589,1609,1629,1650,1669,1689,1708,1729,1749,1769],"xSR":741.5,"ySR":573.95,"xT1":424.9,"yT1":0,"xT2":1058.1,"yT2":0,"toosoon":0,"cond_shown":"Congruent","ratio_trial":100,"L_num":1,"L_den":2,"R_num":3,"R_den":5,"correct_side":2,"subjID":"SilvanaPinedaDuran16","gender":"1","school":"6","age":"11"},{"start_time":1551880752013,"click_time":1551880753815,"finger_time":1551880753334,"fix_duration":1135.6588866372442,"trial":27,"RT":1321,"MT":481,"sideResp":2,"stimulus":[],"xmouse":[831,831,831,831,831,831,831,831,831,831,831,831,831,831,831,831,831,831,831,831,831,831,831,831,831,831,831,831,831,831,831,831,831,831,831,831,831,831,831,831,831,831,831,831,831,831,831,831,831,831,831,831,831,831,831,831,831,831,831,831,831,831,831,831,831,831,837,843,848,850,855,860,866,872,881,892,896,899,904,911,930,941,951,964,974,995,1006,1016,1032,1051,1064],"ymouse":[598,598,598,598,598,598,598,598,598,598,598,598,598,598,598,598,598,598,598,598,598,598,598,598,598,598,598,598,598,598,598,598,598,598,598,598,598,598,598,598,598,598,598,598,598,598,598,598,598,598,598,598,598,598,598,598,598,598,598,598,598,598,598,598,598,584,563,538,521,506,475,453,430,410,382,349,334,319,301,281,237,212,187,158,137,99,80,63,41,17,1],"timestamp_mouse":[11,34,43,62,82,102,122,142,163,183,202,222,242,262,282,302,323,342,362,383,402,422,443,462,482,503,523,542,563,583,603,623,643,662,683,703,722,743,763,782,802,823,842,862,882,902,922,942,962,982,1002,1022,1042,1062,1083,1103,1122,1142,1163,1182,1202,1223,1242,1263,1281,1303,1321,1343,1362,1383,1402,1422,1442,1462,1482,1503,1522,1543,1562,1583,1602,1622,1642,1662,1683,1702,1722,1743,1762,1782,1802],"xSR":741.5,"ySR":573.95,"xT1":424.9,"yT1":0,"xT2":1058.1,"yT2":0,"toosoon":0,"cond_shown":"Incongruent","ratio_trial":300,"L_num":4,"L_den":20,"R_num":2,"R_den":4,"correct_side":2,"subjID":"SilvanaPinedaDuran16","gender":"1","school":"6","age":"11"},{"start_time":1551880756379,"click_time":1551880759755,"finger_time":1551880758015,"fix_duration":981.492406504589,"trial":28,"RT":1636,"MT":1740,"sideResp":2,"stimulus":[],"xmouse":[766,766,766,766,766,766,766,766,766,766,766,766,766,766,766,766,766,766,766,766,766,766,766,766,766,766,766,766,766,766,766,766,766,766,766,766,766,766,766,766,766,766,766,766,766,766,766,766,766,766,766,766,766,766,766,766,766,766,766,766,766,766,766,766,766,766,766,766,766,766,766,766,766,766,766,766,766,766,761,755,744,709,677,604,578,532,494,481,474,464,452,429,423,421,419,417,409,407,405,404,404,404,405,408,411,414,414,415,415,415,415,415,417,422,426,440,461,468,477,486,494,502,504,509,518,543,604,649,704,769,948,1036,1127,1198,1271,1296,1309,1311,1311,1312,1314,1315,1315,1315,1313,1309,1302,1295,1283,1273,1267,1259,1258,1253,1246,1231,1203,1186,1173,1164,1160,1155,1155,1155,1155,1149,1137,1132,1129],"ymouse":[650,650,650,650,650,650,650,650,650,650,650,650,650,650,650,650,650,650,650,650,650,650,650,650,650,650,650,650,650,650,650,650,650,650,650,650,650,650,650,650,650,650,650,650,650,650,650,650,650,650,650,650,650,650,650,650,650,650,650,650,650,650,650,650,650,650,650,650,650,650,650,650,650,650,650,650,650,650,643,635,621,589,569,526,511,488,473,468,466,463,460,451,447,445,443,439,417,407,397,388,377,341,319,296,275,269,266,266,266,266,266,266,266,267,268,271,274,274,274,274,271,270,269,269,266,259,225,196,157,113,13,0,0,0,0,0,0,0,0,0,1,3,7,15,33,41,46,46,46,46,46,46,46,46,46,50,67,80,92,102,107,112,112,112,112,110,104,101,98],"timestamp_mouse":[16,37,56,76,96,116,136,156,177,196,216,237,257,276,297,316,335,356,377,396,417,437,457,476,497,517,536,556,576,596,616,637,657,676,696,716,736,756,776,796,817,837,855,876,895,917,937,956,976,997,1016,1037,1057,1076,1097,1117,1136,1157,1177,1196,1216,1237,1256,1276,1296,1315,1337,1356,1376,1396,1416,1436,1457,1476,1496,1517,1537,1556,1576,1596,1616,1636,1656,1676,1696,1716,1737,1756,1776,1796,1816,1836,1857,1875,1896,1916,1936,1956,1976,1996,2017,2036,2057,2076,2095,2117,2136,2156,2176,2196,2216,2237,2256,2275,2296,2316,2336,2356,2376,2396,2416,2436,2456,2477,2496,2516,2537,2556,2575,2596,2617,2636,2657,2676,2696,2716,2736,2757,2776,2797,2817,2836,2856,2877,2897,2915,2937,2956,2976,2996,3016,3036,3055,3076,3097,3116,3137,3156,3176,3196,3216,3236,3257,3276,3297,3316,3335,3355,3376],"xSR":741.5,"ySR":573.95,"xT1":424.9,"yT1":0,"xT2":1058.1,"yT2":0,"toosoon":0,"cond_shown":"Congruent","ratio_trial":100,"L_num":3,"L_den":6,"R_num":2,"R_den":5,"correct_side":1,"subjID":"SilvanaPinedaDuran16","gender":"1","school":"6","age":"11"},{"start_time":1551880764665,"click_time":1551880766576,"finger_time":1551880766054,"fix_duration":1347.1674647112027,"trial":29,"RT":1389,"MT":522,"sideResp":2,"stimulus":[],"xmouse":[800,800,800,800,800,800,800,800,800,800,800,800,800,800,800,800,800,800,800,800,800,800,800,800,800,800,800,800,800,800,800,800,800,800,800,800,800,800,800,800,800,800,800,800,800,800,800,800,800,800,800,800,800,800,800,800,800,800,800,800,800,800,800,800,800,800,801,812,825,847,858,886,925,943,955,961,964,968,973,976,979,984,986,989,992,996,999,1004,1007,1011,1015,1019,1035,1046,1058,1070],"ymouse":[648,648,648,648,648,648,648,648,648,648,648,648,648,648,648,648,648,648,648,648,648,648,648,648,648,648,648,648,648,648,648,648,648,648,648,648,648,648,648,648,648,648,648,648,648,648,648,648,648,648,648,648,648,648,648,648,648,648,648,648,648,648,648,648,648,648,648,612,580,525,499,436,330,282,246,217,195,143,108,80,58,21,13,4,0,0,0,0,0,0,0,0,0,0,0,4],"timestamp_mouse":[10,41,51,70,90,110,130,150,170,191,210,230,250,271,290,311,330,351,370,391,410,430,451,469,491,511,530,551,570,590,610,631,651,670,691,710,731,751,771,791,811,831,851,870,890,911,930,950,970,991,1010,1031,1050,1070,1091,1111,1130,1151,1171,1191,1211,1230,1250,1270,1291,1309,1330,1349,1371,1389,1410,1430,1450,1470,1491,1510,1530,1550,1570,1590,1610,1631,1649,1669,1690,1711,1730,1750,1770,1790,1810,1831,1850,1871,1891,1911],"xSR":741.5,"ySR":573.95,"xT1":424.9,"yT1":0,"xT2":1058.1,"yT2":0,"toosoon":0,"cond_shown":"Incongruent","ratio_trial":100,"L_num":4,"L_den":8,"R_num":8,"R_den":20,"correct_side":1,"subjID":"SilvanaPinedaDuran16","gender":"1","school":"6","age":"11"},{"start_time":1551880769015,"click_time":1551880771715,"finger_time":1551880771615,"fix_duration":619.8674745180193,"trial":30,"RT":2600,"MT":100,"sideResp":2,"stimulus":[],"xmouse":[766,766,766,766,766,766,766,766,766,766,766,766,766,766,766,766,766,766,766,766,766,766,766,766,766,766,766,766,766,766,766,766,766,766,766,766,766,766,766,766,766,766,766,766,766,766,766,766,766,766,766,766,766,766,766,766,766,766,766,766,766,766,766,766,766,766,766,766,766,766,766,766,766,766,766,766,766,766,766,766,766,766,766,766,766,766,766,766,766,766,766,766,766,766,766,766,766,766,766,766,766,766,766,766,766,766,766,766,766,766,766,766,766,766,766,766,766,766,766,766,766,766,766,766,766,766,766,766,766,766,810,846,890,947,1029,1084],"ymouse":[656,656,656,656,656,656,656,656,656,656,656,656,656,656,656,656,656,656,656,656,656,656,656,656,656,656,656,656,656,656,656,656,656,656,656,656,656,656,656,656,656,656,656,656,656,656,656,656,656,656,656,656,656,656,656,656,656,656,656,656,656,656,656,656,656,656,656,656,656,656,656,656,656,656,656,656,656,656,656,656,656,656,656,656,656,656,656,656,656,656,656,656,656,656,656,656,656,656,656,656,656,656,656,656,656,656,656,656,656,656,656,656,656,656,656,656,656,656,656,656,656,656,656,656,656,656,656,656,656,643,565,499,417,313,154,23],"timestamp_mouse":[1,20,41,60,80,100,120,141,160,180,201,220,240,261,280,301,320,340,360,380,399,420,441,461,480,500,520,541,560,580,601,622,640,661,680,701,720,741,760,780,800,820,840,860,881,900,920,941,960,980,1001,1021,1040,1060,1081,1101,1120,1140,1161,1181,1200,1220,1240,1260,1280,1301,1320,1341,1360,1380,1400,1421,1441,1460,1480,1500,1520,1540,1560,1580,1601,1620,1641,1661,1680,1701,1720,1740,1761,1780,1800,1820,1840,1860,1880,1900,1920,1940,1961,1980,2000,2020,2041,2059,2081,2101,2120,2140,2160,2180,2201,2221,2241,2260,2280,2300,2320,2340,2359,2381,2400,2421,2441,2461,2480,2500,2520,2540,2560,2581,2600,2620,2640,2660,2680,2700],"xSR":741.5,"ySR":573.95,"xT1":424.9,"yT1":0,"xT2":1058.1,"yT2":0,"toosoon":0,"cond_shown":"Congruent","ratio_trial":100,"L_num":4,"L_den":8,"R_num":6,"R_den":10,"correct_side":2,"subjID":"SilvanaPinedaDuran16","gender":"1","school":"6","age":"11"},{"start_time":1551880774403,"click_time":1551880775975,"finger_time":1551880775235,"fix_duration":525.498002927175,"trial":31,"RT":832,"MT":740,"sideResp":2,"stimulus":[],"xmouse":[793,793,793,793,793,793,793,793,793,793,793,793,793,793,793,793,793,793,793,793,793,793,793,793,793,793,793,793,793,793,793,793,793,793,793,794,794,796,802,809,820,826,828,831,831,831,836,846,852,856,863,866,868,876,887,894,901,911,915,927,942,948,954,965,1016,1038,1055,1064,1071,1076,1093,1104,1107,1107,1108,1109,1110,1112,1115],"ymouse":[624,624,624,624,624,624,624,624,624,624,624,624,624,624,624,624,624,624,624,624,624,624,624,624,624,624,624,624,624,624,624,624,624,624,624,625,625,625,623,615,589,560,540,520,478,443,379,313,262,224,173,155,139,114,82,60,38,16,8,0,0,0,0,0,0,0,0,0,0,0,0,0,0,0,0,0,0,0,3],"timestamp_mouse":[13,44,51,73,93,112,132,153,173,192,213,232,253,272,292,313,332,352,372,392,413,433,453,472,492,512,533,552,572,593,613,631,652,672,691,712,731,753,772,792,812,832,852,872,893,912,931,952,972,992,1012,1032,1052,1072,1093,1112,1132,1153,1172,1192,1212,1233,1252,1273,1293,1313,1332,1352,1373,1393,1412,1433,1452,1472,1493,1512,1531,1553,1572],"xSR":741.5,"ySR":573.95,"xT1":424.9,"yT1":0,"xT2":1058.1,"yT2":0,"toosoon":0,"cond_shown":"Congruent","ratio_trial":100,"L_num":1,"L_den":2,"R_num":18,"R_den":30,"correct_side":2,"subjID":"SilvanaPinedaDuran16","gender":"1","school":"6","age":"11"},{"start_time":1551880779571,"click_time":1551880781615,"finger_time":1551880780895,"fix_duration":715.6105560261987,"trial":32,"RT":1324,"MT":720,"sideResp":1,"stimulus":[],"xmouse":[809,809,809,809,809,809,809,809,809,809,809,809,809,809,809,809,809,809,809,809,809,809,809,809,809,809,809,809,809,809,809,809,809,809,809,809,809,809,809,809,809,809,809,809,809,809,809,809,809,809,809,809,809,809,809,809,809,809,809,809,809,809,809,809,809,802,767,641,578,536,509,491,470,466,460,455,449,446,446,446,446,446,445,443,443,439,434,427,425,423,422,419,417,417,417,417,419,421,422,423,424,424,425],"ymouse":[584,584,584,584,584,584,584,584,584,584,584,584,584,584,584,584,584,584,584,584,584,584,584,584,584,584,584,584,584,584,584,584,584,584,584,584,584,584,584,584,584,584,584,584,584,584,584,584,584,584,584,584,584,584,584,584,584,584,584,584,584,584,584,584,584,582,563,498,469,446,428,413,395,388,380,368,341,317,289,258,225,177,163,157,153,143,134,118,113,109,104,91,86,83,81,81,74,70,68,67,65,65,63],"timestamp_mouse":[9,24,45,64,84,105,124,143,165,184,205,225,244,264,285,303,324,344,364,384,404,423,444,465,484,504,524,544,563,584,604,624,644,665,684,705,724,744,764,785,804,824,844,863,884,904,925,944,965,984,1005,1025,1045,1065,1083,1104,1124,1145,1164,1185,1205,1224,1244,1263,1285,1304,1324,1345,1364,1383,1404,1424,1444,1465,1484,1504,1525,1544,1564,1583,1604,1625,1643,1664,1684,1705,1724,1744,1763,1785,1805,1826,1845,1865,1884,1904,1926,1944,1964,1984,2005,2026,2044],"xSR":741.5,"ySR":573.95,"xT1":424.9,"yT1":0,"xT2":1058.1,"yT2":0,"toosoon":0,"cond_shown":"Congruent","ratio_trial":300,"L_num":18,"L_den":20,"R_num":9,"R_den":15,"correct_side":1,"subjID":"SilvanaPinedaDuran16","gender":"1","school":"6","age":"11"},{"start_time":1551880783600,"click_time":1551880785596,"finger_time":1551880784415,"fix_duration":422.5667274320932,"trial":33,"RT":815,"MT":1181,"sideResp":1,"stimulus":[],"xmouse":[784,784,784,784,784,784,784,784,784,784,784,784,784,784,784,784,784,784,784,784,784,784,784,784,784,784,784,784,784,784,784,785,785,785,786,787,791,798,812,830,878,893,898,899,901,901,901,901,901,901,901,901,901,901,901,901,901,901,901,901,901,901,901,901,901,901,901,912,912,907,905,898,859,844,800,737,717,699,685,663,650,637,627,620,616,593,576,563,551,545,545,545,545,544,544,541,537,532,527,521],"ymouse":[649,649,649,649,649,649,649,649,649,649,649,649,649,649,649,649,649,649,649,649,649,649,649,649,649,649,649,649,649,649,649,649,649,649,651,651,647,642,629,609,603,605,606,606,608,608,608,608,608,608,608,608,608,608,608,608,608,608,608,608,608,608,608,608,608,608,608,628,667,683,683,667,572,535,419,259,186,123,72,0,0,0,0,0,0,24,42,60,76,92,93,93,93,94,93,82,69,55,42,33],"timestamp_mouse":[16,37,56,76,96,116,136,155,175,196,215,236,255,275,296,317,335,355,376,396,416,436,457,475,496,515,535,556,576,595,617,637,656,676,695,716,735,756,776,796,815,835,856,875,895,916,935,956,975,995,1016,1035,1055,1075,1097,1118,1136,1156,1177,1196,1216,1237,1256,1276,1295,1317,1335,1355,1375,1396,1416,1437,1456,1476,1496,1517,1535,1555,1576,1597,1616,1637,1656,1677,1696,1717,1736,1756,1776,1798,1815,1837,1856,1876,1895,1915,1936,1956,1976,1996],"xSR":741.5,"ySR":573.95,"xT1":424.9,"yT1":0,"xT2":1058.1,"yT2":0,"toosoon":0,"cond_shown":"Congruent","ratio_trial":100,"L_num":8,"L_den":16,"R_num":2,"R_den":5,"correct_side":1,"subjID":"SilvanaPinedaDuran16","gender":"1","school":"6","age":"11"},{"start_time":1551880787315,"click_time":1551880788797,"finger_time":1551880788237,"fix_duration":616.5769735954353,"trial":34,"RT":922,"MT":560,"sideResp":1,"stimulus":[],"xmouse":[770,770,770,770,770,770,770,770,770,770,770,770,770,770,770,770,770,770,770,770,770,770,770,770,770,770,770,770,770,770,770,770,770,770,770,770,770,770,770,770,770,770,770,770,770,763,754,735,689,659,611,584,564,553,535,532,530,530,529,528,526,526,526,526,526,526,526,524,522,520,509,502,496,494,492],"ymouse":[600,600,600,600,600,600,600,600,600,600,600,600,600,600,600,600,600,600,600,600,600,600,600,600,600,600,600,600,600,600,600,600,600,600,600,600,600,600,600,600,600,600,600,600,600,589,573,530,450,404,322,265,221,195,166,161,157,154,151,146,141,140,140,140,140,140,140,138,136,134,118,111,104,100,96],"timestamp_mouse":[9,22,40,62,81,102,121,141,162,180,200,220,241,261,280,302,322,341,360,381,402,420,442,460,482,500,522,541,561,582,602,621,641,662,682,700,722,740,760,782,800,822,841,861,881,900,922,941,960,981,1001,1020,1040,1061,1082,1101,1121,1140,1160,1181,1201,1221,1241,1262,1281,1301,1321,1341,1360,1380,1400,1420,1441,1462,1482],"xSR":741.5,"ySR":573.95,"xT1":424.9,"yT1":0,"xT2":1058.1,"yT2":0,"toosoon":0,"cond_shown":"Congruent","ratio_trial":100,"L_num":8,"L_den":16,"R_num":2,"R_den":5,"correct_side":1,"subjID":"SilvanaPinedaDuran16","gender":"1","school":"6","age":"11"},{"start_time":1551880790426,"click_time":1551880792397,"finger_time":1551880791976,"fix_duration":250,"trial":35,"RT":1550,"MT":421,"sideResp":2,"stimulus":[],"xmouse":[790,790,790,790,790,790,790,790,790,790,790,790,790,790,790,790,790,790,790,790,790,790,790,790,790,790,790,790,790,790,790,790,790,790,790,790,790,790,790,790,790,790,790,790,790,790,790,790,790,790,790,790,790,790,790,790,790,790,790,790,790,790,790,790,790,790,790,790,790,790,790,790,790,790,790,790,794,804,840,934,959,969,975,981,989,995,1001,1009,1017,1032,1036,1041,1046,1050,1057,1061,1065,1070,1076],"ymouse":[591,591,591,591,591,591,591,591,591,591,591,591,591,591,591,591,591,591,591,591,591,591,591,591,591,591,591,591,591,591,591,591,591,591,591,591,591,591,591,591,591,591,591,591,591,591,591,591,591,591,591,591,591,591,591,591,591,591,591,591,591,591,591,591,591,591,591,591,591,591,591,591,591,591,591,591,588,573,525,411,377,357,341,333,322,312,304,290,275,250,238,227,209,195,170,157,146,133,95],"timestamp_mouse":[10,40,49,70,91,110,131,151,170,190,209,230,251,269,291,309,331,350,369,390,411,429,449,471,489,510,531,549,571,590,610,631,650,670,689,710,729,751,769,789,810,830,849,869,889,910,930,950,969,991,1010,1031,1050,1069,1090,1110,1129,1149,1171,1190,1209,1229,1251,1271,1291,1310,1331,1351,1370,1391,1409,1431,1450,1470,1490,1510,1530,1550,1571,1590,1611,1630,1650,1670,1690,1710,1729,1750,1771,1789,1811,1830,1850,1870,1890,1909,1930,1950,1971],"xSR":741.5,"ySR":573.95,"xT1":424.9,"yT1":0,"xT2":1058.1,"yT2":0,"toosoon":0,"cond_shown":"Incongruent","ratio_trial":200,"L_num":11,"L_den":20,"R_num":3,"R_den":4,"correct_side":2,"subjID":"SilvanaPinedaDuran16","gender":"1","school":"6","age":"11"},{"start_time":1551880794339,"click_time":1551880795415,"finger_time":1551880795296,"fix_duration":361.84149197617563,"trial":36,"RT":957,"MT":119,"sideResp":1,"stimulus":[],"xmouse":[820,820,820,820,820,820,820,820,820,820,820,820,820,820,820,820,820,820,820,820,820,820,820,820,820,820,820,820,820,820,816,814,810,805,805,805,805,805,805,805,805,805,805,805,805,797,790,753,671,625,586,560,535,510],"ymouse":[610,610,610,610,610,610,610,610,610,610,610,610,610,610,610,610,610,610,610,610,610,610,610,610,610,610,610,610,610,610,609,607,604,599,598,598,598,598,598,598,598,598,598,598,598,586,576,502,363,281,206,142,88,33],"timestamp_mouse":[17,42,57,78,96,118,137,156,177,197,217,236,258,277,297,318,336,356,377,397,417,436,458,478,497,518,536,556,578,598,617,637,657,677,696,718,738,756,777,798,817,837,856,876,897,917,938,957,976,996,1016,1037,1057,1076],"xSR":741.5,"ySR":573.95,"xT1":424.9,"yT1":0,"xT2":1058.1,"yT2":0,"toosoon":0,"cond_shown":"Incongruent","ratio_trial":200,"L_num":1,"L_den":3,"R_num":2,"R_den":15,"correct_side":1,"subjID":"SilvanaPinedaDuran16","gender":"1","school":"6","age":"11"},{"start_time":1551880797526,"click_time":1551880799576,"finger_time":1551880799136,"fix_duration":449.3101422302778,"trial":37,"RT":1610,"MT":440,"sideResp":1,"stimulus":[],"xmouse":[787,787,787,787,787,787,787,787,787,787,787,787,787,787,788,788,788,788,788,788,788,788,788,788,788,789,789,789,789,789,789,789,789,789,789,789,789,789,789,789,789,789,789,790,790,790,790,790,790,790,790,790,790,790,790,790,790,790,790,790,790,790,790,790,790,790,790,790,790,790,790,790,790,790,790,790,790,790,790,790,781,769,731,642,605,581,567,560,551,549,545,543,539,536,535,535,535,535,535,535,534,529,521],"ymouse":[603,603,603,603,603,603,603,603,602,602,602,602,602,602,599,598,598,598,598,597,597,597,597,597,596,595,595,595,595,595,595,595,595,595,594,593,591,590,589,587,587,587,587,587,587,587,586,586,586,586,586,586,586,586,586,586,586,586,586,586,586,586,586,586,586,586,586,586,586,586,586,586,586,586,586,586,586,586,586,575,554,522,438,263,204,161,138,120,96,89,80,74,67,63,62,62,62,62,62,62,62,60,58],"timestamp_mouse":[10,39,49,70,91,111,130,150,170,191,210,230,250,270,289,309,330,350,370,390,409,429,450,469,490,510,530,549,570,590,609,630,650,669,690,710,730,750,769,791,810,829,851,869,890,910,931,950,971,990,1010,1029,1049,1070,1090,1110,1130,1150,1171,1190,1209,1231,1249,1271,1290,1311,1330,1349,1370,1391,1409,1430,1451,1469,1490,1511,1530,1550,1569,1591,1610,1631,1650,1671,1690,1709,1730,1750,1771,1790,1809,1830,1850,1870,1890,1909,1929,1951,1970,1990,2010,2030,2050],"xSR":741.5,"ySR":573.95,"xT1":424.9,"yT1":0,"xT2":1058.1,"yT2":0,"toosoon":0,"cond_shown":"Congruent","ratio_trial":100,"L_num":6,"L_den":20,"R_num":5,"R_den":25,"correct_side":1,"subjID":"SilvanaPinedaDuran16","gender":"1","school":"6","age":"11"},{"start_time":1551880801993,"click_time":1551880803736,"finger_time":1551880803415,"fix_duration":735.3698105560469,"trial":38,"RT":1422,"MT":321,"sideResp":1,"stimulus":[],"xmouse":[802,802,802,802,802,802,802,802,802,802,802,802,802,802,802,802,802,802,802,802,802,802,802,802,802,802,802,802,802,802,802,802,802,802,802,802,802,802,802,802,802,802,802,802,802,802,802,802,802,802,802,802,802,802,802,802,802,802,802,802,802,802,802,802,802,802,802,802,802,800,794,759,742,722,711,700,670,648,615,590,577,558,553,548,541,537,526,522],"ymouse":[586,586,586,586,586,586,586,586,586,586,586,586,586,586,586,586,586,586,586,586,586,586,586,586,586,586,586,586,586,586,586,586,586,586,586,586,586,586,586,586,586,586,586,586,586,586,586,586,586,586,586,586,586,586,586,586,586,586,586,586,586,586,586,586,586,586,586,586,586,586,583,557,544,523,506,483,431,392,316,257,218,159,142,128,109,101,81,74],"timestamp_mouse":[10,37,43,63,82,103,123,142,163,183,204,223,243,264,283,303,323,344,363,383,404,423,443,463,482,503,523,543,562,582,602,622,642,663,683,702,724,743,763,782,802,823,843,862,883,902,923,943,964,982,1003,1022,1043,1063,1082,1103,1124,1142,1164,1183,1203,1224,1242,1263,1282,1303,1323,1343,1363,1382,1404,1422,1443,1463,1483,1502,1524,1542,1564,1583,1604,1622,1642,1662,1682,1703,1723,1743],"xSR":741.5,"ySR":573.95,"xT1":424.9,"yT1":0,"xT2":1058.1,"yT2":0,"toosoon":0,"cond_shown":"Congruent","ratio_trial":100,"L_num":3,"L_den":6,"R_num":2,"R_den":5,"correct_side":1,"subjID":"SilvanaPinedaDuran16","gender":"1","school":"6","age":"11"},{"start_time":1551880805858,"click_time":1551880806896,"finger_time":1551880806515,"fix_duration":999.7965587965126,"trial":39,"RT":657,"MT":381,"sideResp":1,"stimulus":[],"xmouse":[806,806,806,806,806,806,806,806,806,806,806,806,806,806,806,806,806,806,806,806,806,806,806,806,806,806,806,806,806,806,806,806,798,767,728,690,658,624,612,598,587,570,565,562,560,556,548,545,542,536,529,521],"ymouse":[580,580,580,580,580,580,580,580,580,580,580,580,580,580,580,580,580,580,580,580,580,580,580,580,580,580,580,580,580,580,580,580,552,474,398,331,278,221,199,175,156,127,120,117,113,108,101,98,95,91,87,80],"timestamp_mouse":[18,37,58,78,97,118,139,157,178,198,217,238,257,278,299,318,338,358,379,398,418,437,457,479,498,517,538,557,579,597,618,638,657,677,699,718,738,757,778,797,817,839,858,877,898,918,939,957,977,998,1018,1038],"xSR":741.5,"ySR":573.95,"xT1":424.9,"yT1":0,"xT2":1058.1,"yT2":0,"toosoon":0,"cond_shown":"Incongruent","ratio_trial":300,"L_num":4,"L_den":5,"R_num":6,"R_den":12,"correct_side":1,"subjID":"SilvanaPinedaDuran16","gender":"1","school":"6","age":"11"},{"start_time":1551880809265,"click_time":1551880810776,"finger_time":1551880810215,"fix_duration":1047.6439115076596,"trial":40,"RT":950,"MT":561,"sideResp":1,"stimulus":[],"xmouse":[810,810,810,810,810,810,810,810,810,810,810,810,810,810,810,810,810,810,810,810,810,810,810,810,810,810,810,810,810,810,810,810,810,810,810,810,810,810,810,810,810,810,810,810,810,807,800,770,752,740,731,715,705,695,684,671,650,645,641,635,629,618,601,590,577,568,557,543,539,534,530,524,517,513,508,499],"ymouse":[600,600,600,600,600,600,600,600,600,600,600,600,600,600,600,600,600,600,600,600,600,600,600,600,600,600,600,600,600,600,600,600,600,600,600,600,600,600,600,600,600,600,600,600,600,594,586,551,532,520,509,489,472,453,434,411,374,363,350,336,321,296,262,240,219,203,188,163,154,147,140,129,117,110,102,91],"timestamp_mouse":[11,40,51,72,91,112,130,150,171,190,212,231,252,272,290,310,332,352,370,391,410,432,450,471,492,510,530,550,571,591,611,632,650,671,690,710,730,751,771,792,810,831,851,870,890,911,930,950,972,991,1011,1032,1051,1070,1091,1110,1132,1151,1172,1191,1210,1230,1250,1270,1291,1311,1330,1350,1371,1391,1411,1431,1451,1471,1491,1511],"xSR":741.5,"ySR":573.95,"xT1":424.9,"yT1":0,"xT2":1058.1,"yT2":0,"toosoon":0,"cond_shown":"Congruent","ratio_trial":200,"L_num":6,"L_den":12,"R_num":7,"R_den":10,"correct_side":2,"subjID":"SilvanaPinedaDuran16","gender":"1","school":"6","age":"11"},{"start_time":1551880812942,"click_time":1551880814517,"finger_time":1551880814216,"fix_duration":765.1663909068504,"trial":41,"RT":1274,"MT":301,"sideResp":1,"stimulus":[],"xmouse":[786,786,786,786,786,786,787,788,791,792,793,793,794,794,794,794,794,794,794,794,794,794,794,794,794,794,794,794,794,794,794,794,794,794,794,794,794,794,794,794,794,794,794,794,794,794,794,794,794,794,794,794,794,794,794,794,794,794,794,794,794,794,794,792,779,758,724,641,603,569,548,535,521,516,511,508,506,503,488],"ymouse":[624,624,624,624,624,624,620,617,607,599,594,589,585,585,585,585,585,585,585,585,585,585,585,585,585,585,585,585,585,585,585,585,585,585,585,585,585,585,585,585,585,585,585,585,585,585,585,585,585,585,585,585,585,585,585,585,585,585,585,585,585,585,585,572,543,499,436,311,239,195,167,148,128,121,114,110,107,104,86],"timestamp_mouse":[14,37,55,74,93,114,134,153,175,194,214,234,254,275,294,315,334,354,374,393,415,434,453,474,493,514,534,553,575,593,614,634,653,675,695,713,735,754,773,793,814,835,854,875,894,915,933,953,973,993,1015,1033,1053,1074,1095,1113,1134,1155,1175,1194,1214,1234,1254,1274,1294,1314,1334,1355,1373,1393,1414,1433,1454,1474,1494,1514,1535,1553,1574],"xSR":741.5,"ySR":573.95,"xT1":424.9,"yT1":0,"xT2":1058.1,"yT2":0,"toosoon":0,"cond_shown":"Incongruent","ratio_trial":100,"L_num":3,"L_den":6,"R_num":4,"R_den":10,"correct_side":1,"subjID":"SilvanaPinedaDuran16","gender":"1","school":"6","age":"11"},{"start_time":1551880818644,"click_time":1551880820476,"finger_time":1551880820096,"fix_duration":1326.1550940034358,"trial":42,"RT":1452,"MT":380,"sideResp":2,"stimulus":[],"xmouse":[797,797,797,797,797,797,797,797,797,797,797,797,797,797,797,797,797,797,797,797,797,797,797,797,797,797,797,797,797,797,797,797,797,797,797,797,797,797,797,797,797,797,797,797,797,797,797,797,797,797,797,797,797,797,797,797,797,797,797,797,797,797,797,797,797,797,797,797,797,797,799,803,832,855,878,894,910,943,960,974,985,997,1014,1032,1042,1049,1055,1067,1072,1082,1097,1107],"ymouse":[595,595,595,595,595,595,595,595,595,595,595,595,595,595,595,595,595,595,595,595,595,595,595,595,595,595,595,595,595,595,595,595,595,595,595,595,595,595,595,595,595,595,595,595,595,595,595,595,595,595,595,595,595,595,595,595,595,595,595,595,595,595,595,595,595,595,595,595,595,595,594,584,540,509,476,454,434,401,385,373,359,340,310,268,248,231,215,185,170,145,118,93],"timestamp_mouse":[12,37,53,72,92,112,133,153,171,193,213,231,251,272,293,313,331,353,371,392,413,431,453,471,491,513,533,551,572,593,611,632,652,672,693,712,732,753,772,792,812,831,852,872,891,911,932,952,972,992,1013,1032,1051,1073,1093,1111,1133,1151,1172,1192,1212,1231,1251,1273,1291,1313,1332,1351,1373,1391,1412,1433,1452,1472,1492,1512,1532,1553,1572,1592,1611,1632,1652,1672,1691,1712,1732,1752,1771,1792,1812,1832],"xSR":741.5,"ySR":573.95,"xT1":424.9,"yT1":0,"xT2":1058.1,"yT2":0,"toosoon":0,"cond_shown":"Congruent","ratio_trial":300,"L_num":2,"L_den":10,"R_num":12,"R_den":24,"correct_side":2,"subjID":"SilvanaPinedaDuran16","gender":"1","school":"6","age":"11"},{"start_time":1551880823437,"click_time":1551880824757,"finger_time":1551880824236,"fix_duration":1239.6901310301123,"trial":43,"RT":799,"MT":521,"sideResp":1,"stimulus":[],"xmouse":[801,801,801,801,801,801,801,801,801,801,801,801,801,801,801,801,801,801,801,801,801,801,801,801,801,801,801,801,801,801,801,801,801,801,801,801,801,801,801,796,791,777,753,681,665,655,646,642,632,626,621,614,606,600,590,585,578,571,555,544,536,524,519,516,514,513,510],"ymouse":[590,590,590,590,590,590,590,590,590,590,590,590,590,590,590,590,590,590,590,590,590,590,590,590,590,590,590,590,590,590,590,590,590,590,590,590,590,590,590,577,560,520,469,364,342,326,313,305,285,277,266,255,243,233,218,210,202,191,167,153,141,127,120,112,109,105,99],"timestamp_mouse":[1,18,39,59,80,100,119,139,159,179,200,219,239,259,280,298,320,340,358,378,398,420,438,458,480,500,518,538,559,579,599,619,639,659,680,699,719,739,759,779,799,819,840,859,878,899,918,938,960,979,999,1018,1038,1058,1078,1099,1120,1139,1158,1180,1198,1218,1238,1259,1278,1299,1320],"xSR":741.5,"ySR":573.95,"xT1":424.9,"yT1":0,"xT2":1058.1,"yT2":0,"toosoon":0,"cond_shown":"Congruent","ratio_trial":200,"L_num":21,"L_den":30,"R_num":2,"R_den":4,"correct_side":1,"subjID":"SilvanaPinedaDuran16","gender":"1","school":"6","age":"11"},{"start_time":1551880826939,"click_time":1551880829096,"finger_time":1551880828496,"fix_duration":542.4831081119888,"trial":44,"RT":1557,"MT":600,"sideResp":1,"stimulus":[],"xmouse":[804,804,804,804,804,804,804,804,804,804,804,804,804,804,804,804,804,798,779,772,771,771,771,771,771,771,771,771,771,771,771,771,771,771,771,771,771,771,771,771,771,771,771,771,771,771,771,771,771,771,771,771,771,771,771,771,771,771,771,771,771,771,771,771,771,771,771,771,771,771,771,771,771,771,770,768,763,738,730,722,718,713,709,706,703,699,696,688,686,683,679,673,655,646,636,629,622,613,589,581,575,571,557,551,544,538,531,521],"ymouse":[623,623,623,623,623,623,623,623,623,623,623,623,623,623,623,623,623,623,629,631,631,631,631,631,631,631,631,631,631,631,631,631,631,631,631,631,631,631,631,631,631,631,631,631,631,631,631,631,631,631,631,631,631,631,631,631,631,630,630,629,629,629,629,629,629,629,629,629,629,629,629,629,629,629,625,617,599,517,486,461,436,409,361,342,324,313,300,277,274,269,265,261,252,249,244,241,237,232,215,206,199,190,159,137,113,87,63,15],"timestamp_mouse":[16,43,57,77,98,117,138,157,176,198,216,236,258,278,296,316,337,357,378,397,416,438,458,476,498,516,536,558,576,597,618,636,657,677,696,716,737,758,777,796,818,836,857,878,896,918,938,956,976,998,1018,1036,1057,1077,1098,1116,1138,1157,1178,1198,1218,1237,1257,1278,1296,1318,1336,1356,1378,1398,1418,1436,1457,1477,1497,1517,1537,1557,1576,1596,1616,1637,1657,1677,1697,1716,1737,1756,1776,1796,1818,1837,1857,1877,1898,1917,1937,1956,1976,1996,2017,2037,2057,2077,2097,2117,2138,2157],"xSR":741.5,"ySR":573.95,"xT1":424.9,"yT1":0,"xT2":1058.1,"yT2":0,"toosoon":0,"cond_shown":"Congruent","ratio_trial":300,"L_num":11,"L_den":22,"R_num":1,"R_den":5,"correct_side":1,"subjID":"SilvanaPinedaDuran16","gender":"1","school":"6","age":"11"},{"start_time":1551880830748,"click_time":1551880832256,"finger_time":1551880831796,"fix_duration":250,"trial":45,"RT":1048,"MT":460,"sideResp":1,"stimulus":[],"xmouse":[779,779,779,779,779,779,779,779,779,779,779,779,779,779,779,779,779,779,779,779,779,779,779,779,779,779,779,779,779,779,779,779,779,779,779,779,779,779,779,779,779,779,779,779,779,779,779,779,779,779,779,776,765,744,713,673,643,621,598,594,592,587,582,573,568,562,560,556,555,552,549,544,533,527,523,518],"ymouse":[593,593,593,593,593,593,593,593,593,593,593,593,593,593,593,593,593,593,593,593,593,593,593,593,593,593,593,593,593,593,593,593,593,593,593,593,593,593,593,593,593,593,593,593,593,593,593,593,593,593,593,593,573,533,475,405,350,301,249,239,230,220,209,187,176,166,160,153,150,145,140,133,114,108,100,91],"timestamp_mouse":[9,39,48,68,88,108,128,148,169,187,207,229,249,268,288,308,328,347,368,388,407,428,449,467,489,507,529,547,568,587,608,628,647,669,688,707,729,749,768,787,809,829,848,867,888,909,928,947,969,988,1007,1028,1048,1067,1088,1108,1129,1147,1167,1187,1208,1228,1247,1267,1288,1308,1329,1348,1368,1387,1409,1428,1448,1467,1487,1507],"xSR":741.5,"ySR":573.95,"xT1":424.9,"yT1":0,"xT2":1058.1,"yT2":0,"toosoon":0,"cond_shown":"Incongruent","ratio_trial":200,"L_num":7,"L_den":10,"R_num":12,"R_den":24,"correct_side":1,"subjID":"SilvanaPinedaDuran16","gender":"1","school":"6","age":"11"},{"start_time":1551880833926,"click_time":1551880835596,"finger_time":1551880834835,"fix_duration":929.8567529720041,"trial":46,"RT":909,"MT":761,"sideResp":2,"stimulus":[],"xmouse":[758,758,758,758,758,758,758,758,758,758,758,758,758,758,758,758,758,758,758,758,758,758,758,758,758,758,758,758,758,758,758,758,758,758,758,758,758,758,758,758,758,758,758,761,809,858,895,914,953,966,977,987,998,1016,1023,1028,1032,1035,1039,1048,1050,1052,1053,1055,1056,1058,1059,1061,1067,1073,1081,1085,1088,1091,1091,1091,1091,1091,1091,1091,1091,1091,1091,1094],"ymouse":[630,630,630,630,630,630,630,630,630,630,630,630,630,630,630,630,630,630,630,630,630,630,630,630,630,630,630,630,630,630,630,630,630,630,630,630,630,630,630,630,630,630,630,630,607,584,564,553,519,504,488,472,454,416,398,381,367,354,339,295,281,270,260,248,244,240,236,231,214,200,182,164,150,136,133,130,128,124,116,110,107,104,101,88],"timestamp_mouse":[10,45,50,70,89,110,131,149,170,191,209,230,250,269,291,310,329,350,370,390,411,430,449,470,490,509,530,550,570,590,611,630,650,669,690,711,730,751,770,790,811,831,850,870,890,909,929,950,970,990,1009,1030,1049,1069,1089,1110,1130,1149,1169,1190,1209,1230,1250,1270,1289,1310,1330,1351,1370,1390,1410,1430,1450,1469,1490,1510,1530,1550,1569,1589,1610,1630,1649,1669],"xSR":741.5,"ySR":573.95,"xT1":424.9,"yT1":0,"xT2":1058.1,"yT2":0,"toosoon":0,"cond_shown":"Congruent","ratio_trial":300,"L_num":3,"L_den":6,"R_num":4,"R_den":5,"correct_side":2,"subjID":"SilvanaPinedaDuran16","gender":"1","school":"6","age":"11"},{"start_time":1551880837823,"click_time":1551880839675,"finger_time":1551880839296,"fix_duration":1306.660181918313,"trial":47,"RT":1473,"MT":379,"sideResp":2,"stimulus":[],"xmouse":[796,796,796,796,796,796,796,796,796,796,796,796,796,796,796,796,796,796,796,796,796,796,796,796,796,796,796,796,796,796,796,796,796,796,796,796,796,796,796,796,796,796,796,796,796,796,796,796,796,796,796,796,796,796,796,796,796,796,796,796,796,796,796,796,796,796,796,796,796,796,796,795,798,822,837,850,863,888,924,964,976,987,1002,1032,1050,1057,1065,1069,1072,1072,1074,1075,1075],"ymouse":[620,620,620,620,620,620,620,620,620,620,620,620,620,620,620,620,620,620,620,620,620,620,620,620,620,620,620,620,620,620,620,620,620,620,620,620,620,620,620,620,620,620,620,620,620,620,620,620,620,620,620,620,620,620,620,620,620,620,620,620,620,620,620,620,620,620,620,620,620,620,620,614,605,542,507,477,450,402,362,307,290,273,256,223,204,192,179,169,145,130,114,100,92],"timestamp_mouse":[12,38,52,73,93,112,132,154,172,193,212,233,253,272,294,313,334,352,374,394,413,433,452,472,494,512,533,554,574,593,614,632,654,673,692,713,732,753,774,793,812,832,854,872,892,913,934,952,973,992,1013,1033,1054,1073,1093,1114,1132,1153,1172,1194,1214,1232,1254,1272,1294,1313,1333,1354,1374,1392,1413,1433,1453,1473,1493,1512,1534,1553,1573,1593,1613,1632,1653,1673,1692,1713,1734,1753,1773,1792,1813,1833,1852],"xSR":741.5,"ySR":573.95,"xT1":424.9,"yT1":0,"xT2":1058.1,"yT2":0,"toosoon":0,"cond_shown":"Congruent","ratio_trial":200,"L_num":3,"L_den":12,"R_num":9,"R_den":20,"correct_side":2,"subjID":"SilvanaPinedaDuran16","gender":"1","school":"6","age":"11"},{"start_time":1551880841486,"click_time":1551880842915,"finger_time":1551880842175,"fix_duration":790.3316221079177,"trial":48,"RT":689,"MT":740,"sideResp":2,"stimulus":[],"xmouse