[{"start_time":1551881389991,"click_time":1551881391842,"finger_time":1551881390004,"fix_duration":1444.9367699801717,"trial":0,"RT":13,"MT":1838,"sideResp":2,"stimulus":"img/500/randomdotsizeEA/R/15_Ratio_500_L_1_R_2.png","xmouse":[801,801,801,801,801,801,801,801,801,801,801,801,801,801,801,801,801,801,801,801,801,801,801,801,801,801,801,801,801,801,801,801,801,801,801,801,801,801,801,801,801,801,801,801,801,801,801,801,801,801,801,801,801,801,801,801,801,801,801,801,801,801,801,801,801,801,802,812,847,883,925,955,986,1014,1023,1029,1040,1057,1084,1091,1098,1104,1115,1133,1141,1146,1148,1149,1150,1152,1152,1152,1152],"ymouse":[554,554,554,554,554,554,554,554,554,554,554,554,554,554,554,554,554,554,554,554,554,554,554,554,554,554,554,554,554,554,554,554,554,554,554,554,554,554,554,554,554,554,554,554,554,554,554,554,554,554,554,554,554,554,554,554,554,554,554,554,554,554,554,554,554,554,554,553,514,470,421,386,350,319,308,302,293,284,269,265,259,253,231,191,174,161,151,143,133,112,106,102,97],"timestamp_mouse":[13,46,51,70,91,111,131,151,171,190,211,231,251,270,290,311,331,351,371,390,411,431,450,471,490,512,530,550,570,590,610,631,651,670,690,710,730,751,771,791,810,830,850,870,891,911,930,951,970,992,1011,1031,1050,1070,1091,1111,1131,1150,1170,1190,1210,1231,1250,1270,1291,1310,1332,1352,1370,1390,1411,1431,1451,1470,1490,1511,1530,1551,1570,1590,1610,1631,1652,1670,1690,1711,1731,1750,1770,1791,1810,1831,1850],"xSR":741.5,"ySR":481,"xT1":424.9,"yT1":0,"xT2":1058.1,"yT2":0,"toosoon":0,"cond_shown":"randomdotsizeEA","ratio_trial":500,"smaller_num":"1","larger_num":"2","correct_side":2,"subjID":"SilvanaPinedaDuran16","gender":"1","age":"11","school":"6","test":{"fix_dur":[250,1500],"timestim":300,"targets_dim":[100,100],"targets_relative_coord":[0.3,0.7],"size_stim":[880,420],"start_dim":[100,100],"size_start":[300,300],"size_fix":60,"samplingrate":20,"img_types":["equaldotsize","equaldotanddens","randomdotsizeEA"],"ratios":[250,500,750,900],"rep_conds":9,"nTrials":120,"trials_to_rest":500,"Trials_order":[77,26,90,104,73,20,66,75,89,13,87,31,116,99,55,39,63,51,40,52,17,82,91,15,106,29,100,85,108,69,102,46,7,11,44,84,50,18,43,105,58,23,97,71,3,61,86,56,57,8,113,94,19,80,72,48,6,93,74,28,98,22,110,60,59,119,95,33,4,54,16,36,37,24,27,88,47,68,38,107,109,111,53,45,118,76,117,62,41,83,1,25,34,92,70,64,112,2,81,42,9,32,35,30,67,5,49,14,0,114,65,12,78,101,21,96,10,103,79,115],"cond_shown":["randomdotsizeEA","randomdotsizeEA","equaldotsize","randomdotsizeEA","equaldotanddens","randomdotsizeEA","equaldotsize","equaldotsize","randomdotsizeEA","equaldotanddens","equaldotsize","equaldotanddens","randomdotsizeEA","equaldotsize","equaldotanddens","equaldotsize","equaldotsize","equaldotsize","equaldotanddens","equaldotanddens","randomdotsizeEA","equaldotanddens","equaldotanddens","equaldotsize","equaldotanddens","randomdotsizeEA","equaldotanddens","equaldotanddens","equaldotsize","equaldotsize","equaldotsize","equaldotanddens","equaldotanddens","randomdotsizeEA","randomdotsizeEA","equaldotsize","randomdotsizeEA","equaldotsize","equaldotanddens","equaldotsize","equaldotanddens","randomdotsizeEA","equaldotanddens","randomdotsizeEA","equaldotsize","equaldotanddens","randomdotsizeEA","randomdotsizeEA","equaldotsize","randomdotsizeEA","randomdotsizeEA","equaldotanddens","equaldotanddens","randomdotsizeEA","equaldotsize","equaldotsize","equaldotsize","equaldotsize","randomdotsizeEA","equaldotanddens","randomdotsizeEA","equaldotanddens","randomdotsizeEA","equaldotsize","randomdotsizeEA","randomdotsizeEA","randomdotsizeEA","equaldotsize","equaldotanddens","equaldotsize","equaldotanddens","equaldotsize","equaldotanddens","equaldotsize","equaldotsize","equaldotanddens","randomdotsizeEA","randomdotsizeEA","randomdotsizeEA","randomdotsizeEA","equaldotanddens","equaldotsize","randomdotsizeEA","equaldotsize","equaldotanddens","equaldotanddens","equaldotsize","randomdotsizeEA","randomdotsizeEA","randomdotsizeEA","equaldotanddens","equaldotanddens","equaldotanddens","randomdotsizeEA","equaldotanddens","equaldotanddens","equaldotanddens","randomdotsizeEA","equaldotsize","equaldotsize","equaldotsize","randomdotsizeEA","randomdotsizeEA","equaldotsize","equaldotanddens","randomdotsizeEA","equaldotanddens","randomdotsizeEA","equaldotsize","equaldotsize","randomdotsizeEA","equaldotsize","equaldotsize","randomdotsizeEA","equaldotsize","equaldotsize","equaldotanddens","equaldotanddens","equaldotanddens","equaldotanddens"],"ratio_trial":[500,250,750,750,250,750,750,500,500,250,500,750,750,500,750,500,500,500,500,500,500,900,750,500,900,500,500,250,250,900,750,900,750,900,750,250,250,750,750,900,900,900,250,900,500,250,250,750,900,750,500,900,750,750,250,250,750,900,250,500,250,900,250,250,900,900,900,900,500,750,500,250,250,250,500,500,900,750,250,900,250,500,500,900,900,500,900,250,500,900,250,250,900,750,900,500,500,250,900,750,900,750,900,750,750,500,250,250,250,750,500,250,750,500,900,250,900,750,750,750],"smaller_num":["1","3","6","3","2","15","3","1","2","6","1","3","3","2","6","2","5","9","10","2","10","9","3","9","18","10","6","6","4","18","3","18","12","18","6","4","4","3","15","18","9","18","1","18","5","3","2","12","9","6","2","18","15","18","2","2","6","18","6","3","3","9","6","1","18","9","18","9","3","3","1","2","2","2","6","9","18","3","3","18","4","2","4","18","18","1","18","3","6","18","5","6","18","6","18","4","6","4","18","12","18","6","18","6","18","9","3","2","3","15","2","6","3","6","18","6","18","18","15","18"],"larger_num":["2","12","8","4","8","20","4","2","4","24","2","4","4","4","8","4","10","18","20","4","20","10","4","18","20","20","12","24","16","20","4","20","16","20","8","16","16","4","20","20","10","20","4","20","10","12","8","16","10","8","4","20","20","24","8","8","8","20","24","6","12","10","24","4","20","10","20","10","6","4","2","8","8","8","12","18","20","4","12","20","16","4","8","20","20","2","20","12","12","20","20","24","20","8","20","8","12","16","20","16","20","8","20","8","24","18","12","8","12","20","4","24","4","12","20","24","20","24","20","24"],"correct_side":[2,1,1,2,1,1,1,2,2,1,2,2,2,1,2,2,2,2,2,1,2,2,1,2,1,2,1,2,1,1,1,1,2,2,1,1,1,1,2,1,1,2,2,1,1,2,1,2,2,1,1,1,1,1,1,1,1,1,1,2,2,1,2,2,2,1,2,2,2,2,2,1,1,1,1,1,1,2,2,2,1,1,1,2,1,2,1,2,1,2,2,1,1,1,1,1,1,1,1,2,2,2,1,1,1,1,1,1,2,2,1,1,1,1,2,1,1,1,2,1],"img_shown":["img/500/randomdotsizeEA/R/15_Ratio_500_L_1_R_2.png","img/250/randomdotsizeEA/L/14_Ratio_250_L_12_R_3.png","img/750/equaldotsize/L/13_Ratio_750_L_8_R_6.png","img/750/randomdotsizeEA/R/7_Ratio_750_L_3_R_4.png","img/250/equaldotanddens/L/7_Ratio_250_L_8_R_2.png","img/750/randomdotsizeEA/L/1_Ratio_750_L_20_R_15.png","img/750/equaldotsize/L/10_Ratio_750_L_4_R_3.png","img/500/equaldotsize/R/12_Ratio_500_L_1_R_2.png","img/500/randomdotsizeEA/R/9_Ratio_500_L_2_R_4.png","img/250/equaldotanddens/L/5_Ratio_250_L_24_R_6.png","img/500/equaldotsize/R/12_Ratio_500_L_1_R_2.png","img/750/equaldotanddens/R/12_Ratio_750_L_3_R_4.png","img/750/randomdotsizeEA/R/12_Ratio_750_L_3_R_4.png","img/500/equaldotsize/L/5_Ratio_500_L_4_R_2.png","img/750/equaldotanddens/R/2_Ratio_750_L_6_R_8.png","img/500/equaldotsize/R/9_Ratio_500_L_2_R_4.png","img/500/equaldotsize/R/14_Ratio_500_L_5_R_10.png","img/500/equaldotsize/R/1_Ratio_500_L_9_R_18.png","img/500/equaldotanddens/R/3_Ratio_500_L_10_R_20.png","img/500/equaldotanddens/L/10_Ratio_500_L_4_R_2.png","img/500/randomdotsizeEA/R/3_Ratio_500_L_10_R_20.png","img/900/equaldotanddens/R/7_Ratio_900_L_9_R_10.png","img/750/equaldotanddens/L/8_Ratio_750_L_4_R_3.png","img/500/equaldotsize/R/6_Ratio_500_L_9_R_18.png","img/900/equaldotanddens/L/4_Ratio_900_L_20_R_18.png","img/500/randomdotsizeEA/R/3_Ratio_500_L_10_R_20.png","img/500/equaldotanddens/L/11_Ratio_500_L_12_R_6.png","img/250/equaldotanddens/R/6_Ratio_250_L_6_R_24.png","img/250/equaldotsize/L/2_Ratio_250_L_16_R_4.png","img/900/equaldotsize/L/2_Ratio_900_L_20_R_18.png","img/750/equaldotsize/L/8_Ratio_750_L_4_R_3.png","img/900/equaldotanddens/L/8_Ratio_900_L_20_R_18.png","img/750/equaldotanddens/R/11_Ratio_750_L_12_R_16.png","img/900/randomdotsizeEA/R/13_Ratio_900_L_18_R_20.png","img/750/randomdotsizeEA/L/14_Ratio_750_L_8_R_6.png","img/250/equaldotsize/L/2_Ratio_250_L_16_R_4.png","img/250/randomdotsizeEA/L/2_Ratio_250_L_16_R_4.png","img/750/equaldotsize/L/10_Ratio_750_L_4_R_3.png","img/750/equaldotanddens/R/4_Ratio_750_L_15_R_20.png","img/900/equaldotsize/L/10_Ratio_900_L_20_R_18.png","img/900/equaldotanddens/L/1_Ratio_900_L_10_R_9.png","img/900/randomdotsizeEA/R/9_Ratio_900_L_18_R_20.png","img/250/equaldotanddens/R/8_Ratio_250_L_1_R_4.png","img/900/randomdotsizeEA/L/10_Ratio_900_L_20_R_18.png","img/500/equaldotsize/L/7_Ratio_500_L_10_R_5.png","img/250/equaldotanddens/R/11_Ratio_250_L_3_R_12.png","img/250/randomdotsizeEA/L/3_Ratio_250_L_8_R_2.png","img/750/randomdotsizeEA/R/11_Ratio_750_L_12_R_16.png","img/900/equaldotsize/R/5_Ratio_900_L_9_R_10.png","img/750/randomdotsizeEA/L/14_Ratio_750_L_8_R_6.png","img/500/randomdotsizeEA/L/10_Ratio_500_L_4_R_2.png","img/900/equaldotanddens/L/10_Ratio_900_L_20_R_18.png","img/750/equaldotanddens/L/1_Ratio_750_L_20_R_15.png","img/750/randomdotsizeEA/L/6_Ratio_750_L_24_R_18.png","img/250/equaldotsize/L/1_Ratio_250_L_8_R_2.png","img/250/equaldotsize/L/1_Ratio_250_L_8_R_2.png","img/750/equaldotsize/L/13_Ratio_750_L_8_R_6.png","img/900/equaldotsize/L/4_Ratio_900_L_20_R_18.png","img/250/randomdotsizeEA/L/5_Ratio_250_L_24_R_6.png","img/500/equaldotanddens/R/2_Ratio_500_L_3_R_6.png","img/250/randomdotsizeEA/R/4_Ratio_250_L_3_R_12.png","img/900/equaldotanddens/L/1_Ratio_900_L_10_R_9.png","img/250/randomdotsizeEA/R/6_Ratio_250_L_6_R_24.png","img/250/equaldotsize/R/8_Ratio_250_L_1_R_4.png","img/900/randomdotsizeEA/R/13_Ratio_900_L_18_R_20.png","img/900/randomdotsizeEA/L/1_Ratio_900_L_10_R_9.png","img/900/randomdotsizeEA/R/13_Ratio_900_L_18_R_20.png","img/900/equaldotsize/R/5_Ratio_900_L_9_R_10.png","img/500/equaldotanddens/R/2_Ratio_500_L_3_R_6.png","img/750/equaldotsize/R/12_Ratio_750_L_3_R_4.png","img/500/equaldotanddens/R/12_Ratio_500_L_1_R_2.png","img/250/equaldotsize/L/1_Ratio_250_L_8_R_2.png","img/250/equaldotanddens/L/7_Ratio_250_L_8_R_2.png","img/250/equaldotsize/L/7_Ratio_250_L_8_R_2.png","img/500/equaldotsize/L/11_Ratio_500_L_12_R_6.png","img/500/equaldotanddens/L/4_Ratio_500_L_18_R_9.png","img/900/randomdotsizeEA/L/4_Ratio_900_L_20_R_18.png","img/750/randomdotsizeEA/R/12_Ratio_750_L_3_R_4.png","img/250/randomdotsizeEA/R/11_Ratio_250_L_3_R_12.png","img/900/randomdotsizeEA/R/13_Ratio_900_L_18_R_20.png","img/250/equaldotanddens/L/2_Ratio_250_L_16_R_4.png","img/500/equaldotsize/L/5_Ratio_500_L_4_R_2.png","img/500/randomdotsizeEA/L/8_Ratio_500_L_8_R_4.png","img/900/equaldotsize/R/11_Ratio_900_L_18_R_20.png","img/900/equaldotanddens/L/8_Ratio_900_L_20_R_18.png","img/500/equaldotanddens/R/12_Ratio_500_L_1_R_2.png","img/900/equaldotsize/L/4_Ratio_900_L_20_R_18.png","img/250/randomdotsizeEA/R/4_Ratio_250_L_3_R_12.png","img/500/randomdotsizeEA/L/11_Ratio_500_L_12_R_6.png","img/900/randomdotsizeEA/R/13_Ratio_900_L_18_R_20.png","img/250/equaldotanddens/R/12_Ratio_250_L_5_R_20.png","img/250/equaldotanddens/L/5_Ratio_250_L_24_R_6.png","img/900/equaldotanddens/L/8_Ratio_900_L_20_R_18.png","img/750/randomdotsizeEA/L/13_Ratio_750_L_8_R_6.png","img/900/equaldotanddens/L/2_Ratio_900_L_20_R_18.png","img/500/equaldotanddens/L/8_Ratio_500_L_8_R_4.png","img/500/equaldotanddens/L/11_Ratio_500_L_12_R_6.png","img/250/randomdotsizeEA/L/2_Ratio_250_L_16_R_4.png","img/900/equaldotsize/L/2_Ratio_900_L_20_R_18.png","img/750/equaldotsize/R/11_Ratio_750_L_12_R_16.png","img/900/equaldotsize/R/13_Ratio_900_L_18_R_20.png","img/750/randomdotsizeEA/R/2_Ratio_750_L_6_R_8.png","img/900/randomdotsizeEA/L/10_Ratio_900_L_20_R_18.png","img/750/equaldotsize/L/13_Ratio_750_L_8_R_6.png","img/750/equaldotanddens/L/6_Ratio_750_L_24_R_18.png","img/500/randomdotsizeEA/L/4_Ratio_500_L_18_R_9.png","img/250/equaldotanddens/L/15_Ratio_250_L_12_R_3.png","img/250/randomdotsizeEA/L/1_Ratio_250_L_8_R_2.png","img/250/equaldotsize/R/4_Ratio_250_L_3_R_12.png","img/750/equaldotsize/R/5_Ratio_750_L_15_R_20.png","img/500/randomdotsizeEA/L/10_Ratio_500_L_4_R_2.png","img/250/equaldotsize/L/5_Ratio_250_L_24_R_6.png","img/750/equaldotsize/L/8_Ratio_750_L_4_R_3.png","img/500/randomdotsizeEA/L/13_Ratio_500_L_12_R_6.png","img/900/equaldotsize/R/11_Ratio_900_L_18_R_20.png","img/250/equaldotsize/L/5_Ratio_250_L_24_R_6.png","img/900/equaldotanddens/L/10_Ratio_900_L_20_R_18.png","img/750/equaldotanddens/L/6_Ratio_750_L_24_R_18.png","img/750/equaldotanddens/R/5_Ratio_750_L_15_R_20.png","img/750/equaldotanddens/L/6_Ratio_750_L_24_R_18.png"],"Rat0":[["12_Ratio_0_L_9_R_0.png","13_Ratio_0_L_6_R_0.png","5_Ratio_0_L_2_R_0.png","6_Ratio_0_L_4_R_0.png","8_Ratio_0_L_6_R_0.png"],["1_Ratio_0_L_0_R_17.png","10_Ratio_0_L_0_R_22.png","11_Ratio_0_L_0_R_1.png","14_Ratio_0_L_0_R_24.png","15_Ratio_0_L_0_R_4.png","2_Ratio_0_L_0_R_5.png","3_Ratio_0_L_0_R_17.png","4_Ratio_0_L_0_R_7.png","7_Ratio_0_L_0_R_19.png","9_Ratio_0_L_0_R_15.png"]],"Rat250":[["1_Ratio_250_L_8_R_2.png","14_Ratio_250_L_12_R_3.png","15_Ratio_250_L_12_R_3.png","2_Ratio_250_L_16_R_4.png","3_Ratio_250_L_8_R_2.png","5_Ratio_250_L_24_R_6.png","7_Ratio_250_L_8_R_2.png"],["10_Ratio_250_L_4_R_16.png","11_Ratio_250_L_3_R_12.png","12_Ratio_250_L_5_R_20.png","13_Ratio_250_L_2_R_8.png","4_Ratio_250_L_3_R_12.png","6_Ratio_250_L_6_R_24.png","8_Ratio_250_L_1_R_4.png","9_Ratio_250_L_3_R_12.png"]],"Rat500":[["10_Ratio_500_L_4_R_2.png","11_Ratio_500_L_12_R_6.png","13_Ratio_500_L_12_R_6.png","4_Ratio_500_L_18_R_9.png","5_Ratio_500_L_4_R_2.png","7_Ratio_500_L_10_R_5.png","8_Ratio_500_L_8_R_4.png"],["1_Ratio_500_L_9_R_18.png","12_Ratio_500_L_1_R_2.png","14_Ratio_500_L_5_R_10.png","15_Ratio_500_L_1_R_2.png","2_Ratio_500_L_3_R_6.png","3_Ratio_500_L_10_R_20.png","6_Ratio_500_L_9_R_18.png","9_Ratio_500_L_2_R_4.png"]],"Rat750":[["1_Ratio_750_L_20_R_15.png","10_Ratio_750_L_4_R_3.png","13_Ratio_750_L_8_R_6.png","14_Ratio_750_L_8_R_6.png","6_Ratio_750_L_24_R_18.png","8_Ratio_750_L_4_R_3.png","9_Ratio_750_L_4_R_3.png"],["11_Ratio_750_L_12_R_16.png","12_Ratio_750_L_3_R_4.png","15_Ratio_750_L_9_R_12.png","2_Ratio_750_L_6_R_8.png","3_Ratio_750_L_15_R_20.png","4_Ratio_750_L_15_R_20.png","5_Ratio_750_L_15_R_20.png","7_Ratio_750_L_3_R_4.png"]],"Rat900":[["1_Ratio_900_L_10_R_9.png","10_Ratio_900_L_20_R_18.png","2_Ratio_900_L_20_R_18.png","4_Ratio_900_L_20_R_18.png","8_Ratio_900_L_20_R_18.png"],["11_Ratio_900_L_18_R_20.png","12_Ratio_900_L_18_R_20.png","13_Ratio_900_L_18_R_20.png","14_Ratio_900_L_18_R_20.png","15_Ratio_900_L_9_R_10.png","3_Ratio_900_L_9_R_10.png","5_Ratio_900_L_9_R_10.png","6_Ratio_900_L_9_R_10.png","7_Ratio_900_L_9_R_10.png","9_Ratio_900_L_18_R_20.png"]],"Rat1000":[["10_Ratio_1000_L_16_R_16.png","11_Ratio_1000_L_6_R_6.png","12_Ratio_1000_L_14_R_14.png","13_Ratio_1000_L_20_R_20.png","15_Ratio_1000_L_15_R_15.png","2_Ratio_1000_L_17_R_17.png","4_Ratio_1000_L_9_R_9.png","5_Ratio_1000_L_6_R_6.png","6_Ratio_1000_L_19_R_19.png","8_Ratio_1000_L_14_R_14.png","9_Ratio_1000_L_25_R_25.png"],["1_Ratio_1000_L_1_R_1.png","14_Ratio_1000_L_17_R_17.png","3_Ratio_1000_L_17_R_17.png","7_Ratio_1000_L_6_R_6.png"]]}},{"start_time":1551881396555,"click_time":1551881397843,"finger_time":1551881397421,"fix_duration":1111.1971508921672,"trial":1,"RT":866,"MT":422,"sideResp":1,"stimulus":"img/250/randomdotsizeEA/L/14_Ratio_250_L_12_R_3.png","xmouse":[813,813,813,813,813,813,813,813,813,813,813,813,813,813,813,813,813,813,813,813,813,813,813,813,813,813,813,813,813,813,813,813,813,813,813,813,813,813,813,812,817,824,829,829,820,794,780,761,742,720,680,661,645,632,619,589,573,560,551,548,544,541,536,531,524],"ymouse":[617,617,617,617,617,617,617,617,617,617,617,617,617,617,617,617,617,617,617,617,617,617,617,617,617,617,617,617,617,617,617,617,617,617,617,617,617,617,617,615,606,592,578,569,560,530,511,486,460,431,390,372,355,341,325,281,259,241,224,204,144,123,105,88,74],"timestamp_mouse":[9,26,46,67,87,106,126,146,166,187,206,227,247,267,286,306,328,346,366,386,408,428,446,468,487,507,527,546,567,588,607,627,648,667,686,706,726,748,766,786,807,826,846,866,886,906,926,946,966,986,1007,1026,1046,1066,1086,1107,1127,1147,1167,1187,1206,1226,1246,1266,1287],"xSR":741.5,"ySR":573.95,"xT1":424.9,"yT1":0,"xT2":1058.1,"yT2":0,"toosoon":0,"cond_shown":"randomdotsizeEA","ratio_trial":250,"smaller_num":"3","larger_num":"12","correct_side":1,"subjID":"SilvanaPinedaDuran16","gender":"1","age":"11","school":"6"},{"start_time":1551881399540,"click_time":1551881401281,"finger_time":1551881400421,"fix_duration":717.47413740869,"trial":2,"RT":881,"MT":860,"sideResp":2,"stimulus":"img/750/equaldotsize/L/13_Ratio_750_L_8_R_6.png","xmouse":[789,789,789,789,789,789,789,789,789,789,789,789,789,789,789,789,789,789,789,789,789,789,789,789,789,789,789,789,789,789,789,789,789,789,789,789,789,789,789,789,789,789,788,785,781,776,773,769,767,763,760,756,754,754,754,754,763,787,854,969,1103,1350,1427,1475,1510,1544,1564,1564,1564,1557,1556,1549,1545,1535,1521,1499,1419,1388,1356,1328,1303,1255,1234,1214,1198,1180,1139,1134],"ymouse":[606,606,606,606,606,606,606,606,606,606,606,606,606,606,606,606,606,606,606,606,606,606,606,606,606,606,606,606,606,606,606,606,606,606,606,606,606,606,606,606,606,606,604,593,570,552,530,449,409,379,358,325,315,309,307,306,306,314,342,388,432,480,469,425,344,191,24,7,7,0,0,0,0,0,0,0,0,2,4,4,4,4,2,0,0,0,0,2],"timestamp_mouse":[10,22,42,70,81,102,122,141,163,182,201,222,242,263,281,301,322,341,361,381,401,421,442,461,481,502,522,542,561,582,602,621,643,661,681,701,723,741,762,781,801,821,841,861,881,902,921,941,961,981,1001,1021,1041,1062,1081,1101,1121,1141,1162,1182,1201,1221,1243,1262,1281,1301,1321,1341,1361,1382,1401,1421,1442,1462,1482,1503,1521,1542,1562,1581,1602,1621,1641,1661,1681,1702,1721,1741],"xSR":741.5,"ySR":573.95,"xT1":424.9,"yT1":0,"xT2":1058.1,"yT2":0,"toosoon":0,"cond_shown":"equaldotsize","ratio_trial":750,"smaller_num":"6","larger_num":"8","correct_side":1,"subjID":"SilvanaPinedaDuran16","gender":"1","age":"11","school":"6"},{"start_time":1551881404612,"click_time":1551881406062,"finger_time":1551881405562,"fix_duration":250,"trial":3,"RT":950,"MT":500,"sideResp":1,"stimulus":"img/750/randomdotsizeEA/R/7_Ratio_750_L_3_R_4.png","xmouse":[761,763,763,763,763,763,763,763,763,763,763,763,763,763,763,763,763,763,763,763,763,763,763,763,763,763,763,763,763,763,763,763,763,763,763,763,763,763,763,763,763,763,763,763,763,763,762,758,745,729,702,664,641,635,629,625,618,601,594,586,584,584,584,584,584,584,583,570,561,554,543,535,513],"ymouse":[656,654,654,654,654,652,648,647,646,645,643,643,642,641,641,641,641,640,638,637,637,637,637,637,637,637,637,637,637,637,637,637,637,637,637,637,637,637,637,637,637,637,637,632,625,609,578,446,352,248,143,16,0,0,0,0,0,0,0,0,0,0,0,0,0,0,0,0,0,0,0,0,1],"timestamp_mouse":[9,29,49,70,90,109,129,149,169,191,210,229,249,270,289,311,330,349,369,390,409,429,449,470,490,509,531,550,570,589,609,630,650,671,690,711,730,749,769,789,809,829,849,870,889,909,929,950,969,989,1009,1029,1050,1069,1089,1109,1129,1149,1169,1189,1209,1230,1250,1269,1289,1310,1329,1351,1369,1389,1409,1430,1450],"xSR":741.5,"ySR":573.95,"xT1":424.9,"yT1":0,"xT2":1058.1,"yT2":0,"toosoon":0,"cond_shown":"randomdotsizeEA","ratio_trial":750,"smaller_num":"3","larger_num":"4","correct_side":2,"subjID":"SilvanaPinedaDuran16","gender":"1","age":"11","school":"6"},{"start_time":1551881410603,"click_time":1551881411701,"finger_time":1551881411361,"fix_duration":800.9053332433507,"trial":4,"RT":758,"MT":340,"sideResp":1,"stimulus":"img/250/equaldotanddens/L/7_Ratio_250_L_8_R_2.png","xmouse":[795,795,795,795,795,795,795,795,795,795,795,795,795,795,795,795,795,795,795,795,795,795,795,795,795,795,795,795,795,795,795,795,795,795,795,787,782,759,742,720,704,690,649,629,621,615,610,599,593,586,575,565,539,530,523],"ymouse":[615,615,615,615,615,615,615,615,615,615,615,615,615,615,615,615,615,615,615,615,615,615,615,615,615,615,615,615,615,615,615,615,615,615,615,612,605,565,535,495,465,430,325,281,249,224,205,175,162,144,123,102,64,55,47],"timestamp_mouse":[19,45,59,78,98,118,139,158,180,198,219,238,259,279,299,319,339,358,378,399,419,438,460,478,498,519,538,559,579,598,618,638,658,679,700,718,738,758,778,799,818,838,858,878,899,918,938,958,978,999,1019,1038,1058,1078,1098],"xSR":741.5,"ySR":573.95,"xT1":424.9,"yT1":0,"xT2":1058.1,"yT2":0,"toosoon":0,"cond_shown":"equaldotanddens","ratio_trial":250,"smaller_num":"2","larger_num":"8","correct_side":1,"subjID":"SilvanaPinedaDuran16","gender":"1","age":"11","school":"6"},{"start_time":1551881414036,"click_time":1551881416161,"finger_time":1551881415361,"fix_duration":791.5688400125215,"trial":5,"RT":1325,"MT":800,"sideResp":1,"stimulus":"img/750/randomdotsizeEA/L/1_Ratio_750_L_20_R_15.png","xmouse":[776,776,776,776,776,776,776,776,776,776,776,776,776,776,776,776,776,776,776,776,776,776,776,776,776,776,776,776,776,776,776,776,776,776,776,776,776,776,776,776,776,776,776,776,776,776,776,776,776,776,776,776,776,776,776,776,776,776,776,776,776,776,776,781,790,811,893,951,993,1014,1032,1060,1066,1076,1084,1094,1104,1106,1106,1106,1103,1070,1048,1018,980,943,879,850,821,791,767,715,703,695,682,673,657,653,650,649,648,638,628,613,586,541,464],"ymouse":[619,619,619,619,619,619,619,619,619,619,619,619,619,619,619,619,619,619,619,619,619,619,619,619,619,619,619,619,619,619,619,619,619,619,619,619,619,619,619,619,619,619,619,619,619,619,619,619,619,619,619,619,619,619,619,619,619,619,619,619,619,619,619,619,611,595,536,494,463,445,429,393,380,364,350,333,302,294,290,287,282,266,257,244,227,207,159,137,115,95,81,57,52,48,45,42,38,38,38,38,38,37,37,37,37,37,37],"timestamp_mouse":[8,25,51,65,85,106,125,145,165,187,206,225,246,265,285,305,326,346,365,386,406,426,447,465,485,507,525,546,565,585,607,627,645,666,685,706,726,746,765,785,805,825,845,865,885,906,925,946,966,985,1005,1027,1045,1066,1086,1106,1125,1146,1166,1187,1205,1226,1247,1265,1285,1305,1325,1346,1365,1385,1405,1425,1445,1465,1485,1505,1525,1545,1565,1585,1607,1625,1645,1666,1686,1705,1725,1745,1765,1785,1806,1825,1845,1865,1886,1905,1926,1947,1965,1985,2005,2025,2046,2066,2085,2106,2125],"xSR":741.5,"ySR":573.95,"xT1":424.9,"yT1":0,"xT2":1058.1,"yT2":0,"toosoon":0,"cond_shown":"randomdotsizeEA","ratio_trial":750,"smaller_num":"15","larger_num":"20","correct_side":1,"subjID":"SilvanaPinedaDuran16","gender":"1","age":"11","school":"6"},{"start_time":1551881418298,"click_time":1551881419801,"finger_time":1551881419442,"fix_duration":734.5904318822679,"trial":6,"RT":1144,"MT":359,"sideResp":1,"stimulus":"img/750/equaldotsize/L/10_Ratio_750_L_4_R_3.png","xmouse":[834,834,834,834,834,834,834,834,834,834,834,834,834,834,834,834,834,834,834,834,834,834,834,834,834,834,834,834,834,834,834,834,834,834,834,834,834,834,834,834,834,834,834,834,834,834,834,834,834,834,834,834,834,834,834,832,826,806,705,661,631,615,579,564,550,547,545,544,543,543,543,543,543,543,532,518],"ymouse":[608,608,608,608,608,608,608,608,608,608,608,608,608,608,608,608,608,608,608,608,608,608,608,608,608,608,608,608,608,608,608,608,608,608,608,608,608,608,608,608,608,608,608,608,608,608,608,608,608,608,608,608,608,608,608,604,591,541,295,188,82,28,0,0,0,0,0,0,0,0,0,0,0,0,7,18],"timestamp_mouse":[9,34,44,64,85,105,123,143,163,183,203,223,244,264,285,304,323,344,364,383,403,425,445,465,484,504,523,543,565,584,603,624,645,664,685,704,724,743,764,783,803,823,843,863,884,904,923,945,963,984,1003,1023,1043,1063,1084,1103,1124,1144,1163,1183,1203,1224,1244,1264,1283,1303,1324,1343,1364,1384,1404,1424,1445,1463,1484,1503],"xSR":741.5,"ySR":573.95,"xT1":424.9,"yT1":0,"xT2":1058.1,"yT2":0,"toosoon":0,"cond_shown":"equaldotsize","ratio_trial":750,"smaller_num":"3","larger_num":"4","correct_side":1,"subjID":"SilvanaPinedaDuran16","gender":"1","age":"11","school":"6"},{"start_time":1551881422330,"click_time":1551881423281,"finger_time":1551881422882,"fix_duration":1146.8042540317517,"trial":7,"RT":552,"MT":399,"sideResp":2,"stimulus":"img/500/equaldotsize/R/12_Ratio_500_L_1_R_2.png","xmouse":[756,756,756,756,756,756,756,756,756,756,756,756,756,756,756,756,756,756,756,756,756,756,756,756,756,756,760,792,839,892,965,1119,1164,1183,1193,1198,1206,1210,1218,1221,1222,1222,1220,1217,1207,1197,1160,1138],"ymouse":[602,602,602,602,602,602,602,602,602,602,602,602,602,602,602,602,602,602,602,602,602,602,602,602,602,602,602,567,517,455,374,225,187,171,162,158,139,125,109,94,83,71,67,62,57,53,46,45],"timestamp_mouse":[12,31,61,71,91,111,131,152,171,193,212,232,252,273,291,312,332,352,372,391,412,431,452,472,492,511,531,552,572,592,611,631,651,671,693,712,731,751,771,791,813,831,851,871,893,911,931,951],"xSR":741.5,"ySR":573.95,"xT1":424.9,"yT1":0,"xT2":1058.1,"yT2":0,"toosoon":0,"cond_shown":"equaldotsize","ratio_trial":500,"smaller_num":"1","larger_num":"2","correct_side":2,"subjID":"SilvanaPinedaDuran16","gender":"1","age":"11","school":"6"},{"start_time":1551881425700,"click_time":1551881426922,"finger_time":1551881426222,"fix_duration":1056.4652755890522,"trial":8,"RT":522,"MT":700,"sideResp":2,"stimulus":"img/500/randomdotsizeEA/R/9_Ratio_500_L_2_R_4.png","xmouse":[764,764,764,764,764,764,764,764,764,764,764,764,764,764,764,764,764,764,764,764,764,764,764,764,764,764,749,721,687,658,653,653,653,653,653,653,655,663,761,845,930,1016,1074,1124,1134,1139,1147,1153,1163,1165,1165,1165,1165,1163,1163,1162,1161,1161,1161,1161,1159,1156],"ymouse":[604,604,604,604,604,604,604,604,604,604,604,604,604,604,604,604,604,604,604,604,604,604,604,604,603,590,529,430,300,201,183,175,174,174,174,174,173,174,190,201,205,205,205,193,188,183,175,165,136,123,112,106,102,95,94,94,92,92,92,92,91,87],"timestamp_mouse":[8,21,44,62,81,101,121,142,161,181,201,222,241,263,282,302,321,341,361,383,401,422,442,461,481,501,522,543,561,582,602,622,641,662,682,701,722,741,761,781,801,821,841,861,881,901,921,942,961,981,1001,1021,1041,1061,1082,1102,1121,1142,1162,1182,1201,1221],"xSR":741.5,"ySR":573.95,"xT1":424.9,"yT1":0,"xT2":1058.1,"yT2":0,"toosoon":0,"cond_shown":"randomdotsizeEA","ratio_trial":500,"smaller_num":"2","larger_num":"4","correct_side":2,"subjID":"SilvanaPinedaDuran16","gender":"1","age":"11","school":"6"},{"start_time":1551881428765,"click_time":1551881429761,"finger_time":1551881429282,"fix_duration":1043.8284467547471,"trial":9,"RT":517,"MT":479,"sideResp":1,"stimulus":"img/250/equaldotanddens/L/5_Ratio_250_L_24_R_6.png","xmouse":[817,817,817,817,817,817,817,817,817,817,817,817,817,817,817,817,817,817,817,817,817,817,817,817,808,786,756,722,690,653,643,634,628,621,608,603,599,596,592,584,578,573,567,558,548,544,540,536,530,520],"ymouse":[602,602,602,602,602,602,602,602,602,602,602,602,602,602,602,602,602,602,602,602,602,602,602,602,594,564,520,462,408,324,300,278,257,238,188,172,156,137,120,93,80,68,56,42,27,23,20,17,15,10],"timestamp_mouse":[16,36,56,76,96,117,137,156,176,196,218,237,257,278,297,316,337,356,377,396,416,438,457,477,496,517,538,556,576,596,616,636,656,677,696,716,736,757,776,796,817,836,856,876,896,916,936,956,976,996],"xSR":741.5,"ySR":573.95,"xT1":424.9,"yT1":0,"xT2":1058.1,"yT2":0,"toosoon":0,"cond_shown":"equaldotanddens","ratio_trial":250,"smaller_num":"6","larger_num":"24","correct_side":1,"subjID":"SilvanaPinedaDuran16","gender":"1","age":"11","school":"6"},{"start_time":1551881431469,"click_time":1551881432421,"finger_time":1551881432002,"fix_duration":826.575734285657,"trial":10,"RT":533,"MT":419,"sideResp":2,"stimulus":"img/500/equaldotsize/R/12_Ratio_500_L_1_R_2.png","xmouse":[761,761,761,761,761,761,761,761,761,761,761,761,761,761,761,761,761,761,761,761,761,761,761,761,771,801,856,930,1004,1146,1194,1230,1255,1265,1274,1276,1276,1276,1276,1275,1272,1269,1262,1250,1211,1186,1166,1148],"ymouse":[605,605,605,605,605,605,605,605,605,605,605,605,605,605,605,605,605,605,605,605,605,605,605,605,601,580,540,489,434,273,207,158,122,102,83,78,73,69,66,56,50,48,46,44,43,43,43,44],"timestamp_mouse":[13,42,53,73,92,112,132,152,172,192,212,232,252,272,292,313,332,352,372,392,414,432,452,472,492,512,533,553,573,592,612,632,652,672,692,712,733,752,772,792,812,832,853,874,892,912,933,952],"xSR":741.5,"ySR":573.95,"xT1":424.9,"yT1":0,"xT2":1058.1,"yT2":0,"toosoon":0,"cond_shown":"equaldotsize","ratio_trial":500,"smaller_num":"1","larger_num":"2","correct_side":2,"subjID":"SilvanaPinedaDuran16","gender":"1","age":"11","school":"6"},{"start_time":1551881434691,"click_time":1551881435561,"finger_time":1551881435201,"fix_duration":988.8254273417235,"trial":11,"RT":510,"MT":360,"sideResp":2,"stimulus":"img/750/equaldotanddens/R/12_Ratio_750_L_3_R_4.png","xmouse":[803,803,803,803,803,803,803,803,803,803,803,803,803,803,803,803,803,803,803,803,803,803,803,803,809,834,884,948,1089,1110,1120,1125,1126,1126,1128,1128,1129,1131,1132,1132,1132,1132,1132,1132],"ymouse":[582,582,582,582,582,582,582,582,582,582,582,582,582,582,582,582,582,582,582,582,582,582,582,582,574,554,515,462,333,302,279,263,247,235,217,210,202,189,163,155,144,132,120,86],"timestamp_mouse":[10,35,51,71,90,110,130,151,170,190,211,231,251,270,291,310,331,350,370,391,412,430,451,471,491,510,530,550,570,590,610,631,650,670,691,710,730,750,770,791,810,830,850,870],"xSR":741.5,"ySR":573.95,"xT1":424.9,"yT1":0,"xT2":1058.1,"yT2":0,"toosoon":0,"cond_shown":"equaldotanddens","ratio_trial":750,"smaller_num":"3","larger_num":"4","correct_side":2,"subjID":"SilvanaPinedaDuran16","gender":"1","age":"11","school":"6"},{"start_time":1551881437745,"click_time":1551881439521,"finger_time":1551881438521,"fix_duration":1303.5557239789564,"trial":12,"RT":776,"MT":1000,"sideResp":2,"stimulus":"img/750/randomdotsizeEA/R/12_Ratio_750_L_3_R_4.png","xmouse":[804,804,804,804,804,804,804,804,804,804,804,804,804,804,804,804,804,804,804,804,804,804,804,804,804,804,804,804,804,804,804,804,804,804,804,804,804,804,801,790,777,771,768,766,763,758,754,752,752,752,752,753,763,786,829,1007,1080,1140,1171,1187,1193,1195,1199,1205,1211,1218,1218,1214,1209,1204,1196,1192,1189,1186,1182,1172,1169,1167,1167,1167,1162,1160,1160,1160,1160,1160,1160,1159,1157],"ymouse":[642,642,642,642,642,642,642,642,642,642,642,642,642,642,642,642,642,642,642,642,642,642,642,642,642,642,642,642,642,642,642,642,642,642,642,642,640,592,526,452,358,331,310,288,268,235,208,193,183,176,174,172,169,167,167,192,201,209,209,209,209,208,203,191,179,150,139,127,114,104,87,80,78,74,70,63,61,59,58,58,57,57,56,56,56,56,56,56,55],"timestamp_mouse":[18,36,58,77,96,116,137,157,176,196,218,237,256,276,297,316,337,356,377,397,416,437,456,476,496,516,536,557,577,597,617,637,657,676,696,717,737,758,776,796,816,836,856,876,896,916,937,956,977,998,1017,1038,1056,1077,1097,1116,1137,1157,1177,1196,1217,1236,1256,1278,1297,1316,1336,1356,1377,1397,1416,1436,1456,1477,1498,1516,1536,1556,1576,1598,1618,1637,1657,1676,1696,1716,1736,1756,1776],"xSR":741.5,"ySR":573.95,"xT1":424.9,"yT1":0,"xT2":1058.1,"yT2":0,"toosoon":0,"cond_shown":"randomdotsizeEA","ratio_trial":750,"smaller_num":"3","larger_num":"4","correct_side":2,"subjID":"SilvanaPinedaDuran16","gender":"1","age":"11","school":"6"},{"start_time":1551881440893,"click_time":1551881441801,"finger_time":1551881441461,"fix_duration":250,"trial":13,"RT":568,"MT":340,"sideResp":1,"stimulus":"img/500/equaldotsize/L/5_Ratio_500_L_4_R_2.png","xmouse":[790,790,790,790,790,790,790,790,790,790,790,790,790,790,790,790,790,790,790,790,790,790,790,790,790,790,788,783,767,756,751,745,741,735,733,731,728,723,714,707,695,678,662,613,565,508],"ymouse":[629,629,629,629,629,629,629,629,629,629,629,629,629,629,629,629,629,629,629,629,629,629,629,629,629,629,613,587,465,392,346,310,280,242,228,215,201,187,163,151,136,117,101,73,61,47],"timestamp_mouse":[9,44,49,69,88,109,128,149,168,190,208,228,248,268,288,309,328,349,368,389,408,428,449,469,488,508,528,549,568,588,609,628,648,668,688,708,728,748,769,789,809,828,850,868,889,908],"xSR":741.5,"ySR":573.95,"xT1":424.9,"yT1":0,"xT2":1058.1,"yT2":0,"toosoon":0,"cond_shown":"equaldotsize","ratio_trial":500,"smaller_num":"2","larger_num":"4","correct_side":1,"subjID":"SilvanaPinedaDuran16","gender":"1","age":"11","school":"6"},{"start_time":1551881444695,"click_time":1551881445703,"finger_time":1551881445261,"fix_duration":250,"trial":14,"RT":566,"MT":442,"sideResp":2,"stimulus":"img/750/equaldotanddens/R/2_Ratio_750_L_6_R_8.png","xmouse":[769,769,769,769,769,769,769,769,769,769,769,769,769,769,769,769,769,769,769,769,769,769,769,769,769,769,774,780,848,894,912,928,943,973,986,993,998,1003,1010,1012,1014,1016,1017,1021,1023,1027,1032,1038,1046,1071,1081],"ymouse":[619,619,619,619,619,619,619,619,619,619,619,619,619,619,619,619,619,619,619,619,619,619,619,619,619,619,615,605,524,467,444,422,400,362,344,331,318,304,269,254,241,229,220,198,187,173,160,148,135,105,95],"timestamp_mouse":[9,41,46,66,86,106,127,147,166,186,206,226,246,268,286,306,327,348,366,386,406,426,446,466,487,506,526,546,566,587,607,627,646,666,686,706,728,748,767,787,806,826,846,866,887,906,927,947,966,987,1008],"xSR":741.5,"ySR":573.95,"xT1":424.9,"yT1":0,"xT2":1058.1,"yT2":0,"toosoon":0,"cond_shown":"equaldotanddens","ratio_trial":750,"smaller_num":"6","larger_num":"8","correct_side":2,"subjID":"SilvanaPinedaDuran16","gender":"1","age":"11","school":"6"},{"start_time":1551881446853,"click_time":1551881447783,"finger_time":1551881447421,"fix_duration":250,"trial":15,"RT":568,"MT":362,"sideResp":2,"stimulus":"img/500/equaldotsize/R/9_Ratio_500_L_2_R_4.png","xmouse":[804,804,804,804,804,804,804,804,804,804,804,804,804,804,804,804,804,804,804,804,804,804,804,804,804,804,808,816,835,855,901,919,937,950,961,981,988,994,1000,1005,1014,1028,1040,1052,1062,1085,1096],"ymouse":[636,636,636,636,636,636,636,636,636,636,636,636,636,636,636,636,636,636,636,636,636,636,636,636,636,636,617,597,556,508,412,376,349,332,316,288,273,258,246,237,224,206,190,174,156,116,95],"timestamp_mouse":[8,37,48,69,89,109,129,149,169,190,208,229,249,269,288,308,328,349,370,389,408,429,449,468,488,508,529,549,568,588,608,628,648,670,688,709,728,748,769,789,808,829,848,868,890,908,929],"xSR":741.5,"ySR":573.95,"xT1":424.9,"yT1":0,"xT2":1058.1,"yT2":0,"toosoon":0,"cond_shown":"equaldotsize","ratio_trial":500,"smaller_num":"2","larger_num":"4","correct_side":2,"subjID":"SilvanaPinedaDuran16","gender":"1","age":"11","school":"6"},{"start_time":1551881450242,"click_time":1551881451262,"finger_time":1551881450683,"fix_duration":1479.4406629774444,"trial":16,"RT":441,"MT":579,"sideResp":2,"stimulus":"img/500/equaldotsize/R/14_Ratio_500_L_5_R_10.png","xmouse":[778,778,778,778,778,778,778,778,778,778,778,778,778,778,778,778,778,778,778,778,771,746,740,739,738,738,738,741,757,778,807,865,880,892,903,916,933,937,940,943,944,948,954,958,965,971,994,1010,1028,1051,1068,1091],"ymouse":[629,629,629,629,629,629,629,629,629,629,629,629,629,629,629,629,629,629,629,629,626,616,614,613,612,612,612,610,604,595,584,550,531,504,466,422,357,334,314,293,275,245,230,221,211,203,180,170,156,140,124,89],"timestamp_mouse":[1,19,39,59,80,118,121,141,159,180,200,221,239,260,280,300,319,340,360,379,400,419,441,459,480,499,521,540,560,579,600,620,639,659,680,700,720,739,759,779,799,819,839,859,879,899,919,939,959,979,1000,1019],"xSR":741.5,"ySR":573.95,"xT1":424.9,"yT1":0,"xT2":1058.1,"yT2":0,"toosoon":0,"cond_shown":"equaldotsize","ratio_trial":500,"smaller_num":"5","larger_num":"10","correct_side":2,"subjID":"SilvanaPinedaDuran16","gender":"1","age":"11","school":"6"},{"start_time":1551881453512,"click_time":1551881454261,"finger_time":1551881454061,"fix_duration":1350.5005087787213,"trial":17,"RT":549,"MT":200,"sideResp":2,"stimulus":"img/500/equaldotsize/R/1_Ratio_500_L_9_R_18.png","xmouse":[766,766,766,766,766,766,766,766,766,766,766,766,766,766,766,766,766,766,766,766,766,766,766,766,766,769,774,820,868,942,998,1047,1108,1120,1130,1140,1148,1158],"ymouse":[617,617,617,617,617,617,617,617,617,617,617,617,617,617,617,617,617,617,617,617,617,617,617,617,617,615,607,544,485,400,347,297,232,209,186,158,128,88],"timestamp_mouse":[9,33,49,69,89,110,129,149,170,189,210,229,249,270,290,309,329,351,370,390,409,431,450,469,489,511,529,549,570,589,611,629,651,671,689,709,730,749],"xSR":741.5,"ySR":573.95,"xT1":424.9,"yT1":0,"xT2":1058.1,"yT2":0,"toosoon":0,"cond_shown":"equaldotsize","ratio_trial":500,"smaller_num":"9","larger_num":"18","correct_side":2,"subjID":"SilvanaPinedaDuran16","gender":"1","age":"11","school":"6"},{"start_time":1551881455906,"click_time":1551881456942,"finger_time":1551881456382,"fix_duration":664.708331767025,"trial":18,"RT":476,"MT":560,"sideResp":2,"stimulus":"img/500/equaldotanddens/R/3_Ratio_500_L_10_R_20.png","xmouse":[825,825,825,825,825,825,825,825,825,825,825,825,825,825,825,825,825,825,825,825,825,826,834,842,858,882,920,996,1060,1097,1119,1136,1155,1163,1170,1174,1178,1178,1179,1179,1179,1179,1179,1179,1179,1178,1178,1177,1174,1168,1159,1154],"ymouse":[613,613,613,613,613,613,613,613,613,613,613,613,613,613,613,613,613,613,613,613,613,613,602,587,566,534,493,425,376,347,327,307,260,231,206,179,158,120,96,84,77,70,57,53,52,51,51,49,46,45,40,39],"timestamp_mouse":[15,40,56,75,95,115,135,155,176,195,215,236,255,275,296,316,335,355,375,395,415,436,455,476,495,515,536,556,576,595,616,636,656,677,695,715,736,755,775,797,815,835,855,875,896,915,935,955,976,995,1016,1036],"xSR":741.5,"ySR":573.95,"xT1":424.9,"yT1":0,"xT2":1058.1,"yT2":0,"toosoon":0,"cond_shown":"equaldotanddens","ratio_trial":500,"smaller_num":"10","larger_num":"20","correct_side":2,"subjID":"SilvanaPinedaDuran16","gender":"1","age":"11","school":"6"},{"start_time":1551881458132,"click_time":1551881459121,"finger_time":1551881458701,"fix_duration":250,"trial":19,"RT":569,"MT":420,"sideResp":1,"stimulus":"img/500/equaldotanddens/L/10_Ratio_500_L_4_R_2.png","xmouse":[745,745,745,745,745,745,745,747,748,748,748,748,748,748,748,748,748,748,748,748,748,748,748,748,748,748,748,748,745,737,726,712,703,696,688,682,657,643,624,606,594,579,573,566,557,550,539,532,529,524],"ymouse":[606,606,606,606,607,608,610,611,613,613,613,613,613,613,613,613,613,613,613,613,613,613,613,613,613,613,610,594,570,536,498,442,424,407,393,379,324,298,271,246,226,197,185,171,155,141,115,101,92,80],"timestamp_mouse":[10,41,49,71,89,110,129,149,169,189,209,230,249,269,289,309,330,350,369,390,409,429,449,469,489,509,529,549,569,590,611,630,649,669,689,710,729,750,769,789,811,830,849,869,891,910,929,950,970,989],"xSR":741.5,"ySR":573.95,"xT1":424.9,"yT1":0,"xT2":1058.1,"yT2":0,"toosoon":0,"cond_shown":"equaldotanddens","ratio_trial":500,"smaller_num":"2","larger_num":"4","correct_side":1,"subjID":"SilvanaPinedaDuran16","gender":"1","age":"11","school":"6"},{"start_time":1551881460793,"click_time":1551881461681,"finger_time":1551881461261,"fix_duration":630.2699498010929,"trial":20,"RT":468,"MT":420,"sideResp":2,"stimulus":"img/500/randomdotsizeEA/R/3_Ratio_500_L_10_R_20.png","xmouse":[789,789,789,789,789,789,789,789,789,789,789,789,789,789,789,789,789,789,789,789,789,788,802,870,906,930,948,959,981,990,998,1008,1025,1038,1043,1049,1055,1061,1065,1068,1071,1076,1085,1099,1117],"ymouse":[630,630,630,630,630,630,630,630,630,630,630,630,630,630,630,630,630,630,630,630,630,627,607,548,520,501,485,471,442,424,407,386,352,307,284,264,241,221,205,196,188,177,159,133,95],"timestamp_mouse":[9,35,48,69,88,108,128,148,170,188,208,228,248,268,289,308,328,349,369,388,410,430,448,468,488,508,529,548,569,590,608,628,650,668,690,708,728,748,768,788,808,829,849,868,888],"xSR":741.5,"ySR":573.95,"xT1":424.9,"yT1":0,"xT2":1058.1,"yT2":0,"toosoon":0,"cond_shown":"randomdotsizeEA","ratio_trial":500,"smaller_num":"10","larger_num":"20","correct_side":2,"subjID":"SilvanaPinedaDuran16","gender":"1","age":"11","school":"6"},{"start_time":1551881465973,"click_time":1551881467522,"finger_time":1551881466701,"fix_duration":250,"trial":21,"RT":728,"MT":821,"sideResp":1,"stimulus":"img/900/equaldotanddens/R/7_Ratio_900_L_9_R_10.png","xmouse":[820,820,820,820,820,820,820,820,820,820,820,820,820,820,820,820,820,820,820,820,820,820,820,820,820,820,820,820,820,820,818,817,817,815,805,796,784,770,755,726,713,698,686,674,657,650,645,640,632,613,605,599,595,592,575,569,563,556,547,520,509,498,492,488,479,476,475,475,475,475,475,476,477,479,480,481,481,481],"ymouse":[623,623,623,623,623,623,623,623,623,623,623,623,623,623,623,623,623,623,623,623,623,623,623,623,623,623,623,623,623,623,623,622,619,615,593,578,558,538,520,490,472,452,437,420,388,377,368,361,351,318,300,284,270,260,229,216,203,187,170,137,127,118,113,111,108,108,108,108,108,108,108,107,106,105,102,101,101,99],"timestamp_mouse":[8,29,50,68,88,110,129,149,169,188,208,229,248,268,288,309,330,348,369,388,409,428,450,468,489,508,528,549,569,588,608,628,648,669,689,709,728,748,769,788,808,828,850,869,888,909,928,948,968,989,1008,1028,1048,1068,1088,1109,1128,1150,1169,1189,1208,1228,1248,1269,1288,1309,1328,1349,1369,1389,1409,1428,1448,1468,1488,1509,1529,1549],"xSR":741.5,"ySR":573.95,"xT1":424.9,"yT1":0,"xT2":1058.1,"yT2":0,"toosoon":0,"cond_shown":"equaldotanddens","ratio_trial":900,"smaller_num":"9","larger_num":"10","correct_side":2,"subjID":"SilvanaPinedaDuran16","gender":"1","age":"11","school":"6"},{"start_time":1551881470465,"click_time":1551881471362,"finger_time":1551881471122,"fix_duration":1002.51014703176,"trial":22,"RT":657,"MT":240,"sideResp":1,"stimulus":"img/750/equaldotanddens/L/8_Ratio_750_L_4_R_3.png","xmouse":[787,787,787,787,787,787,787,787,787,787,787,787,787,787,787,787,787,787,787,787,787,787,787,787,787,787,787,786,782,759,750,743,736,732,721,714,707,701,698,685,682,668,620,557,469],"ymouse":[633,633,633,633,633,633,633,633,633,633,633,633,633,633,633,633,633,633,633,633,633,633,633,633,633,633,633,633,629,618,611,603,593,585,566,556,549,542,533,502,494,443,325,200,82],"timestamp_mouse":[16,36,62,76,97,116,137,157,178,198,216,237,258,276,296,317,336,357,377,397,416,436,457,477,496,518,536,556,577,596,617,638,657,676,696,717,736,758,776,796,817,836,856,878,897],"xSR":741.5,"ySR":573.95,"xT1":424.9,"yT1":0,"xT2":1058.1,"yT2":0,"toosoon":0,"cond_shown":"equaldotanddens","ratio_trial":750,"smaller_num":"3","larger_num":"4","correct_side":1,"subjID":"SilvanaPinedaDuran16","gender":"1","age":"11","school":"6"},{"start_time":1551881472412,"click_time":1551881475101,"finger_time":1551881472901,"fix_duration":250,"trial":23,"RT":489,"MT":2200,"sideResp":2,"stimulus":"img/500/equaldotsize/R/6_Ratio_500_L_9_R_18.png","xmouse":[773,773,773,773,773,773,773,773,773,773,773,773,773,773,773,773,773,773,773,773,775,776,791,804,828,850,867,888,895,902,909,914,925,928,930,932,933,937,940,946,954,967,969,969,971,975,980,989,993,995,998,1000,1011,1018,1021,1022,1024,1027,1028,1030,1031,1031,1032,1032,1032,1032,1032,1032,1030,1025,1015,1000,1000,1000,1000,1000,1000,1000,1000,1000,1000,1000,1000,1000,1000,1000,1000,1000,1000,1000,1000,1000,1000,1000,1000,1000,1000,1000,1000,1000,1000,1000,1000,1000,1000,1000,1000,1000,1000,1000,1000,1000,1000,1000,1000,1000,1000,1000,1000,1000,1000,1000,1000,1000,1000,1000,1002,1016,1016,1017,1019,1025,1051,1061,1068],"ymouse":[653,653,653,653,653,653,653,653,653,653,653,653,653,653,653,653,653,653,653,653,653,650,616,591,551,511,484,445,425,407,384,363,314,298,283,268,254,229,219,207,195,183,170,167,162,157,149,133,126,121,117,113,96,89,85,82,81,78,76,75,73,73,73,73,73,73,74,76,81,89,101,118,118,118,118,118,118,118,118,118,118,118,118,118,118,118,118,118,118,118,118,118,118,118,118,118,118,118,118,118,118,118,118,118,118,118,118,118,118,118,118,118,118,118,118,118,118,118,118,118,118,118,118,118,118,118,121,120,120,120,118,116,105,100,97],"timestamp_mouse":[9,30,50,69,90,109,130,150,170,189,210,229,250,269,289,309,329,350,370,389,409,431,450,469,489,509,529,549,571,589,609,629,649,669,690,710,730,749,769,789,809,830,849,870,889,910,931,950,969,989,1009,1029,1050,1069,1090,1109,1130,1150,1169,1189,1209,1230,1249,1270,1289,1310,1329,1349,1369,1390,1409,1430,1449,1469,1489,1510,1529,1551,1569,1589,1610,1630,1649,1671,1690,1709,1730,1749,1771,1789,1809,1829,1850,1870,1890,1910,1931,1949,1970,1990,2010,2030,2050,2069,2090,2110,2130,2149,2170,2189,2209,2230,2250,2269,2289,2310,2329,2350,2371,2390,2411,2430,2451,2471,2490,2509,2530,2551,2569,2589,2610,2629,2649,2670,2689],"xSR":741.5,"ySR":573.95,"xT1":424.9,"yT1":0,"xT2":1058.1,"yT2":0,"toosoon":0,"cond_shown":"equaldotsize","ratio_trial":500,"smaller_num":"9","larger_num":"18","correct_side":2,"subjID":"SilvanaPinedaDuran16","gender":"1","age":"11","school":"6"},{"start_time":1551881476710,"click_time":1551881477662,"finger_time":1551881477482,"fix_duration":468.56868166082035,"trial":24,"RT":772,"MT":180,"sideResp":1,"stimulus":"img/900/equaldotanddens/L/4_Ratio_900_L_20_R_18.png","xmouse":[796,796,796,796,796,796,796,796,796,796,796,796,796,796,796,796,796,792,791,790,790,790,790,790,789,789,789,789,789,789,788,787,784,783,782,781,777,753,740,726,708,691,677,652,632,608,571,520],"ymouse":[644,644,644,644,644,644,644,643,643,643,643,643,643,643,643,643,642,638,637,636,635,635,635,635,634,634,634,634,634,634,634,632,630,629,629,628,622,585,563,530,490,449,417,360,324,274,198,81],"timestamp_mouse":[12,36,52,72,91,111,131,151,172,192,212,231,251,271,291,311,332,352,372,391,412,432,451,471,491,511,531,551,571,592,613,631,651,671,692,713,732,751,772,792,811,831,851,871,891,911,931,951],"xSR":741.5,"ySR":573.95,"xT1":424.9,"yT1":0,"xT2":1058.1,"yT2":0,"toosoon":0,"cond_shown":"equaldotanddens","ratio_trial":900,"smaller_num":"18","larger_num":"20","correct_side":1,"subjID":"SilvanaPinedaDuran16","gender":"1","age":"11","school":"6"},{"start_time":1551881482236,"click_time":1551881483441,"finger_time":1551881482761,"fix_duration":1452.4854957083999,"trial":25,"RT":525,"MT":680,"sideResp":2,"stimulus":"img/500/randomdotsizeEA/R/3_Ratio_500_L_10_R_20.png","xmouse":[803,803,803,803,803,803,803,803,803,803,803,803,803,803,803,803,803,803,803,803,803,803,803,803,803,807,825,848,883,920,944,963,968,980,1000,1017,1027,1039,1042,1042,1042,1041,1037,1035,1033,1031,1028,1027,1027,1029,1032,1043,1061,1066,1075,1084,1096,1099,1101,1103,1105],"ymouse":[587,587,587,587,587,587,587,587,587,587,587,587,587,587,587,587,587,587,587,587,587,587,587,587,587,583,570,553,532,512,497,484,479,467,453,441,432,392,373,345,316,299,268,256,240,227,199,187,177,169,162,148,136,133,127,124,114,111,108,104,99],"timestamp_mouse":[20,25,45,66,85,105,126,145,166,186,205,225,246,265,286,305,326,346,365,385,405,425,445,465,485,505,525,545,565,586,607,625,645,665,685,706,725,745,766,785,807,825,846,865,886,907,925,945,965,985,1006,1025,1046,1065,1086,1106,1125,1147,1166,1185,1205],"xSR":741.5,"ySR":573.95,"xT1":424.9,"yT1":0,"xT2":1058.1,"yT2":0,"toosoon":0,"cond_shown":"randomdotsizeEA","ratio_trial":500,"smaller_num":"10","larger_num":"20","correct_side":2,"subjID":"SilvanaPinedaDuran16","gender":"1","age":"11","school":"6"},{"start_time":1551881484834,"click_time":1551881485562,"finger_time":1551881485341,"fix_duration":250,"trial":26,"RT":507,"MT":221,"sideResp":1,"stimulus":"img/500/equaldotanddens/L/11_Ratio_500_L_12_R_6.png","xmouse":[812,811,811,811,811,811,811,811,811,811,811,811,811,811,811,811,811,811,811,811,811,810,809,808,804,799,782,770,756,739,700,658,634,606,579,553,504],"ymouse":[596,596,596,596,596,596,596,596,596,596,596,596,596,596,596,596,596,596,596,596,596,595,593,589,580,569,528,502,467,431,367,300,260,216,178,142,74],"timestamp_mouse":[8,43,48,68,87,107,128,148,167,187,207,227,248,268,287,307,327,348,367,387,407,428,448,467,488,507,527,548,567,588,607,627,648,667,688,708,727],"xSR":741.5,"ySR":573.95,"xT1":424.9,"yT1":0,"xT2":1058.1,"yT2":0,"toosoon":0,"cond_shown":"equaldotanddens","ratio_trial":500,"smaller_num":"6","larger_num":"12","correct_side":1,"subjID":"SilvanaPinedaDuran16","gender":"1","age":"11","school":"6"},{"start_time":1551881487637,"click_time":1551881488722,"finger_time":1551881488161,"fix_duration":1374.2709605345813,"trial":27,"RT":524,"MT":561,"sideResp":2,"stimulus":"img/250/equaldotanddens/R/6_Ratio_250_L_6_R_24.png","xmouse":[814,814,814,814,814,814,814,814,814,814,814,814,814,814,814,814,814,814,814,814,814,814,816,819,825,834,875,906,931,946,960,989,1002,1011,1022,1032,1044,1046,1048,1051,1055,1066,1068,1069,1071,1073,1078,1080,1086,1090,1095,1103,1108,1112,1117],"ymouse":[646,646,646,646,646,646,646,646,646,646,646,646,646,646,646,646,646,646,646,646,646,645,642,637,628,616,560,529,505,491,479,446,429,410,392,375,341,326,314,302,288,253,242,228,217,206,188,179,168,159,149,128,116,109,97],"timestamp_mouse":[5,25,44,71,86,104,124,144,165,184,204,225,245,264,284,305,324,344,365,384,405,424,444,464,484,505,524,544,564,585,604,624,646,664,685,705,724,746,764,784,804,824,844,864,884,906,925,945,964,985,1004,1024,1044,1065,1085],"xSR":741.5,"ySR":573.95,"xT1":424.9,"yT1":0,"xT2":1058.1,"yT2":0,"toosoon":0,"cond_shown":"equaldotanddens","ratio_trial":250,"smaller_num":"6","larger_num":"24","correct_side":2,"subjID":"SilvanaPinedaDuran16","gender":"1","age":"11","school":"6"},{"start_time":1551881489854,"click_time":1551881490961,"finger_time":1551881490361,"fix_duration":250,"trial":28,"RT":507,"MT":600,"sideResp":1,"stimulus":"img/250/equaldotsize/L/2_Ratio_250_L_16_R_4.png","xmouse":[824,824,824,824,824,825,825,825,825,825,825,825,825,825,825,825,825,825,825,825,825,825,823,822,818,802,794,783,774,766,754,754,761,764,764,760,759,757,755,753,735,703,660,611,570,512,495,483,477,475,473,471,470,469,467,469],"ymouse":[611,611,611,611,611,611,611,611,611,611,611,611,611,611,611,611,611,611,611,611,611,610,610,608,596,547,515,479,447,419,354,328,303,287,269,234,224,218,214,212,205,196,186,173,160,133,123,116,113,112,109,108,107,106,105,98],"timestamp_mouse":[8,27,48,68,89,107,127,147,168,187,207,228,247,267,287,307,327,347,368,387,407,428,448,468,487,507,528,547,568,587,607,629,647,667,688,707,727,748,768,787,807,828,848,869,887,907,927,949,968,988,1007,1028,1047,1069,1087,1107],"xSR":741.5,"ySR":573.95,"xT1":424.9,"yT1":0,"xT2":1058.1,"yT2":0,"toosoon":0,"cond_shown":"equaldotsize","ratio_trial":250,"smaller_num":"4","larger_num":"16","correct_side":1,"subjID":"SilvanaPinedaDuran16","gender":"1","age":"11","school":"6"},{"start_time":1551881493472,"click_time":1551881494581,"finger_time":1551881494221,"fix_duration":1308.409464704499,"trial":29,"RT":749,"MT":360,"sideResp":1,"stimulus":"img/900/equaldotsize/L/2_Ratio_900_L_20_R_18.png","xmouse":[808,808,808,808,808,808,808,808,808,808,808,808,808,808,808,808,808,808,809,809,810,810,810,810,810,810,810,810,810,810,810,810,810,810,810,810,800,783,764,689,649,616,580,547,500,489,485,483,481,478,478,478,478,478,478,476],"ymouse":[603,603,603,603,603,603,603,603,603,603,603,603,603,603,603,603,603,603,603,603,603,603,603,603,603,603,603,603,603,603,603,603,603,603,603,599,587,568,542,411,310,231,151,77,0,0,0,0,0,0,0,0,0,0,0,1],"timestamp_mouse":[12,31,49,70,90,109,131,149,169,191,210,229,249,269,289,310,330,351,369,390,410,430,449,470,490,509,530,550,570,590,609,629,650,669,689,710,730,749,769,789,809,829,849,869,889,909,930,949,969,989,1010,1029,1050,1070,1091,1109],"xSR":741.5,"ySR":573.95,"xT1":424.9,"yT1":0,"xT2":1058.1,"yT2":0,"toosoon":0,"cond_shown":"equaldotsize","ratio_trial":900,"smaller_num":"18","larger_num":"20","correct_side":1,"subjID":"SilvanaPinedaDuran16","gender":"1","age":"11","school":"6"},{"start_time":1551881497455,"click_time":1551881498343,"finger_time":1551881498002,"fix_duration":1432.2586763583975,"trial":30,"RT":547,"MT":341,"sideResp":1,"stimulus":"img/750/equaldotsize/L/8_Ratio_750_L_4_R_3.png","xmouse":[782,782,782,782,782,782,782,782,782,782,782,782,782,782,782,782,782,782,782,782,782,782,782,782,782,782,775,763,751,738,702,692,681,666,646,630,624,618,613,607,585,569,549,525,507],"ymouse":[596,596,596,596,596,596,596,596,596,596,596,596,596,596,596,596,596,596,596,596,596,596,596,596,596,594,581,562,540,517,465,449,430,395,349,312,297,287,275,260,209,177,135,95,70],"timestamp_mouse":[8,38,46,68,87,107,128,146,166,187,207,226,247,266,286,307,328,347,366,386,406,427,447,467,487,506,527,547,566,587,607,627,646,667,686,706,727,747,767,787,806,826,846,867,887],"xSR":741.5,"ySR":573.95,"xT1":424.9,"yT1":0,"xT2":1058.1,"yT2":0,"toosoon":0,"cond_shown":"equaldotsize","ratio_trial":750,"smaller_num":"3","larger_num":"4","correct_side":1,"subjID":"SilvanaPinedaDuran16","gender":"1","age":"11","school":"6"},{"start_time":1551881499752,"click_time":1551881501021,"finger_time":1551881500241,"fix_duration":250,"trial":31,"RT":489,"MT":780,"sideResp":1,"stimulus":"img/900/equaldotanddens/L/8_Ratio_900_L_20_R_18.png","xmouse":[797,797,797,797,797,797,797,797,797,797,797,798,798,798,798,798,798,798,798,798,799,801,815,837,866,881,882,883,884,886,891,893,895,897,903,909,912,917,921,925,933,934,931,922,906,852,820,779,735,703,669,662,651,639,623,591,584,576,571,565,548,535,525,512],"ymouse":[604,604,604,604,604,604,604,604,604,604,604,605,605,605,605,605,605,605,605,605,605,605,601,595,587,580,580,578,575,571,560,554,548,540,526,511,504,493,483,467,407,395,382,371,361,348,346,346,346,344,339,337,331,324,313,275,257,237,218,197,152,122,99,68],"timestamp_mouse":[11,39,49,69,89,111,129,150,169,191,209,229,249,269,290,309,329,349,369,390,410,429,450,469,489,509,530,550,569,589,609,630,650,669,689,709,729,749,770,790,809,829,849,869,889,910,930,951,970,989,1010,1029,1049,1070,1091,1110,1129,1149,1170,1189,1209,1229,1249,1269],"xSR":741.5,"ySR":573.95,"xT1":424.9,"yT1":0,"xT2":1058.1,"yT2":0,"toosoon":0,"cond_shown":"equaldotanddens","ratio_trial":900,"smaller_num":"18","larger_num":"20","correct_side":1,"subjID":"SilvanaPinedaDuran16","gender":"1","age":"11","school":"6"},{"start_time":1551881502757,"click_time":1551881503741,"finger_time":1551881503341,"fix_duration":953.4214589853459,"trial":32,"RT":584,"MT":400,"sideResp":2,"stimulus":"img/750/equaldotanddens/R/11_Ratio_750_L_12_R_16.png","xmouse":[779,779,779,779,779,779,779,779,779,779,779,779,779,779,779,779,779,779,779,779,779,779,779,779,779,780,789,812,835,859,896,913,931,954,987,1072,1090,1103,1109,1114,1120,1121,1123,1125,1125,1125,1125,1125,1124,1122],"ymouse":[610,610,610,610,610,610,610,610,610,610,610,610,610,610,610,610,610,610,610,610,610,610,610,610,610,611,608,598,588,577,555,541,526,498,460,350,324,299,280,255,216,199,186,174,165,143,133,122,108,98],"timestamp_mouse":[8,37,44,65,85,104,125,144,166,185,204,225,245,264,284,304,325,346,364,385,404,425,444,464,485,504,525,544,566,584,604,625,645,664,685,704,724,744,764,784,804,825,846,864,885,904,926,945,966,984],"xSR":741.5,"ySR":573.95,"xT1":424.9,"yT1":0,"xT2":1058.1,"yT2":0,"toosoon":0,"cond_shown":"equaldotanddens","ratio_trial":750,"smaller_num":"12","larger_num":"16","correct_side":2,"subjID":"SilvanaPinedaDuran16","gender":"1","age":"11","school":"6"},{"start_time":1551881505575,"click_time":1551881506761,"finger_time":1551881506322,"fix_duration":950.8170048170523,"trial":33,"RT":747,"MT":439,"sideResp":1,"stimulus":"img/900/randomdotsizeEA/R/13_Ratio_900_L_18_R_20.png","xmouse":[800,800,800,801,801,801,801,801,802,802,802,802,802,802,802,802,802,802,802,802,802,802,802,802,802,802,802,802,802,802,802,802,802,802,802,798,789,771,745,683,659,640,626,615,590,576,564,551,547,544,537,534,529,525,524,524,524,524,522,517],"ymouse":[622,622,622,622,622,622,623,623,623,623,623,623,623,623,623,623,623,623,623,623,623,623,623,623,623,623,623,623,623,623,623,623,623,623,623,605,577,536,493,372,330,296,271,253,191,159,129,97,74,54,25,15,8,2,0,0,0,0,0,2],"timestamp_mouse":[11,27,47,67,87,106,126,147,168,186,206,227,246,268,286,306,327,347,368,386,406,426,446,468,487,507,526,546,566,588,606,626,647,666,686,706,726,747,766,786,806,827,846,866,886,907,926,947,966,986,1006,1026,1047,1068,1087,1107,1127,1146,1167,1186],"xSR":741.5,"ySR":573.95,"xT1":424.9,"yT1":0,"xT2":1058.1,"yT2":0,"toosoon":0,"cond_shown":"randomdotsizeEA","ratio_trial":900,"smaller_num":"18","larger_num":"20","correct_side":2,"subjID":"SilvanaPinedaDuran16","gender":"1","age":"11","school":"6"},{"start_time":1551881508500,"click_time":1551881509421,"finger_time":1551881509021,"fix_duration":337.15782603646574,"trial":34,"RT":521,"MT":400,"sideResp":1,"stimulus":"img/750/randomdotsizeEA/L/14_Ratio_750_L_8_R_6.png","xmouse":[784,784,784,784,784,784,784,784,784,784,784,784,784,784,784,784,784,784,784,784,784,784,784,784,783,779,771,757,712,686,664,633,588,513,498,489,489,489,489,489,489,489,489,489,489,489,489],"ymouse":[588,588,588,588,588,588,588,588,588,588,588,588,588,587,587,587,587,587,587,586,586,586,585,584,582,579,572,560,490,438,380,299,166,0,0,0,0,0,0,0,0,0,0,0,0,0,1],"timestamp_mouse":[9,22,41,62,81,101,122,142,161,181,202,221,241,262,281,302,321,341,361,382,401,421,441,461,481,501,521,542,561,582,601,621,642,661,681,702,721,741,761,782,801,821,841,861,882,901,921],"xSR":741.5,"ySR":573.95,"xT1":424.9,"yT1":0,"xT2":1058.1,"yT2":0,"toosoon":0,"cond_shown":"randomdotsizeEA","ratio_trial":750,"smaller_num":"6","larger_num":"8","correct_side":1,"subjID":"SilvanaPinedaDuran16","gender":"1","age":"11","school":"6"},{"start_time":1551881512067,"click_time":1551881513061,"finger_time":1551881512622,"fix_duration":1404.716573036005,"trial":35,"RT":555,"MT":439,"sideResp":1,"stimulus":"img/250/equaldotsize/L/2_Ratio_250_L_16_R_4.png","xmouse":[822,822,822,822,822,822,822,822,822,821,821,821,821,821,821,821,821,821,821,821,821,821,821,820,818,816,809,798,783,722,697,678,668,663,653,647,641,635,625,609,603,596,589,580,552,525,508,491,474,448],"ymouse":[594,594,594,594,594,594,594,592,591,590,590,590,590,590,590,590,590,589,589,589,589,589,589,587,586,583,578,569,558,506,482,462,447,436,414,398,383,370,355,328,317,304,292,279,236,198,175,149,121,76],"timestamp_mouse":[20,38,54,74,95,114,134,154,174,194,214,234,254,274,295,314,334,355,374,394,414,435,455,475,494,514,535,555,574,594,614,634,654,675,695,714,734,754,775,794,813,834,855,874,894,914,934,955,975,994],"xSR":741.5,"ySR":573.95,"xT1":424.9,"yT1":0,"xT2":1058.1,"yT2":0,"toosoon":0,"cond_shown":"equaldotsize","ratio_trial":250,"smaller_num":"4","larger_num":"16","correct_side":1,"subjID":"SilvanaPinedaDuran16","gender":"1","age":"11","school":"6"},{"start_time":1551881515026,"click_time":1551881515861,"finger_time":1551881515761,"fix_duration":1024.9057660324463,"trial":36,"RT":735,"MT":100,"sideResp":1,"stimulus":"img/250/randomdotsizeEA/L/2_Ratio_250_L_16_R_4.png","xmouse":[820,820,820,820,820,820,820,820,820,820,820,820,820,820,820,820,820,820,820,821,821,821,821,821,821,821,821,821,821,821,821,821,821,821,821,818,783,745,691,638,590,498],"ymouse":[604,604,604,604,604,604,604,604,604,604,604,604,604,604,604,604,604,604,604,604,604,604,604,604,604,604,604,604,604,604,604,604,604,604,599,589,516,435,341,268,197,69],"timestamp_mouse":[15,35,69,75,96,115,135,155,175,195,215,235,255,275,296,315,335,356,376,395,416,435,456,475,495,516,537,555,575,595,615,635,655,676,695,716,735,756,775,795,816,835],"xSR":741.5,"ySR":573.95,"xT1":424.9,"yT1":0,"xT2":1058.1,"yT2":0,"toosoon":0,"cond_shown":"randomdotsizeEA","ratio_trial":250,"smaller_num":"4","larger_num":"16","correct_side":1,"subjID":"SilvanaPinedaDuran16","gender":"1","age":"11","school":"6"},{"start_time":1551881517140,"click_time":1551881518261,"finger_time":1551881517982,"fix_duration":256.620779593827,"trial":37,"RT":842,"MT":279,"sideResp":1,"stimulus":"img/750/equaldotsize/L/10_Ratio_750_L_4_R_3.png","xmouse":[776,776,778,778,778,778,777,777,777,777,777,777,777,777,777,777,777,777,777,777,777,777,777,777,777,777,777,777,777,777,777,777,777,777,777,777,777,777,777,777,777,775,766,756,740,715,659,640,619,587,565,536,532,530,529,527,519],"ymouse":[591,591,588,586,586,588,591,591,591,591,591,591,591,591,591,591,591,591,591,591,591,591,591,591,591,591,591,591,591,591,591,591,591,591,591,591,591,591,591,591,591,590,570,547,517,475,363,328,263,180,133,85,77,73,72,69,57],"timestamp_mouse":[12,34,41,61,81,102,122,141,162,182,201,221,241,262,281,301,322,341,361,381,401,421,442,461,481,501,521,542,562,582,602,621,641,662,681,701,722,741,761,781,802,822,842,862,882,901,921,942,961,981,1002,1021,1041,1061,1081,1102,1121],"xSR":741.5,"ySR":573.95,"xT1":424.9,"yT1":0,"xT2":1058.1,"yT2":0,"toosoon":0,"cond_shown":"equaldotsize","ratio_trial":750,"smaller_num":"3","larger_num":"4","correct_side":1,"subjID":"SilvanaPinedaDuran16","gender":"1","age":"11","school":"6"},{"start_time":1551881519880,"click_time":1551881520862,"finger_time":1551881520361,"fix_duration":638.6874151407519,"trial":38,"RT":481,"MT":501,"sideResp":2,"stimulus":"img/750/equaldotanddens/R/4_Ratio_750_L_15_R_20.png","xmouse":[766,766,766,766,766,766,766,766,766,766,766,766,767,767,767,767,767,767,768,770,773,780,792,815,870,885,899,917,938,986,1004,1022,1032,1039,1046,1046,1046,1046,1046,1046,1043,1042,1040,1040,1040,1040,1042,1047,1051,1059],"ymouse":[638,638,638,638,638,638,638,638,638,638,638,638,638,638,638,638,638,638,638,638,636,632,623,607,570,555,538,514,479,392,367,347,321,299,263,246,231,222,213,203,187,179,168,159,144,132,117,100,87,70],"timestamp_mouse":[3,22,41,62,81,101,122,142,161,182,201,221,242,262,282,301,321,341,362,381,402,422,441,462,481,502,522,541,562,581,602,621,642,661,682,701,721,741,762,781,802,821,841,862,881,901,921,941,962,982],"xSR":741.5,"ySR":573.95,"xT1":424.9,"yT1":0,"xT2":1058.1,"yT2":0,"toosoon":0,"cond_shown":"equaldotanddens","ratio_trial":750,"smaller_num":"15","larger_num":"20","correct_side":2,"subjID":"SilvanaPinedaDuran16","gender":"1","age":"11","school":"6"},{"start_time":1551881522154,"click_time":1551881523021,"finger_time":1551881522701,"fix_duration":411.24093594776457,"trial":39,"RT":547,"MT":320,"sideResp":1,"stimulus":"img/900/equaldotsize/L/10_Ratio_900_L_20_R_18.png","xmouse":[800,800,800,800,800,800,800,800,800,800,800,800,800,800,800,797,795,794,792,792,791,791,789,788,785,773,764,756,744,727,699,642,614,593,575,546,539,532,525,521,515,513,511,509],"ymouse":[637,637,637,637,637,637,637,637,637,637,637,637,637,637,637,636,633,632,630,629,629,628,625,623,619,599,580,558,532,491,432,302,252,215,189,149,138,127,119,113,104,103,101,99],"timestamp_mouse":[10,41,47,67,87,107,128,147,167,188,207,229,248,268,288,308,327,347,368,387,407,427,447,467,488,507,527,547,568,587,607,627,648,667,687,707,727,747,768,788,807,827,847,867],"xSR":741.5,"ySR":573.95,"xT1":424.9,"yT1":0,"xT2":1058.1,"yT2":0,"toosoon":0,"cond_shown":"equaldotsize","ratio_trial":900,"smaller_num":"18","larger_num":"20","correct_side":1,"subjID":"SilvanaPinedaDuran16","gender":"1","age":"11","school":"6"},{"start_time":1551881524227,"click_time":1551881525202,"finger_time":1551881524741,"fix_duration":324.6503073821899,"trial":40,"RT":514,"MT":461,"sideResp":1,"stimulus":"img/900/equaldotanddens/L/1_Ratio_900_L_10_R_9.png","xmouse":[791,791,791,791,791,791,791,791,791,791,791,791,791,791,791,791,791,791,791,791,791,791,791,789,781,757,649,583,524,482,461,444,441,438,436,430,423,420,418,418,418,421,426,435,442,444,445,446,449],"ymouse":[593,593,593,593,593,593,593,593,593,593,593,593,593,593,593,593,593,593,593,593,593,593,593,592,586,568,485,419,342,284,256,228,222,218,211,199,178,169,160,154,149,140,131,120,111,109,106,103,96],"timestamp_mouse":[14,38,55,75,94,114,135,154,174,195,216,234,254,274,294,314,334,354,374,395,415,434,455,474,495,514,534,555,574,594,614,635,655,674,695,714,734,754,774,794,815,834,855,874,895,914,934,954,974],"xSR":741.5,"ySR":573.95,"xT1":424.9,"yT1":0,"xT2":1058.1,"yT2":0,"toosoon":0,"cond_shown":"equaldotanddens","ratio_trial":900,"smaller_num":"9","larger_num":"10","correct_side":1,"subjID":"SilvanaPinedaDuran16","gender":"1","age":"11","school":"6"},{"start_time":1551881527542,"click_time":1551881528301,"finger_time":1551881528101,"fix_duration":1258.1555228647528,"trial":41,"RT":559,"MT":200,"sideResp":1,"stimulus":"img/900/randomdotsizeEA/R/9_Ratio_900_L_18_R_20.png","xmouse":[776,776,776,776,776,776,776,776,776,776,776,776,776,776,776,776,776,776,776,776,776,776,776,776,776,776,776,775,768,747,718,643,606,581,568,555,533,527,523],"ymouse":[590,590,590,590,590,590,590,590,590,590,590,590,590,590,590,590,590,590,590,590,590,590,590,590,590,590,590,579,553,500,433,300,238,200,177,160,122,107,97],"timestamp_mouse":[1,19,40,60,79,99,120,139,159,180,200,219,240,260,280,299,319,339,360,379,399,420,439,459,480,500,519,539,559,579,599,619,639,659,679,699,719,740,759],"xSR":741.5,"ySR":573.95,"xT1":424.9,"yT1":0,"xT2":1058.1,"yT2":0,"toosoon":0,"cond_shown":"randomdotsizeEA","ratio_trial":900,"smaller_num":"18","larger_num":"20","correct_side":2,"subjID":"SilvanaPinedaDuran16","gender":"1","age":"11","school":"6"},{"start_time":1551881531364,"click_time":1551881532301,"finger_time":1551881531921,"fix_duration":1301.4305679618496,"trial":42,"RT":557,"MT":380,"sideResp":2,"stimulus":"img/250/equaldotanddens/R/8_Ratio_250_L_1_R_4.png","xmouse":[804,804,804,804,804,804,804,804,804,804,804,804,804,804,804,804,804,804,804,804,804,804,804,804,804,804,805,813,822,833,838,842,848,853,861,867,876,889,903,943,966,985,998,1017,1050,1076,1098],"ymouse":[594,594,594,594,594,594,594,594,594,594,594,594,594,594,594,594,594,594,594,594,594,594,594,594,594,588,575,555,536,508,499,489,475,459,443,435,421,406,388,335,302,276,259,237,191,104,46],"timestamp_mouse":[18,40,57,78,97,118,138,157,178,198,218,237,258,277,297,317,337,357,378,398,418,438,458,477,497,518,537,557,577,596,617,638,657,677,697,718,737,758,778,797,818,837,857,878,897,917,937],"xSR":741.5,"ySR":573.95,"xT1":424.9,"yT1":0,"xT2":1058.1,"yT2":0,"toosoon":0,"cond_shown":"equaldotanddens","ratio_trial":250,"smaller_num":"1","larger_num":"4","correct_side":2,"subjID":"SilvanaPinedaDuran16","gender":"1","age":"11","school":"6"},{"start_time":1551881534297,"click_time":1551881535881,"finger_time":1551881535482,"fix_duration":1315.648717926953,"trial":43,"RT":1185,"MT":399,"sideResp":1,"stimulus":"img/900/randomdotsizeEA/L/10_Ratio_900_L_20_R_18.png","xmouse":[775,775,775,775,775,775,775,775,775,775,775,775,775,775,775,775,775,775,775,775,775,775,775,775,775,775,775,775,775,775,775,775,775,775,775,775,775,775,775,775,775,775,775,775,775,775,775,775,775,775,775,775,775,775,775,775,774,773,763,756,742,723,701,647,630,618,604,587,529,507,491,484,480,480,480,480,480,480,477,462],"ymouse":[617,617,617,617,617,617,617,617,617,617,617,617,617,617,617,617,617,617,617,617,617,617,617,617,617,617,617,617,617,617,617,617,617,617,617,617,617,617,617,617,617,617,617,617,617,617,617,617,617,617,617,617,617,617,617,617,616,612,576,539,478,402,327,180,140,113,71,35,0,0,0,0,0,0,0,0,0,0,0,3],"timestamp_mouse":[12,24,44,64,84,104,124,144,165,185,204,224,244,264,285,305,325,344,365,384,404,424,444,465,484,504,524,544,564,584,605,624,644,665,684,704,725,745,765,784,804,825,844,865,885,904,925,945,964,985,1004,1025,1044,1065,1084,1105,1124,1145,1164,1185,1204,1224,1245,1264,1285,1305,1324,1345,1364,1384,1405,1424,1444,1464,1486,1504,1524,1544,1564,1584],"xSR":741.5,"ySR":573.95,"xT1":424.9,"yT1":0,"xT2":1058.1,"yT2":0,"toosoon":0,"cond_shown":"randomdotsizeEA","ratio_trial":900,"smaller_num":"18","larger_num":"20","correct_side":1,"subjID":"SilvanaPinedaDuran16","gender":"1","age":"11","school":"6"},{"start_time":1551881537362,"click_time":1551881538261,"finger_time":1551881537961,"fix_duration":400.4746341146886,"trial":44,"RT":599,"MT":300,"sideResp":1,"stimulus":"img/500/equaldotsize/L/7_Ratio_500_L_10_R_5.png","xmouse":[750,750,750,750,750,750,750,750,750,750,751,751,752,752,752,752,752,753,753,753,753,753,753,753,753,753,753,752,750,732,715,690,671,658,640,623,592,570,561,555,548,544,540,535,522],"ymouse":[610,610,610,610,610,610,610,610,610,610,610,610,609,609,609,609,609,609,609,609,608,608,608,608,608,608,608,599,592,552,521,476,435,389,333,290,215,169,147,130,106,94,84,73,55],"timestamp_mouse":[20,39,60,79,99,120,139,159,180,199,219,240,259,279,300,320,339,360,379,399,419,439,459,479,500,519,539,559,579,599,620,640,659,680,699,719,739,760,779,799,819,839,859,879,899],"xSR":741.5,"ySR":573.95,"xT1":424.9,"yT1":0,"xT2":1058.1,"yT2":0,"toosoon":0,"cond_shown":"equaldotsize","ratio_trial":500,"smaller_num":"5","larger_num":"10","correct_side":1,"subjID":"SilvanaPinedaDuran16","gender":"1","age":"11","school":"6"},{"start_time":1551881540401,"click_time":1551881541222,"finger_time":1551881540982,"fix_duration":1159.6763813171362,"trial":45,"RT":581,"MT":240,"sideResp":2,"stimulus":"img/250/equaldotanddens/R/11_Ratio_250_L_3_R_12.png","xmouse":[757,757,757,757,757,757,757,757,757,757,757,757,757,757,757,757,757,757,757,757,757,757,757,757,757,757,757,759,774,875,917,940,952,968,974,989,1010,1028,1040,1071,1076,1079],"ymouse":[591,591,591,591,591,591,591,591,591,591,591,591,591,591,591,591,591,591,591,591,591,591,591,591,591,591,591,589,580,521,497,482,470,421,393,351,313,288,268,171,136,93],"timestamp_mouse":[1,20,40,60,81,101,120,140,160,181,200,221,241,261,280,301,320,340,361,380,400,420,441,460,480,500,521,540,560,581,600,621,640,660,680,700,720,740,760,781,800,821],"xSR":741.5,"ySR":573.95,"xT1":424.9,"yT1":0,"xT2":1058.1,"yT2":0,"toosoon":0,"cond_shown":"equaldotanddens","ratio_trial":250,"smaller_num":"3","larger_num":"12","correct_side":2,"subjID":"SilvanaPinedaDuran16","gender":"1","age":"11","school":"6"},{"start_time":1551881544742,"click_time":1551881545861,"finger_time":1551881545481,"fix_duration":1339.9456913107476,"trial":46,"RT":739,"MT":380,"sideResp":1,"stimulus":"img/250/randomdotsizeEA/L/3_Ratio_250_L_8_R_2.png","xmouse":[787,787,787,787,787,787,787,787,787,787,787,787,787,787,787,787,787,787,787,787,787,787,787,787,787,787,787,787,787,787,787,787,787,787,788,785,750,723,700,681,672,660,655,651,646,641,620,607,601,591,578,555,541,525,508,492,482],"ymouse":[613,613,613,613,613,613,613,613,613,613,613,613,613,613,613,613,613,613,613,613,613,613,613,613,613,613,613,613,613,613,613,613,613,613,612,606,589,578,567,558,550,534,521,505,486,463,369,327,300,270,243,197,174,153,129,110,93],"timestamp_mouse":[1,20,39,60,80,100,119,139,159,180,200,220,239,259,279,299,319,340,359,379,399,419,439,460,479,500,519,540,559,579,599,619,640,659,679,699,720,739,759,780,799,819,839,859,879,899,920,940,959,979,999,1019,1039,1059,1079,1100,1119],"xSR":741.5,"ySR":573.95,"xT1":424.9,"yT1":0,"xT2":1058.1,"yT2":0,"toosoon":0,"cond_shown":"randomdotsizeEA","ratio_trial":250,"smaller_num":"2","larger_num":"8","correct_side":1,"subjID":"SilvanaPinedaDuran16","gender":"1","age":"11","school":"6"},{"start_time":1551881547415,"click_time":1551881548401,"finger_time":1551881547982,"fix_duration":412.10352085781153,"trial":47,"RT":567,"MT":419,"sideResp":2,"stimulus":"img/750/randomdotsizeEA/R/11_Ratio_750_L_12_R_16.png","xmouse":[810,810,810,810,810,810,810,810,810,810,810,810,810,810,810,810,810,810,810,810,810,810,810,810,809,805,797,787,754,740,731,725,719,719,718,718,718,731,752,786,832,874,958,986,1012,1032,1048,1065,1070,1074],"ymouse":[617,617,617,617,617,617,617,617,617,617,617,617,617,617,617,617,617,617,617,617,617,617,617,617,617,615,603,585,544,524,510,503,491,491,490,488,483,468,457,442,422,402,331,288,238,196,163,122,104,90],"timestamp_mouse":[8,33,46,66,87,106,127,146,166,186,206,226,247,267,287,307,326,346,366,386,406,427,446,466,486,507,527,546,567,586,607,627,646,666,687,707,727,746,766,786,806,827,846,866,886,907,926,946,966,986],"xSR":741.5,"ySR":573.95,"xT1":424.9,"yT1":0,"xT2":1058.1,"yT2":0,"toosoon":0,"cond_shown":"randomdotsizeEA","ratio_trial":750,"smaller_num":"12","larger_num":"16","correct_side":2,"subjID":"SilvanaPinedaDuran16","gender":"1","age":"11","school":"6"},{"start_time":1551881554133,"click_time":1551881555861,"finger_time":1551881554861,"fix_duration":250,"trial":48,"RT":728,"MT":1000,"sideResp":2,"stimulus":"img/900/equaldotsize/R/5_Ratio_900_L_9_R_10.png","xmouse":[754,754,754,754,754,754,754,754,754,754,754,754,754,754,754,754,754,754,754,754,754,754,754,754,754,754,754,754,754,755,756,757,757,757,757,757,754,750,741,733,721,701,691,683,678,668,646,636,627,617,607,590,586,586,586,586,586,601,645,728,853,1119,1242,1337,1393,1406,1397,1387,1379,1372,1367,1358,1348,1330,1305,1275,1201,1171,1164,1161,1158,1153,1151,1150,1147,1146,1143],"ymouse":[605,605,605,605,605,605,605,605,605,605,605,605,605,605,605,605,605,605,605,605,605,605,605,605,605,605,605,605,605,604,604,603,602,599,595,590,552,525,497,470,438,392,376,363,355,336,305,290,277,260,239,196,181,176,176,176,179,198,231,281,325,368,359,330,298,282,248,237,226,217,210,201,198,191,185,176,160,155,152,150,148,144,141,137,132,127,94],"timestamp_mouse":[8,28,49,69,88,108,129,148,168,189,208,228,249,269,289,308,329,349,369,389,409,429,449,468,488,508,528,548,568,589,609,628,648,668,688,709,728,748,768,788,808,828,849,868,888,908,928,949,969,988,1009,1028,1049,1068,1089,1108,1128,1149,1168,1189,1208,1228,1248,1268,1288,1308,1328,1349,1368,1389,1409,1428,1450,1468,1488,1509,1528,1548,1568,1589,1608,1628,1648,1668,1688,1709,1728],"xSR":741.5,"ySR":573.95,"xT1":424.9,"yT1":0,"xT2":1058.1,"yT2":0,"toosoon":0,"cond_shown":"equaldotsize","ratio_trial":900,"smaller_num":"9","larger_num":"10","correct_side":2,"subjID":"SilvanaPinedaDuran16","gender":"1","age":"11","school":"6"},{"start_time":1551881557758,"click_time":1551881558861,"finger_time":1551881558302,"fix_duration":814.3366878984544,"trial":49,"RT":544,"MT":559,"sideResp":1,"stimulus":"img/750/randomdotsizeEA/L/14_Ratio_750_L_8_R_6.png","xmouse":[779,779,779,779,779,779,779,779,779,779,779,779,779,779,779,779,779,779,779,779,779,778,778,776,775,761,751,737,722,705,651,627,604,576,570,551,545,539,533,527,522,521,521,521,520,517,516,515,515,513,509,507,505,504,503,496],"ymouse":[628,628,628,628,628,628,628,628,628,628,628,628,628,628,628,628,628,628,628,628,627,623,621,616,614,593,580,567,548,522,403,363,325,269,256,211,200,187,172,158,146,144,144,142,139,130,128,127,125,122,115,110,106,103,100,90],"timestamp_mouse":[9,33,43,63,83,103,123,143,164,183,203,223,243,263,284,303,323,344,363,384,403,423,443,463,483,503,523,544,564,583,603,623,643,664,684,703,723,743,763,784,803,824,844,863,884,903,923,943,964,984,1003,1023,1043,1063,1084,1103],"xSR":741.5,"ySR":573.95,"xT1":424.9,"yT1":0,"xT2":1058.1,"yT2":0,"toosoon":0,"cond_shown":"randomdotsizeEA","ratio_trial":750,"smaller_num":"6","larger_num":"8","correct_side":1,"subjID":"SilvanaPinedaDuran16","gender":"1","age":"11","school":"6"},{"start_time":1551881560552,"click_time":1551881561701,"finger_time":1551881561161,"fix_duration":990.8561511492097,"trial":50,"RT":609,"MT":540,"sideResp":1,"stimulus":"img/500/randomdotsizeEA/L/10_Ratio_500_L_4_R_2.png","xmouse":[778,779,780,780,780,780,780,780,780,780,780,780,780,780,780,780,780,780,780,780,780,780,780,780,780,780,780,780,780,779,766,755,734,707,676,645,592,584,579,573,563,558,554,553,552,547,542,540,539,539,537,536,535,534,532,527,527,523],"ymouse":[629,627,621,621,614,611,610,609,606,603,601,601,601,601,601,601,601,601,601,601,601,601,599,599,599,599,599,599,598,596,567,540,496,449,400,349,261,242,226,214,190,178,170,164,160,144,130,120,107,98,88,87,84,81,76,68,63,59],"timestamp_mouse":[10,29,58,70,90,109,129,150,170,189,209,229,249,269,289,309,330,350,369,389,410,429,449,469,489,509,529,549,570,589,609,629,650,669,689,709,729,749,770,790,809,830,849,871,889,909,930,949,969,990,1009,1028,1050,1069,1089,1109,1129,1149],"xSR":741.5,"ySR":573.95,"xT1":424.9,"yT1":0,"xT2":1058.1,"yT2":0,"toosoon":0,"cond_shown":"randomdotsizeEA","ratio_trial":500,"smaller_num":"2","larger_num":"4","correct_side":1,"subjID":"SilvanaPinedaDuran16","gender":"1","age":"11","school":"6"},{"start_time":1551881566942,"click_time":1551881567962,"finger_time":1551881567561,"fix_duration":1418.4160912941504,"trial":51,"RT":619,"MT":401,"sideResp":1,"stimulus":"img/900/equaldotanddens/L/10_Ratio_900_L_20_R_18.png","xmouse":[805,805,805,805,805,805,805,805,805,805,805,805,805,805,805,805,805,805,805,805,805,805,805,805,805,805,805,805,805,805,806,789,767,732,701,652,598,584,578,572,567,556,551,544,537,527,513,509,506,500,492,472],"ymouse":[591,591,591,591,591,591,591,591,591,591,591,591,591,591,591,591,591,591,591,591,591,591,591,591,591,591,591,591,591,591,588,559,529,480,438,323,191,161,139,120,102,65,43,20,1,0,0,0,0,0,0,18],"timestamp_mouse":[1,19,46,59,79,99,119,140,159,179,199,220,239,260,280,299,319,339,359,379,399,420,440,459,479,500,519,540,559,579,600,619,638,659,680,700,719,740,759,780,799,819,839,859,880,900,919,939,959,979,999,1020],"xSR":741.5,"ySR":573.95,"xT1":424.9,"yT1":0,"xT2":1058.1,"yT2":0,"toosoon":0,"cond_shown":"equaldotanddens","ratio_trial":900,"smaller_num":"18","larger_num":"20","correct_side":1,"subjID":"SilvanaPinedaDuran16","gender":"1","age":"11","school":"6"},{"start_time":1551881569478,"click_time":1551881570361,"finger_time":1551881570201,"fix_duration":595.3398008711862,"trial":52,"RT":723,"MT":160,"sideResp":1,"stimulus":"img/750/equaldotanddens/L/1_Ratio_750_L_20_R_15.png","xmouse":[808,808,808,808,808,808,808,808,808,808,808,808,808,808,808,808,808,808,808,808,808,808,808,808,808,808,808,808,808,808,808,808,808,803,789,764,729,694,658,597,576,553,527,510,492],"ymouse":[639,639,639,639,639,639,639,639,639,639,639,639,639,639,639,639,639,639,639,639,639,639,639,639,639,639,639,639,639,639,639,639,639,635,615,579,527,478,430,313,254,200,150,112,50],"timestamp_mouse":[8,23,43,63,84,102,124,144,162,183,203,223,244,263,282,302,322,342,363,383,402,422,444,462,482,503,522,544,564,582,602,622,644,662,682,704,723,742,762,782,804,823,843,864,883],"xSR":741.5,"ySR":573.95,"xT1":424.9,"yT1":0,"xT2":1058.1,"yT2":0,"toosoon":0,"cond_shown":"equaldotanddens","ratio_trial":750,"smaller_num":"15","larger_num":"20","correct_side":1,"subjID":"SilvanaPinedaDuran16","gender":"1","age":"11","school":"6"},{"start_time":1551881571511,"click_time":1551881572160,"finger_time":1551881572081,"fix_duration":250,"trial":53,"RT":570,"MT":79,"sideResp":1,"stimulus":"img/750/randomdotsizeEA/L/6_Ratio_750_L_24_R_18.png","xmouse":[808,808,808,808,808,808,808,808,808,808,808,808,808,808,808,808,808,808,808,808,808,808,808,808,808,808,808,779,744,694,632,574,513],"ymouse":[630,630,630,630,630,630,630,630,630,630,630,630,630,630,630,630,630,630,630,630,630,630,630,630,630,630,631,587,523,428,316,207,52],"timestamp_mouse":[9,35,49,71,89,110,131,151,169,191,211,230,250,271,289,309,329,351,369,389,410,430,449,470,490,511,530,549,570,590,610,629,649],"xSR":741.5,"ySR":573.95,"xT1":424.9,"yT1":0,"xT2":1058.1,"yT2":0,"toosoon":0,"cond_shown":"randomdotsizeEA","ratio_trial":750,"smaller_num":"18","larger_num":"24","correct_side":1,"subjID":"SilvanaPinedaDuran16","gender":"1","age":"11","school":"6"},{"start_time":1551881573486,"click_time":1551881574222,"finger_time":1551881574061,"fix_duration":465.3509586172576,"trial":54,"RT":575,"MT":161,"sideResp":1,"stimulus":"img/250/equaldotsize/L/1_Ratio_250_L_8_R_2.png","xmouse":[766,766,766,766,766,766,766,766,766,766,766,766,766,766,766,766,766,766,766,766,766,766,766,766,766,766,767,763,702,654,604,559,529,513,508,504,501],"ymouse":[621,621,621,621,621,621,621,621,621,621,621,621,621,621,621,621,621,621,621,621,621,621,621,621,621,621,620,610,479,399,318,253,200,144,128,111,88],"timestamp_mouse":[14,41,56,75,94,115,134,156,174,195,216,234,255,274,294,315,334,354,375,395,415,434,454,475,494,514,535,555,575,595,614,635,655,675,694,714,736],"xSR":741.5,"ySR":573.95,"xT1":424.9,"yT1":0,"xT2":1058.1,"yT2":0,"toosoon":0,"cond_shown":"equaldotsize","ratio_trial":250,"smaller_num":"2","larger_num":"8","correct_side":1,"subjID":"SilvanaPinedaDuran16","gender":"1","age":"11","school":"6"},{"start_time":1551881576118,"click_time":1551881576660,"finger_time":1551881576560,"fix_duration":1056.2158220604504,"trial":55,"RT":442,"MT":100,"sideResp":1,"stimulus":"img/250/equaldotsize/L/1_Ratio_250_L_8_R_2.png","xmouse":[804,804,804,804,804,804,804,804,804,804,804,804,804,804,804,804,804,804,804,804,804,804,775,734,678,606,520,489],"ymouse":[601,601,601,601,601,601,601,601,601,601,601,601,601,601,601,601,601,601,601,601,601,599,561,498,402,284,144,91],"timestamp_mouse":[8,22,42,62,82,103,122,142,162,182,202,223,242,263,282,302,322,343,364,382,402,422,442,463,484,502,523,542],"xSR":741.5,"ySR":573.95,"xT1":424.9,"yT1":0,"xT2":1058.1,"yT2":0,"toosoon":0,"cond_shown":"equaldotsize","ratio_trial":250,"smaller_num":"2","larger_num":"8","correct_side":1,"subjID":"SilvanaPinedaDuran16","gender":"1","age":"11","school":"6"},{"start_time":1551881578950,"click_time":1551881580401,"finger_time":1551881580242,"fix_duration":1228.6379038826456,"trial":56,"RT":1292,"MT":159,"sideResp":2,"stimulus":"img/750/equaldotsize/L/13_Ratio_750_L_8_R_6.png","xmouse":[775,775,775,775,775,775,775,775,775,775,775,775,775,775,775,775,775,775,775,775,775,775,775,775,775,775,775,775,775,775,775,775,775,775,775,775,775,775,775,775,775,775,775,775,775,775,775,775,775,775,775,775,775,775,775,775,775,775,775,775,775,775,775,781,794,907,953,989,1007,1018,1043,1056,1071],"ymouse":[611,611,611,611,611,611,611,611,611,611,611,611,611,611,611,611,611,611,611,611,611,611,611,611,611,611,611,611,611,611,611,611,611,611,611,611,611,611,611,611,611,611,611,611,611,611,611,611,611,611,611,611,611,611,611,611,611,611,611,611,611,611,611,588,564,369,287,223,175,137,84,64,48],"timestamp_mouse":[10,41,50,70,92,110,130,151,170,191,210,230,250,270,291,312,331,350,370,390,410,430,451,472,490,510,531,552,571,590,610,630,650,671,690,710,730,752,771,790,810,832,851,870,890,912,931,950,972,991,1010,1030,1052,1071,1091,1110,1131,1152,1170,1191,1211,1230,1251,1272,1292,1310,1330,1350,1370,1392,1410,1430,1450],"xSR":741.5,"ySR":573.95,"xT1":424.9,"yT1":0,"xT2":1058.1,"yT2":0,"toosoon":0,"cond_shown":"equaldotsize","ratio_trial":750,"smaller_num":"6","larger_num":"8","correct_side":1,"subjID":"SilvanaPinedaDuran16","gender":"1","age":"11","school":"6"},{"start_time":1551881582240,"click_time":1551881583061,"finger_time":1551881582962,"fix_duration":817.5825354254803,"trial":57,"RT":722,"MT":99,"sideResp":1,"stimulus":"img/900/equaldotsize/L/4_Ratio_900_L_20_R_18.png","xmouse":[812,812,812,812,812,812,812,812,812,811,810,810,810,810,809,808,808,808,808,808,808,808,808,808,808,808,808,808,808,808,808,808,808,804,801,788,737,708,655,595,534,474],"ymouse":[617,617,617,617,617,617,617,617,617,617,616,616,616,616,616,616,616,616,616,616,616,616,616,616,616,616,616,616,616,616,616,616,616,611,607,588,489,424,298,184,102,17],"timestamp_mouse":[9,21,46,61,82,100,122,140,160,181,200,221,240,261,281,301,320,341,361,382,401,421,442,462,480,501,520,541,562,580,600,620,641,661,682,702,722,741,760,781,802,821],"xSR":741.5,"ySR":573.95,"xT1":424.9,"yT1":0,"xT2":1058.1,"yT2":0,"toosoon":0,"cond_shown":"equaldotsize","ratio_trial":900,"smaller_num":"18","larger_num":"20","correct_side":1,"subjID":"SilvanaPinedaDuran16","gender":"1","age":"11","school":"6"},{"start_time":1551881584274,"click_time":1551881585260,"finger_time":1551881584861,"fix_duration":250,"trial":58,"RT":587,"MT":399,"sideResp":1,"stimulus":"img/250/randomdotsizeEA/L/5_Ratio_250_L_24_R_6.png","xmouse":[786,786,786,786,786,786,786,786,786,786,786,786,786,786,786,786,786,786,786,786,786,786,786,786,786,786,786,786,785,763,752,738,716,702,673,662,654,642,630,605,597,588,581,575,566,559,550,543,537,518],"ymouse":[609,609,609,609,609,609,609,609,609,609,609,609,609,609,609,609,609,609,609,609,609,609,609,609,609,609,609,595,582,494,469,437,385,358,315,298,285,269,252,211,197,182,169,158,135,121,106,92,77,46],"timestamp_mouse":[8,33,46,66,87,106,126,147,166,187,208,227,247,268,288,307,327,346,367,388,406,427,447,468,487,506,528,547,567,587,606,626,648,668,686,706,726,747,767,786,806,827,848,868,887,906,927,946,966,986],"xSR":741.5,"ySR":573.95,"xT1":424.9,"yT1":0,"xT2":1058.1,"yT2":0,"toosoon":0,"cond_shown":"randomdotsizeEA","ratio_trial":250,"smaller_num":"6","larger_num":"24","correct_side":1,"subjID":"SilvanaPinedaDuran16","gender":"1","age":"11","school":"6"},{"start_time":1551881586832,"click_time":1551881588180,"finger_time":1551881587820,"fix_duration":950.6128078750181,"trial":59,"RT":988,"MT":360,"sideResp":2,"stimulus":"img/500/equaldotanddens/R/2_Ratio_500_L_3_R_6.png","xmouse":[801,801,801,801,801,801,801,801,801,801,801,801,801,801,801,801,801,801,801,801,801,801,801,801,801,801,801,801,801,801,801,797,792,790,788,788,787,787,787,787,787,787,787,787,787,787,789,809,837,877,925,1112,1181,1232,1259,1264,1271,1271,1271,1271,1271,1271,1265,1254,1239,1217,1167,1150],"ymouse":[651,651,651,651,651,651,651,651,651,651,651,651,651,651,651,651,651,651,651,651,651,651,651,651,651,651,651,651,651,651,648,635,626,621,618,617,617,617,617,617,617,617,617,617,617,617,612,602,585,553,511,263,162,77,22,10,0,0,0,0,0,0,1,5,9,15,31,35],"timestamp_mouse":[9,29,49,69,90,108,129,161,169,188,209,228,248,268,290,308,329,348,370,389,408,428,448,470,488,510,529,548,569,588,608,629,649,669,689,708,728,748,768,789,810,829,849,869,889,909,928,950,970,988,1009,1028,1050,1069,1089,1109,1128,1148,1170,1189,1209,1229,1248,1268,1288,1308,1328,1348],"xSR":741.5,"ySR":573.95,"xT1":424.9,"yT1":0,"xT2":1058.1,"yT2":0,"toosoon":0,"cond_shown":"equaldotanddens","ratio_trial":500,"smaller_num":"3","larger_num":"6","correct_side":2,"subjID":"SilvanaPinedaDuran16","gender":"1","age":"11","school":"6"},{"start_time":1551881589276,"click_time":1551881590361,"finger_time":1551881589860,"fix_duration":274.86125166805095,"trial":60,"RT":584,"MT":501,"sideResp":2,"stimulus":"img/250/randomdotsizeEA/R/4_Ratio_250_L_3_R_12.png","xmouse":[799,802,807,807,826,829,831,832,832,832,832,832,832,832,832,832,832,832,832,832,832,832,832,832,832,832,832,832,832,824,819,817,816,816,816,816,816,817,823,890,957,1015,1052,1067,1076,1077,1079,1080,1080,1085,1089,1092,1096,1099,1110],"ymouse":[594,595,597,597,596,594,593,592,592,592,592,592,592,592,592,592,592,592,592,592,592,592,592,592,592,592,592,592,591,573,562,559,557,557,557,557,557,554,549,478,386,304,245,217,185,175,167,163,161,150,141,132,124,116,90],"timestamp_mouse":[9,25,50,65,85,105,124,145,166,185,205,224,244,265,284,304,324,345,365,384,404,424,445,464,484,504,526,544,565,584,604,624,645,664,684,704,726,746,764,784,805,826,846,866,884,905,925,945,965,985,1006,1024,1045,1065,1084],"xSR":741.5,"ySR":573.95,"xT1":424.9,"yT1":0,"xT2":1058.1,"yT2":0,"toosoon":0,"cond_shown":"randomdotsizeEA","ratio_trial":250,"smaller_num":"3","larger_num":"12","correct_side":2,"subjID":"SilvanaPinedaDuran16","gender":"1","age":"11","school":"6"},{"start_time":1551881592305,"click_time":1551881593361,"finger_time":1551881592901,"fix_duration":844.2437253594661,"trial":61,"RT":596,"MT":460,"sideResp":1,"stimulus":"img/900/equaldotanddens/L/1_Ratio_900_L_10_R_9.png","xmouse":[808,808,808,807,806,806,806,805,805,805,805,805,805,805,805,805,805,805,805,805,805,805,805,805,805,804,801,795,789,784,775,764,739,732,727,725,723,708,698,685,668,650,617,608,600,591,574,548,540,535,532,529,524],"ymouse":[611,611,610,607,607,605,605,604,604,604,604,604,604,604,604,604,604,604,604,604,604,604,604,604,603,602,597,586,576,563,541,512,461,449,440,435,429,382,345,306,268,223,149,131,117,102,79,44,35,30,26,24,21],"timestamp_mouse":[16,36,56,76,96,115,135,156,176,195,215,235,256,277,295,315,335,357,375,395,415,436,455,476,495,517,535,555,575,596,615,635,655,677,696,715,736,756,776,795,816,836,855,875,895,917,936,956,975,997,1016,1036,1056],"xSR":741.5,"ySR":573.95,"xT1":424.9,"yT1":0,"xT2":1058.1,"yT2":0,"toosoon":0,"cond_shown":"equaldotanddens","ratio_trial":900,"smaller_num":"9","larger_num":"10","correct_side":1,"subjID":"SilvanaPinedaDuran16","gender":"1","age":"11","school":"6"},{"start_time":1551881594513,"click_time":1551881595561,"finger_time":1551881595121,"fix_duration":250,"trial":62,"RT":608,"MT":440,"sideResp":2,"stimulus":"img/250/randomdotsizeEA/R/6_Ratio_250_L_6_R_24.png","xmouse":[768,768,768,768,768,768,768,768,768,768,768,768,768,768,768,768,768,768,768,768,768,768,768,768,768,768,768,768,776,797,830,867,936,962,987,1011,1026,1053,1064,1073,1082,1088,1098,1103,1109,1112,1117,1120,1121,1122,1123,1125,1127],"ymouse":[635,635,635,635,635,635,635,635,635,635,635,635,635,635,635,635,635,635,635,635,635,635,635,635,635,635,635,635,625,596,554,515,463,440,422,400,382,331,312,296,277,261,230,212,195,177,163,143,138,131,120,110,88],"timestamp_mouse":[9,27,48,68,87,107,129,148,169,187,208,227,248,267,287,309,329,347,367,389,409,427,447,467,488,507,529,547,568,588,608,629,647,667,687,708,728,747,767,787,808,828,847,868,887,907,928,947,969,987,1008,1027,1048],"xSR":741.5,"ySR":573.95,"xT1":424.9,"yT1":0,"xT2":1058.1,"yT2":0,"toosoon":0,"cond_shown":"randomdotsizeEA","ratio_trial":250,"smaller_num":"6","larger_num":"24","correct_side":2,"subjID":"SilvanaPinedaDuran16","gender":"1","age":"11","school":"6"},{"start_time":1551881596653,"click_time":1551881597600,"finger_time":1551881597340,"fix_duration":250,"trial":63,"RT":687,"MT":260,"sideResp":2,"stimulus":"img/250/equaldotsize/R/8_Ratio_250_L_1_R_4.png","xmouse":[773,773,773,773,773,773,773,773,773,773,773,773,773,773,773,773,773,773,773,773,773,773,773,773,773,773,773,773,773,773,775,776,778,781,786,809,829,856,888,916,986,1011,1028,1042,1054,1067,1072,1078],"ymouse":[597,597,597,597,597,597,597,597,597,597,597,597,597,597,597,597,597,597,597,597,597,597,597,597,597,597,597,597,597,596,591,587,582,577,568,534,507,470,433,401,325,278,240,203,169,128,108,92],"timestamp_mouse":[9,28,50,69,87,107,128,149,167,187,208,228,247,268,288,307,329,347,368,388,408,429,447,468,488,507,528,547,569,587,607,628,647,668,687,707,729,747,767,787,808,827,847,868,888,907,928,947],"xSR":741.5,"ySR":573.95,"xT1":424.9,"yT1":0,"xT2":1058.1,"yT2":0,"toosoon":0,"cond_shown":"equaldotsize","ratio_trial":250,"smaller_num":"1","larger_num":"4","correct_side":2,"subjID":"SilvanaPinedaDuran16","gender":"1","age":"11","school":"6"},{"start_time":1551881598753,"click_time":1551881599921,"finger_time":1551881599502,"fix_duration":250,"trial":64,"RT":749,"MT":419,"sideResp":1,"stimulus":"img/900/randomdotsizeEA/R/13_Ratio_900_L_18_R_20.png","xmouse":[785,785,785,785,785,785,785,785,785,785,785,785,785,785,785,785,785,785,785,785,785,785,785,785,785,785,785,785,785,785,785,785,785,785,785,783,777,766,750,736,709,698,688,680,671,667,663,658,653,647,640,636,630,624,608,573,552,533,517],"ymouse":[623,623,623,623,623,623,623,623,623,623,623,623,623,623,623,623,623,623,623,623,623,623,623,623,623,623,623,623,623,623,623,623,623,623,623,609,584,536,476,370,212,156,123,97,61,26,8,0,0,0,0,0,0,0,0,11,22,34,45],"timestamp_mouse":[8,38,49,67,87,108,127,147,169,187,207,228,248,269,287,307,329,349,367,388,407,427,448,467,488,507,529,548,568,587,608,627,647,668,688,707,727,749,769,787,808,829,847,867,887,908,927,947,967,988,1008,1028,1049,1067,1088,1108,1128,1148,1168],"xSR":741.5,"ySR":573.95,"xT1":424.9,"yT1":0,"xT2":1058.1,"yT2":0,"toosoon":0,"cond_shown":"randomdotsizeEA","ratio_trial":900,"smaller_num":"18","larger_num":"20","correct_side":2,"subjID":"SilvanaPinedaDuran16","gender":"1","age":"11","school":"6"},{"start_time":1551881601191,"click_time":1551881602200,"finger_time":1551881601761,"fix_duration":250,"trial":65,"RT":570,"MT":439,"sideResp":1,"stimulus":"img/900/randomdotsizeEA/L/1_Ratio_900_L_10_R_9.png","xmouse":[754,754,754,754,754,754,754,754,754,754,754,754,754,754,754,754,754,754,754,754,754,754,754,754,754,754,757,758,759,759,759,753,739,702,691,680,670,662,653,637,632,626,622,613,606,595,586,580,547,526,507],"ymouse":[614,614,614,614,614,614,614,614,614,614,614,614,614,614,614,614,614,614,614,614,614,614,614,614,614,614,608,598,524,473,407,340,268,142,115,93,76,62,47,21,14,6,3,1,1,1,1,3,19,31,42],"timestamp_mouse":[10,35,49,69,90,111,130,150,170,190,209,230,249,270,290,309,330,351,369,389,409,430,450,471,489,509,530,549,570,591,610,630,650,670,689,709,729,750,770,789,809,829,849,870,889,911,930,950,970,989,1009],"xSR":741.5,"ySR":573.95,"xT1":424.9,"yT1":0,"xT2":1058.1,"yT2":0,"toosoon":0,"cond_shown":"randomdotsizeEA","ratio_trial":900,"smaller_num":"9","larger_num":"10","correct_side":1,"subjID":"SilvanaPinedaDuran16","gender":"1","age":"11","school":"6"},{"start_time":1551881603692,"click_time":1551881604420,"finger_time":1551881604261,"fix_duration":630.55290106754,"trial":66,"RT":569,"MT":159,"sideResp":2,"stimulus":"img/900/randomdotsizeEA/R/13_Ratio_900_L_18_R_20.png","xmouse":[810,810,810,810,810,810,810,810,810,810,810,810,810,810,810,810,810,810,810,810,810,810,810,810,810,810,810,811,839,880,933,987,1029,1086,1108,1127,1149],"ymouse":[597,597,597,597,597,597,597,597,597,597,597,597,597,597,597,597,597,597,597,597,597,597,597,597,597,597,597,594,526,442,351,280,234,163,132,100,58],"timestamp_mouse":[11,31,48,69,88,109,130,149,169,189,210,228,248,268,290,308,328,349,368,389,408,428,449,470,489,509,529,549,569,590,609,630,649,668,689,708,728],"xSR":741.5,"ySR":573.95,"xT1":424.9,"yT1":0,"xT2":1058.1,"yT2":0,"toosoon":0,"cond_shown":"randomdotsizeEA","ratio_trial":900,"smaller_num":"18","larger_num":"20","correct_side":2,"subjID":"SilvanaPinedaDuran16","gender":"1","age":"11","school":"6"},{"start_time":1551881606935,"click_time":1551881608061,"finger_time":1551881607641,"fix_duration":1073.2993443649711,"trial":67,"RT":706,"MT":420,"sideResp":1,"stimulus":"img/900/equaldotsize/R/5_Ratio_900_L_9_R_10.png","xmouse":[796,796,796,796,796,796,797,797,797,797,797,797,797,797,797,797,797,797,797,797,797,797,797,797,797,797,797,797,797,797,797,797,797,797,792,789,775,767,757,739,722,671,649,626,610,596,573,560,544,539,519,503,498,494,492,491,486],"ymouse":[600,600,600,600,600,600,600,600,600,600,600,600,600,600,600,600,600,600,600,600,600,600,600,600,600,600,600,600,600,600,600,600,600,591,577,570,537,519,494,448,389,228,181,144,121,100,66,46,24,12,0,0,0,0,0,0,1],"timestamp_mouse":[8,41,46,65,86,106,126,146,167,186,205,226,245,265,286,306,325,346,367,385,406,425,446,465,485,507,526,545,566,585,606,627,645,665,685,706,725,747,766,787,807,825,846,865,886,905,926,945,965,986,1005,1025,1045,1065,1085,1105,1126],"xSR":741.5,"ySR":573.95,"xT1":424.9,"yT1":0,"xT2":1058.1,"yT2":0,"toosoon":0,"cond_shown":"equaldotsize","ratio_trial":900,"smaller_num":"9","larger_num":"10","correct_side":2,"subjID":"SilvanaPinedaDuran16","gender":"1","age":"11","school":"6"},{"start_time":1551881611887,"click_time":1551881612842,"finger_time":1551881612501,"fix_duration":1045.5643116185577,"trial":68,"RT":614,"MT":341,"sideResp":2,"stimulus":"img/500/equaldotanddens/R/2_Ratio_500_L_3_R_6.png","xmouse":[811,811,811,811,811,811,811,811,811,811,811,811,811,811,811,811,811,811,811,811,811,811,811,811,811,811,811,812,815,824,848,887,922,973,988,1000,1010,1016,1023,1027,1033,1039,1045,1063,1074,1085,1103,1132],"ymouse":[608,608,608,608,608,608,608,608,608,608,608,608,608,608,608,609,609,609,609,609,609,609,609,609,609,609,609,609,605,588,553,500,449,384,368,355,341,330,315,306,294,281,266,232,213,194,158,87],"timestamp_mouse":[14,36,53,75,93,113,133,154,173,194,214,233,255,273,293,314,335,354,373,393,413,435,454,474,493,514,534,554,574,593,614,634,654,674,695,714,733,753,773,794,814,834,853,873,894,914,933,955],"xSR":741.5,"ySR":573.95,"xT1":424.9,"yT1":0,"xT2":1058.1,"yT2":0,"toosoon":0,"cond_shown":"equaldotanddens","ratio_trial":500,"smaller_num":"3","larger_num":"6","correct_side":2,"subjID":"SilvanaPinedaDuran16","gender":"1","age":"11","school":"6"},{"start_time":1551881622238,"click_time":1551881623661,"finger_time":1551881622980,"fix_duration":1176.2421377129633,"trial":69,"RT":742,"MT":681,"sideResp":2,"stimulus":"img/750/equaldotsize/R/12_Ratio_750_L_3_R_4.png","xmouse":[793,793,793,793,793,793,793,793,793,793,793,793,793,793,793,793,793,793,793,793,793,793,793,793,793,793,793,793,793,793,793,793,793,793,795,797,819,848,904,976,1040,1125,1143,1154,1161,1167,1176,1184,1188,1192,1194,1198,1199,1199,1201,1202,1203,1203,1203,1200,1199,1197,1195,1191,1187,1181,1173,1170,1168,1166,1160,1138],"ymouse":[597,597,597,597,597,597,597,597,597,597,597,597,597,597,597,597,597,597,597,597,597,597,597,597,597,597,597,597,597,597,597,597,597,597,596,594,574,550,503,444,391,317,300,285,275,265,248,238,230,221,212,194,188,182,174,167,148,136,126,120,115,110,106,100,97,93,87,85,83,83,83,80],"timestamp_mouse":[8,22,47,62,83,102,122,142,164,182,204,222,242,262,284,302,322,343,362,384,403,422,444,463,482,503,522,544,564,583,602,622,643,662,683,702,723,742,762,783,804,823,843,862,883,902,922,943,963,982,1003,1022,1044,1063,1083,1104,1122,1142,1162,1183,1203,1223,1243,1262,1282,1302,1322,1343,1363,1382,1403,1423],"xSR":741.5,"ySR":573.95,"xT1":424.9,"yT1":0,"xT2":1058.1,"yT2":0,"toosoon":0,"cond_shown":"equaldotsize","ratio_trial":750,"smaller_num":"3","larger_num":"4","correct_side":2,"subjID":"SilvanaPinedaDuran16","gender":"1","age":"11","school":"6"},{"start_time":1551881625013,"click_time":1551881626501,"finger_time":1551881625860,"fix_duration":250,"trial":70,"RT":847,"MT":641,"sideResp":2,"stimulus":"img/500/equaldotanddens/R/12_Ratio_500_L_1_R_2.png","xmouse":[802,802,802,802,802,802,802,802,802,802,802,802,802,802,802,802,802,802,803,803,803,803,803,803,803,803,803,803,804,804,804,804,804,804,804,804,804,804,804,804,806,807,842,858,876,893,914,1011,1082,1120,1144,1155,1166,1168,1169,1169,1170,1172,1173,1175,1175,1176,1176,1176,1176,1176,1175,1173,1173,1173,1173,1172,1162,1159,1156],"ymouse":[629,629,629,629,629,629,629,629,629,629,629,629,629,629,629,629,629,629,629,629,629,629,629,629,629,629,628,628,628,628,628,628,628,628,628,628,628,628,628,628,625,621,580,564,548,532,511,387,306,252,212,191,165,161,158,157,154,145,141,136,132,126,103,87,69,56,46,40,40,40,39,39,38,38,38],"timestamp_mouse":[8,31,47,69,88,109,127,147,168,188,207,229,247,269,288,307,327,348,369,388,408,427,448,467,487,507,527,548,567,588,609,627,647,668,687,707,728,749,767,788,807,827,847,869,888,909,927,947,968,988,1008,1027,1048,1069,1088,1108,1128,1147,1169,1187,1207,1227,1247,1269,1288,1308,1327,1348,1368,1387,1408,1427,1447,1469,1488],"xSR":741.5,"ySR":573.95,"xT1":424.9,"yT1":0,"xT2":1058.1,"yT2":0,"toosoon":0,"cond_shown":"equaldotanddens","ratio_trial":500,"smaller_num":"1","larger_num":"2","correct_side":2,"subjID":"SilvanaPinedaDuran16","gender":"1","age":"11","school":"6"},{"start_time":1551881627992,"click_time":1551881629201,"finger_time":1551881628460,"fix_duration":270.1400933616109,"trial":71,"RT":468,"MT":741,"sideResp":1,"stimulus":"img/250/equaldotsize/L/1_Ratio_250_L_8_R_2.png","xmouse":[757,757,757,757,757,757,757,757,757,757,757,757,757,757,756,756,756,755,753,752,752,751,751,747,744,740,735,727,695,672,647,632,616,608,606,604,604,603,602,602,602,601,601,580,571,562,555,552,545,539,536,536,536,536,536,536,535,533,529,526,523],"ymouse":[594,594,594,594,594,594,594,594,594,594,594,594,594,594,594,594,593,591,586,583,581,579,577,561,547,526,493,422,253,156,82,35,0,0,0,0,0,0,0,0,0,0,0,20,30,39,47,50,55,55,55,55,55,55,55,55,55,54,49,46,45],"timestamp_mouse":[9,32,49,68,89,108,129,149,169,188,210,229,248,268,288,309,328,350,368,388,408,430,449,468,489,509,530,549,569,590,608,629,650,668,688,709,727,749,768,789,808,828,848,867,888,909,929,948,968,989,1009,1029,1048,1067,1088,1109,1128,1148,1168,1188,1209],"xSR":741.5,"ySR":573.95,"xT1":424.9,"yT1":0,"xT2":1058.1,"yT2":0,"toosoon":0,"cond_shown":"equaldotsize","ratio_trial":250,"smaller_num":"2","larger_num":"8","correct_side":1,"subjID":"SilvanaPinedaDuran16","gender":"1","age":"11","school":"6"},{"start_time":1551881631301,"click_time":1551881631900,"finger_time":1551881631760,"fix_duration":919.2652159422572,"trial":72,"RT":459,"MT":140,"sideResp":1,"stimulus":"img/250/equaldotanddens/L/7_Ratio_250_L_8_R_2.png","xmouse":[766,766,766,766,766,766,766,766,766,766,766,766,768,768,768,769,769,771,771,771,771,771,769,762,749,729,669,572,533,513],"ymouse":[605,605,605,605,605,605,605,605,605,605,602,601,600,599,598,596,594,590,589,588,587,586,573,551,506,428,274,113,63,28],"timestamp_mouse":[30,39,60,78,99,120,138,159,179,200,218,240,259,279,300,319,339,359,379,399,419,439,459,479,500,519,539,559,580,599],"xSR":741.5,"ySR":573.95,"xT1":424.9,"yT1":0,"xT2":1058.1,"yT2":0,"toosoon":0,"cond_shown":"equaldotanddens","ratio_trial":250,"smaller_num":"2","larger_num":"8","correct_side":1,"subjID":"SilvanaPinedaDuran16","gender":"1","age":"11","s