[{"start_time":1551793943384,"click_time":1551793951464,"finger_time":1551793943395,"fix_duration":1155.78819554994,"trial":0,"RT":11,"MT":8069,"sideResp":2,"stimulus":[],"xmouse":[922,922,922,922,922,922,922,922,922,922,922,922,922,922,922,922,922,922,922,922,922,922,922,922,922,922,922,922,922,922,922,922,922,922,922,922,922,922,922,922,922,922,922,922,922,922,922,922,922,819,744,662,539,512,501,493,487,451,366,309,244,202,162,157,157,157,157,157,159,159,159,159,159,159,159,159,159,159,159,159,159,159,159,159,159,158,156,155,148,137,131,127,113,108,108,108,108,108,108,108,108,108,108,108,108,108,108,150,168,181,193,204,223,232,241,249,253,255,257,257,260,260,260,260,260,260,260,260,260,260,260,260,260,260,260,260,260,260,260,260,260,260,260,260,260,260,260,260,260,260,260,260,260,260,260,260,260,260,260,260,260,260,260,260,260,260,260,260,260,260,260,260,260,260,260,260,260,260,260,260,260,260,260,260,260,261,274,294,295,295,295,295,290,250,219,205,198,205,213,215,215,209,207,207,207,207,215,245,289,314,330,342,355,359,359,348,328,279,257,252,252,252,252,251,251,251,251,249,249,249,249,249,249,249,249,249,249,248,248,249,262,285,370,427,479,530,566,600,601,601,601,601,601,601,601,601,601,601,601,601,601,539,532,532,532,532,532,563,585,599,603,604,605,605,605,606,606,607,611,618,626,635,645,645,646,646,647,661,670,687,707,726,749,753,756,759,762,788,798,810,811,811,811,811,811,811,811,811,811,811,811,811,811,812,812,812,811,810,809,809,809,809,809,809,809,808,807,805,804,804,804,804,804,804,804,804,804,803,801,800,799,799,799,799,799,799,799,799,799,799,799,799,799,799,799,799,799,799,799,799,799,799,799,799,799,799,799,799,804,810,816,837,885,910,925,934,934,934,934,934,934,934,934,934,934,934,934,941,958,972,980,984,985,985,985,985,985,985,988,992,997,1011,1042,1058,1069],"ymouse":[680,680,680,680,680,680,680,680,680,680,680,680,680,680,680,680,680,680,680,680,680,680,680,680,680,680,680,680,680,680,680,680,680,680,680,680,680,680,680,680,680,680,680,680,680,680,680,680,680,681,650,610,519,504,498,494,490,473,436,409,379,350,297,274,250,229,207,162,139,127,123,123,123,122,116,112,98,72,56,56,56,56,56,54,52,50,49,48,44,40,36,33,7,0,0,0,0,0,0,0,0,0,0,0,0,0,0,5,12,18,23,28,45,55,67,79,87,92,94,95,97,98,98,98,98,98,98,98,98,98,98,98,98,98,98,98,98,98,98,98,98,98,98,98,98,98,98,98,98,98,98,98,98,98,98,98,98,98,98,98,98,98,98,98,98,98,98,98,98,98,98,98,98,98,98,98,98,98,98,98,98,98,98,98,98,98,89,77,77,77,77,77,82,118,178,225,274,350,376,399,415,429,434,434,434,434,434,425,412,406,398,389,362,340,311,272,223,154,137,135,135,135,135,135,135,135,135,136,136,136,136,136,136,136,136,136,136,140,159,182,220,276,397,459,521,582,623,672,683,683,683,683,683,683,683,683,683,683,683,683,683,689,688,688,688,688,687,673,664,658,656,656,656,655,655,654,652,635,608,586,565,548,533,533,532,532,532,530,530,528,525,522,520,520,520,520,520,519,516,511,511,511,511,511,511,511,511,511,511,511,511,511,511,510,510,510,510,510,510,510,510,510,510,510,510,510,510,510,511,511,511,511,511,511,511,511,511,511,512,513,513,513,513,513,513,513,513,513,513,513,513,513,513,513,513,513,513,513,513,513,513,513,513,513,513,513,512,506,496,488,479,452,385,343,312,294,290,290,290,290,290,290,290,290,289,288,284,244,183,138,106,83,68,68,68,68,68,67,65,64,63,62,62,62,62],"timestamp_mouse":[11,20,40,61,80,100,121,140,160,180,201,220,240,261,280,301,319,340,360,380,401,421,440,461,480,499,521,540,559,581,600,621,640,661,680,700,720,740,761,779,800,819,841,861,880,900,921,939,960,979,1000,1020,1040,1060,1080,1101,1120,1141,1160,1181,1201,1220,1241,1260,1281,1300,1321,1340,1360,1381,1400,1420,1439,1461,1481,1500,1520,1540,1561,1581,1600,1620,1640,1659,1680,1700,1721,1739,1759,1780,1800,1820,1839,1860,1880,1900,1919,1940,1961,1980,2000,2021,2040,2061,2081,2101,2120,2139,2161,2180,2199,2220,2239,2260,2280,2300,2321,2340,2360,2380,2401,2419,2440,2459,2481,2500,2521,2540,2560,2581,2600,2621,2640,2661,2680,2700,2720,2740,2760,2780,2800,2820,2841,2860,2880,2901,2921,2940,2960,2980,3001,3020,3040,3061,3081,3099,3121,3141,3161,3181,3201,3221,3241,3260,3280,3300,3321,3340,3361,3380,3400,3419,3439,3459,3481,3501,3520,3541,3560,3580,3599,3620,3639,3659,3681,3700,3721,3740,3761,3781,3800,3820,3840,3860,3880,3900,3920,3940,3959,3981,4001,4020,4041,4060,4079,4100,4120,4140,4161,4181,4200,4220,4240,4260,4281,4300,4319,4340,4361,4381,4400,4421,4440,4460,4480,4500,4521,4541,4560,4580,4600,4620,4640,4660,4681,4700,4719,4739,4761,4780,4800,4820,4840,4861,4881,4901,4920,4939,4960,4981,5000,5021,5041,5060,5081,5100,5121,5140,5161,5180,5200,5220,5240,5260,5280,5300,5321,5339,5361,5379,5400,5421,5440,5460,5480,5500,5520,5539,5559,5581,5599,5621,5641,5660,5680,5700,5721,5740,5760,5781,5800,5819,5840,5861,5881,5901,5920,5939,5961,5980,5999,6020,6040,6060,6081,6101,6119,6140,6161,6180,6200,6220,6241,6260,6281,6299,6321,6340,6360,6380,6401,6420,6441,6460,6480,6501,6520,6540,6560,6580,6601,6620,6639,6661,6679,6701,6720,6740,6760,6780,6800,6820,6840,6861,6879,6899,6919,6941,6959,6980,7000,7020,7039,7061,7080,7100,7121,7141,7161,7181,7200,7220,7240,7260,7281,7301,7321,7340,7360,7380,7401,7420,7440,7459,7480,7500,7521,7541,7560,7581,7599,7619,7641,7661,7680,7700,7721,7739,7761,7780,7801,7820,7839,7860,7881,7900,7919,7940,7961,7979,8000,8020,8040,8060,8079],"xSR":741.5,"ySR":481,"xT1":424.9,"yT1":0,"xT2":1058.1,"yT2":0,"toosoon":0,"cond_shown":"Incongruent","ratio_trial":100,"L_num":6,"L_den":12,"R_num":3,"R_den":5,"correct_side":2,"subjID":"simoonacardenasvalbuena28","gender":"1","age":"11","school":"6","test":{"fix_dur":[250,1500],"timestim":1000,"targets_dim":[100,100],"targets_relative_coord":[0.3,0.7],"size_stim":[880,420],"start_dim":[100,100],"size_start":[300,300],"size_fix":60,"samplingrate":20,"img_types":["Congruent","Incongruent"],"ratios":[100,200,300],"rep_conds":19,"nTrials":120,"trials_to_rest":500,"Trials_order":[73,119,1,98,48,71,74,51,62,24,57,68,84,102,44,96,80,47,17,88,18,86,94,39,2,106,116,76,31,53,6,70,38,105,49,91,89,117,112,100,36,97,101,46,83,3,9,28,113,56,79,104,52,118,29,77,33,34,12,103,75,109,7,16,81,111,15,54,42,115,26,114,90,55,30,107,22,110,21,65,95,60,69,20,99,85,5,41,92,93,25,23,32,61,58,27,59,67,4,8,40,35,87,14,10,66,50,72,13,0,11,43,63,108,78,82,45,19,64,37],"cond_shown":["Incongruent","Incongruent","Incongruent","Congruent","Congruent","Incongruent","Congruent","Incongruent","Congruent","Congruent","Incongruent","Congruent","Congruent","Congruent","Congruent","Congruent","Congruent","Incongruent","Incongruent","Congruent","Congruent","Congruent","Congruent","Incongruent","Congruent","Congruent","Congruent","Congruent","Incongruent","Incongruent","Congruent","Congruent","Congruent","Incongruent","Incongruent","Incongruent","Incongruent","Incongruent","Congruent","Congruent","Congruent","Incongruent","Incongruent","Congruent","Incongruent","Incongruent","Incongruent","Congruent","Incongruent","Congruent","Incongruent","Congruent","Congruent","Congruent","Incongruent","Incongruent","Incongruent","Congruent","Congruent","Incongruent","Incongruent","Incongruent","Incongruent","Congruent","Incongruent","Incongruent","Incongruent","Congruent","Congruent","Incongruent","Congruent","Congruent","Congruent","Incongruent","Congruent","Incongruent","Congruent","Congruent","Incongruent","Incongruent","Incongruent","Congruent","Incongruent","Congruent","Incongruent","Incongruent","Incongruent","Incongruent","Congruent","Incongruent","Incongruent","Incongruent","Congruent","Incongruent","Congruent","Incongruent","Incongruent","Incongruent","Congruent","Congruent","Congruent","Incongruent","Incongruent","Congruent","Congruent","Congruent","Congruent","Congruent","Incongruent","Congruent","Incongruent","Incongruent","Incongruent","Congruent","Congruent","Congruent","Incongruent","Incongruent","Congruent","Incongruent"],"ratio_trial":[100,300,100,200,100,300,200,200,200,100,200,200,100,100,200,100,200,300,300,300,100,200,300,200,200,300,200,300,100,300,100,300,200,200,100,100,300,200,300,300,100,100,300,300,300,200,200,300,300,200,100,200,300,300,300,300,200,300,100,100,200,100,100,300,200,200,200,100,100,100,200,100,100,100,100,300,300,200,200,300,300,100,200,200,200,100,300,300,200,200,100,300,200,100,300,200,300,100,300,200,300,300,200,200,300,100,200,100,100,100,300,100,200,100,100,300,200,100,300,100],"left_num":[6,4,12,6,4,2,3,1,8,7,4,4,1,7,16,6,7,1,4,20,2,4,2,14,3,1,8,20,2,13,4,2,4,11,12,3,7,7,4,2,1,2,1,1,3,14,14,1,7,13,12,15,1,4,8,13,1,7,11,2,7,6,4,8,7,11,7,10,12,2,15,7,6,1,9,4,1,6,4,13,13,3,3,11,7,8,4,4,21,11,4,13,3,9,4,7,13,2,4,8,11,4,3,6,11,9,3,7,9,2,13,10,6,7,11,20,4,13,7,6],"right_num":[3,8,2,3,15,6,11,2,3,15,6,3,18,9,12,15,2,3,2,5,6,3,12,6,14,19,3,13,8,12,6,12,3,3,9,7,8,8,1,10,3,6,2,7,4,12,6,8,8,14,2,4,7,13,9,12,3,20,4,6,12,11,8,1,8,3,8,3,13,8,4,15,15,8,8,6,6,7,14,12,12,4,11,3,14,6,2,8,2,3,8,12,9,20,2,6,12,8,13,3,2,2,11,3,1,8,7,15,13,6,12,9,3,15,6,13,1,6,20,3],"left_den":[12,5,30,15,10,4,10,3,15,14,5,10,2,14,20,12,21,2,20,25,5,10,10,30,10,3,15,25,4,26,8,10,10,20,24,9,10,10,10,20,2,4,2,20,6,30,30,30,10,26,30,25,20,20,10,26,2,14,22,4,10,10,8,16,10,20,10,25,30,4,25,14,12,2,15,5,5,12,6,26,26,20,4,22,10,16,20,5,30,20,8,26,12,10,5,15,26,4,20,15,22,20,4,15,22,15,10,14,15,5,26,25,20,14,22,25,30,26,14,12],"right_den":[5,16,4,15,30,30,22,15,9,25,10,15,30,15,20,25,15,15,4,10,12,15,24,9,28,30,9,26,20,15,10,24,15,4,15,30,20,16,10,25,5,15,10,20,20,18,9,24,20,20,4,10,20,26,18,15,10,25,10,15,24,22,20,5,16,4,16,10,26,20,10,25,25,20,16,12,12,10,30,15,15,16,20,10,28,10,4,16,4,4,20,15,20,25,4,9,15,20,26,9,10,4,20,15,5,16,14,25,26,12,15,18,6,25,15,26,3,10,25,5],"correct_side":[2,1,2,1,2,1,2,1,1,2,1,1,2,2,1,2,1,1,2,1,2,1,2,2,2,2,1,1,1,2,2,2,1,2,2,1,1,1,1,2,2,1,1,2,1,2,2,2,1,2,2,1,2,2,1,2,1,2,1,1,1,1,1,1,1,2,1,1,2,1,1,2,2,1,1,1,2,2,1,2,2,2,1,1,1,2,2,1,1,2,1,2,2,1,1,2,2,1,2,1,1,2,1,1,1,1,2,2,1,2,2,2,2,2,1,1,2,2,2,2],"img_shown":["img2/100/Incongruent/R/I_Dist_100_LN_6_LD_12_RN_3_RD_5_1.png","img2/300/Incongruent/L/I_Dist_300_LN_4_LD_5_RN_8_RD_16_0.png","img2/100/Incongruent/R/I_Dist_100_LN_12_LD_30_RN_2_RD_4_1.png","img2/200/Congruent/L/C_Dist_200_LN_6_LD_15_RN_3_RD_15_0.png","img2/100/Congruent/R/C_Dist_100_LN_4_LD_10_RN_15_RD_30_1.png","img2/300/Incongruent/L/I_Dist_300_LN_2_LD_4_RN_6_RD_30_0.png","img2/200/Congruent/R/C_Dist_200_LN_3_LD_10_RN_11_RD_22_1.png","img2/200/Incongruent/L/I_Dist_200_LN_1_LD_3_RN_2_RD_15_0.png","img2/200/Congruent/L/C_Dist_200_LN_8_LD_15_RN_3_RD_9_0.png","img2/100/Congruent/R/C_Dist_100_LN_7_LD_14_RN_15_RD_25_1.png","img2/200/Incongruent/L/I_Dist_200_LN_4_LD_5_RN_6_RD_10_0.png","img2/200/Congruent/L/C_Dist_200_LN_4_LD_10_RN_3_RD_15_0.png","img2/100/Congruent/R/C_Dist_100_LN_1_LD_2_RN_18_RD_30_1.png","img2/100/Congruent/R/C_Dist_100_LN_7_LD_14_RN_9_RD_15_1.png","img2/200/Congruent/L/C_Dist_200_LN_16_LD_20_RN_12_RD_20_0.png","img2/100/Congruent/R/C_Dist_100_LN_6_LD_12_RN_15_RD_25_1.png","img2/200/Congruent/L/C_Dist_200_LN_7_LD_21_RN_2_RD_15_0.png","img2/300/Incongruent/L/I_Dist_300_LN_1_LD_2_RN_3_RD_15_0.png","img2/300/Incongruent/R/I_Dist_300_LN_4_LD_20_RN_2_RD_4_1.png","img2/300/Congruent/L/C_Dist_300_LN_20_LD_25_RN_5_RD_10_0.png","img2/100/Congruent/R/C_Dist_100_LN_2_LD_5_RN_6_RD_12_1.png","img2/200/Congruent/L/C_Dist_200_LN_4_LD_10_RN_3_RD_15_0.png","img2/300/Congruent/R/C_Dist_300_LN_2_LD_10_RN_12_RD_24_1.png","img2/200/Incongruent/R/I_Dist_200_LN_14_LD_30_RN_6_RD_9_1.png","img2/200/Congruent/R/C_Dist_200_LN_3_LD_10_RN_14_RD_28_1.png","img2/300/Congruent/R/C_Dist_300_LN_1_LD_3_RN_19_RD_30_1.png","img2/200/Congruent/L/C_Dist_200_LN_8_LD_15_RN_3_RD_9_0.png","img2/300/Congruent/L/C_Dist_300_LN_20_LD_25_RN_13_RD_26_0.png","img2/100/Incongruent/L/I_Dist_100_LN_2_LD_4_RN_8_RD_20_0.png","img2/300/Incongruent/R/I_Dist_300_LN_13_LD_26_RN_12_RD_15_1.png","img2/100/Congruent/R/C_Dist_100_LN_4_LD_8_RN_6_RD_10_1.png","img2/300/Congruent/R/C_Dist_300_LN_2_LD_10_RN_12_RD_24_1.png","img2/200/Congruent/L/C_Dist_200_LN_4_LD_10_RN_3_RD_15_0.png","img2/200/Incongruent/R/I_Dist_200_LN_11_LD_20_RN_3_RD_4_1.png","img2/100/Incongruent/R/I_Dist_100_LN_12_LD_24_RN_9_RD_15_1.png","img2/100/Incongruent/L/I_Dist_100_LN_3_LD_9_RN_7_RD_30_0.png","img2/300/Incongruent/L/I_Dist_300_LN_7_LD_10_RN_8_RD_20_0.png","img2/200/Incongruent/L/I_Dist_200_LN_7_LD_10_RN_8_RD_16_0.png","img2/300/Congruent/L/C_Dist_300_LN_4_LD_10_RN_1_RD_10_0.png","img2/300/Congruent/R/C_Dist_300_LN_2_LD_20_RN_10_RD_25_1.png","img2/100/Congruent/R/C_Dist_100_LN_1_LD_2_RN_3_RD_5_1.png","img2/100/Incongruent/L/I_Dist_100_LN_2_LD_4_RN_6_RD_15_0.png","img2/300/Incongruent/L/I_Dist_300_LN_1_LD_2_RN_2_RD_10_0.png","img2/300/Congruent/R/C_Dist_300_LN_1_LD_20_RN_7_RD_20_1.png","img2/300/Incongruent/L/I_Dist_300_LN_3_LD_6_RN_4_RD_20_0.png","img2/200/Incongruent/R/I_Dist_200_LN_14_LD_30_RN_12_RD_18_1.png","img2/200/Incongruent/R/I_Dist_200_LN_14_LD_30_RN_6_RD_9_1.png","img2/300/Congruent/R/C_Dist_300_LN_1_LD_30_RN_8_RD_24_1.png","img2/300/Incongruent/L/I_Dist_300_LN_7_LD_10_RN_8_RD_20_0.png","img2/200/Congruent/R/C_Dist_200_LN_13_LD_26_RN_14_RD_20_1.png","img2/100/Incongruent/R/I_Dist_100_LN_12_LD_30_RN_2_RD_4_1.png","img2/200/Congruent/L/C_Dist_200_LN_15_LD_25_RN_4_RD_10_0.png","img2/300/Congruent/R/C_Dist_300_LN_1_LD_20_RN_7_RD_20_1.png","img2/300/Congruent/R/C_Dist_300_LN_4_LD_20_RN_13_RD_26_1.png","img2/300/Incongruent/L/I_Dist_300_LN_8_LD_10_RN_9_RD_18_0.png","img2/300/Incongruent/R/I_Dist_300_LN_13_LD_26_RN_12_RD_15_1.png","img2/200/Incongruent/L/I_Dist_200_LN_1_LD_2_RN_3_RD_10_0.png","img2/300/Congruent/R/C_Dist_300_LN_7_LD_14_RN_20_RD_25_1.png","img2/100/Congruent/L/C_Dist_100_LN_11_LD_22_RN_4_RD_10_0.png","img2/100/Incongruent/L/I_Dist_100_LN_2_LD_4_RN_6_RD_15_0.png","img2/200/Incongruent/L/I_Dist_200_LN_7_LD_10_RN_12_RD_24_0.png","img2/100/Incongruent/L/I_Dist_100_LN_6_LD_10_RN_11_RD_22_0.png","img2/100/Incongruent/L/I_Dist_100_LN_4_LD_8_RN_8_RD_20_0.png","img2/300/Congruent/L/C_Dist_300_LN_8_LD_16_RN_1_RD_5_0.png","img2/200/Incongruent/L/I_Dist_200_LN_7_LD_10_RN_8_RD_16_0.png","img2/200/Incongruent/R/I_Dist_200_LN_11_LD_20_RN_3_RD_4_1.png","img2/200/Incongruent/L/I_Dist_200_LN_7_LD_10_RN_8_RD_16_0.png","img2/100/Congruent/L/C_Dist_100_LN_10_LD_25_RN_3_RD_10_0.png","img2/100/Congruent/R/C_Dist_100_LN_12_LD_30_RN_13_RD_26_1.png","img2/100/Incongruent/L/I_Dist_100_LN_2_LD_4_RN_8_RD_20_0.png","img2/200/Congruent/L/C_Dist_200_LN_15_LD_25_RN_4_RD_10_0.png","img2/100/Congruent/R/C_Dist_100_LN_7_LD_14_RN_15_RD_25_1.png","img2/100/Congruent/R/C_Dist_100_LN_6_LD_12_RN_15_RD_25_1.png","img2/100/Incongruent/L/I_Dist_100_LN_1_LD_2_RN_8_RD_20_0.png","img2/100/Congruent/L/C_Dist_100_LN_9_LD_15_RN_8_RD_16_0.png","img2/300/Incongruent/L/I_Dist_300_LN_4_LD_5_RN_6_RD_12_0.png","img2/300/Congruent/R/C_Dist_300_LN_1_LD_5_RN_6_RD_12_1.png","img2/200/Congruent/R/C_Dist_200_LN_6_LD_12_RN_7_RD_10_1.png","img2/200/Incongruent/L/I_Dist_200_LN_4_LD_6_RN_14_RD_30_0.png","img2/300/Incongruent/R/I_Dist_300_LN_13_LD_26_RN_12_RD_15_1.png","img2/300/Incongruent/R/I_Dist_300_LN_13_LD_26_RN_12_RD_15_1.png","img2/100/Congruent/R/C_Dist_100_LN_3_LD_20_RN_4_RD_16_1.png","img2/200/Incongruent/L/I_Dist_200_LN_3_LD_4_RN_11_RD_20_0.png","img2/200/Congruent/L/C_Dist_200_LN_11_LD_22_RN_3_RD_10_0.png","img2/200/Incongruent/L/I_Dist_200_LN_7_LD_10_RN_14_RD_28_0.png","img2/100/Incongruent/R/I_Dist_100_LN_8_LD_16_RN_6_RD_10_1.png","img2/300/Incongruent/R/I_Dist_300_LN_4_LD_20_RN_2_RD_4_1.png","img2/300/Incongruent/L/I_Dist_300_LN_4_LD_5_RN_8_RD_16_0.png","img2/200/Congruent/L/C_Dist_200_LN_21_LD_30_RN_2_RD_4_0.png","img2/200/Incongruent/R/I_Dist_200_LN_11_LD_20_RN_3_RD_4_1.png","img2/100/Incongruent/L/I_Dist_100_LN_4_LD_8_RN_8_RD_20_0.png","img2/300/Incongruent/R/I_Dist_300_LN_13_LD_26_RN_12_RD_15_1.png","img2/200/Congruent/R/C_Dist_200_LN_3_LD_12_RN_9_RD_20_1.png","img2/100/Incongruent/L/I_Dist_100_LN_9_LD_10_RN_20_RD_25_0.png","img2/300/Congruent/L/C_Dist_300_LN_4_LD_5_RN_2_RD_4_0.png","img2/200/Incongruent/R/I_Dist_200_LN_7_LD_15_RN_6_RD_9_1.png","img2/300/Incongruent/R/I_Dist_300_LN_13_LD_26_RN_12_RD_15_1.png","img2/100/Incongruent/L/I_Dist_100_LN_2_LD_4_RN_8_RD_20_0.png","img2/300/Congruent/R/C_Dist_300_LN_4_LD_20_RN_13_RD_26_1.png","img2/200/Congruent/L/C_Dist_200_LN_8_LD_15_RN_3_RD_9_0.png","img2/300/Congruent/L/C_Dist_300_LN_11_LD_22_RN_2_RD_10_0.png","img2/300/Incongruent/R/I_Dist_300_LN_4_LD_20_RN_2_RD_4_1.png","img2/200/Incongruent/L/I_Dist_200_LN_3_LD_4_RN_11_RD_20_0.png","img2/200/Congruent/L/C_Dist_200_LN_6_LD_15_RN_3_RD_15_0.png","img2/300/Congruent/L/C_Dist_300_LN_11_LD_22_RN_1_RD_5_0.png","img2/100/Congruent/L/C_Dist_100_LN_9_LD_15_RN_8_RD_16_0.png","img2/200/Congruent/R/C_Dist_200_LN_3_LD_10_RN_7_RD_14_1.png","img2/100/Congruent/R/C_Dist_100_LN_7_LD_14_RN_15_RD_25_1.png","img2/100/Incongruent/L/I_Dist_100_LN_9_LD_15_RN_13_RD_26_0.png","img2/100/Congruent/R/C_Dist_100_LN_2_LD_5_RN_6_RD_12_1.png","img2/300/Incongruent/R/I_Dist_300_LN_13_LD_26_RN_12_RD_15_1.png","img2/100/Incongruent/R/I_Dist_100_LN_10_LD_25_RN_9_RD_18_1.png","img2/200/Incongruent/R/I_Dist_200_LN_6_LD_20_RN_3_RD_6_1.png","img2/100/Congruent/R/C_Dist_100_LN_7_LD_14_RN_15_RD_25_1.png","img2/100/Congruent/L/C_Dist_100_LN_11_LD_22_RN_6_RD_15_0.png","img2/300/Congruent/L/C_Dist_300_LN_20_LD_25_RN_13_RD_26_0.png","img2/200/Incongruent/R/I_Dist_200_LN_4_LD_30_RN_1_RD_3_1.png","img2/100/Incongruent/R/I_Dist_100_LN_13_LD_26_RN_6_RD_10_1.png","img2/300/Congruent/R/C_Dist_300_LN_7_LD_14_RN_20_RD_25_1.png","img2/100/Incongruent/R/I_Dist_100_LN_6_LD_12_RN_3_RD_5_1.png"],"dist100_C":[["C_Dist_100_LN_10_LD_25_RN_3_RD_10_0.png","C_Dist_100_LN_11_LD_22_RN_4_RD_10_0.png","C_Dist_100_LN_11_LD_22_RN_6_RD_15_0.png","C_Dist_100_LN_15_LD_25_RN_13_RD_26_0.png","C_Dist_100_LN_3_LD_6_RN_2_RD_5_0.png","C_Dist_100_LN_6_LD_20_RN_5_RD_25_0.png","C_Dist_100_LN_8_LD_16_RN_2_RD_5_0.png","C_Dist_100_LN_9_LD_15_RN_8_RD_16_0.png"],["C_Dist_100_LN_1_LD_2_RN_18_RD_30_1.png","C_Dist_100_LN_1_LD_2_RN_3_RD_5_1.png","C_Dist_100_LN_12_LD_30_RN_13_RD_26_1.png","C_Dist_100_LN_2_LD_5_RN_11_RD_22_1.png","C_Dist_100_LN_2_LD_5_RN_6_RD_12_1.png","C_Dist_100_LN_3_LD_20_RN_4_RD_16_1.png","C_Dist_100_LN_4_LD_10_RN_15_RD_30_1.png","C_Dist_100_LN_4_LD_8_RN_6_RD_10_1.png","C_Dist_100_LN_6_LD_12_RN_15_RD_25_1.png","C_Dist_100_LN_7_LD_14_RN_15_RD_25_1.png","C_Dist_100_LN_7_LD_14_RN_9_RD_15_1.png"]],"dist100_I":[["I_Dist_100_LN_1_LD_2_RN_8_RD_20_0.png","I_Dist_100_LN_2_LD_4_RN_6_RD_15_0.png","I_Dist_100_LN_2_LD_4_RN_8_RD_20_0.png","I_Dist_100_LN_3_LD_5_RN_11_RD_22_0.png","I_Dist_100_LN_3_LD_5_RN_8_RD_16_0.png","I_Dist_100_LN_3_LD_6_RN_4_RD_10_0.png","I_Dist_100_LN_3_LD_9_RN_7_RD_30_0.png","I_Dist_100_LN_4_LD_8_RN_8_RD_20_0.png","I_Dist_100_LN_6_LD_10_RN_11_RD_22_0.png","I_Dist_100_LN_6_LD_10_RN_13_RD_26_0.png","I_Dist_100_LN_6_LD_10_RN_7_RD_14_0.png","I_Dist_100_LN_9_LD_10_RN_20_RD_25_0.png","I_Dist_100_LN_9_LD_15_RN_13_RD_26_0.png","I_Dist_100_LN_9_LD_15_RN_14_RD_28_0.png"],["I_Dist_100_LN_10_LD_25_RN_8_RD_16_1.png","I_Dist_100_LN_10_LD_25_RN_9_RD_18_1.png","I_Dist_100_LN_11_LD_22_RN_9_RD_15_1.png","I_Dist_100_LN_12_LD_24_RN_9_RD_15_1.png","I_Dist_100_LN_12_LD_30_RN_2_RD_4_1.png","I_Dist_100_LN_13_LD_26_RN_12_RD_20_1.png","I_Dist_100_LN_13_LD_26_RN_6_RD_10_1.png","I_Dist_100_LN_17_LD_30_RN_10_RD_15_1.png","I_Dist_100_LN_6_LD_12_RN_3_RD_5_1.png","I_Dist_100_LN_8_LD_16_RN_6_RD_10_1.png","I_Dist_100_LN_8_LD_20_RN_1_RD_2_1.png","I_Dist_100_LN_9_LD_18_RN_6_RD_10_1.png"]],"dist100_S":[["E_Dist_100_LN_2_LD_12_RN_2_RD_30_0.png","E_Dist_100_LN_6_LD_10_RN_6_RD_12_0.png"],["E_Dist_100_LN_6_LD_12_RN_6_RD_10_1.png"]],"dist200_C":[["C_Dist_200_LN_11_LD_22_RN_3_RD_10_0.png","C_Dist_200_LN_12_LD_15_RN_6_RD_10_0.png","C_Dist_200_LN_12_LD_20_RN_6_RD_15_0.png","C_Dist_200_LN_14_LD_28_RN_6_RD_20_0.png","C_Dist_200_LN_15_LD_25_RN_4_RD_10_0.png","C_Dist_200_LN_16_LD_20_RN_12_RD_20_0.png","C_Dist_200_LN_16_LD_30_RN_9_RD_27_0.png","C_Dist_200_LN_20_LD_25_RN_9_RD_15_0.png","C_Dist_200_LN_21_LD_30_RN_2_RD_4_0.png","C_Dist_200_LN_4_LD_10_RN_3_RD_15_0.png","C_Dist_200_LN_4_LD_8_RN_3_RD_10_0.png","C_Dist_200_LN_6_LD_15_RN_3_RD_15_0.png","C_Dist_200_LN_7_LD_21_RN_2_RD_15_0.png","C_Dist_200_LN_8_LD_15_RN_2_RD_6_0.png","C_Dist_200_LN_8_LD_15_RN_3_RD_9_0.png","C_Dist_200_LN_8_LD_15_RN_7_RD_21_0.png","C_Dist_200_LN_9_LD_20_RN_4_RD_16_0.png"],["C_Dist_200_LN_1_LD_2_RN_21_RD_30_1.png","C_Dist_200_LN_13_LD_26_RN_14_RD_20_1.png","C_Dist_200_LN_3_LD_10_RN_11_RD_22_1.png","C_Dist_200_LN_3_LD_10_RN_14_RD_28_1.png","C_Dist_200_LN_3_LD_10_RN_7_RD_14_1.png","C_Dist_200_LN_3_LD_12_RN_9_RD_20_1.png","C_Dist_200_LN_3_LD_6_RN_14_RD_20_1.png","C_Dist_200_LN_5_LD_10_RN_14_RD_20_1.png","C_Dist_200_LN_6_LD_12_RN_7_RD_10_1.png","C_Dist_200_LN_6_LD_20_RN_11_RD_22_1.png","C_Dist_200_LN_7_LD_15_RN_18_RD_27_1.png","C_Dist_200_LN_9_LD_30_RN_13_RD_26_1.png"]],"dist200_I":[["I_Dist_200_LN_1_LD_2_RN_3_RD_10_0.png","I_Dist_200_LN_1_LD_3_RN_2_RD_15_0.png","I_Dist_200_LN_3_LD_4_RN_11_RD_20_0.png","I_Dist_200_LN_4_LD_5_RN_6_RD_10_0.png","I_Dist_200_LN_4_LD_6_RN_14_RD_30_0.png","I_Dist_200_LN_7_LD_10_RN_12_RD_24_0.png","I_Dist_200_LN_7_LD_10_RN_14_RD_28_0.png","I_Dist_200_LN_7_LD_10_RN_8_RD_16_0.png"],["I_Dist_200_LN_11_LD_20_RN_3_RD_4_1.png","I_Dist_200_LN_14_LD_30_RN_12_RD_18_1.png","I_Dist_200_LN_14_LD_30_RN_6_RD_9_1.png","I_Dist_200_LN_3_LD_10_RN_1_RD_2_1.png","I_Dist_200_LN_4_LD_30_RN_1_RD_3_1.png","I_Dist_200_LN_6_LD_20_RN_3_RD_6_1.png","I_Dist_200_LN_7_LD_15_RN_4_RD_6_1.png","I_Dist_200_LN_7_LD_15_RN_6_RD_9_1.png","I_Dist_200_LN_9_LD_15_RN_8_RD_10_1.png"]],"dist200_S":[["E_Dist_200_LN_3_LD_6_RN_3_RD_10_0.png"],["E_Dist_200_LN_3_LD_10_RN_3_RD_6_1.png"]],"dist300_C":[["C_Dist_300_LN_11_LD_22_RN_1_RD_5_0.png","C_Dist_300_LN_11_LD_22_RN_2_RD_10_0.png","C_Dist_300_LN_11_LD_22_RN_4_RD_20_0.png","C_Dist_300_LN_12_LD_24_RN_2_RD_10_0.png","C_Dist_300_LN_18_LD_20_RN_9_RD_15_0.png","C_Dist_300_LN_20_LD_25_RN_13_RD_26_0.png","C_Dist_300_LN_20_LD_25_RN_14_RD_28_0.png","C_Dist_300_LN_20_LD_25_RN_5_RD_10_0.png","C_Dist_300_LN_20_LD_25_RN_8_RD_16_0.png","C_Dist_300_LN_20_LD_25_RN_9_RD_18_0.png","C_Dist_300_LN_24_LD_30_RN_2_RD_4_0.png","C_Dist_300_LN_24_LD_30_RN_8_RD_16_0.png","C_Dist_300_LN_3_LD_6_RN_2_RD_10_0.png","C_Dist_300_LN_4_LD_10_RN_1_RD_10_0.png","C_Dist_300_LN_4_LD_5_RN_2_RD_4_0.png","C_Dist_300_LN_8_LD_16_RN_1_RD_5_0.png","C_Dist_300_LN_9_LD_10_RN_3_RD_5_0.png"],["C_Dist_300_LN_1_LD_20_RN_7_RD_20_1.png","C_Dist_300_LN_1_LD_3_RN_19_RD_30_1.png","C_Dist_300_LN_1_LD_30_RN_8_RD_24_1.png","C_Dist_300_LN_1_LD_5_RN_11_RD_22_1.png","C_Dist_300_LN_1_LD_5_RN_3_RD_6_1.png","C_Dist_300_LN_1_LD_5_RN_6_RD_12_1.png","C_Dist_300_LN_2_LD_10_RN_12_RD_24_1.png","C_Dist_300_LN_2_LD_20_RN_10_RD_25_1.png","C_Dist_300_LN_3_LD_12_RN_11_RD_20_1.png","C_Dist_300_LN_3_LD_6_RN_4_RD_5_1.png","C_Dist_300_LN_4_LD_20_RN_13_RD_26_1.png","C_Dist_300_LN_5_LD_25_RN_6_RD_12_1.png","C_Dist_300_LN_5_LD_25_RN_7_RD_14_1.png","C_Dist_300_LN_7_LD_14_RN_20_RD_25_1.png","C_Dist_300_LN_8_LD_15_RN_10_RD_12_1.png"]],"dist300_I":[["I_Dist_300_LN_1_LD_2_RN_2_RD_10_0.png","I_Dist_300_LN_1_LD_2_RN_3_RD_15_0.png","I_Dist_300_LN_2_LD_4_RN_6_RD_30_0.png","I_Dist_300_LN_3_LD_6_RN_4_RD_20_0.png","I_Dist_300_LN_4_LD_5_RN_6_RD_12_0.png","I_Dist_300_LN_4_LD_5_RN_8_RD_16_0.png","I_Dist_300_LN_7_LD_10_RN_8_RD_20_0.png","I_Dist_300_LN_8_LD_10_RN_14_RD_28_0.png","I_Dist_300_LN_8_LD_10_RN_9_RD_18_0.png"],["I_Dist_300_LN_13_LD_26_RN_12_RD_15_1.png","I_Dist_300_LN_4_LD_20_RN_2_RD_4_1.png"]],"dist300_S":[["E_Dist_300_LN_9_LD_12_RN_9_RD_20_0.png"],["E_Dist_300_LN_18_LD_30_RN_18_RD_20_1.png","E_Dist_300_LN_3_LD_10_RN_3_RD_5_1.png","E_Dist_300_LN_9_LD_20_RN_9_RD_12_1.png"]],"dist500_C":[["C_Dist_500_LN_10_LD_13_RN_7_RD_26_0.png","C_Dist_500_LN_10_LD_15_RN_4_RD_24_0.png","C_Dist_500_LN_12_LD_16_RN_3_RD_12_0.png","C_Dist_500_LN_12_LD_18_RN_4_RD_24_0.png","C_Dist_500_LN_15_LD_18_RN_5_RD_15_0.png","C_Dist_500_LN_15_LD_20_RN_1_RD_4_0.png","C_Dist_500_LN_18_LD_27_RN_1_RD_6_0.png","C_Dist_500_LN_20_LD_24_RN_1_RD_3_0.png","C_Dist_500_LN_20_LD_24_RN_3_RD_9_0.png","C_Dist_500_LN_20_LD_24_RN_7_RD_21_0.png","C_Dist_500_LN_20_LD_28_RN_3_RD_14_0.png","C_Dist_500_LN_21_LD_28_RN_6_RD_24_0.png","C_Dist_500_LN_22_LD_28_RN_2_RD_7_0.png","C_Dist_500_LN_25_LD_30_RN_9_RD_27_0.png","C_Dist_500_LN_4_LD_6_RN_1_RD_6_0.png","C_Dist_500_LN_5_LD_6_RN_2_RD_6_0.png","C_Dist_500_LN_6_LD_9_RN_1_RD_6_0.png","C_Dist_500_LN_7_LD_10_RN_1_RD_5_0.png","C_Dist_500_LN_8_LD_12_RN_1_RD_6_0.png","C_Dist_500_LN_8_LD_12_RN_4_RD_24_0.png"],["C_Dist_500_LN_1_LD_4_RN_12_RD_16_1.png","C_Dist_500_LN_1_LD_4_RN_9_RD_12_1.png","C_Dist_500_LN_1_LD_9_RN_11_RD_18_1.png","C_Dist_500_LN_10_LD_24_RN_22_RD_24_1.png","C_Dist_500_LN_2_LD_12_RN_10_RD_15_1.png","C_Dist_500_LN_2_LD_12_RN_12_RD_18_1.png","C_Dist_500_LN_2_LD_12_RN_4_RD_6_1.png","C_Dist_500_LN_2_LD_24_RN_7_RD_12_1.png","C_Dist_500_LN_2_LD_5_RN_18_RD_20_1.png","C_Dist_500_LN_2_LD_5_RN_9_RD_10_1.png","C_Dist_500_LN_2_LD_8_RN_12_RD_16_1.png","C_Dist_500_LN_2_LD_8_RN_21_RD_28_1.png","C_Dist_500_LN_3_LD_10_RN_4_RD_5_1.png","C_Dist_500_LN_3_LD_12_RN_15_RD_20_1.png","C_Dist_500_LN_3_LD_30_RN_6_RD_10_1.png","C_Dist_500_LN_3_LD_8_RN_14_RD_16_1.png","C_Dist_500_LN_4_LD_16_RN_15_RD_20_1.png","C_Dist_500_LN_4_LD_24_RN_12_RD_18_1.png","C_Dist_500_LN_5_LD_14_RN_6_RD_7_1.png","C_Dist_500_LN_7_LD_21_RN_20_RD_24_1.png","C_Dist_500_LN_7_LD_28_RN_12_RD_16_1.png","C_Dist_500_LN_7_LD_28_RN_9_RD_12_1.png","C_Dist_500_LN_9_LD_27_RN_20_RD_24_1.png"]],"dist500_I":[["I_Dist_500_LN_2_LD_3_RN_4_RD_24_0.png","I_Dist_500_LN_5_LD_6_RN_6_RD_18_0.png","I_Dist_500_LN_7_LD_8_RN_9_RD_24_0.png"],["I_Dist_500_LN_7_LD_21_RN_5_RD_6_1.png"]],"dist500_S":[["E_Dist_500_LN_6_LD_8_RN_6_RD_24_0.png"],["E_Dist_500_LN_2_LD_12_RN_2_RD_3_1.png","E_Dist_500_LN_6_LD_24_RN_6_RD_8_1.png"]]}},{"start_time":1551793953310,"click_time":1551793954384,"finger_time":1551793954064,"fix_duration":763.3164279616852,"trial":1,"RT":754,"MT":320,"sideResp":1,"stimulus":[],"xmouse":[788,788,788,788,788,788,788,788,788,788,788,788,788,788,788,788,788,788,788,788,788,788,788,788,788,788,788,788,788,788,788,788,788,788,788,785,779,769,753,735,708,699,688,678,665,651,642,633,623,608,573,547,530,514],"ymouse":[487,487,487,487,487,487,487,487,487,487,487,487,487,487,487,487,487,487,487,487,487,487,487,487,487,487,487,487,487,487,487,487,487,487,487,480,467,443,411,375,290,260,222,184,142,92,70,56,48,44,41,42,45,50],"timestamp_mouse":[15,34,72,74,94,113,133,154,175,194,213,235,254,273,294,315,334,354,374,395,414,435,454,474,493,513,534,555,574,595,615,634,654,675,695,714,733,754,774,795,814,835,854,874,894,914,933,954,974,994,1015,1035,1054,1074],"xSR":741.5,"ySR":449.15000000000003,"xT1":424.9,"yT1":0,"xT2":1058.1,"yT2":0,"toosoon":0,"cond_shown":"Incongruent","ratio_trial":300,"L_num":4,"L_den":5,"R_num":8,"R_den":16,"correct_side":1,"subjID":"simoonacardenasvalbuena28","gender":"1","school":"6","age":"11"},{"start_time":1551793957157,"click_time":1551793958364,"finger_time":1551793957903,"fix_duration":1490.0906188153224,"trial":2,"RT":746,"MT":461,"sideResp":2,"stimulus":[],"xmouse":[799,799,799,799,799,799,799,798,796,796,796,796,796,796,796,796,796,796,796,796,796,796,796,796,796,796,795,795,795,795,795,795,794,794,793,791,790,790,791,794,804,818,830,856,872,889,901,908,909,909,909,909,909,912,916,923,933,950,1001,1053,1074],"ymouse":[484,484,484,484,484,484,484,483,483,483,483,483,483,483,483,483,483,483,483,483,483,483,483,483,483,483,482,482,482,482,482,482,482,481,478,475,461,442,385,325,283,248,219,172,154,141,133,130,129,129,129,129,129,128,127,126,124,120,102,77,63],"timestamp_mouse":[8,28,47,67,86,108,127,148,167,187,207,228,248,266,287,307,328,347,367,388,406,428,448,468,488,507,527,547,567,587,608,627,647,667,687,707,727,746,766,787,807,828,847,867,887,907,927,947,967,986,1006,1027,1047,1068,1087,1108,1127,1146,1168,1187,1207],"xSR":741.5,"ySR":449.15000000000003,"xT1":424.9,"yT1":0,"xT2":1058.1,"yT2":0,"toosoon":0,"cond_shown":"Incongruent","ratio_trial":100,"L_num":12,"L_den":30,"R_num":2,"R_den":4,"correct_side":2,"subjID":"simoonacardenasvalbuena28","gender":"1","school":"6","age":"11"},{"start_time":1551793960160,"click_time":1551793961305,"finger_time":1551793960843,"fix_duration":533.2796846314102,"trial":3,"RT":683,"MT":462,"sideResp":1,"stimulus":[],"xmouse":[774,774,774,774,774,774,774,774,774,774,774,774,774,774,774,774,774,774,774,774,774,774,774,774,774,774,774,774,774,774,774,773,765,751,741,729,717,695,641,609,596,590,582,548,537,537,537,537,537,537,537,537,537,537,537,537,537,456],"ymouse":[509,509,509,509,509,509,509,509,509,509,509,509,509,509,509,509,509,509,509,509,509,509,509,509,509,509,509,509,509,509,509,508,498,481,469,453,427,390,295,218,182,152,128,40,16,16,16,16,16,16,16,16,16,16,16,16,16,2],"timestamp_mouse":[8,35,44,65,84,105,125,144,165,184,204,223,245,265,285,303,324,343,363,385,403,424,444,464,483,505,524,544,564,584,605,625,644,664,683,704,723,745,763,784,804,825,844,863,883,904,925,944,964,984,1004,1025,1045,1064,1085,1104,1124,1145],"xSR":741.5,"ySR":449.15000000000003,"xT1":424.9,"yT1":0,"xT2":1058.1,"yT2":0,"toosoon":0,"cond_shown":"Congruent","ratio_trial":200,"L_num":6,"L_den":15,"R_num":3,"R_den":15,"correct_side":1,"subjID":"simoonacardenasvalbuena28","gender":"1","school":"6","age":"11"},{"start_time":1551793963405,"click_time":1551793964464,"finger_time":1551793964004,"fix_duration":878.005240518127,"trial":4,"RT":599,"MT":460,"sideResp":1,"stimulus":[],"xmouse":[768,768,768,768,768,768,768,768,768,768,770,774,779,786,792,795,801,802,802,802,802,802,803,803,802,800,795,791,786,781,772,736,707,673,643,617,588,536,513,506,503,499,498,497,496,495,494,494,494,494,494,494,493,493],"ymouse":[500,500,500,500,500,500,500,500,500,500,500,500,501,503,503,503,504,505,505,505,505,505,503,499,494,491,483,477,469,461,448,397,356,309,270,231,197,144,123,116,112,107,106,105,104,102,101,101,101,101,101,101,100,98],"timestamp_mouse":[1,32,40,59,79,98,119,139,159,179,199,219,239,258,279,300,319,339,360,379,399,420,439,459,479,498,519,540,559,579,599,619,639,659,679,698,719,740,758,780,798,819,839,859,879,898,919,940,959,980,1000,1019,1038,1058],"xSR":741.5,"ySR":449.15000000000003,"xT1":424.9,"yT1":0,"xT2":1058.1,"yT2":0,"toosoon":0,"cond_shown":"Congruent","ratio_trial":100,"L_num":4,"L_den":10,"R_num":15,"R_den":30,"correct_side":2,"subjID":"simoonacardenasvalbuena28","gender":"1","school":"6","age":"11"},{"start_time":1551793966056,"click_time":1551793967765,"finger_time":1551793966924,"fix_duration":250,"trial":5,"RT":868,"MT":841,"sideResp":2,"stimulus":[],"xmouse":[804,804,804,804,804,804,804,804,804,804,804,804,804,804,804,804,804,804,804,804,804,804,804,804,804,804,804,804,804,804,804,804,804,804,804,804,804,804,803,800,796,793,791,780,771,748,731,718,696,685,678,667,649,620,611,604,600,595,591,591,591,591,591,587,583,579,575,571,567,565,564,564,564,564,567,586,612,645,709,742,775,805,832,930,1038,1112],"ymouse":[490,490,490,491,491,491,491,491,491,491,491,491,491,491,491,491,491,491,491,491,491,491,491,491,491,491,491,491,491,491,491,491,491,491,491,491,491,491,486,482,478,474,469,439,416,364,326,300,274,267,262,254,242,227,222,219,218,216,215,215,215,215,215,209,200,194,183,175,166,159,157,157,157,157,157,164,169,174,175,175,175,172,164,119,77,56],"timestamp_mouse":[10,35,48,68,87,108,128,148,169,189,209,228,249,268,288,307,329,347,368,389,409,428,449,468,489,509,527,548,567,587,609,627,648,668,687,708,728,747,768,788,809,828,848,868,887,907,928,948,969,988,1007,1028,1049,1068,1089,1107,1128,1148,1168,1189,1208,1229,1249,1267,1288,1308,1328,1348,1369,1387,1408,1429,1449,1467,1489,1508,1528,1548,1568,1588,1607,1628,1649,1668,1688,1709],"xSR":741.5,"ySR":449.15000000000003,"xT1":424.9,"yT1":0,"xT2":1058.1,"yT2":0,"toosoon":0,"cond_shown":"Incongruent","ratio_trial":300,"L_num":2,"L_den":4,"R_num":6,"R_den":30,"correct_side":1,"subjID":"simoonacardenasvalbuena28","gender":"1","school":"6","age":"11"},{"start_time":1551793970533,"click_time":1551793971585,"finger_time":1551793971184,"fix_duration":1486.0710051789222,"trial":6,"RT":651,"MT":401,"sideResp":1,"stimulus":[],"xmouse":[790,790,790,790,790,790,790,790,789,789,789,789,789,788,788,788,788,788,787,787,787,787,787,787,787,787,787,787,787,784,781,770,761,752,732,722,711,697,684,669,659,653,644,635,616,609,606,604,602,593,577,543,524],"ymouse":[491,491,491,491,491,491,491,491,490,490,489,489,489,488,488,488,488,488,487,487,487,487,487,487,487,487,487,487,487,482,477,461,449,434,394,367,339,308,283,251,229,211,189,168,130,118,112,109,108,100,93,79,70],"timestamp_mouse":[10,35,51,71,92,110,131,152,171,190,212,230,251,271,291,311,331,352,372,391,412,431,450,472,491,511,531,552,572,591,611,631,651,671,692,711,731,751,771,791,811,831,851,871,892,912,931,951,971,990,1011,1030,1052],"xSR":741.5,"ySR":449.15000000000003,"xT1":424.9,"yT1":0,"xT2":1058.1,"yT2":0,"toosoon":0,"cond_shown":"Congruent","ratio_trial":200,"L_num":3,"L_den":10,"R_num":11,"R_den":22,"correct_side":2,"subjID":"simoonacardenasvalbuena28","gender":"1","school":"6","age":"11"},{"start_time":1551793973883,"click_time":1551793976145,"finger_time":1551793974344,"fix_duration":1057.6710629482322,"trial":7,"RT":461,"MT":1801,"sideResp":2,"stimulus":[],"xmouse":[779,779,779,779,779,779,779,779,779,779,779,779,778,778,778,778,778,778,778,778,778,777,770,763,745,733,717,691,680,672,668,665,658,644,631,619,611,603,603,603,603,603,603,603,603,603,603,603,605,609,614,621,635,644,651,661,675,753,819,879,931,955,967,972,973,974,978,992,997,999,1001,1002,1005,1006,1007,1008,1009,1010,1010,1010,1011,1011,1011,1011,1013,1014,1017,1023,1028,1034,1039,1040,1040,1041,1042,1042,1043,1044,1044,1045,1049,1052,1055,1055,1055,1055,1056,1056,1057,1058,1058,1058,1058,1059],"ymouse":[506,506,506,504,504,504,503,503,502,502,502,500,499,499,499,499,498,497,495,494,492,488,465,444,403,369,327,263,236,222,214,209,198,171,151,128,112,97,96,96,96,96,96,96,96,96,96,99,104,109,114,122,132,135,135,135,135,123,113,105,97,95,95,95,95,95,94,89,87,85,84,84,82,81,80,79,78,77,77,77,77,77,77,76,76,75,74,72,71,69,68,67,67,67,66,66,66,66,66,66,64,64,64,64,64,64,63,63,63,63,63,63,63,63],"timestamp_mouse":[1,20,40,61,81,101,122,141,161,182,201,221,241,261,282,301,322,341,361,380,401,422,440,461,480,501,521,541,561,580,601,621,640,662,681,700,721,741,760,781,801,822,841,861,881,901,921,940,962,981,1002,1022,1041,1061,1082,1102,1121,1142,1161,1181,1202,1221,1240,1260,1280,1301,1321,1341,1361,1381,1401,1422,1441,1460,1480,1500,1521,1541,1562,1581,1601,1620,1642,1661,1681,1701,1720,1741,1761,1782,1801,1822,1842,1860,1881,1901,1922,1942,1962,1981,2001,2020,2041,2062,2082,2102,2122,2141,2161,2181,2201,2221,2242,2262],"xSR":741.5,"ySR":449.15000000000003,"xT1":424.9,"yT1":0,"xT2":1058.1,"yT2":0,"toosoon":0,"cond_shown":"Incongruent","ratio_trial":200,"L_num":1,"L_den":3,"R_num":2,"R_den":15,"correct_side":1,"subjID":"simoonacardenasvalbuena28","gender":"1","school":"6","age":"11"},{"start_time":1551793978751,"click_time":1551793980664,"finger_time":1551793980144,"fix_duration":1165.2416398953844,"trial":8,"RT":1393,"MT":520,"sideResp":2,"stimulus":[],"xmouse":[789,789,789,789,789,789,789,789,789,789,789,789,789,789,789,789,789,789,789,789,789,789,789,789,789,789,789,789,789,789,789,789,789,789,789,789,788,788,788,788,787,787,787,787,787,787,787,787,787,787,787,787,787,787,787,787,787,787,787,787,787,787,787,787,786,786,786,786,784,783,783,784,792,817,839,874,898,932,984,1011,1024,1034,1050,1050,1050,1050,1050,1050,1050,1050,1050,1050,1050,1050,1114,1118],"ymouse":[469,469,469,469,469,469,469,469,469,469,469,469,469,469,469,469,469,469,469,469,469,469,469,469,469,469,469,469,469,469,469,469,469,469,469,469,467,467,467,467,466,466,466,466,466,466,466,466,466,466,466,466,466,466,466,466,466,466,466,466,465,464,464,464,463,463,461,460,455,446,431,409,375,273,221,172,134,96,54,38,28,20,1,1,1,1,1,1,1,1,1,1,1,1,0,7],"timestamp_mouse":[20,41,53,74,94,114,132,153,173,193,212,234,252,274,293,313,334,353,374,393,413,432,454,472,494,513,533,553,573,593,613,634,653,674,694,713,733,754,774,794,813,833,854,874,893,912,934,953,973,994,1012,1033,1054,1073,1093,1114,1133,1154,1173,1194,1213,1234,1253,1272,1293,1314,1333,1354,1372,1393,1413,1433,1453,1473,1494,1513,1533,1554,1572,1592,1613,1634,1653,1673,1692,1714,1733,1754,1774,1793,1813,1834,1853,1874,1894,1913],"xSR":741.5,"ySR":449.15000000000003,"xT1":424.9,"yT1":0,"xT2":1058.1,"yT2":0,"toosoon":0,"cond_shown":"Congruent","ratio_trial":200,"L_num":8,"L_den":15,"R_num":3,"R_den":9,"correct_side":1,"subjID":"simoonacardenasvalbuena28","gender":"1","school":"6","age":"11"},{"start_time":1551793984644,"click_time":1551793985825,"finger_time":1551793985424,"fix_duration":1357.4705575170724,"trial":9,"RT":780,"MT":401,"sideResp":1,"stimulus":[],"xmouse":[776,775,775,772,770,769,769,769,769,769,769,769,769,769,769,769,769,769,769,769,769,769,769,769,769,769,769,769,769,769,769,769,769,769,769,769,769,766,757,708,681,661,642,625,601,593,589,587,585,580,577,576,575,575,575,573,571,567,562,516],"ymouse":[475,475,475,475,475,474,474,474,474,474,474,474,474,474,474,474,474,474,474,474,474,474,474,474,474,474,474,474,474,474,474,474,474,474,474,474,474,471,462,422,404,390,373,354,319,302,293,285,279,261,254,250,250,249,247,242,236,229,219,97],"timestamp_mouse":[1,37,41,61,80,100,121,141,161,180,200,221,239,261,279,301,320,339,361,379,401,421,440,459,480,501,519,541,560,579,601,621,641,661,679,699,721,741,760,780,800,820,840,859,879,900,920,941,960,979,999,1020,1040,1061,1080,1100,1121,1141,1161,1181],"xSR":741.5,"ySR":449.15000000000003,"xT1":424.9,"yT1":0,"xT2":1058.1,"yT2":0,"toosoon":0,"cond_shown":"Congruent","ratio_trial":100,"L_num":7,"L_den":14,"R_num":15,"R_den":25,"correct_side":2,"subjID":"simoonacardenasvalbuena28","gender":"1","school":"6","age":"11"},{"start_time":1551793987621,"click_time":1551793988884,"finger_time":1551793988004,"fix_duration":696.4123861333899,"trial":10,"RT":383,"MT":880,"sideResp":2,"stimulus":[],"xmouse":[798,798,797,797,797,797,797,797,797,797,797,797,797,797,797,797,797,797,797,797,797,797,797,797,797,796,793,787,781,777,776,775,775,775,775,775,775,775,775,775,775,775,774,775,777,782,784,786,788,789,794,797,802,812,828,885,955,1009,1053,1080,1106,1110,1113,1114],"ymouse":[455,455,454,454,454,454,454,454,454,454,454,454,454,454,454,454,453,451,450,449,449,448,448,448,448,447,443,437,432,428,427,426,426,426,426,426,426,426,426,426,426,426,426,430,439,454,458,460,462,463,465,465,465,460,443,369,287,236,196,161,119,108,100,95],"timestamp_mouse":[9,34,43,64,83,103,123,143,163,184,203,224,243,263,282,304,323,344,362,383,404,423,442,464,484,503,524,542,562,584,604,623,643,664,683,703,722,744,763,783,804,823,843,863,883,903,924,943,963,984,1004,1023,1043,1062,1084,1103,1124,1143,1163,1182,1204,1223,1243,1263],"xSR":741.5,"ySR":449.15000000000003,"xT1":424.9,"yT1":0,"xT2":1058.1,"yT2":0,"toosoon":0,"cond_shown":"Incongruent","ratio_trial":200,"L_num":4,"L_den":5,"R_num":6,"R_den":10,"correct_side":1,"subjID":"simoonacardenasvalbuena28","gender":"1","school":"6","age":"11"},{"start_time":1551793990436,"click_time":1551793991445,"finger_time":1551793990945,"fix_duration":250,"trial":11,"RT":509,"MT":500,"sideResp":1,"stimulus":[],"xmouse":[780,780,780,780,780,780,780,780,780,780,780,780,780,779,779,778,777,776,775,775,775,774,772,770,760,737,715,691,666,647,640,635,630,625,613,609,604,602,601,599,596,595,594,592,580,553,517,485,471,461,455],"ymouse":[474,474,474,474,474,474,474,474,474,474,474,474,474,474,474,474,474,475,475,475,475,475,475,474,458,422,380,342,302,248,229,213,201,190,164,158,151,147,144,141,139,138,138,136,131,125,117,112,109,104,98],"timestamp_mouse":[9,37,48,68,88,108,129,149,169,188,207,229,247,269,287,308,328,348,368,388,408,429,448,468,488,509,528,548,567,588,607,628,648,667,688,709,728,749,768,789,808,828,848,869,888,909,928,947,968,989,1009],"xSR":741.5,"ySR":449.15000000000003,"xT1":424.9,"yT1":0,"xT2":1058.1,"yT2":0,"toosoon":0,"cond_shown":"Congruent","ratio_trial":200,"L_num":4,"L_den":10,"R_num":3,"R_den":15,"correct_side":1,"subjID":"simoonacardenasvalbuena28","gender":"1","school":"6","age":"11"},{"start_time":1551793993498,"click_time":1551793995404,"finger_time":1551793994004,"fix_duration":873.4744143252049,"trial":12,"RT":506,"MT":1400,"sideResp":1,"stimulus":[],"xmouse":[792,792,792,792,792,792,792,792,792,792,792,792,792,792,792,792,792,792,792,790,788,786,784,779,772,761,722,689,646,605,579,554,551,551,551,551,551,551,551,551,551,551,551,551,551,551,551,551,551,551,551,551,551,551,551,551,551,558,576,598,634,772,822,861,882,892,893,893,894,894,894,895,895,894,888,873,820,778,747,716,689,646,631,613,605,600,595,595,595,595,595,592,582,568,544,519],"ymouse":[488,488,488,488,488,488,488,488,488,488,488,488,488,488,488,488,488,488,488,483,482,480,477,467,450,423,339,288,234,188,159,126,121,120,120,120,120,120,120,120,120,120,120,120,120,120,120,120,120,120,120,120,120,120,120,120,120,120,127,133,138,143,141,134,128,125,124,124,124,124,123,120,119,117,116,113,106,99,97,92,92,92,92,92,92,92,92,92,92,92,92,91,90,90,90,89],"timestamp_mouse":[8,39,47,65,85,106,125,146,166,186,206,225,246,267,287,305,326,346,366,386,406,426,446,466,486,506,526,546,566,586,606,625,646,666,685,706,727,746,766,785,807,827,847,866,885,907,926,946,967,986,1006,1026,1046,1067,1086,1107,1126,1146,1167,1186,1206,1226,1247,1267,1287,1306,1326,1346,1366,1387,1407,1426,1447,1465,1486,1506,1527,1546,1566,1586,1606,1626,1646,1667,1686,1706,1727,1746,1766,1786,1805,1826,1846,1866,1886,1906],"xSR":741.5,"ySR":449.15000000000003,"xT1":424.9,"yT1":0,"xT2":1058.1,"yT2":0,"toosoon":0,"cond_shown":"Congruent","ratio_trial":100,"L_num":1,"L_den":2,"R_num":18,"R_den":30,"correct_side":2,"subjID":"simoonacardenasvalbuena28","gender":"1","school":"6","age":"11"},{"start_time":1551793998900,"click_time":1551794000604,"finger_time":1551794000084,"fix_duration":595.3954340427844,"trial":13,"RT":1184,"MT":520,"sideResp":1,"stimulus":[],"xmouse":[808,808,808,808,808,808,808,808,808,808,808,808,808,808,808,808,808,808,808,808,808,808,808,808,808,808,808,808,808,808,808,808,808,808,806,806,805,805,805,805,805,805,805,805,805,804,803,801,800,799,798,791,787,785,784,782,780,777,775,769,766,761,761,761,761,761,761,761,761,759,757,748,744,731,721,711,696,644,618,599,578,545,525,518,514,512],"ymouse":[501,501,501,501,501,501,501,501,501,501,501,501,501,501,501,501,501,501,501,501,501,501,501,501,501,501,501,501,501,501,501,501,501,499,497,496,496,496,496,496,496,496,496,496,496,494,492,491,489,488,487,480,477,475,472,470,464,459,451,438,424,394,374,364,358,356,353,352,351,349,344,325,315,296,285,272,265,248,241,232,220,191,157,132,108,85],"timestamp_mouse":[9,39,44,64,84,104,124,144,164,184,204,224,245,264,285,304,324,344,365,384,404,424,444,464,485,505,523,545,565,585,605,624,645,664,685,704,724,745,765,784,805,824,843,864,885,905,923,944,963,985,1004,1024,1045,1064,1084,1103,1124,1144,1164,1184,1205,1224,1244,1264,1284,1304,1324,1344,1364,1384,1405,1424,1445,1463,1485,1504,1524,1544,1564,1584,1604,1624,1644,1664,1685,1704],"xSR":741.5,"ySR":449.15000000000003,"xT1":424.9,"yT1":0,"xT2":1058.1,"yT2":0,"toosoon":0,"cond_shown":"Congruent","ratio_trial":100,"L_num":7,"L_den":14,"R_num":9,"R_den":15,"correct_side":2,"subjID":"simoonacardenasvalbuena28","gender":"1","school":"6","age":"11"},{"start_time":1551794002219,"click_time":1551794003284,"finger_time":1551794003124,"fix_duration":273.03477535815665,"trial":14,"RT":905,"MT":160,"sideResp":2,"stimulus":[],"xmouse":[808,806,806,803,800,791,790,790,790,790,786,783,780,776,775,775,775,775,774,774,773,773,772,772,772,771,771,771,771,771,770,770,770,770,770,770,770,770,770,770,770,770,770,772,775,784,797,816,838,874,964,1011,1053,1086],"ymouse":[477,478,478,478,478,478,478,478,478,478,478,477,476,475,474,474,474,473,473,472,471,471,470,470,470,469,469,468,468,467,465,465,464,463,463,463,463,463,463,462,461,459,458,455,451,437,405,364,310,256,148,101,60,28],"timestamp_mouse":[8,40,46,66,85,105,125,145,166,186,205,225,246,265,285,305,326,345,365,385,406,425,445,465,486,505,525,546,565,585,605,625,646,665,686,705,725,745,765,786,805,825,845,865,885,905,925,945,966,985,1006,1026,1045,1065],"xSR":741.5,"ySR":449.15000000000003,"xT1":424.9,"yT1":0,"xT2":1058.1,"yT2":0,"toosoon":0,"cond_shown":"Congruent","ratio_trial":200,"L_num":16,"L_den":20,"R_num":12,"R_den":20,"correct_side":1,"subjID":"simoonacardenasvalbuena28","gender":"1","school":"6","age":"11"},{"start_time":1551794008029,"click_time":1551794009065,"finger_time":1551794008644,"fix_duration":1004.4106949698787,"trial":15,"RT":615,"MT":421,"sideResp":1,"stimulus":[],"xmouse":[795,795,795,795,795,795,795,795,795,795,795,795,795,795,795,795,795,795,795,795,795,795,795,795,795,795,795,793,790,781,773,764,758,751,737,721,710,699,690,671,660,648,632,618,597,591,588,576,560,522,510,507],"ymouse":[509,509,509,509,509,509,509,509,507,507,506,506,504,504,503,503,503,503,503,502,502,502,502,502,502,501,497,490,484,461,441,419,396,375,338,308,288,272,259,229,210,194,175,161,139,132,130,127,122,108,102,99],"timestamp_mouse":[15,44,56,75,96,116,136,156,176,195,215,236,255,274,295,316,335,355,375,395,415,436,456,476,496,516,535,555,575,595,615,636,655,675,695,716,735,755,775,796,814,835,854,876,895,916,935,954,975,995,1015,1036],"xSR":741.5,"ySR":449.15000000000003,"xT1":424.9,"yT1":0,"xT2":1058.1,"yT2":0,"toosoon":0,"cond_shown":"Congruent","ratio_trial":100,"L_num":6,"L_den":12,"R_num":15,"R_den":25,"correct_side":2,"subjID":"simoonacardenasvalbuena28","gender":"1","school":"6","age":"11"},{"start_time":1551794010195,"click_time":1551794011624,"finger_time":1551794010604,"fix_duration":250,"trial":16,"RT":409,"MT":1020,"sideResp":1,"stimulus":[],"xmouse":[810,810,810,810,810,810,810,810,810,810,810,810,810,810,810,810,809,809,809,809,809,831,850,874,897,917,948,960,964,969,975,992,1002,1008,1010,1011,1011,1011,1006,1003,997,969,956,948,943,941,941,939,936,934,931,928,925,915,892,868,784,710,679,669,662,644,629,617,606,602,601,593,580,562,541,511],"ymouse":[489,489,489,489,489,489,489,489,489,489,489,489,489,489,489,489,488,480,469,457,442,397,369,336,309,291,262,246,234,220,206,177,166,159,156,155,155,155,155,155,159,180,189,197,200,200,200,200,195,190,185,175,170,164,158,158,158,158,157,154,152,124,103,85,74,71,70,66,61,56,53,53],"timestamp_mouse":[9,29,59,69,89,109,129,148,169,190,209,229,248,270,289,309,329,350,369,389,409,429,449,469,489,509,529,550,569,590,609,628,648,670,689,710,730,749,770,789,809,828,850,869,889,909,929,949,969,989,1009,1029,1049,1069,1089,1109,1129,1149,1168,1189,1210,1229,1250,1269,1289,1309,1329,1350,1369,1390,1409,1429],"xSR":741.5,"ySR":449.15000000000003,"xT1":424.9,"yT1":0,"xT2":1058.1,"yT2":0,"toosoon":0,"cond_shown":"Congruent","ratio_trial":200,"L_num":7,"L_den":21,"R_num":2,"R_den":15,"correct_side":1,"subjID":"simoonacardenasvalbuena28","gender":"1","school":"6","age":"11"},{"start_time":1551794017213,"click_time":1551794018304,"finger_time":1551794017664,"fix_duration":1367.0548844443886,"trial":17,"RT":451,"MT":640,"sideResp":2,"stimulus":[],"xmouse":[787,787,787,787,787,787,787,787,787,787,787,787,787,787,787,787,787,786,785,785,775,765,742,721,702,676,660,655,649,646,643,642,642,641,641,641,641,641,641,641,642,645,648,656,666,698,720,772,815,866,975,1006,1029,1052,1078],"ymouse":[518,518,518,518,518,518,518,518,518,518,518,518,518,518,518,518,518,517,516,514,492,468,430,393,361,315,285,275,263,258,251,250,249,248,248,248,248,247,247,247,245,244,242,239,235,222,209,184,164,144,103,91,85,78,70],"timestamp_mouse":[11,43,51,72,91,112,132,151,171,191,212,231,252,272,291,312,331,351,372,391,411,431,451,471,490,511,531,551,571,591,611,631,650,671,692,711,732,751,771,791,811,830,851,871,891,911,931,951,971,991,1012,1031,1051,1072,1091],"xSR":741.5,"ySR":449.15000000000003,"xT1":424.9,"yT1":0,"xT2":1058.1,"yT2":0,"toosoon":0,"cond_shown":"Incongruent","ratio_trial":300,"L_num":1,"L_den":2,"R_num":3,"R_den":15,"correct_side":1,"subjID":"simoonacardenasvalbuena28","gender":"1","school":"6","age":"11"},{"start_time":1551794020792,"click_time":1551794022265,"finger_time":1551794021564,"fix_duration":1087.170722093911,"trial":18,"RT":772,"MT":701,"sideResp":2,"stimulus":[],"xmouse":[804,804,804,804,804,804,804,804,804,804,804,804,804,804,804,804,804,804,804,804,804,804,804,804,804,804,804,804,804,804,804,804,805,805,805,806,813,820,831,839,849,869,876,886,897,910,935,945,951,954,957,962,965,970,974,979,987,989,989,989,989,992,996,1000,1003,1008,1015,1016,1019,1021,1023,1036,1056,1085],"ymouse":[493,493,493,493,493,493,493,493,493,493,493,493,493,493,493,493,493,493,493,493,493,493,493,493,493,493,493,493,492,491,490,489,488,488,486,485,473,461,442,428,414,387,373,357,339,317,273,249,238,231,225,213,204,196,188,180,160,158,157,157,157,154,151,148,144,138,130,129,127,126,124,116,94,55],"timestamp_mouse":[12,33,53,72,92,112,132,153,171,193,213,232,252,273,292,312,333,353,372,393,412,432,453,473,493,513,532,552,572,593,613,632,652,673,692,712,731,753,772,793,812,833,852,872,892,913,932,953,972,993,1012,1032,1052,1072,1092,1112,1132,1153,1172,1193,1212,1232,1252,1273,1292,1312,1332,1351,1373,1392,1412,1432,1452,1473],"xSR":741.5,"ySR":449.15000000000003,"xT1":424.9,"yT1":0,"xT2":1058.1,"yT2":0,"toosoon":0,"cond_shown":"Incongruent","ratio_trial":300,"L_num":4,"L_den":20,"R_num":2,"R_den":4,"correct_side":2,"subjID":"simoonacardenasvalbuena28","gender":"1","school":"6","age":"11"},{"start_time":1551794023955,"click_time":1551794025345,"finger_time":1551794024764,"fix_duration":250,"trial":19,"RT":809,"MT":581,"sideResp":2,"stimulus":[],"xmouse":[782,782,782,782,782,782,782,782,782,782,782,782,782,782,782,782,782,782,782,782,782,782,782,782,782,782,782,783,784,784,785,788,789,790,793,793,794,795,795,796,799,802,808,816,821,827,835,842,871,878,898,908,919,934,940,945,950,957,974,987,993,995,996,1000,1003,1009,1016,1025,1050,1063],"ymouse":[493,493,493,493,493,493,493,493,493,493,493,493,493,493,493,493,493,493,493,493,493,493,493,493,493,493,493,494,494,494,493,488,487,483,480,478,475,472,463,452,443,432,420,400,389,376,364,347,299,287,254,235,219,201,196,192,187,180,164,152,148,146,145,141,137,132,126,118,96,84],"timestamp_mouse":[8,45,50,69,89,110,129,150,170,188,209,229,250,269,290,309,330,348,370,389,409,430,450,469,490,509,530,549,569,590,609,629,649,669,689,709,729,750,769,790,809,829,849,870,889,909,929,949,969,989,1009,1029,1049,1069,1089,1110,1129,1149,1168,1189,1209,1229,1248,1269,1289,1310,1330,1350,1369,1390],"xSR":741.5,"ySR":449.15000000000003,"xT1":424.9,"yT1":0,"xT2":1058.1,"yT2":0,"toosoon":0,"cond_shown":"Congruent","ratio_trial":300,"L_num":20,"L_den":25,"R_num":5,"R_den":10,"correct_side":1,"subjID":"simoonacardenasvalbuena28","gender":"1","school":"6","age":"11"},{"start_time":1551794026875,"click_time":1551794027824,"finger_time":1551794027424,"fix_duration":250,"trial":20,"RT":549,"MT":400,"sideResp":1,"stimulus":[],"xmouse":[790,790,790,790,790,790,790,790,790,790,790,790,790,790,790,790,790,790,789,789,788,786,782,780,774,770,765,746,736,727,720,713,703,696,688,682,674,662,659,658,657,655,646,630,617,596,572,510],"ymouse":[507,507,507,507,507,507,507,507,507,507,507,507,506,504,504,504,504,504,502,502,500,498,490,487,476,470,459,417,389,366,350,336,311,287,264,242,215,173,162,158,156,153,140,122,112,103,96,91],"timestamp_mouse":[9,31,49,69,90,109,129,149,169,190,209,229,249,269,290,309,330,349,369,390,409,429,449,469,489,509,529,549,569,589,609,630,649,670,689,709,729,749,768,789,809,830,849,870,889,909,929,949],"xSR":741.5,"ySR":449.15000000000003,"xT1":424.9,"yT1":0,"xT2":1058.1,"yT2":0,"toosoon":0,"cond_shown":"Congruent","ratio_trial":100,"L_num":2,"L_den":5,"R_num":6,"R_den":12,"correct_side":2,"subjID":"simoonacardenasvalbuena28","gender":"1","school":"6","age":"11"},{"start_time":1551794029515,"click_time":1551794030805,"finger_time":1551794029964,"fix_duration":790.3893309815488,"trial":21,"RT":449,"MT":841,"sideResp":2,"stimulus":[],"xmouse":[792,792,792,792,792,792,792,792,791,791,791,791,791,791,791,790,790,790,790,790,791,800,805,810,813,814,814,814,815,817,842,853,864,870,876,881,883,885,888,890,892,906,915,922,928,940,942,948,952,957,969,978,986,994,1001,1030,1044,1057,1062,1066,1070,1073,1074,1076,1078],"ymouse":[498,498,498,498,498,498,498,496,496,495,495,495,494,494,494,493,493,492,491,487,476,454,440,425,414,408,408,408,406,399,353,332,311,296,283,264,256,246,238,228,219,192,180,173,166,157,155,153,150,147,140,135,132,128,125,115,110,107,104,103,102,101,100,100,98],"timestamp_mouse":[18,36,49,69,89,109,129,150,169,190,209,230,250,269,289,310,330,350,369,390,409,429,449,469,489,509,530,549,569,590,610,630,649,669,689,709,729,749,769,788,808,829,849,870,890,909,930,950,969,989,1010,1029,1049,1069,1089,1110,1129,1149,1169,1190,1209,1230,1249,1270,1290],"xSR":741.5,"ySR":449.15000000000003,"xT1":424.9,"yT1":0,"xT2":1058.1,"yT2":0,"toosoon":0,"cond_shown":"Congruent","ratio_trial":200,"L_num":4,"L_den":10,"R_num":3,"R_den":15,"correct_side":1,"subjID":"simoonacardenasvalbuena28","gender":"1","school":"6","age":"11"},{"start_time":1551794033364,"click_time":1551794034845,"finger_time":1551794033764,"fix_duration":1397.771437784249,"trial":22,"RT":400,"MT":1081,"sideResp":2,"stimulus":[],"xmouse":[779,779,778,778,777,777,777,777,777,777,777,777,777,776,775,775,774,772,767,746,737,728,718,696,684,672,662,651,638,634,634,634,634,636,637,639,640,641,641,641,642,642,641,628,623,619,619,619,629,645,663,687,717,787,820,844,864,879,901,915,926,932,938,944,945,945,946,946,946,949,956,972,995,1043,1060],"ymouse":[505,505,505,504,504,504,504,504,504,504,504,504,502,501,500,500,499,497,491,463,451,436,418,375,352,330,310,283,258,251,251,251,251,249,249,249,249,249,249,249,248,248,245,237,234,232,232,232,232,232,232,229,225,213,203,195,184,175,150,126,111,99,90,79,76,75,74,74,73,73,72,70,70,68,66],"timestamp_mouse":[8,21,41,61,81,101,121,140,161,180,201,220,240,261,281,300,320,341,360,380,400,420,440,460,481,500,520,540,560,581,600,620,641,660,680,700,720,740,761,780,800,820,840,860,881,900,920,940,960,981,999,1020,1040,1060,1081,1101,1120,1141,1160,1180,1201,1220,1241,1260,1280,1300,1320,1341,1360,1381,1401,1420,1441,1459,1480],"xSR":741.5,"ySR":449.15000000000003,"xT1":424.9,"yT1":0,"xT2":1058.1,"yT2":0,"toosoon":0,"cond_shown":"Congruent","ratio_trial":300,"L_num":2,"L_den":10,"R_num":12,"R_den":24,"correct_side":2,"subjID":"simoonacardenasvalbuena28","gender":"1","school":"6","age":"11"},{"start_time":1551794036323,"click_time":1551794037024,"finger_time":1551794036864,"fix_duration":396.8564578060635,"trial":23,"RT":541,"MT":160,"sideResp":2,"stimulus":[],"xmouse":[765,765,765,765,765,765,765,765,765,765,765,765,765,765,765,765,765,765,765,765,765,765,765,765,765,774,795,836,896,961,1055,1090,1100,1106,1114,1143],"ymouse":[508,508,508,508,508,508,508,508,508,508,508,508,508,508,508,508,508,508,508,508,508,508,507,506,503,489,473,437,393,337,240,201,179,159,138,90],"timestamp_mouse":[10,34,41,62,81,101,121,141,161,182,201,221,242,260,281,302,321,342,362,381,402,420,441,461,480,502,521,541,561,581,601,621,641,661,681,701],"xSR":741.5,"ySR":449.15000000000003,"xT1":424.9,"yT1":0,"xT2":1058.1,"yT2":0,"toosoon":0,"cond_shown":"Incongruent","ratio_trial":200,"L_num":14,"L_den":30,"R_num":6,"R_den":9,"correct_side":2,"subjID":"simoonacardenasvalbuena28","gender":"1","school":"6","age":"11"},{"start_time":1551794039434,"click_time":1551794040384,"finger_time":1551794039985,"fix_duration":1208.1918215998148,"trial":24,"RT":551,"MT":399,"sideResp":1,"stimulus":[],"xmouse":[786,786,786,786,786,786,786,786,785,785,785,785,785,785,785,785,785,785,785,785,784,784,784,784,780,778,773,764,754,689,654,620,606,600,590,585,580,575,575,575,575,575,575,575,575,575,575,498],"ymouse":[486,486,486,486,486,486,486,486,486,486,486,486,486,486,486,486,486,485,484,483,483,482,481,480,472,464,453,436,409,286,231,180,154,137,94,58,31,14,14,14,14,14,14,14,14,14,14,7],"timestamp_mouse":[9,38,51,71,91,111,130,151,169,190,210,230,251,270,290,311,330,350,370,390,410,430,450,470,490,511,530,551,571,590,609,630,650,671,690,710,730,751,770,791,811,830,850,870,890,910,931,949],"xSR":741.5,"ySR":449.15000000000003,"xT1":424.9,"yT1":0,"xT2":1058.1,"yT2":0,"toosoon":0,"cond_shown":"Congruent","ratio_trial":200,"L_num":3,"L_den":10,"R_num":14,"R_den":28,"correct_side":2,"subjID":"simoonacardenasvalbuena28","gender":"1","school":"6","age":"11"},{"start_time":1551794046127,"click_time":1551794048124,"finger_time":1551794046644,"fix_duration":722.0776886018431,"trial":25,"RT":517,"MT":1480,"sideResp":1,"stimulus":[],"xmouse":[794,794,794,794,794,794,794,794,794,794,794,794,794,794,794,794,794,792,789,786,786,786,783,782,777,774,770,763,756,743,727,705,675,652,633,629,629,628,628,628,628,631,640,647,670,687,704,725,742,774,795,811,828,844,869,875,876,876,876,876,868,857,848,836,810,795,776,756,734,661,634,609,583,558,526,516,505,494,489,477,476,476,476,476,487,492,495,496,496,496,496,496,497,498,498,498,498,498,498,500],"ymouse":[509,509,509,509,509,509,509,509,509,509,509,509,509,509,509,509,509,507,500,488,485,481,474,467,451,443,433,425,414,395,381,371,361,353,342,339,337,336,336,334,332,330,326,321,305,293,280,266,255,237,228,222,213,203,185,180,179,179,179,177,169,160,153,148,143,143,143,143,145,161,164,166,171,173,173,173,170,165,161,146,145,145,145,143,138,137,135,135,135,135,134,132,127,125,122,120,116,109,104,98],"timestamp_mouse":[18,36,57,77,98,120,138,157,177,197,217,237,257,277,297,317,337,358,377,397,418,437,457,477,496,517,538,558,578,596,618,637,657,678,698,717,737,758,777,797,817,836,858,877,898,918,937,957,976,997,1018,1037,1057,1077,1097,1117,1138,1157,1178,1197,1217,1238,1258,1278,1297,1317,1337,1358,1377,1397,1418,1437,1457,1478,1496,1518,1538,1557,1578,1597,1616,1638,1657,1677,1697,1717,1737,1756,1777,1798,1817,1837,1857,1878,1897,1918,1937,1957,1978,1997],"xSR":741.5,"ySR":449.15000000000003,"xT1":424.9,"yT1":0,"xT2":1058.1,"yT2":0,"toosoon":0,"cond_shown":"Congruent","ratio_trial":300,"L_num":1,"L_den":3,"R_num":19,"R_den":30,"correct_side":2,"subjID":"simoonacardenasvalbuena28","gender":"1","school":"6","age":"11"},{"start_time":1551794051860,"click_time":1551794053304,"finger_time":1551794052644,"fix_duration":696.9117519629093,"trial":26,"RT":784,"MT":660,"sideResp":2,"stimulus":[],"xmouse":[780,780,780,780,780,780,780,780,780,780,780,780,780,780,780,780,780,780,780,780,780,780,780,780,780,780,780,780,780,782,782,784,785,788,793,796,802,808,823,828,833,838,844,860,874,883,888,889,893,896,903,909,915,922,923,924,925,930,949,962,977,988,990,990,990,990,990,991,993,1004,1023,1046,1067],"ymouse":[519,519,519,519,519,519,519,519,519,519,519,519,519,519,519,519,519,519,519,519,519,519,519,519,519,519,519,519,519,518,514,513,510,507,503,499,492,483,459,445,429,413,393,345,311,291,278,270,256,246,231,215,200,186,183,182,180,172,140,123,103,90,88,88,88,88,88,88,87,86,83,80,77],"timestamp_mouse":[10,32,45,64,84,105,125,145,164,185,204,225,244,264,284,304,325,343,364,385,405,425,443,465,485,505,524,543,564,584,604,624,644,664,684,704,724,744,764,784,804,824,845,864,885,903,924,944,965,984,1005,1024,1044,1063,1085,1104,1124,1144,1164,1185,1205,1224,1243,1264,1284,1304,1324,1344,1364,1384,1404,1424,1444],"xSR":741.5,"ySR":449.15000000000003,"xT1":424.9,"yT1":0,"xT2":1058.1,"yT2":0,"toosoon":0,"cond_shown":"Congruent","ratio_trial":200,"L_num":8,"L_den":15,"R_num":3,"R_den":9,"correct_side":1,"subjID":"simoonacardenasvalbuena28","gender":"1","school":"6","age":"11"},{"start_time":1551794056210,"click_time":1551794058305,"finger_time":1551794057744,"fix_duration":1444.3822470307678,"trial":27,"RT":1534,"MT":561,"sideResp":2,"stimulus":[],"xmouse":[759,759,759,759,759,759,759,759,759,759,759,759,759,759,759,759,759,759,759,759,759,759,759,759,759,759,759,759,759,759,759,759,759,759,759,759,759,759,759,759,759,759,759,759,759,759,759,759,759,759,759,759,759,759,759,759,759,759,759,759,759,759,759,759,759,759,759,759,759,759,759,759,759,759,758,750,740,732,726,715,695,688,682,678,673,658,641,622,590,554,505,499,498,498,498,511,530,571,623,684,833,904,980,1042,1098],"ymouse":[504,504,504,504,504,504,504,504,504,504,504,504,504,504,504,504,504,504,504,504,504,504,504,504,504,504,504,504,504,504,504,504,504,504,504,504,504,504,504,504,504,504,504,504,504,504,504,504,504,504,504,504,504,504,504,504,504,504,504,504,504,504,504,504,504,504,504,504,504,504,504,504,504,504,502,489,476,467,458,444,409,396,387,380,372,348,326,312,295,275,246,242,241,240,237,219,208,194,182,167,127,104,82,55,22],"timestamp_mouse":[15,35,54,75,94,114,135,154,174,194,214,233,254,274,295,315,335,354,375,395,414,435,455,475,495,514,534,555,574,594,614,634,654,675,694,714,735,755,775,793,814,835,854,874,894,913,935,955,974,995,1014,1034,1053,1074,1095,1113,1134,1154,1175,1195,1215,1235,1255,1275,1293,1314,1335,1354,1374,1394,1414,1433,1455,1475,1494,1513,1534,1554,1574,1594,1615,1635,1654,1674,1694,1714,1735,1754,1773,1793,1814,1834,1854,1874,1895,1914,1934,1954,1974,1994,2013,2034,2054,2074,2095],"xSR":741.5,"ySR":449.15000000000003,"xT1":424.9,"yT1":0,"xT2":1058.1,"yT2":0,"toosoon":0,"cond_shown":"Congruent","ratio_trial":300,"L_num":20,"L_den":25,"R_num":13,"R_den":26,"correct_side":1,"subjID":"simoonacardenasvalbuena28","gender":"1","school":"6","age":"11"},{"start_time":1551794059596,"click_time":1551794060924,"finger_time":1551794060544,"fix_duration":250,"trial":28,"RT":948,"MT":380,"sideResp":1,"stimulus":[],"xmouse":[779,780,781,781,782,782,783,783,786,787,788,788,788,788,788,788,788,788,788,788,788,788,788,788,788,788,788,788,788,787,786,786,785,785,784,784,783,782,782,781,781,779,778,776,773,770,761,749,742,732,725,709,699,694,689,681,672,629,612,598,586,566,560,555,550,542,515],"ymouse":[464,468,470,472,474,475,477,479,485,489,494,498,498,498,498,498,498,498,498,498,498,498,498,498,498,498,498,498,498,497,496,494,493,491,490,489,488,487,486,485,484,482,480,479,474,469,455,428,404,365,311,199,161,139,125,114,104,95,93,93,93,93,93,93,93,93,93],"timestamp_mouse":[8,39,48,68,87,108,128,147,168,188,208,228,248,267,288,309,328,348,369,388,407,429,448,468,489,509,527,548,568,588,608,628,648,668,688,708,728,748,768,789,809,827,847,869,888,908,927,948,968,989,1008,1028,1047,1068,1088,1107,1127,1149,1168,1189,1208,1228,1249,1269,1288,1309,1327],"xSR":741.5,"ySR":449.15000000000003,"xT1":424.9,"yT1":0,"xT2":1058.1,"yT2":0,"toosoon":0,"cond_shown":"Incongruent","ratio_trial":100,"L_num":2,"L_den":4,"R_num":8,"R_den":20,"correct_side":1,"subjID":"simoonacardenasvalbuena28","gender":"1","school":"6","age":"11"},{"start_time":1551794062677,"click_time":1551794064484,"finger_time":1551794064043,"fix_duration":691.8303180170464,"trial":29,"RT":1366,"MT":441,"sideResp":2,"stimulus":[],"xmouse":[780,780,780,781,781,781,782,782,782,782,782,782,782,782,783,783,783,783,783,783,783,783,783,783,783,783,783,783,783,783,783,783,783,783,783,783,783,783,783,783,783,783,783,783,783,783,783,783,783,783,783,783,783,783,783,783,783,783,783,783,784,784,784,786,787,789,790,804,818,840,866,895,965,985,1005,1010,1011,1000,997,996,996,995,994,994,995,997,1003,1023,1037,1054,1077],"ymouse":[486,486,486,486,486,486,486,486,485,484,483,483,483,482,482,482,482,482,482,482,482,482,482,482,482,482,482,482,482,482,482,482,482,482,482,482,482,482,482,482,482,482,482,482,482,482,482,482,482,482,482,482,482,482,482,482,482,482,482,482,481,481,480,478,476,474,473,459,446,422,390,355,282,262,230,206,183,141,127,119,116,113,104,94,86,80,74,63,55,46,38],"timestamp_mouse":[9,36,47,66,86,106,126,146,166,186,207,226,246,266,287,306,326,346,366,386,406,426,446,466,487,506,526,547,566,587,608,628,646,667,687,707,726,746,768,786,807,827,847,868,886,907,928,947,967,988,1008,1027,1047,1067,1088,1106,1128,1147,1166,1188,1207,1226,1247,1267,1287,1308,1327,1347,1366,1387,1407,1427,1446,1468,1487,1506,1527,1548,1567,1587,1607,1628,1646,1666,1687,1707,1727,1747,1766,1787,1807],"xSR":741.5,"ySR":449.15000000000003,"xT1":424.9,"yT1":0,"xT2":1058.1,"yT2":0,"toosoon":0,"cond_shown":"Incongruent","ratio_trial":300,"L_num":13,"L_den":26,"R_num":12,"R_den":15,"correct_side":2,"subjID":"simoonacardenasvalbuena28","gender":"1","school":"6","age":"11"},{"start_time":1551794066041,"click_time":1551794067524,"finger_time":1551794067184,"fix_duration":395.2727131147987,"trial":30,"RT":1143,"MT":340,"sideResp":1,"stimulus":[],"xmouse":[764,764,764,764,764,764,764,764,764,764,764,765,766,767,768,768,769,770,771,771,771,772,772,772,774,774,774,774,774,774,774,774,774,774,774,774,774,773,772,772,772,772,772,772,772,772,772,772,772,772,772,772,772,772,770,765,760,754,745,717,696,672,656,644,630,625,622,617,609,588,577,564,547,532,520],"ymouse":[505,505,505,505,505,505,505,505,505,505,505,505,504,504,503,503,502,501,500,500,500,500,500,500,500,500,500,500,500,500,500,500,500,500,499,499,495,491,490,490,490,490,490,490,490,490,490,490,490,490,490,490,490,489,483,469,456,442,423,360,301,254,225,206,193,187,184,174,163,125,104,82,60,50,41],"timestamp_mouse":[13,40,43,64,83,102,123,143,162,184,202,223,242,264,283,303,324,343,363,383,402,423,443,463,482,504,523,542,564,583,604,623,644,663,683,702,723,744,762,783,803,823,843,863,883,902,923,942,962,982,1004,1023,1042,1063,1082,1104,1123,1143,1162,1183,1203,1222,1242,1263,1282,1304,1323,1342,1363,1383,1404,1422,1442,1463,1483],"xSR":741.5,"ySR":449.15000000000003,"xT1":424.9,"yT1":0,"xT2":1058.1,"yT2":0,"toosoon":0,"cond_shown":"Congruent","ratio_trial":100,"L_num":4,"L_den":8,"R_num":6,"R_den":10,"correct_side":2,"subjID":"simoonacardenasvalbuena28","gender":"1","school":"6","age":"11"},{"start_time":1551794069285,"click_time":1551794070424,"finger_time":1551794069824,"fix_duration":800.299419519604,"trial":31,"RT":539,"MT":600,"sideResp":1,"stimulus":[],"xmouse":[788,788,788,788,788,788,788,788,788,788,788,788,788,788,787,787,787,787,787,789,790,796,805,812,819,826,836,840,841,841,841,837,833,830,824,815,795,781,768,755,739,722,672,628,601,581,541,520,504,492,487,483,485,487,487,487,487],"ymouse":[511,511,511,511,511,510,510,509,509,509,509,509,509,509,508,507,506,505,503,500,500,491,479,471,461,451,425,412,404,397,393,385,378,374,368,359,341,332,324,317,308,300,277,252,235,220,190,175,160,146,138,130,125,123,119,113,99],"timestamp_mouse":[19,38,58,78,99,120,139,159,179,199,219,238,258,278,299,319,339,358,380,399,418,438,460,479,499,518,539,558,579,599,618,639,659,678,699,718,739,758,779,799,818,838,858,878,900,919,939,960,979,999,1020,1039,1058,1078,1098,1118,1139],"xSR":741.5,"ySR":449.15000000000003,"xT1":424.9,"yT1":0,"xT2":1058.1,"yT2":0,"toosoon":0,"cond_shown":"Congruent","ratio_trial":300,"L_num":2,"L_den":10,"R_num":12,"R_den":24,"correct_side":2,"subjID":"simoonacardenasvalbuena28","gender":"1","school":"6","age":"11"},{"start_time":1551794073560,"click_time":1551794074964,"finger_time":1551794074424,"fix_duration":674.6969860042676,"trial":32,"RT":864,"MT":540,"sideResp":2,"stimulus":[],"xmouse":[805,805,805,805,805,805,805,805,805,805,805,805,805,804,804,804,804,804,804,804,804,804,804,803,802,800,794,790,789,788,788,787,787,787,787,787,787,787,787,787,787,787,787,785,782,779,778,776,771,766,766,766,764,763,763,763,763,763,763,763,764,772,772,799,835,886,945,1004,1091,1111,1128],"ymouse":[507,507,507,507,507,506,506,506,506,506,506,506,506,506,506,506,506,506,506,506,506,506,504,503,501,499,496,494,493,492,492,491,491,491,491,491,489,489,487,482,477,472,466,448,440,431,422,415,396,384,380,377,373,371,370,370,370,370,368,362,358,338,338,303,277,244,208,175,118,104,95],"timestamp_mouse":[10,32,43,64,85,103,125,144,165,183,203,224,243,264,283,304,325,343,365,385,403,425,444,464,485,504,524,544,563,585,604,624,644,663,684,704,723,745,764,784,803,824,844,864,883,903,924,943,963,984,1004,1024,1043,1064,1083,1105,1125,1143,1163,1184,1204,1231,1245,1263,1285,1304,1325,1345,1363,1384,1404],"xSR":741.5,"ySR":449.15000000000003,"xT1":424.9,"yT1":0,"xT2":1058.1,"yT2":0,"toosoon":0,"cond_shown":"Congruent","ratio_trial":200,"L_num":4,"L_den":10,"R_num":3,"R_den":15,"correct_side":1,"subjID":"simoonacardenasvalbuena28","gender":"1","school":"6","age":"11"},{"start_time":1551794077575,"click_time":1551794078444,"finger_time":1551794078085,"fix_duration":1489.2496080486192,"trial":33,"RT":510,"MT":359,"sideResp":2,"stimulus":[],"xmouse":[790,790,790,790,790,790,790,790,790,790,790,790,790,790,790,790,790,790,789,789,789,789,790,793,801,808,816,834,852,863,872,879,899,913,923,933,940,951,970,989,1010,1029,1057,1062],"ymouse":[485,485,485,485,485,485,485,485,485,485,485,485,485,485,485,485,485,485,483,482,482,480,478,473,463,449,432,391,351,323,294,266,197,167,145,129,120,109,96,86,77,71,64,64],"timestamp_mouse":[10,29,50,70,89,110,129,148,168,190,208,230,249,269,288,309,328,348,369,389,410,429,449,468,489,510,530,548,569,589,610,629,648,669,689,709,728,749,769,789,809,830,849,869],"xSR":741.5,"ySR":449.15000000000003,"xT1":424.9,"yT1":0,"xT2":1058.1,"yT2":0,"toosoon":0,"cond_shown":"Incongruent","ratio_trial":200,"L_num":11,"L_den":20,"R_num":3,"R_den":4,"correct_side":2,"subjID":"simoonacardenasvalbuena28","gender":"1","school":"6","age":"11"},{"start_time":1551794081310,"click_time":1551794082045,"finger_time":1551794081704,"fix_duration":1286.2769969770827,"trial":34,"RT":394,"MT":341,"sideResp":2,"stimulus":[],"xmouse":[805,805,805,805,805,805,805,805,805,805,805,805,805,805,805,805,805,807,807,811,815,818,822,829,838,884,914,950,982,1005,1035,1041,1042,1042,1044,1055,1061],"ymouse":[473,473,473,473,473,473,473,473,473,473,473,473,473,473,473,473,473,465,460,447,419,389,367,343,317,248,208,170,140,120,101,98,97,97,95,88,84],"timestamp_mouse":[15,33,54,74,93,115,134,153,175,193,214,234,255,274,294,314,333,355,374,394,414,434,453,475,494,513,533,555,574,594,613,634,654,673,694,715,735],"xSR":741.5,"ySR":449.15000000000003,"xT1":424.9,"yT1":0,"xT2":1058.1,"yT2":0,"toosoon":0,"cond_shown":"Incongruent","ratio_trial":100,"L_num":12,"L_den":24,"R_num":9,"R_den":15,"correct_side":2,"subjID":"simoonacardenasvalbuena28","gender":"1","school":"6","age":"11"},{"start_time":1551794084402,"click_time":1551794085464,"finger_time":1551794085024,"fix_duration":1116.207648879377,"trial":35,"RT":622,"MT":440,"sideResp":1,"stimulus":[],"xmouse":[759,760,760,761,761,761,761,761,761,761,761,761,761,761,761,761,761,761,761,761,761,761,761,761,761,761,761,761,761,757,748,714,683,655,633,624,624,624,624,624,624,624,624,624,624,624,624,624,624,624,624,624,624,465],"ymouse":[486,486,486,486,486,486,486,486,486,486,486,486,486,486,486,486,486,486,486,486,486,486,486,486,486,486,486,485,483,477,465,391,298,191,71,13,13,13,13,13,13,13,13,13,13,13,13,13,13,13,13,13,13,2],"timestamp_mouse":[11,39,41,62,81,102,122,142,161,181,203,222,241,263,282,301,322,342,363,382,403,422,441,463,481,503,521,541,562,581,602,622,642,662,681,702,721,742,761,782,801,822,841,863,882,903,922,942,961,982,1001,1022,1042,1062],"xSR":741.5,"ySR":449.15000000000003,"xT1":424.9,"yT1":0,"xT2":1058.1,"yT2":0,"toosoon":0,"cond_shown":"Incongruent","ratio_trial":100,"L_num":3,"L_den":9,"R_num":7,"R_den":30,"correct_side":1,"subjID":"simoonacardenasvalbuena28","gender":"1","school":"6","age":"11"},{"start_time":1551794088319,"click_time":1551794089425,"finger_time":1551794088844,"fix_duration":1494.4028744579946,"trial":36,"RT":525,"MT":581,"sideResp":1,"stimulus":[],"xmouse":[787,787,786,786,786,785,785,785,785,785,785,785,785,785,785,784,784,784,784,784,783,781,779,778,776,768,759,753,748,744,732,722,717,714,713,713,713,711,708,703,687,664,652,648,644,641,639,635,628,615,589,569,557,545,537,512],"ymouse":[502,501,500,500,498,497,497,497,497,497,495,495,495,495,495,494,494,494,494,493,492,488,485,481,475,459,442,422,402,375,330,295,269,242,215,158,131,111,95,82,66,57,54,52,52,52,52,52,52,55,61,66,68,70,71,74],"timestamp_mouse":[13,31,45,66,85,105,124,146,166,185,206,225,246,264,284,305,325,344,365,385,405,425,445,465,485,505,525,544,565,586,604,624,644,666,685,705,725,746,765,786,804,826,844,864,885,905,925,944,965,986,1006,1025,1045,1066,1085,1106],"xSR":741.5,"ySR":449.15000000000003,"xT1":424.9,"yT1":0,"xT2":1058.1,"yT2":0,"toosoon":0,"cond_shown":"Incongruent","ratio_trial":300,"L_num":7,"L_den":10,"R_num":8,"R_den":20,"correct_side":1,"subjID":"simoonacardenasvalbuena28","gender":"1","school":"6","age":"11"},{"start_time":1551794091550,"click_time":1551794092484,"finger_time":1551794092204,"fix_duration":524.3820715970672,"trial":37,"RT":654,"MT":280,"sideResp":1,"stimulus":[],"xmouse":[792,792,792,792,792,792,792,792,792,792,792,792,792,792,792,792,792,792,792,792,792,792,792,792,792,792,792,792,793,787,776,768,762,755,752,749,746,740,734,722,714,709,700,629,572,512,468],"ymouse":[504,504,504,504,504,504,504,504,504,504,504,504,504,504,504,504,504,504,504,504,504,504,504,504,504,504,504,504,503,491,475,456,439,416,409,400,391,378,366,338,322,311,291,226,178,132,89],"timestamp_mouse":[14,38,54,75,94,115,134,154,173,194,215,233,254,274,293,315,333,354,374,395,413,433,453,474,494,515,534,553,574,595,614,635,654,674,694,714,734,753,773,794,814,834,853,874,893,914,934],"xSR":741.5,"ySR":449.15000000000003,"xT1":424.9,"yT1":0,"xT2":1058.1,"yT2":0,"toosoon":0,"cond_shown":"Incongruent","ratio_trial":200,"L_num":7,"L_den":10,"R_num":8,"R_den":16,"correct_side":1,"subjID":"simoonacardenasvalbuena28","gender":"1","school":"6","age":"11"},{"start_time":1551794094076,"click_time":1551794095024,"finger_time":1551794094483,"fix_duration":528.3595894121385,"trial":38,"RT":407,"MT":541,"sideResp":2,"stimulus":[],"xmouse":[802,802,802,802,802,801,801,800,800,800,800,800,799,799,799,798,797,797,797,797,797,797,797,797,798,804,812,824,831,841,850,858,868,873,874,875,875,876,877,878,882,888,914,947,971,1006,1051,1111],"ymouse":[472,472,472,472,472,473,473,473,473,473,473,473,473,471,470,468,468,463,459,452,444,434,416,404,393,381,368,339,320,299,278,258,227,214,211,208,207,204,202,200,194,188,170,150,132,105,68,25],"timestamp_mouse":[9,35,48,68,87,109,129,147,167,188,208,228,248,267,288,308,328,347,368,389,407,428,448,468,487,509,528,547,568,587,608,627,648,668,687,708,727,748,769,788,808,827,848,869,887,908,928,948],"xSR":741.5,"ySR":449.15000000000003,"xT1":424.9,"yT1":0,"xT2":1058.1,"yT2":0,"toosoon":0,"cond_shown":"Congruent","ratio_trial":300,"L_num":4,"L_den":10,"R_num":1,"R_den":10,"correct_side":1,"subjID":"simoonacardenasvalbuena28","gender":"1","school":"6","age":"11"},{"start_time":1551794096806,"click_time":1551794098103,"finger_time":1551794097244,"fix_duration":740.092543733715,"trial":39,"RT":438,"MT":859,"sideResp":1,"stimulus":[],"xmouse":[776,776,776,776,776,776,776,776,776,776,776,776,776,776,776,775,775,774,774,774,772,770,769,767,765,759,752,737,730,723,721,721,719,717,715,703,693,676,658,640,615,607,603,600,595,559,548,541,538,537,536,534,533,530,529,526,524,521,517,507,483,475,470,469,463],"ymouse":[479,479,479,479,479,479,479,478,478,478,477,477,476,476,476,471,470,466,464,460,451,445,438,434,429,405,382,321,274,230,186,178,172,169,166,161,157,153,149,144,136,134,133,132,131,124,122,121,120,120,120,120,120,119,119,119,118,117,115,112,107,105,103,102,99],"timestamp_mouse":[19,42,57,78,98,119,139,158,178,198,217,239,259,277,299,318,338,358,379,398,418,438,457,478,498,517,538,558,578,598,618,637,658,678,699,719,738,758,779,797,817,837,858,879,898,918,938,958,978,999,1017,1037,1059,1079,1098,1118,1139,1159,1179,1198,1219,1238,1259,1278,1297],"xSR":741.5,"ySR":449.15000000000003,"xT1":424.9,"yT1":0,"xT2":1058.1,"yT2":0,"toosoon":0,"cond_shown":"Congruent","ratio_trial":300,"L_num":2,"L_den":20,"R_num":10,"R_den":25,"correct_side":2,"subjID":"simoonacardenasvalbuena28","gender":"1","school":"6","age":"11"},{"start_time":1551794100117,"click_time":1551794100823,"finger_time":1551794100585,"fix_duration":970.6244779056251,"trial":40,"RT":468,"MT":238,"sideResp":2,"stimulus":[],"xmouse":[808,808,808,808,808,808,808,808,808,808,808,808,808,808,808,808,808,808,808,808,809,809,813,817,823,886,932,986,1032,1064,1087,1091,1093,1095,1097,1099],"ymouse":[465,465,465,465,465,465,465,465,465,465,465,465,465,465,465,465,465,465,465,465,465,463,454,449,440,381,340,293,248,210,168,145,133,121,109,89],"timestamp_mouse":[9,36,46,68,86,107,126,148,167,186,208,227,246,268,286,307,327,348,368,386,407,427,446,468,487,506,527,546,566,588,606,626,646,667,687,706],"xSR":741.5,"ySR":449.15000000000003,"xT1":424.9,"yT1":0,"xT2":1058.1,"yT2":0,"toosoon":0,"cond_shown":"Congruent","ratio_trial":100,"L_num":1,"L_den":2,"R_num":3,"R_den":5,"correct_side":2,"subjID":"simoonacardenasvalbuena28","gender":"1","school":"6","age":"11"},{"start_time":1551794103183,"click_time":1551794104284,"finger_time":1551794103643,"fix_duration":1058.336097373594,"trial":41,"RT":460,"MT":641,"sideResp":1,"stimulus":[],"xmouse":[771,771,771,771,771,771,771,771,771,771,771,771,771,771,771,771,771,771,771,772,773,773,773,773,773,773,770,763,758,755,755,756,762,763,763,763,763,754,740,728,714,697,638,589,534,487,451,410,404,403,403,403,403,405,414,428],"ymouse":[468,468,468,467,467,466,466,466,466,465,465,465,465,464,464,462,462,461,459,458,457,456,451,446,439,425,411,377,346,328,314,304,278,260,240,223,204,171,153,146,142,140,136,136,136,135,135,135,134,134,134,134,122,111,94,80],"timestamp_mouse":[10,20,40,62,80,101,120,142,160,181,202,221,240,262,282,301,320,341,361,381,401,421,440,460,481,501,521,541,560,580,601,621,641,662,681,701,720,740,760,781,801,821,841,861,881,901,922,940,961,980,1001,1020,1041,1061,1080,1101],"xSR":741.5,"ySR":449.15000000000003,"xT1":424.9,"yT1":0,"xT2":1058.1,"yT2":0,"toosoon":0,"cond_shown":"Incongruent","ratio_trial":100,"L_num":2,"L_den":4,"R_num":6,"R_den":15,"correct_side":1,"subjID":"simoonacardenasvalbuena28","gender":"1","school":"6","age":"11"},{"start_time":1551794106592,"click_time":1551794107723,"finger_time":1551794107385,"fix_duration":1206.5359108291973,"trial":42,"RT":793,"MT":338,"sideResp":2,"stimulus":[],"xmouse":[779,779,779,779,779,779,779,779,779,779,779,779,779,779,779,779,779,779,779,779,779,779,778,778,778,778,778,777,777,777,777,777,777,776,776,775,775,775,775,777,780,790,798,808,818,828,859,873,887,904,923,962,984,1007,1027,1047,1078],"ymouse":[497,497,497,497,496,495,495,494,494,494,494,494,493,493,493,493,492,492,492,491,490,489,488,487,486,485,485,484,483,482,481,481,480,479,477,475,467,457,450,441,432,409,396,381,367,353,314,298,282,263,243,205,184,162,142,120,84],"timestamp_mouse":[11,39,52,72,92,113,133,151,171,191,211,232,252,272,293,313,332,351,372,391,412,432,452,471,492,513,532,552,572,593,613,632,652,671,692,712,731,752,772,793,811,832,852,871,891,912,932,952,971,991,1012,1032,1053,1072,1092,1111,1131],"xSR":741.5,"ySR":449.15000000000003,"xT1":424.9,"yT1":0,"xT2":1058.1,"yT2":0,"toosoon":0,"cond_shown":"Incongruent","ratio_trial":300,"L_num":1,"L_den":2,"R_num":2,"R_den":10,"correct_side":1,"subjID":"simoonacardenasvalbuena28","gender":"1","school":"6","age":"11"},{"start_time":1551794110358,"click_time":1551794111504,"finger_time":1551794110923,"fix_duration":1434.0107835285166,"trial":43,"RT":565,"MT":581,"sideResp":2,"stimulus":[],"xmouse":[777,777,777,777,777,777,777,777,777,777,777,777,777,777,777,777,777,777,777,777,777,777,776,774,772,771,770,769,768,768,768,772,777,784,788,790,791,792,795,796,796,797,797,798,800,803,810,819,852,885,906,926,946,1001,1034,1070,1093,1114],"ymouse":[486,486,486,486,486,486,486,486,486,486,486,486,486,485,483,483,481,480,480,480,479,479,477,473,468,464,461,456,432,418,401,389,373,354,344,335,330,320,303,293,291,289,288,285,281,279,272,266,249,237,227,218,208,174,150,124,108,92],"timestamp_mouse":[9,38,45,67,86,107,125,145,166,185,206,225,246,266,285,306,326,347,366,385,406,425,445,466,486,506,526,547,565,587,605,627,646,667,686,706,726,746,765,785,805,826,845,866,887,907,926,945,966,987,1005,1026,1046,1066,1085,1105,1125,1146],"xSR":741.5,"ySR":449.15000000000003,"xT1":424.9,"yT1":0,"xT2":1058.1,"yT2":0,"toosoon":0,"cond_shown":"Congruent","ratio_trial":300,"L_num":1,"L_den":20,"R_num":7,"R_den":20,"correct_side":2,"subjID":"simoonacardenasvalbuena28","gender":"1","school":"6","age":"11"},{"start_time":1551794113204,"click_time":1551794114464,"finger_time":1551794113804,"fix_duration":819.6624573608628,"trial":44,"RT":600,"MT":660,"sideResp":1,"stimulus":[],"xmouse":[777,777,777,777,777,777,777,777,777,777,777,777,777,777,777,777,777,777,777,777,777,777,777,777,777,777,776,774,769,767,760,756,755,755,755,752,744,723,690,642,488,384,267,162,86,37,0,0,1,9,30,87,126,171,212,299,342,361,373,379,397,414,431],"ymouse":[485,485,485,485,485,485,485,485,485,485,485,485,485,485,485,485,485,485,485,485,485,485,485,485,484,479,468,460,450,443,420,402,382,355,329,289,274,258,240,213,143,107,72,43,30,24,27,28,31,35,41,56,63,66,66,66,65,62,60,60,57,54,50],"timestamp_mouse":[33,40,60,80,99,121,139,161,180,199,219,241,259,281,301,320,341,361,379,401,420,439,461,480,499,519,539,560,580,600,620,641,660,679,699,719,740,760,781,800,820,839,860,880,899,919,940,960,981,999,1019,1039,1060,1080,1100,1121,1141,1160,1181,1201,1219,1239,1260],"xSR":741.5,"ySR":449.15000000000003,"xT1":424.9,"yT1":0,"xT2":1058.1,"yT2":0,"toosoon":0,"cond_shown":"Incongruent","ratio_trial":300,"L_num":3,"L_den":6,"R_num":4,"R_den":20,"correct_side":1,"subjID":"simoonacardenasvalbuena28","gender":"1","school":"6","age":"11"},{"start_time":1551794116895,"click_time":1551794118165,"finger_time":1551794117564,"fix_duration":1070.3798154942033,"trial":45,"RT":669,"MT":601,"sideResp":2,"stimulus":[],"xmouse":[794,794,794,794,794,794,794,794,794,794,794,794,794,794,794,794,794,794,794,794,794,794,794,794,794,794,794,794,794,794,794,798,803,808,815,830,879,906,935,958,971,978,978,978,978,979,984,989,993,997,1001,1006,1010,1012,1015,1022,1037,1040,1041,1043,1045,1053,1058,1060],"ymouse":[503,503,503,503,503,503,503,503,503,503,503,503,503,503,503,503,503,503,503,503,503,503,503,503,503,503,503,502,501,500,495,479,466,447,421,382,266,207,159,123,104,94,94,94,94,92,86,82,79,76,74,72,72,71,70,70,67,67,67,67,67,65,64,64],"timestamp_mouse":[9,45,49,69,89,108,129,149,170,188,210,229,248,268,290,310,330,350,368,390,408,429,448,469,490,509,530,549,570,589,608,629,650,669,689,709,728,748,769,789,809,829,850,868,889,909,929,948,969,989,1011,1028,1050,1070,1090,1110,1129,1149,1168,1189,1209,1229,1249,1269],"xSR":741.5,"ySR":449.15000000000003,"xT1":424.9,"yT1":0,"xT2":1058.1,"yT2":0,"toosoon":0,"cond_shown":"Incongruent","ratio_trial":200,"L_num":14,"L_den":30,"R_num":12,"R_den":18,"correct_side":2,"subjID":"simoonacardenasvalbuena28","gender":"1","school":"6","age":"11"},{"start_time":1551794120367,"click_time":1551794121225,"finger_time":1551794120963,"fix_duration":981.5729149583414,"trial":46,"RT":596,"MT":262,"sideResp":2,"stimulus":[],"xmouse":[788,788,788,788,788,788,788,788,788,788,788,788,788,788,788,788,788,788,788,787,787,787,786,786,786,786,785,785,785,787,792,800,832,854,877,897,908,937,962,982,1003,1023,1063],"ymouse":[474,474,474,474,474,474,474,474,474,474,474,474,474,474,474,474,474,474,474,474,474,473,473,472,472,470,468,464,457,449,436,417,355,303,257,220,195,159,135,118,105,93,73],"timestamp_mouse":[17,37,57,76,98,118,136,156,176,197,216,236,258,276,296,317,336,356,378,398,418,437,456,477,496,516,536,556,578,596,617,637,656,676,697,717,737,756,777,796,816,837,857],"xSR":741.5,"ySR":449.15000000000003,"xT1":424.9,"yT1":0,"xT2":1058.1,"yT2":0,"toosoon":0,"cond_shown":"Incongruent","ratio_trial":200,"L_num":14,"L_den":30,"R_num":6,"R_den":9,"correct_side":2,"subjID":"simoonacardenasvalbuena28","gender":"1","school":"6","age":"11"},{"start_time":1551794124145,"click_time":1551794125245,"finger_time":1551794124724,"fix_duration":1179.111035595671,"trial":47,"RT":579,"MT":521,"sideResp":1,"stimulus":[],"xmouse":[808,808,808,808,808,808,808,808,808,808,808,808,808,808,808,808,808,808,808,808,808,808,804,800,796,793,790,787,784,770,753,734,709,699,682,675,672,666,658,649,645,643,639,636,617,607,598,590,580,565,555,546,538,531,521,517],"ymouse":[500,500,500,500,500,500,500,500,500,500,500,500,500,500,500,500,500,500,500,500,500,498,492,489,481,478,472,467,459,430,389,348,305,278,227,211,198,184,172,160,156,155,154,153,147,145,144,143,141,139,135,130,125,119,107,99],"timestamp_mouse":[1,35,39,60,78,98,119,140,159,179,200,218,239,259,279,298,319,339,358,379,400,419,440,458,478,498,519,538,559,579,600,619,639,659,679,699,718,738,760,778,799,818,839,858,879,898,919,939,958,979,999,1019,1040,1059,1078,1100],"xSR":741.5,"ySR":449.15000000000003,"xT1":424.9,"yT1":0,"xT2":1058.1,"yT2":0,"toosoon":0,"cond_shown":"Congruent","ratio_trial":300,"L_num":1,"L_den":30,"R_num":8,"R_den":24,"correct_side":2,"subjID":"simoonacardenasvalbuena28","gender":"1","school":"6","age":"11"},{"start_time":1551794127785,"click_time":1551794129244,"finger_time":1551794128644,"fix_duration":1260.9863385209712,"trial":48,"RT":859,"MT":600,"sideResp":1,"stimulus":[],"xmouse":[797,797,797,797,797,797,797,797,797,797,797,797,797,797,797,797,797,797,797,797,797,797,797,797,797,797,795,790,789,788,788,788,788,788,788,787,786,785,784,784,779,773,765,755,747,741,724,694,678,665,656,650,647,645,645,645,644,639,631,614,590,556,549,548,547,546,537,535,535,535,535,531,521],"ymouse":[496,496,496,496,496,496,496,496,496,496,496,496,495,495,495,495,494,494,494,494,494,494,494,494,490,487,474,463,462,461,461,461,461,461,461,461,461,462,462,462,462,455,445,433,422,412,365,287,237,191,148,101,91,85,83,83,82,81,79,77,74,69,68,68,68,68,68,68,68,68,68,68,68],"timestamp_mouse":[18,38,59,79,98,118,139,158,179,200,218,238,258,278,298,318,339,359,378,398,419,438,460,478,499,518,538,558,578,599,618,639,658,679,699,718,738,759,778,799,818,839,859,878,899,919,938,958,978,1000,1019,1038,1058,1079,1099,1119,1138,1158,1178,1198,1219,1238,1260,1279,1298,1319,1339,1359,1379,1399,1419,1438,1459],"xSR":741.5,"ySR":449.15000000000003,"xT1":424.9,"yT1":0,"xT2":1058.1,"yT2":0,"toosoon":0,"cond_shown":"Incongruent","ratio_trial":300,"L_num":7,"L_den":10,"R_num":8,"R_den":20,"correct_side":1,"subjID":"simoonacardenasvalbuena28","gender":"1","school":"6","age":"11"},{"start_time":1551794132437,"click_time":1551794133623,"finger_time":1551794133144,"fix_duration":572.6130900602196,"trial":49,"RT":707,"MT":479,"sideResp":2,"stimulus":[],"xmouse":[794,794,794,794,794,793,793,793,793,793,793,793,793,793,793,793,793,793,793,793,793,793,793,793,793,793,793,793,793,793,793,795,797,804,824,838,863,876,887,898,902,909,915,924,952,961,971,980,985,988,988,988,988,990,1005,1018,1025,1033,1044,1075],"ymouse":[516,516,516,516,516,517,517,517,517,517,517,517,517,517,517,517,517,517,517,517,517,517,517,517,517,517,517,517,517,517,517,515,512,497,452,426,377,345,317,277,261,241,223,205,153,134,115,100,90,82,82,82,82,81,76,73,73,73,73,73],"timestamp_mouse":[9,37,46,66,87,107,127,146,166,186,207,227,246,267,286,307,327,346,367,386,406,428,447,466,487,506,527,546,567,588,607,627,646,666,687,707,727,746,767,786,807,827,846,867,886,908,926,948,966,986,1007,1026,1047,1067,1086,1107,1127,1147,1167,1186],"xSR":741.5,"ySR":449.15000000000003,"xT1":424.9,"yT1":0,"xT2":1058.1,"yT2":0,"toosoon":0,"cond_shown":"Congruent","ratio_trial":200,"L_num":13,"L_den":26,"R_num":14,"R_den":20,"correct_side":2,"subjID":"simoonacardenasvalbuena28","gender":"1","school":"6","age":"11"},{"start_time":1551794135796,"click_time":1551794136885,"finger_time":1551794136444,"fix_duration":1250.9460551295467,"trial":50,"RT":648,"MT":441,"sideResp":2,"stimulus":[],"xmouse":[790,790,790,790,790,790,790,790,790,790,790,790,790,790,790,790,790,790,790,790,790,790,790,790,790,790,790,790,790,790,792,799,799,800,802,806,822,826,833,836,841,851,859,870,881,893,906,910,922,936,955,995,1019,1039,1059],"ymouse":[496,496,496,496,496,496,496,496,496,496,496,496,496,496,496,496,496,496,496,496,496,496,496,496,496,496,496,496,496,495,493,458,429,394,359,329,276,266,244,235,227,215,208,199,189,179,161,156,149,142,131,108,95,84,72],"timestamp_mouse":[10,42,47,69,87,107,127,147,168,188,208,228,248,269,287,309,327,349,367,388,408,427,447,469,488,509,527,548,567,588,608,627,648,667,687,709,728,748,767,787,807,829,847,867,888,908,927,947,967,987,1008,1027,1047,1068,1089],"xSR":741.5,"ySR":449.15000000000003,"xT1":424.9,"yT1":0,"xT2":1058.1,"yT2":0,"toosoon":0,"cond_shown":"Incongruent","ratio_trial":100,"L_num":12,"L_den":30,"R_num":2,"R_den":4,"correct_side":2,"subjID":"simoonacardenasvalbuena28","gender":"1","school":"6","age":"11"},{"start_time":1551794138746,"click_time":1551794139444,"finger_time":1551794139203,"fix_duration":621.248043204792,"trial":51,"RT":457,"MT":241,"sideResp":2,"stimulus":[],"xmouse":[800,800,800,800,800,800,800,800,800,800,800,800,800,800,800,800,800,800,800,800,800,803,811,824,830,839,848,861,887,915,937,971,1004,1053,1078],"ymouse":[506,506,506,506,506,506,506,506,506,506,506,506,506,506,506,506,506,506,506,504,482,462,438,387,362,335,308,284,239,198,173,140,110,66,51],"timestamp_mouse":[17,43,59,77,98,117,138,158,178,197,219,238,258,277,297,317,337,357,377,397,417,438,457,477,497,517,537,559,578,598,617,638,658,677,698],"xSR":741.5,"ySR":449.15000000000003,"xT1":424.9,"yT1":0,"xT2":1058.1,"yT2":0,"toosoon":0,"cond_shown":"Congruent","ratio_trial":200,"L_num":15,"L_den":25,"R_num":4,"R_den":10,"correct_side":1,"subjID":"simoonacardenasvalbuena28","gender":"1","school":"6","age":"11"},{"start_time":1551794140990,"click_time":1551794142023,"finger_time":1551794141423,"fix_duration":665.9776224877154,"trial":52,"RT":433,"MT":600,"sideResp":1,"stimulus":[],"xmouse":[767,767,767,768,768,770,772,777,778,779,779,780,780,780,780,781,782,782,782,782,784,784,784,784,779,773,748,743,738,733,727,713,699,688,677,668,643,625,615,607,602,589,581,569,555,550,538,536,534,532,528,522],"ymouse":[539,537,536,535,532,528,523,512,510,508,507,506,506,505,504,503,498,492,488,482,473,442,419,397,371,348,305,295,288,278,268,240,221,205,191,177,153,140,133,125,119,105,97,86,77,74,70,70,70,70,70,70],"timestamp_mouse":[14,37,55,73,94,115,133,153,174,194,214,234,254,274,294,314,334,354,373,393,414,433,453,473,493,513,534,555,574,594,613,633,653,674,695,714,733,753,774,793,814,833,853,873,893,914,934,954,973,994,1013,1033],"xSR":741.5,"ySR":449.15000000000003,"xT1":424.9,"yT1":0,"xT2":1058.1,"yT2":0,"toosoon":0,"cond_shown":"Congruent","ratio_trial":300,"L_num":1,"L_den":20,"R_num":7,"R_den":20,"correct_side":2,"subjID":"simoonacardenasvalbuena28","gender":"1","school":"6","age":"11"},{"start_time":1551794144685,"click_time":1551794145844,"finger_time":1551794145505,"fix_duration":320.89636560891853,"trial":53,"RT":820,"MT":339,"sideResp":1,"stimulus":[],"xmouse":[798,798,797,797,796,795,795,795,795,795,795,795,795,795,795,795,795,795,795,795,795,795,795,795,795,795,795,795,795,795,795,795,795,795,795,795,795,795,790,788,786,779,775,769,758,746,719,706,696,691,679,663,608,584,564,545,506,467],"ymouse":[474,474,474,475,476,476,476,476,476,476,476,476,476,476,476,476,476,476,476,476,476,476,476,476,476,476,476,476,476,476,476,476,476,476,476,476,476,476,462,454,430,334,307,282,258,244,231,228,223,220,213,207,182,172,164,153,118,41],"timestamp_mouse":[20,39,59,78,98,120,139,158,179,199,218,239,258,280,298,320,338,360,378,400,418,439,459,478,499,519,539,559,578,600,618,640,658,680,699,719,739,759,779,799,820,839,859,878,899,918,939,958,978,999,1018,1038,1059,1078,1099,1118,1138,1158],"xSR":741.5,"ySR":449.15000000000003,"xT1":424.9,"yT1":0,"xT2":1058.1,"yT2":0,"toosoon":0,"cond_shown":"Congruent","ratio_trial":300,"L_num":4,"L_den":20,"R_num":13,"R_den":26,"correct_side":2,"subjID":"simoonacardenasvalbuena28","gender":"1","school":"6","age":"11"},{"start_time":1551794149141,"click_time":1551794150264,"finger_time":1551794149623,"fix_duration":655.9844940416488,"trial":54,"RT":482,"MT":641,"sideResp":2,"stimulus":[],"xmouse":[786,786,786,786,786,786,786,786,786,786,786,786,786,786,786,786,786,786,786,786,786,786,786,789,801,811,822,825,830,834,834,836,836,841,851,857,863,867,873,885,900,911,924,938,968,976,979,979,979,980,983,988,997,1011,1051,1066,1079],"ymouse":[451,451,451,451,451,452,453,456,457,459,460,461,461,461,461,461,461,461,461,461,461,461,461,450,423,405,385,372,359,337,327,320,313,302,284,274,264,257,250,236,221,210,197,182,152,143,138,138,138,137,134,130,126,121,110,103,99],"timestamp_mouse":[8,37,42,63,82,103,123,143,163,183,203,222,242,263,282,304,322,343,363,382,403,423,442,462,482,504,522,543,562,583,602,623,642,663,682,702,722,742,763,782,804,822,844,863,883,904,924,944,963,982,1004,1024,1042,1062,1083,1102,1123],"xSR":741.5,"ySR":449.15000000000003,"xT1":424.9,"yT1":0,"xT2":1058.1,"yT2":0,"toosoon":0,"cond_shown":"Incongruent","ratio_trial":300,"L_num":8,"L_den":10,"R_num":9,"R_den":18,"correct_side":1,"subjID":"simoonacardenasvalbuena28","gender":"1","school":"6","age":"11"},{"start_time":1551794152364,"click_time":1551794154404,"finger_time":1551794153803,"fix_duration":1217.530818534893,"trial":55,"RT":1439,"MT":601,"sideResp":1,"stimulus":[],"xmouse":[827,827,827,827,827,827,827,827,827,827,827,827,827,827,827,827,827,827,827,827,827,827,827,827,827,827,827,827,827,827,826,826,826,826,826,826,826,826,826,826,826,826,826,826,826,826,826,826,826,826,826,826,826,826,826,826,826,826,826,826,826,826,826,826,826,826,826,826,817,810,798,786,776,757,713,694,676,660,642,639,639,642,642,642,631,619,604,583,569,569,569,569,569,569,569,569,569,569,569,569,569,569,504],"ymouse":[496,496,496,496,496,496,496,496,496,496,496,496,496,496,496,496,496,496,496,496,496,496,496,496,496,496,496,496,496,496,496,496,496,496,496,496,496,496,496,496,496,496,496,496,496,496,496,496,496,496,496,496,496,496,496,496,496,496,496,496,496,496,496,496,496,496,496,496,490,484,472,458,443,424,391,378,364,351,322,295,271,249,224,170,135,96,61,26,3,3,3,3,3,3,3,3,3,3,3,3,3,3,3],"timestamp_mouse":[8,20,43,60,79,99,119,140,160,180,201,219,239,260,280,300,319,339,361,380,401,419,439,459,480,501,520,539,560,581,600,620,639,659,679,701,719,741,759,779,800,819,840,860,880,900,921,939,959,980,999,1020,1039,1065,1080,1099,1120,1140,1159,1180,1199,1220,1239,1260,1279,1300,1319,1340,1360,1380,1400,1420,1439,1459,1479,1499,1519,1540,1559,1579,1599,1620,1640,1659,1680,1699,1720,1740,1760,1780,1799,1820,1839,1859,1880,1900,1919,1941,1960,1980,1999,2020,2039],"xSR":741.5,"ySR":449.15000000000003,"xT1":424.9,"yT1":0,"xT2":1058.1,"yT2":0,"toosoon":0,"cond_shown":"Incongruent","ratio_trial":300,"L_num":13,"L_den":26,"R_num":12,"R_den":15,"correct_side":2,"subjID":"simoonacardenasvalbuena28","gender":"1","school":"6","age":"11"},{"start_time":1551794158420,"click_time":1551794159424,"finger_time":1551794158844,"fix_duration":655.4093199304368,"trial":56,"RT":424,"MT":580,"sideResp":2,"stimulus":[],"xmouse":[805,805,805,805,805,805,805,805,805,805,805,805,805,805,805,805,805,805,804,804,804,805,807,810,814,820,825,831,839,850,878,893,905,914,920,937,955,972,993,1012,1051,1061,1065,1065,1065,1065,1066,1066,1066,1067,1069],"ymouse":[482,482,482,482,482,482,482,482,482,482,482,482,482,482,482,482,482,482,480,475,456,441,424,405,383,339,307,288,269,254,222,208,199,193,189,182,176,171,163,155,143,140,138,138,138,138,138,134,128,113,97],"timestamp_mouse":[9,33,43,65,84,105,123,145,164,183,204,223,245,263,283,303,323,345,364,384,403,424,444,464,484,503,524,543,564,584,603,625,644,664,684,704,724,743,765,784,804,823,844,864,884,904,925,944,963,983,1004],"xSR":741.5,"ySR":449.15000000000003,"xT1":424.9,"yT1":0,"xT2":1058.1,"yT2":0,"toosoon":0,"cond_shown":"Incongruent","ratio_trial":200,"L_num":1,"L_den":2,"R_num":3,"R_den":10,"correct_side":1,"subjID":"simoonacardenasvalbuena28","gender":"1","school":"6","age":"11"},{"start_time":1551794166632,"click_time":1551794167224,"finger_time":1551794167044,"fix_duration":1407.2305572267471,"trial":57,"RT":412,"MT":180,"sideResp":1,"stimulus":[],"xmouse":[821,821,821,821,821,821,821,821,821,821,821,821,821,821,821,821,820,816,811,785,760,726,688,645,569,547,539,532,527,488],"ymouse":[502,502,502,502,502,502,502,502,502,502,502,502,502,502,502,502,502,496,485,450,426,398,364,332,272,240,219,196,169,84],"timestamp_mouse":[11,41,52,71,91,113,131,153,173,192,213,231,253,272,292,312,332,352,372,392,412,431,451,473,491,514,532,553,571,592],"xSR":741.5,"ySR":449.15000000000003,"xT1":424.9,"yT1":0,"xT2":1058.1,"yT2":0,"toosoon":0,"cond_shown":"Congruent","ratio_trial":300,"L_num":7,"L_den":14,"R_num":20,"R_den":25,"correct_side":2,"subjID":"simoonacardenasvalbuena28","gender":"1","school":"6","age":"11"},{"start_time":1551794173409,"click_time":1551794174204,"finger_time":1551794173864,"fix_duration":1224.2253749960805,"trial":58,"RT":455,"MT":340,"sideResp":2,"stimulus":[],"xmouse":[792,792,792,792,792,792,792,792,792,792,792,792,792,792,792,792,792,792,792,792,792,793,801,807,821,840,860,876,892,905,935,949,957,967,977,996,1019,1035,1048,1062],"ymouse":[512,512,512,512,512,512,512,512,512,512,512,512,512,512,512,512,512,512,512,505,483,456,422,385,341,271,231,204,177,156,119,104,95,87,83,75,71,68,68,68],"timestamp_mouse":[15,40,55,75,96,115,135,156,175,195,216,234,255,275,295,314,335,355,375,394,414,434,455,475,496,514,534,554,574,594,615,634,655,674,695,714,735,755,776,795],"xSR":741.5,"ySR":449.15000000000003,"xT1":424.9,"yT1":0,"xT2":1058.1,"yT2":0,"toosoon":0,"cond_shown":"Congruent","ratio_trial":100,"L_num":11,"L_den":22,"R_num":4,"R_den":10,"correct_side":1,"subjID":"simoonacardenasvalbuena28","gender":"1","school":"6","age":"11"},{"start_time":1551794175395,"click_time":1551794176224,"finger_time":1551794175844,"fix_duration":250,"trial":59,"RT":449,"MT":380,"sideResp":1,"stimulus":[],"xmouse":[817,812,812,812,812,812,810,809,807,807,805,805,805,805,805,805,805,805,805,805,808,819,834,856,881,905,902,895,885,876,849,827,792,749,706,630,598,579,558,539,507],"ymouse":[496,499,500,500,500,500,501,502,505,506,509,509,509,509,509,509,509,509,509,507,483,433,366,285,203,97,69,61,59,59,59,57,54,48,44,42,42,47,53,58,67],"timestamp_mouse":[35,49,68,89,109,130,149,169,189,210,228,248,268,288,309,328,349,368,389,409,429,449,469,488,508,529,549,568,589,609,629,648,668,688,709,729,749,769,788,808,828],"xSR":741.5,"ySR":449.15000000000003,"xT1":424.9,"yT1":0,"xT2":1058.1,"yT2":0,"toosoon":0,"cond_shown":"Incongruent","ratio_trial":100,"L_num":2,"L_den":4,"R_num":6,"R_den":15,"correct_side":1,"subjID":"simoonacardenasvalbuena28","gender":"1","school":"6","age":"11"},{"start_time":1551794179762,"click_time":1551794180602,"finger_time":1551794180302,"fix_duration":1216.7951461039795,"trial":60,"RT":540,"MT":300,"sideResp":1,"stimulus":[],"xmouse":[778,778,778,778,778,778,778,778,778,778,778,777,777,777,777,777,777,777,777,777,777,777,777,776,775,773,766,759,706,678,650,631,616,602,601,600,595,584,569,549,531,512,502],"ymouse":[499,499,499,499,499,499,499,499,499,497,494,493,492,492,492,492,492,492,492,492,492,492,492,490,484,472,450,423,279,227,186,162,146,136,135,135,133,129,124,114,107,102,99],"timestamp_mouse":[10,21,44,60,82,101,122,140,160,182,201,221,241,262,280,300,320,340,360,381,401,420,440,461,481,502,521,540,561,581,600,620,641,661,680,701,721,740,761,780,801,821,840],"xSR":741.5,"ySR":449.15000000000003,"xT1":424.9,"yT1":0,"xT2":1058.1,"yT2":0,"toosoon":0,"cond_shown":"Incongruent","ratio_trial":200,"L_num":7,"L_den":10,"R_num":12,"R_den":24,"correct_side":1,"subjID":"simoonacardenasvalbuena28","gender":"1","school":"6","age":"11"},{"start_time":1551794182037,"click_time":1551794183223,"finger_time":1551794182522,"fix_duration":492.79975853878267,"trial":61,"RT":485,"MT":701,"sideResp":1,"stimulus":[],"xmouse":[766,766,766,766,766,766,766,766,766,766,766,766,766,766,766,766,766,766,766,765,764,763,763,762,758,755,753,752,752,748,747,744,742,739,727,717,713,709,702,688,682,677,672,669,660,636,617,589,547,487,470,455,448,444,440,437,437,437,437,438],"ymouse":[499,499,499,499,499,499,499,499,499,499,499,499,499,499,499,499,496,493,489,483,480,477,470,462,435,416,407,399,392,369,357,342,324,304,251,216,200,186,169,148,140,135,132,129,125,119,116,114,113,112,110,107,106,105,103,103,103,103,102,96],"timestamp_mouse":[9,36,45,65,85,106,126,145,166,186,205,227,245,267,285,307,325,347,366,386,405,426,445,466,485,505,525,546,565,587,606,626,645,666,686,706,725,746,766,785,806,825,846,867,885,906,926,947,966,986,1005,102