[{"start_time":1551794497319,"click_time":1551794498821,"finger_time":1551794498081,"fix_duration":974.7527875414306,"trial":0,"RT":762,"MT":740,"sideResp":2,"stimulus":"img/500/equaldotanddens/R/14_Ratio_500_L_5_R_10.png","xmouse":[810,810,810,811,811,811,811,811,811,811,811,811,811,811,811,811,811,811,811,811,811,811,811,811,811,811,811,811,811,811,811,811,811,811,814,821,831,844,868,908,956,964,965,965,965,973,987,1008,1030,1054,1140,1171,1195,1195,1195,1195,1195,1195,1195,1195,1195,1195,1195,1195,1195,1195,1195,1195,1195,1195,1195,1195,1195,1195,1111],"ymouse":[513,513,513,512,512,512,512,512,512,512,512,512,512,512,512,512,512,512,512,512,512,512,512,512,512,512,512,512,512,512,512,512,512,512,507,486,467,443,408,355,314,309,309,309,309,304,295,283,272,254,142,79,23,23,23,23,23,23,23,23,23,23,23,23,23,23,23,23,23,23,23,23,23,23,2],"timestamp_mouse":[9,47,62,81,101,120,142,161,182,201,221,240,261,280,302,321,341,361,380,400,421,442,460,482,500,521,542,560,580,601,620,642,660,680,700,720,740,762,780,800,820,840,861,880,902,920,940,961,982,1002,1020,1041,1061,1082,1101,1120,1141,1160,1181,1201,1220,1241,1260,1281,1302,1321,1342,1362,1382,1401,1420,1441,1460,1481,1501],"xSR":741.5,"ySR":481,"xT1":424.9,"yT1":0,"xT2":1058.1,"yT2":0,"toosoon":0,"cond_shown":"equaldotanddens","ratio_trial":500,"smaller_num":"5","larger_num":"10","correct_side":2,"subjID":"simonacardenasvalbuena28","gender":"1","age":"11","school":"6","test":{"fix_dur":[250,1500],"timestim":300,"targets_dim":[100,100],"targets_relative_coord":[0.3,0.7],"size_stim":[880,420],"start_dim":[100,100],"size_start":[300,300],"size_fix":60,"samplingrate":20,"img_types":["equaldotsize","equaldotanddens","randomdotsizeEA"],"ratios":[250,500,750,900],"rep_conds":9,"nTrials":120,"trials_to_rest":500,"Trials_order":[16,69,85,50,66,45,12,72,104,43,49,17,30,55,115,40,87,18,8,83,51,14,53,105,116,71,112,81,101,6,77,0,31,25,82,20,39,27,46,89,103,44,117,19,42,88,48,91,9,15,54,60,23,74,29,102,93,1,62,79,37,78,119,80,41,94,34,100,4,64,38,22,98,106,36,95,35,5,97,32,10,114,75,52,111,67,33,109,76,59,108,84,70,113,86,96,73,99,110,68,57,2,63,56,47,3,11,13,24,28,90,26,21,118,107,65,7,58,92,61],"cond_shown":["equaldotanddens","equaldotsize","equaldotanddens","randomdotsizeEA","equaldotsize","equaldotsize","equaldotsize","equaldotsize","randomdotsizeEA","equaldotanddens","equaldotanddens","randomdotsizeEA","equaldotsize","equaldotanddens","equaldotanddens","equaldotanddens","equaldotsize","equaldotsize","randomdotsizeEA","randomdotsizeEA","equaldotsize","randomdotsizeEA","randomdotsizeEA","equaldotsize","randomdotsizeEA","randomdotsizeEA","equaldotanddens","equaldotsize","randomdotsizeEA","equaldotsize","randomdotsizeEA","equaldotsize","equaldotanddens","equaldotanddens","equaldotanddens","randomdotsizeEA","equaldotsize","equaldotsize","equaldotanddens","randomdotsizeEA","equaldotanddens","randomdotsizeEA","equaldotsize","equaldotanddens","equaldotsize","equaldotanddens","equaldotsize","equaldotanddens","equaldotsize","equaldotsize","equaldotsize","equaldotsize","randomdotsizeEA","randomdotsizeEA","randomdotsizeEA","equaldotsize","equaldotsize","equaldotanddens","randomdotsizeEA","equaldotanddens","equaldotanddens","equaldotsize","randomdotsizeEA","randomdotsizeEA","randomdotsizeEA","equaldotanddens","equaldotanddens","equaldotanddens","equaldotanddens","equaldotanddens","randomdotsizeEA","equaldotanddens","randomdotsizeEA","equaldotanddens","equaldotsize","randomdotsizeEA","randomdotsizeEA","randomdotsizeEA","equaldotanddens","randomdotsizeEA","equaldotanddens","equaldotsize","equaldotsize","equaldotanddens","equaldotsize","equaldotanddens","equaldotsize","equaldotanddens","equaldotanddens","randomdotsizeEA","equaldotsize","equaldotsize","equaldotanddens","randomdotsizeEA","randomdotsizeEA","equaldotsize","equaldotanddens","equaldotsize","randomdotsizeEA","randomdotsizeEA","equaldotsize","randomdotsizeEA","equaldotsize","randomdotsizeEA","randomdotsizeEA","equaldotsize","randomdotsizeEA","equaldotanddens","equaldotsize","equaldotanddens","equaldotsize","randomdotsizeEA","equaldotsize","equaldotanddens","randomdotsizeEA","randomdotsizeEA","equaldotanddens","equaldotanddens","randomdotsizeEA","equaldotanddens"],"ratio_trial":[500,900,250,250,750,900,250,250,750,750,250,500,750,750,750,500,500,750,750,900,500,250,500,900,750,900,500,900,500,750,500,250,750,250,900,750,500,500,900,500,750,750,900,750,750,500,250,750,900,500,750,250,900,250,500,750,900,250,250,750,250,750,900,750,500,900,900,500,500,500,250,900,250,900,250,900,900,500,250,750,900,750,500,500,500,750,900,250,500,900,250,250,900,500,250,250,250,500,250,750,900,250,500,750,900,500,900,250,250,500,750,250,900,900,900,500,750,900,750,250],"smaller_num":["5","9","2","3","6","18","4","3","15","18","2","9","15","12","6","9","4","15","18","18","9","3","9","18","3","9","2","18","2","3","9","2","6","6","18","18","2","1","9","9","3","12","9","3","3","2","4","6","9","2","15","4","18","4","1","12","18","4","2","6","1","3","18","6","4","9","18","5","2","1","3","18","1","18","2","9","18","10","6","12","18","6","2","9","10","15","18","6","5","18","2","4","18","1","2","3","6","2","2","6","18","2","2","3","9","9","9","5","3","9","3","1","18","18","9","9","6","9","3","3"],"larger_num":["10","10","8","12","8","20","16","12","20","24","8","18","20","16","8","18","8","20","24","20","18","12","18","20","4","10","4","20","4","4","18","8","8","24","20","24","4","2","10","18","4","16","10","4","4","4","16","8","10","4","20","16","20","16","2","16","20","16","8","8","4","4","20","8","8","10","20","10","4","2","12","20","4","20","8","10","20","20","24","16","20","8","4","18","20","20","20","24","10","20","8","16","20","2","8","12","24","4","8","8","20","8","4","4","10","18","10","20","12","18","4","4","20","20","10","18","8","10","4","12"],"correct_side":[2,2,1,1,1,1,1,1,2,1,1,2,2,2,1,2,1,2,1,1,1,2,2,1,1,2,2,1,1,1,2,1,1,2,2,1,1,2,2,2,1,2,2,1,1,1,1,2,2,2,2,1,1,2,2,2,2,2,1,1,2,1,2,2,1,1,1,1,2,2,1,1,2,1,2,2,2,2,2,2,1,1,1,1,2,2,1,1,2,1,1,2,2,2,1,1,2,1,1,2,2,1,2,2,2,1,1,2,2,1,1,2,2,2,2,2,2,2,2,1],"img_shown":["img/500/equaldotanddens/R/14_Ratio_500_L_5_R_10.png","img/900/equaldotsize/R/15_Ratio_900_L_9_R_10.png","img/250/equaldotanddens/L/3_Ratio_250_L_8_R_2.png","img/250/randomdotsizeEA/L/14_Ratio_250_L_12_R_3.png","img/750/equaldotsize/L/13_Ratio_750_L_8_R_6.png","img/900/equaldotsize/L/10_Ratio_900_L_20_R_18.png","img/250/equaldotsize/L/2_Ratio_250_L_16_R_4.png","img/250/equaldotsize/L/14_Ratio_250_L_12_R_3.png","img/750/randomdotsizeEA/R/5_Ratio_750_L_15_R_20.png","img/750/equaldotanddens/L/6_Ratio_750_L_24_R_18.png","img/250/equaldotanddens/L/1_Ratio_250_L_8_R_2.png","img/500/randomdotsizeEA/R/6_Ratio_500_L_9_R_18.png","img/750/equaldotsize/R/3_Ratio_750_L_15_R_20.png","img/750/equaldotanddens/R/11_Ratio_750_L_12_R_16.png","img/750/equaldotanddens/L/14_Ratio_750_L_8_R_6.png","img/500/equaldotanddens/R/1_Ratio_500_L_9_R_18.png","img/500/equaldotsize/L/8_Ratio_500_L_8_R_4.png","img/750/equaldotsize/R/4_Ratio_750_L_15_R_20.png","img/750/randomdotsizeEA/L/6_Ratio_750_L_24_R_18.png","img/900/randomdotsizeEA/L/2_Ratio_900_L_20_R_18.png","img/500/equaldotsize/L/4_Ratio_500_L_18_R_9.png","img/250/randomdotsizeEA/R/4_Ratio_250_L_3_R_12.png","img/500/randomdotsizeEA/R/1_Ratio_500_L_9_R_18.png","img/900/equaldotsize/L/8_Ratio_900_L_20_R_18.png","img/750/randomdotsizeEA/L/8_Ratio_750_L_4_R_3.png","img/900/randomdotsizeEA/R/7_Ratio_900_L_9_R_10.png","img/500/equaldotanddens/R/9_Ratio_500_L_2_R_4.png","img/900/equaldotsize/L/4_Ratio_900_L_20_R_18.png","img/500/randomdotsizeEA/L/5_Ratio_500_L_4_R_2.png","img/750/equaldotsize/L/10_Ratio_750_L_4_R_3.png","img/500/randomdotsizeEA/R/1_Ratio_500_L_9_R_18.png","img/250/equaldotsize/L/1_Ratio_250_L_8_R_2.png","img/750/equaldotanddens/L/14_Ratio_750_L_8_R_6.png","img/250/equaldotanddens/R/6_Ratio_250_L_6_R_24.png","img/900/equaldotanddens/R/14_Ratio_900_L_18_R_20.png","img/750/randomdotsizeEA/L/6_Ratio_750_L_24_R_18.png","img/500/equaldotsize/L/10_Ratio_500_L_4_R_2.png","img/500/equaldotsize/R/15_Ratio_500_L_1_R_2.png","img/900/equaldotanddens/R/7_Ratio_900_L_9_R_10.png","img/500/randomdotsizeEA/R/6_Ratio_500_L_9_R_18.png","img/750/equaldotanddens/L/8_Ratio_750_L_4_R_3.png","img/750/randomdotsizeEA/R/11_Ratio_750_L_12_R_16.png","img/900/equaldotsize/R/3_Ratio_900_L_9_R_10.png","img/750/equaldotanddens/L/9_Ratio_750_L_4_R_3.png","img/750/equaldotsize/L/8_Ratio_750_L_4_R_3.png","img/500/equaldotanddens/L/5_Ratio_500_L_4_R_2.png","img/250/equaldotsize/L/2_Ratio_250_L_16_R_4.png","img/750/equaldotanddens/R/2_Ratio_750_L_6_R_8.png","img/900/equaldotsize/R/3_Ratio_900_L_9_R_10.png","img/500/equaldotsize/R/9_Ratio_500_L_2_R_4.png","img/750/equaldotsize/R/3_Ratio_750_L_15_R_20.png","img/250/equaldotsize/L/2_Ratio_250_L_16_R_4.png","img/900/randomdotsizeEA/L/4_Ratio_900_L_20_R_18.png","img/250/randomdotsizeEA/R/10_Ratio_250_L_4_R_16.png","img/500/randomdotsizeEA/R/12_Ratio_500_L_1_R_2.png","img/750/equaldotsize/R/11_Ratio_750_L_12_R_16.png","img/900/equaldotsize/R/14_Ratio_900_L_18_R_20.png","img/250/equaldotanddens/R/10_Ratio_250_L_4_R_16.png","img/250/randomdotsizeEA/L/7_Ratio_250_L_8_R_2.png","img/750/equaldotanddens/L/14_Ratio_750_L_8_R_6.png","img/250/equaldotanddens/R/8_Ratio_250_L_1_R_4.png","img/750/equaldotsize/L/8_Ratio_750_L_4_R_3.png","img/900/randomdotsizeEA/R/9_Ratio_900_L_18_R_20.png","img/750/randomdotsizeEA/R/2_Ratio_750_L_6_R_8.png","img/500/randomdotsizeEA/L/8_Ratio_500_L_8_R_4.png","img/900/equaldotanddens/L/1_Ratio_900_L_10_R_9.png","img/900/equaldotanddens/L/8_Ratio_900_L_20_R_18.png","img/500/equaldotanddens/L/7_Ratio_500_L_10_R_5.png","img/500/equaldotanddens/R/9_Ratio_500_L_2_R_4.png","img/500/equaldotanddens/R/15_Ratio_500_L_1_R_2.png","img/250/randomdotsizeEA/L/15_Ratio_250_L_12_R_3.png","img/900/equaldotanddens/L/8_Ratio_900_L_20_R_18.png","img/250/randomdotsizeEA/R/8_Ratio_250_L_1_R_4.png","img/900/equaldotanddens/L/4_Ratio_900_L_20_R_18.png","img/250/equaldotsize/R/13_Ratio_250_L_2_R_8.png","img/900/randomdotsizeEA/R/15_Ratio_900_L_9_R_10.png","img/900/randomdotsizeEA/R/12_Ratio_900_L_18_R_20.png","img/500/randomdotsizeEA/R/3_Ratio_500_L_10_R_20.png","img/250/equaldotanddens/R/6_Ratio_250_L_6_R_24.png","img/750/randomdotsizeEA/R/11_Ratio_750_L_12_R_16.png","img/900/equaldotanddens/L/4_Ratio_900_L_20_R_18.png","img/750/equaldotsize/L/14_Ratio_750_L_8_R_6.png","img/500/equaldotsize/L/5_Ratio_500_L_4_R_2.png","img/500/equaldotanddens/L/4_Ratio_500_L_18_R_9.png","img/500/equaldotsize/R/3_Ratio_500_L_10_R_20.png","img/750/equaldotanddens/R/3_Ratio_750_L_15_R_20.png","img/900/equaldotsize/L/8_Ratio_900_L_20_R_18.png","img/250/equaldotanddens/L/5_Ratio_250_L_24_R_6.png","img/500/equaldotanddens/R/14_Ratio_500_L_5_R_10.png","img/900/randomdotsizeEA/L/10_Ratio_900_L_20_R_18.png","img/250/equaldotsize/L/3_Ratio_250_L_8_R_2.png","img/250/equaldotsize/R/10_Ratio_250_L_4_R_16.png","img/900/equaldotanddens/R/12_Ratio_900_L_18_R_20.png","img/500/randomdotsizeEA/R/12_Ratio_500_L_1_R_2.png","img/250/randomdotsizeEA/L/3_Ratio_250_L_8_R_2.png","img/250/equaldotsize/L/14_Ratio_250_L_12_R_3.png","img/250/equaldotanddens/R/6_Ratio_250_L_6_R_24.png","img/500/equaldotsize/L/5_Ratio_500_L_4_R_2.png","img/250/randomdotsizeEA/L/3_Ratio_250_L_8_R_2.png","img/750/randomdotsizeEA/R/2_Ratio_750_L_6_R_8.png","img/900/equaldotsize/R/12_Ratio_900_L_18_R_20.png","img/250/randomdotsizeEA/L/1_Ratio_250_L_8_R_2.png","img/500/equaldotsize/R/9_Ratio_500_L_2_R_4.png","img/750/randomdotsizeEA/R/12_Ratio_750_L_3_R_4.png","img/900/randomdotsizeEA/R/5_Ratio_900_L_9_R_10.png","img/500/equaldotsize/L/4_Ratio_500_L_18_R_9.png","img/900/randomdotsizeEA/L/1_Ratio_900_L_10_R_9.png","img/250/equaldotanddens/R/12_Ratio_250_L_5_R_20.png","img/250/equaldotsize/R/4_Ratio_250_L_3_R_12.png","img/500/equaldotanddens/L/4_Ratio_500_L_18_R_9.png","img/750/equaldotsize/L/10_Ratio_750_L_4_R_3.png","img/250/randomdotsizeEA/R/8_Ratio_250_L_1_R_4.png","img/900/equaldotsize/R/11_Ratio_900_L_18_R_20.png","img/900/equaldotanddens/R/14_Ratio_900_L_18_R_20.png","img/900/randomdotsizeEA/R/7_Ratio_900_L_9_R_10.png","img/500/randomdotsizeEA/R/6_Ratio_500_L_9_R_18.png","img/750/equaldotanddens/R/2_Ratio_750_L_6_R_8.png","img/900/equaldotanddens/R/5_Ratio_900_L_9_R_10.png","img/750/randomdotsizeEA/R/12_Ratio_750_L_3_R_4.png","img/250/equaldotanddens/L/15_Ratio_250_L_12_R_3.png"],"Rat0":[["12_Ratio_0_L_9_R_0.png","13_Ratio_0_L_6_R_0.png","5_Ratio_0_L_2_R_0.png","6_Ratio_0_L_4_R_0.png","8_Ratio_0_L_6_R_0.png"],["1_Ratio_0_L_0_R_17.png","10_Ratio_0_L_0_R_22.png","11_Ratio_0_L_0_R_1.png","14_Ratio_0_L_0_R_24.png","15_Ratio_0_L_0_R_4.png","2_Ratio_0_L_0_R_5.png","3_Ratio_0_L_0_R_17.png","4_Ratio_0_L_0_R_7.png","7_Ratio_0_L_0_R_19.png","9_Ratio_0_L_0_R_15.png"]],"Rat250":[["1_Ratio_250_L_8_R_2.png","14_Ratio_250_L_12_R_3.png","15_Ratio_250_L_12_R_3.png","2_Ratio_250_L_16_R_4.png","3_Ratio_250_L_8_R_2.png","5_Ratio_250_L_24_R_6.png","7_Ratio_250_L_8_R_2.png"],["10_Ratio_250_L_4_R_16.png","11_Ratio_250_L_3_R_12.png","12_Ratio_250_L_5_R_20.png","13_Ratio_250_L_2_R_8.png","4_Ratio_250_L_3_R_12.png","6_Ratio_250_L_6_R_24.png","8_Ratio_250_L_1_R_4.png","9_Ratio_250_L_3_R_12.png"]],"Rat500":[["10_Ratio_500_L_4_R_2.png","11_Ratio_500_L_12_R_6.png","13_Ratio_500_L_12_R_6.png","4_Ratio_500_L_18_R_9.png","5_Ratio_500_L_4_R_2.png","7_Ratio_500_L_10_R_5.png","8_Ratio_500_L_8_R_4.png"],["1_Ratio_500_L_9_R_18.png","12_Ratio_500_L_1_R_2.png","14_Ratio_500_L_5_R_10.png","15_Ratio_500_L_1_R_2.png","2_Ratio_500_L_3_R_6.png","3_Ratio_500_L_10_R_20.png","6_Ratio_500_L_9_R_18.png","9_Ratio_500_L_2_R_4.png"]],"Rat750":[["1_Ratio_750_L_20_R_15.png","10_Ratio_750_L_4_R_3.png","13_Ratio_750_L_8_R_6.png","14_Ratio_750_L_8_R_6.png","6_Ratio_750_L_24_R_18.png","8_Ratio_750_L_4_R_3.png","9_Ratio_750_L_4_R_3.png"],["11_Ratio_750_L_12_R_16.png","12_Ratio_750_L_3_R_4.png","15_Ratio_750_L_9_R_12.png","2_Ratio_750_L_6_R_8.png","3_Ratio_750_L_15_R_20.png","4_Ratio_750_L_15_R_20.png","5_Ratio_750_L_15_R_20.png","7_Ratio_750_L_3_R_4.png"]],"Rat900":[["1_Ratio_900_L_10_R_9.png","10_Ratio_900_L_20_R_18.png","2_Ratio_900_L_20_R_18.png","4_Ratio_900_L_20_R_18.png","8_Ratio_900_L_20_R_18.png"],["11_Ratio_900_L_18_R_20.png","12_Ratio_900_L_18_R_20.png","13_Ratio_900_L_18_R_20.png","14_Ratio_900_L_18_R_20.png","15_Ratio_900_L_9_R_10.png","3_Ratio_900_L_9_R_10.png","5_Ratio_900_L_9_R_10.png","6_Ratio_900_L_9_R_10.png","7_Ratio_900_L_9_R_10.png","9_Ratio_900_L_18_R_20.png"]],"Rat1000":[["10_Ratio_1000_L_16_R_16.png","11_Ratio_1000_L_6_R_6.png","12_Ratio_1000_L_14_R_14.png","13_Ratio_1000_L_20_R_20.png","15_Ratio_1000_L_15_R_15.png","2_Ratio_1000_L_17_R_17.png","4_Ratio_1000_L_9_R_9.png","5_Ratio_1000_L_6_R_6.png","6_Ratio_1000_L_19_R_19.png","8_Ratio_1000_L_14_R_14.png","9_Ratio_1000_L_25_R_25.png"],["1_Ratio_1000_L_1_R_1.png","14_Ratio_1000_L_17_R_17.png","3_Ratio_1000_L_17_R_17.png","7_Ratio_1000_L_6_R_6.png"]]}},{"start_time":1551794500097,"click_time":1551794501061,"finger_time":1551794500500,"fix_duration":355.19849935076763,"trial":1,"RT":403,"MT":561,"sideResp":2,"stimulus":"img/900/equaldotsize/R/15_Ratio_900_L_9_R_10.png","xmouse":[783,783,783,785,785,786,786,786,786,786,786,786,786,786,786,786,787,789,793,802,817,844,947,986,1015,1033,1048,1070,1084,1106,1143,1176,1232,1232,1232,1232,1232,1232,1232,1232,1232,1232,1232,1232,1232,1232,1176,1162,1157],"ymouse":[485,485,485,483,483,482,482,482,482,482,482,482,483,483,483,483,484,484,480,466,441,409,315,284,262,248,235,208,187,161,123,78,1,1,1,1,1,1,1,1,1,1,1,1,1,1,3,16,19],"timestamp_mouse":[9,22,43,72,83,103,123,143,163,182,203,223,242,264,283,303,322,342,363,384,403,423,443,463,483,504,523,544,563,584,602,623,642,662,682,703,724,744,762,784,804,823,843,863,883,902,923,942,963],"xSR":741.5,"ySR":449.15000000000003,"xT1":424.9,"yT1":0,"xT2":1058.1,"yT2":0,"toosoon":0,"cond_shown":"equaldotsize","ratio_trial":900,"smaller_num":"9","larger_num":"10","correct_side":2,"subjID":"simonacardenasvalbuena28","gender":"1","age":"11","school":"6"},{"start_time":1551794503670,"click_time":1551794504439,"finger_time":1551794504139,"fix_duration":348.04464103370725,"trial":2,"RT":469,"MT":300,"sideResp":1,"stimulus":"img/250/equaldotanddens/L/3_Ratio_250_L_8_R_2.png","xmouse":[791,791,791,791,791,791,791,791,791,791,791,791,791,791,791,791,791,791,791,791,791,790,784,769,762,754,743,733,708,693,673,659,650,636,630,618,600,563,484],"ymouse":[493,493,493,493,493,493,493,493,493,493,493,493,493,493,493,493,493,493,493,493,493,481,463,415,392,368,341,318,271,247,221,201,185,164,160,154,143,120,56],"timestamp_mouse":[21,40,50,70,90,110,130,149,170,191,211,229,251,270,291,311,329,349,370,389,410,430,451,469,490,509,530,550,569,589,609,630,650,669,689,710,730,750,769],"xSR":741.5,"ySR":449.15000000000003,"xT1":424.9,"yT1":0,"xT2":1058.1,"yT2":0,"toosoon":0,"cond_shown":"equaldotanddens","ratio_trial":250,"smaller_num":"2","larger_num":"8","correct_side":1,"subjID":"simonacardenasvalbuena28","gender":"1","age":"11","school":"6"},{"start_time":1551794505658,"click_time":1551794507401,"finger_time":1551794506320,"fix_duration":336.14528633915063,"trial":3,"RT":662,"MT":1081,"sideResp":1,"stimulus":"img/250/randomdotsizeEA/L/14_Ratio_250_L_12_R_3.png","xmouse":[767,767,767,767,767,767,767,767,767,767,767,767,767,767,767,767,767,767,767,767,767,767,767,767,767,768,769,770,774,781,787,794,803,810,828,839,856,877,901,947,967,987,1003,1017,1046,1051,1058,1062,1066,1067,1067,1067,1067,1068,1075,1079,1086,1090,1092,1093,1093,1093,1093,1090,1082,1077,1072,1066,1061,1059,1058,1058,1057,1056,1035,1020,1003,979,952,862,813,774,738,698,639,598,552,515],"ymouse":[516,516,516,516,516,516,516,516,516,516,516,516,516,516,516,516,516,516,516,513,508,501,496,491,485,484,482,481,478,473,468,461,453,445,427,419,410,398,384,357,343,327,312,296,254,238,223,212,206,203,202,202,202,197,176,165,151,145,137,135,135,135,135,137,140,143,145,148,151,152,152,153,153,153,153,153,153,153,153,152,145,140,129,118,100,89,77,69],"timestamp_mouse":[5,28,43,62,81,102,122,142,162,181,202,221,241,261,282,302,321,341,362,381,403,423,441,461,482,501,522,541,562,581,603,623,642,662,682,702,722,741,762,781,802,821,842,862,881,901,921,941,963,982,1003,1021,1041,1061,1083,1101,1121,1141,1161,1182,1202,1222,1242,1262,1281,1302,1321,1342,1361,1383,1403,1421,1441,1461,1482,1501,1523,1541,1562,1581,1601,1622,1643,1663,1681,1702,1722,1742],"xSR":741.5,"ySR":449.15000000000003,"xT1":424.9,"yT1":0,"xT2":1058.1,"yT2":0,"toosoon":0,"cond_shown":"randomdotsizeEA","ratio_trial":250,"smaller_num":"3","larger_num":"12","correct_side":1,"subjID":"simonacardenasvalbuena28","gender":"1","age":"11","school":"6"},{"start_time":1551794510745,"click_time":1551794512041,"finger_time":1551794511460,"fix_duration":884.2032849518754,"trial":4,"RT":715,"MT":581,"sideResp":2,"stimulus":"img/750/equaldotsize/L/13_Ratio_750_L_8_R_6.png","xmouse":[777,777,777,777,777,777,777,777,777,777,777,778,778,778,778,778,779,780,780,781,782,783,783,783,783,783,783,783,783,785,785,788,791,794,808,818,830,839,848,866,871,876,880,884,899,913,925,939,960,978,981,981,982,983,996,1007,1019,1030,1043,1061,1065,1071,1078,1081,1087],"ymouse":[522,522,522,522,522,522,522,522,522,522,522,522,522,522,522,522,521,521,520,519,518,518,518,518,518,518,518,518,518,515,513,509,504,495,463,441,423,407,394,371,364,357,348,338,310,290,275,259,234,214,210,210,209,207,195,186,175,164,150,129,124,116,106,103,94],"timestamp_mouse":[16,48,55,75,95,115,135,155,174,195,215,236,255,275,295,315,335,355,376,395,415,435,455,475,495,515,535,555,575,595,615,635,655,675,695,715,736,755,775,795,816,835,856,875,895,915,936,955,975,995,1016,1035,1056,1076,1095,1115,1136,1155,1176,1195,1215,1235,1255,1276,1296],"xSR":741.5,"ySR":449.15000000000003,"xT1":424.9,"yT1":0,"xT2":1058.1,"yT2":0,"toosoon":0,"cond_shown":"equaldotsize","ratio_trial":750,"smaller_num":"6","larger_num":"8","correct_side":1,"subjID":"simonacardenasvalbuena28","gender":"1","age":"11","school":"6"},{"start_time":1551794513836,"click_time":1551794514961,"finger_time":1551794514340,"fix_duration":893.6356088309647,"trial":5,"RT":504,"MT":621,"sideResp":2,"stimulus":"img/900/equaldotsize/L/10_Ratio_900_L_20_R_18.png","xmouse":[783,783,783,783,783,783,783,783,783,783,783,783,783,783,783,783,783,783,783,783,783,783,783,782,781,781,781,781,783,788,808,823,841,855,874,923,948,976,1006,1031,1058,1063,1064,1065,1065,1068,1070,1073,1076,1079,1083,1084,1087,1091,1097,1111,1126],"ymouse":[495,495,495,495,495,495,495,495,495,495,495,495,495,495,495,495,495,495,495,495,493,487,480,471,458,438,430,420,410,396,366,348,332,321,310,284,268,247,228,210,190,186,185,184,184,178,172,166,159,154,145,141,136,130,124,108,93],"timestamp_mouse":[9,35,44,64,84,104,124,145,164,185,204,223,244,264,284,305,324,344,364,383,405,424,444,464,484,504,525,543,564,584,604,624,644,665,684,705,724,744,765,785,804,824,844,864,885,904,925,944,964,984,1004,1024,1045,1064,1084,1104,1125],"xSR":741.5,"ySR":449.15000000000003,"xT1":424.9,"yT1":0,"xT2":1058.1,"yT2":0,"toosoon":0,"cond_shown":"equaldotsize","ratio_trial":900,"smaller_num":"18","larger_num":"20","correct_side":1,"subjID":"simonacardenasvalbuena28","gender":"1","age":"11","school":"6"},{"start_time":1551794516638,"click_time":1551794517880,"finger_time":1551794517080,"fix_duration":937.1726933750122,"trial":6,"RT":442,"MT":800,"sideResp":1,"stimulus":"img/250/equaldotsize/L/2_Ratio_250_L_16_R_4.png","xmouse":[788,788,788,788,788,788,788,788,788,789,789,789,789,789,789,789,789,786,781,772,756,743,726,701,679,643,633,622,606,591,571,566,564,561,558,558,563,568,570,570,570,570,570,570,570,570,570,566,558,551,547,546,544,543,541,541,541,541,540,540,534,528,518],"ymouse":[502,502,502,502,502,502,502,502,502,502,501,501,500,500,500,500,500,499,496,493,486,474,453,419,398,365,355,344,327,315,290,277,271,257,237,173,149,132,125,119,116,115,115,114,114,114,114,113,111,110,106,100,93,87,84,82,82,82,81,81,79,79,79],"timestamp_mouse":[9,35,43,62,82,102,122,142,163,182,203,223,242,262,282,302,322,342,362,382,402,423,442,463,483,502,523,542,562,583,602,622,643,662,683,702,722,742,762,783,802,822,842,862,882,903,922,943,963,982,1003,1023,1041,1063,1082,1102,1122,1142,1161,1183,1201,1222,1242],"xSR":741.5,"ySR":449.15000000000003,"xT1":424.9,"yT1":0,"xT2":1058.1,"yT2":0,"toosoon":0,"cond_shown":"equaldotsize","ratio_trial":250,"smaller_num":"4","larger_num":"16","correct_side":1,"subjID":"simonacardenasvalbuena28","gender":"1","age":"11","school":"6"},{"start_time":1551794520270,"click_time":1551794521241,"finger_time":1551794520880,"fix_duration":1448.5709557500102,"trial":7,"RT":610,"MT":361,"sideResp":1,"stimulus":"img/250/equaldotsize/L/14_Ratio_250_L_12_R_3.png","xmouse":[789,789,789,789,789,789,789,789,789,789,789,789,789,789,789,789,789,789,789,789,789,789,789,789,789,789,791,791,789,786,781,775,765,729,720,716,709,699,676,663,650,631,600,505,488,473,462,452,442],"ymouse":[530,530,530,530,530,530,530,530,530,530,530,530,530,530,530,530,530,530,530,530,530,530,530,530,530,530,526,520,476,451,425,400,376,337,330,326,319,307,272,254,238,212,183,125,116,110,108,106,98],"timestamp_mouse":[10,31,51,71,90,110,130,150,170,190,210,231,250,271,290,311,331,350,370,390,410,430,450,470,490,511,530,550,570,590,610,630,651,670,690,710,730,751,770,790,810,830,850,870,890,910,930,950,970],"xSR":741.5,"ySR":449.15000000000003,"xT1":424.9,"yT1":0,"xT2":1058.1,"yT2":0,"toosoon":0,"cond_shown":"equaldotsize","ratio_trial":250,"smaller_num":"3","larger_num":"12","correct_side":1,"subjID":"simonacardenasvalbuena28","gender":"1","age":"11","school":"6"},{"start_time":1551794522904,"click_time":1551794524280,"finger_time":1551794523459,"fix_duration":762.8556343074772,"trial":8,"RT":555,"MT":821,"sideResp":2,"stimulus":"img/750/randomdotsizeEA/R/5_Ratio_750_L_15_R_20.png","xmouse":[788,788,788,788,788,788,788,788,788,788,788,788,788,788,788,788,788,788,788,788,788,785,785,785,785,785,785,785,785,785,790,808,815,823,833,847,875,889,903,916,926,940,944,948,952,954,962,964,969,981,1004,1111,1150,1174,1181,1182,1182,1182,1182,1181,1179,1172,1172,1172,1171,1171,1165,1159,1153],"ymouse":[511,511,511,511,511,511,511,511,511,511,511,511,511,511,511,511,511,510,508,506,502,489,482,474,469,463,454,447,435,419,397,345,323,300,278,258,222,204,187,171,158,141,139,136,133,132,130,130,129,129,129,110,101,94,91,90,83,76,69,63,57,49,49,49,49,49,49,53,56],"timestamp_mouse":[16,48,56,77,96,116,137,156,176,196,217,237,256,277,297,317,336,356,376,397,417,436,457,476,496,517,536,555,576,597,617,636,657,676,696,716,736,756,777,796,817,836,857,876,896,916,936,957,976,996,1016,1037,1055,1076,1096,1116,1136,1155,1176,1196,1217,1236,1255,1276,1297,1317,1337,1356,1376],"xSR":741.5,"ySR":449.15000000000003,"xT1":424.9,"yT1":0,"xT2":1058.1,"yT2":0,"toosoon":0,"cond_shown":"randomdotsizeEA","ratio_trial":750,"smaller_num":"15","larger_num":"20","correct_side":2,"subjID":"simonacardenasvalbuena28","gender":"1","age":"11","school":"6"},{"start_time":1551794525443,"click_time":1551794526460,"finger_time":1551794526121,"fix_duration":321.26020164791737,"trial":9,"RT":678,"MT":339,"sideResp":1,"stimulus":"img/750/equaldotanddens/L/6_Ratio_750_L_24_R_18.png","xmouse":[801,801,801,801,801,801,801,801,801,801,801,801,801,801,801,801,801,801,801,801,801,801,800,800,799,799,798,798,797,794,792,788,782,775,751,743,734,722,707,666,646,634,627,624,614,609,604,595,583,545,520],"ymouse":[504,504,504,504,504,504,504,504,504,504,504,504,504,504,504,504,504,504,504,504,504,504,504,503,501,500,499,498,496,490,484,470,450,424,360,345,330,314,294,234,195,166,141,120,85,75,66,57,48,37,33],"timestamp_mouse":[17,38,57,77,97,117,138,158,178,197,217,238,258,278,298,318,337,358,377,397,417,437,457,478,497,517,537,557,577,597,618,638,657,678,697,717,737,757,777,797,817,837,857,877,898,917,937,958,978,997,1016],"xSR":741.5,"ySR":449.15000000000003,"xT1":424.9,"yT1":0,"xT2":1058.1,"yT2":0,"toosoon":0,"cond_shown":"equaldotanddens","ratio_trial":750,"smaller_num":"18","larger_num":"24","correct_side":1,"subjID":"simonacardenasvalbuena28","gender":"1","age":"11","school":"6"},{"start_time":1551794527512,"click_time":1551794528161,"finger_time":1551794528040,"fix_duration":250,"trial":10,"RT":528,"MT":121,"sideResp":1,"stimulus":"img/250/equaldotanddens/L/1_Ratio_250_L_8_R_2.png","xmouse":[802,802,802,802,802,802,802,802,802,802,802,802,802,802,802,802,802,802,802,802,802,802,800,794,783,770,742,722,690,649,603,503,481],"ymouse":[490,490,490,490,490,490,490,491,491,491,491,492,492,492,492,492,492,492,492,492,492,492,492,487,477,463,431,407,368,312,244,100,67],"timestamp_mouse":[9,43,49,69,88,109,129,148,167,189,209,228,248,269,289,308,328,349,367,388,408,428,449,468,489,508,528,549,568,588,609,628,648],"xSR":741.5,"ySR":449.15000000000003,"xT1":424.9,"yT1":0,"xT2":1058.1,"yT2":0,"toosoon":0,"cond_shown":"equaldotanddens","ratio_trial":250,"smaller_num":"2","larger_num":"8","correct_side":1,"subjID":"simonacardenasvalbuena28","gender":"1","age":"11","school":"6"},{"start_time":1551794529712,"click_time":1551794530660,"finger_time":1551794530280,"fix_duration":649.3383713840226,"trial":11,"RT":568,"MT":380,"sideResp":2,"stimulus":"img/500/randomdotsizeEA/R/6_Ratio_500_L_9_R_18.png","xmouse":[824,824,824,824,824,824,824,824,824,824,824,824,824,824,824,824,824,824,824,824,824,824,824,823,823,822,822,823,827,832,839,894,927,957,981,993,1007,1010,1016,1023,1033,1050,1050,1050,1050,1050,1050,1081],"ymouse":[509,509,509,509,509,509,509,509,509,509,509,509,509,509,509,509,509,509,509,509,509,509,509,506,504,497,479,465,447,429,406,318,274,228,185,160,121,102,81,61,40,4,4,4,4,4,4,2],"timestamp_mouse":[9,41,49,69,88,108,128,148,169,188,209,229,248,268,289,308,328,349,368,389,409,428,449,468,488,508,528,549,568,588,608,628,648,668,688,708,728,749,768,788,808,828,849,868,888,908,928,948],"xSR":741.5,"ySR":449.15000000000003,"xT1":424.9,"yT1":0,"xT2":1058.1,"yT2":0,"toosoon":0,"cond_shown":"randomdotsizeEA","ratio_trial":500,"smaller_num":"9","larger_num":"18","correct_side":2,"subjID":"simonacardenasvalbuena28","gender":"1","age":"11","school":"6"},{"start_time":1551794532987,"click_time":1551794534141,"finger_time":1551794533600,"fix_duration":1225.3664236006225,"trial":12,"RT":613,"MT":541,"sideResp":2,"stimulus":"img/750/equaldotsize/R/3_Ratio_750_L_15_R_20.png","xmouse":[776,776,776,776,776,776,776,776,776,776,776,776,776,776,776,776,776,776,776,776,776,776,776,776,776,776,776,781,789,798,809,819,844,856,871,883,898,919,929,941,949,957,971,980,991,996,999,1000,1001,1003,1014,1021,1036,1037,1039,1046,1051,1067],"ymouse":[502,502,502,502,502,502,502,502,502,502,502,502,502,502,502,502,502,502,502,502,502,502,502,502,502,502,502,492,481,465,446,425,362,325,293,271,246,220,206,186,170,156,124,112,103,98,96,93,92,90,83,78,66,65,62,59,57,57],"timestamp_mouse":[13,44,53,73,94,113,134,154,174,194,214,233,254,274,293,313,333,353,373,393,413,434,453,473,493,513,533,552,573,593,613,633,653,674,693,714,733,753,773,793,813,834,853,873,893,913,934,953,973,993,1013,1033,1053,1074,1093,1113,1133,1154],"xSR":741.5,"ySR":449.15000000000003,"xT1":424.9,"yT1":0,"xT2":1058.1,"yT2":0,"toosoon":0,"cond_shown":"equaldotsize","ratio_trial":750,"smaller_num":"15","larger_num":"20","correct_side":2,"subjID":"simonacardenasvalbuena28","gender":"1","age":"11","school":"6"},{"start_time":1551794535428,"click_time":1551794536380,"finger_time":1551794535901,"fix_duration":366.84653261334074,"trial":13,"RT":473,"MT":479,"sideResp":2,"stimulus":"img/750/equaldotanddens/R/11_Ratio_750_L_12_R_16.png","xmouse":[804,804,804,804,804,804,804,804,804,804,804,804,804,804,804,804,804,804,804,804,804,808,811,814,816,822,823,824,827,832,843,852,863,876,891,941,961,977,986,991,992,992,993,995,1001,1035,1054,1072],"ymouse":[485,485,485,485,485,485,485,485,485,485,485,485,485,485,485,485,485,485,485,485,482,467,453,438,423,381,361,338,313,285,233,210,187,163,140,91,76,63,55,51,50,50,50,50,51,59,65,72],"timestamp_mouse":[12,42,52,72,93,112,132,152,172,192,212,233,253,273,293,312,332,353,372,392,412,432,452,473,492,512,532,552,573,592,612,632,653,673,693,712,732,752,772,792,813,833,852,873,892,912,932,952],"xSR":741.5,"ySR":449.15000000000003,"xT1":424.9,"yT1":0,"xT2":1058.1,"yT2":0,"toosoon":0,"cond_shown":"equaldotanddens","ratio_trial":750,"smaller_num":"12","larger_num":"16","correct_side":2,"subjID":"simonacardenasvalbuena28","gender":"1","age":"11","school":"6"},{"start_time":1551794538571,"click_time":1551794539501,"finger_time":1551794539101,"fix_duration":1467.5354513871732,"trial":14,"RT":530,"MT":400,"sideResp":1,"stimulus":"img/750/equaldotanddens/L/14_Ratio_750_L_8_R_6.png","xmouse":[765,765,765,765,765,765,765,765,765,765,765,765,765,765,765,765,765,765,765,765,766,766,767,767,767,769,772,776,779,779,779,778,774,756,741,719,696,674,636,615,597,583,572,550,541,531,518],"ymouse":[502,502,502,495,494,493,493,493,493,493,493,493,493,493,493,493,493,493,493,493,491,489,487,477,468,455,438,412,322,291,257,231,208,167,145,121,98,79,39,27,19,17,16,17,20,23,28],"timestamp_mouse":[9,35,49,69,90,110,129,149,169,189,210,230,249,269,289,309,329,350,369,389,409,430,449,469,489,510,530,549,569,589,610,629,650,669,690,709,729,750,769,790,809,829,849,870,889,909,930],"xSR":741.5,"ySR":449.15000000000003,"xT1":424.9,"yT1":0,"xT2":1058.1,"yT2":0,"toosoon":0,"cond_shown":"equaldotanddens","ratio_trial":750,"smaller_num":"6","larger_num":"8","correct_side":1,"subjID":"simonacardenasvalbuena28","gender":"1","age":"11","school":"6"},{"start_time":1551794540877,"click_time":1551794541780,"finger_time":1551794541380,"fix_duration":814.0785642943907,"trial":15,"RT":503,"MT":400,"sideResp":2,"stimulus":"img/500/equaldotanddens/R/1_Ratio_500_L_9_R_18.png","xmouse":[827,827,827,827,827,827,827,827,827,827,827,827,827,827,827,827,827,827,827,827,827,827,827,829,832,836,840,848,877,894,920,948,973,1030,1039,1039,1039,1039,1039,1039,1039,1039,1039,1039,1039,1108],"ymouse":[478,478,478,478,478,478,478,478,478,478,478,478,478,478,478,478,478,478,478,478,478,478,478,470,462,449,434,409,325,275,213,149,92,12,4,4,4,4,4,4,4,4,4,4,4,5],"timestamp_mouse":[9,24,43,63,83,103,124,142,163,184,203,224,244,263,284,303,323,344,363,384,404,423,443,463,484,503,523,543,564,584,603,624,643,663,682,703,724,744,764,783,803,824,843,864,883,903],"xSR":741.5,"ySR":449.15000000000003,"xT1":424.9,"yT1":0,"xT2":1058.1,"yT2":0,"toosoon":0,"cond_shown":"equaldotanddens","ratio_trial":500,"smaller_num":"9","larger_num":"18","correct_side":2,"subjID":"simonacardenasvalbuena28","gender":"1","age":"11","school":"6"},{"start_time":1551794542891,"click_time":1551794543640,"finger_time":1551794543320,"fix_duration":250,"trial":16,"RT":429,"MT":320,"sideResp":1,"stimulus":"img/500/equaldotsize/L/8_Ratio_500_L_8_R_4.png","xmouse":[800,800,800,800,800,800,800,800,800,800,800,800,800,800,800,800,800,800,800,797,794,780,731,711,694,680,665,646,638,628,613,597,570,563,552,544,536,522],"ymouse":[500,500,500,500,500,500,500,500,500,500,500,500,500,500,500,500,500,500,500,494,487,442,329,288,252,217,185,145,130,111,90,73,41,34,30,30,28,26],"timestamp_mouse":[12,36,49,69,89,109,129,149,169,189,209,229,249,269,289,309,330,350,369,389,410,429,449,470,489,509,530,549,570,589,609,629,649,669,688,709,730,749],"xSR":741.5,"ySR":449.15000000000003,"xT1":424.9,"yT1":0,"xT2":1058.1,"yT2":0,"toosoon":0,"cond_shown":"equaldotsize","ratio_trial":500,"smaller_num":"4","larger_num":"8","correct_side":1,"subjID":"simonacardenasvalbuena28","gender":"1","age":"11","school":"6"},{"start_time":1551794545878,"click_time":1551794546761,"finger_time":1551794546321,"fix_duration":1275.4065423978682,"trial":17,"RT":443,"MT":440,"sideResp":2,"stimulus":"img/750/equaldotsize/R/4_Ratio_750_L_15_R_20.png","xmouse":[776,776,776,776,776,776,776,776,776,776,776,776,776,776,776,776,776,776,777,784,796,810,835,864,887,910,928,940,964,976,986,998,1008,1030,1035,1039,1042,1042,1042,1042,1042,1042,1042,1055,1066],"ymouse":[506,506,506,506,506,506,506,506,506,506,506,506,506,506,506,506,506,506,505,498,488,477,448,400,360,316,280,252,204,180,158,129,107,44,22,10,2,2,2,2,2,2,2,5,17],"timestamp_mouse":[8,22,42,63,83,102,123,141,163,182,202,222,242,262,282,302,322,342,362,382,402,423,443,462,483,503,522,542,563,583,602,622,642,662,683,702,722,742,763,783,802,822,842,862,883],"xSR":741.5,"ySR":449.15000000000003,"xT1":424.9,"yT1":0,"xT2":1058.1,"yT2":0,"toosoon":0,"cond_shown":"equaldotsize","ratio_trial":750,"smaller_num":"15","larger_num":"20","correct_side":2,"subjID":"simonacardenasvalbuena28","gender":"1","age":"11","school":"6"},{"start_time":1551794548164,"click_time":1551794549560,"finger_time":1551794548540,"fix_duration":542.0484356490805,"trial":18,"RT":376,"MT":1020,"sideResp":1,"stimulus":"img/750/randomdotsizeEA/L/6_Ratio_750_L_24_R_18.png","xmouse":[772,772,772,772,772,772,772,772,772,772,772,772,772,773,774,775,776,782,797,808,819,828,835,842,842,842,842,842,842,843,843,843,845,850,856,867,879,891,921,927,933,936,937,940,946,957,971,987,989,989,989,991,990,961,939,909,880,853,846,830,825,819,806,775,754,727,688,641,525,486],"ymouse":[531,531,531,531,531,531,531,531,531,531,531,528,527,524,521,518,512,489,403,357,322,290,271,258,257,257,257,256,248,242,235,226,216,182,159,135,114,93,61,54,47,45,43,43,45,52,61,70,71,71,71,72,72,57,48,40,34,32,32,32,32,32,36,45,51,55,60,62,66,68],"timestamp_mouse":[16,42,56,76,96,116,135,157,176,196,216,236,257,276,296,316,336,357,376,396,416,436,457,476,497,516,536,557,576,596,616,636,657,676,696,716,736,756,776,796,816,837,856,876,897,916,937,957,976,995,1017,1036,1057,1076,1097,1116,1137,1156,1176,1197,1216,1236,1257,1276,1296,1316,1337,1356,1376,1396],"xSR":741.5,"ySR":449.15000000000003,"xT1":424.9,"yT1":0,"xT2":1058.1,"yT2":0,"toosoon":0,"cond_shown":"randomdotsizeEA","ratio_trial":750,"smaller_num":"18","larger_num":"24","correct_side":1,"subjID":"simonacardenasvalbuena28","gender":"1","age":"11","school":"6"},{"start_time":1551794551478,"click_time":1551794552340,"finger_time":1551794551940,"fix_duration":937.6902839609972,"trial":19,"RT":462,"MT":400,"sideResp":2,"stimulus":"img/900/randomdotsizeEA/L/2_Ratio_900_L_20_R_18.png","xmouse":[805,805,805,805,805,805,805,805,805,805,805,805,805,805,805,805,805,805,805,805,805,806,807,813,818,827,839,849,868,874,884,891,897,927,944,959,974,986,1003,1012,1024,1038,1052,1093],"ymouse":[501,501,501,501,501,501,501,501,501,501,501,501,501,501,501,501,501,501,501,499,496,486,469,401,360,315,270,239,192,173,158,142,126,83,64,48,39,33,30,30,35,41,48,67],"timestamp_mouse":[8,23,42,62,82,102,122,142,180,182,203,223,242,262,284,303,323,342,362,382,402,423,442,462,482,502,522,542,562,582,602,623,642,662,682,702,722,743,762,783,802,822,843,862],"xSR":741.5,"ySR":449.15000000000003,"xT1":424.9,"yT1":0,"xT2":1058.1,"yT2":0,"toosoon":0,"cond_shown":"randomdotsizeEA","ratio_trial":900,"smaller_num":"18","larger_num":"20","correct_side":1,"subjID":"simonacardenasvalbuena28","gender":"1","age":"11","school":"6"},{"start_time":1551794554075,"click_time":1551794554980,"finger_time":1551794554560,"fix_duration":1012.74513851381,"trial":20,"RT":485,"MT":420,"sideResp":1,"stimulus":"img/500/equaldotsize/L/4_Ratio_500_L_18_R_9.png","xmouse":[793,793,793,793,793,793,793,793,793,793,793,793,793,793,793,793,793,793,793,793,792,792,790,782,776,768,761,757,749,742,731,719,698,674,662,654,647,647,647,647,647,647,647,647,528,516],"ymouse":[504,503,503,502,502,500,500,500,500,499,499,499,499,499,499,499,498,498,497,496,495,494,490,459,428,371,319,289,225,197,164,132,88,47,27,12,1,1,1,1,1,1,1,1,7,16],"timestamp_mouse":[5,38,46,66,85,105,126,146,166,185,205,225,246,265,285,306,325,345,366,386,406,425,446,465,485,506,526,546,565,586,605,625,646,666,686,704,726,746,766,786,805,825,845,866,886,905],"xSR":741.5,"ySR":449.15000000000003,"xT1":424.9,"yT1":0,"xT2":1058.1,"yT2":0,"toosoon":0,"cond_shown":"equaldotsize","ratio_trial":500,"smaller_num":"9","larger_num":"18","correct_side":1,"subjID":"simonacardenasvalbuena28","gender":"1","age":"11","school":"6"},{"start_time":1551794556804,"click_time":1551794557641,"finger_time":1551794557140,"fix_duration":923.8759365873293,"trial":21,"RT":336,"MT":501,"sideResp":2,"stimulus":"img/250/randomdotsizeEA/R/4_Ratio_250_L_3_R_12.png","xmouse":[790,790,790,790,790,790,790,790,790,790,790,790,791,791,793,799,819,843,869,887,892,894,894,894,894,894,894,894,894,894,897,905,909,913,921,931,975,996,1016,1032,1047,1070],"ymouse":[520,520,520,520,520,520,517,517,517,516,515,514,511,510,506,490,436,375,311,267,248,233,231,230,227,215,174,146,121,101,82,65,58,55,52,49,40,36,36,36,43,63],"timestamp_mouse":[16,37,56,76,97,116,136,157,176,196,215,236,256,276,296,317,336,357,376,396,416,436,456,476,497,516,536,557,576,597,616,636,656,676,697,716,736,756,776,796,817,837],"xSR":741.5,"ySR":449.15000000000003,"xT1":424.9,"yT1":0,"xT2":1058.1,"yT2":0,"toosoon":0,"cond_shown":"randomdotsizeEA","ratio_trial":250,"smaller_num":"3","larger_num":"12","correct_side":2,"subjID":"simonacardenasvalbuena28","gender":"1","age":"11","school":"6"},{"start_time":1551794558936,"click_time":1551794560021,"finger_time":1551794559340,"fix_duration":433.1395639736262,"trial":22,"RT":404,"MT":681,"sideResp":2,"stimulus":"img/500/randomdotsizeEA/R/1_Ratio_500_L_9_R_18.png","xmouse":[785,785,785,785,785,785,785,785,785,785,785,785,785,785,785,785,788,792,797,800,807,810,811,812,814,816,816,816,816,815,811,806,799,792,786,781,781,781,781,781,810,835,864,891,920,956,956,956,956,956,956,956,956,956,1078],"ymouse":[496,496,496,496,496,496,496,496,496,496,496,496,496,496,496,496,497,493,480,459,412,379,355,339,334,329,326,316,303,290,256,239,221,203,193,185,185,185,185,184,158,140,116,86,54,7,7,7,7,7,7,7,7,7,8],"timestamp_mouse":[9,36,44,64,84,104,124,145,165,184,205,224,244,264,284,305,324,344,364,384,404,425,444,464,484,504,524,544,564,585,604,624,644,664,684,704,725,744,764,785,804,824,843,864,885,904,924,945,964,984,1005,1024,1044,1065,1085],"xSR":741.5,"ySR":449.15000000000003,"xT1":424.9,"yT1":0,"xT2":1058.1,"yT2":0,"toosoon":0,"cond_shown":"randomdotsizeEA","ratio_trial":500,"smaller_num":"9","larger_num":"18","correct_side":2,"subjID":"simonacardenasvalbuena28","gender":"1","age":"11","school":"6"},{"start_time":1551794561112,"click_time":1551794561941,"finger_time":1551794561520,"fix_duration":250,"trial":23,"RT":408,"MT":421,"sideResp":2,"stimulus":"img/900/equaldotsize/L/8_Ratio_900_L_20_R_18.png","xmouse":[811,811,811,811,811,811,811,811,811,811,811,811,811,811,811,811,809,809,808,806,806,834,851,863,872,882,906,917,927,936,946,964,970,973,973,973,974,976,984,1002,1022,1069],"ymouse":[511,511,511,511,511,511,511,511,511,511,511,511,511,511,511,511,510,509,496,468,431,285,247,219,197,172,113,91,75,63,51,27,21,20,20,20,20,20,20,23,26,30],"timestamp_mouse":[10,29,49,69,88,109,128,148,169,189,209,229,248,268,289,307,328,348,369,389,408,428,449,468,489,509,529,547,568,588,608,628,649,668,688,708,728,748,768,788,808,829],"xSR":741.5,"ySR":449.15000000000003,"xT1":424.9,"yT1":0,"xT2":1058.1,"yT2":0,"toosoon":0,"cond_shown":"equaldotsize","ratio_trial":900,"smaller_num":"18","larger_num":"20","correct_side":1,"subjID":"simonacardenasvalbuena28","gender":"1","age":"11","school":"6"},{"start_time":1551794564477,"click_time":1551794566440,"finger_time":1551794565001,"fix_duration":1473.6390102196233,"trial":24,"RT":524,"MT":1439,"sideResp":1,"stimulus":"img/750/randomdotsizeEA/L/8_Ratio_750_L_4_R_3.png","xmouse":[787,787,787,787,787,787,787,787,787,787,787,787,787,787,787,787,787,787,787,787,787,787,787,788,788,786,775,759,735,729,724,721,720,719,719,718,716,713,705,700,695,689,684,684,684,684,684,685,698,709,721,734,751,757,757,757,757,757,757,756,739,715,682,649,636,628,624,619,616,616,616,616,616,626,682,709,737,768,843,883,916,937,947,947,933,897,847,794,706,668,637,607,586,558,549,541,533,528,521],"ymouse":[479,478,478,478,478,478,478,478,478,478,478,478,478,478,478,478,478,478,478,478,478,478,478,471,464,452,432,407,359,341,324,311,306,296,293,282,264,242,204,193,181,173,165,165,165,165,165,165,172,182,195,208,225,232,232,232,232,232,232,230,207,176,139,110,100,90,84,77,71,71,71,71,71,74,101,111,116,116,111,100,91,83,80,78,68,50,35,24,17,17,17,22,25,30,31,31,32,34,38],"timestamp_mouse":[8,23,51,63,84,104,123,143,164,184,203,224,244,263,283,303,323,343,364,384,403,423,443,463,483,504,524,544,563,584,603,623,643,663,683,704,724,743,763,783,804,824,844,863,883,902,924,944,963,984,1004,1023,1044,1064,1083,1104,1123,1144,1162,1183,1204,1223,1243,1263,1283,1303,1322,1344,1363,1384,1403,1424,1443,1463,1483,1503,1524,1544,1563,1583,1602,1623,1643,1663,1683,1703,1724,1743,1764,1784,1803,1823,1843,1863,1883,1903,1923,1943,1963],"xSR":741.5,"ySR":449.15000000000003,"xT1":424.9,"yT1":0,"xT2":1058.1,"yT2":0,"toosoon":0,"cond_shown":"randomdotsizeEA","ratio_trial":750,"smaller_num":"3","larger_num":"4","correct_side":1,"subjID":"simonacardenasvalbuena28","gender":"1","age":"11","school":"6"},{"start_time":1551794568492,"click_time":1551794569540,"finger_time":1551794569100,"fix_duration":1171.3167701700952,"trial":25,"RT":608,"MT":440,"sideResp":2,"stimulus":"img/900/randomdotsizeEA/R/7_Ratio_900_L_9_R_10.png","xmouse":[819,819,819,819,819,819,818,814,813,811,807,806,806,806,806,806,806,806,806,806,806,806,806,806,806,806,806,806,813,819,825,831,858,875,888,899,907,920,927,927,927,927,927,927,927,927,927,927,927,927,927,1054,1065],"ymouse":[507,507,507,507,507,507,507,505,504,502,497,496,496,496,496,496,496,496,496,496,496,496,496,496,496,496,496,487,472,458,441,415,244,179,135,102,73,27,5,5,5,5,5,5,5,5,5,5,5,5,5,1,11],"timestamp_mouse":[12,33,48,69,88,108,128,148,168,188,208,228,248,270,288,309,328,348,369,389,407,428,448,469,489,508,528,548,569,588,608,628,648,669,688,708,728,748,769,788,807,828,848,869,888,908,928,948,968,988,1008,1029,1047],"xSR":741.5,"ySR":449.15000000000003,"xT1":424.9,"yT1":0,"xT2":1058.1,"yT2":0,"toosoon":0,"cond_shown":"randomdotsizeEA","ratio_trial":900,"smaller_num":"9","larger_num":"10","correct_side":2,"subjID":"simonacardenasvalbuena28","gender":"1","age":"11","school":"6"},{"start_time":1551794570391,"click_time":1551794571421,"finger_time":1551794571039,"fix_duration":250,"trial":26,"RT":648,"MT":382,"sideResp":2,"stimulus":"img/500/equaldotanddens/R/9_Ratio_500_L_2_R_4.png","xmouse":[816,820,825,825,825,825,825,825,825,825,825,825,825,825,825,825,825,825,825,825,825,825,825,825,825,825,825,825,825,826,826,826,835,843,856,868,878,900,909,916,926,936,953,961,970,982,994,1019,1029,1038,1050,1068],"ymouse":[496,489,481,481,481,481,481,481,481,481,481,481,481,481,481,481,481,481,481,481,481,481,481,481,481,481,481,481,481,480,479,475,447,418,386,359,339,285,263,240,217,194,156,136,116,97,81,58,52,49,45,40],"timestamp_mouse":[9,29,64,69,89,108,130,149,168,190,209,229,249,269,289,309,329,349,369,389,410,430,449,470,490,508,529,549,570,588,610,629,648,669,689,709,730,749,770,789,809,830,849,869,888,909,930,949,969,990,1009,1030],"xSR":741.5,"ySR":449.15000000000003,"xT1":424.9,"yT1":0,"xT2":1058.1,"yT2":0,"toosoon":0,"cond_shown":"equaldotanddens","ratio_trial":500,"smaller_num":"2","larger_num":"4","correct_side":2,"subjID":"simonacardenasvalbuena28","gender":"1","age":"11","school":"6"},{"start_time":1551794572837,"click_time":1551794573999,"finger_time":1551794573240,"fix_duration":775.952934516134,"trial":27,"RT":403,"MT":759,"sideResp":2,"stimulus":"img/900/equaldotsize/L/4_Ratio_900_L_20_R_18.png","xmouse":[804,804,804,804,804,804,804,804,804,804,805,807,808,808,809,812,816,818,821,834,867,884,897,910,927,939,940,940,940,940,940,940,940,940,940,940,940,940,940,942,953,963,974,987,998,1013,1017,1018,1018,1018,1018,1018,1018,1019,1021,1029,1040,1050,1064],"ymouse":[515,515,515,515,515,515,515,515,515,515,513,512,511,510,509,506,504,502,500,492,473,460,446,425,379,346,343,343,343,343,343,343,343,343,343,343,343,337,325,304,246,216,190,160,134,82,69,68,67,67,67,67,67,67,67,69,73,74,76],"timestamp_mouse":[8,34,43,64,82,103,123,144,162,183,203,224,243,262,284,303,323,344,364,383,403,423,443,462,483,503,523,543,564,584,603,623,644,663,682,702,722,743,764,783,803,823,843,863,883,903,924,943,963,983,1004,1024,1043,1063,1083,1102,1123,1143,1162],"xSR":741.5,"ySR":449.15000000000003,"xT1":424.9,"yT1":0,"xT2":1058.1,"yT2":0,"toosoon":0,"cond_shown":"equaldotsize","ratio_trial":900,"smaller_num":"18","larger_num":"20","correct_side":1,"subjID":"simonacardenasvalbuena28","gender":"1","age":"11","school":"6"},{"start_time":1551794576976,"click_time":1551794582980,"finger_time":1551794582180,"fix_duration":574.4585304077399,"trial":28,"RT":5204,"MT":800,"sideResp":1,"stimulus":"img/500/randomdotsizeEA/L/5_Ratio_500_L_4_R_2.png","xmouse":[830,830,830,830,830,830,830,830,830,830,830,830,830,830,830,830,830,830,830,830,830,830,830,830,830,830,830,830,830,830,830,830,830,830,830,830,830,830,830,830,830,830,830,830,830,830,830,830,830,830,830,830,830,830,830,830,830,830,830,830,830,830,830,830,830,830,830,830,830,830,830,830,830,830,830,830,830,830,830,830,830,830,830,830,830,830,830,830,830,830,830,830,830,830,830,830,830,830,830,830,830,830,830,830,830,830,830,830,830,830,830,830,830,830,830,830,830,830,830,830,830,830,830,830,830,830,830,830,830,830,830,830,830,830,830,830,830,830,830,830,830,830,830,830,830,830,830,830,830,830,830,830,830,830,830,830,830,830,830,830,830,830,830,830,830,830,830,830,830,830,830,830,830,830,830,830,830,830,830,830,830,830,830,830,830,830,830,830,830,830,830,830,830,830,830,830,830,830,830,830,830,830,830,830,830,830,830,830,830,830,830,830,830,830,830,830,830,830,830,830,830,830,830,830,830,830,830,830,830,830,830,830,830,830,830,830,830,830,830,830,830,830,830,830,830,830,830,830,830,830,830,830,830,830,830,830,830,830,830,830,761,696,570,570,570,570,570,570,570,570,570,570,570,570,24,37,48,56,69,74,80,90,106,154,184,220,259,285,314,317,322,329,338,353,356,358,359,362,390,418,450],"ymouse":[451,451,451,451,451,451,451,451,451,451,451,451,451,451,451,451,451,451,451,451,451,451,451,451,451,451,451,451,451,451,451,451,451,451,451,451,451,451,451,451,451,451,451,451,451,451,451,451,451,451,451,451,451,451,451,451,451,451,451,451,451,451,451,451,451,451,451,451,451,451,451,451,451,451,451,451,451,451,451,451,451,451,451,451,451,451,451,451,451,451,451,451,451,451,451,451,451,451,451,451,451,451,451,451,451,451,451,451,451,451,451,451,451,451,451,451,451,451,451,451,451,451,451,451,451,451,451,451,451,451,451,451,451,451,451,451,451,451,451,451,451,451,451,451,451,451,451,451,451,451,451,451,451,451,451,451,451,451,451,451,451,451,451,451,451,451,451,451,451,451,451,451,451,451,451,451,451,451,451,451,451,451,451,451,451,451,451,451,451,451,451,451,451,451,451,451,451,451,451,451,451,451,451,451,451,451,451,451,451,451,451,451,451,451,451,451,451,451,451,451,451,451,451,451,451,451,451,451,451,451,451,451,451,451,451,451,451,451,451,451,451,451,451,451,451,451,451,451,451,451,451,451,451,451,451,451,451,451,451,451,342,243,62,62,62,62,62,62,62,62,62,62,62,62,8,22,29,32,33,33,34,36,37,33,30,24,19,17,17,17,17,17,16,12,12,12,13,17,35,44,50],"timestamp_mouse":[9,23,45,64,85,104,125,144,164,184,203,224,244,264,284,303,324,345,363,384,404,424,445,463,484,504,524,545,564,584,604,623,644,664,684,705,725,744,764,784,804,824,844,864,884,905,925,944,965,984,1005,1025,1044,1063,1085,1104,1124,1143,1164,1183,1204,1225,1243,1264,1284,1305,1324,1343,1365,1385,1405,1425,1444,1464,1483,1505,1525,1544,1564,1584,1604,1624,1644,1664,1685,1704,1724,1744,1764,1784,1804,1824,1845,1864,1885,1905,1925,1943,1964,1985,2004,2025,2044,2063,2085,2105,2124,2144,2164,2183,2204,2225,2245,2264,2284,2305,2324,2344,2364,2383,2405,2424,2444,2464,2483,2505,2525,2545,2564,2584,2603,2624,2644,2664,2684,2704,2725,2745,2764,2784,2805,2825,2845,2864,2884,2904,2924,2944,2964,2984,3004,3023,3043,3064,3085,3105,3124,3145,3164,3184,3204,3225,3244,3263,3285,3305,3324,3345,3365,3384,3404,3425,3444,3464,3484,3503,3525,3543,3564,3584,3603,3624,3644,3664,3683,3704,3725,3745,3764,3785,3805,3824,3844,3864,3885,3903,3924,3944,3964,3985,4003,4025,4043,4065,4084,4104,4124,4144,4163,4184,4205,4224,4244,4263,4285,4305,4323,4345,4364,4384,4403,4425,4444,4464,4484,4504,4524,4544,4565,4583,4605,4624,4644,4663,4685,4705,4725,4743,4765,4785,4805,4823,4845,4864,4884,4905,4925,4945,4965,4985,5003,5025,5044,5063,5084,5104,5125,5144,5164,5185,5204,5224,5243,5264,5285,5305,5324,5345,5364,5384,5404,5424,5445,5465,5485,5504,5524,5545,5565,5585,5604,5624,5644,5663,5685,5705,5724,5744,5763,5784,5805,5827,5844,5864,5884,5904,5924,5943,5964,5985,6004],"xSR":741.5,"ySR":449.15000000000003,"xT1":424.9,"yT1":0,"xT2":1058.1,"yT2":0,"toosoon":0,"cond_shown":"randomdotsizeEA","ratio_trial":500,"smaller_num":"2","larger_num":"4","correct_side":1,"subjID":"simonacardenasvalbuena28","gender":"1","age":"11","school":"6"},{"start_time":1551794586513,"click_time":1551794588840,"finger_time":1551794588179,"fix_duration":1052.7368734737174,"trial":29,"RT":1666,"MT":661,"sideResp":1,"stimulus":"img/750/equaldotsize/L/10_Ratio_750_L_4_R_3.png","xmouse":[781,781,781,781,781,781,781,781,781,781,781,781,781,781,781,781,781,781,781,781,781,781,781,781,781,781,781,781,781,781,781,781,781,781,781,781,781,781,781,781,781,781,781,781,781,781,781,781,781,781,781,781,781,781,781,781,781,781,781,781,781,781,781,781,781,781,781,781,781,781,781,781,781,781,781,781,781,781,781,781,781,772,758,741,730,725,725,725,725,725,724,720,720,720,720,720,693,682,681,680,675,647,632,616,606,601,599,599,599,597,595,585,579,568,553,535,507],"ymouse":[493,493,493,493,493,493,493,493,493,493,493,493,493,493,493,493,493,493,493,493,493,493,493,493,493,493,493,493,493,493,493,493,493,493,493,493,493,493,493,493,493,493,493,493,493,493,493,493,493,493,493,493,493,493,493,493,493,493,493,493,493,493,493,493,493,493,493,493,493,493,493,493,493,493,493,493,493,493,493,493,493,483,470,461,456,453,451,451,451,450,449,444,444,444,444,434,312,253,228,208,192,155,142,131,126,123,121,121,120,115,113,97,89,83,78,72,64],"timestamp_mouse":[9,26,48,66,88,107,127,148,167,187,208,228,246,267,287,307,327,348,366,388,408,427,448,466,488,507,527,548,567,588,607,626,648,668,687,706,728,746,767,788,807,826,848,867,887,907,927,948,967,986,1007,1026,1048,1068,1086,1106,1127,1147,1168,1188,1206,1227,1246,1268,1286,1307,1327,1348,1368,1388,1406,1427,1447,1467,1487,1507,1528,1548,1567,1587,1606,1627,1647,1666,1687,1707,1727,1746,1768,1788,1807,1827,1847,1867,1887,1907,1927,1947,1967,1987,2006,2027,2046,2066,2087,2107,2128,2147,2167,2187,2206,2226,2248,2267,2287,2307,2326],"xSR":741.5,"ySR":449.15000000000003,"xT1":424.9,"yT1":0,"xT2":1058.1,"yT2":0,"toosoon":0,"cond_shown":"equaldotsize","ratio_trial":750,"smaller_num":"3","larger_num":"4","correct_side":1,"subjID":"simonacardenasvalbuena28","gender":"1","age":"11","school":"6"},{"start_time":1551794608899,"click_time":1551794610080,"finger_time":1551794609620,"fix_duration":297.6636922083603,"trial":30,"RT":721,"MT":460,"sideResp":2,"stimulus":"img/500/randomdotsizeEA/R/1_Ratio_500_L_9_R_18.png","xmouse":[810,810,810,810,810,810,809,809,809,809,809,809,809,809,809,809,809,809,808,808,808,808,808,808,808,808,808,808,808,808,808,808,807,808,816,832,869,1029,1132,1241,1297,1297,1297,1297,1297,1297,1297,1297,1297,1297,1297,1297,1297,1297,1297,1297,1297,1178,1170,1158],"ymouse":[515,515,515,515,515,515,515,515,515,515,515,515,515,515,515,515,515,515,515,515,515,515,515,515,515,515,515,515,515,515,515,515,510,502,488,469,439,308,211,102,46,46,46,46,46,46,46,46,46,46,46,46,46,46,46,46,46,3,8,15],"timestamp_mouse":[8,21,40,61,80,102,122,141,160,180,202,221,241,261,281,301,321,341,362,381,400,422,441,462,481,502,521,542,561,581,601,621,640,662,681,702,721,741,762,781,801,821,841,861,882,902,921,942,962,981,1001,1022,1041,1061,1080,1101,1122,1141,1161,1181],"xSR":741.5,"ySR":449.15000000000003,"xT1":424.9,"yT1":0,"xT2":1058.1,"yT2":0,"toosoon":0,"cond_shown":"randomdotsizeEA","ratio_trial":500,"smaller_num":"9","larger_num":"18","correct_side":2,"subjID":"simonacardenasvalbuena28","gender":"1","age":"11","school":"6"},{"start_time":1551794617310,"click_time":1551794618040,"finger_time":1551794617681,"fix_duration":528.871162808458,"trial":31,"RT":371,"MT":359,"sideResp":1,"stimulus":"img/250/equaldotsize/L/1_Ratio_250_L_8_R_2.png","xmouse":[803,803,803,803,803,803,803,803,803,803,802,802,800,799,796,789,769,754,737,723,712,672,659,642,625,608,594,590,586,582,579,577,574,572,567,555,511],"ymouse":[520,520,520,520,520,520,520,520,520,517,515,514,512,510,506,496,471,450,425,401,374,307,283,254,220,182,125,99,81,72,69,69,69,70,71,74,75],"timestamp_mouse":[10,38,50,69,90,110,130,151,170,190,211,229,250,270,291,311,330,351,371,390,410,430,450,469,490,510,530,550,570,590,610,630,649,669,690,710,729],"xSR":741.5,"ySR":449.15000000000003,"xT1":424.9,"yT1":0,"xT2":1058.1,"yT2":0,"toosoon":0,"cond_shown":"equaldotsize","ratio_trial":250,"smaller_num":"2","larger_num":"8","correct_side":1,"subjID":"simonacardenasvalbuena28","gender":"1","age":"11","school":"6"},{"start_time":1551794621589,"click_time":1551794623020,"finger_time":1551794622240,"fix_duration":1048.6294013862728,"trial":32,"RT":651,"MT":780,"sideResp":1,"stimulus":"img/750/equaldotanddens/L/14_Ratio_750_L_8_R_6.png","xmouse":[814,811,810,810,810,809,809,809,809,809,809,809,809,809,809,809,809,809,809,809,809,809,809,809,809,809,809,809,809,809,810,810,811,811,811,804,795,779,774,768,765,764,754,746,737,722,682,591,518,447,402,360,330,330,332,340,345,361,369,372,377,382,392,397,403,406,407,409,410,413,422,433],"ymouse":[482,474,467,467,467,466,466,466,466,466,466,466,466,466,466,466,466,466,466,466,466,466,466,466,466,466,466,466,466,466,461,459,448,432,417,391,371,322,300,282,276,272,260,257,253,249,238,213,191,161,133,102,64,50,43,32,28,21,21,21,21,21,25,29,35,39,42,47,50,55,63,69],"timestamp_mouse":[11,40,52,71,91,112,131,151,170,192,211,231,251,271,291,310,330,351,371,392,411,431,451,471,491,511,531,551,572,591,611,632,651,670,691,710,731,751,771,791,811,832,850,872,891,911,930,950,971,990,1010,1032,1051,1072,1091,1110,1131,1151,1171,1190,1211,1230,1251,1271,1291,1310,1332,1351,1372,1392,1411,1431],"xSR":741.5,"ySR":449.15000000000003,"xT1":424.9,"yT1":0,"xT2":1058.1,"yT2":0,"toosoon":0,"cond_shown":"equaldotanddens","ratio_trial":750,"smaller_num":"6","larger_num":"8","correct_side":1,"subjID":"simonacardenasvalbuena28","gender":"1","age":"11","school":"6"},{"start_time":1551794626745,"click_time":1551794627940,"finger_time":1551794627240,"fix_duration":882.8599743534762,"trial":33,"RT":495,"MT":700,"sideResp":2,"stimulus":"img/250/equaldotanddens/R/6_Ratio_250_L_6_R_24.png","xmouse":[761,750,744,743,743,743,743,743,743,743,743,743,743,743,743,744,744,744,746,757,760,765,772,785,827,856,899,941,1002,1064,1086,1109,1126,1141,1161,1167,1172,1175,1176,1176,1175,1174,1174,1173,1172,1171,1166,1156,1145,1131,1126,1123,1121,1121,1120,1120,1120,1120,1120,1122],"ymouse":[481,477,475,475,475,475,475,475,475,475,475,475,475,475,475,475,475,475,475,475,475,474,472,461,425,399,373,349,325,298,287,273,260,248,224,211,193,178,167,151,148,146,145,144,143,142,141,137,133,124,121,118,118,114,111,110,110,108,104,95],"timestamp_mouse":[18,42,56,75,95,114,134,156,174,202,215,235,255,275,295,315,335,356,375,394,416,435,456,475,495,516,536,555,575,595,616,635,655,675,695,716,735,755,774,795,815,835,855,875,896,914,935,955,975,995,1016,1035,1054,1076,1096,1115,1134,1155,1176,1195],"xSR":741.5,"ySR":449.15000000000003,"xT1":424.9,"yT1":0,"xT2":1058.1,"yT2":0,"toosoon":0,"cond_shown":"equaldotanddens","ratio_trial":250,"smaller_num":"6","larger_num":"24","correct_side":2,"subjID":"simonacardenasvalbuena28","gender":"1","age":"11","school":"6"},{"start_time":1551794631414,"click_time":1551794632199,"finger_time":1551794631661,"fix_duration":252.13578134859728,"trial":34,"RT":247,"MT":538,"sideResp":2,"stimulus":"img/900/equaldotanddens/R/14_Ratio_900_L_18_R_20.png","xmouse":[807,807,807,807,807,807,807,807,807,807,807,797,787,777,767,755,744,742,740,737,731,714,706,698,691,681,667,662,657,656,655,657,663,680,712,761,927,990,1044,1094],"ymouse":[512,512,512,512,512,512,512,512,512,512,506,476,447,412,376,334,297,292,288,280,272,248,237,229,220,207,183,174,163,153,144,135,133,128,119,105,77,68,60,53],"timestamp_mouse":[9,42,46,67,86,106,127,146,166,185,205,225,247,266,287,307,325,346,366,386,407,425,446,466,486,505,525,547,566,587,606,626,646,666,685,706,726,747,766,785],"xSR":741.5,"ySR":449.15000000000003,"xT1":424.9,"yT1":0,"xT2":1058.1,"yT2":0,"toosoon":0,"cond_shown":"equaldotanddens","ratio_trial":900,"smaller_num":"18","larger_num":"20","correct_side":2,"subjID":"simonacardenasvalbuena28","gender":"1","age":"11","school":"6"},{"start_time":1551794635168,"click_time":1551794635980,"finger_time":1551794635720,"fix_duration":405.09781367703766,"trial":35,"RT":552,"MT":260,"sideResp":1,"stimulus":"img/750/randomdotsizeEA/L/6_Ratio_750_L_24_R_18.png","xmouse":[800,800,800,800,800,800,800,800,800,800,800,800,800,800,800,800,800,799,793,788,786,784,784,784,784,784,783,783,771,764,754,742,722,678,653,631,616,597,564,532,489],"ymouse":[491,491,491,491,491,491,491,491,491,491,491,491,491,491,491,491,491,491,480,468,459,454,452,452,452,452,451,448,411,393,372,351,320,262,233,206,190,171,142,115,78],"timestamp_mouse":[14,34,52,73,92,112,132,152,173,193,211,233,251,272,292,312,332,353,371,392,413,432,452,472,492,512,532,552,572,592,612,632,652,672,693,711,732,753,772,793,812],"xSR":741.5,"ySR":449.15000000000003,"xT1":424.9,"yT1":0,"xT2":1058.1,"yT2":0,"toosoon":0,"cond_shown":"randomdotsizeEA","ratio_trial":750,"smaller_num":"18","larger_num":"24","correct_side":1,"subjID":"simonacardenasvalbuena28","gender":"1","age":"11","school":"6"},{"start_time":1551794637192,"click_time":1551794638079,"finger_time":1551794637840,"fix_duration":250,"trial":36,"RT":648,"MT":239,"sideResp":1,"stimulus":"img/500/equaldotsize/L/10_Ratio_500_L_4_R_2.png","xmouse":[794,794,794,794,794,794,794,794,794,794,794,794,794,794,794,794,794,794,794,794,794,794,794,793,792,785,776,761,758,756,755,751,732,712,675,631,589,530,525,523,522,521,496,473,450],"ymouse":[525,525,525,525,525,525,525,525,525,525,525,525,525,525,525,525,525,525,525,525,525,525,525,524,522,516,506,484,478,476,473,468,446,418,375,315,255,168,159,157,156,155,136,115,98],"timestamp_mouse":[8,34,48,68,88,109,127,147,168,188,208,229,249,268,288,308,327,348,369,389,408,428,448,468,488,509,528,548,569,588,608,628,648,668,688,709,729,749,768,787,809,828,848,868,887],"xSR":741.5,"ySR":449.15000000000003,"xT1":424.9,"yT1":0,"xT2":1058.1,"yT2":0,"toosoon":0,"cond_shown":"equaldotsize","ratio_trial":500,"smaller_num":"2","larger_num":"4","correct_side":1,"subjID":"simonacardenasvalbuena28","gender":"1","age":"11","school":"6"},{"start_time":1551794640471,"click_time":1551794641460,"finger_time":1551794641100,"fix_duration":1310.299649707772,"trial":37,"RT":629,"MT":360,"sideResp":2,"stimulus":"img/500/equaldotsize/R/15_Ratio_500_L_1_R_2.png","xmouse":[821,821,821,821,821,821,821,821,821,821,821,821,821,821,821,821,821,821,821,821,821,821,821,821,821,821,821,821,821,821,821,821,823,858,877,902,925,951,1014,1014,1014,1014,1014,1014,1014,1014,1014,1014,1014,1112],"ymouse":[456,456,456,456,456,456,456,456,456,456,456,456,456,456,456,456,456,456,456,456,456,456,456,456,456,456,456,456,456,456,451,445,421,287,222,165,121,78,7,7,7,7,7,7,7,7,7,7,7,7],"timestamp_mouse":[9,32,50,70,88,108,130,149,170,189,208,229,249,270,288,309,330,348,370,390,409,429,449,469,488,510,529,549,569,590,609,629,649,669,690,710,729,749,770,789,810,829,849,870,889,909,930,948,969,989],"xSR":741.5,"ySR":449.15000000000003,"xT1":424.9,"yT1":0,"xT2":1058.1,"yT2":0,"toosoon":0,"cond_shown":"equaldotsize","ratio_trial":500,"smaller_num":"1","larger_num":"2","correct_side":2,"subjID":"simonacardenasvalbuena28","gender":"1","age":"11","school":"6"},{"start_time":1551794643326,"click_time":1551794644539,"finger_time":1551794643961,"fix_duration":743.1515186253336,"trial":38,"RT":635,"MT":578,"sideResp":1,"stimulus":"img/900/equaldotanddens/R/7_Ratio_900_L_9_R_10.png","xmouse":[822,822,822,822,822,822,822,822,822,822,822,822,822,822,822,822,822,822,822,822,822,822,822,822,822,822,822,822,809,793,751,718,672,608,532,394,357,333,319,315,315,315,315,314,313,306,305,305,314,328,358,360,362,362,362,362,363,365,379,412,483],"ymouse":[501,501,501,501,501,501,501,501,501,501,501,501,501,501,501,501,501,501,501,501,501,501,501,501,501,501,501,501,492,481,454,438,418,390,357,283,261,248,242,241,241,241,241,240,239,208,177,138,103,75,30,26,22,20,20,20,19,19,24,40,80],"timestamp_mouse":[15,41,54,73,94,115,134,154,174,194,214,234,254,274,295,314,334,353,374,393,413,433,455,474,494,514,534,553,574,594,614,635,655,673,694,714,734,754,774,794,814,835,853,874,894,915,934,954,973,994,1014,1033,1054,1074,1093,1114,1134,1154,1173,1193,1213],"xSR":741.5,"ySR":449.15000000000003,"xT1":424.9,"yT1":0,"xT2":1058.1,"yT2":0,"toosoon":0,"cond_shown":"equaldotanddens","ratio_trial":900,"smaller_num":"9","larger_num":"10","correct_side":2,"subjID":"simonacardenasvalbuena28","gender":"1","age":"11","school":"6"},{"start_time":1551794650833,"click_time":1551794651840,"finger_time":1551794651240,"fix_duration":1430.3912178268743,"trial":39,"RT":407,"MT":600,"sideResp":2,"stimulus":"img/500/randomdotsizeEA/R/6_Ratio_500_L_9_R_18.png","xmouse":[816,816,816,816,816,816,816,816,816,816,816,816,816,816,816,815,815,815,817,823,843,860,882,904,925,957,962,963,963,963,963,963,963,963,970,1002,1015,1025,1031,1033,1033,1033,1033,1033,1033,1039,1046,1055,1070,1086,1104],"ymouse":[515,515,515,515,515,515,515,515,515,515,515,515,515,515,513,507,502,499,491,481,452,434,409,385,365,317,299,285,277,274,273,273,272,271,266,249,241,231,224,220,216,216,216,216,216,201,188,172,151,128,74],"timestamp_mouse":[10,37,46,66,88,107,128,146,168,187,206,228,246,268,287,308,328,347,368,387,407,426,446,468,487,506,526,547,568,587,606,627,648,668,686,707,727,747,768,788,807,827,847,866,886,907,928,947,966,987,1006],"xSR":741.5,"ySR":449.15000000000003,"xT1":424.9,"yT1":0,"xT2":1058.1,"yT2":0,"toosoon":0,"cond_shown":"randomdotsizeEA","ratio_trial":500,"smaller_num":"9","larger_num":"18","correct_side":2,"subjID":"simonacardenasvalbuena28","gender":"1","age":"11","school":"6"},{"start_time":1551794655069,"click_time":1551794655940,"finger_time":1551794655480,"fix_duration":806.4948204737552,"trial":40,"RT":411,"MT":460,"sideResp":1,"stimulus":"img/750/equaldotanddens/L/8_Ratio_750_L_4_R_3.png","xmouse":[814,814,814,814,814,814,814,814,814,813,813,813,813,813,813,813,813,813,808,804,797,791,784,764,755,744,738,733,724,719,713,707,702,681,669,655,640,626,603,594,587,578,563,522],"ymouse":[489,489,489,489,489,489,489,489,489,488,488,488,487,487,486,486,485,483,466,455,445,434,425,393,378,362,347,334,306,293,279,265,252,222,206,191,173,157,131,123,116,111,102,82],"timestamp_mouse":[10,36,51,71,90,112,132,152,171,191,210,231,251,271,291,311,331,351,370,392,411,431,451,471,491,511,530,552,571,591,611,630,651,671,692,711,732,752,771,792,811,831,851,871],"xSR":741.5,"ySR":449.15000000000003,"xT1":424.9,"yT1":0,"xT2":1058.1,"yT2":0,"toosoon":0,"cond_shown":"equaldotanddens","ratio_trial":750,"smaller_num":"3","larger_num":"4","correct_side":1,"subjID":"simonacardenasvalbuena28","gender":"1","age":"11","school":"6"},{"start_time":1551794658372,"click_time":1551794659580,"finger_time":1551794658880,"fix_duration":1331.2922662740639,"trial":41,"RT":508,"MT":700,"sideResp":2,"stimulus":"img/750/randomdotsizeEA/R/11_Ratio_750_L_12_R_16.png","xmouse":[760,760,760,760,760,760,760,760,760,760,761,761,761,761,761,761,761,761,761,761,761,761,761,761,761,761,763,766,778,785,792,801,811,846,865,883,897,911,955,972,984,990,993,994,994,996,1002,1011,1047,1059,1069,1076,1077,1077,1077,1077,1078,1078,1081,1082,1084],"ymouse":[460,460,460,460,460,460,460,460,460,460,460,460,460,460,460,460,460,460,460,459,458,457,456,454,450,447,436,427,404,392,383,371,360,338,329,322,317,310,287,278,268,262,260,258,257,253,243,227,165,144,127,118,116,116,116,116,115,114,106,102,98],"timestamp_mouse":[8,38,48,69,88,107,128,148,168,189,209,229,248,267,289,307,328,348,367,388,408,429,448,468,489,508,529,549,568,589,608,628,648,668,687,708,727,749,768,788,808,828,848,868,889,908,928,948,968,988,1008,1028,1048,1068,1087,1108,1128,1148,1168,1188,1207],"xSR":741.5,"ySR":449.15000000000003,"xT1":424.9,"yT1":0,"xT2":1058.1,"yT2":0,"toosoon":0,"cond_shown":"randomdotsizeEA","ratio_trial":750,"smaller_num":"12","larger_num":"16","correct_side":2,"subjID":"simonacardenasvalbuena28","gender":"1","age":"11","school":"6"},{"start_time":1551794660925,"click_time":1551794662360,"finger_time":1551794661739,"fix_duration":484.85831370291334,"trial":42,"RT":814,"MT":621,"sideResp":2,"stimulus":"img/900/equaldotsize/R/3_Ratio_900_L_9_R_10.png","xmouse":[806,806,806,806,806,806,806,806,806,806,806,806,806,806,806,806,806,806,806,806,806,806,806,806,806,806,806,806,806,806,805,805,805,805,805,805,805,805,807,811,841,861,879,897,910,937,948,958,966,969,974,976,979,982,991,1011,1027,1048,1073,1113,1173,1199,1220,1233,1236,1236,1236,1236,1234,1229,1174,1124],"ymouse":[498,498,498,498,498,498,498,498,498,498,498,498,498,498,498,498,498,498,498,498,498,498,498,498,498,498,498,498,498,498,498,498,498,498,497,495,493,491,484,474,414,386,361,337,317,285,272,262,254,250,244,242,239,235,226,210,197,185,174,156,140,130,125,121,120,120,119,118,118,116,103,87],"timestamp_mouse":[15,43,54,75,96,115,135,155,174,195,214,236,255,275,295,316,335,355,376,395,416,436,456,475,496,516,534,556,574,596,615,635,656,675,695,715,736,756,775,796,814,835,855,875,895,915,935,955,975,995,1015,1036,1056,1075,1095,1114,1136,1156,1176,1196,1215,1235,1255,1276,1296,1315,1335,1356,1374,1396,1415,1435],"xSR":741.5,"ySR":449.15000000000003,"xT1":424.9,"yT1":0,"xT2":1058.1,"yT2":0,"toosoon":0,"cond_shown":"equaldotsize","ratio_trial":900,"smaller_num":"9","larger_num":"10","correct_side":2,"subjID":"simonacardenasvalbuena28","gender":"1","age":"11","school":"6"},{"start_time":1551794664822,"click_time":1551794665701,"finger_time":1551794665320,"fix_duration":1400.123722498768,"trial":43,"RT":498,"MT":381,"sideResp":1,"stimulus":"img/750/equaldotanddens/L/9_Ratio_750_L_4_R_3.png","xmouse":[792,792,792,792,792,792,792,792,792,792,792,792,792,792,792,792,792,792,792,792,795,797,799,801,803,808,812,816,819,821,816,798,772,730,691,628,609,589,577,564,547,538,531,521],"ymouse":[473,473,473,473,473,473,473,473,473,473,473,473,473,473,473,473,473,473,473,473,468,462,457,452,448,432,411,391,371,345,300,269,241,212,192,156,146,134,125,113,93,83,77,71],"timestamp_mouse":[17,38,58,79,97,119,138,157,179,197,219,239,259,279,298,318,338,358,379,399,417,439,458,478,498,518,537,558,579,598,617,638,658,678,697,718,738,758,779,799,818,839,858,879],"xSR":741.5,"ySR":449.15000000000003,"xT1":424.9,"yT1":0,"xT2":1058.1,"yT2":0,"toosoon":0,"cond_shown":"equaldotanddens","ratio_trial":750,"smaller_num":"3","larger_num":"4","correct_side":1,"subjID":"simonacardenasvalbuena28","gender":"1","age":"11","school":"6"},{"start_time":1551794667769,"click_time":1551794668640,"finger_time":1551794668360,"fix_duration":1128.938106521142,"trial":44,"RT":591,"MT":280,"sideResp":1,"stimulus":"img/750/equaldotsize/L/8_Ratio_750_L_4_R_3.png","xmouse":[780,780,780,780,780,780,780,780,780,780,780,780,780,780,780,780,780,780,780,780,780,781,781,782,783,784,784,785,785,785,783,776,765,729,696,662,630,604,567,554,546,539,533,514],"ymouse":[476,476,476,476,476,476,476,476,476,476,476,476,476,476,476,476,476,476,476,476,476,476,476,476,474,472,470,466,452,441,426,407,382,298,237,174,118,72,22,13,11,11,11,11],"timestamp_mouse":[12,37,51,72,91,110,131,150,171,191,211,231,251,272,291,310,331,351,371,392,412,432,452,471,492,511,531,552,570,591,611,631,652,672,691,711,731,750,771,791,811,832,852,871],"xSR":741.5,"ySR":449.15000000000003,"xT1":424.9,"yT1":0,"xT2":1058.1,"yT2":0,"toosoon":0,"cond_shown":"equaldotsize","ratio_trial":750,"smaller_num":"3","larger_num":"4","correct_side":1,"subjID":"simonacardenasvalbuena28","gender":"1","age":"11","school":"6"},{"start_time":1551794672984,"click_time":1551794673700,"finger_time":1551794673400,"fix_duration":843.5679057519052,"trial":45,"RT":416,"MT":300,"sideResp":1,"stimulus":"img/500/equaldotanddens/L/5_Ratio_500_L_4_R_2.png","xmouse":[800,800,800,800,800,800,801,804,806,806,806,806,806,806,806,807,808,816,821,830,841,858,903,922,945,955,958,921,875,813,747,682,589,553,527,506],"ymouse":[520,520,520,520,520,520,520,517,516,516,516,516,516,516,516,515,514,496,482,462,434,396,321,299,272,258,246,186,147,106,82,66,59,59,59,59],"timestamp_mouse":[15,36,56,77,97,115,136,156,177,196,217,237,257,276,296,316,337,356,376,396,416,437,456,477,496,516,536,556,576,595,616,636,656,676,695,716],"xSR":741.5,"ySR":449.15000000000003,"xT1":424.9,"yT1":0,"xT2":1058.1,"yT2":0,"toosoon":0,"cond_shown":"equaldotanddens","ratio_trial":500,"smaller_num":"2","larger_num":"4","correct_side":1,"subjID":"simonacardenasvalbuena28","gender":"1","age":"11","school":"6"},{"start_time":1551794675565,"click_time":1551794676560,"finger_time":1551794676101,"fix_duration":604.3544412989953,"trial":46,"RT":536,"MT":459,"sideResp":1,"stimulus":"img/250/equaldotsize/L/2_Ratio_250_L_16_R_4.png","xmouse":[790,790,790,790,790,790,790,790,790,790,790,790,790,790,790,790,790,790,790,790,790,790,791,801,806,815,821,823,821,813,801,789,770,710,663,616,572,534,433,400,378,374,374,376,379,385,393,413,494,509],"ymouse":[517,517,517,517,517,517,517,517,517,517,517,517,517,517,517,517,517,517,517,517,517,517,515,488,474,456,437,420,382,367,353,341,327,295,278,264,251,239,211,206,202,202,202,198,196,192,187,173,110,88],"timestamp_mouse":[16,40,54,75,96,114,135,155,174,196,215,234,256,275,296,315,336,356,374,396,415,434,455,475,495,514,536,555,576,596,615,635,655,675,695,714,734,756,775,796,815,835,856,875,896,915,936,955,974,995],"xSR":741.5,"ySR":449.15000000000003,"xT1":424.9,"yT1":0,"xT2":1058.1,"yT2":0,"toosoon":0,"cond_shown":"equaldotsize","ratio_trial":250,"smaller_num":"4","larger_num":"16","correct_side":1,"subjID":"simonacardenasvalbuena28","gender":"1","age":"11","school":"6"},{"start_time":1551794678640,"click_time":1551794679560,"finger_time":1551794679160,"fix_duration":979.4494472118944,"trial":47,"RT":520,"MT":400,"sideResp":2,"stimulus":"img/750/equaldotanddens/R/2_Ratio_750_L_6_R_8.png","xmouse":[773,773,773,773,773,773,773,773,773,773,773,773,773,773,773,773,773,773,773,773,773,775,777,784,812,824,836,846,855,877,887,900,913,932,989,1005,1018,1030,1038,1045,1048,1050,1052,1056,1070,1077],"ymouse":[477,477,477,477,477,477,477,477,477,477,477,477,477,477,477,477,477,477,477,477,477,476,475,469,453,445,436,427,418,399,387,370,351,326,259,241,224,207,196,177,168,161,152,143,104,85],"timestamp_mouse":[21,39,62,80,101,120,139,160,180,200,221,240,260,280,300,320,340,360,380,399,423,440,460,480,500,520,540,561,580,600,621,640,660,681,700,719,740,760,781,800,821,840,860,881,900,920],"xSR":741.5,"ySR":449.15000000000003,"xT1":424.9,"yT1":0,"xT2":1058.1,"yT2":0,"toosoon":0,"cond_shown":"equaldotanddens","ratio_trial":750,"smaller_num":"6","larger_num":"8","correct_side":2,"subjID":"simonacardenasvalbuena28","gender":"1","age":"11","school":"6"},{"start_time":1551794682177,"click_time":1551794683680,"finger_time":1551794683180,"fix_duration":334.4302707873652,"trial":48,"RT":1003,"MT":500,"sideResp":2,"stimulus":"img/900/equaldotsize/R/3_Ratio_900_L_9_R_10.png","xmouse":[779,774,774,765,765,765,765,765,765,765,765,765,765,765,765,765,764,763,763,763,763,763,763,763,763,763,763,763,763,763,762,762,762,762,762,762,762,762,762,762,762,762,762,762,762,762,763,766,785,820,872,933,1000,1123,1179,1217,1236,1238,1220,1202,1187,1172,1157,1117,1095,1077,1074,1073,1078,1079,1079,1079,1081,1090,1095,1099],"ymouse":[478,481,481,487,487,487,487,487,487,487,487,487,487,487,487,487,488,489,489,489,489,489,489,489,489,489,489,489,489,488,488,488,488,488,488,488,488,488,488,488,488,488,488,488,488,488,488,485,473,453,428,393,351,250,205,169,153,148,143,143,143,143,141,129,123,117,116,115,111,110,110,110,110,109,104,84],"timestamp_mouse":[3,35,43,63,83,102,124,143,163,183,204,224,243,263,283,303,323,343,363,384,403,423,443,463,484,504,523,543,563,583,603,623,643,663,683,703,724,744,762,783,803,823,844,863,884,903,924,943,963,983,1003,1023,1044,1063,1083,1102,1124,1143,1163,1182,1202,1223,1244,1262,1284,1304,1323,1344,1363,1383,1403,1423,1444,1462,1484,1503],"xSR":741.5,"ySR":449.15000000000003,"xT1":424.9,"yT1":0,"xT2":1058.1,"yT2":0,"toosoon":0,"cond_shown":"equaldotsize","ratio_trial":900,"smaller_num":"9","larger_num":"10","correct_side":2,"subjID":"simonacardenasvalbuena28","gender":"1","age":"11","school":"6"},{"start_time":1551794685373,"click_time":1551794686321,"finger_time":1551794685740,"fix_duration":731.2525175282129,"trial":49,"RT":367,"MT":581,"sideResp":2,"stimulus":"img/500/equaldotsize/R/9_Ratio_500_L_2_R_4.png","xmouse":[792,792,792,792,792,792,792,792,792,792,792,792,792,792,794,797,803,813,830,837,846,854,864,882,889,895,902,908,924,933,943,954,966,980,985,990,998,1008,1020,1023,1030,1034,1037,1037,1039,1042,1053,1061],"ymouse":[467,467,467,467,467,467,467,467,467,467,467,467,467,467,466,463,459,451,437,428,414,400,375,317,293,272,253,235,185,166,149,132,115,93,88,84,80,75,70,69,67,67,66,66,66,66,66,66],"timestamp_mouse":[9,35,46,67,87,107,127,146,167,187,208,227,248,266,287,308,327,347,367,386,407,428,448,467,488,507,527,547,567,587,607,626,647,667,686,707,727,748,767,786,807,828,848,868,888,907,928,947],"xSR":741.5,"ySR":449.15000000000003,"xT1":424.9,"yT1":0,"xT2":1058.1,"yT2":0,"toosoon":0,"cond_shown":"equaldotsize","ratio_trial":500,"smaller_num":"2","larger_num":"4","correct_side":2,"subjID":"simonacardenasvalbuena28","gender":"1","age":"11","school":"6"},{"start_time":1551794687557,"click_time":1551794688440,"finger_time":1551794687980,"fix_duration":316.9175599157046,"trial":50,"RT":423,"MT":460,"sideResp":2,"stimulus":"img/750/equaldotsize/R/3_Ratio_750_L_15_R_20.png","xmouse":[770,770,770,770,770,770,770,770,770,770,770,770,770,770,770,770,770,770,771,796,816,839,875,923,992,1010,1018,1022,1022,1021,1021,1025,1029,1035,1044,1047,1050,1052,1054,1055,1055,1055,1055,1056,1064],"ymouse":[477,477,477,477,477,477,477,477,477,477,477,477,477,477,477,477,477,477,477,466,455,441,413,371,275,230,192,170,151,122,117,110,106,100,90,87,84,83,81,80,80,80,80,79,76],"timestamp_mouse":[11,35,43,62,84,102,124,143,163,184,203,223,242,263,283,303,324,343,363,383,404,423,443,463,483,503,523,543,564,583,602,624,644,663,683,704,722,743,763,783,803,823,843,862,883],"xSR":741.5,"ySR":449.15000000000003,"xT1":424.9,"yT1":0,"xT2":1058.1,"yT2":0,"toosoon":0,"cond_shown":"equaldotsize","ratio_trial":750,"smaller_num":"15","larger_num":"20","correct_side":2,"subjID":"simonacardenasvalbuena28","gender":"1","age":"11","school":"6"},{"start_time":1551794690390,"click_time":1551794691760,"finger_time":1551794690961,"fix_duration":1066.5398218242628,"trial":51,"RT":571,"MT":799,"sideResp":1,"stimulus":"img/250/equaldotsize/L/2_Ratio_250_L_16_R_4.png","xmouse":[796,796,796,796,796,796,796,796,796,796,796,796,796,796,796,796,796,796,796,796,796,796,796,796,796,797,797,797,796,790,778,758,694,640,575,575,575,575,575,575,575,575,575,575,575,575,575,575,281,300,321,337,353,357,364,372,383,416,430,438,443,447,449,451,455,459,464,481,486],"ymouse":[475,475,475,475,475,475,475,475,475,475,475,475,475,475,475,475,475,475,475,475,475,475,475,475,475,475,474,462,445,426,397,354,218,122,10,10,10,10,10,10,10,10,10,10,10,10,10,10,14,28,41,51,60,63,69,73,81,97,104,107,109,110,110,110,110,108,106,100,98],"timestamp_mouse":[10,31,50,70,90,111,130,150,170,191,210,230,249,270,289,310,330,349,371,389,410,430,450,470,489,510,530,550,571,590,610,629,650,670,690,710,731,750,771,790,810,830,850,870,891,910,931,950,971,991,1010,1030,1050,1070,1089,1109,1129,1149,1181,1191,1210,1230,1250,1270,1289,1311,1330,1350,1370],"xSR":741.5,"ySR":449.15000000000003,"xT1":424.9,"yT1":0,"xT2":1058.1,"yT2":0,"toosoon":0,"cond_shown":"equaldotsize","ratio_trial":250,"smaller_num":"4","larger_num":"16","correct_side":1,"subjID":"simonacardenasvalbuena28","gender":"1","age":"11","school":"6"},{"start_time":1551794693611,"click_time":1551794694600,"finger_time":1551794694040,"fix_duration":929.1084621871413,"trial":52,"RT":429,"MT":560,"sideResp":2,"stimulus":"img/900/randomdotsizeEA/L/4_Ratio_900_L_20_R_18.png","xmouse":[811,811,811,811,811,811,811,811,811,811,811,811,811,811,811,811,812,812,812,812,812,812,812,812,814,820,848,867,894,913,932,958,967,974,982,992,1016,1024,1030,1034,1038,1042,1044,1047,1050,1054,1066,1072,1075,1081],"ymouse":[526,526,526,526,526,526,526,526,526,526,526,526,526,526,526,523,516,509,498,483,470,441,427,412,397,383,344,328,309,295,279,254,241,230,219,209,191,185,180,175,171,165,163,160,157,153,133,119,107,97],"timestamp_mouse":[8,41,49,70,90,109,129,148,169,189,210,229,249,268,289,308,329,349,368,389,409,429,448,470,490,509,529,548,569,589,609,629,649,669,689,710,728,749,769,790,810,829,848,869,890,910,928,950,968,989],"xSR":741.5,"ySR":449.15000000000003,"xT1":424.9,"yT1":0,"xT2":1058.1,"yT2":0,"toosoon":0,"cond_shown":"randomdotsizeEA","ratio_trial":900,"smaller_num":"18","larger_num":"20","correct_side":1,"subjID":"simonacardenasvalbuena28","gender":"1","age":"11","school":"6"},{"start_time":1551794696870,"click_time":1551794697920,"finger_time":1551794697339,"fix_duration":1427.4113516077814,"trial":53,"RT":469,"MT":581,"sideResp":2,"stimulus":"img/250/randomdotsizeEA/R/10_Ratio_250_L_4_R_16.png","xmouse":[798,798,798,798,798,798,798,798,798,798,798,798,798,798,798,798,798,798,798,799,801,803,809,836,853,879,906,931,962,972,977,981,984,998,1006,1021,1032,1048,1078,1089,1095,1098,1099,1099,1099,1099,1099,1099,1099,1098,1095,1090,1083],"ymouse":[499,499,499,499,499,499,499,499,499,499,499,499,499,499,499,499,499,499,499,498,496,487,470,420,398,363,332,302,262,251,245,242,239,228,223,212,204,194,167,156,149,144,142,142,142,142,142,141,130,121,113,100,87],"timestamp_mouse":[10,34,49,71,89,111,130,149,170,189,209,231,249,270,289,310,331,350,370,390,410,431,449,469,490,509,530,550,571,589,609,629,650,670,690,710,730,751,769,790,809,830,850,870,889,909,929,951,970,990,1010,1029,1050],"xSR":741.5,"ySR":449.15000000000003,"xT1":424.9,"yT1":0,"xT2":1058.1,"yT2":0,"toosoon":0,"cond_shown":"randomdotsizeEA","ratio_trial":250,"smaller_num":"4","larger_num":"16","correct_side":2,"subjID":"simonacardenasvalbuena28","gender":"1","age":"11","school":"6"},{"start_time":1551794699670,"click_time":1551794700780,"finger_time":1551794700260,"fix_duration":767.4972898864521,"trial":54,"RT":590,"MT":520,"sideResp":2,"stimulus":"img/500/randomdotsizeEA/R/12_Ratio_500_L_1_R_2.png","xmouse":[796,796,796,796,796,796,796,796,796,796,796,796,796,796,796,796,796,796,796,796,796,796,796,799,802,805,807,812,829,844,862,878,898,938,955,965,969,971,979,985,992,1000,1010,1025,1029,1031,1036,1042,1055,1056,1056,1056,1056,1057,1058,1067],"ymouse":[488,488,488,488,488,488,488,488,488,488,488,488,488,488,488,488,488,488,488,488,488,488,488,487,485,483,481,478,461,450,437,425,408,357,333,311,290,273,247,235,222,209,191,136,114,93,73,52,26,22,22,22,22,21,21,23],"timestamp_mouse":[9,42,50,70,89,109,131,151,171,189,210,230,251,270,290,310,330,349,371,390,410,429,451,470,490,510,530,549,570,590,611,629,651,670,691,709,731,749,770,791,810,829,850,870,889,909,931,950,969,989,1009,1030,1051,1070,1090,1109],"xSR":741.5,"ySR":449.15000000000003,"xT1":424.9,"yT1":0,"xT2":1058.1,"yT2":0,"toosoon":0,"cond_shown":"randomdotsizeEA","ratio_trial":500,"smaller_num":"1","larger_num":"2","correct_side":2,"subjID":"simonacardenasvalbuena28","gender":"1","age":"11","school":"6"},{"start_time":1551794701728,"click_time":1551794702561,"finger_time":1551794702200,"fix_duration":266.365771240376,"trial":55,"RT":472,"MT":361,"sideResp":2,"stimulus":"img/750/equaldotsize/R/11_Ratio_750_L_12_R_16.png","xmouse":[786,786,786,786,786,786,786,786,786,786,786,786,786,786,786,786,786,786,787,787,797,808,822,834,844,861,868,873,881,889,912,923,934,944,955,977,989,1001,1015,1030,1056,1060],"ymouse":[497,497,497,497,497,497,497,497,497,497,497,497,497,497,497,497,497,497,496,495,489,478,454,430,407,365,347,328,309,289,234,207,183,163,145,118,104,90,78,68,54,51],"timestamp_mouse":[26,33,51,72,92,112,132,151,171,193,212,231,253,272,291,312,332,351,373,392,411,432,452,472,492,512,533,552,571,592,611,631,652,672,693,712,731,751,772,793,811,832],"xSR":741.5,"ySR":449.15000000000003,"xT1":424.9,"yT1":0,"xT2":1058.1,"yT2":0,"toosoon":0,"cond_shown":"equaldotsize","ratio_trial":750,"smaller_num":"12","larger_num":"16","correct_side":2,"subjID":"simonacardenasvalbuena28","gender":"1","age":"11","school":"6"},{"start_time":1551794704243,"click_time":1551794705141,"finger_time":1551794704760,"fix_duration":822.7025521100469,"trial":56,"RT":517,"MT":381,"sideResp":2,"stimulus":"img/900/equaldotsize/R/14_Ratio_900_L_18_R_20.png","xmouse":[773,773,773,773,773,773,773,773,773,773,773,773,773,773,773,773,773,773,773,773,773,774,778,779,793,805,823,842,863,902,923,942,963,984,1024,1037,1046,1053,1059,1069,1074,1080,1085,1087,1095],"ymouse":[486,486,486,486,486,486,486,486,486,486,486,486,486,486,486,486,486,486,486,486,486,486,485,484,461,443,416,389,361,301,271,241,217,193,145,131,125,120,116,109,106,104,102,101,98],"timestamp_mouse":[17,36,62,77,97,118,136,157,177,198,218,237,256,277,296,318,337,356,377,397,418,436,458,478,497,517,537,557,577,597,616,637,657,676,697,717,737,757,776,797,818,837,856,877,898],"xSR":741.5,"ySR":449.15000000000003,"xT1":424.9,"yT1":0,"xT2":1058.1,"yT2":0,"toosoon":0,"cond_shown":"equaldotsize","ratio_trial":900,"smaller_num":"18","larger_num":"20","correct_side":2,"subjID":"simonacardenasvalbuena28","gender":"1","age":"11","school":"6"},{"start_time":1551794706391,"click_time":1551794707321,"finger_time":1551794706900,"fix_duration":549.0097380363998,"trial":57,"RT":509,"MT":421,"sideResp":2,"stimulus":"img/250/equaldotanddens/R/10_Ratio_250_L_4_R_16.png","xmouse":[779,779,779,779,779,779,779,779,779,779,779,779,779,779,779,779,779,779,779,779,779,779,780,788,798,811,825,866,886,906,928,950,978,985,987,988,989,998,1005,1010,1015,1021,1028,1030,1039,1052,1071],"ymouse":[495,495,495,495,495,495,495,495,495,495,495,495,495,495,495,495,495,495,495,495,495,494,493,482,466,449,428,357,320,274,226,188,141,130,126,125,124,120,116,112,108,103,100,99,98,97,94],"timestamp_mouse":[9,40,48,69,89,108,128,150,168,188,210,230,248,270,289,308,329,348,369,388,409,429,449,470,489,509,529,549,570,589,610,628,649,669,689,709,729,750,768,789,809,829,849,869,889,909,930],"xSR":741.5,"ySR":449.15000000000003,"xT1":424.9,"yT1":0,"xT2":1058.1,"yT2":0,"toosoon":0,"cond_shown":"equaldotanddens","ratio_trial":250,"smaller_num":"4","larger_num":"16","correct_side":2,"subjID":"simonacardenasvalbuena28","gender":"1","age":"11","school":"6"},{"start_time":1551794709435,"click_time":1551794710501,"finger_time":1551794709939,"fix_duration":1274.7908292519764,"trial":58,"RT":504,"MT":562,"sideResp":1,"stimulus":"img/250/randomdotsizeEA/L/7_Ratio_250_L_8_R_2.png","xmouse":[766,766,766,766,766,766,766,766,766,766,766,766,766,766,766,766,766,766,766,767,770,771,773,775,776,790,793,796,796,796,784,768,746,688,661,542,542,542,542,542,542,542,542,542,542,542,542,542,542,542,542,542,466,469],"ymouse":[493,493,493,493,493,493,493,493,493,493,493,493,493,493,493,493,493,493,493,492,490,489,488,481,478,444,425,403,380,356,301,263,223,150,122,17,17,17,17,17,17,17,17,17,17,17,17,17,17,17,17,17,0,4],"timestamp_mouse":[8,38,44,65,84,104,124,145,166,184,206,224,245,265,284,304,325,345,364,384,405,425,444,465,486,504,526,544,565,585,604,626,645,664,686,705,725,745,765,786,805,824,845,864,884,905,925,944,965,985,1005,1025,1046,1066],"xSR":741.5,"ySR":449.15000000000003,"xT1":424.9,"yT1":0,"xT2":1058.1,"yT2":0,"toosoon":0,"cond_shown":"randomdotsizeEA","ratio_trial":250,"smaller_num":"2","larger_num":"8","correct_side":1,"subjID":"simonacardenasvalbuena28","gender":"1","age":"11","school":"6"},{"start_time":1551794712535,"click_time":1551794713840,"finger_time":1551794713081,"fix_duration":954.1436705917637,"trial":59,"RT":546,"MT":759,"sideResp":1,"stimulus":"img/750/equaldotanddens/L/14_Ratio_750_L_8_R_6.png","xmouse":[774,774,774,774,774,774,774,774,774,774,774,774,774,774,774,774,774,774,774,775,777,778,780,782,784,795,801,812,821,834,866,872,882,886,890,899,901,904,908,912,925,929,931,934,935,935,935,935,927,915,797,762,739,721,707,687,674,660,645,626,583,572,562,551,533,501],"ymouse":[481,481,481,481,481,481,481,481,481,481,481,481,481,481,481,481,481,481,481,481,480,480,478,477,475,463,453,438,425,404,318,293,263,238,219,179,164,147,133,120,95,89,86,83,83,83,83,83,83,81,80,89,94,96,96,95,91,89,85,79,67,64,62,58,53,48],"timestamp_mouse":[11,35,45,66,85,106,125,145,166,184,206,225,244,265,285,304,325,346,365,385,404,425,445,466,486,504,526,546,565,584,605,624,645,665,684,705,726,744,764,786,804,825,845,865,886,905,924,944,966,986,1005,1025,1044,1065,1086,1105,1125,1145,1164,1186,1205,1224,1245,1266,1284,1305],"xSR":741.5,"ySR":449.15000000000003,"xT1":424.9,"yT1":0,"xT2":1058.1,"yT2":0,"toosoon":0,"cond_shown":"equaldotanddens","ratio_trial":750,"smaller_num":"6","larger_num":"8","correct_side":1,"subjID":"simonacardenasvalbuena28","gender":"1","age":"11","school":"6"},{"start_time":1551794716268,"click_time":1551794717321,"finger_time":1551794716739,"fix_duration":1407.145239908858,"trial":60,"RT":471,"MT":582,"sideResp":2,"stimulus":"img/250/equaldotanddens/R/8_Ratio_250_L_1_R_4.png","xmouse":[784,784,784,784,784,784,784,784,784,784,784,784,784,784,784,784,784,785,788,792,795,799,807,818,824,832,839,845,860,867,876,885,893,919,933,952,966,975,979,979,979,979,979,979,979,980,983,992,1018,1031,1043,1055,1068],"ymouse":[505,505,505,505,505,505,505,505,505,505,505,505,505,505,505,505,505,505,502,494,487,474,452,416,393,370,345,322,280,260,239,220,200,156,138,114,95,81,75,75,75,75,75,75,75,75,74,69,58,53,48,45,43],"timestamp_mouse":[12,41,51,73,92,112,132,152,173,192,212,231,252,273,291,312,333,352,372,392,412,431,452,471,492,511,532,553,572,593,612,631,653,672,691,712,731,752,772,793,811,832,853,872,892,912,932,951,972,993,1012,1031,1052],"xSR":741.5,"ySR":449.15000000000003,"xT1":424.9,"yT1":0,"xT2":1058.1,"yT2":0,"toosoon":0,"cond_shown":"equaldotanddens","ratio_trial":250,"smaller_num":"1","larger_num":"4","correct_side":2,"subjID":"simonacardenasvalbuena28","gender":"1","age":"11","school":"6"},{"start_time":1551794719314,"click_time":1551794720320,"finger_time":1551794719961,"fix_duration":1172.4650153752145,"trial":61,"RT":647,"MT":359,"sideResp":1,"stimulus":"img/750/equaldotsize/L/8_Ratio_750_L_4_R_3.png","xmouse":[822,822,822,822,822,822,822,822,822,822,822,822,822,822,822,822,822,822,822,822,822,822,822,822,822,822,822,821,818,816,814,799,788,765,730,676,548,493,467,452,448,447,447,447,447,447,447,447,447,447,447],"ymouse":[491,491,491,491,491,491,491,491,491,491,491,491,491,491,491,491,491,491,491,491,491,491,491,491,491,491,491,487,484,481,478,455,437,407,362,302,196,156,135,122,119,118,118,118,118,116,111,107,103,100,99],"timestamp_mouse":[11,39,45,65,85,106,126,147,166,185,205,226,245,265,285,305,326,347,366,386,405,425,447,465,487,505,526,545,566,586,605,626,647,665,686,707,726,746,766,785,807,827,846,866,886,905,925,947,967,987,1006],"xSR":741.5,"ySR":449.15000000000003,"xT1":424.9,"yT1":0,"xT2":1058.1,"yT2":0,"toosoon":0,"cond_shown":"equaldotsize","ratio_trial":750,"smaller_num":"3","larger_num":"4","correct_side":1,"subjID":"simonacardenasvalbuena28","gender":"1","age":"11","school":"6"},{"start_time":1551794722343,"click_time":1551794723420,"finger_time":1551794722839,"fix_duration":701.6051370975293,"trial":62,"RT":496,"MT":581,"sideResp":1,"stimulus":"img/900/randomdotsizeEA/R/9_Ratio_900_L_18_R_20.png","xmouse":[766,766,766,766,766,766,766,766,766,766,766,766,766,766,766,766,766,766,766,766,769,772,780,787,803,805,808,809,811,811,811,811,811,810,793,779,763,736,708,655,598,579,565,553,541,540,540,540,540,540,539,534,518,495],"ymouse":[501,501,501,501,501,501,501,501,501,501,501,501,501,501,501,501,501,501,501,501,499,497,489,480,449,431,409,387,366,309,287,266,244,225,193,177,166,155,145,134,126,123,121,117,114,113,113,113,113,113,113,108,102,92],"timestamp_mouse":[18,41,57,77,97,117,137,157,177,196,216,236,258,278,297,318,338,358,376,398,417,437,457,478,496,517,537,556,577,597,617,636,656,676,697,718,737,757,777,796,816,836,857,878,896,917,938,957,978,997,1018,1037,1057,1077],"xSR":741.5,"ySR":449.15000000000003,"xT1":424.9,"yT1":0,"xT2":1058.1,"yT2":0,"toosoon":0,"cond_shown":"randomdotsizeEA","ratio_trial":900,"smaller_num":"18","larger_num":"20","correct_side":2,"subjID":"simonacardenasvalbuena28","gender":"1","age":"11","school":"6"},{"start_time":1551794725102,"click_time":1551794726120,"finger_time":1551794725481,"fix_duration":739.8644251839088,"trial":63,"RT":379,"MT":639,"sideResp":1,"stimulus":"img/750/randomdotsizeEA/R/2_Ratio_750_L_6_R_8.png","xmouse":[771,771,771,768,767,767,767,766,766,766,766,766,769,770,771,771,771,771,771,771,771,770,770,770,770,759,733,637,581,552,552,552,552,552,552,552,552,552,552,552,552,552,552,552,552,552,359,376,385,395,409,434],"ymouse":[499,499,504,524,529,529,529,528,522,516,508,501,480,470,463,457,452,451,451,449,445,433,405,352,320,267,205,66,19,1,1,1,1,1,1,1,1,1,1,1,1,1,1,1,1,1,9,39,50,60,68,75],"timestamp_mouse":[1,19,37,57,79,98,118,137,159,179,198,218,237,258,278,299,317,338,358,379,397,418,437,457,477,498,518,537,558,578,598,618,638,658,678,697,717,738,758,777,797,818,839,859,878,898,917,938,958,978,998,1018],"xSR":741.5,"ySR":449.15000000000003,"xT1":424.9,"yT1":0,"xT2":1058.1,"yT2":0,"toosoon":0,"cond_shown":"randomdotsizeEA","ratio_trial":750,"smaller_num":"6","larger_num":"8","correct_side":2,"subjID":"simonacardenasvalbuena28","gender":"1","age":"11","school":"6"},{"start_time":1551794727350,"click_time":1551794728420,"finger_time":1551794728040,"fix_duration":250,"trial":64,"RT":690,"MT":380,"sideResp":1,"stimulus":"img/500/randomdotsizeEA/L/8_Ratio_500_L_8_R_4.png","xmouse":[774,775,775,775,775,775,775,775,775,775,775,775,775,775,775,775,775,775,776,780,783,788,790,790,790,790,790,790,790,790,790,790,790,790,790,790,790,790,790,790,790,790,790,789,788,786,786,784,784,777,746,682,595,506],"ymouse":[506,505,505,505,505,505,505,505,505,505,505,505,505,505,505,505,505,505,505,501,494,488,484,482,479,478,478,478,478,475,471,465,459,453,447,447,447,447,447,447,447,447,447,450,452,458,462,466,468,458,392,299,187,90],"timestamp_mouse":[16,40,50,70,89,111,130,149,171,190,210,231,251,270,290,310,330,349,369,389,410,430,450,471,490,510,530,550,569,589,610,630,650,670,690,711,730,750,770,790,810,831,850,869,890,909,930,949,970,990,1010,1031,1050,1069],"xSR":741.5,"ySR":449.15000000000003,"xT1":424.9,"yT1":0,"xT2":1058.1,"yT2":0,"toosoon":0,"cond_shown":"randomdotsizeEA","ratio_trial":500,"smaller_num":"4","larger_num":"8","correct_side":1,"subjID":"simonacardenasvalbuena28","gender":"1","age":"11","school":"6"},{"start_time":1551794731149,"click_time":1551794732860,"finger_time":1551794731701,"fix_duration":767.7597839326475,"trial":65,"RT":552,"MT":1159,"sideResp":2,"stimulus":"img/900/equaldotanddens/L/1_Ratio_900_L_10_R_9.png","xmouse":[791,791,791,791,791,791,791,791,791,791,791,791,791,791,791,791,791,791,791,791,791,791,791,791,791,794,797,799,805,814,821,828,838,858,919,934,946,956,964,972,975,976,978,978,983,989,999,1008,1019,1037,1042,1043,1045,1047,1049,1053,1054,1054,1055,1055,1055,1055,1055,1055,1055,1055,1055,1055,1055,1053,1048,1044,1039,1036,1033,1033,1033,1033,1033,1033,1033,1038,1042,1048,1056,1060],"ymouse":[502,502,502,502,502,502,502,502,502,502,502,502,502,502,502,502,502,502,502,502,502,501,497,490,473,464,456,444,426,395,374,354,330,299,230,212,193,176,160,142,137,135,133,132,127,121,112,103,94,77,70,68,64,61,58,53,52,52,51,51,51,51,51,51,51,51,51,51,51,52,56,61,68,76,85,87,89,89,89,89,89,87,84,80,75,73],"timestamp_mouse":[10,41,50,71,92,110,132,150,171,192,210,230,251,270,290,311,332,351,372,391,412,431,452,471,491,512,530,552,572,591,611,630,650,671,691,711,732,752,770,791,810,831,851,870,891,910,931,951,970,991,1012,1031,1050,1070,1090,1111,1131,1150,1171,1190,1210,1231,1250,1271,1292,1311,1331,1350,1370,1391,1412,1432,1452,1472,1491,1512,1531,1551,1570,1590,1611,1630,1651,1671,1691,1711],"xSR":741.5,"ySR":449.15000000000003,"xT1":424.9,"yT1":0,"xT2":1058.1,"yT2":0,"toosoon":0,"cond_shown":"equaldotanddens","ratio_trial":900,"smaller_num":"9","larger_num":"10","correct_side":1,"subjID":"simonacardenasvalbuena28","gender":"1","age":"11","school":"6"},{"start_time":1551794734669,"click_time":1551794735821,"finger_time":1551794735020,"fix_duration":788.6148815940744,"trial":66,"RT":351,"MT":801,"sideResp":1,"stimulus":"img/900/equaldotanddens/L/8_Ratio_900_L_20_R_18.png","xmouse":[786,786,786,786,786,786,786,786,786,786,786,786,786,786,786,786,786,786,786,786,786,786,786,786,786,786,786,786,786,786,786,785,784,782,781,778,773,759,692,666,650,631,625,615,615,615,615,615,615,614,612,608,604,585,566,542,525,509],"ymouse":[499,499,499,499,499,499,499,499,499,499,499,494,491,478,472,464,455,445,434,433,432,431,430,427,424,421,417,413,404,402,398,395,390,384,379,369,352,313,189,146,117,89,82,69,69,69,69,69,69,68,68,68,67,64,61,59,59,59],"timestamp_mouse":[10,38,51,70,90,111,130,152,171,191,211,232,251,271,290,311,332,351,370,390,410,431,451,471,492,510,530,551,571,592,611,631,651,671,691,712,730,750,771,790,810,831,852,871,891,911,930,951,970,990,1011,1031,1051,1071,1091,1111,1132,1152],"xSR":741.5,"ySR":449.15000000000003,"xT1":424.9,"yT1":0,"xT2":1058.1,"yT2":0,"toosoon":0,"cond_shown":"equaldotanddens","ratio_trial":900,"smaller_num":"18","larger_num":"20","correct_side":1,"subjID":"simonacardenasvalbuena28","gender":"1","age":"11","school":"6"},{"start_time":1551794738079,"click_time":1551794739061,"finger_time":1551794738539,"fix_duration":1258.8241383951063,"trial":67,"RT":460,"MT":522,"sideResp":1,"stimulus":"img/500/equaldotanddens/L/7_Ratio_500_L_10_R_5.png","xmouse":[769,769,769,769,769,769,769,769,769,769,769,769,769,769,769,768,767,767,765,765,763,763,760,752,744,736,730,724,714,705,690,674,655,572,527,495,478,464,456,456,456,457,458,467,471,476,480,482,483,484],"ymouse":[494,494,494,494,494,494,494,494,494,494,494,494,494,494,486,481,478,476,471,470,467,462,458,443,432,422,415,409,397,387,374,362,349,302,276,255,241,226,203,194,188,184,180,169,166,156,142,127,100,88],"timestamp_mouse":[9,21,42,60,82,101,120,142,160,181,200,222,242,260,281,301,321,340,361,382,400,422,440,460,481,500,521,542,561,582,601,621,640,660,680,701,721,742,761,782,801,820,841,860,880,901,921,941,961,981],"xSR":741.5,"ySR":449.15000000000003,"xT1":424.9,"yT1":0,"xT2":1058.1,"yT2":0,"toosoon":0,"cond_shown":"equaldotanddens","ratio_trial":500,"smaller_num":"5","larger_num":"10","correct_side":1,"subjID":"simonacardenasvalbuena28","gender":"1","age":"11","school":"6"},{"start_time":1551794740467,"click_time":1551794741900,"finger_time":1551794741060,"fix_duration":304.9645528461512,"trial":68,"RT":593,"MT":840,"sideResp":2,"stimulus":"img/500/equaldotanddens/R/9_Ratio_500_L_2_R_4.png","xmouse":[768,768,768,768,768,768,768,768,768,768,768,768,768,768,768,768,768,768,768,768,768,768,768,768,768,768,770,772,786,796,813,821,828,841,849,857,863,865,877,887,903,920,934,968,975,980,984,986,993,996,998,1000,1001,1006,1008,1009,1011,1012,1016,1020,1024,1029,1031,1037,1039,1042,1045,1047,1048,1048,1051,1061],"ymouse":[509,509,509,509,509,509,509,509,509,509,509,509,509,509,509,509,509,509,509,509,509,509,509,509,509,509,505,500,462,439,414,398,373,341,326,313,303,296,276,262,244,224,204,155,142,131,122,115,103,99,95,90,87,77,76,73,72,70,66,63,60,57,56,52,51,50,49,48,48,48,48,52],"timestamp_mouse":[13,38,53,72,94,114,133,152,172,193,213,232,253,273,292,313,333,354,374,392,413,432,454,472,494,514,533,552,573,593,613,633,653,673,693,712,733,752,774,793,813,833,853,873,892,912,933,953,973,992,1014,1034,1054,1072,1093,1114,1132,1153,1174,1193,1212,1233,1253,1273,1294,1313,1334,1352,1372,1393,1413,1433],"xSR":741.5,"ySR":449.15000000000003,"xT1":424.9,"yT1":0,"xT2":1058.1,"yT2":0,"toosoon":0,"cond_shown":"equaldotanddens","ratio_trial":500,"smaller_num":"2","larger_num":"4","correct_side":2,"subjID":"simonacardenasvalbuena28","gender":"1","age":"11","school":"6"},{"start_time":1551794744251,"click_time":1551794748440,"finger_time":1551794747920,"fix_duration":250,"trial":69,"RT":3669,"MT":520,"sideResp":1,"stimulus":"img/500/equaldotanddens/R/15_Ratio_500_L_1_R_2.png","xmouse":[778,778,778,778,778,778,778,778,778,778,778,778,778,778,778,778,778,778,778,778,778,778,778,778,777,775,773,773,773,773,773,772,771,769,767,767,777,789,797,797,797,797,797,797,797,797,797,797,797,797,797,797,797,797,797,797,797,797,797,797,797,797,797,797,797,797,797,797,797,797,797,797,797,797,797,797,797,797,797,797,797,797,797,797,797,797,797,797,797,797,797,797,797,797,797,797,797,797,797,797,797,797,797,797,797,797,797,797,797,797,797,797,797,797,797,797,797,797,797,797,797,797,797,797,797,797,797,797,797,797,793,790,789,789,789,789,789,789,789,789,789,789,789,789,789,789,789,789,789,789,789,789,789,789,789,789,789,789,789,789,789,789,789,789,788,787,786,785,784,783,782,782,781,781,780,780,780,780,780,780,780,780,782,788,806,813,813,806,794,762,753,747,740,729,692,677,659,637,616,595,589,584,581,577,572,569,562,551,537,503],"ymouse":[483,483,483,483,483,483,483,483,483,483,483,483,483,483,483,483,483,483,483,483,483,483,483,483,476,471,465,465,465,465,465,464,464,465,468,471,477,489,506,506,506,506,506,506,506,506,506,506,506,506,506,506,506,506,506,506,506,506,506,506,506,506,506,506,506,506,506,506,506,506,506,506,506,506,506,506,506,506,506,506,506,506,506,506,506,506,506,506,506,506,506,506,506,506,506,506,506,506,506,506,506,506,506,506,506,506,506,506,506,506,506,506,506,506,506,506,506,506,506,506,506,506,506,506,506,506,506,506,506,5