[{"start_time":1551901033871,"click_time":1551901035894,"finger_time":1551901035374,"fix_duration":393.11291494912746,"trial":0,"RT":1503,"MT":520,"sideResp":2,"stimulus":[],"xmouse":[781,781,781,781,781,781,781,781,781,781,781,781,781,781,781,781,781,781,781,781,781,781,781,781,781,781,781,781,781,781,781,781,781,781,781,781,781,781,781,781,781,781,781,781,781,781,781,781,781,781,781,781,781,781,781,781,781,781,781,781,781,781,781,781,781,781,781,781,781,781,781,781,787,830,869,914,1011,1011,1082,1089,1091,1094,1095,1101,1106,1112,1115,1120,1125,1129,1130,1132,1132,1132,1132,1132,1132,1132,1132,1129,1125],"ymouse":[502,502,502,502,502,502,502,502,502,502,502,502,502,502,502,502,502,502,502,502,502,502,502,502,502,502,502,502,502,502,502,502,502,502,502,502,502,502,502,502,502,502,502,502,502,502,502,502,502,502,502,502,502,502,502,502,502,502,502,502,502,502,502,502,502,502,502,502,502,502,502,502,498,483,470,460,445,445,420,414,410,406,402,389,377,359,341,307,274,245,218,195,180,161,155,149,144,137,124,109,93],"timestamp_mouse":[10,54,62,83,102,123,143,163,183,203,223,242,264,283,304,323,343,362,383,403,423,443,463,484,503,524,543,562,583,602,624,643,663,682,702,724,744,763,783,803,823,843,862,883,902,924,942,963,983,1006,1024,1043,1063,1083,1103,1123,1143,1163,1183,1203,1224,1243,1262,1283,1303,1323,1343,1363,1383,1403,1424,1443,1462,1483,1503,1524,1545,1564,1584,1604,1623,1643,1663,1683,1704,1723,1743,1763,1784,1804,1823,1843,1863,1883,1903,1923,1944,1963,1983,2003,2022],"xSR":741.5,"ySR":469.95,"xT1":424.9,"yT1":0,"xT2":1058.1,"yT2":0,"toosoon":0,"cond_shown":"Congruent","ratio_trial":200,"L_num":7,"L_den":15,"R_num":18,"R_den":27,"correct_side":2,"subjID":"Simon Cabrera ","gender":"0","age":"10","school":"6","test":{"fix_dur":[250,1500],"timestim":1000,"targets_dim":[100,100],"targets_relative_coord":[0.3,0.7],"size_stim":[880,420],"start_dim":[100,100],"size_start":[300,300],"size_fix":60,"samplingrate":20,"img_types":["Congruent","Incongruent"],"ratios":[100,200,300],"rep_conds":19,"nTrials":120,"trials_to_rest":500,"Trials_order":[26,97,100,106,60,111,55,13,43,1,18,51,92,109,66,27,16,54,116,112,61,115,46,113,11,76,95,20,58,47,21,41,57,78,71,73,3,114,45,67,59,118,5,99,50,19,117,12,103,87,7,30,38,36,40,6,75,65,79,80,33,22,108,89,91,8,77,28,72,68,24,107,101,98,2,44,10,31,90,37,69,74,25,49,104,32,81,86,39,84,83,17,85,14,102,70,56,110,9,23,82,4,96,15,35,53,119,93,29,63,88,34,105,0,52,62,64,42,94,48],"cond_shown":["Congruent","Incongruent","Congruent","Congruent","Congruent","Incongruent","Incongruent","Incongruent","Incongruent","Incongruent","Congruent","Incongruent","Congruent","Incongruent","Congruent","Incongruent","Congruent","Congruent","Congruent","Congruent","Incongruent","Incongruent","Congruent","Incongruent","Incongruent","Congruent","Incongruent","Congruent","Congruent","Incongruent","Incongruent","Incongruent","Incongruent","Congruent","Incongruent","Incongruent","Incongruent","Congruent","Incongruent","Incongruent","Incongruent","Congruent","Incongruent","Incongruent","Congruent","Incongruent","Incongruent","Congruent","Incongruent","Incongruent","Incongruent","Congruent","Congruent","Congruent","Congruent","Congruent","Incongruent","Incongruent","Incongruent","Congruent","Incongruent","Congruent","Congruent","Incongruent","Incongruent","Congruent","Incongruent","Congruent","Congruent","Congruent","Congruent","Incongruent","Incongruent","Congruent","Congruent","Congruent","Congruent","Incongruent","Congruent","Incongruent","Incongruent","Congruent","Incongruent","Incongruent","Congruent","Congruent","Incongruent","Congruent","Incongruent","Congruent","Incongruent","Incongruent","Incongruent","Congruent","Congruent","Congruent","Congruent","Congruent","Incongruent","Incongruent","Congruent","Congruent","Congruent","Incongruent","Incongruent","Incongruent","Incongruent","Incongruent","Incongruent","Incongruent","Congruent","Congruent","Incongruent","Congruent","Congruent","Congruent","Congruent","Congruent","Congruent","Congruent"],"ratio_trial":[200,100,300,300,100,200,100,100,100,100,100,200,200,100,100,200,300,100,200,300,100,100,300,300,300,300,300,200,300,300,200,300,200,100,300,100,200,100,200,100,300,300,300,200,200,100,200,100,100,200,100,100,200,100,300,100,200,300,100,200,200,300,100,300,100,200,300,300,100,200,100,300,300,200,200,200,300,100,100,100,200,200,100,100,200,200,200,200,200,100,300,300,100,200,100,300,200,200,200,300,300,300,100,200,300,300,300,200,300,200,300,300,200,100,300,200,300,100,300,100],"left_num":[7,9,3,5,2,1,6,9,10,10,11,3,6,8,7,7,24,1,13,20,3,9,11,1,7,20,1,20,2,8,4,13,6,10,13,2,7,12,7,8,7,24,4,1,8,13,7,8,8,3,9,11,3,4,20,4,4,4,11,7,11,1,2,4,6,3,13,2,2,3,2,3,1,8,12,4,3,9,1,2,1,21,4,8,3,3,1,1,1,1,13,4,6,7,2,11,12,6,7,7,1,12,6,6,4,4,13,3,2,7,11,12,4,7,5,3,5,9,9,3],"right_num":[18,20,11,6,11,3,7,13,8,8,6,11,11,6,9,12,2,18,14,14,4,6,2,3,8,9,3,9,12,9,6,12,3,3,12,8,12,13,8,1,8,8,2,3,7,12,12,2,6,1,13,6,14,15,5,6,6,2,9,2,3,19,11,2,3,11,12,10,11,14,6,4,3,7,6,3,4,13,18,6,2,2,8,1,14,7,3,21,2,3,12,2,7,18,6,1,6,11,12,8,19,2,5,3,6,2,12,1,6,4,1,2,14,15,7,7,6,8,3,2],"left_den":[15,10,12,25,5,2,10,15,25,25,22,4,20,16,14,10,30,2,26,25,6,18,22,2,10,25,2,25,10,10,5,26,20,25,26,4,10,30,10,20,10,30,20,2,15,26,10,16,16,10,15,22,6,10,25,8,5,20,22,21,20,3,5,20,12,10,26,20,5,10,5,6,2,15,15,10,6,15,2,4,3,30,8,20,6,10,2,2,3,2,26,20,10,15,5,22,20,20,10,10,3,24,20,20,5,20,26,10,4,15,22,24,6,14,25,10,25,15,10,6],"right_den":[27,25,20,12,22,10,14,26,16,16,15,20,22,10,15,24,4,30,20,28,10,10,10,15,20,18,15,15,24,18,10,15,6,10,15,20,24,26,16,2,20,16,4,10,21,20,24,5,10,2,26,15,20,30,10,10,10,4,15,15,4,30,22,4,5,22,15,25,22,28,12,20,15,21,10,15,5,26,30,15,15,4,20,2,20,14,10,30,15,5,15,4,14,27,12,5,15,22,24,20,30,10,25,6,12,4,15,2,30,6,5,10,30,25,14,14,12,16,5,5],"correct_side":[2,1,2,2,2,1,1,1,2,2,1,1,2,2,2,1,1,2,2,1,1,2,1,1,1,1,1,1,2,1,1,2,2,1,2,1,1,2,1,2,1,1,2,1,1,2,1,1,2,2,1,1,2,2,1,2,1,2,2,1,2,2,2,2,2,2,2,2,2,2,2,1,1,1,1,1,2,1,2,1,1,1,1,2,2,2,1,2,1,2,2,2,1,2,2,1,1,2,1,1,2,1,1,2,1,2,2,2,1,2,1,1,1,2,2,2,2,1,1,1],"img_shown":["img2/200/Congruent/R/C_Dist_200_LN_7_LD_15_RN_18_RD_27_1.png","img2/100/Incongruent/L/I_Dist_100_LN_9_LD_10_RN_20_RD_25_0.png","img2/300/Congruent/R/C_Dist_300_LN_3_LD_12_RN_11_RD_20_1.png","img2/300/Congruent/R/C_Dist_300_LN_5_LD_25_RN_6_RD_12_1.png","img2/100/Congruent/R/C_Dist_100_LN_2_LD_5_RN_11_RD_22_1.png","img2/200/Incongruent/L/I_Dist_200_LN_1_LD_2_RN_3_RD_10_0.png","img2/100/Incongruent/L/I_Dist_100_LN_6_LD_10_RN_7_RD_14_0.png","img2/100/Incongruent/L/I_Dist_100_LN_9_LD_15_RN_13_RD_26_0.png","img2/100/Incongruent/R/I_Dist_100_LN_10_LD_25_RN_8_RD_16_1.png","img2/100/Incongruent/R/I_Dist_100_LN_10_LD_25_RN_8_RD_16_1.png","img2/100/Congruent/L/C_Dist_100_LN_11_LD_22_RN_6_RD_15_0.png","img2/200/Incongruent/L/I_Dist_200_LN_3_LD_4_RN_11_RD_20_0.png","img2/200/Congruent/R/C_Dist_200_LN_6_LD_20_RN_11_RD_22_1.png","img2/100/Incongruent/R/I_Dist_100_LN_8_LD_16_RN_6_RD_10_1.png","img2/100/Congruent/R/C_Dist_100_LN_7_LD_14_RN_9_RD_15_1.png","img2/200/Incongruent/L/I_Dist_200_LN_7_LD_10_RN_12_RD_24_0.png","img2/300/Congruent/L/C_Dist_300_LN_24_LD_30_RN_2_RD_4_0.png","img2/100/Congruent/R/C_Dist_100_LN_1_LD_2_RN_18_RD_30_1.png","img2/200/Congruent/R/C_Dist_200_LN_13_LD_26_RN_14_RD_20_1.png","img2/300/Congruent/L/C_Dist_300_LN_20_LD_25_RN_14_RD_28_0.png","img2/100/Incongruent/L/I_Dist_100_LN_3_LD_6_RN_4_RD_10_0.png","img2/100/Incongruent/R/I_Dist_100_LN_9_LD_18_RN_6_RD_10_1.png","img2/300/Congruent/L/C_Dist_300_LN_11_LD_22_RN_2_RD_10_0.png","img2/300/Incongruent/L/I_Dist_300_LN_1_LD_2_RN_3_RD_15_0.png","img2/300/Incongruent/L/I_Dist_300_LN_7_LD_10_RN_8_RD_20_0.png","img2/300/Congruent/L/C_Dist_300_LN_20_LD_25_RN_9_RD_18_0.png","img2/300/Incongruent/L/I_Dist_300_LN_1_LD_2_RN_3_RD_15_0.png","img2/200/Congruent/L/C_Dist_200_LN_20_LD_25_RN_9_RD_15_0.png","img2/300/Congruent/R/C_Dist_300_LN_2_LD_10_RN_12_RD_24_1.png","img2/300/Incongruent/L/I_Dist_300_LN_8_LD_10_RN_9_RD_18_0.png","img2/200/Incongruent/L/I_Dist_200_LN_4_LD_5_RN_6_RD_10_0.png","img2/300/Incongruent/R/I_Dist_300_LN_13_LD_26_RN_12_RD_15_1.png","img2/200/Incongruent/R/I_Dist_200_LN_6_LD_20_RN_3_RD_6_1.png","img2/100/Congruent/L/C_Dist_100_LN_10_LD_25_RN_3_RD_10_0.png","img2/300/Incongruent/R/I_Dist_300_LN_13_LD_26_RN_12_RD_15_1.png","img2/100/Incongruent/L/I_Dist_100_LN_2_LD_4_RN_8_RD_20_0.png","img2/200/Incongruent/L/I_Dist_200_LN_7_LD_10_RN_12_RD_24_0.png","img2/100/Congruent/R/C_Dist_100_LN_12_LD_30_RN_13_RD_26_1.png","img2/200/Incongruent/L/I_Dist_200_LN_7_LD_10_RN_8_RD_16_0.png","img2/100/Incongruent/R/I_Dist_100_LN_8_LD_20_RN_1_RD_2_1.png","img2/300/Incongruent/L/I_Dist_300_LN_7_LD_10_RN_8_RD_20_0.png","img2/300/Congruent/L/C_Dist_300_LN_24_LD_30_RN_8_RD_16_0.png","img2/300/Incongruent/R/I_Dist_300_LN_4_LD_20_RN_2_RD_4_1.png","img2/200/Incongruent/L/I_Dist_200_LN_1_LD_2_RN_3_RD_10_0.png","img2/200/Congruent/L/C_Dist_200_LN_8_LD_15_RN_7_RD_21_0.png","img2/100/Incongruent/R/I_Dist_100_LN_13_LD_26_RN_12_RD_20_1.png","img2/200/Incongruent/L/I_Dist_200_LN_7_LD_10_RN_12_RD_24_0.png","img2/100/Congruent/L/C_Dist_100_LN_8_LD_16_RN_2_RD_5_0.png","img2/100/Incongruent/R/I_Dist_100_LN_8_LD_16_RN_6_RD_10_1.png","img2/200/Incongruent/R/I_Dist_200_LN_3_LD_10_RN_1_RD_2_1.png","img2/100/Incongruent/L/I_Dist_100_LN_9_LD_15_RN_13_RD_26_0.png","img2/100/Congruent/L/C_Dist_100_LN_11_LD_22_RN_6_RD_15_0.png","img2/200/Congruent/R/C_Dist_200_LN_3_LD_6_RN_14_RD_20_1.png","img2/100/Congruent/R/C_Dist_100_LN_4_LD_10_RN_15_RD_30_1.png","img2/300/Congruent/L/C_Dist_300_LN_20_LD_25_RN_5_RD_10_0.png","img2/100/Congruent/R/C_Dist_100_LN_4_LD_8_RN_6_RD_10_1.png","img2/200/Incongruent/L/I_Dist_200_LN_4_LD_5_RN_6_RD_10_0.png","img2/300/Incongruent/R/I_Dist_300_LN_4_LD_20_RN_2_RD_4_1.png","img2/100/Incongruent/R/I_Dist_100_LN_11_LD_22_RN_9_RD_15_1.png","img2/200/Congruent/L/C_Dist_200_LN_7_LD_21_RN_2_RD_15_0.png","img2/200/Incongruent/R/I_Dist_200_LN_11_LD_20_RN_3_RD_4_1.png","img2/300/Congruent/R/C_Dist_300_LN_1_LD_3_RN_19_RD_30_1.png","img2/100/Congruent/R/C_Dist_100_LN_2_LD_5_RN_11_RD_22_1.png","img2/300/Incongruent/R/I_Dist_300_LN_4_LD_20_RN_2_RD_4_1.png","img2/100/Incongruent/R/I_Dist_100_LN_6_LD_12_RN_3_RD_5_1.png","img2/200/Congruent/R/C_Dist_200_LN_3_LD_10_RN_11_RD_22_1.png","img2/300/Incongruent/R/I_Dist_300_LN_13_LD_26_RN_12_RD_15_1.png","img2/300/Congruent/R/C_Dist_300_LN_2_LD_20_RN_10_RD_25_1.png","img2/100/Congruent/R/C_Dist_100_LN_2_LD_5_RN_11_RD_22_1.png","img2/200/Congruent/R/C_Dist_200_LN_3_LD_10_RN_14_RD_28_1.png","img2/100/Congruent/R/C_Dist_100_LN_2_LD_5_RN_6_RD_12_1.png","img2/300/Incongruent/L/I_Dist_300_LN_3_LD_6_RN_4_RD_20_0.png","img2/300/Incongruent/L/I_Dist_300_LN_1_LD_2_RN_3_RD_15_0.png","img2/200/Congruent/L/C_Dist_200_LN_8_LD_15_RN_7_RD_21_0.png","img2/200/Congruent/L/C_Dist_200_LN_12_LD_15_RN_6_RD_10_0.png","img2/200/Congruent/L/C_Dist_200_LN_4_LD_10_RN_3_RD_15_0.png","img2/300/Congruent/R/C_Dist_300_LN_3_LD_6_RN_4_RD_5_1.png","img2/100/Incongruent/L/I_Dist_100_LN_9_LD_15_RN_13_RD_26_0.png","img2/100/Congruent/R/C_Dist_100_LN_1_LD_2_RN_18_RD_30_1.png","img2/100/Incongruent/L/I_Dist_100_LN_2_LD_4_RN_6_RD_15_0.png","img2/200/Incongruent/L/I_Dist_200_LN_1_LD_3_RN_2_RD_15_0.png","img2/200/Congruent/L/C_Dist_200_LN_21_LD_30_RN_2_RD_4_0.png","img2/100/Incongruent/L/I_Dist_100_LN_4_LD_8_RN_8_RD_20_0.png","img2/100/Incongruent/R/I_Dist_100_LN_8_LD_20_RN_1_RD_2_1.png","img2/200/Congruent/R/C_Dist_200_LN_3_LD_6_RN_14_RD_20_1.png","img2/200/Congruent/R/C_Dist_200_LN_3_LD_10_RN_7_RD_14_1.png","img2/200/Incongruent/L/I_Dist_200_LN_1_LD_2_RN_3_RD_10_0.png","img2/200/Congruent/R/C_Dist_200_LN_1_LD_2_RN_21_RD_30_1.png","img2/200/Incongruent/L/I_Dist_200_LN_1_LD_3_RN_2_RD_15_0.png","img2/100/Congruent/R/C_Dist_100_LN_1_LD_2_RN_3_RD_5_1.png","img2/300/Incongruent/R/I_Dist_300_LN_13_LD_26_RN_12_RD_15_1.png","img2/300/Incongruent/R/I_Dist_300_LN_4_LD_20_RN_2_RD_4_1.png","img2/100/Incongruent/L/I_Dist_100_LN_6_LD_10_RN_7_RD_14_0.png","img2/200/Congruent/R/C_Dist_200_LN_7_LD_15_RN_18_RD_27_1.png","img2/100/Congruent/R/C_Dist_100_LN_2_LD_5_RN_6_RD_12_1.png","img2/300/Congruent/L/C_Dist_300_LN_11_LD_22_RN_1_RD_5_0.png","img2/200/Congruent/L/C_Dist_200_LN_12_LD_20_RN_6_RD_15_0.png","img2/200/Congruent/R/C_Dist_200_LN_6_LD_20_RN_11_RD_22_1.png","img2/200/Incongruent/L/I_Dist_200_LN_7_LD_10_RN_12_RD_24_0.png","img2/300/Incongruent/L/I_Dist_300_LN_7_LD_10_RN_8_RD_20_0.png","img2/300/Congruent/R/C_Dist_300_LN_1_LD_3_RN_19_RD_30_1.png","img2/300/Congruent/L/C_Dist_300_LN_12_LD_24_RN_2_RD_10_0.png","img2/100/Congruent/L/C_Dist_100_LN_6_LD_20_RN_5_RD_25_0.png","img2/200/Incongruent/R/I_Dist_200_LN_6_LD_20_RN_3_RD_6_1.png","img2/300/Incongruent/L/I_Dist_300_LN_4_LD_5_RN_6_RD_12_0.png","img2/300/Incongruent/R/I_Dist_300_LN_4_LD_20_RN_2_RD_4_1.png","img2/300/Incongruent/R/I_Dist_300_LN_13_LD_26_RN_12_RD_15_1.png","img2/200/Incongruent/R/I_Dist_200_LN_3_LD_10_RN_1_RD_2_1.png","img2/300/Incongruent/L/I_Dist_300_LN_2_LD_4_RN_6_RD_30_0.png","img2/200/Incongruent/R/I_Dist_200_LN_7_LD_15_RN_4_RD_6_1.png","img2/300/Congruent/L/C_Dist_300_LN_11_LD_22_RN_1_RD_5_0.png","img2/300/Congruent/L/C_Dist_300_LN_12_LD_24_RN_2_RD_10_0.png","img2/200/Incongruent/L/I_Dist_200_LN_4_LD_6_RN_14_RD_30_0.png","img2/100/Congruent/R/C_Dist_100_LN_7_LD_14_RN_15_RD_25_1.png","img2/300/Congruent/R/C_Dist_300_LN_5_LD_25_RN_7_RD_14_1.png","img2/200/Congruent/R/C_Dist_200_LN_3_LD_10_RN_7_RD_14_1.png","img2/300/Congruent/R/C_Dist_300_LN_5_LD_25_RN_6_RD_12_1.png","img2/100/Congruent/L/C_Dist_100_LN_9_LD_15_RN_8_RD_16_0.png","img2/300/Congruent/L/C_Dist_300_LN_9_LD_10_RN_3_RD_5_0.png","img2/100/Congruent/L/C_Dist_100_LN_3_LD_6_RN_2_RD_5_0.png"],"dist100_C":[["C_Dist_100_LN_10_LD_25_RN_3_RD_10_0.png","C_Dist_100_LN_11_LD_22_RN_4_RD_10_0.png","C_Dist_100_LN_11_LD_22_RN_6_RD_15_0.png","C_Dist_100_LN_15_LD_25_RN_13_RD_26_0.png","C_Dist_100_LN_3_LD_6_RN_2_RD_5_0.png","C_Dist_100_LN_6_LD_20_RN_5_RD_25_0.png","C_Dist_100_LN_8_LD_16_RN_2_RD_5_0.png","C_Dist_100_LN_9_LD_15_RN_8_RD_16_0.png"],["C_Dist_100_LN_1_LD_2_RN_18_RD_30_1.png","C_Dist_100_LN_1_LD_2_RN_3_RD_5_1.png","C_Dist_100_LN_12_LD_30_RN_13_RD_26_1.png","C_Dist_100_LN_2_LD_5_RN_11_RD_22_1.png","C_Dist_100_LN_2_LD_5_RN_6_RD_12_1.png","C_Dist_100_LN_3_LD_20_RN_4_RD_16_1.png","C_Dist_100_LN_4_LD_10_RN_15_RD_30_1.png","C_Dist_100_LN_4_LD_8_RN_6_RD_10_1.png","C_Dist_100_LN_6_LD_12_RN_15_RD_25_1.png","C_Dist_100_LN_7_LD_14_RN_15_RD_25_1.png","C_Dist_100_LN_7_LD_14_RN_9_RD_15_1.png"]],"dist100_I":[["I_Dist_100_LN_1_LD_2_RN_8_RD_20_0.png","I_Dist_100_LN_2_LD_4_RN_6_RD_15_0.png","I_Dist_100_LN_2_LD_4_RN_8_RD_20_0.png","I_Dist_100_LN_3_LD_5_RN_11_RD_22_0.png","I_Dist_100_LN_3_LD_5_RN_8_RD_16_0.png","I_Dist_100_LN_3_LD_6_RN_4_RD_10_0.png","I_Dist_100_LN_3_LD_9_RN_7_RD_30_0.png","I_Dist_100_LN_4_LD_8_RN_8_RD_20_0.png","I_Dist_100_LN_6_LD_10_RN_11_RD_22_0.png","I_Dist_100_LN_6_LD_10_RN_13_RD_26_0.png","I_Dist_100_LN_6_LD_10_RN_7_RD_14_0.png","I_Dist_100_LN_9_LD_10_RN_20_RD_25_0.png","I_Dist_100_LN_9_LD_15_RN_13_RD_26_0.png","I_Dist_100_LN_9_LD_15_RN_14_RD_28_0.png"],["I_Dist_100_LN_10_LD_25_RN_8_RD_16_1.png","I_Dist_100_LN_10_LD_25_RN_9_RD_18_1.png","I_Dist_100_LN_11_LD_22_RN_9_RD_15_1.png","I_Dist_100_LN_12_LD_24_RN_9_RD_15_1.png","I_Dist_100_LN_12_LD_30_RN_2_RD_4_1.png","I_Dist_100_LN_13_LD_26_RN_12_RD_20_1.png","I_Dist_100_LN_13_LD_26_RN_6_RD_10_1.png","I_Dist_100_LN_17_LD_30_RN_10_RD_15_1.png","I_Dist_100_LN_6_LD_12_RN_3_RD_5_1.png","I_Dist_100_LN_8_LD_16_RN_6_RD_10_1.png","I_Dist_100_LN_8_LD_20_RN_1_RD_2_1.png","I_Dist_100_LN_9_LD_18_RN_6_RD_10_1.png"]],"dist100_S":[["E_Dist_100_LN_2_LD_12_RN_2_RD_30_0.png","E_Dist_100_LN_6_LD_10_RN_6_RD_12_0.png"],["E_Dist_100_LN_6_LD_12_RN_6_RD_10_1.png"]],"dist200_C":[["C_Dist_200_LN_11_LD_22_RN_3_RD_10_0.png","C_Dist_200_LN_12_LD_15_RN_6_RD_10_0.png","C_Dist_200_LN_12_LD_20_RN_6_RD_15_0.png","C_Dist_200_LN_14_LD_28_RN_6_RD_20_0.png","C_Dist_200_LN_15_LD_25_RN_4_RD_10_0.png","C_Dist_200_LN_16_LD_20_RN_12_RD_20_0.png","C_Dist_200_LN_16_LD_30_RN_9_RD_27_0.png","C_Dist_200_LN_20_LD_25_RN_9_RD_15_0.png","C_Dist_200_LN_21_LD_30_RN_2_RD_4_0.png","C_Dist_200_LN_4_LD_10_RN_3_RD_15_0.png","C_Dist_200_LN_4_LD_8_RN_3_RD_10_0.png","C_Dist_200_LN_6_LD_15_RN_3_RD_15_0.png","C_Dist_200_LN_7_LD_21_RN_2_RD_15_0.png","C_Dist_200_LN_8_LD_15_RN_2_RD_6_0.png","C_Dist_200_LN_8_LD_15_RN_3_RD_9_0.png","C_Dist_200_LN_8_LD_15_RN_7_RD_21_0.png","C_Dist_200_LN_9_LD_20_RN_4_RD_16_0.png"],["C_Dist_200_LN_1_LD_2_RN_21_RD_30_1.png","C_Dist_200_LN_13_LD_26_RN_14_RD_20_1.png","C_Dist_200_LN_3_LD_10_RN_11_RD_22_1.png","C_Dist_200_LN_3_LD_10_RN_14_RD_28_1.png","C_Dist_200_LN_3_LD_10_RN_7_RD_14_1.png","C_Dist_200_LN_3_LD_12_RN_9_RD_20_1.png","C_Dist_200_LN_3_LD_6_RN_14_RD_20_1.png","C_Dist_200_LN_5_LD_10_RN_14_RD_20_1.png","C_Dist_200_LN_6_LD_12_RN_7_RD_10_1.png","C_Dist_200_LN_6_LD_20_RN_11_RD_22_1.png","C_Dist_200_LN_7_LD_15_RN_18_RD_27_1.png","C_Dist_200_LN_9_LD_30_RN_13_RD_26_1.png"]],"dist200_I":[["I_Dist_200_LN_1_LD_2_RN_3_RD_10_0.png","I_Dist_200_LN_1_LD_3_RN_2_RD_15_0.png","I_Dist_200_LN_3_LD_4_RN_11_RD_20_0.png","I_Dist_200_LN_4_LD_5_RN_6_RD_10_0.png","I_Dist_200_LN_4_LD_6_RN_14_RD_30_0.png","I_Dist_200_LN_7_LD_10_RN_12_RD_24_0.png","I_Dist_200_LN_7_LD_10_RN_14_RD_28_0.png","I_Dist_200_LN_7_LD_10_RN_8_RD_16_0.png"],["I_Dist_200_LN_11_LD_20_RN_3_RD_4_1.png","I_Dist_200_LN_14_LD_30_RN_12_RD_18_1.png","I_Dist_200_LN_14_LD_30_RN_6_RD_9_1.png","I_Dist_200_LN_3_LD_10_RN_1_RD_2_1.png","I_Dist_200_LN_4_LD_30_RN_1_RD_3_1.png","I_Dist_200_LN_6_LD_20_RN_3_RD_6_1.png","I_Dist_200_LN_7_LD_15_RN_4_RD_6_1.png","I_Dist_200_LN_7_LD_15_RN_6_RD_9_1.png","I_Dist_200_LN_9_LD_15_RN_8_RD_10_1.png"]],"dist200_S":[["E_Dist_200_LN_3_LD_6_RN_3_RD_10_0.png"],["E_Dist_200_LN_3_LD_10_RN_3_RD_6_1.png"]],"dist300_C":[["C_Dist_300_LN_11_LD_22_RN_1_RD_5_0.png","C_Dist_300_LN_11_LD_22_RN_2_RD_10_0.png","C_Dist_300_LN_11_LD_22_RN_4_RD_20_0.png","C_Dist_300_LN_12_LD_24_RN_2_RD_10_0.png","C_Dist_300_LN_18_LD_20_RN_9_RD_15_0.png","C_Dist_300_LN_20_LD_25_RN_13_RD_26_0.png","C_Dist_300_LN_20_LD_25_RN_14_RD_28_0.png","C_Dist_300_LN_20_LD_25_RN_5_RD_10_0.png","C_Dist_300_LN_20_LD_25_RN_8_RD_16_0.png","C_Dist_300_LN_20_LD_25_RN_9_RD_18_0.png","C_Dist_300_LN_24_LD_30_RN_2_RD_4_0.png","C_Dist_300_LN_24_LD_30_RN_8_RD_16_0.png","C_Dist_300_LN_3_LD_6_RN_2_RD_10_0.png","C_Dist_300_LN_4_LD_10_RN_1_RD_10_0.png","C_Dist_300_LN_4_LD_5_RN_2_RD_4_0.png","C_Dist_300_LN_8_LD_16_RN_1_RD_5_0.png","C_Dist_300_LN_9_LD_10_RN_3_RD_5_0.png"],["C_Dist_300_LN_1_LD_20_RN_7_RD_20_1.png","C_Dist_300_LN_1_LD_3_RN_19_RD_30_1.png","C_Dist_300_LN_1_LD_30_RN_8_RD_24_1.png","C_Dist_300_LN_1_LD_5_RN_11_RD_22_1.png","C_Dist_300_LN_1_LD_5_RN_3_RD_6_1.png","C_Dist_300_LN_1_LD_5_RN_6_RD_12_1.png","C_Dist_300_LN_2_LD_10_RN_12_RD_24_1.png","C_Dist_300_LN_2_LD_20_RN_10_RD_25_1.png","C_Dist_300_LN_3_LD_12_RN_11_RD_20_1.png","C_Dist_300_LN_3_LD_6_RN_4_RD_5_1.png","C_Dist_300_LN_4_LD_20_RN_13_RD_26_1.png","C_Dist_300_LN_5_LD_25_RN_6_RD_12_1.png","C_Dist_300_LN_5_LD_25_RN_7_RD_14_1.png","C_Dist_300_LN_7_LD_14_RN_20_RD_25_1.png","C_Dist_300_LN_8_LD_15_RN_10_RD_12_1.png"]],"dist300_I":[["I_Dist_300_LN_1_LD_2_RN_2_RD_10_0.png","I_Dist_300_LN_1_LD_2_RN_3_RD_15_0.png","I_Dist_300_LN_2_LD_4_RN_6_RD_30_0.png","I_Dist_300_LN_3_LD_6_RN_4_RD_20_0.png","I_Dist_300_LN_4_LD_5_RN_6_RD_12_0.png","I_Dist_300_LN_4_LD_5_RN_8_RD_16_0.png","I_Dist_300_LN_7_LD_10_RN_8_RD_20_0.png","I_Dist_300_LN_8_LD_10_RN_14_RD_28_0.png","I_Dist_300_LN_8_LD_10_RN_9_RD_18_0.png"],["I_Dist_300_LN_13_LD_26_RN_12_RD_15_1.png","I_Dist_300_LN_4_LD_20_RN_2_RD_4_1.png"]],"dist300_S":[["E_Dist_300_LN_9_LD_12_RN_9_RD_20_0.png"],["E_Dist_300_LN_18_LD_30_RN_18_RD_20_1.png","E_Dist_300_LN_3_LD_10_RN_3_RD_5_1.png","E_Dist_300_LN_9_LD_20_RN_9_RD_12_1.png"]],"dist500_C":[["C_Dist_500_LN_10_LD_13_RN_7_RD_26_0.png","C_Dist_500_LN_10_LD_15_RN_4_RD_24_0.png","C_Dist_500_LN_12_LD_16_RN_3_RD_12_0.png","C_Dist_500_LN_12_LD_18_RN_4_RD_24_0.png","C_Dist_500_LN_15_LD_18_RN_5_RD_15_0.png","C_Dist_500_LN_15_LD_20_RN_1_RD_4_0.png","C_Dist_500_LN_18_LD_27_RN_1_RD_6_0.png","C_Dist_500_LN_20_LD_24_RN_1_RD_3_0.png","C_Dist_500_LN_20_LD_24_RN_3_RD_9_0.png","C_Dist_500_LN_20_LD_24_RN_7_RD_21_0.png","C_Dist_500_LN_20_LD_28_RN_3_RD_14_0.png","C_Dist_500_LN_21_LD_28_RN_6_RD_24_0.png","C_Dist_500_LN_22_LD_28_RN_2_RD_7_0.png","C_Dist_500_LN_25_LD_30_RN_9_RD_27_0.png","C_Dist_500_LN_4_LD_6_RN_1_RD_6_0.png","C_Dist_500_LN_5_LD_6_RN_2_RD_6_0.png","C_Dist_500_LN_6_LD_9_RN_1_RD_6_0.png","C_Dist_500_LN_7_LD_10_RN_1_RD_5_0.png","C_Dist_500_LN_8_LD_12_RN_1_RD_6_0.png","C_Dist_500_LN_8_LD_12_RN_4_RD_24_0.png"],["C_Dist_500_LN_1_LD_4_RN_12_RD_16_1.png","C_Dist_500_LN_1_LD_4_RN_9_RD_12_1.png","C_Dist_500_LN_1_LD_9_RN_11_RD_18_1.png","C_Dist_500_LN_10_LD_24_RN_22_RD_24_1.png","C_Dist_500_LN_2_LD_12_RN_10_RD_15_1.png","C_Dist_500_LN_2_LD_12_RN_12_RD_18_1.png","C_Dist_500_LN_2_LD_12_RN_4_RD_6_1.png","C_Dist_500_LN_2_LD_24_RN_7_RD_12_1.png","C_Dist_500_LN_2_LD_5_RN_18_RD_20_1.png","C_Dist_500_LN_2_LD_5_RN_9_RD_10_1.png","C_Dist_500_LN_2_LD_8_RN_12_RD_16_1.png","C_Dist_500_LN_2_LD_8_RN_21_RD_28_1.png","C_Dist_500_LN_3_LD_10_RN_4_RD_5_1.png","C_Dist_500_LN_3_LD_12_RN_15_RD_20_1.png","C_Dist_500_LN_3_LD_30_RN_6_RD_10_1.png","C_Dist_500_LN_3_LD_8_RN_14_RD_16_1.png","C_Dist_500_LN_4_LD_16_RN_15_RD_20_1.png","C_Dist_500_LN_4_LD_24_RN_12_RD_18_1.png","C_Dist_500_LN_5_LD_14_RN_6_RD_7_1.png","C_Dist_500_LN_7_LD_21_RN_20_RD_24_1.png","C_Dist_500_LN_7_LD_28_RN_12_RD_16_1.png","C_Dist_500_LN_7_LD_28_RN_9_RD_12_1.png","C_Dist_500_LN_9_LD_27_RN_20_RD_24_1.png"]],"dist500_I":[["I_Dist_500_LN_2_LD_3_RN_4_RD_24_0.png","I_Dist_500_LN_5_LD_6_RN_6_RD_18_0.png","I_Dist_500_LN_7_LD_8_RN_9_RD_24_0.png"],["I_Dist_500_LN_7_LD_21_RN_5_RD_6_1.png"]],"dist500_S":[["E_Dist_500_LN_6_LD_8_RN_6_RD_24_0.png"],["E_Dist_500_LN_2_LD_12_RN_2_RD_3_1.png","E_Dist_500_LN_6_LD_24_RN_6_RD_8_1.png"]]}},{"start_time":1551901038205,"click_time":1551901039935,"finger_time":1551901039594,"fix_duration":250,"trial":1,"RT":1389,"MT":341,"sideResp":1,"stimulus":[],"xmouse":[790,790,790,790,790,790,790,790,790,790,790,790,790,790,790,790,790,790,790,790,790,790,790,790,790,790,790,790,790,790,790,790,790,790,790,790,790,790,790,790,789,790,798,799,799,799,799,799,799,799,799,799,799,799,799,799,799,799,799,799,799,799,799,799,799,799,799,799,798,760,732,715,687,678,676,667,648,512,462,449,444,440,438,438,438,438,442],"ymouse":[531,531,531,531,531,531,531,531,531,531,531,531,531,531,531,531,531,531,531,531,531,531,531,531,531,531,531,531,531,531,531,531,531,531,531,531,531,531,531,531,531,526,507,505,504,504,504,504,504,504,504,504,504,504,504,504,504,504,504,504,504,504,504,504,504,504,504,504,490,440,404,384,350,341,338,332,321,241,205,191,180,168,143,132,124,116,91],"timestamp_mouse":[12,30,51,69,88,108,130,148,168,188,208,228,248,268,288,309,328,349,369,390,408,429,449,469,489,509,529,549,569,589,609,629,649,670,689,709,730,749,770,789,810,829,849,869,889,909,929,949,969,989,1010,1029,1049,1070,1090,1108,1129,1150,1168,1189,1209,1229,1249,1269,1289,1309,1330,1349,1369,1388,1409,1429,1449,1468,1490,1509,1529,1549,1569,1589,1610,1629,1649,1670,1690,1709,1729],"xSR":741.5,"ySR":469.95,"xT1":424.9,"yT1":0,"xT2":1058.1,"yT2":0,"toosoon":0,"cond_shown":"Incongruent","ratio_trial":100,"L_num":9,"L_den":10,"R_num":20,"R_den":25,"correct_side":1,"subjID":"Simon Cabrera ","gender":"0","school":"6","age":"10"},{"start_time":1551901042519,"click_time":1551901044216,"finger_time":1551901043914,"fix_duration":1383.3406518080867,"trial":2,"RT":1395,"MT":302,"sideResp":2,"stimulus":[],"xmouse":[793,793,793,793,793,793,793,793,793,793,793,793,793,793,793,793,793,793,793,793,793,793,793,793,793,793,793,793,793,793,793,793,793,793,793,793,793,793,793,793,793,793,793,793,793,793,793,793,793,793,793,793,793,793,793,793,793,793,793,793,793,793,793,793,793,793,793,793,811,883,971,1135,1179,1196,1206,1213,1217,1218,1218,1214,1208,1196,1186,1170,1154],"ymouse":[556,556,556,556,556,556,556,556,556,556,556,556,556,556,556,556,556,556,556,556,556,556,556,556,556,556,556,556,556,556,556,556,556,556,556,556,556,556,556,556,556,556,556,556,556,556,556,556,556,556,556,556,556,556,556,556,556,556,556,556,556,556,556,556,556,556,556,556,523,464,409,313,281,263,248,236,209,192,172,155,143,127,115,98,85],"timestamp_mouse":[15,50,55,75,95,115,135,155,174,194,215,235,254,275,295,315,335,355,375,395,415,435,454,475,495,515,535,554,575,595,614,636,655,675,696,715,736,756,775,796,815,836,856,875,895,916,935,954,976,996,1015,1036,1054,1075,1095,1116,1135,1155,1175,1194,1215,1235,1256,1275,1295,1315,1335,1355,1375,1395,1416,1436,1456,1475,1495,1515,1535,1555,1576,1596,1615,1635,1655,1675,1696],"xSR":741.5,"ySR":469.95,"xT1":424.9,"yT1":0,"xT2":1058.1,"yT2":0,"toosoon":0,"cond_shown":"Congruent","ratio_trial":300,"L_num":3,"L_den":12,"R_num":11,"R_den":20,"correct_side":2,"subjID":"Simon Cabrera ","gender":"0","school":"6","age":"10"},{"start_time":1551901047407,"click_time":1551901049435,"finger_time":1551901048774,"fix_duration":1252.108849490866,"trial":3,"RT":1367,"MT":661,"sideResp":2,"stimulus":[],"xmouse":[838,838,838,838,838,838,838,838,838,838,838,838,838,838,838,838,838,838,838,838,838,838,838,838,838,838,838,838,838,838,838,838,838,838,838,838,838,838,838,838,838,838,838,830,825,822,820,820,820,820,820,820,820,820,820,820,820,820,820,820,820,820,820,820,820,820,820,823,847,872,872,923,947,950,954,960,971,990,1001,1010,1018,1024,1029,1030,1034,1039,1041,1047,1048,1052,1053,1054,1056,1056,1057,1057,1057,1057,1057,1057,1057,1069],"ymouse":[565,565,565,565,565,565,565,565,565,565,565,565,565,565,565,565,565,565,565,565,565,565,565,565,565,565,565,565,565,565,565,565,565,565,565,565,565,565,565,565,565,565,565,560,557,555,555,554,554,554,554,554,554,554,554,554,554,554,554,554,554,554,554,554,554,554,554,514,428,344,344,223,157,151,140,128,111,75,59,46,38,35,33,32,31,30,29,29,29,29,29,31,32,32,32,32,32,32,32,32,32,40],"timestamp_mouse":[14,27,61,67,88,108,127,146,168,187,207,227,247,266,287,307,328,348,367,387,407,427,447,467,487,507,527,547,567,586,607,627,647,667,687,706,727,747,768,787,807,827,847,866,888,907,927,947,967,987,1008,1027,1046,1067,1087,1106,1127,1147,1167,1187,1208,1227,1248,1267,1287,1307,1327,1347,1367,1387,1407,1427,1448,1466,1487,1507,1527,1548,1567,1587,1607,1627,1648,1667,1686,1707,1727,1747,1767,1787,1807,1827,1846,1867,1887,1907,1927,1948,1967,1987,2007,2027],"xSR":741.5,"ySR":469.95,"xT1":424.9,"yT1":0,"xT2":1058.1,"yT2":0,"toosoon":0,"cond_shown":"Congruent","ratio_trial":300,"L_num":5,"L_den":25,"R_num":6,"R_den":12,"correct_side":2,"subjID":"Simon Cabrera ","gender":"0","school":"6","age":"10"},{"start_time":1551901051766,"click_time":1551901053514,"finger_time":1551901053135,"fix_duration":250,"trial":4,"RT":1369,"MT":379,"sideResp":2,"stimulus":[],"xmouse":[823,823,823,823,823,823,823,823,823,823,823,823,823,823,823,823,823,823,823,823,823,823,823,823,823,823,823,823,823,823,823,823,823,823,823,823,823,823,823,823,823,823,823,823,823,823,823,823,823,823,823,823,823,823,823,823,823,823,823,823,823,823,823,823,823,823,823,830,844,866,894,959,972,982,985,990,1002,1010,1026,1032,1038,1041,1045,1048,1054,1057,1058,1060],"ymouse":[512,512,512,512,512,512,512,512,512,512,512,512,512,512,512,512,512,512,512,512,512,512,512,512,512,512,512,512,512,512,512,512,512,512,512,512,512,512,512,512,512,512,512,512,512,512,512,512,512,512,512,512,512,512,512,512,512,512,512,512,512,512,512,512,512,512,506,496,472,423,353,200,177,158,151,143,124,114,92,86,80,76,72,69,63,61,61,60],"timestamp_mouse":[14,48,49,68,89,108,128,149,169,189,209,229,249,268,289,309,329,348,368,389,409,428,448,470,489,509,528,549,570,589,609,629,648,670,690,709,728,749,769,789,809,829,849,868,888,909,929,948,969,988,1009,1029,1049,1070,1089,1108,1129,1149,1168,1188,1208,1228,1248,1268,1288,1309,1328,1349,1369,1389,1409,1429,1449,1470,1490,1509,1529,1549,1570,1591,1610,1629,1649,1670,1689,1709,1729,1748],"xSR":741.5,"ySR":469.95,"xT1":424.9,"yT1":0,"xT2":1058.1,"yT2":0,"toosoon":0,"cond_shown":"Congruent","ratio_trial":100,"L_num":2,"L_den":5,"R_num":11,"R_den":22,"correct_side":2,"subjID":"Simon Cabrera ","gender":"0","school":"6","age":"10"},{"start_time":1551901055469,"click_time":1551901057695,"finger_time":1551901057234,"fix_duration":512.0733201319484,"trial":5,"RT":1765,"MT":461,"sideResp":1,"stimulus":[],"xmouse":[793,793,793,793,793,793,793,793,793,793,793,793,793,793,793,793,793,793,793,793,793,793,793,793,793,793,793,793,793,793,793,793,793,793,793,793,793,793,793,793,793,793,793,793,793,793,793,793,793,793,793,793,793,793,793,793,793,793,793,793,793,793,793,793,793,793,793,793,793,793,793,793,793,793,793,793,793,793,793,793,793,793,793,793,793,791,786,760,739,711,646,636,631,628,617,608,596,581,541,487,484,484,484,484,484,484,484,484,484,483,483,480],"ymouse":[491,491,491,491,491,491,491,491,491,491,491,491,491,491,491,491,491,491,491,491,491,491,491,491,491,491,491,491,491,491,491,491,491,491,491,491,491,491,491,491,491,491,491,491,491,491,491,491,491,491,491,491,491,491,491,491,491,491,491,491,491,491,491,491,491,491,491,491,491,491,491,491,491,491,491,491,491,491,491,491,491,491,491,491,491,492,492,473,457,436,368,356,351,346,333,322,310,292,251,193,182,162,150,143,133,133,131,128,114,108,100,82],"timestamp_mouse":[12,25,58,66,86,106,127,146,166,186,206,226,246,266,286,306,326,347,366,386,405,425,445,466,485,506,526,546,566,586,606,626,646,665,685,706,725,745,766,786,806,826,846,866,886,906,926,946,966,985,1008,1025,1046,1067,1086,1106,1127,1146,1166,1185,1205,1227,1246,1266,1286,1306,1325,1345,1366,1386,1407,1425,1445,1465,1486,1506,1527,1546,1565,1585,1606,1626,1646,1666,1686,1705,1725,1747,1765,1785,1805,1826,1845,1866,1886,1906,1927,1947,1966,1986,2006,2026,2046,2066,2091,2106,2127,2146,2165,2187,2206,2226],"xSR":741.5,"ySR":469.95,"xT1":424.9,"yT1":0,"xT2":1058.1,"yT2":0,"toosoon":0,"cond_shown":"Incongruent","ratio_trial":200,"L_num":1,"L_den":2,"R_num":3,"R_den":10,"correct_side":1,"subjID":"Simon Cabrera ","gender":"0","school":"6","age":"10"},{"start_time":1551901060494,"click_time":1551901062015,"finger_time":1551901061614,"fix_duration":1317.8961828689328,"trial":6,"RT":1120,"MT":401,"sideResp":2,"stimulus":[],"xmouse":[807,805,805,805,805,805,805,805,805,805,805,805,805,805,805,805,805,805,805,805,805,805,805,805,805,805,805,805,805,805,805,805,805,805,805,805,805,805,805,805,805,805,805,805,805,805,805,805,805,805,805,805,812,828,838,845,849,858,865,876,876,887,896,900,908,914,924,944,966,988,1019,1054,1115,1132,1140,1148],"ymouse":[501,505,506,506,507,507,507,507,507,507,507,507,507,507,507,507,507,507,507,507,507,507,507,507,507,507,507,507,507,507,507,507,507,507,507,507,507,507,507,507,507,507,507,507,507,507,507,507,507,507,507,507,499,483,474,465,461,449,439,422,422,401,381,369,353,338,314,274,242,223,202,179,135,121,110,97],"timestamp_mouse":[7,21,72,80,100,121,141,160,181,201,220,240,262,281,300,320,340,362,380,401,421,440,462,481,502,520,541,560,580,601,621,641,660,682,701,720,741,762,781,802,821,841,861,881,902,920,942,961,981,1007,1020,1041,1060,1080,1101,1120,1140,1160,1183,1205,1220,1241,1261,1281,1301,1322,1341,1361,1380,1400,1420,1440,1460,1480,1501,1521],"xSR":741.5,"ySR":469.95,"xT1":424.9,"yT1":0,"xT2":1058.1,"yT2":0,"toosoon":0,"cond_shown":"Incongruent","ratio_trial":100,"L_num":6,"L_den":10,"R_num":7,"R_den":14,"correct_side":1,"subjID":"Simon Cabrera ","gender":"0","school":"6","age":"10"},{"start_time":1551901066550,"click_time":1551901068077,"finger_time":1551901067535,"fix_duration":1074.0865933826835,"trial":7,"RT":985,"MT":542,"sideResp":2,"stimulus":[],"xmouse":[809,809,809,809,809,809,809,809,809,809,809,809,809,809,809,809,809,809,809,809,809,809,809,809,809,809,809,809,809,809,809,809,809,809,809,809,809,809,809,809,809,809,809,810,810,814,819,826,830,842,850,867,867,887,907,915,924,938,947,957,977,987,994,1000,1012,1022,1024,1031,1035,1040,1049,1052,1057,1059,1063,1067,1075],"ymouse":[518,518,518,518,518,518,518,518,518,518,518,518,518,518,518,518,518,518,518,518,518,518,518,518,518,518,518,518,518,518,518,518,518,518,518,518,518,518,518,518,518,518,518,518,518,513,506,496,489,472,459,431,431,400,364,346,327,296,274,249,205,188,173,163,144,133,131,124,120,116,112,109,107,106,103,101,97],"timestamp_mouse":[12,24,57,64,84,104,125,144,166,185,205,225,245,266,285,305,325,346,365,384,405,425,445,465,486,505,524,544,565,584,605,624,644,665,685,705,725,745,764,785,805,824,844,864,885,904,924,945,965,985,1010,1032,1045,1065,1084,1107,1125,1144,1164,1185,1205,1225,1245,1265,1284,1306,1324,1346,1364,1385,1405,1426,1444,1464,1486,1505,1527],"xSR":741.5,"ySR":469.95,"xT1":424.9,"yT1":0,"xT2":1058.1,"yT2":0,"toosoon":0,"cond_shown":"Incongruent","ratio_trial":100,"L_num":9,"L_den":15,"R_num":13,"R_den":26,"correct_side":1,"subjID":"Simon Cabrera ","gender":"0","school":"6","age":"10"},{"start_time":1551901071342,"click_time":1551901072734,"finger_time":1551901072334,"fix_duration":505.34000332705085,"trial":8,"RT":992,"MT":400,"sideResp":1,"stimulus":[],"xmouse":[815,815,815,815,815,815,815,815,815,815,815,815,815,815,815,815,815,815,815,815,815,815,815,815,815,815,815,815,815,815,815,815,815,815,815,815,815,815,815,815,815,815,815,815,814,807,790,771,728,725,722,722,719,704,694,679,669,640,618,611,608,606,599,588,563,556,545,535,518],"ymouse":[533,533,533,533,533,533,533,533,533,533,533,533,533,533,533,533,533,533,533,533,533,533,533,533,533,533,533,533,533,533,533,533,533,533,533,533,533,533,533,533,533,533,533,533,533,525,505,480,413,404,395,395,374,327,304,258,233,159,110,99,95,93,86,78,66,64,64,64,67],"timestamp_mouse":[13,61,73,94,114,133,153,172,194,214,234,254,274,292,313,333,354,373,394,412,432,452,472,492,513,533,554,572,594,613,633,652,672,693,713,733,753,773,793,813,833,852,872,893,913,933,953,972,992,1018,1040,1054,1073,1093,1118,1141,1156,1183,1199,1213,1232,1252,1272,1292,1312,1332,1353,1372,1392],"xSR":741.5,"ySR":469.95,"xT1":424.9,"yT1":0,"xT2":1058.1,"yT2":0,"toosoon":0,"cond_shown":"Incongruent","ratio_trial":100,"L_num":10,"L_den":25,"R_num":8,"R_den":16,"correct_side":2,"subjID":"Simon Cabrera ","gender":"0","school":"6","age":"10"},{"start_time":1551901074275,"click_time":1551901075616,"finger_time":1551901074995,"fix_duration":319.86126483295584,"trial":9,"RT":720,"MT":621,"sideResp":1,"stimulus":[],"xmouse":[765,765,765,765,765,765,765,765,765,765,765,765,765,765,765,765,765,765,765,765,765,765,765,765,765,765,765,765,765,765,765,765,765,765,765,762,752,728,704,685,675,659,654,632,624,615,605,596,589,578,576,573,568,563,548,538,532,529,526,526,526,526,526,526,526,526,526,524],"ymouse":[490,490,490,490,490,490,490,490,490,490,490,490,490,490,490,490,490,490,490,490,490,490,490,490,490,490,490,490,490,490,490,490,490,490,490,474,438,360,280,234,208,178,169,133,121,109,98,91,87,83,82,81,79,78,74,73,71,71,70,70,70,69,69,69,69,69,69,69],"timestamp_mouse":[10,22,41,61,79,99,120,140,160,179,200,221,240,260,280,300,319,340,360,381,400,419,440,460,479,499,520,540,559,579,599,621,640,660,680,700,720,740,760,780,800,820,840,860,880,899,920,939,960,980,999,1020,1040,1059,1079,1099,1120,1140,1160,1179,1199,1221,1240,1260,1279,1301,1321,1341],"xSR":741.5,"ySR":469.95,"xT1":424.9,"yT1":0,"xT2":1058.1,"yT2":0,"toosoon":0,"cond_shown":"Incongruent","ratio_trial":100,"L_num":10,"L_den":25,"R_num":8,"R_den":16,"correct_side":2,"subjID":"Simon Cabrera ","gender":"0","school":"6","age":"10"},{"start_time":1551901077126,"click_time":1551901078015,"finger_time":1551901077554,"fix_duration":250,"trial":10,"RT":428,"MT":461,"sideResp":2,"stimulus":[],"xmouse":[798,798,798,798,798,798,798,798,798,798,798,798,798,798,798,798,798,798,798,800,833,846,854,854,882,911,938,961,970,989,998,1009,1017,1021,1025,1038,1046,1055,1060,1065,1067,1068,1068,1068],"ymouse":[539,539,539,539,539,539,539,539,539,539,539,539,539,539,539,539,539,539,539,529,459,427,409,409,363,322,290,263,249,218,204,188,176,171,164,147,136,123,116,106,103,101,100,99],"timestamp_mouse":[14,60,68,88,108,130,149,170,188,209,229,249,269,290,309,329,348,368,389,408,428,450,472,489,509,529,549,569,589,608,629,650,669,689,709,729,749,770,789,808,829,849,870,889],"xSR":741.5,"ySR":469.95,"xT1":424.9,"yT1":0,"xT2":1058.1,"yT2":0,"toosoon":0,"cond_shown":"Congruent","ratio_trial":100,"L_num":11,"L_den":22,"R_num":6,"R_den":15,"correct_side":1,"subjID":"Simon Cabrera ","gender":"0","school":"6","age":"10"},{"start_time":1551901084245,"click_time":1551901085454,"finger_time":1551901084835,"fix_duration":544.9495079650882,"trial":11,"RT":590,"MT":619,"sideResp":2,"stimulus":[],"xmouse":[750,750,750,750,750,750,750,750,750,750,750,750,750,750,750,750,750,750,750,750,750,753,755,758,785,797,808,818,827,847,863,890,890,925,943,951,957,964,974,994,1002,1010,1015,1023,1033,1037,1041,1046,1050,1056,1059,1059,1060,1061,1063,1065,1065,1069,1075,1082,1089],"ymouse":[491,491,491,491,491,491,491,491,491,491,491,491,491,491,491,491,491,491,491,491,491,490,490,489,486,485,483,482,480,474,465,442,442,399,363,350,336,316,296,258,243,231,224,213,197,192,184,176,167,153,148,144,139,138,132,128,128,122,113,105,95],"timestamp_mouse":[14,30,62,70,90,109,130,150,169,189,210,230,250,270,289,310,330,350,370,390,410,429,450,469,489,509,530,551,570,590,615,635,650,670,689,710,730,750,770,789,810,829,849,870,890,910,929,950,971,989,1009,1031,1056,1071,1093,1111,1129,1150,1171,1189,1209],"xSR":741.5,"ySR":469.95,"xT1":424.9,"yT1":0,"xT2":1058.1,"yT2":0,"toosoon":0,"cond_shown":"Incongruent","ratio_trial":200,"L_num":3,"L_den":4,"R_num":11,"R_den":20,"correct_side":1,"subjID":"Simon Cabrera ","gender":"0","school":"6","age":"10"},{"start_time":1551901093611,"click_time":1551901095095,"finger_time":1551901094675,"fix_duration":934.1564271146742,"trial":12,"RT":1064,"MT":420,"sideResp":2,"stimulus":[],"xmouse":[751,751,751,751,751,751,751,751,751,751,751,751,751,751,751,751,751,751,751,751,751,751,751,751,751,751,751,751,751,751,751,751,751,751,751,751,751,751,751,751,751,751,751,751,751,751,751,751,751,751,751,751,746,741,739,739,739,739,739,750,772,863,915,943,972,979,1000,1014,1030,1048,1076,1128,1135,1140,1145],"ymouse":[506,506,506,506,506,506,506,506,506,506,506,506,506,506,506,506,506,506,506,506,506,506,506,506,506,506,506,506,506,506,506,506,506,506,506,506,506,506,506,506,506,506,506,506,506,506,506,506,506,506,506,506,492,480,477,475,475,475,471,459,447,419,404,396,384,381,367,359,347,329,292,181,149,120,74],"timestamp_mouse":[11,24,54,63,83,103,124,143,164,183,204,224,243,264,284,304,323,344,364,384,403,424,444,463,483,503,524,544,564,584,604,624,644,665,685,704,724,744,763,784,804,823,844,863,885,904,924,944,964,984,1009,1025,1043,1064,1083,1105,1124,1143,1164,1185,1205,1225,1244,1264,1283,1304,1323,1344,1364,1383,1404,1424,1444,1464,1484],"xSR":741.5,"ySR":469.95,"xT1":424.9,"yT1":0,"xT2":1058.1,"yT2":0,"toosoon":0,"cond_shown":"Congruent","ratio_trial":200,"L_num":6,"L_den":20,"R_num":11,"R_den":22,"correct_side":2,"subjID":"Simon Cabrera ","gender":"0","school":"6","age":"10"},{"start_time":1551901097463,"click_time":1551901099356,"finger_time":1551901099035,"fix_duration":1107.4257190973522,"trial":13,"RT":1572,"MT":321,"sideResp":1,"stimulus":[],"xmouse":[794,794,794,794,794,794,794,794,794,794,794,794,794,794,794,794,794,794,794,794,794,794,794,794,794,794,794,794,794,794,794,794,794,794,794,794,794,794,794,794,794,794,794,794,794,794,794,794,794,794,794,794,794,794,794,794,794,794,794,794,794,794,794,794,794,794,794,794,794,794,794,794,794,794,794,794,793,780,678,607,566,560,552,544,540,531,523,516,500,491,486,483,479,475,475],"ymouse":[520,520,520,520,520,520,520,520,520,520,520,520,520,520,520,520,520,520,520,520,520,520,520,520,520,520,520,520,520,520,520,520,520,520,520,520,520,520,520,520,520,520,520,520,520,520,520,520,520,520,520,520,520,520,520,520,520,520,520,520,520,520,520,520,520,520,520,520,520,520,520,520,520,520,520,520,516,501,402,348,313,307,299,283,274,262,252,243,206,183,165,152,129,103,99],"timestamp_mouse":[14,40,52,72,91,113,132,152,172,191,212,232,252,272,291,311,332,352,372,392,411,432,452,472,491,511,531,551,572,592,612,633,652,671,691,711,733,753,772,791,812,831,851,871,893,912,933,952,973,993,1013,1032,1051,1072,1093,1111,1131,1152,1172,1193,1212,1232,1252,1271,1292,1312,1331,1351,1372,1392,1413,1431,1451,1472,1492,1512,1532,1552,1572,1596,1618,1632,1652,1672,1693,1711,1731,1751,1771,1792,1812,1832,1852,1872,1893],"xSR":741.5,"ySR":469.95,"xT1":424.9,"yT1":0,"xT2":1058.1,"yT2":0,"toosoon":0,"cond_shown":"Incongruent","ratio_trial":100,"L_num":8,"L_den":16,"R_num":6,"R_den":10,"correct_side":2,"subjID":"Simon Cabrera ","gender":"0","school":"6","age":"10"},{"start_time":1551901103706,"click_time":1551901105495,"finger_time":1551901105076,"fix_duration":250,"trial":14,"RT":1370,"MT":419,"sideResp":2,"stimulus":[],"xmouse":[795,795,795,795,795,795,795,795,795,795,795,795,795,795,795,795,795,795,795,795,795,795,795,795,795,795,795,795,795,795,795,795,795,795,795,795,795,795,795,795,795,795,795,795,795,795,795,795,795,795,795,795,795,795,795,795,795,795,795,795,795,795,795,795,795,795,795,800,849,920,1019,1060,1169,1213,1224,1226,1230,1232,1234,1236,1236,1232,1226,1221,1219,1215,1196,1182,1169,1153],"ymouse":[516,516,516,516,516,516,516,516,516,516,516,516,516,516,516,516,516,516,516,516,516,516,516,516,516,516,516,516,516,516,516,516,516,516,516,516,516,516,516,516,516,516,516,516,516,516,516,516,516,516,516,516,516,516,516,516,516,516,516,516,516,517,517,517,517,517,517,513,480,444,385,358,247,184,168,161,151,146,139,129,118,62,43,34,32,32,36,42,48,54],"timestamp_mouse":[11,46,48,69,88,108,129,149,169,189,210,229,248,269,290,310,328,348,369,388,409,428,449,469,488,509,529,550,569,590,609,628,648,669,688,709,728,749,770,790,809,829,848,869,890,908,928,948,968,988,1008,1028,1048,1068,1088,1108,1128,1148,1169,1189,1209,1229,1249,1269,1289,1309,1328,1348,1370,1389,1409,1430,1449,1469,1490,1509,1529,1549,1569,1588,1610,1630,1650,1669,1690,1709,1729,1750,1769,1788],"xSR":741.5,"ySR":469.95,"xT1":424.9,"yT1":0,"xT2":1058.1,"yT2":0,"toosoon":0,"cond_shown":"Congruent","ratio_trial":100,"L_num":7,"L_den":14,"R_num":9,"R_den":15,"correct_side":2,"subjID":"Simon Cabrera ","gender":"0","school":"6","age":"10"},{"start_time":1551901108631,"click_time":1551901110275,"finger_time":1551901109396,"fix_duration":873.581537407448,"trial":15,"RT":765,"MT":879,"sideResp":1,"stimulus":[],"xmouse":[768,768,768,768,768,768,768,768,768,768,768,768,768,768,768,768,768,768,768,768,768,768,768,768,768,768,768,768,768,768,768,768,768,768,775,788,802,814,824,838,843,846,848,848,849,849,849,849,849,849,849,849,849,849,855,876,904,944,981,1012,1014,1014,1014,1014,1014,1014,1013,1010,997,959,935,903,860,820,770,755,738,712,676,582,527,488],"ymouse":[498,498,498,498,498,498,498,498,498,498,498,498,498,498,498,498,498,498,498,498,498,498,498,498,498,498,498,498,498,498,498,498,498,498,497,487,475,463,452,434,428,424,422,422,421,421,421,421,421,421,421,421,421,421,411,387,359,325,299,275,272,272,272,272,272,272,272,273,279,290,288,270,244,217,182,174,158,136,111,56,35,29],"timestamp_mouse":[12,44,63,84,104,124,145,164,184,204,223,243,265,284,304,324,345,363,383,404,424,444,464,485,504,524,544,564,584,604,624,644,664,683,703,724,744,765,784,804,824,845,864,883,903,923,944,964,983,1005,1023,1044,1063,1084,1104,1124,1145,1163,1184,1204,1224,1245,1264,1284,1304,1324,1344,1364,1383,1404,1423,1443,1463,1483,1505,1524,1545,1563,1584,1604,1624,1644],"xSR":741.5,"ySR":469.95,"xT1":424.9,"yT1":0,"xT2":1058.1,"yT2":0,"toosoon":0,"cond_shown":"Incongruent","ratio_trial":200,"L_num":7,"L_den":10,"R_num":12,"R_den":24,"correct_side":1,"subjID":"Simon Cabrera ","gender":"0","school":"6","age":"10"},{"start_time":1551901112589,"click_time":1551901114133,"finger_time":1551901113594,"fix_duration":1434.8865636195192,"trial":16,"RT":1005,"MT":539,"sideResp":1,"stimulus":[],"xmouse":[815,815,815,815,815,815,815,815,815,815,815,815,815,815,815,815,815,815,815,815,815,815,815,815,815,815,815,815,815,815,815,815,815,815,815,815,815,815,815,815,815,815,815,815,815,815,815,814,802,782,732,680,624,611,608,607,606,596,588,581,573,565,555,552,548,545,544,544,544,544,544,543,542,542,541,538,531,516],"ymouse":[555,555,555,555,555,555,555,555,555,555,555,555,555,555,555,555,555,555,555,555,555,555,555,555,555,555,555,555,555,555,555,555,555,555,555,555,555,555,555,555,555,555,555,555,555,555,555,555,540,515,458,399,333,316,312,309,304,289,278,263,244,226,202,189,175,162,153,127,102,69,44,31,29,29,29,29,32,37],"timestamp_mouse":[14,24,60,64,86,105,126,145,166,184,204,225,244,264,284,305,325,345,364,384,404,424,444,464,485,505,525,545,566,585,604,624,644,666,685,705,726,744,764,786,805,825,845,864,884,905,925,945,966,985,1005,1026,1045,1064,1086,1106,1125,1145,1164,1184,1204,1224,1244,1264,1284,1304,1325,1345,1365,1384,1405,1425,1444,1464,1484,1505,1525,1544],"xSR":741.5,"ySR":469.95,"xT1":424.9,"yT1":0,"xT2":1058.1,"yT2":0,"toosoon":0,"cond_shown":"Congruent","ratio_trial":300,"L_num":24,"L_den":30,"R_num":2,"R_den":4,"correct_side":1,"subjID":"Simon Cabrera ","gender":"0","school":"6","age":"10"},{"start_time":1551901120947,"click_time":1551901122714,"finger_time":1551901122333,"fix_duration":853.549350294305,"trial":17,"RT":1386,"MT":381,"sideResp":2,"stimulus":[],"xmouse":[793,793,793,793,793,793,793,793,793,793,793,793,793,793,793,793,793,793,793,793,793,793,793,793,793,793,793,793,793,793,793,793,793,793,793,793,793,793,793,793,793,793,793,793,793,793,793,793,793,793,793,793,793,793,793,793,793,793,793,793,793,793,793,793,793,793,793,794,832,877,900,900,915,922,925,932,942,951,971,976,983,998,1017,1051,1051,1052,1056,1081],"ymouse":[539,539,539,539,539,539,539,539,539,539,539,539,539,539,539,539,539,539,539,539,539,539,539,539,539,539,539,539,539,539,539,539,539,539,539,539,539,539,539,539,539,539,539,539,539,539,539,539,539,539,539,539,539,539,539,539,539,539,539,539,539,539,539,539,539,539,539,533,429,323,269,269,237,223,215,202,185,169,142,135,128,117,103,84,84,83,80,61],"timestamp_mouse":[12,27,69,86,107,127,148,167,187,206,226,246,266,286,306,327,346,366,387,407,426,446,466,486,507,527,547,568,587,607,627,647,667,686,707,727,746,767,788,807,827,847,867,886,907,927,948,966,987,1009,1028,1046,1067,1088,1107,1127,1148,1167,1187,1208,1226,1246,1268,1287,1307,1328,1346,1366,1386,1410,1431,1446,1467,1486,1507,1527,1547,1566,1588,1607,1627,1647,1666,1687,1707,1727,1748,1767],"xSR":741.5,"ySR":469.95,"xT1":424.9,"yT1":0,"xT2":1058.1,"yT2":0,"toosoon":0,"cond_shown":"Congruent","ratio_trial":100,"L_num":1,"L_den":2,"R_num":18,"R_den":30,"correct_side":2,"subjID":"Simon Cabrera ","gender":"0","school":"6","age":"10"},{"start_time":1551901124536,"click_time":1551901126514,"finger_time":1551901125933,"fix_duration":300.7339827533991,"trial":18,"RT":1397,"MT":581,"sideResp":2,"stimulus":[],"xmouse":[795,795,795,795,795,795,795,795,795,795,795,795,795,795,795,795,795,795,795,795,795,795,795,795,795,795,795,795,795,795,795,795,795,795,795,795,795,795,795,795,795,795,795,795,795,795,795,795,795,795,795,795,795,795,795,795,795,795,795,795,795,795,795,795,795,795,795,799,808,864,894,910,910,920,921,924,928,933,944,961,973,987,996,1001,1008,1012,1014,1017,1021,1028,1037,1046,1052,1056,1057,1057,1057,1057,1061],"ymouse":[513,513,513,513,513,513,513,513,513,513,513,513,513,513,513,513,513,513,513,513,513,513,513,513,513,513,513,513,513,513,513,513,513,513,513,513,513,513,513,513,513,513,513,513,513,513,513,513,513,513,513,513,513,513,513,513,513,513,513,513,513,513,513,513,513,513,513,508,480,348,278,247,247,227,223,216,210,204,190,170,155,140,133,129,124,121,119,116,113,106,100,92,88,85,84,84,84,84,82],"timestamp_mouse":[18,56,57,79,98,118,139,158,178,198,218,237,259,277,298,317,337,357,377,398,418,437,457,478,498,517,537,558,578,598,618,637,658,679,697,717,737,757,779,799,819,837,858,878,898,918,938,958,979,997,1017,1037,1057,1077,1097,1117,1138,1157,1178,1198,1218,1239,1257,1277,1297,1319,1337,1357,1377,1397,1420,1441,1457,1478,1500,1517,1537,1558,1579,1600,1618,1637,1657,1677,1697,1718,1738,1758,1778,1798,1818,1837,1857,1878,1897,1917,1937,1958,1978],"xSR":741.5,"ySR":469.95,"xT1":424.9,"yT1":0,"xT2":1058.1,"yT2":0,"toosoon":0,"cond_shown":"Congruent","ratio_trial":200,"L_num":13,"L_den":26,"R_num":14,"R_den":20,"correct_side":2,"subjID":"Simon Cabrera ","gender":"0","school":"6","age":"10"},{"start_time":1551901129103,"click_time":1551901130454,"finger_time":1551901129934,"fix_duration":1227.1874829690041,"trial":19,"RT":831,"MT":520,"sideResp":1,"stimulus":[],"xmouse":[816,816,816,816,816,816,816,816,816,816,816,816,816,816,816,816,816,816,816,816,816,816,816,816,816,816,816,816,816,816,816,816,816,816,816,816,816,816,816,814,806,767,729,708,708,684,674,663,658,645,620,535,508,504,504,504,504,504,504,504,504,504,504,503,503,503,500,495],"ymouse":[495,495,495,495,495,495,495,495,495,495,495,495,495,495,495,495,495,495,495,495,495,495,495,495,495,495,495,495,495,495,495,495,495,495,495,495,495,495,495,493,476,410,355,328,328,301,289,275,270,257,232,154,132,130,130,130,130,130,130,130,130,130,130,130,130,130,109,84],"timestamp_mouse":[13,47,51,71,90,111,132,152,171,190,210,231,251,271,291,310,330,351,371,390,411,430,450,471,491,512,530,550,570,590,612,631,650,671,690,711,731,751,771,791,810,831,853,875,890,910,930,950,970,991,1011,1030,1050,1071,1090,1111,1131,1150,1171,1191,1211,1235,1251,1273,1291,1311,1331,1351],"xSR":741.5,"ySR":469.95,"xT1":424.9,"yT1":0,"xT2":1058.1,"yT2":0,"toosoon":0,"cond_shown":"Congruent","ratio_trial":300,"L_num":20,"L_den":25,"R_num":14,"R_den":28,"correct_side":1,"subjID":"Simon Cabrera ","gender":"0","school":"6","age":"10"},{"start_time":1551901133620,"click_time":1551901135633,"finger_time":1551901135173,"fix_duration":1184.2729134320373,"trial":20,"RT":1553,"MT":460,"sideResp":1,"stimulus":[],"xmouse":[765,765,765,765,765,765,765,765,765,765,765,765,765,765,765,765,765,765,765,765,765,765,765,765,765,765,765,765,765,765,765,765,765,765,765,765,765,765,765,765,765,765,765,765,765,765,765,765,765,765,765,765,765,765,765,765,765,765,765,765,765,765,765,765,765,765,765,765,765,765,765,765,765,765,765,765,754,739,709,653,642,634,627,619,588,576,566,557,548,529,523,521,519,519,515,514,512,510,509,506],"ymouse":[484,484,484,484,484,484,484,484,484,484,484,484,484,484,484,484,484,484,484,484,484,484,484,484,484,484,484,484,484,484,484,484,484,484,484,484,484,484,484,484,484,484,484,484,484,484,484,484,484,484,484,484,484,484,484,484,484,484,484,484,484,484,484,484,484,484,484,484,484,484,484,484,484,484,483,483,460,437,388,322,307,298,289,278,238,224,209,196,179,143,134,128,126,124,118,116,113,109,105,99],"timestamp_mouse":[13,57,74,94,114,134,154,174,193,213,233,254,273,293,313,334,354,373,394,414,433,453,473,494,513,533,553,573,594,613,634,653,674,694,714,734,753,775,793,813,833,854,874,893,914,934,954,973,993,1014,1033,1054,1073,1094,1114,1134,1154,1173,1193,1214,1233,1253,1273,1293,1313,1334,1355,1374,1394,1414,1434,1453,1473,1494,1513,1533,1553,1574,1593,1614,1633,1654,1674,1694,1713,1733,1754,1775,1794,1814,1833,1854,1873,1893,1913,1934,1954,1974,1994,2013],"xSR":741.5,"ySR":469.95,"xT1":424.9,"yT1":0,"xT2":1058.1,"yT2":0,"toosoon":0,"cond_shown":"Incongruent","ratio_trial":100,"L_num":3,"L_den":6,"R_num":4,"R_den":10,"correct_side":1,"subjID":"Simon Cabrera ","gender":"0","school":"6","age":"10"},{"start_time":1551901138057,"click_time":1551901140054,"finger_time":1551901139153,"fix_duration":422.15257746593846,"trial":21,"RT":1096,"MT":901,"sideResp":1,"stimulus":[],"xmouse":[795,795,795,795,795,795,795,795,795,795,795,795,795,795,795,795,795,795,795,795,795,795,795,795,795,795,795,795,795,795,795,795,795,795,796,796,796,796,796,796,796,796,795,783,778,770,765,764,763,763,763,763,763,763,764,771,771,780,782,782,782,782,783,783,784,790,800,814,856,891,923,943,974,981,984,985,985,985,985,985,983,976,896,832,773,753,733,709,655,634,611,586,575,575,575,574,574,569,535,519],"ymouse":[498,498,498,498,498,498,498,498,498,498,498,498,498,498,498,498,498,498,498,498,498,498,498,498,498,498,498,498,498,498,498,498,498,498,499,499,499,499,499,499,499,499,499,492,491,486,483,482,481,481,481,481,481,481,468,451,451,433,430,429,429,429,428,428,427,420,409,394,352,321,295,276,250,245,242,242,241,241,241,241,241,242,224,200,179,173,168,164,147,140,130,119,115,115,115,114,114,105,58,47],"timestamp_mouse":[17,47,56,77,97,118,136,157,176,197,216,236,257,277,296,317,336,357,377,396,417,438,457,477,497,517,537,557,577,597,616,636,657,676,697,716,736,756,776,797,816,836,856,876,897,916,936,957,978,997,1016,1037,1056,1076,1096,1117,1137,1157,1177,1200,1222,1237,1257,1277,1297,1317,1336,1357,1378,1397,1417,1437,1456,1477,1497,1516,1537,1556,1577,1596,1617,1637,1657,1677,1697,1716,1736,1756,1776,1797,1818,1837,1857,1876,1896,1918,1936,1957,1977,1997],"xSR":741.5,"ySR":469.95,"xT1":424.9,"yT1":0,"xT2":1058.1,"yT2":0,"toosoon":0,"cond_shown":"Incongruent","ratio_trial":100,"L_num":9,"L_den":18,"R_num":6,"R_den":10,"correct_side":2,"subjID":"Simon Cabrera ","gender":"0","school":"6","age":"10"},{"start_time":1551901141948,"click_time":1551901143073,"finger_time":1551901142655,"fix_duration":953.5655607509987,"trial":22,"RT":707,"MT":418,"sideResp":1,"stimulus":[],"xmouse":[786,786,786,786,786,786,786,786,786,786,786,786,786,786,786,786,786,786,786,788,790,790,790,790,790,790,790,790,790,790,790,790,790,790,788,781,775,760,752,752,664,590,543,511,472,467,466,465,464,464,463,463,463,462,462,462,462],"ymouse":[493,493,493,493,493,493,493,493,493,493,493,493,493,493,493,493,493,493,493,493,493,493,493,493,493,493,493,493,493,493,493,493,493,493,483,459,436,400,389,389,275,211,177,153,123,117,116,115,115,113,112,112,110,109,104,102,99],"timestamp_mouse":[14,25,64,66,85,105,126,145,165,186,206,226,246,266,285,306,325,345,365,385,406,425,446,466,486,505,525,546,567,585,605,625,647,666,686,707,725,746,765,786,811,825,845,865,885,906,925,945,965,986,1005,1026,1046,1066,1086,1106,1125],"xSR":741.5,"ySR":469.95,"xT1":424.9,"yT1":0,"xT2":1058.1,"yT2":0,"toosoon":0,"cond_shown":"Congruent","ratio_trial":300,"L_num":11,"L_den":22,"R_num":2,"R_den":10,"correct_side":1,"subjID":"Simon Cabrera ","gender":"0","school":"6","age":"10"},{"start_time":1551901145090,"click_time":1551901146553,"finger_time":1551901146014,"fix_duration":1154.1340078366366,"trial":23,"RT":924,"MT":539,"sideResp":1,"stimulus":[],"xmouse":[820,820,820,820,820,820,820,820,820,820,820,820,820,820,820,820,820,820,820,820,820,820,820,820,820,820,820,820,820,820,820,820,820,821,822,831,832,833,833,833,833,836,837,839,840,842,846,859,865,875,896,903,907,907,907,907,907,907,907,907,907,907,907,907,907,907,902,883,850,788,613,539,520],"ymouse":[560,560,560,560,560,560,560,560,560,560,560,560,560,560,560,560,560,560,560,560,560,560,560,560,560,560,560,560,560,560,560,560,560,560,559,540,536,534,534,532,531,526,524,521,519,514,508,491,484,470,440,430,424,423,423,423,423,423,423,423,423,423,423,423,423,423,411,389,347,279,92,33,19],"timestamp_mouse":[13,45,64,83,103,123,143,163,183,203,224,243,264,283,303,324,344,364,383,403,424,444,464,483,504,523,544,564,585,604,623,643,663,684,704,724,744,763,784,803,823,843,865,884,905,924,949,971,984,1004,1023,1044,1064,1084,1105,1124,1144,1165,1185,1205,1224,1244,1263,1284,1305,1323,1344,1364,1384,1404,1424,1445,1463],"xSR":741.5,"ySR":469.95,"xT1":424.9,"yT1":0,"xT2":1058.1,"yT2":0,"toosoon":0,"cond_shown":"Incongruent","ratio_trial":300,"L_num":1,"L_den":2,"R_num":3,"R_den":15,"correct_side":1,"subjID":"Simon Cabrera ","gender":"0","school":"6","age":"10"},{"start_time":1551901147978,"click_time":1551901151194,"finger_time":1551901149854,"fix_duration":343.783264684536,"trial":24,"RT":1876,"MT":1340,"sideResp":2,"stimulus":[],"xmouse":[796,796,796,796,796,796,796,796,796,796,796,796,796,796,796,796,796,796,796,796,796,796,796,796,796,796,796,796,796,796,796,796,796,796,796,796,796,796,796,796,796,796,796,796,796,796,796,796,796,796,796,796,796,796,796,796,796,796,796,796,796,796,796,796,796,796,796,796,796,796,796,796,796,796,796,796,796,796,796,796,796,796,796,796,796,796,796,796,796,796,796,793,780,750,706,696,672,662,646,636,624,606,595,586,577,572,568,568,568,568,568,568,568,568,568,568,569,650,774,906,1009,1061,1062,1062,1062,1062,1062,1062,1062,1062,1062,1062,1062,1062,1062,1062,1062,1062,1062,1062,1062,1062,1062,1062,1062,1062,1062,1062,1062,1062,1062,1062,1062,1062,1062,1063,1063,1063,1063,1064],"ymouse":[514,514,514,514,514,514,514,514,514,514,514,514,514,514,514,514,514,514,514,514,514,514,514,514,514,514,514,514,514,514,514,514,514,514,514,514,514,514,514,514,514,514,514,514,514,514,514,514,514,514,514,514,514,514,514,514,514,514,514,514,514,514,514,514,514,514,514,514,514,514,514,514,514,514,514,514,514,514,514,514,514,514,514,514,514,514,514,514,514,514,514,496,452,390,310,292,249,228,192,175,160,144,137,134,132,130,130,130,130,130,130,130,130,130,130,130,128,112,102,102,102,102,101,101,101,101,101,101,101,101,101,101,101,101,101,101,101,101,101,101,101,101,101,101,101,101,101,101,101,101,101,101,101,101,101,101,101,101,101,99],"timestamp_mouse":[43,55,75,95,116,136,156,177,197,217,236,257,275,295,315,336,356,376,396,415,435,456,477,496,515,535,556,575,595,617,635,655,675,696,717,736,756,775,795,815,835,855,875,896,916,937,957,976,995,1015,1036,1056,1075,1096,1115,1136,1155,1175,1196,1216,1236,1256,1275,1296,1316,1336,1355,1375,1395,1416,1436,1456,1477,1496,1515,1536,1555,1575,1596,1616,1636,1656,1675,1695,1716,1735,1755,1775,1795,1816,1835,1856,1876,1896,1915,1936,1955,1975,1995,2015,2036,2055,2075,2095,2115,2136,2157,2176,2195,2215,2236,2255,2275,2296,2315,2335,2356,2375,2396,2415,2435,2455,2475,2495,2516,2536,2556,2576,2595,2616,2636,2656,2676,2695,2715,2735,2756,2775,2797,2816,2836,2856,2876,2895,2917,2937,2955,2975,2995,3016,3037,3056,3075,3095,3115,3135,3156,3176,3195,3216],"xSR":741.5,"ySR":469.95,"xT1":424.9,"yT1":0,"xT2":1058.1,"yT2":0,"toosoon":0,"cond_shown":"Incongruent","ratio_trial":300,"L_num":7,"L_den":10,"R_num":8,"R_den":20,"correct_side":1,"subjID":"Simon Cabrera ","gender":"0","school":"6","age":"10"},{"start_time":1551901153703,"click_time":1551901154716,"finger_time":1551901154314,"fix_duration":1489.741087252594,"trial":25,"RT":611,"MT":402,"sideResp":1,"stimulus":[],"xmouse":[791,791,791,791,791,791,791,791,791,791,791,791,791,791,791,791,791,791,791,791,791,791,791,791,791,791,785,779,773,767,747,737,712,712,678,658,641,622,607,599,587,584,581,574,569,563,554,549,539,526,503],"ymouse":[515,515,515,515,515,515,515,515,515,515,515,515,515,515,515,515,515,515,515,515,515,515,515,515,515,515,508,500,493,487,468,457,427,427,389,361,336,300,279,264,244,236,230,214,200,188,171,158,138,116,82],"timestamp_mouse":[13,31,55,70,90,111,131,150,171,190,211,231,250,271,291,310,330,351,371,391,410,430,450,470,490,511,530,550,571,590,611,636,658,671,690,710,731,750,771,791,810,830,851,872,891,911,930,950,972,991,1013],"xSR":741.5,"ySR":469.95,"xT1":424.9,"yT1":0,"xT2":1058.1,"yT2":0,"toosoon":0,"cond_shown":"Congruent","ratio_trial":300,"L_num":20,"L_den":25,"R_num":9,"R_den":18,"correct_side":1,"subjID":"Simon Cabrera ","gender":"0","school":"6","age":"10"},{"start_time":1551901156997,"click_time":1551901158293,"finger_time":1551901157953,"fix_duration":1420.8197977399589,"trial":26,"RT":956,"MT":340,"sideResp":1,"stimulus":[],"xmouse":[776,776,776,776,776,776,776,776,776,776,776,776,776,776,776,776,776,776,776,776,776,776,776,776,776,776,776,776,776,776,776,776,776,776,776,776,776,776,776,776,776,776,776,776,776,776,773,749,737,708,708,674,666,660,658,654,646,622,612,589,570,554,534,515,497],"ymouse":[508,508,508,508,508,508,508,508,508,508,508,508,508,508,508,508,508,508,508,508,508,508,508,508,508,508,508,508,508,508,508,508,508,508,508,508,508,508,508,508,508,508,508,508,508,508,488,438,415,367,367,305,290,280,276,270,255,219,206,179,157,140,122,107,93],"timestamp_mouse":[17,36,56,78,98,117,137,157,178,197,217,236,258,278,297,316,337,357,378,397,416,436,457,477,497,517,536,556,576,596,616,637,657,677,697,717,738,756,777,796,817,837,857,877,896,917,936,956,977,997,1016,1036,1056,1076,1096,1116,1136,1156,1177,1197,1217,1236,1256,1276,1296],"xSR":741.5,"ySR":469.95,"xT1":424.9,"yT1":0,"xT2":1058.1,"yT2":0,"toosoon":0,"cond_shown":"Incongruent","ratio_trial":300,"L_num":1,"L_den":2,"R_num":3,"R_den":15,"correct_side":1,"subjID":"Simon Cabrera ","gender":"0","school":"6","age":"10"},{"start_time":1551901159710,"click_time":1551901160994,"finger_time":1551901160613,"fix_duration":775.7147905362136,"trial":27,"RT":903,"MT":381,"sideResp":1,"stimulus":[],"xmouse":[793,793,793,793,793,793,793,793,793,793,793,793,793,793,793,793,793,793,793,793,793,793,793,793,793,793,793,793,793,793,793,793,793,793,793,793,793,793,793,793,793,793,794,782,760,718,700,700,682,678,677,664,659,644,629,580,558,549,540,533,521,519,517,513,511],"ymouse":[551,551,551,551,551,551,551,551,551,551,551,551,551,551,551,551,551,551,551,551,551,551,551,551,551,551,551,551,551,551,551,551,551,551,551,551,551,551,551,551,551,551,552,527,491,439,420,420,400,395,394,386,382,364,344,275,242,224,206,189,150,135,122,102,91],"timestamp_mouse":[12,24,50,64,84,105,124,143,164,184,204,224,243,265,284,304,324,345,365,384,404,423,443,464,483,503,524,544,564,585,605,623,643,663,685,703,724,744,764,785,803,824,844,864,883,903,929,945,964,985,1004,1023,1043,1063,1084,1106,1124,1144,1163,1183,1203,1223,1244,1264,1283],"xSR":741.5,"ySR":469.95,"xT1":424.9,"yT1":0,"xT2":1058.1,"yT2":0,"toosoon":0,"cond_shown":"Congruent","ratio_trial":200,"L_num":20,"L_den":25,"R_num":9,"R_den":15,"correct_side":1,"subjID":"Simon Cabrera ","gender":"0","school":"6","age":"10"},{"start_time":1551901162065,"click_time":1551901163674,"finger_time":1551901163194,"fix_duration":250,"trial":28,"RT":1129,"MT":480,"sideResp":2,"stimulus":[],"xmouse":[787,787,787,787,787,787,787,787,787,787,787,787,787,787,787,787,787,787,787,787,787,787,787,787,787,787,787,787,787,787,787,787,787,787,787,787,787,787,787,787,787,787,787,787,787,787,787,787,787,787,787,787,787,788,793,798,818,828,846,855,868,872,891,894,897,901,908,939,963,988,1005,1023,1046,1048,1048,1048,1048,1052,1061,1070,1079],"ymouse":[495,495,495,495,495,495,495,495,495,495,495,495,495,495,495,495,495,495,495,495,495,495,495,495,495,495,495,495,495,495,495,495,495,495,495,495,495,495,495,495,495,495,495,495,495,495,495,495,495,495,495,495,495,495,494,488,464,453,430,418,399,391,366,362,358,353,339,286,249,215,188,167,140,138,138,138,138,133,119,107,95],"timestamp_mouse":[11,28,58,69,88,108,128,149,168,189,209,228,248,268,289,309,329,349,368,388,409,429,448,470,489,509,528,548,569,589,608,629,649,668,689,708,729,748,768,789,808,829,849,869,889,908,929,948,969,989,1009,1029,1049,1068,1088,1109,1129,1150,1170,1190,1213,1229,1248,1270,1289,1309,1329,1348,1368,1389,1409,1429,1448,1468,1489,1508,1530,1548,1569,1589,1609],"xSR":741.5,"ySR":469.95,"xT1":424.9,"yT1":0,"xT2":1058.1,"yT2":0,"toosoon":0,"cond_shown":"Congruent","ratio_trial":300,"L_num":2,"L_den":10,"R_num":12,"R_den":24,"correct_side":2,"subjID":"Simon Cabrera ","gender":"0","school":"6","age":"10"},{"start_time":1551901165358,"click_time":1551901166195,"finger_time":1551901166013,"fix_duration":283.08795472515624,"trial":29,"RT":655,"MT":182,"sideResp":1,"stimulus":[],"xmouse":[793,793,793,793,793,793,793,793,793,793,793,793,793,793,793,793,793,793,793,793,793,793,793,793,793,793,793,793,793,793,791,715,667,636,615,598,560,546,537,531,523],"ymouse":[527,527,527,527,527,527,527,527,527,527,527,527,527,527,527,527,527,527,527,527,527,527,527,527,527,527,527,527,527,527,522,403,344,309,285,254,168,137,122,110,97],"timestamp_mouse":[41,55,75,96,116,135,155,176,196,216,235,255,276,296,316,335,356,375,397,416,436,456,476,496,515,535,555,575,595,615,635,655,680,702,718,736,755,776,796,816,837],"xSR":741.5,"ySR":469.95,"xT1":424.9,"yT1":0,"xT2":1058.1,"yT2":0,"toosoon":0,"cond_shown":"Incongruent","ratio_trial":300,"L_num":8,"L_den":10,"R_num":9,"R_den":18,"correct_side":1,"subjID":"Simon Cabrera ","gender":"0","school":"6","age":"10"},{"start_time":1551901168105,"click_time":1551901169494,"finger_time":1551901169134,"fix_duration":988.974403695557,"trial":30,"RT":1029,"MT":360,"sideResp":1,"stimulus":[],"xmouse":[815,815,815,815,815,815,815,815,815,815,815,815,815,815,815,815,815,815,815,815,815,815,815,815,815,815,815,815,815,815,815,815,815,815,815,815,815,815,815,815,815,815,815,815,815,815,814,803,792,750,720,710,681,662,610,590,575,560,545,531,501,488,475,457,440,437,436,436,436],"ymouse":[549,549,549,549,549,549,549,549,549,549,549,549,549,549,549,549,549,549,549,549,549,549,549,549,549,549,549,549,549,549,549,549,549,549,549,549,549,549,549,549,549,549,549,549,549,549,549,534,519,470,440,430,396,376,330,313,300,284,268,252,213,197,181,159,135,126,115,103,93],"timestamp_mouse":[12,49,70,89,109,129,148,168,189,209,228,248,268,288,308,329,349,369,389,409,429,449,468,489,508,528,549,569,588,608,628,648,669,689,708,728,749,769,789,809,829,850,868,889,910,929,948,968,988,1016,1029,1050,1069,1090,1108,1129,1148,1168,1189,1209,1229,1249,1269,1289,1309,1329,1348,1369,1389],"xSR":741.5,"ySR":469.95,"xT1":424.9,"yT1":0,"xT2":1058.1,"yT2":0,"toosoon":0,"cond_shown":"Incongruent","ratio_trial":200,"L_num":4,"L_den":5,"R_num":6,"R_den":10,"correct_side":1,"subjID":"Simon Cabrera ","gender":"0","school":"6","age":"10"},{"start_time":1551901171511,"click_time":1551901173315,"finger_time":1551901172974,"fix_duration":654.5382080451795,"trial":31,"RT":1463,"MT":341,"sideResp":1,"stimulus":[],"xmouse":[759,759,759,759,759,759,759,759,759,759,759,759,759,759,759,759,759,759,759,759,759,759,759,759,759,759,759,759,759,759,759,759,759,759,759,759,759,759,759,759,759,759,759,759,759,759,759,759,759,759,759,759,759,759,759,759,759,759,759,759,759,759,759,759,759,759,759,760,760,760,760,755,732,704,666,657,648,635,617,589,583,581,576,568,543,538,537,537,533,514],"ymouse":[515,515,515,515,515,515,515,515,515,515,515,515,515,515,515,515,515,515,515,515,515,515,515,515,515,515,515,515,515,515,515,515,515,515,515,515,515,515,515,515,515,515,515,515,515,515,515,515,515,515,515,515,515,515,515,515,515,515,515,515,515,515,515,515,515,515,515,514,514,514,507,491,437,396,343,319,290,246,200,166,160,152,138,117,77,74,74,74,73,68],"timestamp_mouse":[13,55,62,82,103,123,143,162,182,203,222,242,263,283,304,324,342,363,382,402,423,443,463,482,502,522,542,562,582,603,623,643,664,683,703,724,743,763,783,803,823,843,862,882,902,923,942,962,983,1008,1023,1043,1062,1083,1104,1123,1143,1163,1183,1203,1223,1243,1263,1283,1303,1324,1344,1363,1383,1404,1423,1443,1463,1483,1503,1526,1543,1563,1584,1603,1622,1644,1664,1684,1702,1723,1743,1764,1783,1804],"xSR":741.5,"ySR":469.95,"xT1":424.9,"yT1":0,"xT2":1058.1,"yT2":0,"toosoon":0,"cond_shown":"Incongruent","ratio_trial":300,"L_num":13,"L_den":26,"R_num":12,"R_den":15,"correct_side":2,"subjID":"Simon Cabrera ","gender":"0","school":"6","age":"10"},{"start_time":1551901176423,"click_time":1551901178394,"finger_time":1551901177813,"fix_duration":1207.588261970022,"trial":32,"RT":1390,"MT":581,"sideResp":2,"stimulus":[],"xmouse":[769,769,769,769,769,769,769,769,769,769,769,769,769,769,769,769,769,769,769,769,769,769,769,769,769,769,769,769,769,769,769,769,769,769,769,769,770,770,770,768,768,768,768,768,768,768,768,768,768,769,769,769,769,770,770,770,770,770,770,770,770,770,770,770,770,770,770,777,791,844,853,856,857,857,857,855,848,821,814,806,812,834,879,955,1095,1126,1139,1143,1143,1150,1152,1152,1152,1152,1146,1142,1137,1133,1130],"ymouse":[512,512,512,512,512,512,512,512,512,512,512,512,512,512,512,512,512,512,512,512,512,512,512,512,512,512,512,512,512,512,512,512,512,512,512,512,512,512,511,496,496,496,496,496,496,496,496,496,495,495,495,495,495,495,495,495,495,495,495,495,495,495,495,495,495,495,495,489,474,423,415,410,407,407,397,393,388,371,366,357,342,319,291,256,197,180,173,170,169,150,144,138,136,132,120,115,108,100,95],"timestamp_mouse":[13,48,50,71,92,112,132,150,171,190,211,231,251,271,291,311,332,351,372,391,411,432,451,471,491,512,532,551,572,592,612,632,651,671,691,711,732,751,771,791,812,830,851,871,891,912,931,951,971,991,1012,1032,1051,1071,1092,1112,1130,1151,1172,1190,1211,1231,1251,1271,1291,1311,1331,1352,1371,1390,1415,1435,1451,1470,1490,1512,1531,1550,1571,1592,1612,1631,1652,1671,1691,1711,1731,1751,1771,1790,1811,1831,1850,1872,1892,1911,1931,1951,1971],"xSR":741.5,"ySR":469.95,"xT1":424.9,"yT1":0,"xT2":1058.1,"yT2":0,"toosoon":0,"cond_shown":"Incongruent","ratio_trial":200,"L_num":6,"L_den":20,"R_num":3,"R_den":6,"correct_side":2,"subjID":"Simon Cabrera ","gender":"0","school":"6","age":"10"},{"start_time":1551901183571,"click_time":1551901186134,"finger_time":1551901185214,"fix_duration":855.455582712488,"trial":33,"RT":1643,"MT":920,"sideResp":1,"stimulus":[],"xmouse":[774,776,776,777,777,777,777,777,777,777,777,777,777,777,777,777,777,777,777,777,777,777,777,777,777,777,777,777,777,777,777,777,777,777,777,777,777,777,777,777,777,777,777,777,777,777,777,777,777,777,777,778,779,780,780,781,781,781,781,781,782,783,785,787,788,789,793,794,794,796,797,797,798,799,800,801,801,801,801,801,798,769,739,713,713,680,667,663,657,647,625,555,536,527,525,525,517,505,490,480,477,477,477,476,476,476,476,476,476,476,476,476,476,476,478,480,482,482,483,485,487,488,488,488,489,490,491,491],"ymouse":[536,535,535,535,535,535,535,535,535,535,535,535,535,535,535,535,535,535,535,535,535,535,535,535,535,535,535,535,535,535,535,535,535,535,535,535,535,535,535,535,535,535,535,535,535,535,535,535,535,535,535,534,534,534,534,533,533,533,533,533,533,532,532,531,531,531,529,529,529,527,527,525,523,521,520,520,520,520,520,519,513,457,406,363,363,305,279,270,262,251,229,185,177,172,172,172,166,156,144,136,134,134,132,129,124,119,116,116,115,115,113,112,112,111,110,109,107,107,106,104,103,103,103,103,102,101,100,99],"timestamp_mouse":[9,24,63,83,103,123,144,164,184,203,223,243,263,283,303,322,343,363,384,403,424,443,463,484,503,522,543,563,583,603,623,643,662,683,703,723,742,763,783,803,823,844,863,884,903,924,943,963,984,1008,1024,1043,1064,1083,1103,1123,1143,1163,1182,1202,1223,1243,1263,1284,1303,1323,1343,1363,1382,1403,1423,1443,1463,1482,1504,1524,1543,1564,1583,1603,1623,1643,1667,1688,1703,1723,1743,1764,1783,1803,1823,1843,1863,1883,1903,1923,1943,1962,1983,2003,2022,2044,2063,2083,2103,2123,2143,2164,2184,2203,2222,2242,2264,2283,2303,2323,2343,2362,2385,2405,2424,2445,2464,2483,2503,2523,2543,2563],"xSR":741.5,"ySR":469.95,"xT1":424.9,"yT1":0,"xT2":1058.1,"yT2":0,"toosoon":0,"cond_shown":"Congruent","ratio_trial":100,"L_num":10,"L_den":25,"R_num":3,"R_den":10,"correct_side":1,"subjID":"Simon Cabrera ","gender":"0","school":"6","age":"10"},{"start_time":1551901189413,"click_time":1551901192014,"finger_time":1551901190854,"fix_duration":437.5198705767831,"trial":34,"RT":1441,"MT":1160,"sideResp":1,"stimulus":[],"xmouse":[794,794,794,794,794,794,794,794,794,794,794,794,794,794,794,794,794,794,794,794,794,794,794,794,794,794,794,794,794,794,794,794,794,794,794,794,794,794,794,794,794,794,794,794,794,794,794,794,794,794,794,794,794,794,794,794,794,794,794,794,794,794,794,794,794,794,794,794,794,794,801,831,867,896,912,921,922,925,932,946,962,965,968,970,974,983,988,993,993,993,994,994,995,996,996,996,996,996,996,996,999,1002,1004,1006,1007,1007,1007,1007,1007,1007,1007,1007,1007,1007,1007,1007,995,968,899,799,672,625,624,624,624,624,623,618,607,586,508],"ymouse":[541,541,541,541,541,541,541,541,541,541,541,541,541,541,541,541,541,541,541,541,541,541,541,541,541,541,541,541,541,541,541,541,541,541,541,541,541,541,541,541,541,541,541,541,541,541,541,541,541,541,541,541,541,541,541,541,541,541,541,541,541,541,541,541,541,541,541,541,541,541,534,494,451,420,405,391,388,381,361,328,248,224,204,184,166,132,117,107,105,105,104,104,103,103,101,101,101,101,101,101,97,95,93,91,90,90,90,90,90,90,90,90,90,90,90,90,94,100,102,102,102,102,102,102,102,102,102,97,89,76,50],"timestamp_mouse":[10,33,42,61,81,102,121,141,161,181,202,221,241,261,281,301,321,342,361,382,401,421,441,461,481,501,522,540,560,581,601,621,641,661,682,701,721,741,761,780,801,822,841,862,882,902,921,941,961,980,1008,1021,1041,1061,1081,1101,1122,1141,1161,1181,1201,1222,1242,1260,1281,1300,1321,1341,1362,1382,1401,1421,1441,1462,1481,1501,1521,1540,1562,1581,1601,1621,1641,1661,1681,1701,1721,1741,1761,1781,1800,1821,1842,1861,1881,1901,1922,1940,1960,1982,2001,2022,2042,2061,2081,2101,2122,2142,2160,2180,2200,2221,2241,2261,2281,2301,2321,2342,2361,2381,2401,2422,2441,2462,2481,2501,2521,2541,2561,2581,2601],"xSR":741.5,"ySR":469.95,"xT1":424.9,"yT1":0,"xT2":1058.1,"yT2":0,"toosoon":0,"cond_shown":"Incongruent","ratio_trial":300,"L_num":13,"L_den":26,"R_num":12,"R_den":15,"correct_side":2,"subjID":"Simon Cabrera ","gender":"0","school":"6","age":"10"},{"start_time":1551901196699,"click_time":1551901198254,"finger_time":1551901198154,"fix_duration":1423.7600724192457,"trial":35,"RT":1455,"MT":100,"sideResp":2,"stimulus":[],"xmouse":[775,775,775,775,775,775,775,775,775,775,775,775,775,775,775,775,775,775,775,775,775,775,775,775,775,775,775,775,775,775,775,776,776,776,776,776,776,776,776,776,776,776,776,776,776,776,776,776,777,782,784,788,797,799,799,799,799,799,799,799,799,799,799,799,799,799,799,799,804,810,830,898,963,1039,1039,1056,1061],"ymouse":[538,538,538,538,538,538,538,538,538,538,538,538,538,538,538,538,538,538,538,538,538,538,538,538,538,538,538,538,539,539,539,539,539,539,539,539,539,539,539,539,539,539,539,539,539,539,539,539,542,555,559,561,563,563,563,563,563,563,563,563,563,563,563,563,563,563,563,563,555,541,507,377,259,129,129,95,82],"timestamp_mouse":[15,58,75,95,114,136,155,175,195,215,235,255,275,294,315,335,355,375,395,414,435,455,475,495,515,535,556,575,595,615,635,655,675,695,715,736,755,775,795,815,835,855,875,895,916,935,955,974,995,1015,1035,1054,1075,1095,1115,1134,1155,1175,1196,1214,1235,1255,1275,1294,1315,1335,1355,1376,1395,1415,1435,1455,1476,1505,1515,1536,1555],"xSR":741.5,"ySR":469.95,"xT1":424.9,"yT1":0,"xT2":1058.1,"yT2":0,"toosoon":0,"cond_shown":"Incongruent","ratio_trial":100,"L_num":2,"L_den":4,"R_num":8,"R_den":20,"correct_side":1,"subjID":"Simon Cabrera ","gender":"0","school":"6","age":"10"},{"start_time":1551901201167,"click_time":1551901202394,"finger_time":1551901202114,"fix_duration":692.2383275930604,"trial":36,"RT":947,"MT":280,"sideResp":1,"stimulus":[],"xmouse":[755,755,755,755,755,755,755,755,755,755,755,755,755,755,755,755,755,755,755,755,755,755,755,755,755,755,755,755,755,755,755,755,755,755,755,755,755,755,755,755,755,755,755,755,755,755,753,718,666,561,532,510,503,501,499,497,494,472,459,447,440,434],"ymouse":[540,540,540,540,540,540,540,540,540,540,540,540,540,540,540,540,540,540,540,540,540,540,540,540,540,540,540,540,540,540,540,540,540,540,540,540,540,540,540,540,540,540,540,540,540,540,537,494,430,303,274,249,238,232,228,223,218,179,152,126,102,63],"timestamp_mouse":[14,27,61,67,87,107,127,148,167,187,208,228,247,267,287,306,328,347,367,387,407,428,447,468,487,507,528,548,567,586,607,628,647,667,688,707,728,747,767,787,806,827,847,867,888,907,928,947,970,991,1007,1027,1048,1067,1087,1108,1127,1147,1168,1187,1207,1227],"xSR":741.5,"ySR":469.95,"xT1":424.9,"yT1":0,"xT2":1058.1,"yT2":0,"toosoon":0,"cond_shown":"Incongruent","ratio_trial":200,"L_num":7,"L_den":10,"R_num":12,"R_den":24,"correct_side":1,"subjID":"Simon Cabrera ","gender":"0","school":"6","age":"10"},{"start_time":1551901203726,"click_time":1551901205574,"finger_time":1551901205094,"fix_duration":250,"trial":37,"RT":1368,"MT":480,"sideResp":2,"stimulus":[],"xmouse":[750,750,750,750,750,750,750,750,750,750,750,750,750,750,750,750,750,750,750,750,750,751,751,751,751,751,751,751,751,751,751,751,751,751,751,752,752,752,752,752,752,752,752,752,752,752,752,752,752,752,752,752,752,752,752,752,752,752,752,752,752,752,752,752,752,752,765,798,835,861,866,866,862,858,823,806,796,793,802,869,898,926,947,959,963,966,971,982,990,1006,1017,1040,1067],"ymouse":[516,516,516,516,516,516,516,516,516,516,516,516,516,516,516,516,516,516,516,516,516,516,516,516,516,516,516,516,516,516,516,516,516,516,516,516,516,516,516,516,516,516,516,516,516,516,516,516,516,516,516,516,516,516,516,516,516,516,516,516,516,516,516,516,516,516,511,482,443,410,399,399,397,396,396,392,387,374,325,203,174,155,143,135,133,132,129,122,115,99,87,67,50],"timestamp_mouse":[12,40,48,68,88,108,129,148,169,188,208,228,248,268,288,307,328,348,368,388,408,428,448,467,488,507,528,548,568,589,608,628,648,668,688,707,728,748,767,788,808,828,847,868,888,908,928,948,968,988,1008,1028,1048,1068,1088,1108,1127,1148,1168,1189,1207,1229,1248,1268,1288,1308,1329,1348,1368,1389,1408,1428,1451,1468,1495,1509,1527,1547,1568,1589,1608,1628,1648,1668,1687,1708,1729,1748,1768,1789,1808,1828,1848],"xSR":741.5,"ySR":469.95,"xT1":424.9,"yT1":0,"xT2":1058.1,"yT2":0,"toosoon":0,"cond_shown":"Congruent","ratio_trial":100,"L_num":12,"L_den":30,"R_num":13,"R_den":26,"correct_side":2,"subjID":"Simon Cabrera ","gender":"0","school":"6","age":"10"},{"start_time":1551901207367,"click_time":1551901208655,"finger_time":1551901208235,"fix_duration":250,"trial":38,"RT":868,"MT":420,"sideResp":1,"stimulus":[],"xmouse":[800,800,800,800,800,800,800,800,800,800,800,800,800,800,800,800,800,800,800,800,800,800,800,800,800,800,800,800,800,800,800,800,800,800,800,800,800,800,800,800,800,799,774,753,744,741,741,741,740,740,737,721,710,701,696,688,662,634,592,549,511,456,449,448],"ymouse":[538,538,538,538,538,538,538,538,538,538,538,538,538,538,538,538,538,538,538,538,538,538,538,538,538,538,538,538,538,538,538,538,538,538,538,538,538,538,538,538,538,532,468,437,425,419,419,418,417,414,409,386,375,368,363,357,334,313,282,246,198,118,102,98],"timestamp_mouse":[14,47,67,87,108,127,147,167,187,208,228,246,268,287,308,327,347,368,387,407,427,447,467,487,507,527,546,568,587,607,628,648,667,687,707,727,747,767,786,807,827,847,868,887,907,929,951,968,988,1007,1027,1047,1067,1087,1107,1127,1147,1167,1186,1207,1227,1247,1267,1288],"xSR":741.5,"ySR":469.95,"xT1":424.9,"yT1":0,"xT2":1058.1,"yT2":0,"toosoon":0,"cond_shown":"Incongruent","ratio_trial":200,"L_num":7,"L_den":10,"R_num":8,"R_den":16,"correct_side":1,"subjID":"Simon Cabrera ","gender":"0","school":"6","age":"10"},{"start_time":1551901210447,"click_time":1551901211915,"finger_time":1551901211815,"fix_duration":531.3862440448291,"trial":39,"RT":1368,"MT":100,"sideResp":2,"stimulus":[],"xmouse":[796,796,796,796,796,796,796,796,796,796,796,796,796,796,796,796,796,796,796,796,796,796,796,796,796,796,796,796,796,796,796,796,796,796,796,796,796,796,796,796,796,796,796,796,796,796,796,796,796,796,796,796,796,796,796,796,796,796,796,796,796,796,796,796,796,796,796,799,827,875,941,1004,1051,1083],"ymouse":[487,487,487,487,487,487,487,487,487,487,487,487,487,487,487,487,487,487,487,487,487,487,487,487,487,487,487,487,487,487,487,487,487,487,487,487,487,487,487,487,487,487,487,487,487,487,487,487,487,487,487,487,487,487,487,487,487,487,487,487,487,487,487,487,487,487,487,481,442,383,303,223,158,92],"timestamp_mouse":[11,28,60,66,87,107,127,148,167,187,207,227,247,267,287,307,327,347,366,388,407,427,447,466,487,506,527,547,568,587,607,628,647,668,687,707,728,747,768,787,808,827,847,868,887,906,927,947,968,988,1008,1028,1047,1067,1087,1107,1127,1147,1168,1188,1207,1228,1247,1268,1287,1307,1328,1347,1368,1387,1408,1427,1448,1468],"xSR":741.5,"ySR":469.95,"xT1":424.9,"yT1":0,"xT2":1058.1,"yT2":0,"toosoon":0,"cond_shown":"Incongruent","ratio_trial":100,"L_num":8,"L_den":20,"R_num":1,"R_den":2,"correct_side":2,"subjID":"Simon Cabrera ","gender":"0","school":"6","age":"10"},{"start_time":1551901216425,"click_time":1551901218034,"finger_time":1551901217813,"fix_duration":250,"trial":40,"RT":1388,"MT":221,"sideResp":1,"stimulus":[],"xmouse":[757,757,757,757,757,757,757,757,757,757,757,757,757,757,757,757,757,757,757,757,757,757,757,757,757,757,757,757,757,757,757,757,757,757,757,757,757,757,757,757,757,757,757,757,757,757,757,757,757,757,757,757,757,757,757,757,757,757,757,757,757,757,757,757,757,757,757,757,700,603,550,550,528,528,528,528,526,525,524,523],"ymouse":[502,502,502,502,502,502,502,502,502,502,502,502,502,502,502,502,502,502,502,502,502,502,502,502,502,502,502,502,502,502,502,502,502,502,502,502,502,502,502,502,502,502,502,502,502,502,502,502,502,502,502,502,502,502,502,502,502,502,502,502,502,502,502,502,502,502,502,492,391,263,199,199,174,173,166,160,155,149,106,78],"timestamp_mouse":[14,54,68,90,109,129,149,168,189,209,230,249,268,290,309,329,363,369,389,408,429,449,469,490,510,530,549,570,589,609,629,650,669,690,709,730,748,769,790,810,830,850,870,889,910,930,949,973,990,1009,1029,1049,1069,1090,1109,1130,1149,1169,1190,1210,1228,1249,1269,1289,1309,1329,1349,1370,1388,1412,1433,1450,1470,1489,1510,1529,1549,1569,1590,1609],"xSR":741.5,"ySR":469.95,"xT1":424.9,"yT1":0,"xT2":1058.1,"yT2":0,"toosoon":0,"cond_shown":"Incongruent","ratio_trial":300,"L_num":7,"L_den":10,"R_num":8,"R_den":20,"correct_side":1,"subjID":"Simon Cabrera ","gender":"0","school":"6","age":"10"},{"start_time":1551901219461,"click_time":1551901220814,"finger_time":1551901220314,"fix_duration":746.3722561386991,"trial":41,"RT":853,"MT":500,"sideResp":1,"stimulus":[],"xmouse":[801,797,791,791,791,790,790,790,790,790,790,790,790,790,790,790,790,790,790,790,790,790,790,790,790,790,790,790,790,790,790,790,790,790,790,790,790,790,790,790,799,797,792,790,789,789,785,782,778,776,775,775,775,775,775,775,775,773,751,713,669,575,539,508,490,474,429],"ymouse":[541,543,547,547,547,547,547,547,547,547,547,547,547,547,547,547,547,547,547,547,547,547,547,547,547,547,547,547,547,547,547,547,547,547,547,547,547,547,547,544,494,436,428,424,422,422,423,423,426,426,427,427,427,427,427,427,427,425,393,346,294,200,165,136,123,114,83],"timestamp_mouse":[14,60,73,93,113,134,153,173,192,213,233,252,273,294,313,334,353,373,393,413,433,453,473,493,514,533,553,574,594,614,632,653,673,693,714,732,753,773,793,813,833,853,876,897,913,933,961,974,993,1013,1034,1054,1073,1092,1112,1132,1154,1173,1194,1213,1233,1253,1273,1294,1313,1333,1353],"xSR":741.5,"ySR":469.95,"xT1":424.9,"yT1":0,"xT2":1058.1,"yT2":0,"toosoon":0,"cond_shown":"Congruent","ratio_trial":300,"L_num":24,"L_den":30,"R_num":8,"R_den":16,"correct_side":1,"subjID":"Simon Cabrera ","gender":"0","school":"6","age":"10"},{"start_time":1551901223243,"click_time":1551901224754,"finger_time":1551901224234,"fix_duration":1328.2988534243925,"trial":42,"RT":991,"MT":520,"sideResp":2,"stimulus":[],"xmouse":[774,774,774,774,774,774,774,774,774,774,774,774,774,774,774,774,774,774,774,774,774,774,773,771,769,768,768,768,768,768,768,768,768,768,768,768,768,768,768,768,768,768,768,768,770,775,787,799,833,862,883,903,920,946,959,968,972,975,980,981,986,988,998,1005,1013,1021,1030,1045,1051,1061,1066,1072,1080,1083,1086,1090],"ymouse":[532,532,532,532,532,532,532,532,532,532,532,532,532,532,532,532,532,532,532,532,532,532,533,534,534,534,534,534,534,534,534,534,534,534,534,534,534,534,534,534,534,534,534,534,534,531,524,517,495,473,454,435,415,373,352,334,323,318,307,303,296,291,273,261,246,233,215,180,164,144,133,124,109,106,102,97],"timestamp_mouse":[15,45,51,71,91,111,131,151,171,191,210,231,251,271,291,311,330,352,372,392,411,431,451,472,491,511,531,551,571,592,611,630,651,671,690,711,731,751,771,791,811,831,851,871,891,911,931,951,971,991,1010,1031,1051,1071,1091,1112,1131,1151,1171,1192,1211,1231,1251,1271,1291,1311,1331,1351,1371,1392,1411,1431,1451,1471,1491,1511],"xSR":741.5,"ySR":469.95,"xT1":424.9,"yT1":0,"xT2":1058.1,"yT2":0,"toosoon":0,"cond_shown":"Incongruent","ratio_trial":300,"L_num":4,"L_den":20,"R_num":2,"R_den":4,"correct_side":2,"subjID":"Simon Cabrera ","gender":"0","school":"6","age":"10"},{"start_time":1551901227219,"click_time":1551901228254,"finger_time":1551901227955,"fix_duration":1482.2876536027754,"trial":43,"RT":736,"MT":299,"sideResp":1,"stimulus":[],"xmouse":[801,801,801,801,801,801,801,801,801,801,801,801,801,801,801,801,801,801,801,801,801,801,801,801,801,801,801,801,801,801,801,801,801,784,748,711,674,641,636,626,613,595,558,544,533,525,516,499,494,488,486],"ymouse":[560,560,560,560,560,560,560,560,560,560,560,560,560,560,560,560,560,560,560,560,560,560,560,560,560,560,560,560,560,560,560,560,558,529,470,420,368,321,311,294,277,255,216,199,185,171,158,128,116,107,97],"timestamp_mouse":[36,55,75,95,115,136,155,175,195,216,236,255,276,294,315,335,355,375,396,415,436,455,475,496,515,536,556,575,595,615,636,654,675,695,715,736,755,775,797,815,835,855,875,897,914,936,955,975,995,1014,1035],"xSR":741.5,"ySR":469.95,"xT1":424.9,"yT1":0,"xT2":1058.1,"yT2":0,"toosoon":0,"cond_shown":"Incongruent","ratio_trial":200,"L_num":1,"L_den":2,"R_num":3,"R_den":10,"correct_side":1,"subjID":"Simon Cabrera ","gender":"0","school":"6","age":"10"},{"start_time":1551901230150,"click_time":1551901232135,"finger_time":1551901231614,"fix_duration":915.6145169717072,"trial":44,"RT":1464,"MT":521,"sideResp":2,"stimulus":[],"xmouse":[762,762,762,762,762,762,762,762,762,762,762,762,762,762,762,762,762,762,762,762,762,762,762,762,762,762,762,762,762,762,762,762,762,762,762,762,762,762,762,762,762,762,762,762,762,762,762,762,762,762,762,762,762,762,762,762,762,762,762,762,762,762,762,762,762,762,762,762,762,762,762,762,757,749,744,743,743,743,743,743,757,800,872,1045,1100,1128,1136,1140,1152,1158,1167,1173,1178,1179,1179,1179,1178,1175,1163,1158],"ymouse":[488,488,488,488,488,488,488,488,488,488,488,488,488,488,488,488,488,488,488,488,488,488,488,488,488,488,488,488,488,488,488,488,488,488,488,488,488,488,488,488,488,488,488,488,488,488,488,488,488,488,488,488,488,488,488,488,488,488,488,488,488,488,488,488,488,488,488,488,488,488,488,488,475,462,455,454,454,454,454,453,436,408,370,272,233,200,188,176,150,136,120,107,91,88,87,87,86,83,80,80],"timestamp_mouse":[14,41,44,65,84,104,124,144,164,184,204,224,244,264,284,303,324,344,364,384,404,424,445,464,484,504,524,544,564,583,604,624,643,664,684,704,724,744,765,784,804,824,845,864,885,904,924,945,964,984,1009,1024,1044,1064,1084,1104,1124,1145,1164,1184,1204,1224,1245,1264,1283,1304,1324,1344,1364,1385,1404,1425,1444,1464,1486,1507,1524,1544,1564,1584,1604,1624,1643,1663,1683,1704,1724,1745,1764,1784,1805,1824,1844,1868,1891,1904,1924,1944,1964,1985],"xSR":741.5,"ySR":469.95,"xT1":424.9,"yT1":0,"xT2":1058.1,"yT2":0,"toosoon":0,"cond_shown":"Congruent","ratio_trial":200,"L_num":8,"L_den":15,"R_num":7,"R_den":21,"correct_side":1,"subjID":"Simon Cabrera ","gender":"0","school":"6","age":"10"},{"start_time":1551901234791,"click_time":1551901236833,"finger_time":1551901236234,"fix_duration":250,"trial":45,"RT":1443,"MT":599,"sideResp":1,"stimulus":[],"xmouse":[821,821,821,821,821,821,821,821,821,821,821,821,821,821,821,821,821,821,821,821,821,821,821,821,821,821,821,821,821,821,821,821,821,821,821,821,821,821,820,820,820,820,820,820,820,820,820,820,820,820,820,820,820,820,820,820,820,820,820,820,820,820,820,820,820,820,820,820,820,820,771,696,590,539,462,419,380,350,332,323,313,309,306,306,306,323,335,344,349,353,355,358,365,374,387,392,396,401,406,413,423,427],"ymouse":[529,529,529,529,529,529,529,529,529,529,529,529,529,529,529,529,529,529,529,529,529,529,529,529,529,529,529,529,529,529,529,529,529,529,529,529,529,529,528,528,528,528,528,528,528,528,528,528,528,528,528,528,528,528,528,528,528,528,528,528,528,528,528,528,528,528,528,528,528,526,484,441,396,373,328,300,272,246,226,210,176,156,125,106,89,59,52,49,47,47,48,51,61,68,77,77,77,77,77,74,70,68],"timestamp_mouse":[14,49,63,82,102,122,142,162,183,203,223,242,262,283,303,322,344,363,383,403,423,444,464,483,502,522,542,562,582,603,624,642,663,682,702,722,743,763,783,802,823,843,863,884,902,922,943,963,983,1007,1022,1043,1063,1082,1102,1122,1143,1164,1184,1202,1223,1244,1263,1283,1302,1324,1343,1364,1384,1403,1423,1443,1463,1484,1502,1522,1544,1564,1583,1602,1622,1644,1662,1684,1702,1722,1742,1762,1783,1802,1822,1842,1862,1883,1902,1922,1943,1963,1982,2002,2022,2042],"xSR":741.5,"ySR":469.95,"xT1":424.9,"yT1":0,"xT2":1058.1,"yT2":0,"toosoon":0,"cond_shown":"Incongruent","ratio_trial":100,"L_num":13,"L_den":26,"R_num":12,"R_den":20,"correct_side":2,"subjID":"Simon Cabrera ","gender":"0","school":"6","age":"10"},{"start_time":1551901239622,"click_time":1551901241093,"finger_time":1551901240494,"fix_duration":1226.301566150596,"trial":46,"RT":872,"MT":599,"sideResp":1,"stimulus":[],"xmouse":[824,824,824,824,824,824,824,824,824,824,824,824,824,824,824,824,824,824,824,824,824,824,824,824,824,824,824,824,824,824,824,824,824,824,824,824,824,824,824,824,820,802,765,753,744,744,741,740,739,739,739,739,739,739,739,739,739,733,716,675,643,610,570,560,553,548,546,545,544,540,536,531,524],"ymouse":[534,534,534,534,534,534,534,534,534,534,534,534,534,534,534,534,534,534,534,534,534,534,534,534,534,534,534,534,534,534,534,534,534,534,534,534,534,534,534,534,527,496,443,429,417,417,410,409,408,408,408,408,408,408,408,408,408,394,363,291,245,196,131,112,98,89,85,83,82,76,69,62,54],"timestamp_mouse":[14,31,73,91,111,131,152,171,191,212,231,251,271,292,312,332,351,371,392,412,432,451,471,492,512,531,551,572,591,612,631,651,672,692,712,732,751,771,792,811,832,852,872,896,918,931,952,971,991,1011,1031,1051,1072,1091,1112,1132,1152,1172,1191,1211,1233,1251,1271,1291,1311,1332,1351,1371,1391,1412,1432,1453,1471],"xSR":741.5,"ySR":469.95,"xT1":424.9,"yT1":0,"xT2":1058.1,"yT2":0,"toosoon":0,"cond_shown":"Incongruent","ratio_trial":200,"L_num":7,"L_den":10,"R_num":12,"R_den":24,"correct_side":1,"subjID":"Simon Cabrera ","gender":"0","school":"6","age":"10"},{"start_time":1551901242925,"click_time":1551901244754,"finger_time":1551901244294,"fix_duration":1029.8959239718558,"trial":47,"RT":1369,"MT":460,"sideResp":1,"stimulus":[],"xmouse":[785,785,785,785,785,785,785,785,785,785,785,785,785,785,785,785,785,785,785,785,785,785,785,785,785,785,785,785,785,785,785,785,785,785,785,785,785,785,785,785,785,784,783,783,783,783,783,783,783,782,782,782,782,782,782,782,782,782,782,782,782,782,782,782,782,781,779,738,707,651,651,615,606,606,606,605,591,579,576,571,564,554,528,517,512,511,511,510,509,508,505],"ymouse":[537,537,537,537,537,537,537,537,537,537,537,537,537,537,537,537,537,537,537,537,537,537,537,537,537,537,537,537,537,537,537,537,537,537,537,537,537,537,537,537,537,538,538,538,538,538,538,538,538,538,538,538,538,538,538,538,538,538,538,538,538,538,538,538,538,538,538,470,426,356,356,313,296,293,284,280,261,243,239,234,220,202,160,141,132,126,122,119,110,101,87],"timestamp_mouse":[14,51,69,89,108,130,150,170,188,208,228,250,269,290,309,329,348,369,388,408,428,448,469,488,508,529,549,569,589,608,628,649,669,689,709,728,749,769,789,808,828,848,869,889,908,928,948,969,988,1009,1029,1050,1069,1090,1109,1129,1149,1169,1188,1208,1228,1249,1269,1289,1309,1329,1350,1369,1393,1415,1429,1449,1468,1490,1509,1529,1549,1568,1589,1609,1631,1649,1669,1689,1709,1730,1748,1769,1788,1808,1828],"xSR":741.5,"ySR":469.95,"xT1":424.9,"yT1":0,"xT2":1058.1,"yT2":0,"toosoon":0,"cond_shown":"Congruent","ratio_trial":100,"L_num":8,"L_den":16,"R_num":2,"R_den":5,"correct_side":1,"subjID":"Simon Cabrera ","gender":"0","school":"6","age":"10"},{"start_time":1551901245625,"click_time":1551901248973,"finger_time":1551901247114,"fix_duration":250,"trial":48,"RT":1489,"MT":1859,"sideResp":2,"stimulus":[],"xmouse":[810,810,810,810,810,810,810,810,810,810,810,810,810,810,810,810,810,810,810,810,810,810,810,810,810,810,810,810,810,810,810,810,810,810,810,810,810,810,810,810,810,810,810,810,810,810,810,810,810,810,810,810,810,810,810,810,810,810,810,810,810,810,810,810,810,810,810,810,809,809,809,809,809,812,860,900,956,966,977,990,992,994,999,1007,1012,1018,1021,1024,1028,1035,1038,1041,1041,1042,1044,1045,1046,1047,1050,1051,1051,1052,1052,1052,1052,1052,1052,1052,1052,1052,1052,1052,1052,1052,1052,1052,1052,1052,1052,1053,1054,1055,1055,1055,1055,1055,1055,1055,1057,1057,1057,1057,1057,1057,1057,1057,1057,1057,1057,1057,1057,1057,1057,1057,1057,1057,1057,1057,1057,1058,1058,1058,1058,1058,1058,1058,1058,1058,1058,1058,1058,1058,1058,1058,1058,1058,1058,1059],"ymouse":[532,532,532,532,532,532,532,532,532,532,532,532,532,532,532,532,532,532,532,532,532,532,532,532,532,532,532,532,532,532,532,532,532,532,532,532,532,532,532,532,532,532,532,532,532,532,532,532,532,532,532,532,532,532,532,532,532,532,532,532,532,532,532,532,532,532,532,532,532,532,532,532,532,530,462,414,353,341,321,289,278,261,237,198,179,163,150,141,133,123,121,119,118,118,117,117,116,115,112,111,110,109,109,109,109,109,109,109,109,109,109,109,109,109,109,109,109,109,109,106,104,102,102,101,101,101,101,101,98,97,97,97,97,97,97,97,97,97,97,97,97,96,96,96,96,96,96,96,96,95,95,95,95,95,95,95,95,95,95,95,95,95,95,95,95,95,95,93],"timestamp_mouse":[18,46,48,69,88,110,130,148,170,189,208,228,248,269,289,308,329,349,370,389,409,428,448,470,489,510,528,548,568,589,610,628,648,669,688,709,730,749,768,788,810,830,849,868,888,909,929,949,970,988,1008,1028,1048,1069,1088,1110,1129,1149,1168,1188,1209,1229,1249,1269,1289,1309,1328,1348,1370,1389,1409,1430,1449,1469,1489,1510,1531,1549,1569,1588,1609,1629,1648,1668,1688,1709,1729,1749,1769,1790,1809,1829,1849,1868,1888,1909,1929,1948,1969,1989,2009,2029,2049,2069,2088,2108,2128,2149,2169,2188,2208,2228,2249,2269,2290,2309,2329,2350,2370,2389,2409,2429,2449,2469,2490,2510,2531,2548,2569,2590,2609,2628,2649,2668,2688,2708,2728,2748,2768,2789,2808,2830,2849,2869,2888,2908,2928,2948,2968,2988,3009,3028,3048,3068,3088,3108,3130,3149,3169,3189,3210,3230,3249,3269,3288,3308,3330,3348],"xSR":741.5,"ySR":469.95,"xT1":424.9,"yT1":0,"xT2":1058.1,"yT2":0,"toosoon":0,"cond_shown":"Incongruent","ratio_trial":100,"L_num":8,"L_den":16,"R_num":6,"R_den":10,"correct_side":2,"subjID":"Simon Cabrera ","gender":"0","school":"6","age":"10"},{"start_time":1551901252472,"click_time":1551901253974,"finger_time":1551901252854,"fix_duration":538.0577734615132,"trial":49,"RT":382,"MT":1120,"sideResp":1,"stimulus":[],"xmouse":[792,792,792,792,792,792,792,792,792,792,792,792,792,792,792,792,789,776,759,737,711,698,697,697,697,697,697,697,697,697,697,697,697,697,697,697,697,697,697,697,697,697,697,697,697,697,691,677,657,641,608,579,576,574,571,569,566,565,563,560,559,556,549,538,522,511,506,506,505,505,505,503,502,502,500,499],"ymouse":[544,544,541,539,539,537,537,537,537,537,537,537,537,537,537,537,531,506,478,441,403,390,389,389,389,389,389,389,389,389,389,389,389,389,389,389,389,389,389,389,389,389,389,389,389,389,388,371,342,319,260,194,184,176,167,162,152,148,144,142,141,141,141,138,133,128,126,126,126,126,125,121,118,113,106,99],"timestamp_mouse":[12,21,42,61,82,102,131,143,162,182,202,222,241,261,281,302,323,343,362,382,401,422,444,462,482,502,522,541,562,581,601,623,642,662,682,702,721,741,761,781,801,823,842,862,882,902,922,941,962,982,1002,1023,1041,1061,1083,1103,1121,1141,1161,1182,1201,1221,1241,1261,1282,1301,1323,1341,1361,1381,1402,1421,1443,1462,1482,1502],"xSR":741.5,"ySR":469.95,"xT1":424.9,"yT1":0,"xT2":1058.1,"yT2":0,"toosoon":0,"cond_shown":"Incongruent","ratio_trial":200,"L_num":3,"L_den":10,"R_num":1,"R_den":2,"correct_side":2,"subjID":"Simon Cabrera ","gender":"0","school":"6","age":"10"},{"start_time":1551901255899,"click_time":1551901257593,"finger_time":1551901257394,"fix_duration":863.3540315174394,"trial":50,"RT":1495,"MT":199,"sideResp":2,"stimulus":[],"xmouse":[775,775,775,775,775,775,775,775,775,775,775,775,775,775,775,775,775,775,775,775,775,775,775,775,775,775,775,775,775,775,775,775,775,775,775,775,775,775,775,775,775,775,775,775,775,775,775,775,775,775,775,775,775,775,775,775,775,775,775,775,775,775,775,775,775,775,775,775,775,775,775,775,781,798,822,893,893,993,1056,1083,1089,1097,1103,1110],"ymouse":[503,503,503,503,503,503,503,503,503,503,503,503,503,503,503,503,503,503,503,503,503,503,503,503,503,503,503,503,503,503,503,503,503,503,503,503,503,503,503,503,503,503,503,503,503,503,503,503,503,503,503,503,503,503,503,503,503,503,503,503,503,503,503,503,503,503,503,503,503,503,503,503,499,462,422,353,353,286,230,188,168,146,125,97],"timestamp_mouse":[15,60,74,94,115,135,154,175,195,216,235,255,274,295,316,334,355,374,395,415,434,454,474,496,514,534,555,575,594,615,635,655,674,694,714,735,755,775,795,815,835,854,874,895,914,934,954,974,995,1014,1036,1055,1074,1094,1114,1135,1156,1174,1194,1214,1234,1254,1275,1295,1314,1335,1356,1375,1394,1414,1435,1454,1474,1495,1519,1539,1555,1575,1595,1618,1634,1655,1676,1694],"xSR":741.5,"ySR":469.95,"xT1":424.9,"yT1":0,"xT2":1058.1,"yT2":0,"toosoon":0,"cond_shown":"Incongruent","ratio_trial":100,"L_num":9,"L_den":15,"R_num":13,"R_den":26,"correct_side":1,"subjID":"Simon Cabrera ","gender":"0","school":"6","age":"10"},{"start_time":1551901259994,"click_time":1551901260773,"finger_time":1551901260134,"fix_duration":1317.9867549713967,"trial":51,"RT":140,"MT":639,"sideResp":1,"stimulus":[],"xmouse":[794,794,794,794,794,793,779,739,679,617,489,431,373,326,315,303,294,280,269,262,257,257,257,257,257,279,298,318,332,341,351,356,365,380,402,416,420,421,424,429],"ymouse":[513,513,513,513,513,513,506,488,460,433,369,327,286,252,244,222,200,174,153,140,130,128,128,127,127,109,100,91,85,83,80,79,76,72,63,57,56,54,54,51],"timestamp_mouse":[15,21,56,60,80,99,120,140,161,180,200,220,241,259,280,300,320,340,360,381,399,419,439,460,479,500,519,539,560,579,601,621,639,659,679,700,721,740,759,779],"xSR":741.5,"ySR":469.95,"xT1":424.9,"yT1":0,"xT2":1058.1,"yT2":0,"toosoon":0,"cond_shown":"Congruent","ratio_trial":100,"L_num":11,"L_den":22,"R_num":6,"R_den":15,"correct_side":1,"subjID":"Simon Cabrera ","gender":"0","school":"6","age":"10"},{"start_time":1551901262883,"click_time":1551901264054,"finger_time":1551901263133,"fix_duration":1366.393376040739,"trial":52,"RT":250,"MT":921,"sideResp":1,"stimulus":[],"xmouse":[819,819,819,819,819,819,819,819,819,819,819,819,817,815,811,807,804,800,799,799,799,799,799,799,799,799,799,799,799,799,799,799,799,799,802,815,820,825,830,834,837,837,837,837,837,828,815,793,769,731,701,691,682,671,657,617,590,553,507],"ymouse":[486,486,486,486,486,486,486,483,482,481,479,476,464,447,412,375,349,328,316,314,314,314,314,314,314,314,314,314,314,314,314,314,314,301,283,241,224,209,198,188,178,178,178,178,176,167,156,136,114,85,69,67,64,61,56,48,40,29,18],"timestamp_mouse":[14,40,50,70,90,110,130,151,170,191,210,231,250,270,290,311,331,351,371,391,410,430,451,470,490,510,530,550,570,590,610,631,650,670,690,710,730,750,770,790,811,830,851,871,891,911,931,952,971,991,1014,1031,1051,1071,1090,1111,1130,1151,1170],"xSR":741.5,"ySR":469.95,"xT1":424.9,"yT1":0,"xT2":1058.1,"yT2":0,"toosoon":0,"cond_shown":"Congruent","ratio_trial":200,"L_num":3,"L_den":6,"R_num":14,"R_den":20,"correct_side":2,"subjID":"Simon Cabrera ","gender":"0","school":"6","age":"10"},{"start_time":1551901266210,"click_time":1551901267514,"finger_time":1551901266693,"fix_duration":1035.0039704747696,"trial":53,"RT":483,"MT":821,"sideResp":2,"stimulus":[],"xmouse":[841,841,841,841,841,841,841,841,841,841,841,841,841,841,841,841,841,841,841,841,841,841,841,846,848,851,855,865,874,885,898,914,935,966,989,1025,1076,1120,1190,1216,1234,1256,1277,1354,1383,1409,1433,1451,1488,1529,1578,1578,1578,1578,1578,1578,1578,1578,1578,1569,1516,1436,1293,1175,1150],"ymouse":[525,525,525,525,525,525,525,525,525,525,525,525,525,525,525,525,525,525,525,525,525,522,509,463,451,433,409,378,351,330,306,280,246,209,184,158,129,106,76,66,58,52,45,31,31,31,35,41,67,98,142,142,142,142,142,142,142,142,142,272,244,194,123,64,55],"timestamp_mouse":[13,54,64,84,104,124,143,164,184,204,223,244,264,283,303,324,344,363,384,403,424,444,463,483,508,529,545,568,583,603,623,643,663,684,705,724,743,764,784,803,824,843,864,884,904,923,943,964,984,1003,1024,1044,1064,1084,1104,1124,1145,1165,1183,1203,1224,1243,1263,1284,1304],"xSR":741.5,"ySR":469.95,"xT1":424.9,"yT1":0,"xT2":1058.1,"yT2":0,"toosoon":0,"cond_shown":"Congruent","ratio_trial":100,"L_num":4,"L_den":10,"R_num":15,"R_den":30,"correct_side":2,"subjID":"Simon Cabrera ","gender":"0","school":"6","age":"10"},{"start_time":1551901269610,"click_time":1551901271554,"finger_time":15