[{"start_time":1551901688408,"click_time":1551901690774,"finger_time":1551901689594,"fix_duration":869.4596373181344,"trial":0,"RT":1186,"MT":1180,"sideResp":2,"stimulus":"img/900/equaldotanddens/R/15_Ratio_900_L_9_R_10.png","xmouse":[772,772,772,772,772,772,772,772,772,772,772,772,772,772,772,772,772,772,772,772,772,772,772,772,772,772,772,772,772,772,772,772,772,772,772,772,772,772,772,772,772,772,772,772,772,772,772,772,772,772,772,772,772,772,772,772,772,772,775,781,784,784,762,722,709,701,698,689,683,678,672,663,653,650,649,649,650,697,765,884,1012,1184,1266,1269,1269,1269,1269,1269,1269,1269,1269,1269,1253,1205,1195,1193,1193,1193,1193,1193,1192,1190,1182,1181,1181,1180,1180,1180,1180,1180,1179,1174,1169,1165,1164,1160,1156,1149],"ymouse":[478,478,478,478,478,478,478,478,478,478,478,478,478,478,478,478,478,478,478,478,478,478,478,478,478,478,478,478,478,478,478,478,478,478,478,478,478,478,478,478,478,478,478,478,478,478,478,478,478,478,478,478,478,478,478,478,478,478,458,416,299,299,226,173,156,142,138,124,119,117,117,117,120,121,121,121,121,121,131,147,166,192,217,218,218,218,218,218,218,218,218,218,202,167,161,160,160,160,160,160,160,157,150,148,148,148,148,147,147,147,145,134,123,116,113,108,103,94],"timestamp_mouse":[10,55,67,88,106,126,146,166,186,206,226,248,266,286,307,326,346,366,387,407,426,446,467,487,507,526,546,566,586,607,627,647,666,687,707,727,746,766,786,806,826,846,866,887,908,928,946,966,986,1006,1026,1046,1066,1087,1107,1126,1146,1166,1186,1208,1229,1247,1266,1287,1307,1326,1346,1366,1387,1407,1427,1446,1466,1486,1506,1527,1546,1566,1589,1607,1627,1646,1666,1686,1706,1726,1746,1766,1786,1806,1826,1847,1866,1887,1909,1929,1946,1968,1986,2006,2026,2047,2067,2086,2106,2127,2147,2166,2186,2206,2226,2246,2267,2287,2307,2326,2346,2366],"xSR":741.5,"ySR":469.95,"xT1":424.9,"yT1":0,"xT2":1058.1,"yT2":0,"toosoon":0,"cond_shown":"equaldotanddens","ratio_trial":900,"smaller_num":"9","larger_num":"10","correct_side":2,"subjID":"Simon Cabrera","gender":"0","age":"10","school":"6","test":{"fix_dur":[250,1500],"timestim":300,"targets_dim":[100,100],"targets_relative_coord":[0.3,0.7],"size_stim":[880,420],"start_dim":[100,100],"size_start":[300,300],"size_fix":60,"samplingrate":20,"img_types":["equaldotsize","equaldotanddens","randomdotsizeEA"],"ratios":[250,500,750,900],"rep_conds":9,"nTrials":120,"trials_to_rest":500,"Trials_order":[22,64,15,21,36,2,17,68,117,19,27,82,14,43,91,44,81,25,55,35,29,60,99,5,71,89,78,13,37,105,8,33,75,7,12,114,63,72,31,59,95,6,87,84,42,109,74,90,104,49,93,50,107,9,56,113,92,26,73,52,83,18,97,34,20,58,112,77,118,111,88,66,106,102,103,76,40,47,45,38,80,61,70,85,108,115,4,94,79,57,98,41,16,28,65,62,3,86,116,67,24,96,23,30,48,11,0,32,53,110,51,10,101,69,54,100,1,39,119,46],"cond_shown":["equaldotanddens","equaldotanddens","equaldotsize","equaldotsize","equaldotsize","randomdotsizeEA","randomdotsizeEA","randomdotsizeEA","equaldotsize","equaldotanddens","equaldotsize","equaldotanddens","randomdotsizeEA","equaldotanddens","equaldotanddens","randomdotsizeEA","equaldotsize","equaldotanddens","equaldotanddens","randomdotsizeEA","randomdotsizeEA","equaldotsize","equaldotsize","randomdotsizeEA","randomdotsizeEA","randomdotsizeEA","equaldotsize","equaldotanddens","equaldotanddens","equaldotsize","randomdotsizeEA","equaldotsize","equaldotsize","equaldotanddens","equaldotsize","equaldotsize","equaldotsize","equaldotsize","equaldotanddens","randomdotsizeEA","randomdotsizeEA","equaldotsize","equaldotsize","equaldotsize","equaldotsize","equaldotanddens","randomdotsizeEA","equaldotsize","randomdotsizeEA","equaldotanddens","equaldotsize","randomdotsizeEA","randomdotsizeEA","equaldotsize","randomdotsizeEA","randomdotsizeEA","randomdotsizeEA","randomdotsizeEA","equaldotanddens","equaldotanddens","randomdotsizeEA","equaldotsize","equaldotanddens","equaldotanddens","randomdotsizeEA","equaldotanddens","equaldotanddens","randomdotsizeEA","equaldotanddens","equaldotsize","equaldotanddens","equaldotsize","equaldotanddens","equaldotsize","equaldotanddens","equaldotanddens","equaldotanddens","randomdotsizeEA","equaldotsize","randomdotsizeEA","randomdotsizeEA","equaldotanddens","equaldotanddens","equaldotanddens","equaldotsize","equaldotanddens","equaldotanddens","equaldotanddens","equaldotanddens","equaldotsize","randomdotsizeEA","randomdotsizeEA","equaldotanddens","equaldotanddens","randomdotsizeEA","randomdotsizeEA","equaldotsize","randomdotsizeEA","randomdotsizeEA","equaldotanddens","equaldotsize","equaldotsize","randomdotsizeEA","equaldotsize","equaldotsize","randomdotsizeEA","equaldotsize","randomdotsizeEA","randomdotsizeEA","randomdotsizeEA","equaldotsize","equaldotanddens","randomdotsizeEA","equaldotsize","equaldotsize","equaldotanddens","equaldotanddens","equaldotsize","randomdotsizeEA","equaldotanddens"],"ratio_trial":[900,500,500,900,250,250,500,750,900,750,500,900,250,750,750,750,900,250,750,900,500,250,500,500,900,500,750,250,250,900,750,900,500,750,250,750,500,250,750,900,900,750,500,250,750,250,250,750,750,250,900,250,900,900,750,500,750,250,250,500,900,750,250,900,750,900,500,500,900,500,500,750,900,750,750,500,500,900,900,250,750,250,900,250,250,750,500,900,750,900,250,500,500,500,500,250,500,250,750,750,250,250,900,750,250,900,250,750,500,250,500,900,500,900,750,500,250,500,900,900],"smaller_num":["9","2","2","9","3","3","10","3","18","15","9","9","5","12","3","6","18","3","3","9","5","6","9","9","18","2","9","3","6","9","3","18","1","6","2","3","1","1","15","18","18","6","2","3","15","3","2","12","18","3","18","2","9","18","12","1","9","3","3","1","9","3","4","18","9","18","6","10","18","1","2","3","18","3","3","9","6","9","9","2","3","2","18","4","2","3","2","18","3","9","5","2","6","5","2","5","2","4","15","6","2","4","18","15","4","9","3","6","2","3","2","9","5","18","3","3","1","6","18","9"],"larger_num":["10","4","4","10","12","12","20","4","20","20","18","10","20","16","4","8","20","12","4","10","10","24","18","18","20","4","12","12","24","10","4","20","2","8","8","4","2","4","20","20","20","8","4","12","20","12","8","16","24","12","20","8","10","20","16","2","12","12","12","2","10","4","16","20","12","20","12","20","20","2","4","4","20","4","4","18","12","10","10","8","4","8","20","16","8","4","4","20","4","10","20","4","12","10","4","20","4","16","20","8","8","16","20","20","16","10","12","8","4","12","4","10","10","20","4","6","4","12","20","10"],"correct_side":[2,1,1,1,1,2,2,2,1,1,2,2,2,2,2,1,2,1,1,2,2,2,2,1,1,1,2,2,1,1,1,2,2,1,1,2,2,2,2,1,2,1,1,1,2,1,1,2,1,1,1,2,1,1,2,2,2,2,2,2,2,2,1,2,2,1,1,2,1,2,2,2,1,1,1,2,1,1,2,1,2,1,1,2,1,1,2,1,1,2,2,1,1,1,1,2,1,1,2,1,1,2,2,1,1,2,1,1,2,2,1,1,2,1,1,2,2,1,1,2],"img_shown":["img/900/equaldotanddens/R/15_Ratio_900_L_9_R_10.png","img/500/equaldotanddens/L/5_Ratio_500_L_4_R_2.png","img/500/equaldotsize/L/10_Ratio_500_L_4_R_2.png","img/900/equaldotsize/L/1_Ratio_900_L_10_R_9.png","img/250/equaldotsize/L/14_Ratio_250_L_12_R_3.png","img/250/randomdotsizeEA/R/9_Ratio_250_L_3_R_12.png","img/500/randomdotsizeEA/R/3_Ratio_500_L_10_R_20.png","img/750/randomdotsizeEA/R/7_Ratio_750_L_3_R_4.png","img/900/equaldotsize/L/4_Ratio_900_L_20_R_18.png","img/750/equaldotanddens/L/1_Ratio_750_L_20_R_15.png","img/500/equaldotsize/R/1_Ratio_500_L_9_R_18.png","img/900/equaldotanddens/R/15_Ratio_900_L_9_R_10.png","img/250/randomdotsizeEA/R/12_Ratio_250_L_5_R_20.png","img/750/equaldotanddens/R/11_Ratio_750_L_12_R_16.png","img/750/equaldotanddens/R/12_Ratio_750_L_3_R_4.png","img/750/randomdotsizeEA/L/14_Ratio_750_L_8_R_6.png","img/900/equaldotsize/R/11_Ratio_900_L_18_R_20.png","img/250/equaldotanddens/L/15_Ratio_250_L_12_R_3.png","img/750/equaldotanddens/L/9_Ratio_750_L_4_R_3.png","img/900/randomdotsizeEA/R/5_Ratio_900_L_9_R_10.png","img/500/randomdotsizeEA/R/14_Ratio_500_L_5_R_10.png","img/250/equaldotsize/R/6_Ratio_250_L_6_R_24.png","img/500/equaldotsize/R/1_Ratio_500_L_9_R_18.png","img/500/randomdotsizeEA/L/4_Ratio_500_L_18_R_9.png","img/900/randomdotsizeEA/L/10_Ratio_900_L_20_R_18.png","img/500/randomdotsizeEA/L/10_Ratio_500_L_4_R_2.png","img/750/equaldotsize/R/15_Ratio_750_L_9_R_12.png","img/250/equaldotanddens/R/4_Ratio_250_L_3_R_12.png","img/250/equaldotanddens/L/5_Ratio_250_L_24_R_6.png","img/900/equaldotsize/L/1_Ratio_900_L_10_R_9.png","img/750/randomdotsizeEA/L/10_Ratio_750_L_4_R_3.png","img/900/equaldotsize/R/13_Ratio_900_L_18_R_20.png","img/500/equaldotsize/R/12_Ratio_500_L_1_R_2.png","img/750/equaldotanddens/L/14_Ratio_750_L_8_R_6.png","img/250/equaldotsize/L/3_Ratio_250_L_8_R_2.png","img/750/equaldotsize/R/12_Ratio_750_L_3_R_4.png","img/500/equaldotsize/R/12_Ratio_500_L_1_R_2.png","img/250/equaldotsize/R/8_Ratio_250_L_1_R_4.png","img/750/equaldotanddens/R/5_Ratio_750_L_15_R_20.png","img/900/randomdotsizeEA/L/8_Ratio_900_L_20_R_18.png","img/900/randomdotsizeEA/R/9_Ratio_900_L_18_R_20.png","img/750/equaldotsize/L/14_Ratio_750_L_8_R_6.png","img/500/equaldotsize/L/5_Ratio_500_L_4_R_2.png","img/250/equaldotsize/L/14_Ratio_250_L_12_R_3.png","img/750/equaldotsize/R/4_Ratio_750_L_15_R_20.png","img/250/equaldotanddens/L/14_Ratio_250_L_12_R_3.png","img/250/randomdotsizeEA/L/7_Ratio_250_L_8_R_2.png","img/750/equaldotsize/R/11_Ratio_750_L_12_R_16.png","img/750/randomdotsizeEA/L/6_Ratio_750_L_24_R_18.png","img/250/equaldotanddens/L/14_Ratio_250_L_12_R_3.png","img/900/equaldotsize/L/8_Ratio_900_L_20_R_18.png","img/250/randomdotsizeEA/R/13_Ratio_250_L_2_R_8.png","img/900/randomdotsizeEA/L/1_Ratio_900_L_10_R_9.png","img/900/equaldotsize/L/2_Ratio_900_L_20_R_18.png","img/750/randomdotsizeEA/R/11_Ratio_750_L_12_R_16.png","img/500/randomdotsizeEA/R/15_Ratio_500_L_1_R_2.png","img/750/randomdotsizeEA/R/15_Ratio_750_L_9_R_12.png","img/250/randomdotsizeEA/R/11_Ratio_250_L_3_R_12.png","img/250/equaldotanddens/R/9_Ratio_250_L_3_R_12.png","img/500/equaldotanddens/R/15_Ratio_500_L_1_R_2.png","img/900/randomdotsizeEA/R/3_Ratio_900_L_9_R_10.png","img/750/equaldotsize/R/12_Ratio_750_L_3_R_4.png","img/250/equaldotanddens/L/2_Ratio_250_L_16_R_4.png","img/900/equaldotanddens/R/9_Ratio_900_L_18_R_20.png","img/750/randomdotsizeEA/R/15_Ratio_750_L_9_R_12.png","img/900/equaldotanddens/L/10_Ratio_900_L_20_R_18.png","img/500/equaldotanddens/L/11_Ratio_500_L_12_R_6.png","img/500/randomdotsizeEA/R/3_Ratio_500_L_10_R_20.png","img/900/equaldotanddens/L/4_Ratio_900_L_20_R_18.png","img/500/equaldotsize/R/15_Ratio_500_L_1_R_2.png","img/500/equaldotanddens/R/9_Ratio_500_L_2_R_4.png","img/750/equaldotsize/R/7_Ratio_750_L_3_R_4.png","img/900/equaldotanddens/L/10_Ratio_900_L_20_R_18.png","img/750/equaldotsize/L/10_Ratio_750_L_4_R_3.png","img/750/equaldotanddens/L/8_Ratio_750_L_4_R_3.png","img/500/equaldotanddens/R/6_Ratio_500_L_9_R_18.png","img/500/equaldotanddens/L/11_Ratio_500_L_12_R_6.png","img/900/randomdotsizeEA/L/1_Ratio_900_L_10_R_9.png","img/900/equaldotsize/R/7_Ratio_900_L_9_R_10.png","img/250/randomdotsizeEA/L/3_Ratio_250_L_8_R_2.png","img/750/randomdotsizeEA/R/12_Ratio_750_L_3_R_4.png","img/250/equaldotanddens/L/3_Ratio_250_L_8_R_2.png","img/900/equaldotanddens/L/10_Ratio_900_L_20_R_18.png","img/250/equaldotanddens/R/10_Ratio_250_L_4_R_16.png","img/250/equaldotsize/L/1_Ratio_250_L_8_R_2.png","img/750/equaldotanddens/L/8_Ratio_750_L_4_R_3.png","img/500/equaldotanddens/R/9_Ratio_500_L_2_R_4.png","img/900/equaldotanddens/L/4_Ratio_900_L_20_R_18.png","img/750/equaldotanddens/L/9_Ratio_750_L_4_R_3.png","img/900/equaldotsize/R/5_Ratio_900_L_9_R_10.png","img/250/randomdotsizeEA/R/12_Ratio_250_L_5_R_20.png","img/500/randomdotsizeEA/L/5_Ratio_500_L_4_R_2.png","img/500/equaldotanddens/L/13_Ratio_500_L_12_R_6.png","img/500/equaldotanddens/L/7_Ratio_500_L_10_R_5.png","img/500/randomdotsizeEA/L/10_Ratio_500_L_4_R_2.png","img/250/randomdotsizeEA/R/12_Ratio_250_L_5_R_20.png","img/500/equaldotsize/L/5_Ratio_500_L_4_R_2.png","img/250/randomdotsizeEA/L/2_Ratio_250_L_16_R_4.png","img/750/randomdotsizeEA/R/5_Ratio_750_L_15_R_20.png","img/750/equaldotanddens/L/14_Ratio_750_L_8_R_6.png","img/250/equaldotsize/L/7_Ratio_250_L_8_R_2.png","img/250/equaldotsize/R/10_Ratio_250_L_4_R_16.png","img/900/randomdotsizeEA/R/12_Ratio_900_L_18_R_20.png","img/750/equaldotsize/L/1_Ratio_750_L_20_R_15.png","img/250/equaldotsize/L/2_Ratio_250_L_16_R_4.png","img/900/randomdotsizeEA/R/7_Ratio_900_L_9_R_10.png","img/250/equaldotsize/L/15_Ratio_250_L_12_R_3.png","img/750/randomdotsizeEA/L/14_Ratio_750_L_8_R_6.png","img/500/randomdotsizeEA/R/9_Ratio_500_L_2_R_4.png","img/250/randomdotsizeEA/R/11_Ratio_250_L_3_R_12.png","img/500/equaldotsize/L/10_Ratio_500_L_4_R_2.png","img/900/equaldotanddens/L/1_Ratio_900_L_10_R_9.png","img/500/randomdotsizeEA/R/14_Ratio_500_L_5_R_10.png","img/900/equaldotsize/L/4_Ratio_900_L_20_R_18.png","img/750/equaldotsize/L/8_Ratio_750_L_4_R_3.png","img/500/equaldotanddens/R/2_Ratio_500_L_3_R_6.png","img/250/equaldotanddens/R/8_Ratio_250_L_1_R_4.png","img/500/equaldotsize/L/13_Ratio_500_L_12_R_6.png","img/900/randomdotsizeEA/L/10_Ratio_900_L_20_R_18.png","img/900/equaldotanddens/R/3_Ratio_900_L_9_R_10.png"],"Rat0":[["12_Ratio_0_L_9_R_0.png","13_Ratio_0_L_6_R_0.png","5_Ratio_0_L_2_R_0.png","6_Ratio_0_L_4_R_0.png","8_Ratio_0_L_6_R_0.png"],["1_Ratio_0_L_0_R_17.png","10_Ratio_0_L_0_R_22.png","11_Ratio_0_L_0_R_1.png","14_Ratio_0_L_0_R_24.png","15_Ratio_0_L_0_R_4.png","2_Ratio_0_L_0_R_5.png","3_Ratio_0_L_0_R_17.png","4_Ratio_0_L_0_R_7.png","7_Ratio_0_L_0_R_19.png","9_Ratio_0_L_0_R_15.png"]],"Rat250":[["1_Ratio_250_L_8_R_2.png","14_Ratio_250_L_12_R_3.png","15_Ratio_250_L_12_R_3.png","2_Ratio_250_L_16_R_4.png","3_Ratio_250_L_8_R_2.png","5_Ratio_250_L_24_R_6.png","7_Ratio_250_L_8_R_2.png"],["10_Ratio_250_L_4_R_16.png","11_Ratio_250_L_3_R_12.png","12_Ratio_250_L_5_R_20.png","13_Ratio_250_L_2_R_8.png","4_Ratio_250_L_3_R_12.png","6_Ratio_250_L_6_R_24.png","8_Ratio_250_L_1_R_4.png","9_Ratio_250_L_3_R_12.png"]],"Rat500":[["10_Ratio_500_L_4_R_2.png","11_Ratio_500_L_12_R_6.png","13_Ratio_500_L_12_R_6.png","4_Ratio_500_L_18_R_9.png","5_Ratio_500_L_4_R_2.png","7_Ratio_500_L_10_R_5.png","8_Ratio_500_L_8_R_4.png"],["1_Ratio_500_L_9_R_18.png","12_Ratio_500_L_1_R_2.png","14_Ratio_500_L_5_R_10.png","15_Ratio_500_L_1_R_2.png","2_Ratio_500_L_3_R_6.png","3_Ratio_500_L_10_R_20.png","6_Ratio_500_L_9_R_18.png","9_Ratio_500_L_2_R_4.png"]],"Rat750":[["1_Ratio_750_L_20_R_15.png","10_Ratio_750_L_4_R_3.png","13_Ratio_750_L_8_R_6.png","14_Ratio_750_L_8_R_6.png","6_Ratio_750_L_24_R_18.png","8_Ratio_750_L_4_R_3.png","9_Ratio_750_L_4_R_3.png"],["11_Ratio_750_L_12_R_16.png","12_Ratio_750_L_3_R_4.png","15_Ratio_750_L_9_R_12.png","2_Ratio_750_L_6_R_8.png","3_Ratio_750_L_15_R_20.png","4_Ratio_750_L_15_R_20.png","5_Ratio_750_L_15_R_20.png","7_Ratio_750_L_3_R_4.png"]],"Rat900":[["1_Ratio_900_L_10_R_9.png","10_Ratio_900_L_20_R_18.png","2_Ratio_900_L_20_R_18.png","4_Ratio_900_L_20_R_18.png","8_Ratio_900_L_20_R_18.png"],["11_Ratio_900_L_18_R_20.png","12_Ratio_900_L_18_R_20.png","13_Ratio_900_L_18_R_20.png","14_Ratio_900_L_18_R_20.png","15_Ratio_900_L_9_R_10.png","3_Ratio_900_L_9_R_10.png","5_Ratio_900_L_9_R_10.png","6_Ratio_900_L_9_R_10.png","7_Ratio_900_L_9_R_10.png","9_Ratio_900_L_18_R_20.png"]],"Rat1000":[["10_Ratio_1000_L_16_R_16.png","11_Ratio_1000_L_6_R_6.png","12_Ratio_1000_L_14_R_14.png","13_Ratio_1000_L_20_R_20.png","15_Ratio_1000_L_15_R_15.png","2_Ratio_1000_L_17_R_17.png","4_Ratio_1000_L_9_R_9.png","5_Ratio_1000_L_6_R_6.png","6_Ratio_1000_L_19_R_19.png","8_Ratio_1000_L_14_R_14.png","9_Ratio_1000_L_25_R_25.png"],["1_Ratio_1000_L_1_R_1.png","14_Ratio_1000_L_17_R_17.png","3_Ratio_1000_L_17_R_17.png","7_Ratio_1000_L_6_R_6.png"]]}},{"start_time":1551901693334,"click_time":1551901695254,"finger_time":1551901694174,"fix_duration":1398.3312109513392,"trial":1,"RT":840,"MT":1080,"sideResp":1,"stimulus":"img/500/equaldotanddens/L/5_Ratio_500_L_4_R_2.png","xmouse":[763,763,763,763,763,763,763,763,763,763,763,763,763,763,763,763,763,763,763,763,763,763,763,763,763,763,763,763,763,763,763,763,763,763,763,763,763,763,763,763,763,763,768,775,783,783,797,816,869,896,900,907,930,941,946,948,950,950,950,950,950,950,950,950,950,950,939,899,870,839,812,789,743,719,696,676,654,635,623,612,597,584,569,564,559,555,552,548,548,546,545,544,541,539,535,529,523],"ymouse":[485,485,485,485,485,485,485,485,485,485,485,485,485,485,485,485,485,485,485,485,485,485,485,485,485,485,485,485,485,485,485,485,485,485,485,485,485,485,485,485,485,485,466,444,419,419,390,348,241,202,195,185,158,147,143,141,139,139,139,139,139,139,139,139,139,139,141,154,161,163,163,159,143,136,126,117,108,102,99,96,92,90,87,85,84,83,82,81,81,81,80,79,79,78,77,75,75],"timestamp_mouse":[5,20,40,60,81,101,120,140,161,180,201,220,240,260,280,300,321,340,360,380,401,421,440,461,480,501,520,541,561,581,600,621,640,660,681,701,720,740,760,780,800,820,840,864,887,900,921,940,966,989,1005,1020,1040,1061,1080,1101,1121,1141,1161,1180,1200,1222,1241,1262,1281,1301,1320,1340,1360,1381,1400,1420,1441,1461,1480,1500,1520,1540,1560,1580,1600,1620,1640,1660,1680,1700,1720,1741,1762,1780,1800,1820,1840,1862,1880,1900,1920],"xSR":741.5,"ySR":469.95,"xT1":424.9,"yT1":0,"xT2":1058.1,"yT2":0,"toosoon":0,"cond_shown":"equaldotanddens","ratio_trial":500,"smaller_num":"2","larger_num":"4","correct_side":1,"subjID":"Simon Cabrera","gender":"0","age":"10","school":"6"},{"start_time":1551901706225,"click_time":1551901710874,"finger_time":1551901709935,"fix_duration":250,"trial":2,"RT":3710,"MT":939,"sideResp":1,"stimulus":"img/500/equaldotsize/L/10_Ratio_500_L_4_R_2.png","xmouse":[805,805,805,805,805,805,805,805,805,805,805,805,805,805,805,805,805,805,805,805,805,805,805,805,805,805,805,805,805,805,805,805,805,805,805,805,805,805,805,805,805,805,805,805,805,805,805,805,805,805,805,805,805,805,805,805,805,805,805,805,805,805,805,805,805,805,805,805,805,805,805,805,805,805,805,805,805,805,805,805,805,805,805,805,805,805,805,805,805,805,805,805,805,805,805,805,805,805,805,805,805,805,805,805,805,805,805,805,805,805,805,805,805,805,805,805,805,805,805,805,805,805,805,805,805,805,805,805,805,805,805,805,805,805,805,805,805,805,805,805,805,805,805,805,805,805,805,805,805,805,805,805,805,805,805,805,805,805,805,805,805,805,805,805,805,805,805,805,805,805,805,805,805,805,805,805,805,805,805,805,805,805,805,805,805,784,728,520,434,361,312,289,279,267,246,234,234,226,225,225,225,226,254,282,312,334,348,359,362,366,370,374,383,393,400,404,408,413,417,426,434,444,455,465,474,480,483,484,484,484,484,484,487],"ymouse":[477,477,477,477,477,477,477,477,477,477,477,477,477,477,477,477,477,477,477,477,477,477,477,477,477,477,477,477,477,477,477,477,477,477,477,477,477,477,477,477,477,477,477,477,477,477,477,477,477,477,477,477,477,477,477,477,477,477,477,477,477,477,477,477,477,477,477,477,477,477,477,477,477,477,477,477,477,477,477,477,477,477,477,477,477,477,477,477,477,477,477,477,477,477,477,477,477,477,477,477,477,477,477,477,477,477,477,477,477,477,477,477,477,477,477,477,477,477,477,477,477,477,477,477,477,477,477,477,477,477,477,477,477,477,477,477,477,477,477,477,477,477,477,477,477,477,477,477,477,477,477,477,477,477,477,477,477,477,477,477,477,477,477,477,477,477,477,477,477,477,477,477,477,477,477,477,477,477,477,477,477,477,477,477,477,463,427,334,311,301,289,277,269,262,253,247,247,236,233,233,233,229,221,213,204,197,189,182,180,177,176,175,174,171,170,168,164,156,149,141,132,126,121,117,112,110,108,107,107,107,107,107,98],"timestamp_mouse":[13,30,64,70,89,110,130,149,169,189,209,229,250,270,290,309,329,351,369,390,409,430,449,469,490,510,530,549,569,590,610,630,649,669,690,709,729,749,769,789,809,829,849,869,890,909,930,949,969,989,1010,1029,1049,1070,1090,1109,1129,1149,1170,1189,1209,1229,1249,1271,1289,1309,1330,1349,1369,1389,1409,1429,1450,1469,1490,1509,1529,1550,1569,1589,1609,1629,1649,1669,1689,1709,1729,1749,1769,1789,1809,1829,1851,1869,1889,1910,1929,1949,1969,1989,2009,2029,2049,2070,2090,2109,2130,2149,2170,2189,2209,2229,2249,2269,2289,2309,2329,2351,2370,2389,2409,2430,2449,2469,2490,2510,2529,2549,2570,2590,2609,2629,2649,2669,2689,2710,2729,2749,2769,2789,2810,2829,2849,2869,2889,2909,2929,2949,2969,2989,3009,3029,3049,3069,3091,3109,3130,3150,3169,3189,3210,3229,3249,3269,3289,3310,3329,3351,3370,3389,3410,3429,3449,3470,3489,3509,3530,3549,3570,3589,3609,3629,3649,3670,3689,3710,3729,3749,3770,3789,3810,3829,3849,3872,3895,3914,3930,3949,3969,3989,4010,4029,4049,4069,4089,4109,4130,4149,4169,4190,4210,4229,4250,4269,4290,4310,4329,4350,4369,4390,4410,4429,4450,4469,4490,4511,4530,4551,4570,4589,4609,4629,4649],"xSR":741.5,"ySR":469.95,"xT1":424.9,"yT1":0,"xT2":1058.1,"yT2":0,"toosoon":0,"cond_shown":"equaldotsize","ratio_trial":500,"smaller_num":"2","larger_num":"4","correct_side":1,"subjID":"Simon Cabrera","gender":"0","age":"10","school":"6"},{"start_time":1551901716970,"click_time":1551901718334,"finger_time":1551901717734,"fix_duration":1175.7444904554347,"trial":3,"RT":764,"MT":600,"sideResp":1,"stimulus":"img/900/equaldotsize/L/1_Ratio_900_L_10_R_9.png","xmouse":[788,788,788,788,788,788,788,788,788,788,788,788,788,788,788,788,788,788,788,788,788,788,788,788,788,788,788,788,788,788,788,788,788,788,788,788,788,788,788,804,832,854,875,881,884,890,892,892,893,893,888,872,841,789,726,585,500,471,455,442,435,433,433,433,433,433,438,447,456],"ymouse":[499,499,499,499,499,499,499,499,499,499,499,499,499,499,499,499,499,499,499,499,499,499,499,499,499,499,499,499,499,499,499,499,499,499,499,499,499,477,377,319,295,283,273,270,267,260,257,255,252,250,245,240,234,224,214,174,149,140,136,132,127,126,126,125,125,119,111,101,94],"timestamp_mouse":[12,23,43,81,83,103,123,144,163,183,203,223,243,263,283,309,323,343,363,382,403,423,444,463,483,503,523,543,563,584,603,623,643,664,684,703,723,744,764,783,804,826,843,863,883,904,923,943,963,983,1003,1024,1044,1063,1084,1103,1123,1143,1163,1183,1203,1223,1243,1263,1283,1303,1323,1343,1364],"xSR":741.5,"ySR":469.95,"xT1":424.9,"yT1":0,"xT2":1058.1,"yT2":0,"toosoon":0,"cond_shown":"equaldotsize","ratio_trial":900,"smaller_num":"9","larger_num":"10","correct_side":1,"subjID":"Simon Cabrera","gender":"0","age":"10","school":"6"},{"start_time":1551901719361,"click_time":1551901720416,"finger_time":1551901720053,"fix_duration":367.8992848667325,"trial":4,"RT":692,"MT":363,"sideResp":1,"stimulus":"img/250/equaldotsize/L/14_Ratio_250_L_12_R_3.png","xmouse":[758,758,758,758,758,758,758,758,765,774,778,778,778,778,778,778,778,778,778,778,778,778,778,778,778,778,778,778,778,778,778,770,760,726,679,611,575,569,562,544,536,530,525,521,506,490,482,472,465,456,452,450],"ymouse":[521,521,521,521,521,521,521,521,526,531,533,533,533,533,533,533,533,533,533,533,533,533,533,533,533,533,533,533,533,533,533,531,523,493,446,362,309,297,282,239,221,208,198,190,168,146,136,126,120,110,103,99],"timestamp_mouse":[13,59,72,92,113,132,152,172,192,212,233,252,272,292,312,332,352,372,393,412,432,452,472,493,513,532,552,572,592,613,632,653,672,692,713,732,752,772,792,812,833,852,872,893,912,932,952,972,992,1012,1035,1055],"xSR":741.5,"ySR":469.95,"xT1":424.9,"yT1":0,"xT2":1058.1,"yT2":0,"toosoon":0,"cond_shown":"equaldotsize","ratio_trial":250,"smaller_num":"3","larger_num":"12","correct_side":1,"subjID":"Simon Cabrera","gender":"0","age":"10","school":"6"},{"start_time":1551901723765,"click_time":1551901725753,"finger_time":1551901724533,"fix_duration":770.307801496417,"trial":5,"RT":768,"MT":1220,"sideResp":2,"stimulus":"img/250/randomdotsizeEA/R/9_Ratio_250_L_3_R_12.png","xmouse":[830,830,830,830,830,830,830,830,830,830,830,830,830,830,830,830,830,830,830,830,830,830,830,830,830,830,830,830,830,830,830,830,830,830,830,830,829,828,828,828,828,828,828,828,825,820,813,803,789,712,662,613,576,554,554,554,554,554,554,554,554,554,554,554,554,554,554,554,554,554,607,703,821,949,1115,1118,1118,1118,1118,1129,1141,1152,1165,1175,1179,1180,1180,1180,1180,1180,1180,1180,1180,1180,1180,1178,1170,1159,1149],"ymouse":[481,481,481,481,481,481,481,481,481,481,481,481,481,481,481,481,481,481,481,481,481,481,481,481,481,481,481,481,481,481,481,481,481,481,481,475,470,465,462,458,458,454,449,441,421,402,383,360,333,204,136,75,30,3,3,3,3,3,3,3,3,3,3,3,3,3,3,3,3,3,23,56,82,107,126,126,126,126,126,120,115,108,96,88,80,79,79,79,79,79,79,79,79,79,79,77,68,59,52],"timestamp_mouse":[14,58,68,88,108,128,148,168,188,208,229,248,268,288,309,329,348,368,389,408,428,449,468,488,508,528,548,568,588,609,628,648,668,688,708,729,749,768,788,815,827,848,868,889,908,928,948,969,989,1008,1028,1048,1068,1088,1108,1128,1148,1169,1189,1208,1228,1248,1268,1288,1308,1330,1349,1368,1389,1409,1429,1448,1468,1489,1509,1529,1548,1568,1588,1609,1629,1648,1668,1688,1709,1729,1748,1768,1788,1808,1829,1848,1868,1889,1908,1928,1949,1968,1988],"xSR":741.5,"ySR":469.95,"xT1":424.9,"yT1":0,"xT2":1058.1,"yT2":0,"toosoon":0,"cond_shown":"randomdotsizeEA","ratio_trial":250,"smaller_num":"3","larger_num":"12","correct_side":2,"subjID":"Simon Cabrera","gender":"0","age":"10","school":"6"},{"start_time":1551901727318,"click_time":1551901728373,"finger_time":1551901728073,"fix_duration":583.3026530660679,"trial":6,"RT":755,"MT":300,"sideResp":2,"stimulus":"img/500/randomdotsizeEA/R/3_Ratio_500_L_10_R_20.png","xmouse":[817,817,817,817,817,817,817,817,817,817,817,817,817,817,817,817,817,817,817,817,817,817,817,817,817,817,817,817,817,817,817,817,817,817,817,817,815,792,769,769,702,694,694,694,694,694,704,760,858,935,1009,1067,1114],"ymouse":[487,487,487,487,487,487,487,487,487,487,487,487,487,487,487,487,487,487,487,487,487,487,487,487,487,487,487,487,487,487,487,487,487,487,487,487,489,432,361,361,229,216,215,215,215,212,204,178,151,134,122,109,94],"timestamp_mouse":[16,35,61,75,95,116,135,155,175,195,215,235,255,275,295,315,336,356,375,395,415,435,455,476,495,515,536,555,575,595,615,635,655,676,695,715,735,755,778,795,816,836,859,876,896,914,935,956,975,996,1015,1035,1055],"xSR":741.5,"ySR":469.95,"xT1":424.9,"yT1":0,"xT2":1058.1,"yT2":0,"toosoon":0,"cond_shown":"randomdotsizeEA","ratio_trial":500,"smaller_num":"10","larger_num":"20","correct_side":2,"subjID":"Simon Cabrera","gender":"0","age":"10","school":"6"},{"start_time":1551901730443,"click_time":1551901731814,"finger_time":1551901731313,"fix_duration":1447.0317517792114,"trial":7,"RT":870,"MT":501,"sideResp":1,"stimulus":"img/750/randomdotsizeEA/R/7_Ratio_750_L_3_R_4.png","xmouse":[764,764,764,764,764,764,764,764,764,764,764,764,764,764,764,764,764,764,764,764,764,764,764,764,764,764,764,764,764,764,764,764,764,764,764,764,764,764,764,764,762,751,738,729,729,719,712,700,689,689,673,606,582,577,573,560,552,547,543,538,532,532,531,529,527,526,525,524],"ymouse":[542,542,542,542,542,542,542,542,542,542,542,542,542,542,542,542,542,542,542,542,542,542,542,542,542,542,542,542,542,542,542,542,542,542,542,542,542,542,542,542,523,499,468,449,449,424,398,364,337,337,307,202,175,164,159,137,125,116,109,100,93,93,92,90,88,87,87,86],"timestamp_mouse":[11,60,70,90,110,131,150,171,190,210,230,250,270,290,310,331,350,371,390,410,430,451,470,490,510,531,551,570,590,610,630,650,670,690,710,730,750,770,791,810,830,851,870,890,910,930,951,970,993,1010,1030,1050,1070,1091,1110,1130,1150,1170,1191,1210,1230,1251,1270,1291,1310,1330,1351,1371],"xSR":741.5,"ySR":469.95,"xT1":424.9,"yT1":0,"xT2":1058.1,"yT2":0,"toosoon":0,"cond_shown":"randomdotsizeEA","ratio_trial":750,"smaller_num":"3","larger_num":"4","correct_side":2,"subjID":"Simon Cabrera","gender":"0","age":"10","school":"6"},{"start_time":1551901733206,"click_time":1551901734214,"finger_time":1551901733773,"fix_duration":250,"trial":8,"RT":567,"MT":441,"sideResp":2,"stimulus":"img/900/equaldotsize/L/4_Ratio_900_L_20_R_18.png","xmouse":[796,796,796,796,796,796,796,796,796,796,796,796,796,796,796,796,796,796,796,796,796,803,807,818,820,821,822,822,827,831,838,857,891,995,1114,1160,1183,1195,1221,1241,1252,1253,1260,1260,1260,1258,1251,1239,1195,1165,1143],"ymouse":[516,516,516,516,516,516,516,516,516,516,516,516,516,516,516,516,516,516,516,516,516,512,507,486,482,479,477,474,463,454,439,408,373,301,220,183,160,144,116,99,92,88,62,57,55,54,54,54,54,54,61],"timestamp_mouse":[14,46,47,67,88,108,127,147,167,187,207,227,247,267,287,307,327,347,367,387,407,427,447,467,488,507,527,547,567,588,607,627,648,666,688,707,728,747,768,787,807,827,847,868,887,907,927,947,967,987,1008],"xSR":741.5,"ySR":469.95,"xT1":424.9,"yT1":0,"xT2":1058.1,"yT2":0,"toosoon":0,"cond_shown":"equaldotsize","ratio_trial":900,"smaller_num":"18","larger_num":"20","correct_side":1,"subjID":"Simon Cabrera","gender":"0","age":"10","school":"6"},{"start_time":1551901736795,"click_time":1551901740213,"finger_time":1551901737593,"fix_duration":296.71702270640145,"trial":9,"RT":798,"MT":2620,"sideResp":1,"stimulus":"img/750/equaldotanddens/L/1_Ratio_750_L_20_R_15.png","xmouse":[763,763,763,763,763,763,763,763,763,763,763,763,763,763,763,763,763,763,763,763,763,763,763,763,763,763,763,763,763,763,763,763,763,763,763,763,763,763,763,763,763,768,769,770,770,766,758,750,705,665,636,618,607,585,567,544,512,473,423,416,413,411,411,411,411,411,411,411,411,411,411,411,411,411,411,411,411,411,411,411,411,411,411,411,411,411,411,411,411,411,412,412,412,416,417,418,418,418,418,418,418,418,418,418,418,418,418,418,419,419,419,419,419,420,420,421,421,421,421,421,421,421,421,421,421,421,421,421,421,421,421,421,421,421,421,422,423,423,423,424,425,426,426,426,426,426,426,426,426,426,426,426,426,426,426,426,426,426,426,426,426,426,426,426,426,426,426,426,426,426,426],"ymouse":[544,544,544,544,544,544,544,544,544,544,544,544,544,544,544,544,544,544,544,544,544,544,544,544,544,544,544,544,544,544,544,544,544,544,544,544,544,544,530,467,438,402,382,361,357,342,330,317,264,234,216,209,204,198,193,187,174,154,121,116,112,110,110,110,109,109,109,109,109,109,109,109,109,109,109,109,109,109,109,109,109,109,109,109,109,109,109,109,109,108,108,108,108,106,106,105,105,105,105,105,105,105,105,105,105,105,105,105,105,105,105,105,105,105,105,105,105,105,105,105,105,105,105,105,105,105,105,105,105,105,105,105,105,105,105,105,105,105,105,104,103,103,103,103,103,103,103,103,103,103,103,103,103,103,103,103,103,103,103,103,103,103,103,103,103,102,102,102,101,100,99],"timestamp_mouse":[18,54,59,78,99,118,138,158,178,198,219,238,259,278,299,318,338,358,378,399,418,438,458,479,498,519,538,558,578,598,618,639,658,678,699,719,738,758,778,798,818,838,858,878,898,919,939,958,978,997,1017,1038,1058,1078,1098,1118,1138,1158,1178,1198,1218,1239,1259,1278,1298,1319,1339,1359,1378,1399,1418,1438,1459,1479,1498,1518,1539,1559,1578,1598,1618,1638,1658,1678,1698,1719,1738,1758,1778,1800,1821,1838,1857,1878,1899,1920,1938,1958,1978,1998,2019,2038,2058,2079,2099,2118,2138,2158,2178,2199,2218,2239,2258,2278,2298,2318,2338,2359,2378,2398,2418,2438,2458,2478,2498,2519,2538,2558,2578,2598,2619,2638,2658,2678,2698,2718,2738,2758,2778,2798,2819,2838,2859,2878,2899,2918,2938,2958,2978,2998,3018,3038,3058,3078,3098,3118,3138,3158,3178,3198,3219,3238,3258,3278,3299,3318,3339,3358,3378,3398,3418],"xSR":741.5,"ySR":469.95,"xT1":424.9,"yT1":0,"xT2":1058.1,"yT2":0,"toosoon":0,"cond_shown":"equaldotanddens","ratio_trial":750,"smaller_num":"15","larger_num":"20","correct_side":1,"subjID":"Simon Cabrera","gender":"0","age":"10","school":"6"},{"start_time":1551901749798,"click_time":1551901750834,"finger_time":1551901750073,"fix_duration":883.5528847139343,"trial":10,"RT":275,"MT":761,"sideResp":2,"stimulus":"img/500/equaldotsize/R/1_Ratio_500_L_9_R_18.png","xmouse":[825,825,824,824,821,821,821,820,820,820,819,815,814,811,811,811,811,810,810,809,809,809,809,809,809,809,809,809,809,809,809,809,809,821,868,887,902,921,958,961,961,962,962,964,965,967,976,1013,1028,1035,1046,1059],"ymouse":[478,478,478,478,479,479,479,480,480,480,480,478,475,469,468,466,466,464,461,459,459,459,459,459,459,459,459,459,459,459,459,459,459,437,364,334,312,282,217,207,204,203,203,199,196,192,173,115,95,85,76,70],"timestamp_mouse":[15,35,70,75,95,115,136,155,175,195,216,235,255,275,297,319,335,355,375,396,415,435,456,476,496,515,535,556,575,596,615,635,656,675,696,715,735,755,775,796,815,835,855,875,897,915,935,955,976,995,1016,1035],"xSR":741.5,"ySR":469.95,"xT1":424.9,"yT1":0,"xT2":1058.1,"yT2":0,"toosoon":0,"cond_shown":"equaldotsize","ratio_trial":500,"smaller_num":"9","larger_num":"18","correct_side":2,"subjID":"Simon Cabrera","gender":"0","age":"10","school":"6"},{"start_time":1551901754150,"click_time":1551901755814,"finger_time":1551901755233,"fix_duration":1415.4162022694088,"trial":11,"RT":1083,"MT":581,"sideResp":1,"stimulus":"img/900/equaldotanddens/R/15_Ratio_900_L_9_R_10.png","xmouse":[763,763,763,763,763,763,763,763,763,763,763,763,763,763,763,763,763,763,763,763,763,763,763,763,763,763,763,763,763,763,763,763,763,763,763,763,763,763,763,763,763,763,763,763,763,763,763,763,763,763,763,763,810,844,890,924,930,931,934,936,942,961,982,1003,1007,1013,1014,1014,1012,992,967,927,876,832,803,764,742,730,714,698,641,573,511],"ymouse":[519,519,519,519,519,519,519,519,519,519,519,519,519,519,519,519,519,519,519,519,519,519,519,519,519,519,519,519,519,519,519,519,519,519,519,519,519,519,519,519,519,519,519,519,519,519,519,519,519,519,519,519,486,466,429,388,378,374,365,354,316,266,207,141,123,98,76,76,72,71,71,71,81,96,107,118,125,128,130,131,127,110,91],"timestamp_mouse":[13,49,63,84,103,123,143,163,184,203,223,243,263,284,308,323,343,363,383,404,424,443,463,484,504,523,543,563,583,603,623,643,663,683,704,723,743,764,783,803,823,843,864,884,903,923,943,963,984,1004,1023,1044,1063,1083,1103,1123,1143,1164,1183,1202,1222,1243,1263,1284,1303,1324,1343,1363,1384,1403,1425,1444,1463,1484,1503,1523,1544,1563,1584,1604,1623,1644,1664],"xSR":741.5,"ySR":469.95,"xT1":424.9,"yT1":0,"xT2":1058.1,"yT2":0,"toosoon":0,"cond_shown":"equaldotanddens","ratio_trial":900,"smaller_num":"9","larger_num":"10","correct_side":2,"subjID":"Simon Cabrera","gender":"0","age":"10","school":"6"},{"start_time":1551901758164,"click_time":1551901759574,"finger_time":1551901758853,"fix_duration":1489.3665789535482,"trial":12,"RT":689,"MT":721,"sideResp":2,"stimulus":"img/250/randomdotsizeEA/R/12_Ratio_250_L_5_R_20.png","xmouse":[778,778,778,778,778,778,778,778,778,778,778,778,778,778,778,778,778,778,778,778,778,778,778,778,778,778,778,778,778,778,778,779,781,801,851,859,863,864,868,874,885,890,890,891,899,910,925,936,951,968,980,996,1009,1017,1020,1020,1020,1021,1021,1021,1023,1028,1029,1032,1036,1040,1046,1064,1076,1084,1090],"ymouse":[502,502,502,502,502,502,502,502,502,502,502,502,502,502,502,502,502,502,502,502,502,502,502,502,502,502,502,502,502,502,502,502,501,486,450,442,436,431,425,413,390,384,382,381,367,351,331,315,295,272,256,235,215,205,200,200,200,199,199,199,196,189,187,184,179,172,160,131,115,105,96],"timestamp_mouse":[11,29,66,69,89,109,129,149,170,191,210,229,250,269,289,309,329,350,370,389,409,429,449,469,490,509,529,549,569,589,609,629,649,669,689,714,735,748,770,789,810,830,849,870,889,908,929,949,969,989,1012,1030,1049,1068,1090,1109,1129,1150,1170,1189,1210,1229,1249,1269,1289,1309,1329,1349,1369,1389,1410],"xSR":741.5,"ySR":469.95,"xT1":424.9,"yT1":0,"xT2":1058.1,"yT2":0,"toosoon":0,"cond_shown":"randomdotsizeEA","ratio_trial":250,"smaller_num":"5","larger_num":"20","correct_side":2,"subjID":"Simon Cabrera","gender":"0","age":"10","school":"6"},{"start_time":1551901760806,"click_time":1551901761676,"finger_time":1551901761474,"fix_duration":250,"trial":13,"RT":668,"MT":202,"sideResp":2,"stimulus":"img/750/equaldotanddens/R/11_Ratio_750_L_12_R_16.png","xmouse":[792,792,792,792,792,792,792,792,792,792,792,792,792,792,792,792,792,792,792,792,792,792,792,792,792,792,792,792,792,792,792,792,792,793,799,814,814,835,848,873,895,926,1029,1091],"ymouse":[489,489,489,489,489,489,489,489,489,489,489,489,489,489,489,489,489,489,489,489,489,489,489,489,489,489,489,489,489,489,489,489,489,461,422,352,352,308,291,265,245,223,139,84],"timestamp_mouse":[11,27,53,68,87,107,127,147,167,187,208,227,247,267,287,307,327,348,367,387,407,427,447,467,487,507,527,547,567,587,607,627,648,668,689,710,728,748,767,791,808,827,847,870],"xSR":741.5,"ySR":469.95,"xT1":424.9,"yT1":0,"xT2":1058.1,"yT2":0,"toosoon":0,"cond_shown":"equaldotanddens","ratio_trial":750,"smaller_num":"12","larger_num":"16","correct_side":2,"subjID":"Simon Cabrera","gender":"0","age":"10","school":"6"},{"start_time":1551901765709,"click_time":1551901766574,"finger_time":1551901766273,"fix_duration":754.3604258312525,"trial":14,"RT":564,"MT":301,"sideResp":2,"stimulus":"img/750/equaldotanddens/R/12_Ratio_750_L_3_R_4.png","xmouse":[795,795,795,795,795,795,795,795,795,795,795,795,795,795,795,795,795,795,795,795,795,795,795,795,795,795,793,783,774,769,768,768,780,798,815,829,840,882,909,928,952,968,1028,1072],"ymouse":[500,500,500,500,500,500,500,500,500,500,500,500,500,500,500,500,500,500,500,500,500,500,500,500,500,500,497,472,451,434,400,369,292,247,209,172,128,46,17,6,1,1,14,35],"timestamp_mouse":[14,41,44,63,84,104,124,144,165,184,205,224,243,265,284,309,323,344,364,385,404,424,444,464,484,504,524,544,564,585,606,624,644,666,684,704,724,744,766,784,803,824,844,865],"xSR":741.5,"ySR":469.95,"xT1":424.9,"yT1":0,"xT2":1058.1,"yT2":0,"toosoon":0,"cond_shown":"equaldotanddens","ratio_trial":750,"smaller_num":"3","larger_num":"4","correct_side":2,"subjID":"Simon Cabrera","gender":"0","age":"10","school":"6"},{"start_time":1551901769131,"click_time":1551901770553,"finger_time":1551901770234,"fix_duration":1077.0488761950685,"trial":15,"RT":1103,"MT":319,"sideResp":2,"stimulus":"img/750/randomdotsizeEA/L/14_Ratio_750_L_8_R_6.png","xmouse":[791,791,791,791,791,791,791,791,791,791,791,791,791,791,791,791,791,791,791,791,791,791,791,791,791,791,791,791,791,791,791,791,791,791,791,791,791,791,791,791,791,791,791,791,791,791,791,791,791,791,791,791,791,793,802,832,856,868,878,889,921,936,947,951,955,977,1013,1055,1092,1107,1145],"ymouse":[497,497,497,497,497,497,497,497,497,497,497,497,497,497,497,497,497,497,497,497,497,497,497,497,497,497,497,497,497,497,497,497,497,497,497,497,497,497,497,497,497,497,497,497,497,497,497,497,497,497,497,497,497,491,467,409,367,352,339,324,278,256,237,229,224,203,173,142,118,110,98],"timestamp_mouse":[11,43,61,82,102,122,143,162,182,202,222,242,262,282,302,322,342,362,382,402,422,442,462,483,502,522,542,561,582,602,622,643,662,682,703,722,743,763,783,802,822,842,862,883,902,922,942,962,982,1002,1022,1042,1062,1082,1103,1123,1142,1162,1182,1202,1223,1244,1262,1282,1302,1322,1342,1362,1383,1402,1422],"xSR":741.5,"ySR":469.95,"xT1":424.9,"yT1":0,"xT2":1058.1,"yT2":0,"toosoon":0,"cond_shown":"randomdotsizeEA","ratio_trial":750,"smaller_num":"6","larger_num":"8","correct_side":1,"subjID":"Simon Cabrera","gender":"0","age":"10","school":"6"},{"start_time":1551901777398,"click_time":1551901779814,"finger_time":1551901778193,"fix_duration":882.0958672292131,"trial":16,"RT":795,"MT":1621,"sideResp":1,"stimulus":"img/900/equaldotsize/R/11_Ratio_900_L_18_R_20.png","xmouse":[785,785,785,785,785,785,785,785,785,785,785,785,785,785,785,785,785,785,785,785,785,785,785,785,785,785,785,785,785,785,785,785,785,785,785,785,792,800,819,848,890,900,916,918,918,918,918,918,918,918,918,918,918,918,904,805,655,596,548,499,460,418,414,413,413,413,413,413,413,413,413,413,413,413,413,413,414,415,419,424,429,436,437,438,439,440,440,440,440,440,440,441,441,441,441,441,441,442,442,446,451,461,464,465,465,465,465,465,465,465,465,465,465,465,465,465,466,469,471,473],"ymouse":[525,525,525,525,525,525,525,525,525,525,525,525,525,525,525,525,525,525,525,525,525,525,525,525,525,525,525,525,525,525,525,525,525,525,525,525,494,474,430,360,262,239,191,187,187,187,187,187,187,187,187,187,187,187,187,172,147,140,137,137,136,131,130,130,130,130,130,130,130,130,130,129,129,129,129,129,129,128,127,125,122,120,120,120,120,120,120,120,120,120,120,120,119,119,119,119,119,119,119,118,113,104,104,104,104,104,104,104,104,104,104,104,104,104,104,104,104,102,100,98],"timestamp_mouse":[16,57,75,95,115,135,155,175,195,215,235,256,275,295,315,335,355,375,395,415,436,456,475,496,515,535,555,575,595,615,635,655,676,696,715,735,755,775,795,816,835,856,875,895,915,935,956,976,999,1021,1035,1055,1075,1096,1115,1136,1155,1175,1195,1216,1235,1255,1275,1296,1315,1336,1355,1375,1395,1415,1435,1455,1476,1495,1515,1536,1556,1575,1595,1615,1635,1655,1675,1695,1715,1735,1755,1775,1796,1817,1835,1856,1875,1895,1915,1935,1955,1976,1995,2016,2035,2055,2075,2096,2116,2135,2155,2175,2195,2215,2235,2256,2276,2295,2316,2335,2355,2376,2396,2416],"xSR":741.5,"ySR":469.95,"xT1":424.9,"yT1":0,"xT2":1058.1,"yT2":0,"toosoon":0,"cond_shown":"equaldotsize","ratio_trial":900,"smaller_num":"18","larger_num":"20","correct_side":2,"subjID":"Simon Cabrera","gender":"0","age":"10","school":"6"},{"start_time":1551901781235,"click_time":1551901782333,"finger_time":1551901782053,"fix_duration":500.73381433002817,"trial":17,"RT":818,"MT":280,"sideResp":1,"stimulus":"img/250/equaldotanddens/L/15_Ratio_250_L_12_R_3.png","xmouse":[809,809,809,809,809,809,809,805,801,796,791,791,791,791,791,791,791,791,791,791,791,791,791,791,791,791,791,791,791,791,791,791,791,791,791,791,791,791,791,789,773,730,660,628,612,598,593,589,584,579,564,551,535,516,491],"ymouse":[481,481,481,481,481,481,482,483,485,485,487,487,487,487,487,487,487,487,487,487,487,487,487,487,487,487,487,487,487,487,487,487,487,487,487,487,487,487,487,487,447,357,252,214,197,185,182,178,170,163,151,141,125,106,79],"timestamp_mouse":[18,51,58,78,99,118,138,158,178,198,218,238,258,279,298,319,339,360,379,398,419,438,458,478,498,518,538,559,578,598,618,640,658,689,698,718,738,758,778,798,818,842,863,879,898,921,939,958,978,998,1018,1039,1058,1078,1098],"xSR":741.5,"ySR":469.95,"xT1":424.9,"yT1":0,"xT2":1058.1,"yT2":0,"toosoon":0,"cond_shown":"equaldotanddens","ratio_trial":250,"smaller_num":"3","larger_num":"12","correct_side":1,"subjID":"Simon Cabrera","gender":"0","age":"10","school":"6"},{"start_time":1551901788308,"click_time":1551901789793,"finger_time":1551901788993,"fix_duration":250,"trial":18,"RT":685,"MT":800,"sideResp":1,"stimulus":"img/750/equaldotanddens/L/9_Ratio_750_L_4_R_3.png","xmouse":[832,830,828,828,828,828,828,828,828,828,828,828,828,828,826,825,825,824,823,823,823,823,823,823,823,823,823,823,823,823,823,823,823,835,851,872,896,903,921,938,945,952,958,958,965,978,993,1016,1023,1027,1030,1043,1043,1043,1043,1043,1043,1043,1039,1013,964,877,802,779,758,734,703,624,599,587,578,571,561,531,516],"ymouse":[528,529,530,530,530,530,530,530,530,530,530,530,530,530,531,531,531,531,531,531,531,531,531,531,531,531,531,531,531,531,531,531,522,487,444,403,350,335,291,252,232,217,204,204,196,182,170,152,146,142,140,131,130,130,130,130,130,130,131,134,142,148,154,158,161,162,157,129,122,118,115,113,109,91,79],"timestamp_mouse":[9,31,47,65,85,105,125,145,165,185,205,225,245,265,285,305,325,345,366,385,406,426,446,465,486,506,525,546,565,585,606,626,646,666,685,705,725,745,770,785,805,825,845,865,886,906,925,945,965,986,1006,1027,1049,1065,1086,1106,1126,1147,1166,1185,1205,1226,1245,1265,1285,1306,1327,1345,1365,1385,1405,1426,1445,1466,1485],"xSR":741.5,"ySR":469.95,"xT1":424.9,"yT1":0,"xT2":1058.1,"yT2":0,"toosoon":0,"cond_shown":"equaldotanddens","ratio_trial":750,"smaller_num":"3","larger_num":"4","correct_side":1,"subjID":"Simon Cabrera","gender":"0","age":"10","school":"6"},{"start_time":1551901792683,"click_time":1551901793753,"finger_time":1551901793353,"fix_duration":987.1162746917731,"trial":19,"RT":670,"MT":400,"sideResp":1,"stimulus":"img/900/randomdotsizeEA/R/5_Ratio_900_L_9_R_10.png","xmouse":[773,773,773,773,773,770,764,760,758,758,758,758,758,758,758,758,758,758,758,758,758,758,758,758,758,758,758,758,758,757,757,758,759,759,757,750,739,727,693,673,656,645,634,621,615,606,591,573,534,526,522,516,508,495],"ymouse":[502,502,502,501,501,502,505,506,507,507,507,507,507,507,507,507,507,507,507,507,507,507,507,507,507,507,507,507,507,501,498,492,480,444,418,396,375,356,299,260,226,207,193,181,177,171,163,151,128,122,119,114,108,97],"timestamp_mouse":[12,43,50,70,90,110,131,150,170,191,210,230,250,271,291,312,331,350,370,390,410,430,450,470,490,511,530,550,570,590,610,631,650,670,694,717,730,750,770,790,810,830,851,870,890,911,930,950,971,990,1010,1030,1051,1070],"xSR":741.5,"ySR":469.95,"xT1":424.9,"yT1":0,"xT2":1058.1,"yT2":0,"toosoon":0,"cond_shown":"randomdotsizeEA","ratio_trial":900,"smaller_num":"9","larger_num":"10","correct_side":2,"subjID":"Simon Cabrera","gender":"0","age":"10","school":"6"},{"start_time":1551901796117,"click_time":1551901797313,"finger_time":1551901796354,"fix_duration":1083.3919650312996,"trial":20,"RT":237,"MT":959,"sideResp":1,"stimulus":"img/500/randomdotsizeEA/R/14_Ratio_500_L_5_R_10.png","xmouse":[771,771,771,771,771,771,771,771,771,771,774,804,832,856,856,904,943,962,979,986,991,992,992,993,993,994,995,996,997,1003,1006,1037,1045,1053,1056,1058,1059,1060,1060,1060,1060,1060,1060,1060,1060,1060,1060,1058,1042,1027,1001,783,667,586,554,537,527,526,526,523],"ymouse":[515,515,515,515,515,515,515,515,515,506,481,382,345,324,324,295,264,238,213,202,192,190,189,187,187,185,183,182,180,173,170,143,135,129,126,125,125,125,125,125,125,125,125,125,125,125,125,125,131,138,145,129,99,78,68,60,56,56,56,55],"timestamp_mouse":[17,51,56,76,96,117,136,156,178,196,216,237,260,281,298,317,336,356,377,396,417,436,457,476,496,517,536,557,579,596,617,639,656,676,696,717,736,756,776,797,818,837,856,876,896,916,936,956,976,996,1018,1037,1057,1077,1096,1116,1136,1156,1176,1196],"xSR":741.5,"ySR":469.95,"xT1":424.9,"yT1":0,"xT2":1058.1,"yT2":0,"toosoon":0,"cond_shown":"randomdotsizeEA","ratio_trial":500,"smaller_num":"5","larger_num":"10","correct_side":2,"subjID":"Simon Cabrera","gender":"0","age":"10","school":"6"},{"start_time":1551901819881,"click_time":1551901822653,"finger_time":1551901820513,"fix_duration":1225.5540132408898,"trial":21,"RT":632,"MT":2140,"sideResp":2,"stimulus":"img/250/equaldotsize/R/6_Ratio_250_L_6_R_24.png","xmouse":[823,823,823,823,823,823,823,823,823,823,823,823,823,823,823,823,823,823,823,823,823,823,823,823,823,823,823,823,823,823,824,827,829,832,835,846,854,861,872,876,880,885,889,897,899,905,912,917,925,930,934,949,958,977,986,993,998,1003,1012,1016,1017,1017,1017,1017,1018,1023,1025,1027,1034,1036,1038,1038,1038,1039,1039,1043,1051,1083,1095,1105,1115,1124,1128,1132,1135,1137,1144,1152,1162,1162,1162,1163,1172,1181,1183,1184,1184,1184,1188,1204,1216,1222,1222,1222,1222,1222,1222,1222,1222,1222,1222,1222,1222,1222,1222,1226,1232,1246,1248,1248,1248,1249,1249,1253,1256,1258,1262,1265,1258,1252,1252,1252,1252,1252,1252,1252,1252,1252,1105],"ymouse":[523,523,523,523,523,523,523,523,523,523,523,523,523,523,523,523,523,523,523,523,523,523,523,523,523,523,523,523,518,496,477,458,445,432,426,407,391,377,350,334,320,307,297,281,274,262,248,237,226,221,217,203,195,177,171,168,166,164,154,147,142,141,141,141,140,138,137,137,134,132,132,132,132,132,132,131,128,119,118,118,120,123,125,127,131,137,149,159,169,169,169,170,178,193,196,196,196,197,225,238,249,258,258,258,258,258,258,258,258,258,258,258,258,258,258,253,242,217,215,214,214,213,212,187,168,146,120,88,18,7,7,7,7,7,7,7,7,7,5],"timestamp_mouse":[12,32,70,72,93,112,132,152,172,192,212,232,252,272,292,312,332,352,373,392,412,432,453,472,492,512,532,552,572,592,612,632,652,672,695,712,732,752,773,793,812,832,852,872,892,912,932,952,972,992,1012,1032,1052,1073,1092,1112,1133,1152,1172,1192,1212,1232,1252,1272,1292,1312,1333,1352,1372,1392,1412,1432,1452,1472,1492,1512,1533,1552,1574,1593,1612,1633,1652,1672,1693,1712,1732,1752,1773,1792,1812,1832,1852,1873,1892,1913,1932,1952,1972,1993,2012,2032,2052,2073,2092,2114,2134,2153,2172,2192,2212,2232,2252,2272,2292,2312,2332,2352,2372,2392,2413,2432,2452,2472,2493,2512,2533,2552,2572,2592,2613,2632,2652,2672,2692,2713,2732,2752,2772],"xSR":741.5,"ySR":469.95,"xT1":424.9,"yT1":0,"xT2":1058.1,"yT2":0,"toosoon":0,"cond_shown":"equaldotsize","ratio_trial":250,"smaller_num":"6","larger_num":"24","correct_side":2,"subjID":"Simon Cabrera","gender":"0","age":"10","school":"6"},{"start_time":1551901828076,"click_time":1551901829153,"finger_time":1551901828813,"fix_duration":1480.25028894783,"trial":22,"RT":737,"MT":340,"sideResp":2,"stimulus":"img/500/equaldotsize/R/1_Ratio_500_L_9_R_18.png","xmouse":[767,767,767,767,767,767,767,767,767,767,767,767,767,767,767,767,767,767,767,767,767,767,767,767,767,767,767,767,767,767,767,767,767,767,786,817,864,915,985,996,1003,1011,1013,1015,1016,1017,1020,1023,1026,1032,1036,1045,1071],"ymouse":[554,554,554,554,554,554,554,554,554,554,554,554,554,554,554,554,554,554,554,554,554,554,554,554,554,554,554,554,554,554,554,554,554,554,496,428,353,275,181,171,163,155,151,149,148,146,143,141,139,135,132,122,80],"timestamp_mouse":[17,60,77,97,117,137,157,177,197,218,237,257,277,297,317,337,358,377,398,418,438,457,477,497,517,537,557,577,597,617,637,657,677,697,717,737,757,777,797,817,838,857,881,897,917,938,958,977,998,1017,1037,1058,1077],"xSR":741.5,"ySR":469.95,"xT1":424.9,"yT1":0,"xT2":1058.1,"yT2":0,"toosoon":0,"cond_shown":"equaldotsize","ratio_trial":500,"smaller_num":"9","larger_num":"18","correct_side":2,"subjID":"Simon Cabrera","gender":"0","age":"10","school":"6"},{"start_time":1551901842104,"click_time":1551901842992,"finger_time":1551901842732,"fix_duration":250,"trial":23,"RT":628,"MT":260,"sideResp":1,"stimulus":"img/500/randomdotsizeEA/L/4_Ratio_500_L_18_R_9.png","xmouse":[777,777,777,777,777,777,777,777,777,777,777,777,777,777,777,777,777,777,777,777,778,790,795,797,798,798,798,798,798,798,799,784,754,688,640,601,582,576,570,562,554,543,536,533,523],"ymouse":[521,521,521,521,521,521,521,521,521,521,521,521,521,521,521,521,521,521,521,521,519,510,504,501,500,500,500,500,500,500,499,461,406,303,235,180,143,131,120,105,92,77,68,64,57],"timestamp_mouse":[14,29,60,68,88,108,128,149,168,189,209,228,248,268,288,308,328,348,370,388,409,429,450,469,488,508,530,550,568,588,608,628,653,674,690,710,735,751,769,790,809,828,848,869,888],"xSR":741.5,"ySR":469.95,"xT1":424.9,"yT1":0,"xT2":1058.1,"yT2":0,"toosoon":0,"cond_shown":"randomdotsizeEA","ratio_trial":500,"smaller_num":"9","larger_num":"18","correct_side":1,"subjID":"Simon Cabrera","gender":"0","age":"10","school":"6"},{"start_time":1551901844262,"click_time":1551901845354,"finger_time":1551901844932,"fix_duration":528.5893717849443,"trial":24,"RT":670,"MT":422,"sideResp":2,"stimulus":"img/900/randomdotsizeEA/L/10_Ratio_900_L_20_R_18.png","xmouse":[772,772,772,772,772,772,772,772,772,772,772,772,772,772,772,772,772,772,772,772,772,772,772,772,772,772,772,772,772,772,781,790,815,883,931,973,988,994,1000,1012,1018,1022,1023,1023,1023,1023,1023,1023,1023,1023,1022,1022,1025,1058,1066],"ymouse":[516,516,516,516,516,516,516,516,516,516,516,516,516,516,516,516,516,516,516,516,516,516,516,516,516,516,516,516,516,516,514,502,473,405,367,329,310,296,283,254,243,234,228,225,225,225,225,225,220,199,173,146,126,101,98],"timestamp_mouse":[11,31,68,71,91,111,131,151,172,191,211,231,250,270,290,310,330,350,370,391,411,431,451,471,491,511,530,551,570,592,612,632,650,670,696,714,731,750,770,790,810,830,851,870,894,910,930,950,971,993,1010,1031,1052,1071,1092],"xSR":741.5,"ySR":469.95,"xT1":424.9,"yT1":0,"xT2":1058.1,"yT2":0,"toosoon":0,"cond_shown":"randomdotsizeEA","ratio_trial":900,"smaller_num":"18","larger_num":"20","correct_side":1,"subjID":"Simon Cabrera","gender":"0","age":"10","school":"6"},{"start_time":1551901846486,"click_time":1551901847453,"finger_time":1551901846833,"fix_duration":250,"trial":25,"RT":347,"MT":620,"sideResp":1,"stimulus":"img/500/randomdotsizeEA/L/10_Ratio_500_L_4_R_2.png","xmouse":[776,776,776,776,776,776,776,776,776,776,776,776,776,776,776,775,763,715,706,704,703,703,703,703,703,701,688,661,647,634,634,617,612,611,606,602,599,585,577,567,559,549,542,541,538,536,535,528,520],"ymouse":[520,520,520,520,520,520,520,520,520,520,520,520,520,520,520,520,476,377,363,360,359,359,359,359,357,355,335,301,285,269,269,246,237,234,224,218,207,180,162,143,125,109,92,87,84,81,77,70,63],"timestamp_mouse":[14,45,46,67,88,106,126,146,167,186,206,226,247,266,286,306,327,347,368,386,407,426,446,467,486,507,527,554,574,590,607,627,646,667,687,706,726,746,768,786,807,826,846,866,887,907,928,946,967],"xSR":741.5,"ySR":469.95,"xT1":424.9,"yT1":0,"xT2":1058.1,"yT2":0,"toosoon":0,"cond_shown":"randomdotsizeEA","ratio_trial":500,"smaller_num":"2","larger_num":"4","correct_side":1,"subjID":"Simon Cabrera","gender":"0","age":"10","school":"6"},{"start_time":1551901849263,"click_time":1551901850413,"finger_time":1551901849993,"fix_duration":250,"trial":26,"RT":730,"MT":420,"sideResp":2,"stimulus":"img/750/equaldotsize/R/15_Ratio_750_L_9_R_12.png","xmouse":[778,778,778,778,778,778,778,778,778,778,778,778,778,778,778,778,778,778,778,778,778,778,778,780,784,784,784,784,784,784,784,784,784,784,784,795,840,905,964,1040,1075,1101,1131,1152,1163,1168,1170,1171,1168,1164,1161,1160,1160,1160,1160,1160,1159,1157],"ymouse":[499,499,499,499,499,499,499,499,499,499,499,499,499,499,499,499,499,499,499,499,499,499,499,493,484,484,484,484,484,484,484,484,484,484,484,480,464,438,403,329,277,235,181,138,121,112,101,87,50,37,30,29,28,28,28,28,28,28],"timestamp_mouse":[14,45,49,69,90,109,129,150,170,190,209,229,250,269,290,309,330,350,371,391,409,429,449,469,490,510,530,549,569,591,610,629,649,669,691,711,730,750,770,795,814,830,849,869,890,909,930,950,970,990,1009,1029,1050,1069,1090,1109,1131,1150],"xSR":741.5,"ySR":469.95,"xT1":424.9,"yT1":0,"xT2":1058.1,"yT2":0,"toosoon":0,"cond_shown":"equaldotsize","ratio_trial":750,"smaller_num":"9","larger_num":"12","correct_side":2,"subjID":"Simon Cabrera","gender":"0","age":"10","school":"6"},{"start_time":1551901852465,"click_time":1551901853532,"finger_time":1551901853132,"fix_duration":250,"trial":27,"RT":667,"MT":400,"sideResp":2,"stimulus":"img/250/equaldotanddens/R/4_Ratio_250_L_3_R_12.png","xmouse":[792,792,792,792,792,792,792,792,792,793,793,793,793,793,793,793,793,793,793,793,793,793,793,793,793,793,793,793,793,793,797,804,823,850,894,911,917,921,921,948,963,977,994,999,1003,1010,1016,1039,1046,1052,1056,1058,1063],"ymouse":[504,504,504,504,504,504,504,504,506,507,507,507,507,507,507,507,507,507,507,507,507,507,507,507,507,507,507,507,507,507,503,490,444,380,277,238,222,208,208,131,107,86,67,64,63,61,60,54,52,49,48,48,48],"timestamp_mouse":[8,48,67,87,107,128,147,168,188,208,227,247,268,288,308,328,347,367,387,409,428,447,467,487,507,527,547,567,587,608,627,648,667,687,708,727,749,767,787,808,829,848,867,887,908,928,949,968,988,1008,1027,1047,1067],"xSR":741.5,"ySR":469.95,"xT1":424.9,"yT1":0,"xT2":1058.1,"yT2":0,"toosoon":0,"cond_shown":"equaldotanddens","ratio_trial":250,"smaller_num":"3","larger_num":"12","correct_side":2,"subjID":"Simon Cabrera","gender":"0","age":"10","school":"6"},{"start_time":1551901854974,"click_time":1551901855612,"finger_time":1551901855553,"fix_duration":439.0648143868662,"trial":28,"RT":579,"MT":59,"sideResp":1,"stimulus":"img/250/equaldotanddens/L/5_Ratio_250_L_24_R_6.png","xmouse":[761,762,762,763,763,763,764,764,764,764,764,764,764,764,764,764,764,764,764,764,764,764,764,764,764,764,764,764,733,662,560,522],"ymouse":[523,523,523,524,524,524,524,524,524,524,524,524,524,524,524,524,524,524,524,524,524,524,524,524,524,524,524,524,448,292,100,34],"timestamp_mouse":[7,18,60,79,98,120,139,158,179,198,219,239,258,278,298,318,338,358,378,399,419,438,458,479,499,519,540,558,579,599,619,638],"xSR":741.5,"ySR":469.95,"xT1":424.9,"yT1":0,"xT2":1058.1,"yT2":0,"toosoon":0,"cond_shown":"equaldotanddens","ratio_trial":250,"smaller_num":"6","larger_num":"24","correct_side":1,"subjID":"Simon Cabrera","gender":"0","age":"10","school":"6"},{"start_time":1551901857767,"click_time":1551901858834,"finger_time":1551901858454,"fix_duration":833.5438158296703,"trial":29,"RT":687,"MT":380,"sideResp":1,"stimulus":"img/900/equaldotsize/L/1_Ratio_900_L_10_R_9.png","xmouse":[777,777,777,777,777,777,777,777,777,777,777,777,777,777,777,777,777,777,777,777,777,777,777,777,777,777,777,777,777,777,777,777,782,783,783,780,779,777,771,762,734,696,671,666,658,646,631,591,574,558,542,526,514],"ymouse":[491,491,491,491,491,491,491,491,491,491,491,491,491,491,491,491,491,491,491,491,491,491,491,491,491,491,491,491,491,491,491,491,477,462,450,440,437,433,414,388,326,253,224,220,210,191,164,112,93,81,71,61,54],"timestamp_mouse":[13,45,65,85,105,126,145,165,186,207,226,246,266,286,308,326,345,366,386,405,426,445,465,486,507,526,547,566,586,606,625,645,665,687,706,728,746,765,789,808,826,847,866,886,905,926,945,965,985,1007,1026,1046,1066],"xSR":741.5,"ySR":469.95,"xT1":424.9,"yT1":0,"xT2":1058.1,"yT2":0,"toosoon":0,"cond_shown":"equaldotsize","ratio_trial":900,"smaller_num":"9","larger_num":"10","correct_side":1,"subjID":"Simon Cabrera","gender":"0","age":"10","school":"6"},{"start_time":1551901859984,"click_time":1551901861214,"finger_time":1551901860414,"fix_duration":250,"trial":30,"RT":430,"MT":800,"sideResp":2,"stimulus":"img/750/randomdotsizeEA/L/10_Ratio_750_L_4_R_3.png","xmouse":[838,838,838,838,838,838,838,838,838,838,838,838,838,838,838,838,838,839,839,828,792,784,783,783,783,783,783,783,783,783,783,788,791,791,791,791,791,791,792,842,958,1047,1061,1070,1083,1098,1106,1112,1119,1131,1138,1145,1150,1154,1156,1158,1158,1158,1158,1158,1158],"ymouse":[487,487,487,487,487,487,487,487,487,487,487,487,487,487,487,487,487,488,494,522,590,606,608,608,608,608,608,608,608,608,608,587,570,570,570,570,570,570,566,487,332,239,231,228,224,215,210,208,205,196,185,176,172,162,153,144,131,124,113,100,96],"timestamp_mouse":[13,49,68,90,108,128,149,169,189,209,229,249,268,288,309,328,348,369,390,410,430,449,470,489,509,530,548,569,588,609,628,648,669,690,710,729,749,768,788,809,830,848,868,888,908,928,948,968,988,1008,1028,1048,1069,1090,1110,1128,1148,1169,1189,1210,1230],"xSR":741.5,"ySR":469.95,"xT1":424.9,"yT1":0,"xT2":1058.1,"yT2":0,"toosoon":0,"cond_shown":"randomdotsizeEA","ratio_trial":750,"smaller_num":"3","larger_num":"4","correct_side":1,"subjID":"Simon Cabrera","gender":"0","age":"10","school":"6"},{"start_time":1551901862459,"click_time":1551901863332,"finger_time":1551901863232,"fix_duration":324.09484058017057,"trial":31,"RT":773,"MT":100,"sideResp":1,"stimulus":"img/900/equaldotsize/R/13_Ratio_900_L_18_R_20.png","xmouse":[786,786,786,786,786,786,786,786,786,786,786,786,786,786,786,786,786,786,786,786,786,786,786,786,786,786,786,786,786,786,786,786,786,786,786,786,786,779,717,670,625,625,529,492],"ymouse":[495,495,495,495,495,495,495,495,495,495,495,495,495,495,495,495,495,495,495,495,495,495,495,495,495,495,495,495,495,495,495,495,495,495,495,495,495,486,397,331,268,268,141,89],"timestamp_mouse":[14,33,56,73,93,113,134,154,173,193,214,233,253,273,294,314,333,353,373,393,413,433,454,473,494,513,534,555,573,594,614,634,653,673,694,714,733,754,773,798,819,834,854,873],"xSR":741.5,"ySR":469.95,"xT1":424.9,"yT1":0,"xT2":1058.1,"yT2":0,"toosoon":0,"cond_shown":"equaldotsize","ratio_trial":900,"smaller_num":"18","larger_num":"20","correct_side":2,"subjID":"Simon Cabrera","gender":"0","age":"10","school":"6"},{"start_time":1551901864466,"click_time":1551901865292,"finger_time":1551901864872,"fix_duration":250,"trial":32,"RT":406,"MT":420,"sideResp":2,"stimulus":"img/500/equaldotsize/R/12_Ratio_500_L_1_R_2.png","xmouse":[790,790,790,790,790,790,790,790,790,790,790,790,790,790,790,790,790,790,790,810,921,1041,1119,1125,1125,1125,1125,1125,1125,1125,1125,1125,1125,1125,1125,1125,1125,1125,1125,1125,1122,1115],"ymouse":[515,515,515,515,515,515,515,515,515,515,515,515,515,515,515,515,515,515,515,475,336,208,145,140,140,140,140,140,140,140,140,140,140,140,140,140,140,140,140,131,105,80],"timestamp_mouse":[13,45,46,66,87,106,126,146,167,187,206,226,246,267,287,308,327,346,366,386,406,426,447,469,487,506,526,547,566,586,606,626,646,666,686,708,727,746,766,787,808,826],"xSR":741.5,"ySR":469.95,"xT1":424.9,"yT1":0,"xT2":1058.1,"yT2":0,"toosoon":0,"cond_shown":"equaldotsize","ratio_trial":500,"smaller_num":"1","larger_num":"2","correct_side":2,"subjID":"Simon Cabrera","gender":"0","age":"10","school":"6"},{"start_time":1551901866484,"click_time":1551901867392,"finger_time":1551901867132,"fix_duration":250,"trial":33,"RT":648,"MT":260,"sideResp":1,"stimulus":"img/750/equaldotanddens/L/14_Ratio_750_L_8_R_6.png","xmouse":[781,781,781,781,781,781,781,781,781,781,781,781,781,781,781,781,781,781,781,781,781,781,781,781,781,781,781,781,781,781,781,779,743,711,680,670,661,634,617,610,605,604,597,582,554,505],"ymouse":[532,532,532,532,532,532,532,532,532,532,532,532,532,532,532,532,532,532,532,532,532,532,532,532,532,532,532,532,532,532,532,532,448,392,343,326,310,265,236,222,211,204,180,157,126,85],"timestamp_mouse":[12,28,48,68,89,108,128,148,169,189,209,228,248,269,289,308,328,348,369,389,409,428,448,468,488,509,528,548,568,589,608,629,648,672,690,708,730,748,769,788,809,828,849,868,890,908],"xSR":741.5,"ySR":469.95,"xT1":424.9,"yT1":0,"xT2":1058.1,"yT2":0,"toosoon":0,"cond_shown":"equaldotanddens","ratio_trial":750,"smaller_num":"6","larger_num":"8","correct_side":1,"subjID":"Simon Cabrera","gender":"0","age":"10","school":"6"},{"start_time":1551901868206,"click_time":1551901869032,"finger_time":1551901868692,"fix_duration":250,"trial":34,"RT":486,"MT":340,"sideResp":1,"stimulus":"img/250/equaldotsize/L/3_Ratio_250_L_8_R_2.png","xmouse":[795,795,795,795,795,795,795,795,795,795,795,795,795,795,795,795,795,795,795,795,795,795,795,781,756,706,627,614,609,606,601,583,576,571,568,563,551,543,536,528,507,472],"ymouse":[528,528,528,528,528,528,528,528,528,528,528,528,528,528,528,528,528,528,528,528,528,528,528,494,453,385,295,282,272,263,255,213,196,185,177,169,153,144,137,130,113,80],"timestamp_mouse":[14,27,52,67,88,107,127,147,166,186,207,226,246,266,286,308,327,347,366,387,408,427,446,466,486,506,526,551,567,586,606,626,648,668,687,707,727,747,766,786,806,826],"xSR":741.5,"ySR":469.95,"xT1":424.9,"yT1":0,"xT2":1058.1,"yT2":0,"toosoon":0,"cond_shown":"equaldotsize","ratio_trial":250,"smaller_num":"2","larger_num":"8","correct_side":1,"subjID":"Simon Cabrera","gender":"0","age":"10","school":"6"},{"start_time":1551901870797,"click_time":1551901871774,"finger_time":1551901871432,"fix_duration":962.3817152044988,"trial":35,"RT":635,"MT":342,"sideResp":2,"stimulus":"img/750/equaldotsize/R/12_Ratio_750_L_3_R_4.png","xmouse":[777,777,777,777,777,777,777,777,777,777,777,777,777,777,777,777,777,777,777,777,777,777,777,777,777,777,777,777,777,777,785,850,877,916,916,951,955,958,967,980,1010,1049,1064,1075,1084,1090,1102,1108,1113],"ymouse":[525,525,525,525,525,525,525,525,525,525,525,525,525,525,525,525,525,525,525,525,525,525,525,525,525,525,525,525,525,525,514,428,398,369,369,342,339,333,321,306,272,219,193,172,155,140,111,100,88],"timestamp_mouse":[15,51,56,76,95,116,135,156,176,195,215,236,255,275,296,315,336,357,376,395,416,435,455,476,496,516,535,555,575,596,617,635,659,680,695,716,735,756,775,795,816,835,855,876,896,916,936,956,977],"xSR":741.5,"ySR":469.95,"xT1":424.9,"yT1":0,"xT2":1058.1,"yT2":0,"toosoon":0,"cond_shown":"equaldotsize","ratio_trial":750,"smaller_num":"3","larger_num":"4","correct_side":2,"subjID":"Simon Cabrera","gender":"0","age":"10","school":"6"},{"start_time":1551901872761,"click_time":1551901873694,"finger_time":1551901873252,"fix_duration":448.64880036528,"trial":36,"RT":491,"MT":442,"sideResp":2,"stimulus":"img/500/equaldotsize/R/12_Ratio_500_L_1_R_2.png","xmouse":[788,788,788,788,788,788,788,788,788,788,788,788,788,788,788,788,788,788,788,788,788,788,813,845,884,915,940,971,978,983,986,988,997,998,998,998,998,1003,1008,1018,1027,1033,1044,1048,1055,1060],"ymouse":[556,556,556,556,556,556,556,556,556,556,556,556,556,556,556,556,556,556,556,556,556,556,512,466,413,369,331,263,235,213,196,181,147,142,141,141,141,137,131,124,118,113,104,100,95,92],"timestamp_mouse":[13,56,72,91,111,131,151,171,192,211,232,251,271,292,313,331,352,371,392,412,432,451,471,491,512,532,553,572,592,612,632,652,672,692,712,733,752,772,792,812,832,853,872,892,911,933],"xSR":741.5,"ySR":469.95,"xT1":424.9,"yT1":0,"xT2":1058.1,"yT2":0,"toosoon":0,"cond_shown":"equaldotsize","ratio_trial":500,"smaller_num":"1","larger_num":"2","correct_side":2,"subjID":"Simon Cabrera","gender":"0","age":"10","school":"6"},{"start_time":1551901875804,"click_time":1551901876613,"finger_time":1551901876114,"fix_duration":1370.5916413584753,"trial":37,"RT":310,"MT":499,"sideResp":2,"stimulus":"img/250/equaldotsize/R/8_Ratio_250_L_1_R_4.png","xmouse":[806,806,806,806,806,806,806,806,806,806,806,809,811,812,814,817,824,837,841,842,844,851,861,874,894,921,954,964,971,976,985,1005,1011,1018,1024,1031,1043,1046,1050,1056,1059],"ymouse":[483,483,483,483,483,483,483,483,483,483,483,479,476,474,470,464,451,429,423,421,420,410,398,381,357,325,277,257,238,221,203,158,145,133,121,112,95,90,87,81,79],"timestamp_mouse":[14,44,48,69,90,108,128,149,169,188,208,228,248,268,289,310,329,349,370,389,410,429,448,468,489,508,529,548,569,588,610,628,649,668,688,710,729,748,769,788,808],"xSR":741.5,"ySR":469.95,"xT1":424.9,"yT1":0,"xT2":1058.1,"yT2":0,"toosoon":0,"cond_shown":"equaldotsize","ratio_trial":250,"smaller_num":"1","larger_num":"4","correct_side":2,"subjID":"Simon Cabrera","gender":"0","age":"10","school":"6"},{"start_time":1551901878094,"click_time":1551901879092,"finger_time":1551901878553,"fix_duration":761.5131395046413,"trial":38,"RT":459,"MT":539,"sideResp":2,"stimulus":"img/750/equaldotanddens/R/5_Ratio_750_L_15_R_20.png","xmouse":[801,801,801,801,801,801,801,801,801,801,801,801,801,801,801,801,801,801,801,802,804,814,820,824,831,838,847,866,875,880,887,906,913,918,920,921,924,934,940,950,962,998,1017,1030,1040,1043,1049,1054,1057,1059],"ymouse":[512,512,512,512,512,512,512,512,512,512,512,512,512,512,512,512,512,512,512,510,503,477,465,459,446,434,415,371,351,337,320,280,265,252,246,244,238,223,214,203,189,150,133,120,109,105,97,91,88,86],"timestamp_mouse":[18,48,58,78,100,118,138,158,179,199,219,238,259,278,298,319,338,359,380,399,419,438,459,479,500,520,539,558,578,600,619,638,660,681,699,718,738,760,778,798,818,838,859,878,898,918,938,959,979,998],"xSR":741.5,"ySR":469.95,"xT1":424.9,"yT1":0,"xT2":1058.1,"yT2":0,"toosoon":0,"cond_shown":"equaldotanddens","ratio_trial":750,"smaller_num":"15","larger_num":"20","correct_side":2,"subjID":"Simon Cabrera","gender":"0","age":"10","school":"6"},{"start_time":1551901881586,"click_time":1551901883152,"finger_time":1551901882032,"fix_duration":250,"trial":39,"RT":446,"MT":1120,"sideResp":2,"stimulus":"img/900/randomdotsizeEA/L/8_Ratio_900_L_20_R_18.png","xmouse":[752,752,752,752,752,752,752,752,752,752,752,752,752,752,752,752,753,768,776,784,793,799,814,817,820,822,822,822,818,815,806,794,761,754,750,750,751,767,783,803,829,861,897,906,915,936,977,1065,1085,1089,1089,1089,1089,1089,1089,1089,1091,1092,1092,1092,1093,1095,1097,1099,1100,1102,1104,1106,1106,1107,1107,1107,1107,1110,1111,1111,1111,1113,1119],"ymouse":[533,533,533,533,533,533,533,533,533,533,533,533,533,533,533,533,532,525,518,511,502,494,468,458,447,432,417,395,383,372,356,339,294,282,272,263,250,226,215,205,193,182,172,170,166,159,148,133,131,130,130,130,130,130,130,130,129,124,122,119,116,114,110,108,107,106,105,104,104,104,103,103,103,103,102,102,102,101,97],"timestamp_mouse":[12,28,53,67,87,106,126,147,166,186,206,226,246,266,287,307,327,347,367,388,407,426,446,469,490,506,526,546,567,586,606,627,646,667,687,707,727,746,767,787,807,828,848,866,886,908,927,947,966,986,1008,1027,1047,1066,1088,1106,1126,1148,1168,1187,1206,1226,1247,1267,1287,1306,1326,1347,1366,1386,1406,1426,1446,1466,1487,1507,1526,1546,1566],"xSR":741.5,"ySR":469.95,"xT1":424.9,"yT1":0,"xT2":1058.1,"yT2":0,"toosoon":0,"cond_shown":"randomdotsizeEA","ratio_trial":900,"smaller_num":"18","larger_num":"20","correct_side":1,"subjID":"Simon Cabrera","gender":"0","age":"10","school":"6"},{"start_time":1551901885347,"click_time":1551901885654,"finger_time":1551901885473,"fix_duration":874.9406753090185,"trial":40,"RT":126,"MT":181,"sideResp":1,"stimulus":"img/900/randomdotsizeEA/R/9_Ratio_900_L_18_R_20.png","xmouse":[822,822,822,822,811,774,737,706,685,624,571,571,539,527,523,507],"ymouse":[507,507,507,507,501,474,455,436,417,345,266,266,204,168,141,85],"timestamp_mouse":[11,25,49,65,85,105,126,146,166,193,215,227,246,266,287,307],"xSR":741.5,"ySR":469.95,"xT1":424.9,"yT1":0,"xT2":1058.1,"yT2":0,"toosoon":0,"cond_shown":"randomdotsizeEA","ratio_trial":900,"smaller_num":"18","larger_num":"20","correct_side":2,"subjID":"Simon Cabrera","gender":"0","age":"10","school":"6"},{"start_time":1551901887748,"click_time":1551901889232,"finger_time":1551901888074,"fix_duration":1235.0634432076024,"trial":41,"RT":326,"MT":1158,"sideResp":1,"stimulus":"img/750/equaldotsize/L/14_Ratio_750_L_8_R_6.png","xmouse":[816,816,816,816,816,816,816,816,816,816,816,816,816,818,836,864,911,983,1150,1203,1237,1257,1266,1278,1281,1282,1283,1283,1283,1283,1283,1283,1283,1283,1283,1283,1283,1283,1283,1283,1283,1283,1283,1267,1267,1268,1268,1268,1251,1230,1195,1151,1118,1050,1002,937,872,811,720,688,660,641,627,592,592,592,592,592,592,592,592,592,592,480],"ymouse":[549,549,549,549,549,549,549,549,549,549,549,549,549,548,526,483,427,355,208,151,109,79,61,26,10,1,0,0,0,0,0,0,0,0,0,0,0,0,0,0,0,0,0,49,80,113,144,166,195,209,224,244,252,254,234,206,176,143,86,69,53,43,33,12,12,12,12,12,12,12,12,12,12,21],"timestamp_mouse":[11,44,65,84,104,124,145,165,185,205,224,245,265,285,305,326,346,365,386,406,425,444,464,484,505,524,544,564,584,604,624,645,665,685,705,725,744,764,784,804,824,845,864,885,906,924,944,964,984,1004,1024,1044,1064,1084,1105,1124,1145,1165,1185,1204,1225,1245,1265,1284,1304,1324,1345,1364,1385,1405,1424,1444,1464,1484],"xSR":741.5,"ySR":469.95,"xT1":424.9,"yT1":0,"xT2":1058.1,"yT2":0,"toosoon":0,"cond_shown":"equaldotsize","ratio_trial":750,"smaller_num":"6","larger_num":"8","correct_side":1,"subjID":"Simon Cabrera","gender":"0","age":"10","school":"6"},{"start_time":1551901890467,"click_time":1551901891632,"finger_time":1551901891052,"fix_duration":433.79313701713585,"trial":42,"RT":585,"MT":580,"sideResp":1,"stimulus":"img/500/equaldotsize/L/5_Ratio_500_L_4_R_2.png","xmouse":[808,808,808,808,808,808,808,808,808,808,808,808,808,808,808,808,808,808,808,808,808,808,808,808,808,808,807,808,827,846,874,906,906,958,989,1018,1033,1054,1064,1081,1084,1085,1085,1085,1085,1085,1085,1085,1080,1063,1030,969,766,666,608,575,549,530,496],"ymouse":[537,537,537,537,537,537,537,537,537,537,537,537,537,537,537,537,537,537,537,537,537,537,537,537,537,537,536,534,517,502,472,428,428,349,307,269,250,224,211,187,183,181,181,181,181,181,181,181,183,192,208,230,257,231,185,136,81,47,3],"timestamp_mouse":[12,26,55,66,85,106,126,145,166,186,207,225,245,265,286,308,325,345,365,386,405,427,446,466,485,505,526,546,566,585,605,627,645,665,686,706,726,746,765,786,806,825,845,865,885,905,925,945,966,985,1006,1027,1046,1067,1087,1106,1125,1145,1165],"xSR":741.5,"ySR":469.95,"xT1":424.9,"yT1":0,"xT2":1058.1,"yT2":0,"toosoon":0,"cond_shown":"equaldotsize","ratio_trial":500,"smaller_num":"2","larger_num":"4","correct_side":1,"subjID":"Simon Cabrera","gender":"0","age":"10","school":"6"},{"start_time":1551901892992,"click_time":1551901894012,"finger_time":1551901893694,"fix_duration":359.5713341719944,"trial":43,"RT":702,"MT":318,"sideResp":1,"stimulus":"img/250/equaldotsize/L/14_Ratio_250_L_12_R_3.png","xmouse":[786,786,786,786,786,786,786,786,786,786,786,786,786,786,786,786,786,786,786,786,786,786,786,786,786,786,786,786,786,786,786,786,786,786,751,712,660,642,640,636,632,615,609,607,607,605,587,572,551,532,514],"ymouse":[544,544,544,544,544,544,544,544,544,544,544,544,544,544,544,544,544,544,544,544,544,544,544,544,544,544,544,544,544,544,544,544,544,518,430,348,260,221,208,196,181,141,125,122,121,119,110,103,95,87,82],"timestamp_mouse":[14,42,62,80,101,121,141,161,180,200,220,241,262,282,300,321,340,361,380,400,421,440,460,481,501,521,541,562,581,601,621,640,661,681,702,722,741,761,781,800,820,841,862,880,900,920,940,961,980,1000,1020],"xSR":741.5,"ySR":469.95,"xT1":424.9,"yT1":0,"xT2":1058.1,"yT2":0,"toosoon":0,"cond_shown":"equaldotsize","ratio_trial":250,"smaller_num":"3","larger_num":"12","correct_side":1,"subjID":"Simon Cabrera","gender":"0","age":"10","school":"6"},{"start_time":1551901895674,"click_time":1551901896792,"finger_time":1551901896274,"fix_duration":939.156503729187,"trial":44,"RT":600,"MT":518,"sideResp":2,"stimulus":"img/750/equaldotsize/R/4_Ratio_750_L_15_R_20.png","xmouse":[781,781,781,781,781,781,781,781,781,781,781,781,781,781,781,781,781,781,781,781,781,781,781,781,781,781,781,784,805,843,892,932,996,1029,1066,1104,1164,1225,1239,1246,1248,1252,1253,1253,1253,1251,1247,1234,1228,1221,1214,1192,1182,1172,1163,1156],"ymouse":[488,488,488,488,488,488,488,488,488,488,488,488,488,488,488,488,488,488,488,488,488,488,488,488,488,488,488,488,471,436,394,359,299,274,248,223,183,139,126,117,109,100,89,84,79,76,71,63,61,59,59,58,60,63,64,65],"timestamp_mouse":[18,45,59,78,98,118,139,159,179,209,219,239,259,278,299,319,338,358,378,398,419,439,459,479,498,519,539,558,578,600,620,640,658,678,700,719,738,758,779,799,819,838,859,879,899,919,938,958,978,999,1020,1039,1060,1079,1100,1118],"xSR":741.5,"ySR":469.95,"xT1":424.9,"yT1":0,"xT2":1058.1,"yT2":0,"toosoon":0,"cond_shown":"equaldotsize","ratio_trial":750,"smaller_num":"15","larger_num":"20","correct_side":2,"subjID":"Simon Cabrera","gender":"0","age":"10","school":"6"},{"start_time":1551901898703,"click_time":1551901899613,"finger_time":1551901899313,"fix_duration":1349.675145445325,"trial":45,"RT":610,"MT":300,"sideResp":1,"stimulus":"img/250/equaldotanddens/L/14_Ratio_250_L_12_R_3.png","xmouse":[790,790,790,790,790,790,790,790,790,790,790,790,790,790,790,790,790,790,790,790,790,790,790,790,790,790,790,790,790,782,713,654,540,499,439,403,358,353,352,352,352,366,383,400,416,428],"ymouse":[531,531,531,531,531,531,531,531,531,531,531,531,531,531,531,531,531,531,531,531,531,531,531,531,531,531,531,531,527,512,423,371,276,249,205,171,104,91,86,81,79,68,62,54,49,46],"timestamp_mouse":[14,37,49,69,90,110,129,149,170,191,209,229,249,270,290,309,329,349,369,390,409,430,449,470,490,509,530,549,569,589,610,635,657,670,689,709,730,749,770,789,809,829,850,870,890,910],"xSR":741.5,"ySR":469.95,"xT1":424.9,"yT1":0,"xT2":1058.1,"yT2":0,"toosoon":0,"cond_shown":"equaldotanddens","ratio_trial":250,"smaller_num":"3","larger_num":"12","correct_side":1,"subjID":"Simon Cabrera","gender":"0","age":"10","school":"6"},{"start_time":1551901901730,"click_time":1551901902613,"finger_time":1551901902453,"fix_duration":1375.857652690007,"trial":46,"RT":723,"MT":160,"sideResp":1,"stimulus":"img/250/randomdotsizeEA/L/7_Ratio_250_L_8_R_2.png","xmouse":[809,809,809,809,809,809,809,809,809,809,809,809,809,809,809,809,809,809,809,809,809,809,809,809,809,809,809,809,809,816,820,820,820,820,820,820,806,768,727,682,618,588,567,547,518],"ymouse":[530,530,530,530,530,530,530,530,530,530,530,530,530,530,530,530,530,530,530,530,530,530,530,530,530,530,530,530,530,507,497,497,497,497,497,494,464,395,328,265,175,131,101,75,42],"timestamp_mouse":[11,23,44,63,85,104,123,144,163,183,203,223,244,263,283,303,323,344,363,384,403,423,443,463,484,503,523,544,563,583,604,623,643,664,684,703,723,744,764,783,803,824,843,863,883],"xSR":741.5,"ySR":469.95,"xT1":424.9,"yT1":0,"xT2":1058.1,"yT2":0,"toosoon":0,"cond_shown":"randomdotsizeEA","ratio_trial":250,"smaller_num":"2","larger_num":"8","correct_side":1,"subjID":"Simon Cabrera","gender":"0","age":"10","school":"6"},{"start_time":1551901904986,"click_time":1551901906153,"finger_time":1551901905614,"fix_duration":250,"trial":47,"RT":628,"MT":539,"sideResp":2,"stimulus":"img/750/equaldotsize/R/11_Ratio_750_L_12_R_16.png","xmouse":[777,777,777,777,777,777,777,777,777,777,777,777,777,777,777,777,777,777,777,777,777,777,777,777,777,777,777,777,782,788,815,844,916,1025,1025,1226,1239,1244,1245,1246,1247,1263,1267,1269,1269,1269,1266,1254,1234,1212,1198,1193,1190,1186,1178,1172,1160,1158],"ymouse":[495,495,495,495,495,495,495,495,495,495,495,495,495,495,495,495,495,495,495,495,495,495,495,495,495,495,495,495,490,481,452,429,386,328,328,223,208,196,194,188,181,141,125,111,106,103,101,94,83,73,69,69,69,70,74,77,80,80],"timestamp_mouse":[13,47,67,87,108,127,147,167,187,208,227,248,268,287,308,327,348,367,388,408,429,447,467,487,507,527,547,567,587,608,628,653,675,693,707,728,747,767,787,808,827,847,867,888,907,928,947,967,987,1007,1027,1048,1068,1088,1108,1128,1147,1167],"xSR":741.5,"ySR":469.95,"xT1":424.9,"yT1":0,"xT2":1058.1,"yT2":0,"toosoon":0,"cond_shown":"equaldotsize","ratio_trial":750,"smaller_num":"12","larger_num":"16","correct_side":2,"subjID":"Simon Cabrera","gender":"0","age":"10","school":"6"},{"start_time":1551901911702,"click_time":1551901915314,"finger_time":1551901912653,"fix_duration":947.3288925927865,"trial":48,"RT":951,"MT":2661,"sideResp":2,"stimulus":"img/750/randomdotsizeEA/L/6_Ratio_750_L_24_R_18.png","xmouse":[800,800,800,800,800,800,800,800,800,800,800,799,799,799,799,799,799,799,799,799,799,799,799,799,799,799,799,799,799,799,799,799,799,799,799,799,804,808,814,817,818,818,818,818,818,818,818,818,818,818,818,818,816,809,803,793,754,746,724,714,701,648,621,600,591,589,588,586,585,584,584,584,585,586,587,589,599,604,606,609,611,617,622,628,633,650,657,664,673,673,673,673,673,673,673,673,673,673,673,673,673,673,673,673,673,673,673,673,673,673,673,673,673,673,673,673,673,673,673,673,673,673,673,673,673,673,673,673,673,673,673,673,673,673,673,673,673,673,673,673,673,673,673,673,673,673,711,741,772,791,810,842,861,875,892,903,915,924,929,933,943,955,969,990,1005,1018,1020,1020,1020,1023,1032,1048,1055,1060,1064,1067,1079,1090,1103,1117,1151],"ymouse":[524,524,524,524,524,524,524,524,524,524,524,523,523,523,523,523,523,523,523,523,523,523,523,523,523,523,523,523,523,523,523,523,523,523,521,517,509,501,492,487,486,486,486,486,484,476,471,463,444,433,423,404,391,377,360,343,296,289,274,268,265,256,251,247,246,246,246,247,250,251,254,256,258,260,265,272,297,306,312,317,323,337,349,362,378,446,498,540,566,566,566,566,566,566,566,566,566,566,566,566,566,566,566,566,566,566,566,566,566,566,566,566,566,566,566,566,566,566,566,566,566,566,566,566,566,566,566,566,566,566,566,566,566,566,566,566,566,566,566,566,566,566,566,566,566,566,515,475,446,431,418,396,386,377,364,356,345,338,333,331,324,317,309,298,290,283,282,282,282,281,277,267,260,245,226,210,179,155,132,106,44],"timestamp_mouse":[14,35,51,71,91,111,131,151,172,191,212,231,252,271,291,312,331,351,371,391,411,432,451,471,491,512,532,551,571,591,612,632,652,671,692,711,731,751,773,791,812,831,852,871,891,911,931,951,971,991,1011,1031,1051,1072,1091,1111,1131,1152,1172,1192,1211,1231,1251,1271,1292,1311,1332,1351,1372,1391,1411,1432,1452,1471,1492,1511,1531,1552,1571,1591,1611,1631,1651,1671,1691,1711,1732,1751,1772,1793,1811,1832,1852,1871,1891,1911,1932,1951,1971,1991,2011,2032,2051,2071,2091,2113,2133,2152,2171,2191,2211,2232,2251,2271,2291,2313,2332,2351,2372,2391,2411,2432,2451,2471,2491,2511,2531,2551,2571,2591,2612,2631,2652,2671,2691,2711,2731,2751,2771,2791,2811,2831,2852,2871,2892,2911,2931,2951,2972,2992,3011,3031,3051,3071,3091,3111,3132,3151,3171,3191,3211,3232,3252,3272,3291,3312,3332,3351,3371,3393,3412,3432,3451,3472,3492,3512,3532,3551,3572,3591,3612],"xSR":741.5,"ySR":469.95,"xT1":424.9,"yT1":0,"xT2":1058.1,"yT2":0,"toosoon":0,"cond_shown":"randomdotsizeEA","ratio_trial":750,"smaller_num":"18","larger_num":"24","correct_side":1,"subjID":"Simon Cabrera","gender":"0","age":"10","school":"6"},{"start_time":1551901916925,"click_time":1551901917714,"finger_time":1551901917494,"fix_duration":771.3216847148914,"trial":49,"RT":569,"MT":220,"sideResp":1,"stimulus":"img/250/equaldotanddens/L/14_Ratio_250_L_12_R_3.png","xmouse":[767,767,767,767,767,767,767,767,767,767,767,767,767,767,767,767,767,767,767,767,767,767,767,767,767,767,767,754,728,691,617,579,579,553,527,519,514,510,505],"ymouse":[500,500,500,500,500,500,500,500,500,500,500,500,500,500,500,500,500,500,500,500,500,500,500,500,500,500,491,457,415,362,267,217,217,174,127,115,108,103,97],"timestamp_mouse":[14,28,68,88,108,128,148,168,188,209,228,248,268,288,309,328,348,368,388,409,428,448,468,488,509,528,548,569,589,608,631,655,668,688,708,728,748,768,788],"xSR":741.5,"ySR":469.95,"xT1":424.9,"yT1":0,"xT2":1058.1,"yT2":0,"toosoon":0,"cond_shown":"equaldotanddens","ratio_trial":250,"smaller_num":"3","larger_num":"12","correct_side":1,"subjID":"Simon Cabrera","gender":"0","age":"10","school":"6"},{"start_time":1551901919690,"click_time":1551901920453,"finger_time":1551901920274,"fix_duration":374.3319720418901,"trial":50,"RT":584,"MT":179,"sideResp":2,"stimulus":"img/900/equaldotsize/L/8_Ratio_900_L_20_R_18.png","xmouse":[811,811,811,811,811,811,811,811,811,811,811,811,811,811,811,811,811,811,811,811,811,811,811,811,811,811,811,811,817,842,884,937,1018,1047,1060,1077,1097,1142,1158],"ymouse":[490,490,490,490,490,490,490,490,490,490,490,490,490,490,490,490,490,490,490,490,490,490,490,490,490,490,490,490,490,469,418,356,246,202,181,161,142,106,89],"timestamp_mouse":[13,23,52,63,83,103,124,144,163,183,204,223,243,263,283,307,324,343,363,384,404,424,443,463,483,504,523,544,563,584,603,623,643,663,683,703,723,743,763],"xSR":741.5,"ySR":469.95,"xT1":424.9,"yT1":0,"xT2":1058.1,"yT2":0,"toosoon":0,"cond_shown":"equaldotsize","ratio_trial":900,"smaller_num":"18","larger_num":"20","correct_side":1,"subjID":"Simon Cabrera","gender":"0","age":"10","school":"6"},{"start_time":1551901922509,"click_time":1551901923395,"finger_time":1551901923073,"fix_duration":1114.9801626176597,"trial":51,"RT":564,"MT":322,"sideResp":2,"stimulus":"img/250/randomdotsizeEA/R/13_Ratio_250_L_2_R_8.png","xmouse":[777,777,777,777,777,777,777,777,777,777,777,777,777,777,777,777,777,777,777,777,777,777,776,776,776,782,784,797,816,836,870,884,900,914,927,953,968,977,985,995,1028,1048,1058,1063],"ymouse":[534,534,534,534,534,534,534,534,534,534,534,534,534,534,534,534,534,534,534,534,534,534,532,530,525,492,484,446,403,357,288,258,225,201,177,134,110,98,88,76,50,41,36,35],"timestamp_mouse":[12,51,64,84,104,124,145,164,184,204,224,245,264,285,308,324,344,364,384,405,424,444,465,484,504,524,545,564,584,605,625,645,664,685,704,725,745,764,785,805,824,844,865,886],"xSR":741.5,"ySR":469.95,"xT1":424.9,"yT1":0,"xT2":1058.1,"yT2":0,"toosoon":0,"cond_shown":"randomdotsizeEA","ratio_trial":250,"smaller_num":"2","larger_num":"8","correct_side":2,"subjID":"Simon Cabrera","gender":"0","age":"10","school":"6"},{"start_time":1551901926896,"click_time":1551901927873,"finger_time":1551901927553,"fix_duration":1400.9557128428394,"trial":52,"RT":657,"MT":320,"sideResp":1,"stimulus":"img/900/randomdotsizeEA/L/1_Ratio_900_L_10_R_9.png","xmouse":[759,759,759,759,759,759,759,759,759,759,759,759,759,759,761,761,767,772,776,778,778,778,778,778,778,778,778,778,778,778,778,777,753,725,696,663,641,624,615,608,591,577,564,554,547,536,527,512,497],"ymouse":[551,551,551,551,551,551,551,551,551,551,551,551,551,551,551,551,533,522,509,505,504,504,504,504,504,504,504,504,504,504,503,493,461,424,386,339,306,283,268,259,232,214,195,180,171,155,140,120,98],"timestamp_mouse":[18,49,58,77,97,117,137,157,178,198,217,239,257,278,299,318,338,357,377,398,417,437,457,477,497,518,538,558,577,597,617,638,657,679,697,717,741,758,778,797,818,838,857,878,898,917,939,958,977],"xSR":741.5,"ySR":469.95,"xT1":424.9,"yT1":0,"xT2":1058.1,"yT2":0,"toosoon":0,"cond_shown":"randomdotsizeEA","ratio_trial":900,"smaller_num":"9","larger_num":"10","correct_side":1,"subjID":"Simon Cabrera","gender":"0","age":"10","school":"6"},{"start_time":1551901929752,"click_time":1551901931134,"finger_time":1551901930413,"fix_duration":1316.01752545009,"trial":53,"RT":661,"MT":721,"sideResp":1,"stimulus":"img/900/equaldotsize/L/2_Ratio_900_L_20_R_18.png","xmouse":[832,832,832,832,832,832,832,832,832,832,832,832,832,832,832,832,832,832,832,832,832,832,832,832,832,832,832,832,832,832,832,832,832,844,854,862,865,865,865,864,856,845,829,775,735,704,690,679,647,629,606,584,560,518,504,498,492,489,488,487,486,485,484,484,484,484,484,484,486,486],"ymouse":[548,548,548,548,548,548,548,548,548,548,548,548,548,548,548,548,548,548,548,548,548,548,548,548,548,548,548,548,548,548,548,548,548,526,503,483,476,473,471,465,448,429,404,329,281,251,241,235,220,213,203,193,180,148,139,134,129,125,121,120,116,113,111,108,108,106,104,103,101,99],"timestamp_mouse":[15,21,48,61,82,101,121,141,161,181,202,221,241,261,281,307,321,341,361,382,402,421,441,461,481,502,521,543,562,581,602,621,642,661,686,707,722,742,761,782,801,822,842,861,881,901,921,941,962,981,1002,1021,1041,1061,1081,1102,1121,1141,1161,1182,1201,1221,1243,1261,1282,1301,1322,1341,1361,1382],"xSR":741.5,"ySR":469.95,"xT1":424.9,"yT1":0,"xT2":1058.1,"yT2":0,"toosoon":0,"cond_shown":"equaldotsize","ratio_trial":900,"smaller_num":"18","larger_num":"20","correct_side":1,"subjID":"Simon Cabrera","gender":"0","age":"10","school":"6"},{"start_time":1551901933527,"click_time":1551901934993,"finger_time":1551901934033,"fix_duration":1192.8922115530809,"trial":54,"RT":506,"MT":960,"sideResp":2,"stimulus":"img/750/randomdotsizeEA/R/11_Ratio_750_L_12_R_16.png","xmouse":[814,814,814,814,814,814,814,814,814,814,814,814,814,814,814,814,814,814,813,816,820,822,824,827,831,834,836,840,844,868,885,903,921,937,975,989,1003,1009,1013,1017,1021,1022,1023,1023,1023,1024,1027,1027,1019,1014,1014,1014,1014,1014,1014,1014,1014,1014,1014,1014,1014,1014,1014,1013,1013,1013,1019,1040,1053,1069,1076,1083,1089,1098],"ymouse":[546,546,546,546,546,546,546,546,546,546,546,546,546,546,546,546,546,546,546,528,516,507,500,491,472,462,455,442,429,392,376,365,354,344,327,321,314,312,311,310,309,309,309,309,309,317,331,382,463,516,516,516,516,516,516,516,516,516,516,516,516,516,516,505,461,437,403,335,291,202,163,133,113,96],"timestamp_mouse":[14,42,46,66,86,106,127,147,166,186,206,226,247,267,286,308,326,347,367,386,406,426,447,466,486,506,526,546,566,587,606,627,646,666,686,707,727,746,767,786,806,827,846,866,886,906,926,946,967,986,1006,1026,1046,1066,1087,1106,1127,1146,1167,1187,1206,1227,1246,1266,1286,1306,1327,1347,1366,1386,1406,1426,1446,1466],"xSR":741.5,"ySR":469.95,"xT1":424.9,"yT1":0,"xT2":1058.1,"yT2":0,"toosoon":0,"cond_shown":"randomdotsizeEA","ratio_trial":750,"smaller_num":"12","larger_num":"16","correct_side":2,"subjID":"Simon Cabrera","gender":"0","age":"10","school":"6"},{"start_time":1551901936264,"click_time":1551901937133,"finger_time":1551901936513,"fix_duration":250,"trial":55,"RT":249,"MT":620,"sideResp":2,"stimulus":"img/500/randomdotsizeEA/R/15_Ratio_500_L_1_R_2.png","xmouse":[809,809,809,809,809,809,809,809,809,809,809,809,764,764,764,764,764,764,764,764,764,764,764,764,764,764,764,764,764,765,767,769,770,777,794,827,868,927,948,975,994,1017,1035,1075],"ymouse":[512,512,512,512,512,512,512,512,512,512,512,515,607,607,607,607,607,607,607,607,607,607,607,607,607,607,607,607,607,605,603,602,598,577,537,473,399,298,263,222,200,174,150,90],"timestamp_mouse":[13,30,60,69,90,109,129,149,171,190,209,229,249,274,295,309,330,349,370,389,410,429,449,469,489,509,529,549,569,590,609,629,649,670,689,710,729,749,772,789,810,829,849,869],"xSR":741.5,"ySR":469.95,"xT1":424.9,"yT1":0,"xT2":1058.1,"yT2":0,"toosoon":0,"cond_shown":"randomdotsizeEA","ratio_trial":500,"smaller_num":"1","larger_num":"2","correct_side":2,"subjID":"Simon Cabrera","gender":"0","age":"10","school":"6"},{"start_time":1551901939240,"click_time":1551901940174,"finger_time":1551901939953,"fix_duration":525.4072984743433,"trial":56,"RT":713,"MT":221,"sideResp":2,"stimulus":"img/750/randomdotsizeEA/R/15_Ratio_750_L_9_R_12.png","xmouse":[770,770,770,770,770,770,770,770,770,770,770,770,770,770,770,770,770,770,770,770,770,771,771,771,771,772,772,772,772,772,772,775,777,785,805,832,858,896,920,961,1012,1028,1047,1068,1079,1093,1106],"ymouse":[498,498,498,498,498,498,498,498,498,498,498,498,498,498,498,498,499,499,499,499,499,499,499,499,499,499,499,499,499,499,499,498,497,492,474,449,424,377,351,303,235,213,185,145,125,106,87],"timestamp_mouse":[14,34,62,73,93,113,133,153,173,193,213,234,253,273,293,313,333,354,373,393,414,433,453,474,493,513,533,553,573,593,613,633,654,674,694,713,733,754,773,793,813,834,854,873,893,913,934],"xSR":741.5,"ySR":469.95,"xT1":424.9,"yT1":0,"xT2":1058.1,"yT2":0,"toosoon":0,"cond_shown":"randomdotsizeEA","ratio_trial":750,"smaller_num":"9","larger_num":"12","correct_side":2,"subjID":"Simon Cabrera","gender":"0","age":"10","school":"6"},{"start_time":1551901942388,"click_time":1551901943154,"finger_time":1551901943033,"fix_duration":1254.1287906587938,"trial":57,"RT":645,"MT":121,"sideResp":2,"stimulus":"img/250/randomdotsizeEA/R/11_Ratio_250_L_3_R_12.png","xmouse":[831,831,831,831,831,831,831,831,831,831,831,831,831,831,831,831,831,831,831,831,831,831,831,831,831,831,831,831,831,831,831,834,849,875,927,956,1037,1055,1060],"ymouse":[486,486,486,486,486,486,486,486,486,486,486,486,486,486,486,486,486,486,486,486,486,486,486,486,486,486,486,486,486,486,486,486,471,435,354,313,145,85,67],"timestamp_mouse":[13,40,45,65,86,105,125,145,165,185,205,225,245,265,285,309,326,346,365,385,406,425,445,465,485,506,526,545,565,586,605,626,645,666,688,706,733,747,766],"xSR":741.5,"ySR":469.95,"xT1":424.9,"yT1":0,"xT2":1058.1,"yT2":0,"toosoon":0,"cond_shown":"randomdotsizeEA","ratio_trial":250,"smaller_num":"3","larger_num":"12","correct_side":2,"subjID":"Simon Cabrera","gender":"0","age":"10","school":"6"},{"start_time":1551901944916,"click_time":1551901945853,"finger_time":1551901945513,"fix_duration":1162.1341625858145,"trial":58,"RT":597,"MT":340,"sideResp":2,"stimulus":"img/250/equaldotanddens/R/9_Ratio_250_L_3_R_12.png","xmouse":[829,829,829,829,829,829,829,829,829,829,829,829,829,829,829,829,829,829,829,829,829,829,829,829,829,829,829,829,849,899,930,952,969,985,992,1001,1009,1019,1032,1036,1040,1042,1044,1052,1058,1063],"ymouse":[510,510,510,510,510,510,510,510,510,510,510,510,510,510,510,510,510,510,510,510,510,510,510,510,510,510,510,510,476,375,300,253,217,182,165,147,133,116,97,90,87,85,83,78,76,74],"timestamp_mouse":[46,58,77,97,118,138,157,177,198,217,237,258,278,297,318,337,358,377,397,417,437,457,477,498,517,537,558,578,597,621,643,659,677,697,717,737,758,777,797,818,837,858,877,897,917,937],"xSR":741.5,"ySR":469.95,"xT1":424.9,"yT1":0,"xT2":1058.1,"yT2":0,"toosoon":0,"cond_shown":"equaldotanddens","ratio_trial":250,"smaller_num":"3","larger_num":"12","correct_side":2,"subjID":"Simon Cabrera","gender":"0","age":"10","school":"6"},{"start_time":1551901947743,"click_time":1551901948634,"finger_time":1551901948433,"fix_duration":1288.9365784221102,"trial":59,"RT":690,"MT":201,"sideResp":2,"stimulus":"img/500/equaldotanddens/R/15_Ratio_500_L_1_R_2.png","xmouse":[786,786,786,786,786,786,786,786,786,786,786,786,786,786,786,786,786,786,786,786,786,786,786,786,786,786,786,786,787,787,788,789,793,823,846,877,915,927,966,979,992,1011,1027,1055,1061],"ymouse":[491,491,491,491,491,491,491,491,491,491,491,491,491,491,491,491,491,491,491,491,491,491,491,491,492,492,492,492,493,494,494,495,495,487,471,445,394,373,280,248,214,175,142,100,94],"timestamp_mouse":[11,31,65,70,91,111,130,151,170,190,210,230,250,271,291,310,331,351,370,390,410,430,450,471,490,510,530,550,570,590,610,631,651,670,690,711,734,750,780,794,810,831,851,870,891],"xSR":741.5,"ySR":469.95,"xT1":424.9,"yT1":0,"xT2":1058.1,"yT2":0,"toosoon":0,"cond_shown":"equaldotanddens","ratio_trial":500,"smaller_num":"1","larger_num":"2","correct_side":2,"subjID":"Simon Cabrera","gender":"0","age":"10","school":"6"},{"start_time":1551901951072,"click_time":1551901952054,"finger_time":1551901951775,"fix_duration":358.06665068217427,"trial":60,"RT":703,"MT":279,"sideResp":1,"stimulus":"img/900/randomdotsizeEA/R/3_Ratio_900_L_9_R_10.png","xmouse":[776,776,776,776,776,776,776,776,776,776,776,776,776,776,776,776,776,776,776,776,776,776,776,776,776,776,776,776,776,776,776,776,778,790,819,858,902,919,919,920,920,920,920,910,871,797,622,551,514],"ymouse":[530,530,530,530,530,530,530,530,530,530,530,530,530,530,530,530,530,530,530,530,530,530,530,530,530,530,530,530,530,530,530,530,528,517,467,405,338,301,298,295,295,295,295,294,287,262,162,100,57],"timestamp_mouse":[14,44,61,82,101,121,141,162,181,201,221,241,262,281,309,321,342,361,381,402,422,441,461,481,501,521,541,562,581,601,621,642,662,681,703,722,741,761,782,805,821,841,861,881,901,922,941,962,982],"xSR":741.5,"ySR":469.95,"xT1":424.9,"yT1":0,"xT2":1058.1,"yT2":0,"toosoon":0,"cond_shown":"randomdotsizeEA","ratio_trial":900,"smaller_num":"9","larger_num":"10","correct_side":2,"subjID":"Simon Cabrera","gender":"0","age":"10","school":"6"},{"start_time":1551901953842,"click_time":1551901954413,"finger_time":1551901954073,"fix_duration":987.3777634956357,"trial":61,"RT":231,"MT":340,"sideResp":2,"stimulus":"img/750/equaldotsize/R/12_Ratio_750_L_3_R_4.png","xmouse":[762,762,762,762,762,762,762,763,764,769,776,790,796,855,906,964,1010,1030,1045,1050,1058,1069,1088,1100,1101,1103,1109,1113,1119],"ymouse":[483,483,483,483,483,483,483,483,483,479,474,462,456,401,357,299,250,221,201,194,186,173,151,135,133,128,115,105,82],"timestamp_mouse":[13,40,52,71,91,111,131,153,172,191,212,231,251,271,292,311,331,351,371,392,412,431,451,471,492,512,531,552,571],"xSR":741.5,"ySR":469.95,"xT1":424.9,"yT1":0,"xT2":1058.1,"yT2":0,"toosoon":0,"cond_shown":"equaldotsize","ratio_trial":750,"smaller_num":"3","larger_num":"4","correct_side":2,"subjID":"Simon Cabrera","gender":"0","age":"10","school":"6"},{"start_time":1551901955503,"click_time":1551901956354,"finger_time":1551901956013,"fix_duration":327.4679722856666,"trial":62,"RT":510,"MT":341,"sideResp":1,"stimulus":"img/250/equaldotanddens/L/2_Ratio_250_L_16_R_4.png","xmouse":[821,821,821,821,821,821,821,821,821,821,821,821,821,821,821,821,821,821,821,821,821,821,821,821,819,744,677,581,555,503,463,447,433,422,415,412,411,411,411,411,417,422,428],"ymouse":[534,534,534,534,534,534,534,534,534,534,534,534,534,534,534,534,534,534,534,534,534,534,533,533,532,421,350,264,241,196,152,134,117,102,92,84,78,74,70,70,61,55,50],"timestamp_mouse":[14,48,50,70,90,111,131,151,170,190,211,230,250,270,291,311,330,351,370,390,411,430,450,470,490,510,534,555,570,590,610,630,650,670,692,710,730,751,773,790,812,830,851],"xSR":741.5,"ySR":469.95,"xT1":424.9,"yT1":0,"xT2":1058.1,"yT2":0,"toosoon":0,"cond_shown":"equaldotanddens","ratio_trial":250,"smaller_num":"4","larger_num":"16","correct_side":1,"subjID":"Simon Cabrera","gender":"0","age":"10","school":"6"},{"start_time":1551901957605,"click_time":1551901958295,"finger_time":1551901958053,"fix_duration":250,"trial":63,"RT":448,"MT":242,"sideResp":2,"stimulus":"img/900/equaldotanddens/R/9_Ratio_900_L_18_R_20.png","xmouse":[805,805,805,805,805,805,805,805,805,805,805,805,805,805,805,805,805,805,805,805,805,805,806,815,851,886,926,967,1003,1035,1042,1050,1058,1068],"ymouse":[530,530,530,530,530,530,530,530,530,530,530,530,530,530,530,530,530,516,499,479,474,469,463,446,385,336,286,240,199,156,144,131,115,91],"timestamp_mouse":[11,51,68,89,109,128,148,168,189,209,228,248,270,288,309,328,349,368,388,408,428,448,470,489,508,530,548,569,588,608,629,649,669,690],"xSR":741.5,"ySR":469.95,"xT1":424.9,"yT1":0,"xT2":1058.1,"yT2":0,"toosoon":0,"cond_shown":"equaldotanddens","ratio_trial":900,"smaller_num":"18","larger_num":"20","correct_side":2,"subjID":"Simon Cabrera","gender":"0","age":"10","school":"6"},{"start_time":1551901960213,"click_time":1551901961715,"finger_time":1551901960537,"fix_duration":1218.2398347941328,"trial":64,"RT":324,"MT":1178,"sideResp":1,"stimulus":"img/750/randomdotsizeEA/R/15_Ratio_750_L_9_R_12.png","xmouse":[776,776,776,776,776,776,776,776,776,776,776,776,776,776,776,772,713,626,548,509,503,503,503,503,503,503,503,503,503,503,503,503,504,515,569,645,673,686,690,692,694,696,698,703,711,719,724,730,736,742,752,757,760,762,763,764,764,764,764,764,764,764,764,764,764,764,764,765,765,765,754,700,622,520,483,477],"ymouse":[524,524,524,524,524,524,524,524,524,524,524,524,524,524,524,513,394,259,160,114,107,107,107,107,107,107,107,107,107,107,107,107,113,137,250,422,487,515,527,531,535,538,541,546,553,556,556,555,553,550,546,544,543,542,542,541,541,541,541,541,541,541,541,541,541,541,541,540,540,540,517,418,307,156,104,93],"timestamp_mouse":[13,20,51,60,80,100,120,140,160,180,200,220,240,260,281,300,324,345,361,380,401,422,440,461,480,501,520,541,561,580,601,621,640,661,681,700,720,740,760,780,800,821,841,860,880,900,921,940,960,981,1001,1020,1040,1060,1081,1100,1121,1141,1160,1180,1200,1220,1240,1260,1280,1301,1320,1340,1360,1380,1401,1420,1440,1461,1481,1502],"xSR":741.5,"ySR":469.95,"xT1":424.9,"yT1":0,"xT2":1058.1,"yT2":0,"toosoon":0,"cond_shown":"randomdotsizeEA","ratio_trial":750,"smaller_num":"9","larger_num":"12","correct_side":2,"subjID":"Simon Cabrera","gender":"0","age":"10","school":"6"},{"start_time":1551901963166,"click_time":1551901964015,"finger_time":1551901963535,"fix_duration":550.777780651306,"trial":65,"RT":369,"MT":480,"sideResp":2,"stimulus":"img/900/equaldotanddens/L/10_Ratio_900_L_20_R_18.png","xmouse":[801,800,798,798,798,798,798,798,798,798,798,798,798,798,798,798,800,830,842,852,860,869,873,874,874,874,874,869,865,861,856,850,826,806,785,776,775,793,846,922,997,1057,1104],"ymouse":[509,510,513,513,513,513,513,513,513,513,513,513,513,513,513,513,513,481,471,462,453,442,434,430,426,420,410,398,393,388,377,364,302,242,193,164,160,152,137,113,84,59,26],"timestamp_mouse":[9,38,49,69,88,107,129,148,168,187,207,228,247,268,287,308,327,347,369,388,408,428,448,468,488,508,527,548,569,588,608,627,647,667,687,708,728,749,768,787,809,828,849],"xSR":741.5,"ySR":469.95,"xT1":424.9,"yT1":0,"xT2":1058.1,"yT2":0,"toosoon":0,"cond_shown":"equaldotanddens","ratio_trial":900,"smaller_num":"18","larger_num":"20","correct_side":1,"subjID":"Simon Cabrera","gender":"0","age":"10","school":"6"},{"start_time":1551901966027,"click_time":1551901967094,"finger_time":1551901966395,"fix_duration":1211.8036798965134,"trial":66,"RT":368,"MT":699,"sideResp":1,"stimulus":"img/500/equaldotanddens/L/11_Ratio_500_L_12_R_6.png","xmouse":[784,784,784,784,784,784,784,784,784,784,784,784,784,784,784,784,784,774,748,702,645,632,632,632,632,632,632,632,632,611,591,573,556,543,527,526,526,526,526,526,526,526,526,526,526,526,526,526,526,526,525,525,525,515],"ymouse":[524,524,524,524,524,524,524,524,524,524,524,524,524,524,524,524,524,486,441,356,265,247,247,247,247,247,247,247,247,196,167,141,120,105,90,89,88,88,88,88,88,88,88,88,88,88,88,88,88,88,88,88,88,79],"timestamp_mouse":[17,27,51,67,87,107,127,148,166,187,207,227,247,267,286,307,326,347,368,387,408,427,447,467,487,507,527,548,567,587,608,628,647,667,687,708,727,747,768,788,806,827,846,868,887,907,927,947,967,987,1007,1026,1046,1067],"xSR":741.5,"ySR":469.95,"xT1":424.9,"yT1":0,"xT2":1058.1,"yT2":0,"toosoon":0,"cond_shown":"equaldotanddens","ratio_trial":500,"smaller_num":"6","larger_num":"12","correct_side":1,"subjID":"Simon Cabrera","gender":"0","age":"10","school":"6"},{"start_time":1551901967934,"click_time":1551901968713,"finger_time":1551901968514,"fix_duration":339.42455059897867,"trial":67,"RT":580,"MT":199,"sideResp":2,"stimulus":"img/500/randomdotsizeEA/R/3_Ratio_500_L_10_R_20.png","xmouse":[813,813,813,813,813,813,813,813,813,813,813,813,813,813,813,813,813,813,813,813,813,813,813,813,813,813,815,817,847,865,890,890,944,996,1017,1032,1041,1052,1061],"ymouse":[520,520,520,520,520,520,520,520,520,520,520,520,520,520,520,520,520,520,520,520,520,520,520,520,520,520,520,520,466,427,368,368,244,149,122,105,94,83,70],"timestamp_mouse":[14,20,60,80,99,119,139,160,180,200,220,239,259,280,299,320,340,360,380,400,420,440,460,481,500,520,539,559,580,602,624,639,660,680,700,719,740,760,779],"xSR":741.5,"ySR":469.95,"xT1":424.9,"yT1":0,"xT2":1058.1,"yT2":0,"toosoon":0,"cond_shown":"randomdotsizeEA","ratio_trial":500,"smaller_num":"10","larger_num":"20","correct_side":2,"subjID":"Simon Cabrera","gender":"0","age":"10","school":"6"},{"start_time":1551901970408,"click_time":1551901971214,"finger_time":1551901971015,"fix_duration":954.46360147009,"trial":68,"RT":607,"MT":199,"sideResp":1,