[{"start_time":1551887706129,"click_time":1551887708543,"finger_time":1551887707983,"fix_duration":1120.3400066362763,"trial":0,"RT":1854,"MT":560,"sideResp":2,"stimulus":"img/750/equaldotanddens/R/4_Ratio_750_L_15_R_20.png","xmouse":[807,807,807,807,807,807,807,807,807,807,807,807,807,807,807,807,807,807,807,807,807,807,807,807,807,807,807,807,807,807,807,807,807,807,807,807,807,807,807,807,807,807,807,807,807,807,807,807,807,807,807,807,807,807,807,807,807,807,807,807,807,807,807,807,807,807,807,807,807,807,807,807,807,807,807,807,807,807,807,807,807,807,807,807,807,807,807,807,807,807,807,820,903,964,991,1012,1030,1042,1046,1056,1066,1073,1076,1084,1099,1106,1110,1120,1132,1159,1170,1184,1201,1205,1206,1206,1206,1200,1187,1162,1156],"ymouse":[524,524,524,524,524,524,524,524,524,524,524,524,524,524,524,524,524,524,524,524,524,524,524,524,524,524,524,524,524,524,524,524,524,524,524,524,524,524,524,524,524,524,524,524,524,524,524,524,524,524,524,524,524,524,524,524,524,524,524,524,524,524,524,524,524,524,524,524,524,524,524,524,524,524,524,524,524,524,524,524,524,524,524,524,524,524,524,524,524,524,524,521,501,479,465,452,446,442,441,439,436,431,426,406,367,343,317,287,253,179,148,118,87,74,66,66,66,65,64,63,63],"timestamp_mouse":[14,39,54,75,93,114,134,153,174,193,213,233,255,273,294,314,335,355,373,395,414,435,454,474,494,515,535,555,575,594,614,634,653,674,695,715,734,754,774,795,814,833,855,875,894,914,934,953,973,995,1015,1033,1055,1075,1093,1115,1135,1154,1174,1194,1215,1233,1255,1274,1293,1315,1333,1354,1375,1395,1414,1435,1453,1474,1495,1513,1535,1554,1575,1593,1614,1633,1654,1674,1694,1715,1734,1755,1773,1794,1815,1834,1854,1875,1894,1914,1933,1954,1974,1994,2013,2033,2055,2073,2094,2113,2134,2153,2175,2195,2213,2234,2254,2274,2294,2314,2333,2354,2374,2395,2414],"xSR":741.5,"ySR":481,"xT1":424.9,"yT1":0,"xT2":1058.1,"yT2":0,"toosoon":0,"cond_shown":"equaldotanddens","ratio_trial":750,"smaller_num":"15","larger_num":"20","correct_side":2,"subjID":"SimonEstebanTorresLeon23","gender":"0","age":"10","school":"6","test":{"fix_dur":[250,1500],"timestim":300,"targets_dim":[100,100],"targets_relative_coord":[0.3,0.7],"size_stim":[880,420],"start_dim":[100,100],"size_start":[300,300],"size_fix":60,"samplingrate":20,"img_types":["equaldotsize","equaldotanddens","randomdotsizeEA"],"ratios":[250,500,750,900],"rep_conds":9,"nTrials":120,"trials_to_rest":500,"Trials_order":[7,60,4,25,66,45,78,14,59,31,17,116,53,105,27,62,56,95,73,63,26,79,61,52,28,8,110,49,92,118,3,19,1,23,33,9,72,29,74,30,96,113,91,58,36,21,55,80,97,64,87,47,42,44,6,37,93,10,13,11,115,70,2,102,119,89,57,104,84,16,77,5,15,65,111,81,41,38,32,90,20,94,82,106,75,114,18,76,46,39,54,50,69,99,117,35,51,108,40,109,83,67,100,22,98,43,48,12,71,112,88,107,68,101,24,85,103,86,0,34],"cond_shown":["equaldotanddens","equaldotsize","equaldotanddens","equaldotanddens","equaldotsize","equaldotsize","equaldotsize","randomdotsizeEA","randomdotsizeEA","equaldotanddens","randomdotsizeEA","randomdotsizeEA","randomdotsizeEA","equaldotsize","equaldotsize","randomdotsizeEA","randomdotsizeEA","randomdotsizeEA","equaldotanddens","equaldotsize","randomdotsizeEA","equaldotanddens","equaldotanddens","equaldotanddens","equaldotanddens","randomdotsizeEA","randomdotsizeEA","equaldotanddens","randomdotsizeEA","equaldotanddens","equaldotsize","equaldotanddens","equaldotanddens","randomdotsizeEA","equaldotsize","equaldotsize","equaldotsize","randomdotsizeEA","randomdotsizeEA","equaldotsize","equaldotsize","randomdotsizeEA","equaldotanddens","equaldotanddens","equaldotsize","equaldotsize","equaldotanddens","randomdotsizeEA","equaldotanddens","equaldotanddens","equaldotsize","randomdotsizeEA","equaldotsize","randomdotsizeEA","equaldotsize","equaldotanddens","equaldotsize","equaldotanddens","equaldotanddens","randomdotsizeEA","equaldotanddens","equaldotanddens","randomdotsizeEA","equaldotsize","randomdotsizeEA","randomdotsizeEA","equaldotsize","randomdotsizeEA","equaldotsize","equaldotanddens","randomdotsizeEA","randomdotsizeEA","equaldotsize","randomdotsizeEA","equaldotsize","equaldotsize","randomdotsizeEA","randomdotsizeEA","randomdotsizeEA","equaldotsize","randomdotsizeEA","equaldotanddens","equaldotanddens","equaldotanddens","equaldotsize","equaldotsize","equaldotsize","equaldotanddens","equaldotanddens","equaldotsize","equaldotsize","randomdotsizeEA","equaldotsize","equaldotsize","equaldotsize","randomdotsizeEA","equaldotsize","equaldotsize","equaldotanddens","equaldotanddens","randomdotsizeEA","equaldotanddens","equaldotanddens","equaldotanddens","randomdotsizeEA","equaldotanddens","equaldotsize","equaldotsize","randomdotsizeEA","equaldotanddens","equaldotanddens","randomdotsizeEA","randomdotsizeEA","randomdotsizeEA","equaldotsize","equaldotanddens","equaldotanddens","randomdotsizeEA","equaldotsize","equaldotanddens"],"ratio_trial":[750,250,500,250,750,900,750,250,900,750,500,750,500,900,500,250,750,900,250,500,250,750,250,500,500,750,250,250,750,900,500,750,250,900,900,900,250,500,250,750,250,500,750,900,250,900,750,750,250,500,500,900,750,750,750,250,900,900,250,900,750,900,250,750,900,500,900,750,250,500,500,500,500,500,500,900,500,250,750,750,750,900,900,900,500,750,750,500,900,500,750,250,900,500,900,900,500,250,500,250,900,750,500,900,250,750,250,250,900,500,500,900,750,500,250,250,750,250,250,900],"smaller_num":["15","3","4","3","3","18","3","6","9","6","2","3","6","9","6","3","3","9","5","6","2","3","2","2","2","6","1","2","9","18","6","12","2","9","9","18","2","6","6","3","2","6","6","18","3","18","3","6","3","2","1","9","3","12","3","2","9","18","1","9","12","18","4","15","18","6","18","3","3","9","6","4","1","3","5","18","1","4","6","15","15","18","18","18","1","15","15","10","18","1","3","2","18","1","18","18","9","6","2","2","9","3","5","18","6","3","4","3","9","6","9","9","6","6","1","4","18","2","6","18"],"larger_num":["20","12","8","12","4","20","4","24","10","8","4","4","12","10","12","12","4","10","20","12","8","4","8","4","4","8","4","8","12","20","12","16","8","10","10","20","8","12","24","4","8","12","8","20","12","20","4","8","12","4","2","10","4","16","4","8","10","20","4","10","16","20","16","20","20","12","20","4","12","18","12","8","2","6","10","20","2","16","8","20","20","20","20","20","2","20","20","20","20","2","4","8","20","2","20","20","18","24","4","8","10","4","10","20","24","4","16","12","10","12","18","10","8","12","4","16","24","8","24","20"],"correct_side":[2,1,1,2,1,1,2,2,1,2,1,1,1,2,1,2,2,2,2,1,1,1,1,1,1,1,2,2,2,1,1,2,1,2,1,1,1,1,1,1,2,1,2,1,1,2,2,2,2,1,2,2,1,2,1,2,1,1,2,2,2,2,1,2,2,1,1,1,1,2,1,1,2,2,2,1,2,2,1,1,2,1,2,1,2,2,2,2,2,2,1,1,1,2,2,2,1,1,2,1,2,1,1,1,2,1,1,2,2,1,2,2,2,1,2,1,1,1,1,1],"img_shown":["img/750/equaldotanddens/R/4_Ratio_750_L_15_R_20.png","img/250/equaldotsize/L/15_Ratio_250_L_12_R_3.png","img/500/equaldotanddens/L/8_Ratio_500_L_8_R_4.png","img/250/equaldotanddens/R/11_Ratio_250_L_3_R_12.png","img/750/equaldotsize/L/9_Ratio_750_L_4_R_3.png","img/900/equaldotsize/L/2_Ratio_900_L_20_R_18.png","img/750/equaldotsize/R/12_Ratio_750_L_3_R_4.png","img/250/randomdotsizeEA/R/6_Ratio_250_L_6_R_24.png","img/900/randomdotsizeEA/L/1_Ratio_900_L_10_R_9.png","img/750/equaldotanddens/R/2_Ratio_750_L_6_R_8.png","img/500/randomdotsizeEA/L/10_Ratio_500_L_4_R_2.png","img/750/randomdotsizeEA/L/10_Ratio_750_L_4_R_3.png","img/500/randomdotsizeEA/L/13_Ratio_500_L_12_R_6.png","img/900/equaldotsize/R/5_Ratio_900_L_9_R_10.png","img/500/equaldotsize/L/11_Ratio_500_L_12_R_6.png","img/250/randomdotsizeEA/R/11_Ratio_250_L_3_R_12.png","img/750/randomdotsizeEA/R/7_Ratio_750_L_3_R_4.png","img/900/randomdotsizeEA/R/7_Ratio_900_L_9_R_10.png","img/250/equaldotanddens/R/12_Ratio_250_L_5_R_20.png","img/500/equaldotsize/L/11_Ratio_500_L_12_R_6.png","img/250/randomdotsizeEA/L/3_Ratio_250_L_8_R_2.png","img/750/equaldotanddens/L/10_Ratio_750_L_4_R_3.png","img/250/equaldotanddens/L/3_Ratio_250_L_8_R_2.png","img/500/equaldotanddens/L/5_Ratio_500_L_4_R_2.png","img/500/equaldotanddens/L/10_Ratio_500_L_4_R_2.png","img/750/randomdotsizeEA/L/13_Ratio_750_L_8_R_6.png","img/250/randomdotsizeEA/R/8_Ratio_250_L_1_R_4.png","img/250/equaldotanddens/R/13_Ratio_250_L_2_R_8.png","img/750/randomdotsizeEA/R/15_Ratio_750_L_9_R_12.png","img/900/equaldotanddens/L/8_Ratio_900_L_20_R_18.png","img/500/equaldotsize/L/11_Ratio_500_L_12_R_6.png","img/750/equaldotanddens/R/11_Ratio_750_L_12_R_16.png","img/250/equaldotanddens/L/3_Ratio_250_L_8_R_2.png","img/900/randomdotsizeEA/R/15_Ratio_900_L_9_R_10.png","img/900/equaldotsize/L/1_Ratio_900_L_10_R_9.png","img/900/equaldotsize/L/4_Ratio_900_L_20_R_18.png","img/250/equaldotsize/L/1_Ratio_250_L_8_R_2.png","img/500/randomdotsizeEA/L/11_Ratio_500_L_12_R_6.png","img/250/randomdotsizeEA/L/5_Ratio_250_L_24_R_6.png","img/750/equaldotsize/L/10_Ratio_750_L_4_R_3.png","img/250/equaldotsize/R/13_Ratio_250_L_2_R_8.png","img/500/randomdotsizeEA/L/13_Ratio_500_L_12_R_6.png","img/750/equaldotanddens/R/2_Ratio_750_L_6_R_8.png","img/900/equaldotanddens/L/4_Ratio_900_L_20_R_18.png","img/250/equaldotsize/L/14_Ratio_250_L_12_R_3.png","img/900/equaldotsize/R/12_Ratio_900_L_18_R_20.png","img/750/equaldotanddens/R/12_Ratio_750_L_3_R_4.png","img/750/randomdotsizeEA/R/2_Ratio_750_L_6_R_8.png","img/250/equaldotanddens/R/9_Ratio_250_L_3_R_12.png","img/500/equaldotanddens/L/5_Ratio_500_L_4_R_2.png","img/500/equaldotsize/R/12_Ratio_500_L_1_R_2.png","img/900/randomdotsizeEA/R/7_Ratio_900_L_9_R_10.png","img/750/equaldotsize/L/9_Ratio_750_L_4_R_3.png","img/750/randomdotsizeEA/R/11_Ratio_750_L_12_R_16.png","img/750/equaldotsize/L/8_Ratio_750_L_4_R_3.png","img/250/equaldotanddens/R/13_Ratio_250_L_2_R_8.png","img/900/equaldotsize/L/1_Ratio_900_L_10_R_9.png","img/900/equaldotanddens/L/10_Ratio_900_L_20_R_18.png","img/250/equaldotanddens/R/8_Ratio_250_L_1_R_4.png","img/900/randomdotsizeEA/R/7_Ratio_900_L_9_R_10.png","img/750/equaldotanddens/R/11_Ratio_750_L_12_R_16.png","img/900/equaldotanddens/R/11_Ratio_900_L_18_R_20.png","img/250/randomdotsizeEA/L/2_Ratio_250_L_16_R_4.png","img/750/equaldotsize/R/3_Ratio_750_L_15_R_20.png","img/900/randomdotsizeEA/R/14_Ratio_900_L_18_R_20.png","img/500/randomdotsizeEA/L/13_Ratio_500_L_12_R_6.png","img/900/equaldotsize/L/10_Ratio_900_L_20_R_18.png","img/750/randomdotsizeEA/L/9_Ratio_750_L_4_R_3.png","img/250/equaldotsize/L/15_Ratio_250_L_12_R_3.png","img/500/equaldotanddens/R/6_Ratio_500_L_9_R_18.png","img/500/randomdotsizeEA/L/13_Ratio_500_L_12_R_6.png","img/500/randomdotsizeEA/L/8_Ratio_500_L_8_R_4.png","img/500/equaldotsize/R/15_Ratio_500_L_1_R_2.png","img/500/randomdotsizeEA/R/2_Ratio_500_L_3_R_6.png","img/500/equaldotsize/R/14_Ratio_500_L_5_R_10.png","img/900/equaldotsize/L/4_Ratio_900_L_20_R_18.png","img/500/randomdotsizeEA/R/12_Ratio_500_L_1_R_2.png","img/250/randomdotsizeEA/R/10_Ratio_250_L_4_R_16.png","img/750/randomdotsizeEA/L/14_Ratio_750_L_8_R_6.png","img/750/equaldotsize/L/1_Ratio_750_L_20_R_15.png","img/750/randomdotsizeEA/R/4_Ratio_750_L_15_R_20.png","img/900/equaldotanddens/L/8_Ratio_900_L_20_R_18.png","img/900/equaldotanddens/R/13_Ratio_900_L_18_R_20.png","img/900/equaldotanddens/L/8_Ratio_900_L_20_R_18.png","img/500/equaldotsize/R/12_Ratio_500_L_1_R_2.png","img/750/equaldotsize/R/5_Ratio_750_L_15_R_20.png","img/750/equaldotsize/R/3_Ratio_750_L_15_R_20.png","img/500/equaldotanddens/R/3_Ratio_500_L_10_R_20.png","img/900/equaldotanddens/R/9_Ratio_900_L_18_R_20.png","img/500/equaldotsize/R/15_Ratio_500_L_1_R_2.png","img/750/equaldotsize/L/10_Ratio_750_L_4_R_3.png","img/250/randomdotsizeEA/L/1_Ratio_250_L_8_R_2.png","img/900/equaldotsize/L/10_Ratio_900_L_20_R_18.png","img/500/equaldotsize/R/15_Ratio_500_L_1_R_2.png","img/900/equaldotsize/R/13_Ratio_900_L_18_R_20.png","img/900/randomdotsizeEA/R/9_Ratio_900_L_18_R_20.png","img/500/equaldotsize/L/4_Ratio_500_L_18_R_9.png","img/250/equaldotsize/L/5_Ratio_250_L_24_R_6.png","img/500/equaldotanddens/R/9_Ratio_500_L_2_R_4.png","img/250/equaldotanddens/L/3_Ratio_250_L_8_R_2.png","img/900/randomdotsizeEA/R/15_Ratio_900_L_9_R_10.png","img/750/equaldotanddens/L/10_Ratio_750_L_4_R_3.png","img/500/equaldotanddens/L/7_Ratio_500_L_10_R_5.png","img/900/equaldotanddens/L/4_Ratio_900_L_20_R_18.png","img/250/randomdotsizeEA/R/6_Ratio_250_L_6_R_24.png","img/750/equaldotanddens/L/10_Ratio_750_L_4_R_3.png","img/250/equaldotsize/L/2_Ratio_250_L_16_R_4.png","img/250/equaldotsize/R/9_Ratio_250_L_3_R_12.png","img/900/randomdotsizeEA/R/3_Ratio_900_L_9_R_10.png","img/500/equaldotanddens/L/11_Ratio_500_L_12_R_6.png","img/500/equaldotanddens/R/6_Ratio_500_L_9_R_18.png","img/900/randomdotsizeEA/R/6_Ratio_900_L_9_R_10.png","img/750/randomdotsizeEA/R/2_Ratio_750_L_6_R_8.png","img/500/randomdotsizeEA/L/13_Ratio_500_L_12_R_6.png","img/250/equaldotsize/R/8_Ratio_250_L_1_R_4.png","img/250/equaldotanddens/L/2_Ratio_250_L_16_R_4.png","img/750/equaldotanddens/L/6_Ratio_750_L_24_R_18.png","img/250/randomdotsizeEA/L/3_Ratio_250_L_8_R_2.png","img/250/equaldotsize/L/5_Ratio_250_L_24_R_6.png","img/900/equaldotanddens/L/4_Ratio_900_L_20_R_18.png"],"Rat0":[["12_Ratio_0_L_9_R_0.png","13_Ratio_0_L_6_R_0.png","5_Ratio_0_L_2_R_0.png","6_Ratio_0_L_4_R_0.png","8_Ratio_0_L_6_R_0.png"],["1_Ratio_0_L_0_R_17.png","10_Ratio_0_L_0_R_22.png","11_Ratio_0_L_0_R_1.png","14_Ratio_0_L_0_R_24.png","15_Ratio_0_L_0_R_4.png","2_Ratio_0_L_0_R_5.png","3_Ratio_0_L_0_R_17.png","4_Ratio_0_L_0_R_7.png","7_Ratio_0_L_0_R_19.png","9_Ratio_0_L_0_R_15.png"]],"Rat250":[["1_Ratio_250_L_8_R_2.png","14_Ratio_250_L_12_R_3.png","15_Ratio_250_L_12_R_3.png","2_Ratio_250_L_16_R_4.png","3_Ratio_250_L_8_R_2.png","5_Ratio_250_L_24_R_6.png","7_Ratio_250_L_8_R_2.png"],["10_Ratio_250_L_4_R_16.png","11_Ratio_250_L_3_R_12.png","12_Ratio_250_L_5_R_20.png","13_Ratio_250_L_2_R_8.png","4_Ratio_250_L_3_R_12.png","6_Ratio_250_L_6_R_24.png","8_Ratio_250_L_1_R_4.png","9_Ratio_250_L_3_R_12.png"]],"Rat500":[["10_Ratio_500_L_4_R_2.png","11_Ratio_500_L_12_R_6.png","13_Ratio_500_L_12_R_6.png","4_Ratio_500_L_18_R_9.png","5_Ratio_500_L_4_R_2.png","7_Ratio_500_L_10_R_5.png","8_Ratio_500_L_8_R_4.png"],["1_Ratio_500_L_9_R_18.png","12_Ratio_500_L_1_R_2.png","14_Ratio_500_L_5_R_10.png","15_Ratio_500_L_1_R_2.png","2_Ratio_500_L_3_R_6.png","3_Ratio_500_L_10_R_20.png","6_Ratio_500_L_9_R_18.png","9_Ratio_500_L_2_R_4.png"]],"Rat750":[["1_Ratio_750_L_20_R_15.png","10_Ratio_750_L_4_R_3.png","13_Ratio_750_L_8_R_6.png","14_Ratio_750_L_8_R_6.png","6_Ratio_750_L_24_R_18.png","8_Ratio_750_L_4_R_3.png","9_Ratio_750_L_4_R_3.png"],["11_Ratio_750_L_12_R_16.png","12_Ratio_750_L_3_R_4.png","15_Ratio_750_L_9_R_12.png","2_Ratio_750_L_6_R_8.png","3_Ratio_750_L_15_R_20.png","4_Ratio_750_L_15_R_20.png","5_Ratio_750_L_15_R_20.png","7_Ratio_750_L_3_R_4.png"]],"Rat900":[["1_Ratio_900_L_10_R_9.png","10_Ratio_900_L_20_R_18.png","2_Ratio_900_L_20_R_18.png","4_Ratio_900_L_20_R_18.png","8_Ratio_900_L_20_R_18.png"],["11_Ratio_900_L_18_R_20.png","12_Ratio_900_L_18_R_20.png","13_Ratio_900_L_18_R_20.png","14_Ratio_900_L_18_R_20.png","15_Ratio_900_L_9_R_10.png","3_Ratio_900_L_9_R_10.png","5_Ratio_900_L_9_R_10.png","6_Ratio_900_L_9_R_10.png","7_Ratio_900_L_9_R_10.png","9_Ratio_900_L_18_R_20.png"]],"Rat1000":[["10_Ratio_1000_L_16_R_16.png","11_Ratio_1000_L_6_R_6.png","12_Ratio_1000_L_14_R_14.png","13_Ratio_1000_L_20_R_20.png","15_Ratio_1000_L_15_R_15.png","2_Ratio_1000_L_17_R_17.png","4_Ratio_1000_L_9_R_9.png","5_Ratio_1000_L_6_R_6.png","6_Ratio_1000_L_19_R_19.png","8_Ratio_1000_L_14_R_14.png","9_Ratio_1000_L_25_R_25.png"],["1_Ratio_1000_L_1_R_1.png","14_Ratio_1000_L_17_R_17.png","3_Ratio_1000_L_17_R_17.png","7_Ratio_1000_L_6_R_6.png"]]}},{"start_time":1551887711008,"click_time":1551887711743,"finger_time":1551887711702,"fix_duration":823.1060353050053,"trial":1,"RT":694,"MT":41,"sideResp":1,"stimulus":"img/250/equaldotsize/L/15_Ratio_250_L_12_R_3.png","xmouse":[783,783,783,783,783,783,783,783,783,783,783,783,783,783,783,783,783,783,783,783,783,783,783,783,783,783,783,783,783,783,783,783,779,770,732,603,506],"ymouse":[506,506,506,506,506,506,506,506,506,506,506,506,506,506,506,506,506,506,506,506,506,506,506,506,506,506,506,506,506,506,506,506,493,473,389,199,73],"timestamp_mouse":[15,35,56,76,95,115,136,155,174,196,216,234,254,276,294,315,336,355,376,394,416,434,456,474,494,514,535,554,574,595,615,634,656,675,694,715,734],"xSR":741.5,"ySR":449.15000000000003,"xT1":424.9,"yT1":0,"xT2":1058.1,"yT2":0,"toosoon":0,"cond_shown":"equaldotsize","ratio_trial":250,"smaller_num":"3","larger_num":"12","correct_side":1,"subjID":"SimonEstebanTorresLeon23","gender":"0","age":"10","school":"6"},{"start_time":1551887713501,"click_time":1551887714143,"finger_time":1551887714083,"fix_duration":895.0960046271894,"trial":2,"RT":582,"MT":60,"sideResp":1,"stimulus":"img/500/equaldotanddens/L/8_Ratio_500_L_8_R_4.png","xmouse":[765,765,765,765,765,765,765,765,765,765,765,765,765,765,765,765,765,765,765,765,765,765,765,765,765,765,765,765,753,711,655,537,486],"ymouse":[493,493,493,493,493,493,493,493,493,493,493,493,493,493,493,493,493,493,493,493,493,493,493,493,493,493,493,491,467,397,318,157,92],"timestamp_mouse":[8,37,42,62,81,101,122,142,162,183,202,221,242,262,282,301,323,343,361,381,402,421,442,462,482,502,521,543,563,582,601,623,641],"xSR":741.5,"ySR":449.15000000000003,"xT1":424.9,"yT1":0,"xT2":1058.1,"yT2":0,"toosoon":0,"cond_shown":"equaldotanddens","ratio_trial":500,"smaller_num":"4","larger_num":"8","correct_side":1,"subjID":"SimonEstebanTorresLeon23","gender":"0","age":"10","school":"6"},{"start_time":1551887715998,"click_time":1551887716763,"finger_time":1551887716643,"fix_duration":1073.171074237158,"trial":3,"RT":645,"MT":120,"sideResp":2,"stimulus":"img/250/equaldotanddens/R/11_Ratio_250_L_3_R_12.png","xmouse":[764,764,764,764,764,764,764,764,764,764,764,764,764,764,764,764,764,764,764,764,764,764,764,764,764,764,764,764,764,764,766,779,837,892,958,1012,1088,1107,1120],"ymouse":[472,472,472,472,472,472,472,472,472,472,472,472,472,472,472,472,472,472,472,472,472,472,472,472,472,472,472,472,472,472,473,460,392,334,268,219,139,112,91],"timestamp_mouse":[8,37,46,64,85,104,125,144,164,186,204,225,246,265,286,305,326,344,366,384,406,425,444,466,486,505,524,546,564,584,606,624,645,665,685,705,725,745,765],"xSR":741.5,"ySR":449.15000000000003,"xT1":424.9,"yT1":0,"xT2":1058.1,"yT2":0,"toosoon":0,"cond_shown":"equaldotanddens","ratio_trial":250,"smaller_num":"3","larger_num":"12","correct_side":2,"subjID":"SimonEstebanTorresLeon23","gender":"0","age":"10","school":"6"},{"start_time":1551887719100,"click_time":1551887719863,"finger_time":1551887719764,"fix_duration":1476.9050767050985,"trial":4,"RT":664,"MT":99,"sideResp":1,"stimulus":"img/750/equaldotsize/L/9_Ratio_750_L_4_R_3.png","xmouse":[796,796,796,796,796,796,796,796,796,796,796,796,796,796,796,796,796,796,796,796,796,796,796,796,796,796,796,796,796,796,796,795,774,736,661,605,550,506,502],"ymouse":[514,514,514,514,514,514,514,514,514,514,514,514,514,514,514,514,514,514,514,514,514,514,514,514,514,514,514,514,514,514,514,515,497,449,341,257,183,103,84],"timestamp_mouse":[8,38,44,64,83,102,122,144,163,182,203,223,243,263,283,303,322,344,362,383,403,423,442,464,483,504,523,544,564,584,602,623,642,664,684,704,723,743,763],"xSR":741.5,"ySR":449.15000000000003,"xT1":424.9,"yT1":0,"xT2":1058.1,"yT2":0,"toosoon":0,"cond_shown":"equaldotsize","ratio_trial":750,"smaller_num":"3","larger_num":"4","correct_side":1,"subjID":"SimonEstebanTorresLeon23","gender":"0","age":"10","school":"6"},{"start_time":1551887721285,"click_time":1551887722163,"finger_time":1551887722122,"fix_duration":620.7552795615395,"trial":5,"RT":837,"MT":41,"sideResp":1,"stimulus":"img/900/equaldotsize/L/2_Ratio_900_L_20_R_18.png","xmouse":[763,763,763,763,763,763,763,763,763,763,763,763,763,763,763,763,763,763,763,763,763,763,763,763,763,763,763,763,763,763,763,763,763,763,763,763,763,763,763,763,751,698,555,483],"ymouse":[507,507,507,507,507,507,507,507,507,507,507,507,507,507,507,507,507,507,507,507,507,507,507,507,507,507,507,507,507,507,507,507,507,507,507,507,507,507,507,499,467,366,145,44],"timestamp_mouse":[19,37,58,79,98,119,138,159,177,198,218,238,259,277,299,318,337,358,377,399,417,437,459,477,499,519,537,559,577,599,619,638,657,678,697,719,737,758,778,799,819,837,858,878],"xSR":741.5,"ySR":449.15000000000003,"xT1":424.9,"yT1":0,"xT2":1058.1,"yT2":0,"toosoon":0,"cond_shown":"equaldotsize","ratio_trial":900,"smaller_num":"18","larger_num":"20","correct_side":1,"subjID":"SimonEstebanTorresLeon23","gender":"0","age":"10","school":"6"},{"start_time":1551887723388,"click_time":1551887724924,"finger_time":1551887723623,"fix_duration":343.96356667763337,"trial":6,"RT":235,"MT":1301,"sideResp":2,"stimulus":"img/750/equaldotsize/R/12_Ratio_750_L_3_R_4.png","xmouse":[752,751,750,750,750,750,750,750,750,761,770,774,774,774,774,774,774,774,773,773,773,773,773,773,773,773,773,773,773,777,782,786,794,796,796,796,796,796,796,796,796,796,796,796,796,796,796,796,796,796,796,804,829,883,975,1057,1173,1205,1205,1205,1205,1205,1205,1205,1205,1205,1205,1205,1205,1173,1162,1160,1160,1160,1160,1159,1155],"ymouse":[494,492,489,489,489,489,489,489,490,515,546,562,562,562,562,562,562,562,562,562,561,559,559,559,559,559,559,559,558,544,526,509,481,477,477,477,476,476,476,476,476,476,476,476,476,476,476,476,476,476,476,469,449,402,325,242,86,18,18,18,18,18,18,18,18,18,18,18,18,12,33,39,39,39,39,40,40],"timestamp_mouse":[15,34,56,74,94,114,134,154,175,196,214,235,255,275,296,315,335,355,375,395,415,434,455,476,495,516,535,555,575,595,616,635,655,675,696,716,734,756,775,794,815,834,855,875,894,916,934,954,976,994,1015,1035,1056,1074,1095,1115,1136,1154,1174,1196,1215,1235,1256,1275,1296,1315,1336,1356,1375,1395,1414,1435,1455,1476,1495,1515,1536],"xSR":741.5,"ySR":449.15000000000003,"xT1":424.9,"yT1":0,"xT2":1058.1,"yT2":0,"toosoon":0,"cond_shown":"equaldotsize","ratio_trial":750,"smaller_num":"3","larger_num":"4","correct_side":2,"subjID":"SimonEstebanTorresLeon23","gender":"0","age":"10","school":"6"},{"start_time":1551887726866,"click_time":1551887728663,"finger_time":1551887728364,"fix_duration":1181.2746414297255,"trial":7,"RT":1498,"MT":299,"sideResp":2,"stimulus":"img/250/randomdotsizeEA/R/6_Ratio_250_L_6_R_24.png","xmouse":[798,798,798,798,798,798,798,798,798,798,798,798,798,798,798,798,798,798,798,798,798,798,798,798,798,798,798,798,798,798,798,798,798,798,798,798,798,798,798,799,801,808,821,821,821,821,821,821,821,821,821,821,821,821,821,821,821,821,821,821,821,821,821,821,821,821,821,821,821,821,821,821,821,829,861,951,1031,1119,1178,1178,1178,1178,1178,1178,1178,1178,1178,1178,1175,1148],"ymouse":[491,491,491,491,491,491,491,491,491,491,491,491,491,491,491,491,491,491,491,491,491,491,491,491,491,491,491,491,491,491,491,491,491,491,491,491,491,491,491,491,491,487,479,479,479,479,479,479,479,479,479,479,479,479,479,479,479,479,479,479,479,479,479,479,479,479,479,479,479,479,479,479,479,467,433,322,223,101,15,15,15,15,15,15,15,15,15,15,1,26],"timestamp_mouse":[18,37,57,76,97,116,138,156,176,196,217,236,257,277,298,316,336,356,377,398,416,436,458,478,496,516,537,557,577,598,617,637,657,678,696,717,737,756,776,797,816,837,856,877,898,917,937,956,976,998,1017,1038,1057,1077,1096,1118,1137,1158,1176,1197,1217,1236,1256,1278,1296,1318,1336,1357,1376,1397,1416,1438,1458,1476,1498,1516,1537,1557,1578,1597,1618,1638,1657,1677,1696,1716,1736,1756,1776,1797],"xSR":741.5,"ySR":449.15000000000003,"xT1":424.9,"yT1":0,"xT2":1058.1,"yT2":0,"toosoon":0,"cond_shown":"randomdotsizeEA","ratio_trial":250,"smaller_num":"6","larger_num":"24","correct_side":2,"subjID":"SimonEstebanTorresLeon23","gender":"0","age":"10","school":"6"},{"start_time":1551887730400,"click_time":1551887731563,"finger_time":1551887731104,"fix_duration":855.3018068094967,"trial":8,"RT":704,"MT":459,"sideResp":1,"stimulus":"img/900/randomdotsizeEA/L/1_Ratio_900_L_10_R_9.png","xmouse":[775,775,775,775,775,775,775,775,775,775,775,775,775,775,775,775,775,775,775,775,775,775,775,775,775,775,775,775,775,775,775,775,775,778,782,784,779,762,735,704,648,620,594,591,588,588,588,581,567,525,483,453,434,434,434,433,431,432,434],"ymouse":[502,502,502,502,502,502,502,502,502,502,502,502,502,502,502,502,502,502,502,502,502,502,502,502,502,502,502,502,502,502,502,502,500,483,460,434,350,286,226,168,79,43,12,10,8,8,8,15,36,79,112,130,136,136,136,133,110,100,95],"timestamp_mouse":[9,23,42,63,82,103,123,142,164,182,202,222,244,263,284,303,323,342,364,382,402,424,442,464,483,504,522,543,563,583,602,622,643,662,684,704,723,743,764,783,803,823,844,862,883,904,923,943,963,983,1002,1022,1044,1063,1083,1103,1123,1143,1163],"xSR":741.5,"ySR":449.15000000000003,"xT1":424.9,"yT1":0,"xT2":1058.1,"yT2":0,"toosoon":0,"cond_shown":"randomdotsizeEA","ratio_trial":900,"smaller_num":"9","larger_num":"10","correct_side":1,"subjID":"SimonEstebanTorresLeon23","gender":"0","age":"10","school":"6"},{"start_time":1551887732455,"click_time":1551887734022,"finger_time":1551887733363,"fix_duration":250,"trial":9,"RT":908,"MT":659,"sideResp":2,"stimulus":"img/750/equaldotanddens/R/2_Ratio_750_L_6_R_8.png","xmouse":[759,759,759,759,759,759,759,760,760,762,763,763,763,763,763,763,763,763,763,763,763,763,763,763,763,763,763,763,763,763,763,763,763,763,763,763,763,763,763,763,763,763,763,763,763,762,760,760,760,760,760,760,760,765,779,806,823,839,846,855,861,871,895,961,997,1005,1032,1042,1042,1042,1042,1042,1042,1042,1042,1042,1042,1042,1129],"ymouse":[469,469,469,469,470,472,472,476,479,483,483,483,483,483,483,483,483,483,483,483,483,483,483,483,483,483,483,483,483,483,483,483,483,483,483,483,483,483,483,483,483,483,483,482,467,444,438,437,437,437,437,437,437,438,441,444,444,436,430,422,413,389,333,179,92,74,15,1,1,1,1,1,1,1,1,1,1,1,15],"timestamp_mouse":[9,32,48,67,88,108,129,148,167,189,207,229,248,268,288,309,328,348,368,387,408,428,448,469,488,509,527,549,569,587,608,627,648,669,687,708,729,748,767,788,807,828,847,869,888,908,929,948,968,988,1008,1027,1047,1068,1088,1108,1128,1147,1168,1191,1208,1228,1248,1267,1287,1307,1328,1347,1369,1387,1409,1428,1449,1468,1488,1508,1527,1548,1567],"xSR":741.5,"ySR":449.15000000000003,"xT1":424.9,"yT1":0,"xT2":1058.1,"yT2":0,"toosoon":0,"cond_shown":"equaldotanddens","ratio_trial":750,"smaller_num":"6","larger_num":"8","correct_side":2,"subjID":"SimonEstebanTorresLeon23","gender":"0","age":"10","school":"6"},{"start_time":1551887734914,"click_time":1551887735983,"finger_time":1551887735662,"fix_duration":250,"trial":10,"RT":748,"MT":321,"sideResp":1,"stimulus":"img/500/randomdotsizeEA/L/10_Ratio_500_L_4_R_2.png","xmouse":[804,804,804,804,804,804,804,804,804,804,804,804,804,804,804,804,804,804,804,804,804,804,804,804,804,804,804,804,804,804,804,804,804,804,804,804,799,783,754,719,659,635,629,621,619,619,617,611,605,597,570,543,526,511],"ymouse":[475,475,475,475,475,475,475,475,475,475,475,475,475,475,475,475,475,475,475,475,475,475,475,475,475,475,475,475,475,475,475,475,475,475,475,475,454,405,345,271,139,79,64,45,44,43,42,42,41,40,41,44,45,45],"timestamp_mouse":[9,29,50,68,89,108,128,148,168,188,210,230,249,268,289,308,328,348,369,390,409,429,449,469,489,510,529,549,569,589,610,629,650,669,689,709,728,748,769,788,809,829,850,870,890,909,928,949,968,988,1008,1028,1048,1069],"xSR":741.5,"ySR":449.15000000000003,"xT1":424.9,"yT1":0,"xT2":1058.1,"yT2":0,"toosoon":0,"cond_shown":"randomdotsizeEA","ratio_trial":500,"smaller_num":"2","larger_num":"4","correct_side":1,"subjID":"SimonEstebanTorresLeon23","gender":"0","age":"10","school":"6"},{"start_time":1551887737677,"click_time":1551887738923,"finger_time":1551887738603,"fix_duration":1031.9347964785577,"trial":11,"RT":926,"MT":320,"sideResp":2,"stimulus":"img/750/randomdotsizeEA/L/10_Ratio_750_L_4_R_3.png","xmouse":[782,782,782,782,782,782,782,782,782,782,782,782,782,782,782,782,782,782,782,782,782,782,782,782,782,782,782,782,782,782,782,782,782,782,782,782,782,782,782,782,782,782,782,782,782,802,856,980,1031,1071,1097,1118,1128,1128,1128,1128,1128,1128,1128,1128,1127,1123,1119],"ymouse":[525,525,525,525,525,525,525,525,525,525,525,525,525,525,525,525,525,525,525,525,525,525,525,525,525,525,525,525,525,525,525,525,525,525,525,525,525,525,525,525,525,525,525,525,525,516,495,440,409,377,336,278,235,226,220,213,202,169,148,130,115,104,93],"timestamp_mouse":[13,25,46,67,85,106,126,147,166,185,206,227,246,266,287,305,325,345,367,385,405,426,445,466,485,506,526,546,565,585,605,626,646,665,685,706,726,746,766,786,807,826,845,865,887,906,926,947,965,985,1007,1026,1046,1065,1086,1106,1127,1146,1166,1187,1206,1226,1246],"xSR":741.5,"ySR":449.15000000000003,"xT1":424.9,"yT1":0,"xT2":1058.1,"yT2":0,"toosoon":0,"cond_shown":"randomdotsizeEA","ratio_trial":750,"smaller_num":"3","larger_num":"4","correct_side":1,"subjID":"SimonEstebanTorresLeon23","gender":"0","age":"10","school":"6"},{"start_time":1551887778074,"click_time":1551887779625,"finger_time":1551887779084,"fix_duration":747.6702079163691,"trial":12,"RT":1010,"MT":541,"sideResp":1,"stimulus":"img/500/randomdotsizeEA/L/13_Ratio_500_L_12_R_6.png","xmouse":[809,809,809,809,809,809,809,809,809,809,809,809,809,809,809,809,809,809,808,808,808,808,808,808,808,808,808,808,808,808,808,808,808,808,808,808,808,808,808,808,808,807,798,789,787,785,785,784,780,773,764,749,710,685,665,651,642,642,643,645,645,640,601,575,550,527,520,519,520,526,531,535,537,537,537,535,525,498],"ymouse":[480,480,480,480,480,480,480,480,480,480,480,480,480,480,480,480,480,480,480,480,480,480,480,480,480,480,480,480,480,480,480,480,480,480,480,480,480,480,480,480,480,480,476,473,472,471,471,470,461,452,439,427,406,390,377,366,354,326,310,300,295,292,291,289,285,270,253,199,172,148,126,115,106,106,105,103,102,95],"timestamp_mouse":[10,31,50,70,90,110,131,151,172,192,210,230,250,271,290,310,331,350,370,390,410,431,451,471,491,510,530,550,571,591,612,630,650,671,690,712,731,750,770,790,810,830,850,871,891,910,931,950,971,991,1010,1031,1051,1071,1092,1110,1130,1150,1170,1190,1210,1230,1251,1270,1290,1311,1330,1350,1370,1390,1410,1431,1450,1470,1490,1511,1530,1551],"xSR":741.5,"ySR":449.15000000000003,"xT1":424.9,"yT1":0,"xT2":1058.1,"yT2":0,"toosoon":0,"cond_shown":"randomdotsizeEA","ratio_trial":500,"smaller_num":"6","larger_num":"12","correct_side":1,"subjID":"SimonEstebanTorresLeon23","gender":"0","age":"10","school":"6"},{"start_time":1551887781859,"click_time":1551887782905,"finger_time":1551887782665,"fix_duration":1433.3283717951483,"trial":13,"RT":806,"MT":240,"sideResp":1,"stimulus":"img/900/equaldotsize/R/5_Ratio_900_L_9_R_10.png","xmouse":[813,813,813,813,813,813,813,813,813,813,813,813,813,813,813,813,813,813,813,813,813,813,813,813,813,813,813,813,813,813,813,813,813,813,813,813,811,806,801,795,786,772,754,701,672,652,640,635,621,604,582,556,523],"ymouse":[491,491,491,491,491,491,491,491,491,491,491,491,491,491,491,491,491,491,491,491,491,491,491,491,491,491,491,491,491,491,491,491,491,491,491,490,487,477,466,458,447,430,404,318,270,236,210,197,160,133,109,83,60],"timestamp_mouse":[9,25,47,66,86,105,125,145,165,186,205,225,246,266,286,305,326,347,365,386,407,426,447,465,485,506,526,545,566,585,606,625,645,666,686,705,725,746,765,786,806,825,845,866,885,906,926,946,965,986,1006,1025,1045],"xSR":741.5,"ySR":449.15000000000003,"xT1":424.9,"yT1":0,"xT2":1058.1,"yT2":0,"toosoon":0,"cond_shown":"equaldotsize","ratio_trial":900,"smaller_num":"9","larger_num":"10","correct_side":2,"subjID":"SimonEstebanTorresLeon23","gender":"0","age":"10","school":"6"},{"start_time":1551887784136,"click_time":1551887785606,"finger_time":1551887785505,"fix_duration":250,"trial":14,"RT":1369,"MT":101,"sideResp":2,"stimulus":"img/500/equaldotsize/L/11_Ratio_500_L_12_R_6.png","xmouse":[761,761,761,761,761,761,761,761,761,761,761,761,761,761,761,761,761,761,761,761,761,761,761,761,761,761,761,761,761,761,760,758,753,752,752,752,752,752,752,752,752,752,754,761,772,774,777,785,790,793,793,793,793,793,793,788,782,781,781,781,781,781,781,781,781,781,781,781,781,783,806,835,959,1114],"ymouse":[481,481,481,481,481,481,481,481,481,481,481,481,481,481,481,481,481,481,481,481,481,481,481,481,481,481,481,481,481,481,479,477,473,472,472,472,472,472,472,472,472,472,472,471,469,469,469,473,480,485,485,485,485,485,485,480,473,472,472,472,472,472,472,470,457,452,452,452,449,442,381,321,187,68],"timestamp_mouse":[8,38,48,70,88,108,128,148,168,188,209,228,249,270,288,309,328,349,369,389,409,430,449,468,490,508,529,548,568,589,609,630,649,668,688,709,730,748,769,789,808,829,849,868,888,909,928,948,969,988,1009,1029,1048,1068,1088,1109,1129,1149,1170,1189,1208,1228,1249,1270,1288,1309,1328,1348,1369,1388,1409,1428,1449,1470],"xSR":741.5,"ySR":449.15000000000003,"xT1":424.9,"yT1":0,"xT2":1058.1,"yT2":0,"toosoon":0,"cond_shown":"equaldotsize","ratio_trial":500,"smaller_num":"6","larger_num":"12","correct_side":1,"subjID":"SimonEstebanTorresLeon23","gender":"0","age":"10","school":"6"},{"start_time":1551887791476,"click_time":1551887792424,"finger_time":1551887792304,"fix_duration":1371.7266151416425,"trial":15,"RT":828,"MT":120,"sideResp":2,"stimulus":"img/250/randomdotsizeEA/R/11_Ratio_250_L_3_R_12.png","xmouse":[808,808,808,808,808,808,808,808,808,808,808,808,808,808,808,808,808,808,808,808,808,808,808,808,808,808,808,808,808,808,808,808,808,808,808,808,808,808,808,808,829,854,968,1015,1059,1105,1122,1138],"ymouse":[500,500,500,500,500,500,500,500,500,500,500,500,500,500,500,500,500,500,500,500,500,500,500,500,500,500,500,500,500,500,500,500,500,500,500,500,500,500,500,500,483,463,353,299,241,154,109,57],"timestamp_mouse":[8,33,48,70,89,108,129,148,168,188,208,229,249,268,288,309,328,348,368,388,408,429,448,470,489,508,528,548,570,589,608,629,649,668,690,709,728,748,768,789,808,828,848,868,889,909,928,948],"xSR":741.5,"ySR":449.15000000000003,"xT1":424.9,"yT1":0,"xT2":1058.1,"yT2":0,"toosoon":0,"cond_shown":"randomdotsizeEA","ratio_trial":250,"smaller_num":"3","larger_num":"12","correct_side":2,"subjID":"SimonEstebanTorresLeon23","gender":"0","age":"10","school":"6"},{"start_time":1551887796013,"click_time":1551887797304,"finger_time":1551887796925,"fix_duration":1209.2145924294764,"trial":16,"RT":912,"MT":379,"sideResp":2,"stimulus":"img/750/randomdotsizeEA/R/7_Ratio_750_L_3_R_4.png","xmouse":[806,806,806,806,806,806,806,806,806,806,806,806,806,806,806,806,806,806,806,806,806,806,806,806,806,806,806,806,806,806,806,806,806,806,806,806,806,806,806,806,806,806,806,806,818,899,974,1055,1167,1219,1241,1248,1245,1236,1229,1206,1192,1177,1171,1171,1171,1171,1171,1171,1147],"ymouse":[499,499,499,499,499,499,499,499,499,499,499,499,499,499,499,499,499,499,499,499,499,499,499,499,499,499,499,499,499,499,499,499,499,499,499,499,499,499,499,499,499,499,499,499,494,461,426,374,280,220,185,146,131,110,93,45,23,7,2,2,2,2,2,2,1],"timestamp_mouse":[17,31,51,72,91,113,132,151,171,193,211,231,252,271,292,312,332,351,371,391,412,432,451,472,491,512,532,552,572,592,611,632,653,671,692,713,731,751,772,792,812,831,851,872,892,912,932,951,971,992,1012,1032,1053,1072,1091,1112,1132,1151,1172,1191,1211,1231,1253,1272,1291],"xSR":741.5,"ySR":449.15000000000003,"xT1":424.9,"yT1":0,"xT2":1058.1,"yT2":0,"toosoon":0,"cond_shown":"randomdotsizeEA","ratio_trial":750,"smaller_num":"3","larger_num":"4","correct_side":2,"subjID":"SimonEstebanTorresLeon23","gender":"0","age":"10","school":"6"},{"start_time":1551887799540,"click_time":1551887800864,"finger_time":1551887800544,"fix_duration":1154.0594185888624,"trial":17,"RT":1004,"MT":320,"sideResp":1,"stimulus":"img/900/randomdotsizeEA/R/7_Ratio_900_L_9_R_10.png","xmouse":[775,775,775,775,775,775,775,775,775,775,775,775,775,775,775,775,775,775,775,775,775,775,775,775,775,775,775,775,775,775,775,775,775,775,775,775,775,777,779,781,781,781,781,781,781,781,781,782,777,756,735,696,629,586,535,520,509,504,503,502,502,502,502,503,504,505,505],"ymouse":[481,481,481,481,481,481,481,481,481,481,481,481,481,481,481,481,481,481,481,481,481,481,481,481,481,481,481,481,481,481,481,481,481,481,481,481,481,479,477,476,476,476,476,476,476,476,476,476,473,454,431,392,332,291,234,212,192,179,170,149,138,132,127,124,113,103,95],"timestamp_mouse":[9,31,45,65,85,106,126,145,165,184,204,224,244,264,286,304,325,344,365,386,404,424,445,464,484,504,524,544,566,584,605,625,644,664,684,705,724,745,764,784,805,824,844,865,885,904,924,944,965,984,1004,1025,1046,1065,1085,1104,1124,1145,1164,1185,1204,1224,1244,1264,1284,1304,1324],"xSR":741.5,"ySR":449.15000000000003,"xT1":424.9,"yT1":0,"xT2":1058.1,"yT2":0,"toosoon":0,"cond_shown":"randomdotsizeEA","ratio_trial":900,"smaller_num":"9","larger_num":"10","correct_side":2,"subjID":"SimonEstebanTorresLeon23","gender":"0","age":"10","school":"6"},{"start_time":1551887802656,"click_time":1551887809784,"finger_time":1551887804345,"fix_duration":930.6492054559292,"trial":18,"RT":1689,"MT":5439,"sideResp":1,"stimulus":"img/250/equaldotanddens/R/12_Ratio_250_L_5_R_20.png","xmouse":[794,795,795,795,795,795,796,797,797,797,797,797,797,797,797,797,797,797,797,797,797,797,797,797,797,797,797,797,797,797,797,797,797,797,797,797,797,797,797,797,797,797,797,797,797,797,797,797,797,797,797,797,797,797,797,797,797,797,797,797,797,797,797,797,797,797,797,797,797,797,797,797,797,797,797,797,797,797,798,803,809,816,821,825,826,826,826,826,826,828,830,833,834,835,835,835,835,835,835,835,835,835,835,835,835,835,835,835,835,835,835,835,835,835,835,835,835,835,835,835,835,835,835,835,835,835,835,835,835,835,835,835,835,835,835,835,835,835,835,835,835,835,835,835,835,835,835,835,835,835,835,835,835,835,835,835,835,835,835,835,835,835,835,835,835,835,835,835,835,835,835,835,835,835,835,835,835,835,835,835,835,835,835,835,835,835,835,835,835,835,835,835,835,835,835,835,835,835,835,835,835,835,835,835,835,835,835,835,835,835,835,835,835,835,835,835,835,835,835,835,835,835,835,835,835,835,835,835,835,835,835,835,835,835,835,835,835,835,835,835,835,835,835,835,835,835,835,835,835,835,835,835,835,835,835,835,835,835,835,835,835,835,835,835,835,835,835,835,835,835,835,835,835,835,835,835,835,835,835,835,835,835,835,835,835,835,835,835,835,835,835,835,835,835,835,835,835,835,835,835,835,835,835,835,835,835,835,835,835,835,835,835,841,864,877,885,888,888,888,888,888,886,880,861,854,847,838,834,832,832,832,832,826,814,805,802,799,797,794,768,749,725,703,651,634,623,615,612,605,599,596,594,590,580,544,524,499],"ymouse":[470,469,469,469,469,469,466,465,465,465,465,465,465,465,465,465,465,465,465,465,465,465,465,465,465,465,465,465,465,465,465,465,465,465,465,465,465,465,465,465,465,465,465,465,465,465,465,465,465,465,465,465,465,465,465,465,465,465,465,465,465,465,465,465,465,465,465,465,465,465,465,465,465,465,465,465,465,465,464,460,457,454,451,450,449,449,449,449,449,449,449,449,449,449,449,449,449,449,449,449,449,449,449,449,449,449,449,449,449,449,449,449,449,449,449,449,449,449,449,449,449,449,449,449,449,449,449,449,449,449,449,449,449,449,449,449,449,449,449,449,449,449,449,449,449,449,449,449,449,449,449,449,449,449,449,449,449,449,449,449,449,449,449,449,449,449,449,449,449,449,449,449,449,449,449,449,449,449,449,449,449,449,449,449,449,449,449,449,449,449,449,449,449,449,449,449,449,449,449,449,449,449,449,449,449,449,449,449,449,449,449,449,449,449,449,449,449,449,449,449,449,449,449,449,449,449,449,449,449,449,449,449,449,449,449,449,449,449,449,449,449,449,449,449,449,449,449,449,449,449,449,449,449,449,449,449,449,449,449,449,449,449,449,449,449,449,449,449,449,449,449,449,449,449,449,449,449,449,449,449,449,449,449,449,449,449,449,449,449,449,449,449,449,449,449,449,449,449,449,449,449,449,449,449,449,449,449,449,449,449,449,449,444,415,398,387,381,381,381,381,381,388,394,429,443,457,471,477,480,480,480,480,482,486,488,488,488,488,487,439,396,354,316,228,201,182,168,162,149,143,140,139,137,135,120,109,94],"timestamp_mouse":[10,29,51,69,88,109,129,148,169,188,208,229,250,269,289,308,328,349,369,390,408,428,448,469,489,509,529,549,569,588,610,629,649,669,689,709,729,749,769,790,809,829,848,868,890,909,928,948,968,989,1008,1028,1050,1068,1089,1109,1129,1149,1169,1189,1209,1230,1249,1269,1289,1309,1328,1348,1369,1390,1408,1429,1448,1470,1490,1509,1529,1548,1568,1588,1608,1629,1649,1668,1689,1709,1728,1748,1769,1789,1808,1828,1850,1869,1889,1908,1929,1948,1970,1990,2008,2029,2048,2069,2090,2108,2130,2149,2169,2188,2209,2228,2248,2270,2288,2309,2328,2349,2369,2389,2408,2429,2449,2469,2489,2509,2528,2549,2569,2589,2610,2628,2649,2669,2689,2709,2730,2749,2769,2788,2808,2828,2849,2869,2888,2909,2928,2949,2970,2990,3008,3029,3048,3069,3089,3109,3129,3148,3168,3188,3208,3229,3249,3268,3288,3308,3330,3348,3369,3389,3409,3430,3448,3469,3489,3509,3530,3549,3568,3590,3609,3628,3648,3669,3689,3708,3729,3748,3769,3788,3808,3828,3849,3868,3890,3909,3929,3949,3969,3989,4009,4028,4049,4068,4090,4109,4129,4148,4168,4189,4208,4228,4248,4268,4288,4308,4329,4349,4369,4389,4408,4429,4448,4469,4489,4508,4528,4549,4569,4588,4608,4628,4648,4669,4688,4708,4730,4749,4769,4788,4809,4830,4849,4869,4888,4909,4929,4949,4968,4992,5008,5029,5048,5069,5089,5109,5129,5149,5169,5188,5209,5228,5249,5268,5289,5308,5328,5348,5368,5388,5409,5429,5449,5469,5489,5508,5529,5550,5569,5588,5608,5629,5648,5669,5689,5708,5728,5750,5769,5789,5808,5828,5849,5868,5889,5908,5928,5949,5968,5990,6009,6028,6048,6068,6090,6108,6129,6150,6169,6188,6209,6228,6250,6269,6289,6309,6330,6349,6368,6389,6409,6429,6449,6468,6488,6509,6528,6549,6569,6589,6608,6629,6648,6668,6689,6709,6729,6748,6768,6789,6809,6830,6848,6869,6888,6908,6928,6948,6969,6989,7009,7029,7048,7068,7088,7109,7128],"xSR":741.5,"ySR":449.15000000000003,"xT1":424.9,"yT1":0,"xT2":1058.1,"yT2":0,"toosoon":0,"cond_shown":"equaldotanddens","ratio_trial":250,"smaller_num":"5","larger_num":"20","correct_side":2,"subjID":"SimonEstebanTorresLeon23","gender":"0","age":"10","school":"6"},{"start_time":1551887811099,"click_time":1551887812185,"finger_time":1551887811845,"fix_duration":593.6376299541002,"trial":19,"RT":746,"MT":340,"sideResp":1,"stimulus":"img/500/equaldotsize/L/11_Ratio_500_L_12_R_6.png","xmouse":[822,822,822,822,822,822,822,822,822,822,822,822,822,822,822,822,822,822,822,822,822,822,822,822,822,822,822,822,822,822,822,822,822,822,822,822,784,738,670,596,522,423,414,414,414,414,414,414,414,414,414,414,414,438,455],"ymouse":[501,501,501,501,501,501,501,501,501,501,501,501,500,499,495,494,491,491,491,491,491,491,491,491,491,491,491,491,491,491,491,491,491,491,491,489,458,404,326,242,154,24,4,4,4,4,4,4,4,4,4,4,4,0,38],"timestamp_mouse":[10,25,46,66,85,105,127,147,166,185,207,225,245,265,286,306,325,346,365,385,405,426,445,465,485,505,526,546,566,585,607,626,645,666,687,705,725,746,765,786,805,826,845,865,886,906,926,946,965,986,1006,1027,1046,1066,1086],"xSR":741.5,"ySR":449.15000000000003,"xT1":424.9,"yT1":0,"xT2":1058.1,"yT2":0,"toosoon":0,"cond_shown":"equaldotsize","ratio_trial":500,"smaller_num":"6","larger_num":"12","correct_side":1,"subjID":"SimonEstebanTorresLeon23","gender":"0","age":"10","school":"6"},{"start_time":1551887814575,"click_time":1551887815586,"finger_time":1551887815245,"fix_duration":1390.4570391361588,"trial":20,"RT":670,"MT":341,"sideResp":1,"stimulus":"img/250/randomdotsizeEA/L/3_Ratio_250_L_8_R_2.png","xmouse":[767,767,767,767,767,767,767,767,767,767,767,767,767,767,767,767,767,767,767,767,767,767,767,767,767,767,767,767,767,767,767,767,757,733,696,646,592,516,497,483,463,444,414,404,402,402,402,411,417,423,425],"ymouse":[481,481,481,481,481,481,481,481,481,481,481,481,481,481,481,481,481,481,481,481,481,481,481,481,481,481,481,481,481,481,481,481,461,421,369,310,250,175,159,146,128,115,98,90,86,80,72,51,43,35,33],"timestamp_mouse":[9,36,49,71,89,110,130,150,169,189,210,231,251,270,289,310,330,349,370,389,409,429,449,469,490,509,529,549,570,589,609,629,649,670,690,711,731,749,770,790,809,830,850,869,889,909,929,949,969,989,1011],"xSR":741.5,"ySR":449.15000000000003,"xT1":424.9,"yT1":0,"xT2":1058.1,"yT2":0,"toosoon":0,"cond_shown":"randomdotsizeEA","ratio_trial":250,"smaller_num":"2","larger_num":"8","correct_side":1,"subjID":"SimonEstebanTorresLeon23","gender":"0","age":"10","school":"6"},{"start_time":1551887816949,"click_time":1551887817964,"finger_time":1551887817844,"fix_duration":544.9215281649267,"trial":21,"RT":895,"MT":120,"sideResp":1,"stimulus":"img/750/equaldotanddens/L/10_Ratio_750_L_4_R_3.png","xmouse":[760,760,760,760,760,760,760,760,760,760,760,760,760,760,760,760,760,760,760,760,760,760,760,760,760,760,760,760,760,760,760,760,760,760,760,760,760,760,760,760,760,760,760,744,718,671,604,547,475,463,456],"ymouse":[478,478,478,478,478,478,478,478,478,478,478,478,478,478,478,478,478,478,478,478,478,478,478,478,478,478,478,478,478,478,478,478,478,478,478,478,478,478,478,478,478,478,478,470,450,405,345,271,144,105,73],"timestamp_mouse":[21,38,55,75,96,116,135,155,176,195,216,235,255,275,296,315,336,356,375,396,415,437,457,477,495,516,535,556,575,597,616,636,655,675,697,717,735,756,775,797,816,837,856,875,895,916,935,955,975,995,1015],"xSR":741.5,"ySR":449.15000000000003,"xT1":424.9,"yT1":0,"xT2":1058.1,"yT2":0,"toosoon":0,"cond_shown":"equaldotanddens","ratio_trial":750,"smaller_num":"3","larger_num":"4","correct_side":1,"subjID":"SimonEstebanTorresLeon23","gender":"0","age":"10","school":"6"},{"start_time":1551887819882,"click_time":1551887820564,"finger_time":1551887820506,"fix_duration":1257.0124989449805,"trial":22,"RT":624,"MT":58,"sideResp":1,"stimulus":"img/250/equaldotanddens/L/3_Ratio_250_L_8_R_2.png","xmouse":[780,780,780,780,780,780,780,780,780,780,780,780,780,780,780,780,780,780,780,780,780,780,780,780,780,780,780,780,780,764,748,693,551,481,436],"ymouse":[519,519,519,519,519,519,519,519,519,519,519,519,519,519,519,519,519,519,519,519,519,519,519,519,519,519,519,519,519,494,469,393,209,142,98],"timestamp_mouse":[9,24,42,64,82,103,123,142,162,183,202,222,242,263,282,302,324,343,363,383,403,423,442,464,482,504,523,542,562,582,603,624,643,664,682],"xSR":741.5,"ySR":449.15000000000003,"xT1":424.9,"yT1":0,"xT2":1058.1,"yT2":0,"toosoon":0,"cond_shown":"equaldotanddens","ratio_trial":250,"smaller_num":"2","larger_num":"8","correct_side":1,"subjID":"SimonEstebanTorresLeon23","gender":"0","age":"10","school":"6"},{"start_time":1551887822021,"click_time":1551887822984,"finger_time":1551887822624,"fix_duration":795.6385112100905,"trial":23,"RT":603,"MT":360,"sideResp":1,"stimulus":"img/500/equaldotanddens/L/5_Ratio_500_L_4_R_2.png","xmouse":[790,790,790,790,790,790,790,790,790,790,790,790,790,790,790,790,790,790,790,790,790,790,790,790,790,790,790,790,789,780,761,704,666,635,611,594,587,582,571,561,552,542,542,542,542,541,538,531,523],"ymouse":[497,497,497,497,497,497,497,497,497,497,497,497,497,497,497,497,497,497,497,497,497,497,497,497,497,497,497,497,497,479,444,324,258,207,167,125,108,91,68,53,41,29,29,29,29,29,29,29,31],"timestamp_mouse":[8,37,43,63,84,103,124,144,164,184,204,223,243,263,283,303,324,344,381,384,405,424,444,464,483,503,523,544,564,584,603,624,643,663,685,703,723,744,764,783,803,823,843,863,883,903,923,944,963],"xSR":741.5,"ySR":449.15000000000003,"xT1":424.9,"yT1":0,"xT2":1058.1,"yT2":0,"toosoon":0,"cond_shown":"equaldotanddens","ratio_trial":500,"smaller_num":"2","larger_num":"4","correct_side":1,"subjID":"SimonEstebanTorresLeon23","gender":"0","age":"10","school":"6"},{"start_time":1551887824057,"click_time":1551887824784,"finger_time":1551887824745,"fix_duration":250,"trial":24,"RT":688,"MT":39,"sideResp":1,"stimulus":"img/500/equaldotanddens/L/10_Ratio_500_L_4_R_2.png","xmouse":[824,824,824,824,824,824,824,824,824,824,824,824,824,824,824,824,824,824,824,824,824,824,824,823,812,809,807,804,801,800,799,796,791,762,706,590,496],"ymouse":[529,529,529,529,529,529,529,529,529,529,529,529,529,529,529,529,529,529,529,529,529,529,529,530,526,525,523,522,521,520,520,519,517,483,406,231,91],"timestamp_mouse":[10,38,48,67,87,107,127,147,167,187,207,228,247,268,288,307,327,348,367,388,407,427,447,467,488,507,528,547,567,588,608,627,647,668,688,708,727],"xSR":741.5,"ySR":449.15000000000003,"xT1":424.9,"yT1":0,"xT2":1058.1,"yT2":0,"toosoon":0,"cond_shown":"equaldotanddens","ratio_trial":500,"smaller_num":"2","larger_num":"4","correct_side":1,"subjID":"SimonEstebanTorresLeon23","gender":"0","age":"10","school":"6"},{"start_time":1551887826091,"click_time":1551887826965,"finger_time":1551887826685,"fix_duration":365.65405176125387,"trial":25,"RT":594,"MT":280,"sideResp":1,"stimulus":"img/750/randomdotsizeEA/L/13_Ratio_750_L_8_R_6.png","xmouse":[751,751,751,751,751,751,751,751,751,751,751,751,751,751,751,751,751,751,751,751,751,751,751,751,751,751,751,751,745,724,695,604,568,541,514,504,498,489,485,477,471,456,451,448],"ymouse":[470,470,470,470,470,470,470,470,470,470,470,470,470,470,470,470,470,470,470,470,470,470,470,470,470,470,470,470,469,458,441,376,340,310,268,247,231,205,189,174,160,123,105,89],"timestamp_mouse":[15,34,54,75,94,113,134,154,174,194,214,233,253,273,294,315,333,354,373,393,414,433,455,473,493,513,534,554,574,594,613,634,653,673,694,713,733,754,773,794,813,833,853,874],"xSR":741.5,"ySR":449.15000000000003,"xT1":424.9,"yT1":0,"xT2":1058.1,"yT2":0,"toosoon":0,"cond_shown":"randomdotsizeEA","ratio_trial":750,"smaller_num":"6","larger_num":"8","correct_side":1,"subjID":"SimonEstebanTorresLeon23","gender":"0","age":"10","school":"6"},{"start_time":1551887829271,"click_time":1551887830225,"finger_time":1551887830144,"fix_duration":1345.407984003522,"trial":26,"RT":873,"MT":81,"sideResp":2,"stimulus":"img/250/randomdotsizeEA/R/8_Ratio_250_L_1_R_4.png","xmouse":[805,805,805,805,805,805,805,805,805,805,805,805,805,805,805,805,805,805,805,805,805,805,805,805,805,805,805,805,805,805,805,805,805,805,805,805,805,805,805,805,805,808,833,860,931,985,1047,1106],"ymouse":[473,473,473,473,473,473,473,473,473,473,473,473,473,473,473,473,473,473,473,473,473,473,473,473,473,473,473,473,473,473,473,473,473,473,473,473,473,473,473,473,473,473,458,440,380,321,224,94],"timestamp_mouse":[14,36,54,74,93,115,134,153,173,193,213,233,253,274,293,314,333,353,373,394,413,433,453,473,494,514,534,553,573,593,613,633,654,674,694,713,733,753,774,794,814,834,853,873,893,913,934,954],"xSR":741.5,"ySR":449.15000000000003,"xT1":424.9,"yT1":0,"xT2":1058.1,"yT2":0,"toosoon":0,"cond_shown":"randomdotsizeEA","ratio_trial":250,"smaller_num":"1","larger_num":"4","correct_side":2,"subjID":"SimonEstebanTorresLeon23","gender":"0","age":"10","school":"6"},{"start_time":1551887832088,"click_time":1551887833026,"finger_time":1551887832924,"fix_duration":1042.1641614417022,"trial":27,"RT":836,"MT":102,"sideResp":2,"stimulus":"img/250/equaldotanddens/R/13_Ratio_250_L_2_R_8.png","xmouse":[810,810,810,810,810,810,810,810,810,810,810,810,810,810,810,810,810,810,810,810,810,810,810,810,810,810,810,810,810,810,810,810,810,810,810,810,810,810,811,815,832,896,933,982,1024,1050,1071],"ymouse":[507,507,507,507,507,507,507,507,507,507,507,507,507,507,507,507,507,507,507,507,507,507,507,507,507,507,507,507,507,507,507,507,507,507,507,507,507,507,505,497,468,378,325,252,170,106,54],"timestamp_mouse":[21,37,57,76,97,116,136,157,176,197,216,236,256,277,297,316,336,357,376,396,416,436,457,477,496,516,538,557,577,596,617,636,656,676,696,716,736,758,776,797,816,836,856,876,897,917,937],"xSR":741.5,"ySR":449.15000000000003,"xT1":424.9,"yT1":0,"xT2":1058.1,"yT2":0,"toosoon":0,"cond_shown":"equaldotanddens","ratio_trial":250,"smaller_num":"2","larger_num":"8","correct_side":2,"subjID":"SimonEstebanTorresLeon23","gender":"0","age":"10","school":"6"},{"start_time":1551887834890,"click_time":1551887836024,"finger_time":1551887835684,"fix_duration":1145.0911028141104,"trial":28,"RT":794,"MT":340,"sideResp":2,"stimulus":"img/750/randomdotsizeEA/R/15_Ratio_750_L_9_R_12.png","xmouse":[812,812,812,812,812,812,812,812,812,812,812,812,812,812,812,812,812,812,812,812,812,812,812,812,812,812,812,812,812,812,812,812,812,812,812,812,811,814,826,849,877,936,958,976,994,1002,1016,1020,1021,1022,1022,1022,1022,1022,1026,1035,1071],"ymouse":[514,514,514,514,514,514,514,514,514,514,514,514,514,514,514,514,514,514,514,514,514,514,514,514,514,514,514,514,514,514,514,514,514,514,514,514,514,499,471,420,350,213,164,121,69,47,15,8,6,5,5,5,5,5,5,7,23],"timestamp_mouse":[14,35,55,74,95,114,134,159,174,195,214,235,254,275,294,315,335,355,374,394,415,434,454,474,494,514,534,554,575,594,615,634,655,675,695,714,734,754,775,794,814,835,854,876,894,914,935,955,974,994,1014,1034,1054,1074,1094,1115,1134],"xSR":741.5,"ySR":449.15000000000003,"xT1":424.9,"yT1":0,"xT2":1058.1,"yT2":0,"toosoon":0,"cond_shown":"randomdotsizeEA","ratio_trial":750,"smaller_num":"9","larger_num":"12","correct_side":2,"subjID":"SimonEstebanTorresLeon23","gender":"0","age":"10","school":"6"},{"start_time":1551887836976,"click_time":1551887838184,"finger_time":1551887837824,"fix_duration":250,"trial":29,"RT":848,"MT":360,"sideResp":1,"stimulus":"img/900/equaldotanddens/L/8_Ratio_900_L_20_R_18.png","xmouse":[792,792,792,792,792,792,792,792,792,792,792,792,792,792,792,792,792,792,792,792,792,792,792,792,792,792,792,792,792,792,792,792,792,792,792,792,792,792,792,792,792,789,749,702,631,563,512,458,447,446,444,440,436,436,436,436,436,444,452,457,462],"ymouse":[505,505,505,505,505,505,505,505,505,505,505,505,505,505,505,505,505,505,505,505,505,505,505,505,505,505,505,505,505,505,505,505,505,505,505,505,505,505,505,505,505,501,449,397,328,262,217,153,132,130,125,121,117,117,117,117,117,111,107,104,99],"timestamp_mouse":[8,29,49,69,89,108,129,150,169,189,209,229,249,269,289,309,328,348,370,389,409,428,448,468,489,509,528,549,568,588,608,630,649,669,689,708,729,748,769,789,810,828,848,869,888,909,928,949,968,988,1009,1028,1048,1068,1088,1110,1128,1148,1168,1188,1208],"xSR":741.5,"ySR":449.15000000000003,"xT1":424.9,"yT1":0,"xT2":1058.1,"yT2":0,"toosoon":0,"cond_shown":"equaldotanddens","ratio_trial":900,"smaller_num":"18","larger_num":"20","correct_side":1,"subjID":"SimonEstebanTorresLeon23","gender":"0","age":"10","school":"6"},{"start_time":1551887839445,"click_time":1551887840424,"finger_time":1551887840045,"fix_duration":399.92391117750725,"trial":30,"RT":600,"MT":379,"sideResp":1,"stimulus":"img/500/equaldotsize/L/11_Ratio_500_L_12_R_6.png","xmouse":[806,806,806,806,806,806,806,806,806,806,806,806,806,806,806,806,806,806,806,806,806,806,806,806,806,806,806,806,798,746,693,640,601,576,561,559,559,557,556,551,546,537,528,514,485,473,462,447,440,435],"ymouse":[496,496,496,496,496,496,496,496,496,496,496,496,496,496,496,496,496,496,496,496,496,496,496,496,496,496,496,496,494,467,439,409,379,351,304,289,275,255,242,220,204,190,179,167,149,141,133,114,101,83],"timestamp_mouse":[1,36,40,59,79,99,119,139,160,179,199,220,240,259,280,300,320,341,359,380,400,420,439,459,480,499,519,539,559,580,600,619,641,659,679,699,719,740,759,780,799,820,840,859,879,899,919,939,959,979],"xSR":741.5,"ySR":449.15000000000003,"xT1":424.9,"yT1":0,"xT2":1058.1,"yT2":0,"toosoon":0,"cond_shown":"equaldotsize","ratio_trial":500,"smaller_num":"6","larger_num":"12","correct_side":1,"subjID":"SimonEstebanTorresLeon23","gender":"0","age":"10","school":"6"},{"start_time":1551887842316,"click_time":1551887843324,"finger_time":1551887843024,"fix_duration":1091.0936401783117,"trial":31,"RT":708,"MT":300,"sideResp":2,"stimulus":"img/750/equaldotanddens/R/11_Ratio_750_L_12_R_16.png","xmouse":[778,778,778,778,778,778,778,778,778,778,778,778,778,778,778,778,778,778,778,778,778,778,778,778,778,778,778,778,778,778,778,778,780,785,796,816,905,956,1000,1030,1057,1061,1065,1069,1071,1074,1074,1074,1074,1075,1077],"ymouse":[502,502,502,502,502,502,502,502,502,502,502,502,502,502,502,502,502,502,502,502,502,502,502,502,502,502,502,502,502,502,502,502,501,488,466,430,327,283,244,215,184,176,169,154,143,127,122,119,117,112,95],"timestamp_mouse":[9,43,49,69,88,108,129,148,169,189,210,228,249,269,288,308,329,348,369,388,408,429,448,468,489,508,528,549,569,589,608,630,649,668,689,708,728,748,769,789,809,828,848,868,889,909,928,948,970,989,1008],"xSR":741.5,"ySR":449.15000000000003,"xT1":424.9,"yT1":0,"xT2":1058.1,"yT2":0,"toosoon":0,"cond_shown":"equaldotanddens","ratio_trial":750,"smaller_num":"12","larger_num":"16","correct_side":2,"subjID":"SimonEstebanTorresLeon23","gender":"0","age":"10","school":"6"},{"start_time":1551887845345,"click_time":1551887846164,"finger_time":1551887845926,"fix_duration":1339.1972968615187,"trial":32,"RT":581,"MT":238,"sideResp":1,"stimulus":"img/250/equaldotanddens/L/3_Ratio_250_L_8_R_2.png","xmouse":[779,779,779,779,779,779,779,779,779,779,779,779,779,779,779,779,779,779,779,779,779,779,779,779,779,779,778,776,754,732,707,670,656,644,640,636,634,625,559,528,512],"ymouse":[513,513,513,513,513,513,513,513,513,513,513,513,513,513,513,513,513,513,513,513,513,513,513,513,513,513,495,482,391,320,249,146,95,59,50,43,41,33,12,9,7],"timestamp_mouse":[33,41,59,79,100,119,139,159,179,200,219,239,260,279,299,320,339,359,379,400,419,439,459,479,499,519,539,559,581,599,619,639,659,679,699,719,740,760,779,799,819],"xSR":741.5,"ySR":449.15000000000003,"xT1":424.9,"yT1":0,"xT2":1058.1,"yT2":0,"toosoon":0,"cond_shown":"equaldotanddens","ratio_trial":250,"smaller_num":"2","larger_num":"8","correct_side":1,"subjID":"SimonEstebanTorresLeon23","gender":"0","age":"10","school":"6"},{"start_time":1551887848125,"click_time":1551887849024,"finger_time":1551887848864,"fix_duration":1098.9675334738747,"trial":33,"RT":739,"MT":160,"sideResp":2,"stimulus":"img/900/randomdotsizeEA/R/15_Ratio_900_L_9_R_10.png","xmouse":[793,793,793,793,793,793,793,793,793,793,793,794,794,794,794,794,794,794,794,795,795,795,795,795,795,795,795,795,795,795,795,796,797,802,806,815,823,838,863,899,990,1023,1042,1061,1071,1100],"ymouse":[520,520,520,520,519,516,515,515,515,515,515,513,513,511,511,510,510,510,510,509,509,509,509,509,509,509,509,509,509,509,509,505,504,496,490,474,461,438,400,350,229,191,169,142,125,77],"timestamp_mouse":[1,31,39,59,79,99,120,139,159,179,200,219,239,260,281,299,319,340,359,380,399,421,439,460,479,499,521,540,559,579,599,619,640,659,679,699,720,739,760,779,799,820,840,860,880,899],"xSR":741.5,"ySR":449.15000000000003,"xT1":424.9,"yT1":0,"xT2":1058.1,"yT2":0,"toosoon":0,"cond_shown":"randomdotsizeEA","ratio_trial":900,"smaller_num":"9","larger_num":"10","correct_side":2,"subjID":"SimonEstebanTorresLeon23","gender":"0","age":"10","school":"6"},{"start_time":1551887851152,"click_time":1551887851924,"finger_time":1551887851824,"fix_duration":1367.509373270123,"trial":34,"RT":672,"MT":100,"sideResp":1,"stimulus":"img/900/equaldotsize/L/1_Ratio_900_L_10_R_9.png","xmouse":[793,793,793,793,793,793,793,793,793,793,793,793,793,793,793,793,793,793,793,793,793,793,793,793,793,793,793,793,793,793,793,793,785,742,697,645,587,531,453],"ymouse":[489,489,489,489,489,489,489,489,489,489,489,489,489,489,489,489,489,489,489,489,489,489,489,489,489,489,489,489,489,489,489,480,462,391,325,257,187,131,70],"timestamp_mouse":[13,38,52,72,93,112,132,152,172,192,212,233,252,272,292,313,333,352,373,392,412,432,453,473,492,514,532,553,572,593,612,632,652,672,692,712,732,752,772],"xSR":741.5,"ySR":449.15000000000003,"xT1":424.9,"yT1":0,"xT2":1058.1,"yT2":0,"toosoon":0,"cond_shown":"equaldotsize","ratio_trial":900,"smaller_num":"9","larger_num":"10","correct_side":1,"subjID":"SimonEstebanTorresLeon23","gender":"0","age":"10","school":"6"},{"start_time":1551887855163,"click_time":1551887856145,"finger_time":1551887855945,"fix_duration":858.5597265634213,"trial":35,"RT":782,"MT":200,"sideResp":2,"stimulus":"img/900/equaldotsize/L/4_Ratio_900_L_20_R_18.png","xmouse":[808,808,808,808,808,808,808,808,808,808,808,808,808,808,808,808,808,808,808,808,808,808,808,808,808,808,808,808,808,808,808,808,808,808,808,808,808,808,834,871,945,992,1024,1055,1055,1056,1057,1057,1058,1059],"ymouse":[516,516,516,516,516,516,516,516,516,516,515,514,514,513,513,513,513,513,513,513,513,513,513,513,513,513,513,513,513,513,513,513,513,513,513,513,513,507,478,447,371,310,245,134,99,68,40,25,16,15],"timestamp_mouse":[9,22,41,61,81,101,121,141,161,181,201,222,242,262,281,301,322,342,361,382,401,421,441,462,482,501,521,541,561,581,601,622,641,661,681,701,721,741,762,782,801,822,841,861,882,902,921,942,961,982],"xSR":741.5,"ySR":449.15000000000003,"xT1":424.9,"yT1":0,"xT2":1058.1,"yT2":0,"toosoon":0,"cond_shown":"equaldotsize","ratio_trial":900,"smaller_num":"18","larger_num":"20","correct_side":1,"subjID":"SimonEstebanTorresLeon23","gender":"0","age":"10","school":"6"},{"start_time":1551887890398,"click_time":1551887891187,"finger_time":1551887890866,"fix_duration":250,"trial":36,"RT":468,"MT":321,"sideResp":1,"stimulus":"img/250/equaldotsize/L/1_Ratio_250_L_8_R_2.png","xmouse":[770,770,770,770,770,770,770,770,770,770,770,770,770,770,770,770,770,770,770,770,770,770,763,737,687,617,446,368,309,283,282,287,291,297,303,315,342,359,397,441],"ymouse":[529,529,529,529,529,529,529,529,529,529,529,529,529,529,529,529,529,529,529,529,529,529,521,502,466,405,238,159,94,49,38,33,32,30,29,26,24,24,30,37],"timestamp_mouse":[8,44,48,67,87,109,129,149,169,187,208,227,248,267,287,307,327,347,368,388,407,429,448,468,487,509,527,548,568,587,608,629,648,668,688,707,728,747,767,789],"xSR":741.5,"ySR":449.15000000000003,"xT1":424.9,"yT1":0,"xT2":1058.1,"yT2":0,"toosoon":0,"cond_shown":"equaldotsize","ratio_trial":250,"smaller_num":"2","larger_num":"8","correct_side":1,"subjID":"SimonEstebanTorresLeon23","gender":"0","age":"10","school":"6"},{"start_time":1551887892937,"click_time":1551887893685,"finger_time":1551887893506,"fix_duration":1188.7543900198837,"trial":37,"RT":569,"MT":179,"sideResp":1,"stimulus":"img/500/randomdotsizeEA/L/11_Ratio_500_L_12_R_6.png","xmouse":[786,786,786,786,786,786,786,786,786,786,786,786,786,786,786,786,786,786,786,786,786,786,786,786,786,786,785,758,697,554,501,480,473,473,478,479,481,483],"ymouse":[512,512,512,512,512,512,512,512,512,512,512,512,512,512,512,512,512,512,512,512,512,512,512,512,512,512,491,459,413,285,230,198,173,158,129,117,103,94],"timestamp_mouse":[8,38,48,69,88,108,128,149,169,190,209,229,248,268,289,310,328,348,369,388,410,428,449,468,488,509,529,550,569,589,609,629,648,669,688,708,729,748],"xSR":741.5,"ySR":449.15000000000003,"xT1":424.9,"yT1":0,"xT2":1058.1,"yT2":0,"toosoon":0,"cond_shown":"randomdotsizeEA","ratio_trial":500,"smaller_num":"6","larger_num":"12","correct_side":1,"subjID":"SimonEstebanTorresLeon23","gender":"0","age":"10","school":"6"},{"start_time":1551887895816,"click_time":1551887896507,"finger_time":1551887896387,"fix_duration":1428.1649199055885,"trial":38,"RT":571,"MT":120,"sideResp":1,"stimulus":"img/250/randomdotsizeEA/L/5_Ratio_250_L_24_R_6.png","xmouse":[823,823,823,823,823,823,823,823,823,823,823,823,823,823,823,823,823,823,823,823,823,823,823,823,823,823,820,814,783,737,602,544,503,487,483],"ymouse":[493,493,493,493,493,493,493,493,493,493,493,493,493,493,493,493,493,493,493,493,493,493,493,493,493,493,492,484,445,390,243,183,132,104,90],"timestamp_mouse":[10,41,50,70,89,111,130,150,170,191,210,230,251,270,290,310,330,350,371,390,410,430,449,469,491,510,530,549,571,590,610,630,649,670,691],"xSR":741.5,"ySR":449.15000000000003,"xT1":424.9,"yT1":0,"xT2":1058.1,"yT2":0,"toosoon":0,"cond_shown":"randomdotsizeEA","ratio_trial":250,"smaller_num":"6","larger_num":"24","correct_side":1,"subjID":"SimonEstebanTorresLeon23","gender":"0","age":"10","school":"6"},{"start_time":1551887899790,"click_time":1551887900806,"finger_time":1551887900525,"fix_duration":1162.6721686021108,"trial":39,"RT":735,"MT":281,"sideResp":1,"stimulus":"img/750/equaldotsize/L/10_Ratio_750_L_4_R_3.png","xmouse":[798,798,798,798,798,798,798,798,798,798,798,798,798,798,798,798,798,798,798,798,798,798,798,798,798,798,798,798,798,798,798,798,798,798,798,798,745,704,653,653,653,653,653,653,653,653,653,653,653,653,467],"ymouse":[517,517,517,517,517,517,517,517,517,517,517,517,517,517,517,517,517,517,517,517,517,517,517,517,517,517,517,517,517,517,517,517,517,517,498,479,283,160,37,37,37,37,37,37,37,37,37,37,37,37,29],"timestamp_mouse":[16,47,56,76,97,116,136,156,175,196,215,237,256,275,295,317,335,357,375,395,416,437,456,476,495,515,536,556,575,596,617,635,657,677,696,716,735,756,777,796,816,836,855,876,895,916,935,955,975,995,1015],"xSR":741.5,"ySR":449.15000000000003,"xT1":424.9,"yT1":0,"xT2":1058.1,"yT2":0,"toosoon":0,"cond_shown":"equaldotsize","ratio_trial":750,"smaller_num":"3","larger_num":"4","correct_side":1,"subjID":"SimonEstebanTorresLeon23","gender":"0","age":"10","school":"6"},{"start_time":1551887903729,"click_time":1551887904507,"finger_time":1551887904406,"fix_duration":522.9429294839281,"trial":40,"RT":677,"MT":101,"sideResp":2,"stimulus":"img/250/equaldotsize/R/13_Ratio_250_L_2_R_8.png","xmouse":[803,803,803,803,803,803,803,803,803,803,803,803,803,803,803,803,803,803,803,802,802,802,801,801,801,801,801,801,801,801,801,802,818,842,923,970,1019,1065,1088],"ymouse":[536,536,536,536,536,536,536,536,536,536,536,535,535,535,535,535,534,534,534,533,532,532,531,531,531,531,531,531,530,529,524,520,488,446,326,256,193,134,97],"timestamp_mouse":[16,39,58,77,97,116,136,157,177,198,217,237,257,277,296,317,337,357,376,397,418,437,457,476,496,518,536,558,576,597,616,637,657,677,697,716,737,757,778],"xSR":741.5,"ySR":449.15000000000003,"xT1":424.9,"yT1":0,"xT2":1058.1,"yT2":0,"toosoon":0,"cond_shown":"equaldotsize","ratio_trial":250,"smaller_num":"2","larger_num":"8","correct_side":2,"subjID":"SimonEstebanTorresLeon23","gender":"0","age":"10","school":"6"},{"start_time":1551887906524,"click_time":1551887907386,"finger_time":1551887907066,"fix_duration":1197.8895398424888,"trial":41,"RT":542,"MT":320,"sideResp":1,"stimulus":"img/500/randomdotsizeEA/L/13_Ratio_500_L_12_R_6.png","xmouse":[790,790,790,790,790,790,790,790,790,790,790,790,790,790,790,790,790,790,790,790,790,790,790,790,789,776,753,717,683,640,592,578,572,571,571,577,580,584,585,585,572,560,543,515],"ymouse":[477,477,477,477,477,477,477,477,477,477,477,477,477,476,475,475,475,475,475,474,474,474,474,474,474,472,460,435,406,370,310,229,189,165,149,124,112,99,89,84,73,70,67,62],"timestamp_mouse":[8,31,42,63,83,101,121,143,161,183,202,222,241,262,283,302,321,342,363,382,401,422,442,461,482,501,522,542,563,582,602,621,642,661,682,702,722,741,763,781,801,823,842,861],"xSR":741.5,"ySR":449.15000000000003,"xT1":424.9,"yT1":0,"xT2":1058.1,"yT2":0,"toosoon":0,"cond_shown":"randomdotsizeEA","ratio_trial":500,"smaller_num":"6","larger_num":"12","correct_side":1,"subjID":"SimonEstebanTorresLeon23","gender":"0","age":"10","school":"6"},{"start_time":1551887909217,"click_time":1551887910306,"finger_time":1551887909925,"fix_duration":1090.6192991638638,"trial":42,"RT":708,"MT":381,"sideResp":2,"stimulus":"img/750/equaldotanddens/R/2_Ratio_750_L_6_R_8.png","xmouse":[772,772,772,772,772,772,772,772,772,772,772,772,772,772,772,772,772,772,772,772,772,772,772,772,772,772,772,772,772,772,772,774,787,805,825,871,892,926,946,961,981,988,995,1005,1013,1026,1031,1032,1038,1042,1051,1057,1060,1063,1065],"ymouse":[499,499,499,499,499,499,499,499,499,499,499,499,499,499,499,499,499,499,499,499,499,499,499,499,499,499,499,499,499,499,499,494,485,473,455,404,372,311,277,250,215,203,190,176,164,147,134,131,121,116,107,104,102,101,99],"timestamp_mouse":[10,40,49,68,89,108,129,150,168,188,209,230,249,268,290,308,328,349,370,388,408,430,448,468,489,509,528,549,568,590,609,629,648,669,690,708,729,749,768,788,808,829,848,869,888,909,928,948,968,990,1009,1029,1049,1068,1088],"xSR":741.5,"ySR":449.15000000000003,"xT1":424.9,"yT1":0,"xT2":1058.1,"yT2":0,"toosoon":0,"cond_shown":"equaldotanddens","ratio_trial":750,"smaller_num":"6","larger_num":"8","correct_side":2,"subjID":"SimonEstebanTorresLeon23","gender":"0","age":"10","school":"6"},{"start_time":1551887912643,"click_time":1551887913505,"finger_time":1551887913105,"fix_duration":1477.0060551296067,"trial":43,"RT":462,"MT":400,"sideResp":1,"stimulus":"img/900/equaldotanddens/L/4_Ratio_900_L_20_R_18.png","xmouse":[801,801,801,801,801,801,801,801,801,801,801,801,801,801,801,801,801,801,801,801,800,786,763,739,695,680,670,650,640,625,620,616,614,614,614,615,610,599,587,553,540,532,527,524],"ymouse":[493,493,493,493,493,493,493,493,493,493,493,493,493,493,493,493,493,493,493,493,493,482,466,450,417,405,392,362,343,304,285,266,249,231,196,173,156,139,123,97,88,82,78,76],"timestamp_mouse":[8,33,43,64,84,102,122,143,162,183,204,222,242,262,283,303,323,343,362,382,402,423,443,462,483,503,523,542,562,583,602,623,643,662,682,702,723,744,764,783,802,823,843,862],"xSR":741.5,"ySR":449.15000000000003,"xT1":424.9,"yT1":0,"xT2":1058.1,"yT2":0,"toosoon":0,"cond_shown":"equaldotanddens","ratio_trial":900,"smaller_num":"18","larger_num":"20","correct_side":1,"subjID":"SimonEstebanTorresLeon23","gender":"0","age":"10","school":"6"},{"start_time":1551887914764,"click_time":1551887915426,"finger_time":1551887915266,"fix_duration":657.1367760737771,"trial":44,"RT":502,"MT":160,"sideResp":1,"stimulus":"img/250/equaldotsize/L/14_Ratio_250_L_12_R_3.png","xmouse":[797,797,797,797,797,797,797,797,797,797,797,797,797,797,797,797,797,797,797,797,797,797,797,797,776,736,680,615,513,490,485,484,486,492],"ymouse":[480,480,480,480,480,480,480,480,480,480,480,480,480,480,480,480,480,480,480,480,480,480,480,479,456,408,348,284,178,147,132,118,109,98],"timestamp_mouse":[8,31,41,62,82,101,123,141,161,182,203,222,243,261,282,302,321,342,362,382,402,423,441,461,482,502,522,542,561,581,602,621,642,662],"xSR":741.5,"ySR":449.15000000000003,"xT1":424.9,"yT1":0,"xT2":1058.1,"yT2":0,"toosoon":0,"cond_shown":"equaldotsize","ratio_trial":250,"smaller_num":"3","larger_num":"12","correct_side":1,"subjID":"SimonEstebanTorresLeon23","gender":"0","age":"10","school":"6"},{"start_time":1551887917580,"click_time":1551887918325,"finger_time":1551887918025,"fix_duration":1354.7659667762453,"trial":45,"RT":445,"MT":300,"sideResp":1,"stimulus":"img/900/equaldotsize/R/12_Ratio_900_L_18_R_20.png","xmouse":[778,778,778,778,778,778,778,778,778,778,778,778,778,778,778,778,778,778,777,770,760,744,705,681,660,638,621,593,579,571,564,555,530,518,506,495,481,460],"ymouse":[466,466,466,466,466,466,466,466,466,466,466,466,466,466,466,466,466,466,465,463,457,451,429,415,398,384,370,337,308,287,265,242,199,180,162,142,122,92],"timestamp_mouse":[8,26,60,66,86,106,126,145,165,185,206,225,247,265,285,306,325,345,366,386,406,426,445,466,486,505,525,545,565,585,606,625,646,665,686,705,725,745],"xSR":741.5,"ySR":449.15000000000003,"xT1":424.9,"yT1":0,"xT2":1058.1,"yT2":0,"toosoon":0,"cond_shown":"equaldotsize","ratio_trial":900,"smaller_num":"18","larger_num":"20","correct_side":2,"subjID":"SimonEstebanTorresLeon23","gender":"0","age":"10","school":"6"},{"start_time":1551887922682,"click_time":1551887923746,"finger_time":1551887923246,"fix_duration":1235.8656278253768,"trial":46,"RT":564,"MT":500,"sideResp":2,"stimulus":"img/750/equaldotanddens/R/12_Ratio_750_L_3_R_4.png","xmouse":[780,780,780,780,780,780,780,780,780,780,780,780,780,780,780,780,780,780,780,780,780,780,780,780,780,780,782,817,850,881,927,995,1141,1234,1252,1301,1327,1356,1356,1356,1356,1356,1356,1356,1356,1356,1356,1356,1356,1356,1356,1356,1356,1128],"ymouse":[497,497,497,497,497,497,497,497,497,497,497,497,497,497,497,497,497,497,497,497,497,497,497,497,497,497,496,487,471,450,422,374,256,163,140,81,44,0,0,0,0,0,0,0,0,0,0,0,0,0,0,0,0,1],"timestamp_mouse":[9,23,43,65,83,104,123,143,163,185,204,225,243,263,284,303,323,343,364,384,405,423,444,463,484,503,524,544,564,583,604,625,643,663,684,704,724,744,765,784,804,823,843,864,884,903,924,944,964,983,1004,1023,1044,1064],"xSR":741.5,"ySR":449.15000000000003,"xT1":424.9,"yT1":0,"xT2":1058.1,"yT2":0,"toosoon":0,"cond_shown":"equaldotanddens","ratio_trial":750,"smaller_num":"3","larger_num":"4","correct_side":2,"subjID":"SimonEstebanTorresLeon23","gender":"0","age":"10","school":"6"},{"start_time":1551887925077,"click_time":1551887926186,"finger_time":1551887925826,"fix_duration":250,"trial":47,"RT":749,"MT":360,"sideResp":1,"stimulus":"img/750/randomdotsizeEA/R/2_Ratio_750_L_6_R_8.png","xmouse":[795,795,795,795,795,795,795,795,795,795,795,795,795,795,795,795,795,795,795,795,795,795,795,795,795,795,795,795,795,795,795,795,795,791,784,777,763,724,697,667,641,620,595,587,579,576,574,572,563,555,544,532,505,489,475,468],"ymouse":[469,469,469,469,469,469,469,469,469,469,469,469,469,469,469,469,469,469,469,469,469,469,469,469,469,469,469,469,469,469,469,469,469,469,469,469,464,437,403,359,316,272,221,203,180,170,163,157,144,139,135,129,117,110,101,95],"timestamp_mouse":[8,30,50,70,90,108,129,148,170,188,208,228,248,269,290,309,328,348,369,389,409,429,448,469,489,510,530,548,568,589,608,630,648,668,689,709,729,749,768,789,808,829,848,868,889,909,929,948,968,988,1009,1030,1048,1069,1089,1109],"xSR":741.5,"ySR":449.15000000000003,"xT1":424.9,"yT1":0,"xT2":1058.1,"yT2":0,"toosoon":0,"cond_shown":"randomdotsizeEA","ratio_trial":750,"smaller_num":"6","larger_num":"8","correct_side":2,"subjID":"SimonEstebanTorresLeon23","gender":"0","age":"10","school":"6"},{"start_time":1551887927239,"click_time":1551887928386,"finger_time":1551887927907,"fix_duration":331.44822009095964,"trial":48,"RT":668,"MT":479,"sideResp":2,"stimulus":"img/250/equaldotanddens/R/9_Ratio_250_L_3_R_12.png","xmouse":[784,784,784,784,784,784,784,784,784,784,784,784,784,784,784,784,784,784,784,784,784,784,784,784,784,784,784,784,784,784,784,794,823,885,1078,1186,1293,1413,1448,1460,1460,1459,1452,1441,1389,1340,1283,1223,1193,1172,1171,1171,1171,1172,1172,1164,1159,1158],"ymouse":[501,501,501,501,501,501,501,501,501,501,501,501,501,501,501,501,501,501,501,501,501,501,501,501,501,501,501,501,501,501,501,499,487,461,380,333,286,238,219,209,208,206,202,199,191,185,169,150,138,123,117,104,92,80,72,58,53,53],"timestamp_mouse":[8,35,47,67,87,107,127,148,166,187,208,226,247,267,286,306,327,346,367,386,406,426,447,467,488,507,526,547,567,587,606,627,646,668,687,707,727,747,767,786,807,827,847,866,886,908,928,947,967,986,1006,1027,1047,1066,1086,1107,1126,1147],"xSR":741.5,"ySR":449.15000000000003,"xT1":424.9,"yT1":0,"xT2":1058.1,"yT2":0,"toosoon":0,"cond_shown":"equaldotanddens","ratio_trial":250,"smaller_num":"3","larger_num":"12","correct_side":2,"subjID":"SimonEstebanTorresLeon23","gender":"0","age":"10","school":"6"},{"start_time":1551887929400,"click_time":1551887930185,"finger_time":1551887930066,"fix_duration":353.01252866801445,"trial":49,"RT":666,"MT":119,"sideResp":1,"stimulus":"img/500/equaldotanddens/L/5_Ratio_500_L_4_R_2.png","xmouse":[777,777,777,777,777,777,777,777,777,777,777,777,777,777,777,777,777,777,777,777,777,777,777,777,777,777,777,777,777,777,777,773,760,742,721,694,623,592,548,520],"ymouse":[494,494,494,494,494,494,494,494,494,494,494,494,494,494,494,494,494,494,494,494,494,494,494,494,494,494,494,494,494,494,494,483,454,409,360,298,168,120,54,15],"timestamp_mouse":[10,39,45,66,86,105,125,147,167,185,205,225,247,265,285,306,326,345,366,385,405,426,445,466,487,505,526,545,565,586,607,626,646,666,687,706,725,747,766,785],"xSR":741.5,"ySR":449.15000000000003,"xT1":424.9,"yT1":0,"xT2":1058.1,"yT2":0,"toosoon":0,"cond_shown":"equaldotanddens","ratio_trial":500,"smaller_num":"2","larger_num":"4","correct_side":1,"subjID":"SimonEstebanTorresLeon23","gender":"0","age":"10","school":"6"},{"start_time":1551887932851,"click_time":1551887933766,"finger_time":1551887933425,"fix_duration":1404.7686907465893,"trial":50,"RT":574,"MT":341,"sideResp":2,"stimulus":"img/500/equaldotsize/R/12_Ratio_500_L_1_R_2.png","xmouse":[779,779,779,779,779,779,779,779,779,779,779,779,779,779,779,779,779,779,779,779,779,779,779,779,779,779,779,783,843,913,993,1071,1135,1186,1200,1201,1201,1201,1192,1176,1157,1140,1130,1120,1118,1115],"ymouse":[466,466,466,466,466,466,466,466,466,466,466,466,466,466,466,466,466,466,466,466,466,466,466,466,466,466,466,465,420,378,330,283,244,207,190,186,181,178,168,159,150,140,133,109,101,90],"timestamp_mouse":[15,40,54,74,94,116,135,156,174,194,215,234,254,274,296,315,335,356,375,394,415,434,455,474,496,514,534,556,574,594,616,636,656,675,694,714,735,755,775,795,815,834,855,875,894,914],"xSR":741.5,"ySR":449.15000000000003,"xT1":424.9,"yT1":0,"xT2":1058.1,"yT2":0,"toosoon":0,"cond_shown":"equaldotsize","ratio_trial":500,"smaller_num":"1","larger_num":"2","correct_side":2,"subjID":"SimonEstebanTorresLeon23","gender":"0","age":"10","school":"6"},{"start_time":1551887935346,"click_time":1551887936286,"finger_time":1551887936065,"fix_duration":1019.4952179393006,"trial":51,"RT":719,"MT":221,"sideResp":1,"stimulus":"img/900/randomdotsizeEA/R/7_Ratio_900_L_9_R_10.png","xmouse":[787,787,787,787,787,787,787,787,787,787,787,787,787,787,787,787,787,787,787,787,787,787,787,787,787,787,787,787,787,787,787,787,787,787,784,763,730,676,605,497,473,458,445,439,431,429,427,426],"ymouse":[504,504,504,504,504,504,504,504,504,504,504,504,504,504,504,504,504,504,504,504,504,504,504,504,504,504,504,504,504,504,504,504,504,504,501,492,474,438,388,284,248,218,187,169,139,124,109,92],"timestamp_mouse":[1,31,40,60,80,99,119,139,160,179,199,220,240,259,279,300,319,340,361,380,400,420,440,459,481,500,520,539,559,581,600,621,640,659,680,700,719,741,761,780,801,820,840,860,880,900,920,939],"xSR":741.5,"ySR":449.15000000000003,"xT1":424.9,"yT1":0,"xT2":1058.1,"yT2":0,"toosoon":0,"cond_shown":"randomdotsizeEA","ratio_trial":900,"smaller_num":"9","larger_num":"10","correct_side":2,"subjID":"SimonEstebanTorresLeon23","gender":"0","age":"10","school":"6"},{"start_time":1551887938463,"click_time":1551887939225,"finger_time":1551887939106,"fix_duration":1296.2716739747054,"trial":52,"RT":643,"MT":119,"sideResp":1,"stimulus":"img/750/equaldotsize/L/9_Ratio_750_L_4_R_3.png","xmouse":[795,795,795,795,795,795,795,795,795,795,795,795,795,795,795,795,795,795,795,795,795,795,795,795,795,795,795,795,795,792,783,765,734,650,613,582,546,532,518],"ymouse":[500,500,500,500,499,499,499,499,499,499,499,499,499,499,499,499,499,499,499,499,499,499,499,499,499,499,499,499,499,494,478,450,384,240,176,125,61,37,16],"timestamp_mouse":[10,30,42,63,83,103,123,143,162,182,202,222,243,264,282,302,324,344,362,382,404,422,444,463,483,503,523,543,563,582,603,623,643,662,683,703,723,742,762],"xSR":741.5,"ySR":449.15000000000003,"xT1":424.9,"yT1":0,"xT2":1058.1,"yT2":0,"toosoon":0,"cond_shown":"equaldotsize","ratio_trial":750,"smaller_num":"3","larger_num":"4","correct_side":1,"subjID":"SimonEstebanTorresLeon23","gender":"0","age":"10","school":"6"},{"start_time":1551887940337,"click_time":1551887941606,"finger_time":1551887941085,"fix_duration":250,"trial":53,"RT":748,"MT":521,"sideResp":2,"stimulus":"img/750/randomdotsizeEA/R/11_Ratio_750_L_12_R_16.png","xmouse":[796,796,796,796,796,796,796,796,796,796,796,796,796,796,796,796,796,796,796,796,796,796,796,796,796,796,796,796,796,796,796,796,796,796,796,802,827,896,992,1226,1333,1404,1437,1440,1429,1408,1380,1337,1272,1136,1073,1019,989,989,988,989,993,996,1001,1006,1013,1031,1049,1067],"ymouse":[474,474,474,474,474,474,474,474,474,474,474,474,474,474,474,474,474,474,474,474,474,474,474,474,474,474,474,474,474,474,474,474,474,474,474,471,454,416,365,239,180,139,117,115,111,109,109,109,107,107,106,101,98,98,98,96,93,92,90,88,88,85,82,80],"timestamp_mouse":[8,36,49,68,88,110,129,148,169,188,208,228,248,268,289,310,329,348,370,389,408,430,450,469,489,509,528,550,568,589,608,629,649,669,688,709,730,748,768,789,808,830,850,869,889,909,928,948,969,988,1008,1029,1048,1069,1088,1109,1128,1149,1169,1189,1209,1229,1249,1269],"xSR":741.5,"ySR":449.15000000000003,"xT1":424.9,"yT1":0,"xT2":1058.1,"yT2":0,"toosoon":0,"cond_shown":"randomdotsizeEA","ratio_trial":750,"smaller_num":"12","larger_num":"16","correct_side":2,"subjID":"SimonEstebanTorresLeon23","gender":"0","age":"10","school":"6"},{"start_time":1551887943109,"click_time":1551887943706,"finger_time":1551887943566,"fix_duration":521.7122820422984,"trial":54,"RT":457,"MT":140,"sideResp":1,"stimulus":"img/750/equaldotsize/L/8_Ratio_750_L_4_R_3.png","xmouse":[798,798,798,798,798,798,798,798,798,798,798,798,798,798,798,798,798,799,799,798,798,796,786,770,749,705,612,570,530,481],"ymouse":[460,460,460,460,460,460,460,460,460,460,460,460,460,460,460,460,460,458,455,454,454,452,443,427,406,373,278,208,124,5],"timestamp_mouse":[16,37,57,76,96,116,136,156,176,196,216,238,257,277,296,317,338,356,376,396,417,436,457,477,498,516,537,556,578,597],"xSR":741.5,"ySR":449.15000000000003,"xT1":424.9,"yT1":0,"xT2":1058.1,"yT2":0,"toosoon":0,"cond_shown":"equaldotsize","ratio_trial":750,"smaller_num":"3","larger_num":"4","correct_side":1,"subjID":"SimonEstebanTorresLeon23","gender":"0","age":"10","school":"6"},{"start_time":1551887947368,"click_time":1551887948385,"finger_time":1551887947906,"fix_duration":1441.1809871277585,"trial":55,"RT":538,"MT":479,"sideResp":2,"stimulus":"img/250/equaldotanddens/R/13_Ratio_250_L_2_R_8.png","xmouse":[810,810,810,810,810,810,810,810,810,810,810,810,810,810,810,810,810,810,810,810,810,810,810,810,812,820,849,1034,1237,1295,1430,1457,1460,1460,1460,1460,1460,1372,1331,1288,1228,1203,1179,1178,1178,1176,1176,1174,1170,1164,1151],"ymouse":[519,519,519,519,519,519,519,519,519,519,519,519,519,519,519,519,519,519,519,519,519,519,519,519,519,511,480,343,198,152,45,11,3,3,3,3,3,0,3,9,19,22,28,28,29,30,30,36,43,53,69],"timestamp_mouse":[18,37,58,77,98,118,139,158,177,198,219,238,258,278,298,318,338,359,377,397,417,438,457,479,497,518,538,558,578,597,618,637,657,678,697,718,738,758,778,799,818,838,858,877,898,917,938,957,978,998,1017],"xSR":741.5,"ySR":449.15000000000003,"xT1":424.9,"yT1":0,"xT2":1058.1,"yT2":0,"toosoon":0,"cond_shown":"equaldotanddens","ratio_trial":250,"smaller_num":"2","larger_num":"8","correct_side":2,"subjID":"SimonEstebanTorresLeon23","gender":"0","age":"10","school":"6"},{"start_time":1551887949987,"click_time":1551887951027,"finger_time":1551887950627,"fix_duration":997.4317798767449,"trial":56,"RT":640,"MT":400,"sideResp":1,"stimulus":"img/900/equaldotsize/L/1_Ratio_900_L_10_R_9.png","xmouse":[784,784,784,784,784,784,784,784,784,784,784,784,784,784,784,784,784,784,784,784,784,784,784,784,784,784,784,784,784,784,784,780,731,679,618,549,489,413,399,390,384,381,377,377,377,377,377,377,377,377,385,399,446],"ymouse":[518,518,518,518,518,518,518,518,518,518,518,518,518,518,518,518,518,518,518,518,518,518,518,518,518,518,518,518,518,518,517,509,439,375,310,241,182,94,71,55,43,38,32,29,28,28,28,28,28,27,27,32,56],"timestamp_mouse":[8,21,39,61,80,100,120,140,160,180,201,220,240,261,281,301,321,340,364,380,400,420,440,460,480,500,520,539,560,580,601,621,640,660,681,699,721,740,761,780,801,821,841,859,880,900,920,940,961,980,1000,1020,1040],"xSR":741.5,"ySR":449.15000000000003,"xT1":424.9,"yT1":0,"xT2":1058.1,"yT2":0,"toosoon":0,"cond_shown":"equaldotsize","ratio_trial":900,"smaller_num":"9","larger_num":"10","correct_side":1,"subjID":"SimonEstebanTorresLeon23","gender":"0","age":"10","school":"6"},{"start_time":1551887952058,"click_time":1551887952727,"finger_time":1551887952626,"fix_duration":329.70149596232767,"trial":57,"RT":568,"MT":101,"sideResp":1,"stimulus":"img/900/equaldotanddens/L/10_Ratio_900_L_20_R_18.png","xmouse":[808,808,808,808,808,808,808,808,808,808,808,808,808,808,808,808,808,808,808,808,808,808,808,808,808,808,806,800,764,729,682,627,558,499],"ymouse":[495,495,495,495,495,495,495,495,495,495,495,495,495,495,495,495,495,495,495,495,495,495,495,495,495,495,491,483,419,358,285,194,99,17],"timestamp_mouse":[9,34,49,70,89,109,129,149,170,189,209,229,249,269,290,309,329,348,370,390,410,429,450,469,489,508,529,549,568,589,609,629,650,669],"xSR":741.5,"ySR":449.15000000000003,"xT1":424.9,"yT1":0,"xT2":1058.1,"yT2":0,"toosoon":0,"cond_shown":"equaldotanddens","ratio_trial":900,"smaller_num":"18","larger_num":"20","correct_side":1,"subjID":"SimonEstebanTorresLeon23","gender":"0","age":"10","school":"6"},{"start_time":1551887954577,"click_time":1551887955527,"finger_time":1551887955207,"fix_duration":1049.3120188511127,"trial":58,"RT":630,"MT":320,"sideResp":2,"stimulus":"img/250/equaldotanddens/R/8_Ratio_250_L_1_R_4.png","xmouse":[791,791,791,791,791,791,791,791,791,791,791,791,791,791,791,791,791,791,791,791,791,791,791,791,791,791,791,791,791,803,832,892,1046,1117,1176,1205,1205,1205,1205,1205,1205,1205,1205,1205,1205,1205,1197,1145],"ymouse":[490,490,490,490,490,490,490,490,490,490,490,490,490,490,490,490,490,490,490,490,490,490,490,490,490,490,490,490,490,482,460,420,266,168,63,15,15,15,15,15,15,15,15,15,15,15,13,69],"timestamp_mouse":[10,35,50,71,90,110,131,150,171,191,210,231,250,271,290,310,330,350,371,390,411,431,449,470,491,510,531,551,571,590,611,630,650,670,691,710,730,751,771,790,809,830,850,870,890,910,930,950],"xSR":741.5,"ySR":449.15000000000003,"xT1":424.9,"yT1":0,"xT2":1058.1,"yT2":0,"toosoon":0,"cond_shown":"equaldotanddens","ratio_trial":250,"smaller_num":"1","larger_num":"4","correct_side":2,"subjID":"SimonEstebanTorresLeon23","gender":"0","age":"10","school":"6"},{"start_time":1551887956458,"click_time":1551887957227,"finger_time":1551887957168,"fix_duration":250,"trial":59,"RT":710,"MT":59,"sideResp":1,"stimulus":"img/900/randomdotsizeEA/R/7_Ratio_900_L_9_R_10.png","xmouse":[768,768,768,768,768,768,768,768,768,768,768,768,768,768,768,768,768,768,768,768,768,768,768,768,768,768,768,768,768,768,768,768,768,765,754,722,635,560,459],"ymouse":[532,532,532,532,532,532,532,532,532,532,532,532,532,532,532,532,532,532,532,532,532,532,532,532,532,532,532,532,532,532,532,532,528,507,478,413,266,157,26],"timestamp_mouse":[16,31,50,69,89,110,129,150,169,189,209,229,249,270,290,310,329,350,369,389,410,428,450,469,490,510,528,549,569,590,608,629,649,668,690,710,730,749,769],"xSR":741.5,"ySR":449.15000000000003,"xT1":424.9,"yT1":0,"xT2":1058.1,"yT2":0,"toosoon":0,"cond_shown":"randomdotsizeEA","ratio_trial":900,"smaller_num":"9","larger_num":"10","correct_side":2,"subjID":"SimonEstebanTorresLeon23","gender":"0","age":"10","school":"6"},{"start_time":1551887958819,"click_time":1551887959587,"finger_time":1551887959527,"fix_duration":830.6213354668237,"trial":60,"RT":708,"MT":60,"sideResp":2,"stimulus":"img/750/equaldotanddens/R/11_Ratio_750_L_12_R_16.png","xmouse":[812,812,812,812,812,812,812,812,812,812,812,812,812,812,812,812,812,812,812,812,812,812,812,812,812,812,812,812,812,812,812,812,812,815,823,884,930,989,1111],"ymouse":[509,509,509,509,509,509,509,509,509,509,509,509,509,509,509,509,509,509,509,509,509,509,509,509,509,509,509,509,509,509,509,509,509,495,480,367,284,183,14],"timestamp_mouse":[10,40,48,68,88,108,128,148,168,188,208,229,248,269,288,308,328,348,368,388,408,428,448,469,488,508,528,548,567,588,608,628,649,668,689,708,729,749,768],"xSR":741.5,"ySR":449.15000000000003,"xT1":424.9,"yT1":0,"xT2":1058.1,"yT2":0,"toosoon":0,"cond_shown":"equaldotanddens","ratio_trial":750,"smaller_num":"12","larger_num":"16","correct_side":2,"subjID":"SimonEstebanTorresLeon23","gender":"0","age":"10","school":"6"},{"start_time":1551887961341,"click_time":1551887962828,"finger_time":1551887962367,"fix_duration":851.3141967567144,"trial":61,"RT":1026,"MT":461,"sideResp":2,"stimulus":"img/900/equaldotanddens/R/11_Ratio_900_L_18_R_20.png","xmouse":[793,793,793,793,793,793,793,793,793,793,793,793,793,793,793,793,793,793,793,793,793,793,793,793,793,793,793,793,793,793,793,793,793,793,793,793,793,793,793,793,793,793,793,793,793,793,793,793,793,793,822,850,985,1102,1220,1220,1220,1220,1220,1220,1220,1220,1220,1220,1260,1203,1146,1102,1075,1063,1063,1063,1072,1084,1103],"ymouse":[494,494,494,494,494,494,494,494,494,494,494,494,494,494,494,494,494,494,494,494,494,494,494,494,494,494,494,494,494,494,494,494,494,494,494,494,494,494,494,494,494,494,494,494,494,494,494,494,494,494,463,436,302,168,28,28,28,28,28,28,28,28,28,28,73,124,164,195,212,218,218,212,189,158,90],"timestamp_mouse":[8,26,47,66,86,106,126,145,167,186,207,226,246,267,286,306,326,346,367,386,406,426,446,466,486,507,526,546,567,586,606,626,646,666,685,707,727,746,766,786,807,825,846,867,886,906,927,945,967,986,1007,1026,1047,1066,1086,1107,1127,1146,1166,1186,1206,1227,1246,1266,1286,1306,1326,1346,1367,1386,1406,1426,1446,1466,1487],"xSR":741.5,"ySR":449.15000000000003,"xT1":424.9,"yT1":0,"xT2":1058.1,"yT2":0,"toosoon":0,"cond_shown":"equaldotanddens","ratio_trial":900,"smaller_num":"18","larger_num":"20","correct_side":2,"subjID":"SimonEstebanTorresLeon23","gender":"0","age":"10","school":"6"},{"start_time":1551887964821,"click_time":1551887965947,"finger_time":1551887965488,"fix_duration":1273.202915043857,"trial":62,"RT":667,"MT":459,"sideResp":1,"stimulus":"img/250/randomdotsizeEA/L/2_Ratio_250_L_16_R_4.png","xmouse":[779,779,779,779,779,779,779,779,779,779,779,779,779,779,779,779,779,779,779,779,779,779,779,779,779,779,779,779,779,779,779,779,767,742,696,564,497,451,417,412,411,411,411,411,411,411,411,414,424,438,470,483,491,493,493,497,499],"ymouse":[482,482,482,482,482,482,482,482,482,482,482,482,482,482,482,482,482,482,482,482,482,482,482,482,482,482,482,482,482,482,482,482,462,424,368,242,184,143,111,102,100,100,100,100,100,100,100,100,103,107,115,116,117,117,117,106,85],"timestamp_mouse":[8,40,46,65,86,106,126,146,166,186,207,226,246,267,286,307,326,347,366,386,406,426,446,466,486,506,526,546,566,586,606,626,647,667,686,707,727,747,766,785,806,826,845,866,887,906,925,946,966,986,1007,1026,1046,1066,1086,1106,1126],"xSR":741.5,"ySR":449.15000000000003,"xT1":424.9,"yT1":0,"xT2":1058.1,"yT2":0,"toosoon":0,"cond_shown":"randomdotsizeEA","ratio_trial":250,"smaller_num":"4","larger_num":"16","correct_side":1,"subjID":"SimonEstebanTorresLeon23","gender":"0","age":"10","school":"6"},{"start_time":1551887966871,"click_time":1551887967927,"finger_time":1551887967587,"fix_duration":382.76750500356746,"trial":63,"RT":716,"MT":340,"sideResp":2,"stimulus":"img/750/equaldotsize/R/3_Ratio_750_L_15_R_20.png","xmouse":[768,768,768,768,768,768,768,768,768,768,768,768,768,768,768,768,768,768,768,768,768,768,768,768,768,768,768,768,768,768,768,768,768,773,778,803,831,927,978,1013,1024,1024,1024,1024,1024,1024,1024,1024,1024,1024,1024,1024,1077],"ymouse":[478,478,478,478,478,478,478,478,478,478,478,478,478,478,478,478,478,478,478,478,478,478,478,478,478,478,478,478,478,478,478,478,478,473,466,434,397,249,155,65,22,22,22,22,22,22,22,22,22,22,22,22,43],"timestamp_mouse":[16,36,56,76,97,116,136,156,176,196,216,236,256,276,296,316,336,356,376,396,416,436,456,476,496,516,536,555,576,596,615,636,656,676,696,716,736,757,776,796,816,837,857,876,897,916,937,956,977,996,1016,1036,1055],"xSR":741.5,"ySR":449.15000000000003,"xT1":424.9,"yT1":0,"xT2":1058.1,"yT2":0,"toosoon":0,"cond_shown":"equaldotsize","ratio_trial":750,"smaller_num":"15","larger_num":"20","correct_side":2,"subjID":"SimonEstebanTorresLeon23","gender":"0","age":"10","school":"6"},{"start_time":1551887969040,"click_time":1551887969947,"finger_time":1551887969847,"fix_duration":250,"trial":64,"RT":807,"MT":100,"sideResp":1,"stimulus":"img/900/randomdotsizeEA/R/14_Ratio_900_L_18_R_20.png","xmouse":[826,826,826,826,826,826,826,826,826,826,826,826,826,826,826,826,826,826,826,826,826,826,826,826,826,826,826,826,826,826,826,826,826,826,826,826,826,826,826,807,768,699,615,542,465,453],"ymouse":[478,478,478,478,478,478,478,478,478,478,478,478,478,478,478,478,478,478,478,478,478,478,478,478,478,478,478,478,478,478,478,478,478,478,478,478,478,478,478,465,419,341,261,196,110,92],"timestamp_mouse":[8,39,47,68,87,107,126,147,167,187,208,227,247,268,288,307,326,347,368,386,408,427,447,467,488,507,528,548,568,587,608,627,647,667,688,708,726,748,767,787,807,827,847,867,887,906],"xSR":741.5,"ySR":449.15000000000003,"xT1":424.9,"yT1":0,"xT2":1058.1,"yT2":0,"toosoon":0,"cond_shown":"randomdotsizeEA","ratio_trial":900,"smaller_num":"18","larger_num":"20","correct_side":2,"subjID":"SimonEstebanTorresLeon23","gender":"0","age":"10","school":"6"},{"start_time":1551887971290,"click_time":1551887972167,"finger_time":1551887972047,"fix_duration":440.2327669410846,"trial":65,"RT":757,"MT":120,"sideResp":1,"stimulus":"img/500/randomdotsizeEA/L/13_Ratio_500_L_12_R_6.png","xmouse":[825,825,825,825,825,825,825,825,825,825,825,825,825,825,825,825,825,825,825,825,825,825,825,825,825,825,825,825,825,825,825,825,825,825,824,823,790,756,715,672,630,553,532,521],"ymouse":[515,515,515,515,515,515,515,515,515,515,515,515,515,515,515,515,515,515,515,515,515,515,515,515,515,515,515,515,515,515,515,515,515,514,512,508,470,434,381,321,261,142,107,88],"timestamp_mouse":[36,37,57,77,97,117,138,158,178,198,217,238,258,278,298,317,338,357,378,398,417,437,458,477,497,518,537,557,578,597,617,637,658,677,697,716,737,757,777,798,818,837,858,877],"xSR":741.5,"ySR":449.15000000000003,"xT1":424.9,"yT1":0,"xT2":1058.1,"yT2":0,"toosoon":0,"cond_shown":"randomdotsizeEA","ratio_trial":500,"smaller_num":"6","larger_num":"12","correct_side":1,"subjID":"SimonEstebanTorresLeon23","gender":"0","age":"10","school":"6"},{"start_time":1551887973986,"click_time":1551887974487,"finger_time":1551887974367,"fix_duration":618.4668351762276,"trial":66,"RT":381,"MT":120,"sideResp":1,"stimulus":"img/900/equaldotsize/L/10_Ratio_900_L_20_R_18.png","xmouse":[780,780,780,780,780,780,780,780,780,780,780,780,780,780,780,780,780,779,775,765,750,727,632,575,525,489],"ymouse":[457,457,457,457,457,457,457,457,457,457,457,457,457,457,457,457,457,457,455,446,432,409,297,220,144,76],"timestamp_mouse":[8,21,41,61,82,101,122,141,161,181,201,221,241,261,281,302,322,340,362,381,401,421,441,461,481,501],"xSR":741.5,"ySR":449.15000000000003,"xT1":424.9,"yT1":0,"xT2":1058.1,"yT2":0,"toosoon":0,"cond_shown":"equaldotsize","ratio_trial":900,"smaller_num":"18","larger_num":"20","correct_side":1,"subjID":"SimonEstebanTorresLeon23","gender":"0","age":"10","school":"6"},{"start_time":1551887975539,"click_time":1551887976447,"finger_time":1551887975967,"fix_duration":250,"trial":67,"RT":428,"MT":480,"sideResp":1,"stimulus":"img/750/randomdotsizeEA/L/9_Ratio_750_L_4_R_3.png","xmouse":[774,774,774,774,774,774,774,774,774,774,774,774,774,774,774,774,774,774,773,761,750,707,662,611,520,498,494,494,494,494,493,496,507,520,564,589,608,622,626,626,627,622,613,594,540,514],"ymouse":[493,493,493,493,493,493,493,493,493,493,493,493,493,493,493,493,493,493,493,476,458,409,353,292,202,185,181,181,181,181,184,196,219,236,279,298,314,323,326,326,325,311,288,244,124,65],"timestamp_mouse":[8,37,48,69,88,109,128,149,168,189,209,228,248,269,288,308,328,348,368,388,409,428,449,468,488,508,528,548,568,588,608,628,648,669,689,708,728,748,769,788,808,828,848,869,888,908],"xSR":741.5,"ySR":449.15000000000003,"xT1":424.9,"yT1":0,"xT2":1058.1,"yT2":0,"toosoon":0,"cond_shown":"randomdotsizeEA","ratio_trial":750,"smaller_num":"3","larger_num":"4","correct_side":1,"subjID":"SimonEstebanTorresLeon23","gender":"0","age":"10","school":"6"},{"start_time":1551887978471,"click_time":1551887979167,"finger_time":1551887978967,"fix_duration":1063.7800060798752,"trial":68,"RT":496,"MT":200,"sideResp":1,"stimulus":"img/250/equaldotsize/L/15_Ratio_250_L_12_R_3.png","xmouse":[795,795,795,795,795,795,795,795,795,795,795,795,795,795,795,795,795,795,795,795,795,795,783,755,696,647,607,563,549,541,532,525,505,494,481],"ymouse":[495,495,495,495,495,495,495,495,495,495,495,495,495,495,495,495,495,495,495,495,495,495,489,477,442,406,373,314,282,253,223,195,138,116,92],"timestamp_mouse":[15,38,56,77,96,116,136,155,177,197,216,236,256,277,297,317,336,355,377,396,417,437,456,476,496,517,537,556,576,596,617,636,656,677,696],"xSR":741.5,"ySR":449.15000000000003,"xT1":424.9,"yT1":0,"xT2":1058.1,"yT2":0,"toosoon":0,"cond_shown":"equaldotsize","ratio_trial":250,"smaller_num":"3","larger_num":"12","correct_side":1,"subjID":"SimonEstebanTorresLeon23","gender":"0","age":"10","school":"6"},{"start_time":1551887981796,"click_time":1551887982928,"finger_time":1551887982468,"fix_duration":628.7800895768376,"trial":69,"RT":672,"MT":460,"sideResp":2,"stimulus":"img/500/equaldotanddens/R/6_Ratio_500_L_9_R_18.png","xmouse":[813,813,813,813,813,813,813,813,813,813,813,813,813,813,813,813,813,813,813,813,813,813,813,813,813,813,813,813,813,813,813,813,815,843,916,1012,1240,1384,1412,1434,1434,1420,1397,1344,1265,1175,994,947,937,937,937,948,960,979,1000,1029,1102],"ymouse":[521,521,521,521,521,521,521,521,521,521,521,521,521,521,521,521,521,521,521,521,521,521,521,521,521,521,521,521,521,521,521,521,522,495,434,356,198,112,89,65,60,56,56,58,71,84,97,97,97,97,97,96,91,83,74,62,38],"timestamp_mouse":[10,34,51,71,90,111,131,151,171,191,210,232,252,270,291,311,331,351,371,390,411,431,451,472,491,511,531,551,571,592,612,631,651,672,691,711,731,752,771,791,812,831,851,871,891,912,931,951,971,992,1010,1032,1051,1072,1091,1112,1131],"xSR":741.5,"ySR":449.15000000000003,"xT1":424.9,"yT1":0,"xT2":1058.1,"yT2":0,"toosoon":0,"cond_shown":"equaldotanddens","ratio_trial":500,"smaller_num":"9","larger_num":"18","correct_side":2,"subjID":"SimonEstebanTorresLeon23","gender":"0","age":"10","school":"6"},{"start_time":1551887984599,"click_time":1551887988607,"finger_time":1551887985307,"fix_duration":1110.514311350857,"trial":70,"RT":708,"MT":3300,"sideResp":1,"stimulus":"img/500/randomdotsizeEA/L/13_Ratio_500_L_12_R_6.png","xmouse":[823,823,823,823,823,823,823,823,823,823,823,823,823,823,823,823,823,823,823,823,823,823,823,823,823,823,823,823,823,823,823,823,823,817,803,783,717,681,636,616,601,588,585,585,585,585,584,584,584,584,583,581,580,580,580,580,580,580,581,585,588,595,598,601,603,603,605,605,606,607,607,607,607,607,605,590,552,530,524,513,511,511,511,511,511,511,511,511,511,512,513,514,514,514,514,514,514,514,514,514,514,514,514,517,517,518,518,519,519,519,519,519,519,519,519,519,519,519,519,519,519,519,519,520,520,520,522,522,523,523,523,523,523,523,523,523,523,523,523,523,523,523,523,523,523,523,523,523,523,523,523,523,523,523,523,523,523,523,523,523,523,523,523,523,523,523,523,523,523,523,523,523,523,523,523,523,523,523,523,523,523,523,523,523,523,523,523,523,523,523,523,523,523,523,523,523,523,523,523,523,524],"ymouse":[508,508,508,508,508,508,508,508,508,508,508,508,508,508,508,508,508,508,508,508,508,508,508,508,508,508,508,508,508,508,508,506,502,485,453,408,271,215,154,131,116,109,108,108,108,108,108,108,108,108,108,108,108,108,108,108,108,109,111,116,120,129,132,136,138,138,140,141,141,141,141,141,141,141,141,140,129,121,120,118,118,117,117,117,117,117,117,117,117,117,117,117,117,117,117,117,117,117,117,117,117,117,117,115,112,111,109,108,108,108,108,108,108,108,108,108,108,108,108,108,108,108,108,107,107,106,104,103,103,103,103,103,103,103,103,103,103,103,103,103,103,103,103,103,103,103,103,103,103,103,103,103,103,103,103,103,103,103,103,103,103,103,103,103,103,103,103,103,103,103,103,103,102,101,101,101,101,101,101,101,101,101,101,101,101,101,101,101,101,101,101,101,101,101,101,101,101,101,101,100,98],"timestamp_mouse":[9,31,48,68,88,108,128,148,168,188,208,228,248,269,289,309,328,348,369,389,409,428,448,469,488,508,528,548,569,587,608,628,648,669,688,708,727,749,767,789,808,828,848,868,888,908,929,949,968,988,1009,1028,1047,1068,1089,1108,1129,1148,1169,1189,1208,1228,1248,1268,1288,1308,1328,1348,1368,1389,1409,1428,1449,1468,1488,1509,1528,1548,1569,1587,1607,1627,1648,1668,1688,1708,1728,1749,1768,1788,1809,1828,1849,1868,1888,1908,1929,1948,1968,1989,2008,2028,2048,2068,2089,2109,2128,2149,2169,2187,2209,2228,2248,2268,2288,2307,2329,2348,2368,2388,2408,2429,2448,2468,2488,2508,2527,2547,2568,2588,2608,2628,2648,2668,2689,2709,2728,2748,2767,2788,2808,2829,2848,2868,2888,2909,2927,2947,2969,2988,3009,3029,3049,3068,3088,3108,3129,3149,3169,3188,3209,3229,3248,3269,3287,3308,3328,3348,3368,3389,3408,3429,3448,3468,3489,3508,3529,3548,3568,3588,3608,3627,3647,3668,3688,3709,3728,3748,3768,3788,3809,3827,3847,3868,3888,3907,3928,3948,3968,3988,4008],"xSR":741.5,"ySR":449.15000000000003,"xT1":424.9,"yT1":0,"xT2":1058.1,"yT2":0,"toosoon":0,"cond_shown":"randomdotsizeEA","ratio_trial":500,"smaller_num":"6","larger_num":"12","correct_side":1,"subjID":"SimonEstebanTorresLeon23","gender":"0","age":"10","school":"6"},{"start_time":1551887990845,"click_time":1551887991667,"finger_time":1551887991626,"fix_duration":996.8636312360917,"trial":71,"RT":781,"MT":41,"sideResp":1,"stimulus":"img/500/randomdotsizeEA/L/8_Ratio_500_L_8_R_4.png","xmouse":[788,788,788,788,788,788,788,788,788,788,788