[{"start_time":1551886998917,"click_time":1551887001216,"finger_time":1551887000815,"fix_duration":1436.2832347166197,"trial":0,"RT":1898,"MT":401,"sideResp":1,"stimulus":[],"xmouse":[788,788,788,788,788,788,788,788,788,788,788,788,788,788,788,788,788,788,788,788,788,788,788,788,788,788,788,788,788,788,788,788,788,788,788,788,788,788,788,788,788,788,788,788,788,788,788,788,788,788,788,788,788,788,788,788,788,788,788,788,788,788,788,788,788,788,788,788,788,789,790,791,792,793,794,795,797,798,798,798,798,798,798,798,798,798,798,796,792,789,788,787,787,785,778,742,685,623,517,484,462,448,439,435,434,434,434,434,436,439,443,446,451,462,472,477],"ymouse":[526,526,526,526,526,526,526,526,526,526,526,526,526,526,526,526,526,526,526,526,526,526,526,526,526,526,526,526,526,526,526,526,526,526,526,526,526,526,526,526,526,526,526,526,526,526,526,526,526,526,526,526,526,526,526,526,526,526,526,526,526,526,526,526,526,526,526,526,524,520,516,513,509,506,502,499,495,494,494,494,494,494,494,494,494,494,494,494,496,498,498,498,498,498,494,468,430,391,321,297,277,261,245,233,228,223,217,210,191,182,170,160,149,127,108,95],"timestamp_mouse":[9,18,40,58,80,99,118,138,158,179,199,219,239,259,279,299,319,339,358,379,400,418,439,458,478,499,519,538,558,578,598,618,639,659,678,698,718,738,759,779,798,819,838,858,878,898,918,940,958,979,999,1019,1038,1058,1078,1100,1119,1139,1159,1178,1200,1219,1239,1259,1278,1298,1319,1338,1358,1378,1399,1418,1438,1458,1479,1498,1518,1538,1559,1578,1599,1618,1638,1658,1679,1698,1719,1739,1758,1778,1798,1818,1838,1858,1878,1898,1919,1938,1958,1978,1999,2018,2038,2058,2078,2098,2118,2138,2158,2178,2199,2218,2238,2258,2278,2298],"xSR":741.5,"ySR":481,"xT1":424.9,"yT1":0,"xT2":1058.1,"yT2":0,"toosoon":0,"cond_shown":"Incongruent","ratio_trial":300,"L_num":2,"L_den":4,"R_num":6,"R_den":30,"correct_side":1,"subjID":"SimonEstebanTorresLeon23","gender":"0","age":"10","school":"cafam","test":{"fix_dur":[250,1500],"timestim":1000,"targets_dim":[100,100],"targets_relative_coord":[0.3,0.7],"size_stim":[880,420],"start_dim":[100,100],"size_start":[300,300],"size_fix":60,"samplingrate":20,"img_types":["Congruent","Incongruent"],"ratios":[100,200,300],"rep_conds":19,"nTrials":120,"trials_to_rest":500,"Trials_order":[11,95,64,31,88,71,99,84,78,103,85,93,106,102,101,61,18,114,55,109,104,44,98,96,4,37,1,39,12,105,13,24,20,73,34,117,40,81,14,66,27,70,16,56,23,113,59,7,49,77,60,68,29,33,58,119,108,10,90,35,57,41,89,74,115,47,21,28,62,0,116,15,17,72,46,32,22,6,48,91,97,38,42,25,36,69,80,112,30,87,100,92,9,19,45,118,86,94,79,53,75,26,110,63,82,8,65,50,107,67,54,3,5,51,2,76,52,111,43,83],"cond_shown":["Incongruent","Incongruent","Congruent","Incongruent","Congruent","Incongruent","Incongruent","Congruent","Congruent","Incongruent","Incongruent","Incongruent","Congruent","Congruent","Incongruent","Incongruent","Congruent","Congruent","Incongruent","Incongruent","Congruent","Congruent","Congruent","Congruent","Congruent","Incongruent","Incongruent","Incongruent","Congruent","Incongruent","Incongruent","Congruent","Congruent","Incongruent","Congruent","Incongruent","Congruent","Incongruent","Congruent","Congruent","Incongruent","Congruent","Congruent","Congruent","Incongruent","Incongruent","Incongruent","Incongruent","Incongruent","Incongruent","Congruent","Congruent","Incongruent","Incongruent","Congruent","Incongruent","Congruent","Congruent","Congruent","Incongruent","Incongruent","Incongruent","Incongruent","Congruent","Incongruent","Incongruent","Incongruent","Congruent","Congruent","Congruent","Congruent","Incongruent","Incongruent","Congruent","Congruent","Congruent","Congruent","Congruent","Congruent","Incongruent","Incongruent","Congruent","Congruent","Incongruent","Congruent","Incongruent","Congruent","Congruent","Congruent","Incongruent","Congruent","Congruent","Incongruent","Incongruent","Incongruent","Congruent","Congruent","Congruent","Incongruent","Incongruent","Incongruent","Congruent","Congruent","Incongruent","Congruent","Congruent","Incongruent","Congruent","Incongruent","Incongruent","Congruent","Incongruent","Incongruent","Incongruent","Congruent","Congruent","Congruent","Incongruent","Incongruent","Incongruent"],"ratio_trial":[300,300,300,100,300,300,200,100,100,100,100,200,300,100,300,100,100,100,100,100,200,200,200,100,300,100,100,200,100,200,100,100,200,100,300,200,300,200,200,100,200,300,300,200,300,300,300,100,100,300,100,200,300,200,300,300,100,300,100,300,200,300,300,200,100,300,200,300,200,100,200,200,300,100,300,200,300,100,100,100,100,200,100,100,100,200,200,300,100,200,300,200,200,100,200,300,200,300,100,300,200,200,200,200,300,200,300,200,300,100,100,200,300,200,200,300,300,200,100,300],"left_num":[2,3,1,12,24,13,3,6,4,1,6,4,1,2,13,9,7,11,13,9,11,3,11,2,1,11,6,4,6,6,10,7,12,3,4,7,8,3,7,9,3,8,20,3,4,4,4,4,3,1,12,1,1,7,4,4,1,20,10,3,14,13,13,4,11,4,7,1,4,1,13,3,13,2,12,3,1,4,6,1,9,9,6,1,6,7,3,1,11,6,20,1,7,12,7,7,7,5,3,13,4,14,1,7,20,14,1,8,4,12,2,7,4,7,15,3,5,1,9,4],"right_num":[6,4,3,2,2,12,11,15,6,8,11,1,7,11,12,6,15,6,6,14,3,7,3,11,3,9,3,6,5,3,8,9,6,4,13,12,1,1,2,8,1,10,5,9,2,2,2,8,7,3,13,21,3,14,2,6,3,5,3,4,12,12,12,3,9,2,12,7,3,3,14,1,12,6,2,14,3,15,15,8,6,13,15,8,15,14,11,3,6,3,13,21,8,2,6,20,2,6,4,12,1,6,21,6,14,6,2,7,8,2,11,12,2,8,4,2,7,2,14,2],"left_den":[4,6,5,30,30,26,4,12,8,2,10,30,20,5,26,18,14,22,26,15,22,10,22,5,5,22,12,5,20,20,25,14,15,6,20,10,16,10,21,15,10,15,25,12,20,20,20,8,9,2,30,2,2,10,5,5,2,25,25,6,30,26,26,10,22,20,10,20,8,2,26,10,26,5,24,6,5,10,12,2,18,30,12,2,12,10,10,5,22,20,25,2,10,30,15,14,21,25,6,26,30,28,2,15,25,28,2,15,5,30,5,10,20,10,25,6,25,3,15,20],"right_den":[30,20,6,4,4,15,20,25,10,20,22,3,20,22,15,10,25,15,10,28,10,14,10,22,6,15,5,10,25,6,16,15,10,10,26,24,5,2,15,16,2,12,10,20,4,4,4,20,30,15,26,30,15,28,4,12,5,10,10,20,18,15,15,15,15,4,24,20,10,5,20,2,15,12,10,20,6,30,25,20,10,26,25,20,25,28,22,6,15,6,26,30,16,4,9,25,15,12,10,15,3,20,30,9,28,20,10,21,16,4,22,24,4,16,10,10,14,15,28,4],"correct_side":[1,1,2,2,1,2,1,2,2,1,1,2,2,2,2,2,2,1,2,1,1,2,1,2,2,2,2,1,1,2,2,2,1,1,2,1,1,2,1,1,2,2,1,2,2,2,2,1,1,1,2,2,1,1,1,1,2,1,1,1,2,2,2,1,2,2,1,2,1,2,2,2,2,2,1,2,2,2,2,1,2,2,2,1,2,1,2,2,1,2,1,2,1,2,2,2,1,2,1,2,2,1,2,2,1,1,1,1,1,2,2,1,2,1,1,1,2,1,1,2],"img_shown":["img2/300/Incongruent/L/I_Dist_300_LN_2_LD_4_RN_6_RD_30_0.png","img2/300/Incongruent/L/I_Dist_300_LN_3_LD_6_RN_4_RD_20_0.png","img2/300/Congruent/R/C_Dist_300_LN_1_LD_5_RN_3_RD_6_1.png","img2/100/Incongruent/R/I_Dist_100_LN_12_LD_30_RN_2_RD_4_1.png","img2/300/Congruent/L/C_Dist_300_LN_24_LD_30_RN_2_RD_4_0.png","img2/300/Incongruent/R/I_Dist_300_LN_13_LD_26_RN_12_RD_15_1.png","img2/200/Incongruent/L/I_Dist_200_LN_3_LD_4_RN_11_RD_20_0.png","img2/100/Congruent/R/C_Dist_100_LN_6_LD_12_RN_15_RD_25_1.png","img2/100/Congruent/R/C_Dist_100_LN_4_LD_8_RN_6_RD_10_1.png","img2/100/Incongruent/L/I_Dist_100_LN_1_LD_2_RN_8_RD_20_0.png","img2/100/Incongruent/L/I_Dist_100_LN_6_LD_10_RN_11_RD_22_0.png","img2/200/Incongruent/R/I_Dist_200_LN_4_LD_30_RN_1_RD_3_1.png","img2/300/Congruent/R/C_Dist_300_LN_1_LD_20_RN_7_RD_20_1.png","img2/100/Congruent/R/C_Dist_100_LN_2_LD_5_RN_11_RD_22_1.png","img2/300/Incongruent/R/I_Dist_300_LN_13_LD_26_RN_12_RD_15_1.png","img2/100/Incongruent/R/I_Dist_100_LN_9_LD_18_RN_6_RD_10_1.png","img2/100/Congruent/R/C_Dist_100_LN_7_LD_14_RN_15_RD_25_1.png","img2/100/Congruent/L/C_Dist_100_LN_11_LD_22_RN_6_RD_15_0.png","img2/100/Incongruent/R/I_Dist_100_LN_13_LD_26_RN_6_RD_10_1.png","img2/100/Incongruent/L/I_Dist_100_LN_9_LD_15_RN_14_RD_28_0.png","img2/200/Congruent/L/C_Dist_200_LN_11_LD_22_RN_3_RD_10_0.png","img2/200/Congruent/R/C_Dist_200_LN_3_LD_10_RN_7_RD_14_1.png","img2/200/Congruent/L/C_Dist_200_LN_11_LD_22_RN_3_RD_10_0.png","img2/100/Congruent/R/C_Dist_100_LN_2_LD_5_RN_11_RD_22_1.png","img2/300/Congruent/R/C_Dist_300_LN_1_LD_5_RN_3_RD_6_1.png","img2/100/Incongruent/R/I_Dist_100_LN_11_LD_22_RN_9_RD_15_1.png","img2/100/Incongruent/R/I_Dist_100_LN_6_LD_12_RN_3_RD_5_1.png","img2/200/Incongruent/L/I_Dist_200_LN_4_LD_5_RN_6_RD_10_0.png","img2/100/Congruent/L/C_Dist_100_LN_6_LD_20_RN_5_RD_25_0.png","img2/200/Incongruent/R/I_Dist_200_LN_6_LD_20_RN_3_RD_6_1.png","img2/100/Incongruent/R/I_Dist_100_LN_10_LD_25_RN_8_RD_16_1.png","img2/100/Congruent/R/C_Dist_100_LN_7_LD_14_RN_9_RD_15_1.png","img2/200/Congruent/L/C_Dist_200_LN_12_LD_15_RN_6_RD_10_0.png","img2/100/Incongruent/L/I_Dist_100_LN_3_LD_6_RN_4_RD_10_0.png","img2/300/Congruent/R/C_Dist_300_LN_4_LD_20_RN_13_RD_26_1.png","img2/200/Incongruent/L/I_Dist_200_LN_7_LD_10_RN_12_RD_24_0.png","img2/300/Congruent/L/C_Dist_300_LN_8_LD_16_RN_1_RD_5_0.png","img2/200/Incongruent/R/I_Dist_200_LN_3_LD_10_RN_1_RD_2_1.png","img2/200/Congruent/L/C_Dist_200_LN_7_LD_21_RN_2_RD_15_0.png","img2/100/Congruent/L/C_Dist_100_LN_9_LD_15_RN_8_RD_16_0.png","img2/200/Incongruent/R/I_Dist_200_LN_3_LD_10_RN_1_RD_2_1.png","img2/300/Congruent/R/C_Dist_300_LN_8_LD_15_RN_10_RD_12_1.png","img2/300/Congruent/L/C_Dist_300_LN_20_LD_25_RN_5_RD_10_0.png","img2/200/Congruent/R/C_Dist_200_LN_3_LD_12_RN_9_RD_20_1.png","img2/300/Incongruent/R/I_Dist_300_LN_4_LD_20_RN_2_RD_4_1.png","img2/300/Incongruent/R/I_Dist_300_LN_4_LD_20_RN_2_RD_4_1.png","img2/300/Incongruent/R/I_Dist_300_LN_4_LD_20_RN_2_RD_4_1.png","img2/100/Incongruent/L/I_Dist_100_LN_4_LD_8_RN_8_RD_20_0.png","img2/100/Incongruent/L/I_Dist_100_LN_3_LD_9_RN_7_RD_30_0.png","img2/300/Incongruent/L/I_Dist_300_LN_1_LD_2_RN_3_RD_15_0.png","img2/100/Congruent/R/C_Dist_100_LN_12_LD_30_RN_13_RD_26_1.png","img2/200/Congruent/R/C_Dist_200_LN_1_LD_2_RN_21_RD_30_1.png","img2/300/Incongruent/L/I_Dist_300_LN_1_LD_2_RN_3_RD_15_0.png","img2/200/Incongruent/L/I_Dist_200_LN_7_LD_10_RN_14_RD_28_0.png","img2/300/Congruent/L/C_Dist_300_LN_4_LD_5_RN_2_RD_4_0.png","img2/300/Incongruent/L/I_Dist_300_LN_4_LD_5_RN_6_RD_12_0.png","img2/100/Congruent/R/C_Dist_100_LN_1_LD_2_RN_3_RD_5_1.png","img2/300/Congruent/L/C_Dist_300_LN_20_LD_25_RN_5_RD_10_0.png","img2/100/Congruent/L/C_Dist_100_LN_10_LD_25_RN_3_RD_10_0.png","img2/300/Incongruent/L/I_Dist_300_LN_3_LD_6_RN_4_RD_20_0.png","img2/200/Incongruent/R/I_Dist_200_LN_14_LD_30_RN_12_RD_18_1.png","img2/300/Incongruent/R/I_Dist_300_LN_13_LD_26_RN_12_RD_15_1.png","img2/300/Incongruent/R/I_Dist_300_LN_13_LD_26_RN_12_RD_15_1.png","img2/200/Congruent/L/C_Dist_200_LN_4_LD_10_RN_3_RD_15_0.png","img2/100/Incongruent/R/I_Dist_100_LN_11_LD_22_RN_9_RD_15_1.png","img2/300/Incongruent/R/I_Dist_300_LN_4_LD_20_RN_2_RD_4_1.png","img2/200/Incongruent/L/I_Dist_200_LN_7_LD_10_RN_12_RD_24_0.png","img2/300/Congruent/R/C_Dist_300_LN_1_LD_20_RN_7_RD_20_1.png","img2/200/Congruent/L/C_Dist_200_LN_4_LD_8_RN_3_RD_10_0.png","img2/100/Congruent/R/C_Dist_100_LN_1_LD_2_RN_3_RD_5_1.png","img2/200/Congruent/R/C_Dist_200_LN_13_LD_26_RN_14_RD_20_1.png","img2/200/Incongruent/R/I_Dist_200_LN_3_LD_10_RN_1_RD_2_1.png","img2/300/Incongruent/R/I_Dist_300_LN_13_LD_26_RN_12_RD_15_1.png","img2/100/Congruent/R/C_Dist_100_LN_2_LD_5_RN_6_RD_12_1.png","img2/300/Congruent/L/C_Dist_300_LN_12_LD_24_RN_2_RD_10_0.png","img2/200/Congruent/R/C_Dist_200_LN_3_LD_6_RN_14_RD_20_1.png","img2/300/Congruent/R/C_Dist_300_LN_1_LD_5_RN_3_RD_6_1.png","img2/100/Congruent/R/C_Dist_100_LN_4_LD_10_RN_15_RD_30_1.png","img2/100/Congruent/R/C_Dist_100_LN_6_LD_12_RN_15_RD_25_1.png","img2/100/Incongruent/L/I_Dist_100_LN_1_LD_2_RN_8_RD_20_0.png","img2/100/Incongruent/R/I_Dist_100_LN_9_LD_18_RN_6_RD_10_1.png","img2/200/Congruent/R/C_Dist_200_LN_9_LD_30_RN_13_RD_26_1.png","img2/100/Congruent/R/C_Dist_100_LN_6_LD_12_RN_15_RD_25_1.png","img2/100/Incongruent/L/I_Dist_100_LN_1_LD_2_RN_8_RD_20_0.png","img2/100/Congruent/R/C_Dist_100_LN_6_LD_12_RN_15_RD_25_1.png","img2/200/Incongruent/L/I_Dist_200_LN_7_LD_10_RN_14_RD_28_0.png","img2/200/Congruent/R/C_Dist_200_LN_3_LD_10_RN_11_RD_22_1.png","img2/300/Congruent/R/C_Dist_300_LN_1_LD_5_RN_3_RD_6_1.png","img2/100/Congruent/L/C_Dist_100_LN_11_LD_22_RN_6_RD_15_0.png","img2/200/Incongruent/R/I_Dist_200_LN_6_LD_20_RN_3_RD_6_1.png","img2/300/Congruent/L/C_Dist_300_LN_20_LD_25_RN_13_RD_26_0.png","img2/200/Congruent/R/C_Dist_200_LN_1_LD_2_RN_21_RD_30_1.png","img2/200/Incongruent/L/I_Dist_200_LN_7_LD_10_RN_8_RD_16_0.png","img2/100/Incongruent/R/I_Dist_100_LN_12_LD_30_RN_2_RD_4_1.png","img2/200/Incongruent/R/I_Dist_200_LN_7_LD_15_RN_6_RD_9_1.png","img2/300/Congruent/R/C_Dist_300_LN_7_LD_14_RN_20_RD_25_1.png","img2/200/Congruent/L/C_Dist_200_LN_7_LD_21_RN_2_RD_15_0.png","img2/300/Congruent/R/C_Dist_300_LN_5_LD_25_RN_6_RD_12_1.png","img2/100/Incongruent/L/I_Dist_100_LN_3_LD_6_RN_4_RD_10_0.png","img2/300/Incongruent/R/I_Dist_300_LN_13_LD_26_RN_12_RD_15_1.png","img2/200/Incongruent/R/I_Dist_200_LN_4_LD_30_RN_1_RD_3_1.png","img2/200/Congruent/L/C_Dist_200_LN_14_LD_28_RN_6_RD_20_0.png","img2/200/Congruent/R/C_Dist_200_LN_1_LD_2_RN_21_RD_30_1.png","img2/200/Incongruent/R/I_Dist_200_LN_7_LD_15_RN_6_RD_9_1.png","img2/300/Congruent/L/C_Dist_300_LN_20_LD_25_RN_14_RD_28_0.png","img2/200/Congruent/L/C_Dist_200_LN_14_LD_28_RN_6_RD_20_0.png","img2/300/Incongruent/L/I_Dist_300_LN_1_LD_2_RN_2_RD_10_0.png","img2/200/Congruent/L/C_Dist_200_LN_8_LD_15_RN_7_RD_21_0.png","img2/300/Incongruent/L/I_Dist_300_LN_4_LD_5_RN_8_RD_16_0.png","img2/100/Incongruent/R/I_Dist_100_LN_12_LD_30_RN_2_RD_4_1.png","img2/100/Congruent/R/C_Dist_100_LN_2_LD_5_RN_11_RD_22_1.png","img2/200/Incongruent/L/I_Dist_200_LN_7_LD_10_RN_12_RD_24_0.png","img2/300/Incongruent/R/I_Dist_300_LN_4_LD_20_RN_2_RD_4_1.png","img2/200/Incongruent/L/I_Dist_200_LN_7_LD_10_RN_8_RD_16_0.png","img2/200/Congruent/L/C_Dist_200_LN_15_LD_25_RN_4_RD_10_0.png","img2/300/Congruent/L/C_Dist_300_LN_3_LD_6_RN_2_RD_10_0.png","img2/300/Congruent/R/C_Dist_300_LN_5_LD_25_RN_7_RD_14_1.png","img2/200/Incongruent/L/I_Dist_200_LN_1_LD_3_RN_2_RD_15_0.png","img2/100/Incongruent/L/I_Dist_100_LN_9_LD_15_RN_14_RD_28_0.png","img2/300/Incongruent/R/I_Dist_300_LN_4_LD_20_RN_2_RD_4_1.png"],"dist100_C":[["C_Dist_100_LN_10_LD_25_RN_3_RD_10_0.png","C_Dist_100_LN_11_LD_22_RN_4_RD_10_0.png","C_Dist_100_LN_11_LD_22_RN_6_RD_15_0.png","C_Dist_100_LN_15_LD_25_RN_13_RD_26_0.png","C_Dist_100_LN_3_LD_6_RN_2_RD_5_0.png","C_Dist_100_LN_6_LD_20_RN_5_RD_25_0.png","C_Dist_100_LN_8_LD_16_RN_2_RD_5_0.png","C_Dist_100_LN_9_LD_15_RN_8_RD_16_0.png"],["C_Dist_100_LN_1_LD_2_RN_18_RD_30_1.png","C_Dist_100_LN_1_LD_2_RN_3_RD_5_1.png","C_Dist_100_LN_12_LD_30_RN_13_RD_26_1.png","C_Dist_100_LN_2_LD_5_RN_11_RD_22_1.png","C_Dist_100_LN_2_LD_5_RN_6_RD_12_1.png","C_Dist_100_LN_3_LD_20_RN_4_RD_16_1.png","C_Dist_100_LN_4_LD_10_RN_15_RD_30_1.png","C_Dist_100_LN_4_LD_8_RN_6_RD_10_1.png","C_Dist_100_LN_6_LD_12_RN_15_RD_25_1.png","C_Dist_100_LN_7_LD_14_RN_15_RD_25_1.png","C_Dist_100_LN_7_LD_14_RN_9_RD_15_1.png"]],"dist100_I":[["I_Dist_100_LN_1_LD_2_RN_8_RD_20_0.png","I_Dist_100_LN_2_LD_4_RN_6_RD_15_0.png","I_Dist_100_LN_2_LD_4_RN_8_RD_20_0.png","I_Dist_100_LN_3_LD_5_RN_11_RD_22_0.png","I_Dist_100_LN_3_LD_5_RN_8_RD_16_0.png","I_Dist_100_LN_3_LD_6_RN_4_RD_10_0.png","I_Dist_100_LN_3_LD_9_RN_7_RD_30_0.png","I_Dist_100_LN_4_LD_8_RN_8_RD_20_0.png","I_Dist_100_LN_6_LD_10_RN_11_RD_22_0.png","I_Dist_100_LN_6_LD_10_RN_13_RD_26_0.png","I_Dist_100_LN_6_LD_10_RN_7_RD_14_0.png","I_Dist_100_LN_9_LD_10_RN_20_RD_25_0.png","I_Dist_100_LN_9_LD_15_RN_13_RD_26_0.png","I_Dist_100_LN_9_LD_15_RN_14_RD_28_0.png"],["I_Dist_100_LN_10_LD_25_RN_8_RD_16_1.png","I_Dist_100_LN_10_LD_25_RN_9_RD_18_1.png","I_Dist_100_LN_11_LD_22_RN_9_RD_15_1.png","I_Dist_100_LN_12_LD_24_RN_9_RD_15_1.png","I_Dist_100_LN_12_LD_30_RN_2_RD_4_1.png","I_Dist_100_LN_13_LD_26_RN_12_RD_20_1.png","I_Dist_100_LN_13_LD_26_RN_6_RD_10_1.png","I_Dist_100_LN_17_LD_30_RN_10_RD_15_1.png","I_Dist_100_LN_6_LD_12_RN_3_RD_5_1.png","I_Dist_100_LN_8_LD_16_RN_6_RD_10_1.png","I_Dist_100_LN_8_LD_20_RN_1_RD_2_1.png","I_Dist_100_LN_9_LD_18_RN_6_RD_10_1.png"]],"dist100_S":[["E_Dist_100_LN_2_LD_12_RN_2_RD_30_0.png","E_Dist_100_LN_6_LD_10_RN_6_RD_12_0.png"],["E_Dist_100_LN_6_LD_12_RN_6_RD_10_1.png"]],"dist200_C":[["C_Dist_200_LN_11_LD_22_RN_3_RD_10_0.png","C_Dist_200_LN_12_LD_15_RN_6_RD_10_0.png","C_Dist_200_LN_12_LD_20_RN_6_RD_15_0.png","C_Dist_200_LN_14_LD_28_RN_6_RD_20_0.png","C_Dist_200_LN_15_LD_25_RN_4_RD_10_0.png","C_Dist_200_LN_16_LD_20_RN_12_RD_20_0.png","C_Dist_200_LN_16_LD_30_RN_9_RD_27_0.png","C_Dist_200_LN_20_LD_25_RN_9_RD_15_0.png","C_Dist_200_LN_21_LD_30_RN_2_RD_4_0.png","C_Dist_200_LN_4_LD_10_RN_3_RD_15_0.png","C_Dist_200_LN_4_LD_8_RN_3_RD_10_0.png","C_Dist_200_LN_6_LD_15_RN_3_RD_15_0.png","C_Dist_200_LN_7_LD_21_RN_2_RD_15_0.png","C_Dist_200_LN_8_LD_15_RN_2_RD_6_0.png","C_Dist_200_LN_8_LD_15_RN_3_RD_9_0.png","C_Dist_200_LN_8_LD_15_RN_7_RD_21_0.png","C_Dist_200_LN_9_LD_20_RN_4_RD_16_0.png"],["C_Dist_200_LN_1_LD_2_RN_21_RD_30_1.png","C_Dist_200_LN_13_LD_26_RN_14_RD_20_1.png","C_Dist_200_LN_3_LD_10_RN_11_RD_22_1.png","C_Dist_200_LN_3_LD_10_RN_14_RD_28_1.png","C_Dist_200_LN_3_LD_10_RN_7_RD_14_1.png","C_Dist_200_LN_3_LD_12_RN_9_RD_20_1.png","C_Dist_200_LN_3_LD_6_RN_14_RD_20_1.png","C_Dist_200_LN_5_LD_10_RN_14_RD_20_1.png","C_Dist_200_LN_6_LD_12_RN_7_RD_10_1.png","C_Dist_200_LN_6_LD_20_RN_11_RD_22_1.png","C_Dist_200_LN_7_LD_15_RN_18_RD_27_1.png","C_Dist_200_LN_9_LD_30_RN_13_RD_26_1.png"]],"dist200_I":[["I_Dist_200_LN_1_LD_2_RN_3_RD_10_0.png","I_Dist_200_LN_1_LD_3_RN_2_RD_15_0.png","I_Dist_200_LN_3_LD_4_RN_11_RD_20_0.png","I_Dist_200_LN_4_LD_5_RN_6_RD_10_0.png","I_Dist_200_LN_4_LD_6_RN_14_RD_30_0.png","I_Dist_200_LN_7_LD_10_RN_12_RD_24_0.png","I_Dist_200_LN_7_LD_10_RN_14_RD_28_0.png","I_Dist_200_LN_7_LD_10_RN_8_RD_16_0.png"],["I_Dist_200_LN_11_LD_20_RN_3_RD_4_1.png","I_Dist_200_LN_14_LD_30_RN_12_RD_18_1.png","I_Dist_200_LN_14_LD_30_RN_6_RD_9_1.png","I_Dist_200_LN_3_LD_10_RN_1_RD_2_1.png","I_Dist_200_LN_4_LD_30_RN_1_RD_3_1.png","I_Dist_200_LN_6_LD_20_RN_3_RD_6_1.png","I_Dist_200_LN_7_LD_15_RN_4_RD_6_1.png","I_Dist_200_LN_7_LD_15_RN_6_RD_9_1.png","I_Dist_200_LN_9_LD_15_RN_8_RD_10_1.png"]],"dist200_S":[["E_Dist_200_LN_3_LD_6_RN_3_RD_10_0.png"],["E_Dist_200_LN_3_LD_10_RN_3_RD_6_1.png"]],"dist300_C":[["C_Dist_300_LN_11_LD_22_RN_1_RD_5_0.png","C_Dist_300_LN_11_LD_22_RN_2_RD_10_0.png","C_Dist_300_LN_11_LD_22_RN_4_RD_20_0.png","C_Dist_300_LN_12_LD_24_RN_2_RD_10_0.png","C_Dist_300_LN_18_LD_20_RN_9_RD_15_0.png","C_Dist_300_LN_20_LD_25_RN_13_RD_26_0.png","C_Dist_300_LN_20_LD_25_RN_14_RD_28_0.png","C_Dist_300_LN_20_LD_25_RN_5_RD_10_0.png","C_Dist_300_LN_20_LD_25_RN_8_RD_16_0.png","C_Dist_300_LN_20_LD_25_RN_9_RD_18_0.png","C_Dist_300_LN_24_LD_30_RN_2_RD_4_0.png","C_Dist_300_LN_24_LD_30_RN_8_RD_16_0.png","C_Dist_300_LN_3_LD_6_RN_2_RD_10_0.png","C_Dist_300_LN_4_LD_10_RN_1_RD_10_0.png","C_Dist_300_LN_4_LD_5_RN_2_RD_4_0.png","C_Dist_300_LN_8_LD_16_RN_1_RD_5_0.png","C_Dist_300_LN_9_LD_10_RN_3_RD_5_0.png"],["C_Dist_300_LN_1_LD_20_RN_7_RD_20_1.png","C_Dist_300_LN_1_LD_3_RN_19_RD_30_1.png","C_Dist_300_LN_1_LD_30_RN_8_RD_24_1.png","C_Dist_300_LN_1_LD_5_RN_11_RD_22_1.png","C_Dist_300_LN_1_LD_5_RN_3_RD_6_1.png","C_Dist_300_LN_1_LD_5_RN_6_RD_12_1.png","C_Dist_300_LN_2_LD_10_RN_12_RD_24_1.png","C_Dist_300_LN_2_LD_20_RN_10_RD_25_1.png","C_Dist_300_LN_3_LD_12_RN_11_RD_20_1.png","C_Dist_300_LN_3_LD_6_RN_4_RD_5_1.png","C_Dist_300_LN_4_LD_20_RN_13_RD_26_1.png","C_Dist_300_LN_5_LD_25_RN_6_RD_12_1.png","C_Dist_300_LN_5_LD_25_RN_7_RD_14_1.png","C_Dist_300_LN_7_LD_14_RN_20_RD_25_1.png","C_Dist_300_LN_8_LD_15_RN_10_RD_12_1.png"]],"dist300_I":[["I_Dist_300_LN_1_LD_2_RN_2_RD_10_0.png","I_Dist_300_LN_1_LD_2_RN_3_RD_15_0.png","I_Dist_300_LN_2_LD_4_RN_6_RD_30_0.png","I_Dist_300_LN_3_LD_6_RN_4_RD_20_0.png","I_Dist_300_LN_4_LD_5_RN_6_RD_12_0.png","I_Dist_300_LN_4_LD_5_RN_8_RD_16_0.png","I_Dist_300_LN_7_LD_10_RN_8_RD_20_0.png","I_Dist_300_LN_8_LD_10_RN_14_RD_28_0.png","I_Dist_300_LN_8_LD_10_RN_9_RD_18_0.png"],["I_Dist_300_LN_13_LD_26_RN_12_RD_15_1.png","I_Dist_300_LN_4_LD_20_RN_2_RD_4_1.png"]],"dist300_S":[["E_Dist_300_LN_9_LD_12_RN_9_RD_20_0.png"],["E_Dist_300_LN_18_LD_30_RN_18_RD_20_1.png","E_Dist_300_LN_3_LD_10_RN_3_RD_5_1.png","E_Dist_300_LN_9_LD_20_RN_9_RD_12_1.png"]],"dist500_C":[["C_Dist_500_LN_10_LD_13_RN_7_RD_26_0.png","C_Dist_500_LN_10_LD_15_RN_4_RD_24_0.png","C_Dist_500_LN_12_LD_16_RN_3_RD_12_0.png","C_Dist_500_LN_12_LD_18_RN_4_RD_24_0.png","C_Dist_500_LN_15_LD_18_RN_5_RD_15_0.png","C_Dist_500_LN_15_LD_20_RN_1_RD_4_0.png","C_Dist_500_LN_18_LD_27_RN_1_RD_6_0.png","C_Dist_500_LN_20_LD_24_RN_1_RD_3_0.png","C_Dist_500_LN_20_LD_24_RN_3_RD_9_0.png","C_Dist_500_LN_20_LD_24_RN_7_RD_21_0.png","C_Dist_500_LN_20_LD_28_RN_3_RD_14_0.png","C_Dist_500_LN_21_LD_28_RN_6_RD_24_0.png","C_Dist_500_LN_22_LD_28_RN_2_RD_7_0.png","C_Dist_500_LN_25_LD_30_RN_9_RD_27_0.png","C_Dist_500_LN_4_LD_6_RN_1_RD_6_0.png","C_Dist_500_LN_5_LD_6_RN_2_RD_6_0.png","C_Dist_500_LN_6_LD_9_RN_1_RD_6_0.png","C_Dist_500_LN_7_LD_10_RN_1_RD_5_0.png","C_Dist_500_LN_8_LD_12_RN_1_RD_6_0.png","C_Dist_500_LN_8_LD_12_RN_4_RD_24_0.png"],["C_Dist_500_LN_1_LD_4_RN_12_RD_16_1.png","C_Dist_500_LN_1_LD_4_RN_9_RD_12_1.png","C_Dist_500_LN_1_LD_9_RN_11_RD_18_1.png","C_Dist_500_LN_10_LD_24_RN_22_RD_24_1.png","C_Dist_500_LN_2_LD_12_RN_10_RD_15_1.png","C_Dist_500_LN_2_LD_12_RN_12_RD_18_1.png","C_Dist_500_LN_2_LD_12_RN_4_RD_6_1.png","C_Dist_500_LN_2_LD_24_RN_7_RD_12_1.png","C_Dist_500_LN_2_LD_5_RN_18_RD_20_1.png","C_Dist_500_LN_2_LD_5_RN_9_RD_10_1.png","C_Dist_500_LN_2_LD_8_RN_12_RD_16_1.png","C_Dist_500_LN_2_LD_8_RN_21_RD_28_1.png","C_Dist_500_LN_3_LD_10_RN_4_RD_5_1.png","C_Dist_500_LN_3_LD_12_RN_15_RD_20_1.png","C_Dist_500_LN_3_LD_30_RN_6_RD_10_1.png","C_Dist_500_LN_3_LD_8_RN_14_RD_16_1.png","C_Dist_500_LN_4_LD_16_RN_15_RD_20_1.png","C_Dist_500_LN_4_LD_24_RN_12_RD_18_1.png","C_Dist_500_LN_5_LD_14_RN_6_RD_7_1.png","C_Dist_500_LN_7_LD_21_RN_20_RD_24_1.png","C_Dist_500_LN_7_LD_28_RN_12_RD_16_1.png","C_Dist_500_LN_7_LD_28_RN_9_RD_12_1.png","C_Dist_500_LN_9_LD_27_RN_20_RD_24_1.png"]],"dist500_I":[["I_Dist_500_LN_2_LD_3_RN_4_RD_24_0.png","I_Dist_500_LN_5_LD_6_RN_6_RD_18_0.png","I_Dist_500_LN_7_LD_8_RN_9_RD_24_0.png"],["I_Dist_500_LN_7_LD_21_RN_5_RD_6_1.png"]],"dist500_S":[["E_Dist_500_LN_6_LD_8_RN_6_RD_24_0.png"],["E_Dist_500_LN_2_LD_12_RN_2_RD_3_1.png","E_Dist_500_LN_6_LD_24_RN_6_RD_8_1.png"]]}},{"start_time":1551887004429,"click_time":1551887006036,"finger_time":1551887005875,"fix_duration":590.2856041553287,"trial":1,"RT":1446,"MT":161,"sideResp":1,"stimulus":[],"xmouse":[784,784,784,784,784,784,784,784,784,784,784,784,784,784,784,784,784,784,784,784,784,784,784,784,784,784,784,784,784,784,784,784,784,784,784,784,784,784,784,784,784,784,784,784,784,784,784,784,784,784,784,784,784,784,784,784,784,784,784,784,784,784,784,784,784,784,784,784,784,784,782,773,745,715,679,642,619,581,552,535,523],"ymouse":[526,526,526,526,526,526,526,526,526,526,526,526,526,526,526,526,526,526,526,526,526,526,526,526,526,526,526,526,526,526,526,526,526,526,526,526,526,526,526,526,526,526,526,526,526,526,526,526,526,526,526,526,526,526,526,526,526,526,526,526,526,526,526,526,526,526,526,526,526,526,524,510,469,431,382,330,288,201,142,113,90],"timestamp_mouse":[8,37,47,67,88,107,126,146,167,188,207,227,247,267,286,308,326,346,366,387,406,426,446,466,487,507,526,547,568,586,606,626,647,666,687,706,726,746,767,788,806,827,846,866,886,906,927,946,967,987,1006,1028,1047,1067,1087,1106,1127,1146,1166,1186,1207,1226,1246,1267,1287,1307,1326,1347,1367,1387,1408,1426,1446,1467,1486,1507,1527,1546,1566,1586,1607],"xSR":741.5,"ySR":481,"xT1":424.9,"yT1":0,"xT2":1058.1,"yT2":0,"toosoon":0,"cond_shown":"Incongruent","ratio_trial":300,"L_num":3,"L_den":6,"R_num":4,"R_den":20,"correct_side":1,"subjID":"SimonEstebanTorresLeon23","gender":"0","school":"cafam","age":"10"},{"start_time":1551887007540,"click_time":1551887009255,"finger_time":1551887008916,"fix_duration":483.77912944431466,"trial":2,"RT":1376,"MT":339,"sideResp":2,"stimulus":[],"xmouse":[783,783,783,783,783,783,783,783,783,783,783,783,783,783,783,783,783,783,783,783,783,783,783,783,783,783,783,783,783,783,783,783,783,783,783,783,783,783,783,783,783,783,783,783,783,783,783,783,783,783,783,783,783,783,783,783,783,783,783,783,783,783,783,783,783,782,795,812,827,855,885,935,959,975,988,1002,1026,1038,1048,1055,1057,1058,1058,1058,1058,1060],"ymouse":[527,527,527,527,527,527,527,527,527,527,527,527,527,527,527,527,527,527,527,527,527,527,527,527,527,527,527,527,527,527,527,527,527,527,527,527,527,527,527,527,527,527,527,527,527,527,527,527,527,527,527,527,527,527,527,527,527,527,527,527,527,527,527,527,527,527,509,494,474,431,378,276,219,192,171,155,129,118,108,102,100,100,100,100,100,99],"timestamp_mouse":[15,35,56,76,96,116,136,155,175,196,216,235,255,276,296,316,337,355,375,395,415,436,456,475,495,516,536,556,575,596,617,636,656,676,695,715,735,756,776,795,815,835,856,875,896,915,936,955,975,996,1016,1035,1057,1075,1095,1115,1135,1156,1176,1197,1216,1236,1256,1275,1296,1315,1335,1355,1376,1396,1415,1435,1455,1475,1495,1515,1535,1556,1575,1595,1617,1636,1655,1675,1695,1715],"xSR":741.5,"ySR":481,"xT1":424.9,"yT1":0,"xT2":1058.1,"yT2":0,"toosoon":0,"cond_shown":"Congruent","ratio_trial":300,"L_num":1,"L_den":5,"R_num":3,"R_den":6,"correct_side":2,"subjID":"SimonEstebanTorresLeon23","gender":"0","school":"cafam","age":"10"},{"start_time":1551887010575,"click_time":1551887011976,"finger_time":1551887011895,"fix_duration":277.07292423136,"trial":3,"RT":1320,"MT":81,"sideResp":1,"stimulus":[],"xmouse":[775,775,775,775,775,775,775,775,775,775,775,775,775,775,775,775,775,775,775,775,775,775,775,775,775,775,775,775,775,775,775,775,775,775,775,775,775,775,775,775,775,775,775,775,775,775,775,775,775,775,775,775,775,775,775,775,775,775,775,775,775,775,775,775,775,772,757,715,656,600,490],"ymouse":[519,519,519,519,519,519,519,519,519,519,519,519,519,519,519,519,519,519,519,519,519,519,519,519,519,519,519,519,519,519,519,519,519,519,519,519,519,519,519,519,519,519,519,519,519,519,519,519,519,519,519,519,519,519,519,519,517,516,515,512,510,509,509,509,508,498,476,416,341,262,80],"timestamp_mouse":[8,35,41,61,80,102,120,142,161,180,201,220,241,260,280,301,321,340,360,381,401,420,440,460,481,500,520,540,562,581,600,621,640,660,680,700,721,741,762,781,800,821,840,861,881,901,921,940,961,981,1001,1020,1041,1062,1081,1100,1120,1140,1160,1181,1200,1221,1241,1260,1280,1300,1320,1340,1360,1380,1400],"xSR":741.5,"ySR":481,"xT1":424.9,"yT1":0,"xT2":1058.1,"yT2":0,"toosoon":0,"cond_shown":"Incongruent","ratio_trial":100,"L_num":12,"L_den":30,"R_num":2,"R_den":4,"correct_side":2,"subjID":"SimonEstebanTorresLeon23","gender":"0","school":"cafam","age":"10"},{"start_time":1551887015125,"click_time":1551887016155,"finger_time":1551887015956,"fix_duration":629.0068187535635,"trial":4,"RT":831,"MT":199,"sideResp":1,"stimulus":[],"xmouse":[761,761,761,761,761,761,761,761,761,761,761,761,761,761,761,761,761,761,761,761,761,761,761,761,761,761,761,761,761,761,761,761,761,761,761,761,761,761,761,760,757,740,698,664,643,627,614,585,566,547,532,522],"ymouse":[514,514,514,514,514,514,514,514,514,514,514,514,514,514,514,514,514,514,514,514,514,514,514,514,514,514,514,514,514,514,514,514,514,514,514,514,514,514,514,514,514,500,406,277,201,146,102,50,33,21,13,7],"timestamp_mouse":[10,38,50,71,90,111,130,151,170,190,210,230,250,270,291,312,330,350,372,391,410,431,451,471,491,511,530,550,571,590,611,630,650,671,691,710,731,750,771,790,811,831,850,870,890,910,930,950,970,990,1010,1030],"xSR":741.5,"ySR":481,"xT1":424.9,"yT1":0,"xT2":1058.1,"yT2":0,"toosoon":0,"cond_shown":"Congruent","ratio_trial":300,"L_num":24,"L_den":30,"R_num":2,"R_den":4,"correct_side":1,"subjID":"SimonEstebanTorresLeon23","gender":"0","school":"cafam","age":"10"},{"start_time":1551887018604,"click_time":1551887019575,"finger_time":1551887019356,"fix_duration":1466.6872757386298,"trial":5,"RT":752,"MT":219,"sideResp":2,"stimulus":[],"xmouse":[798,798,798,798,798,798,798,798,798,798,798,798,798,798,798,798,798,798,798,798,798,798,798,798,798,798,798,798,798,798,798,798,798,798,800,803,813,853,956,1003,1027,1044,1059,1078,1087,1098,1108,1116,1122],"ymouse":[531,531,531,531,531,531,531,531,531,531,531,531,531,531,531,531,531,531,531,531,531,531,531,531,531,531,531,531,531,531,531,531,531,531,528,522,503,448,304,247,218,196,174,145,133,120,110,103,97],"timestamp_mouse":[11,36,51,71,91,111,132,151,171,191,211,232,251,271,291,311,331,351,372,391,411,432,451,471,491,512,531,551,571,591,612,631,651,671,691,712,731,752,771,791,811,831,852,871,891,911,931,952,971],"xSR":741.5,"ySR":481,"xT1":424.9,"yT1":0,"xT2":1058.1,"yT2":0,"toosoon":0,"cond_shown":"Incongruent","ratio_trial":300,"L_num":13,"L_den":26,"R_num":12,"R_den":15,"correct_side":2,"subjID":"SimonEstebanTorresLeon23","gender":"0","school":"cafam","age":"10"},{"start_time":1551887022713,"click_time":1551887024316,"finger_time":1551887024075,"fix_duration":417.5983324686623,"trial":6,"RT":1362,"MT":241,"sideResp":1,"stimulus":[],"xmouse":[782,782,781,781,781,781,781,781,781,781,781,782,782,782,782,782,782,782,782,782,782,782,782,782,782,782,782,782,782,782,782,782,782,782,782,782,782,782,782,782,782,782,782,782,782,782,782,782,782,782,782,782,782,782,782,782,782,782,782,782,782,782,782,782,782,782,769,752,697,661,636,618,610,600,597,593,592,590,563,516,461],"ymouse":[546,547,547,547,547,547,547,547,547,547,547,544,543,539,538,538,538,538,538,538,538,538,538,538,538,538,538,538,538,538,538,538,538,538,538,538,538,538,538,538,538,538,538,538,538,538,538,538,538,538,538,538,538,538,538,538,538,538,538,538,538,538,538,538,538,531,518,495,373,307,247,207,181,135,125,120,118,117,113,107,99],"timestamp_mouse":[2,22,42,74,82,103,122,142,163,182,202,222,244,262,283,302,322,343,362,382,402,422,443,462,482,503,522,542,563,582,604,623,643,662,684,702,723,743,763,783,802,823,843,862,883,902,922,942,963,982,1002,1023,1042,1062,1083,1102,1123,1143,1163,1182,1203,1222,1242,1262,1284,1302,1322,1342,1362,1383,1402,1422,1443,1462,1482,1502,1522,1542,1562,1583,1603],"xSR":741.5,"ySR":481,"xT1":424.9,"yT1":0,"xT2":1058.1,"yT2":0,"toosoon":0,"cond_shown":"Incongruent","ratio_trial":200,"L_num":3,"L_den":4,"R_num":11,"R_den":20,"correct_side":1,"subjID":"SimonEstebanTorresLeon23","gender":"0","school":"cafam","age":"10"},{"start_time":1551887027063,"click_time":1551887028475,"finger_time":1551887028135,"fix_duration":385.75776670343987,"trial":7,"RT":1072,"MT":340,"sideResp":2,"stimulus":[],"xmouse":[811,811,811,811,811,811,811,811,811,811,811,811,811,811,811,811,811,811,811,811,811,811,811,811,811,811,811,811,811,811,811,811,811,811,811,811,811,811,811,811,811,811,811,811,811,811,811,811,811,811,812,819,828,845,868,915,937,967,995,1016,1050,1064,1076,1085,1093,1104,1112,1117,1121,1126,1134],"ymouse":[533,533,533,533,533,533,533,533,533,533,533,533,533,533,533,533,533,533,533,533,533,533,533,533,533,533,533,533,533,533,533,533,533,533,533,533,533,533,533,533,533,533,533,533,533,533,533,533,533,533,530,519,501,472,437,379,352,319,287,268,243,232,220,212,200,179,159,143,127,107,69],"timestamp_mouse":[13,43,52,72,92,112,132,152,172,192,213,232,253,273,293,314,334,352,373,394,412,432,453,473,492,512,532,553,572,592,612,632,652,673,693,712,733,752,774,793,812,832,852,873,893,912,932,954,972,992,1013,1032,1053,1072,1094,1113,1133,1152,1172,1192,1212,1232,1252,1272,1292,1312,1332,1352,1373,1392,1412],"xSR":741.5,"ySR":481,"xT1":424.9,"yT1":0,"xT2":1058.1,"yT2":0,"toosoon":0,"cond_shown":"Congruent","ratio_trial":100,"L_num":6,"L_den":12,"R_num":15,"R_den":25,"correct_side":2,"subjID":"SimonEstebanTorresLeon23","gender":"0","school":"cafam","age":"10"},{"start_time":1551887031674,"click_time":1551887033535,"finger_time":1551887033075,"fix_duration":956.1604133399396,"trial":8,"RT":1401,"MT":460,"sideResp":2,"stimulus":[],"xmouse":[781,781,781,781,781,781,781,781,781,781,781,781,781,781,781,781,781,781,781,781,781,781,781,781,781,781,781,781,781,781,781,781,781,781,781,781,781,781,781,781,781,781,781,781,781,781,781,781,781,781,781,781,781,781,781,781,781,781,781,781,781,781,781,781,781,781,781,781,781,781,796,824,855,888,924,1003,1063,1087,1102,1110,1115,1117,1118,1119,1120,1120,1114,1109,1106,1104,1102,1102,1102,1106],"ymouse":[488,488,488,488,488,488,488,488,488,488,488,488,488,488,488,488,488,488,488,488,488,488,488,488,488,488,488,488,488,488,488,488,488,488,488,488,488,488,488,488,488,488,488,488,488,488,488,488,488,488,488,488,488,488,488,488,488,488,488,488,488,488,488,488,488,488,488,488,488,487,472,452,429,406,381,328,280,260,246,234,221,215,209,202,195,173,157,147,138,129,117,111,104,95],"timestamp_mouse":[8,31,42,61,83,102,121,141,161,182,201,221,241,261,282,301,322,341,362,381,401,423,442,461,481,501,521,541,561,582,602,621,643,662,681,702,721,742,763,782,801,822,841,861,883,902,922,941,962,981,1001,1022,1041,1061,1082,1101,1121,1143,1162,1182,1202,1222,1241,1261,1283,1302,1322,1342,1362,1381,1401,1421,1441,1461,1482,1501,1521,1541,1562,1581,1601,1622,1641,1662,1682,1701,1722,1742,1761,1782,1801,1821,1841,1861],"xSR":741.5,"ySR":481,"xT1":424.9,"yT1":0,"xT2":1058.1,"yT2":0,"toosoon":0,"cond_shown":"Congruent","ratio_trial":100,"L_num":4,"L_den":8,"R_num":6,"R_den":10,"correct_side":2,"subjID":"SimonEstebanTorresLeon23","gender":"0","school":"cafam","age":"10"},{"start_time":1551887036470,"click_time":1551887038336,"finger_time":1551887037955,"fix_duration":373.3485034643025,"trial":9,"RT":1485,"MT":381,"sideResp":1,"stimulus":[],"xmouse":[799,799,799,799,799,799,799,799,799,799,799,799,799,799,799,799,799,799,799,799,799,799,799,799,799,799,799,799,799,799,799,799,799,799,799,799,799,799,799,799,799,799,799,799,799,799,799,799,799,799,799,799,799,799,799,799,799,799,799,799,799,799,799,799,799,799,799,799,799,799,799,799,799,797,791,761,735,704,673,634,545,528,528,528,528,528,528,528,528,528,528,528,528,470],"ymouse":[545,545,545,545,545,545,545,545,545,545,545,545,545,545,545,545,545,545,545,545,545,545,545,545,545,541,535,531,527,525,524,523,523,523,523,523,523,523,523,523,523,523,523,523,523,523,523,523,523,523,523,523,523,523,523,523,523,523,523,523,523,523,523,523,523,523,523,523,523,523,523,520,513,498,471,288,233,180,139,99,25,11,11,11,11,11,11,11,11,11,11,11,11,4],"timestamp_mouse":[11,36,45,66,86,105,127,146,165,185,206,226,246,266,285,307,325,345,367,386,406,427,446,465,485,505,526,546,565,585,606,626,645,665,686,705,725,745,766,786,805,826,846,865,885,905,925,945,965,985,1005,1026,1045,1066,1086,1105,1126,1145,1166,1186,1206,1225,1246,1265,1286,1305,1326,1345,1365,1385,1405,1425,1445,1466,1485,1505,1525,1545,1566,1585,1606,1625,1646,1665,1686,1705,1725,1745,1766,1785,1806,1826,1845,1866],"xSR":741.5,"ySR":481,"xT1":424.9,"yT1":0,"xT2":1058.1,"yT2":0,"toosoon":0,"cond_shown":"Incongruent","ratio_trial":100,"L_num":1,"L_den":2,"R_num":8,"R_den":20,"correct_side":1,"subjID":"SimonEstebanTorresLeon23","gender":"0","school":"cafam","age":"10"},{"start_time":1551887041337,"click_time":1551887042295,"finger_time":1551887041995,"fix_duration":1440.3445419376621,"trial":10,"RT":658,"MT":300,"sideResp":1,"stimulus":[],"xmouse":[793,793,793,793,793,793,793,793,793,793,793,793,793,793,793,793,793,793,793,793,793,793,793,793,793,793,793,793,793,793,793,755,718,683,635,586,511,497,489,487,487,487,487,487,487,487,487,487],"ymouse":[531,531,531,531,531,531,531,531,531,531,531,531,531,531,531,531,531,531,531,531,531,531,531,531,531,531,531,531,531,531,531,519,499,468,400,322,194,161,136,118,108,105,105,105,105,104,100,98],"timestamp_mouse":[18,39,59,78,98,119,139,158,179,198,219,238,258,278,299,318,338,358,378,398,418,438,460,478,498,519,539,558,578,598,619,638,658,678,698,718,738,758,778,798,819,838,859,879,898,918,938,958],"xSR":741.5,"ySR":481,"xT1":424.9,"yT1":0,"xT2":1058.1,"yT2":0,"toosoon":0,"cond_shown":"Incongruent","ratio_trial":100,"L_num":6,"L_den":10,"R_num":11,"R_den":22,"correct_side":1,"subjID":"SimonEstebanTorresLeon23","gender":"0","school":"cafam","age":"10"},{"start_time":1551887043957,"click_time":1551887045675,"finger_time":1551887044875,"fix_duration":701.85197727802,"trial":11,"RT":918,"MT":800,"sideResp":1,"stimulus":[],"xmouse":[780,780,780,780,780,780,780,780,780,780,780,780,780,780,780,780,780,780,780,780,780,780,780,780,780,780,781,785,792,795,802,802,802,802,802,802,802,802,802,802,802,802,802,804,807,834,855,882,906,936,960,962,962,962,962,960,937,851,728,564,335,308,308,313,329,367,391,422,460,515,615,638,651,658,661,670,678,690,701,716,727,727,698,641,571,435],"ymouse":[511,511,511,511,511,511,511,511,511,511,511,511,511,511,511,511,511,511,511,511,511,511,511,511,511,511,511,510,507,505,501,501,501,501,501,501,501,501,501,501,501,501,501,500,496,465,441,413,384,345,301,296,295,295,295,295,296,328,381,445,543,569,575,586,595,603,605,605,605,605,602,597,593,589,587,576,566,555,543,523,494,447,390,321,242,76],"timestamp_mouse":[18,39,59,78,98,119,138,158,178,199,218,238,258,278,298,319,339,358,378,398,418,438,459,479,499,519,538,558,578,599,619,642,658,678,699,719,740,759,779,798,818,838,858,878,898,918,939,959,978,999,1018,1038,1058,1078,1098,1118,1139,1158,1178,1198,1219,1238,1258,1278,1298,1318,1338,1359,1378,1398,1418,1439,1458,1479,1499,1518,1538,1558,1578,1599,1618,1638,1658,1678,1698,1718],"xSR":741.5,"ySR":481,"xT1":424.9,"yT1":0,"xT2":1058.1,"yT2":0,"toosoon":0,"cond_shown":"Incongruent","ratio_trial":200,"L_num":4,"L_den":30,"R_num":1,"R_den":3,"correct_side":2,"subjID":"SimonEstebanTorresLeon23","gender":"0","school":"cafam","age":"10"},{"start_time":1551887051212,"click_time":1551887052755,"finger_time":1551887052535,"fix_duration":1056.9899462784026,"trial":12,"RT":1323,"MT":220,"sideResp":2,"stimulus":[],"xmouse":[816,816,816,816,816,816,816,816,816,816,816,816,816,816,816,816,816,816,816,816,816,816,816,816,816,816,816,816,816,816,816,816,816,816,817,818,819,819,819,819,819,819,819,819,819,819,819,819,819,819,819,819,819,819,819,819,819,819,819,819,819,819,819,819,828,837,859,896,992,1051,1071,1081,1086,1092,1096,1101,1104,1108],"ymouse":[519,519,519,519,519,519,519,519,519,519,519,519,519,519,519,519,519,519,519,519,519,519,519,519,519,519,519,519,519,519,519,519,519,519,520,521,521,521,521,521,521,521,521,521,521,521,521,521,521,521,521,521,521,521,521,521,521,521,521,521,521,521,521,521,513,505,486,454,355,284,254,237,221,194,168,136,106,81],"timestamp_mouse":[8,35,43,63,85,103,124,143,163,184,204,224,243,263,284,303,324,343,363,384,403,424,443,464,483,503,523,543,563,584,604,624,643,663,683,703,724,744,764,783,803,823,844,865,883,904,923,943,964,983,1003,1025,1044,1063,1084,1103,1124,1145,1164,1184,1204,1223,1243,1264,1283,1304,1323,1344,1363,1384,1403,1423,1443,1463,1483,1503,1523,1543],"xSR":741.5,"ySR":481,"xT1":424.9,"yT1":0,"xT2":1058.1,"yT2":0,"toosoon":0,"cond_shown":"Congruent","ratio_trial":300,"L_num":1,"L_den":20,"R_num":7,"R_den":20,"correct_side":2,"subjID":"SimonEstebanTorresLeon23","gender":"0","school":"cafam","age":"10"},{"start_time":1551887054567,"click_time":1551887055816,"finger_time":1551887055535,"fix_duration":1111.955611791601,"trial":13,"RT":968,"MT":281,"sideResp":2,"stimulus":[],"xmouse":[763,763,763,763,763,763,763,763,763,763,763,763,763,763,763,763,763,763,763,763,763,763,763,763,763,763,763,763,763,763,763,763,763,763,763,763,763,763,763,763,763,763,763,763,763,779,796,817,841,861,886,889,889,890,891,904,912,925,943,962,1026,1050,1066],"ymouse":[532,532,532,532,532,532,532,532,532,532,532,532,532,532,532,532,532,532,532,532,532,532,532,532,532,532,532,532,532,532,532,532,532,532,532,532,532,532,532,532,532,532,532,532,533,521,508,492,475,458,435,430,429,427,421,393,376,354,324,290,177,127,89],"timestamp_mouse":[8,40,48,68,89,108,129,148,168,189,209,229,248,268,288,308,328,348,368,388,408,429,448,468,488,508,529,548,568,588,608,628,648,668,688,708,728,748,768,788,808,830,849,868,888,908,928,949,968,989,1008,1029,1049,1068,1088,1108,1129,1148,1168,1188,1208,1229,1248],"xSR":741.5,"ySR":481,"xT1":424.9,"yT1":0,"xT2":1058.1,"yT2":0,"toosoon":0,"cond_shown":"Congruent","ratio_trial":100,"L_num":2,"L_den":5,"R_num":11,"R_den":22,"correct_side":2,"subjID":"SimonEstebanTorresLeon23","gender":"0","school":"cafam","age":"10"},{"start_time":1551887057702,"click_time":1551887059315,"finger_time":1551887059115,"fix_duration":1165.3055208219805,"trial":14,"RT":1413,"MT":200,"sideResp":2,"stimulus":[],"xmouse":[806,806,806,806,806,806,806,806,806,806,806,806,806,806,806,806,806,806,806,806,806,806,806,806,806,806,806,806,806,806,806,806,806,806,806,806,806,806,806,806,806,806,806,806,806,806,806,806,806,806,806,806,806,806,806,806,806,806,806,806,806,806,806,806,806,806,806,809,816,829,851,883,915,956,984,1005,1022,1034,1051,1057,1063],"ymouse":[510,510,510,510,510,510,510,510,510,510,510,510,510,510,510,510,510,510,510,510,510,510,510,510,510,510,510,510,510,510,510,510,510,510,510,510,510,510,510,510,510,510,510,510,510,510,510,510,510,510,510,510,510,510,510,510,510,510,510,510,510,510,510,510,510,510,510,507,498,483,452,401,343,282,233,196,167,146,108,94,80],"timestamp_mouse":[13,37,54,74,94,113,135,154,173,194,214,234,254,274,295,314,334,354,374,394,414,434,455,474,494,515,535,554,573,594,614,634,655,673,695,715,733,754,774,795,813,835,854,874,893,915,933,955,975,994,1014,1034,1053,1074,1094,1113,1135,1154,1175,1195,1213,1233,1254,1273,1295,1314,1335,1354,1374,1394,1413,1434,1455,1473,1493,1513,1533,1553,1573,1593,1613],"xSR":741.5,"ySR":481,"xT1":424.9,"yT1":0,"xT2":1058.1,"yT2":0,"toosoon":0,"cond_shown":"Incongruent","ratio_trial":300,"L_num":13,"L_den":26,"R_num":12,"R_den":15,"correct_side":2,"subjID":"SimonEstebanTorresLeon23","gender":"0","school":"cafam","age":"10"},{"start_time":1551887061156,"click_time":1551887062395,"finger_time":1551887062055,"fix_duration":579.4946731193448,"trial":15,"RT":899,"MT":340,"sideResp":1,"stimulus":[],"xmouse":[750,750,750,750,750,750,750,750,750,750,750,750,750,750,750,750,750,750,750,750,750,750,750,750,750,750,750,750,750,750,750,750,750,750,750,750,750,750,750,750,750,750,750,750,746,720,590,538,513,487,455,408,401,401,401,401,404,405,406,407,409,420,425],"ymouse":[533,533,533,533,533,533,533,533,533,533,533,533,533,533,533,533,533,533,533,533,533,533,533,533,533,533,533,533,533,533,533,533,533,533,533,533,533,533,533,533,533,533,533,533,533,520,435,398,377,350,308,217,183,167,148,132,108,103,100,98,95,83,77],"timestamp_mouse":[8,36,41,61,80,100,120,140,160,179,201,220,239,261,281,301,320,340,361,380,400,420,440,460,481,500,520,540,561,579,600,619,641,661,680,700,720,741,760,780,801,820,840,860,880,899,920,941,960,979,1000,1019,1053,1060,1081,1101,1120,1141,1161,1181,1200,1221,1239],"xSR":741.5,"ySR":481,"xT1":424.9,"yT1":0,"xT2":1058.1,"yT2":0,"toosoon":0,"cond_shown":"Incongruent","ratio_trial":100,"L_num":9,"L_den":18,"R_num":6,"R_den":10,"correct_side":2,"subjID":"SimonEstebanTorresLeon23","gender":"0","school":"cafam","age":"10"},{"start_time":1551887082689,"click_time":1551887084116,"finger_time":1551887083776,"fix_duration":870.8772599663486,"trial":16,"RT":1087,"MT":340,"sideResp":2,"stimulus":[],"xmouse":[802,802,802,802,802,802,802,802,802,802,802,802,802,802,802,802,802,802,802,802,802,802,802,802,802,802,802,802,802,802,802,802,802,802,802,802,802,802,802,802,802,802,802,802,802,802,802,802,802,802,802,802,802,809,875,895,915,943,964,992,996,1000,1002,1005,1017,1029,1039,1047,1052,1056,1056,1060],"ymouse":[499,499,499,499,499,499,499,499,499,499,499,499,499,499,499,499,499,499,499,499,499,499,499,499,499,499,499,499,499,499,499,499,499,499,499,499,499,499,499,499,499,499,499,499,499,499,499,499,499,499,499,499,499,500,442,424,408,388,371,344,336,329,323,312,272,239,215,192,172,129,109,90],"timestamp_mouse":[12,34,47,66,87,107,127,148,168,187,206,228,246,266,287,307,328,348,366,388,407,426,446,467,488,508,527,548,567,587,607,627,646,667,686,707,727,747,767,787,807,827,848,866,887,907,926,947,967,988,1006,1027,1046,1068,1087,1106,1127,1146,1166,1187,1206,1227,1247,1267,1287,1307,1327,1348,1367,1387,1407,1426],"xSR":741.5,"ySR":481,"xT1":424.9,"yT1":0,"xT2":1058.1,"yT2":0,"toosoon":0,"cond_shown":"Congruent","ratio_trial":100,"L_num":7,"L_den":14,"R_num":15,"R_den":25,"correct_side":2,"subjID":"SimonEstebanTorresLeon23","gender":"0","school":"cafam","age":"10"},{"start_time":1551887085462,"click_time":1551887087056,"finger_time":1551887086476,"fix_duration":864.786073534771,"trial":17,"RT":1014,"MT":580,"sideResp":1,"stimulus":[],"xmouse":[783,783,783,783,783,783,783,783,783,783,783,783,783,783,783,783,783,783,783,783,783,783,783,783,783,783,783,783,783,783,783,783,783,783,783,783,783,783,783,783,783,783,783,783,783,783,783,778,771,745,652,610,582,567,561,561,561,561,561,561,561,561,561,561,561,561,561,561,571,584,600,603,604,604,604,601,587,571,547,514],"ymouse":[541,541,541,541,541,541,541,541,541,541,541,541,541,541,541,541,541,541,541,541,541,541,541,541,541,541,541,541,541,541,541,541,541,541,541,541,541,541,541,541,541,541,541,541,541,541,541,541,539,525,469,447,435,429,427,426,426,426,426,426,426,426,426,426,423,383,337,272,216,170,115,98,90,85,84,83,81,81,80,79],"timestamp_mouse":[14,44,55,73,94,114,134,154,174,194,215,234,254,274,294,315,335,354,375,394,413,435,455,473,494,514,533,554,574,594,613,635,654,673,695,715,734,754,775,793,815,834,853,874,894,914,934,954,974,995,1014,1033,1054,1074,1094,1114,1135,1154,1174,1193,1213,1233,1254,1274,1295,1313,1334,1353,1375,1394,1413,1434,1455,1474,1495,1514,1533,1553,1574,1594],"xSR":741.5,"ySR":481,"xT1":424.9,"yT1":0,"xT2":1058.1,"yT2":0,"toosoon":0,"cond_shown":"Congruent","ratio_trial":100,"L_num":11,"L_den":22,"R_num":6,"R_den":15,"correct_side":1,"subjID":"SimonEstebanTorresLeon23","gender":"0","school":"cafam","age":"10"},{"start_time":1551887089111,"click_time":1551887090855,"finger_time":1551887090456,"fix_duration":1313.5923569323675,"trial":18,"RT":1345,"MT":399,"sideResp":1,"stimulus":[],"xmouse":[755,755,755,755,755,755,755,755,755,755,755,755,755,755,755,755,755,755,755,755,755,755,755,755,755,755,755,755,755,755,755,755,755,755,755,755,755,755,755,755,755,755,755,755,755,755,755,755,755,755,755,755,755,755,755,755,755,755,755,755,755,755,755,755,755,754,745,729,680,641,593,546,498,435,413,401,396,394,393,393,393,393,394,400,405,412,422,432],"ymouse":[504,504,504,504,504,504,504,504,504,504,504,504,504,504,504,504,504,504,504,504,504,504,504,504,504,504,504,504,504,504,504,504,504,504,504,504,504,504,504,504,504,504,504,504,504,504,504,504,504,504,504,504,504,504,504,504,504,504,504,504,504,504,504,504,504,504,493,473,418,381,343,306,266,207,177,161,148,139,129,125,123,122,120,112,109,103,99,94],"timestamp_mouse":[10,37,45,65,84,105,125,144,164,186,206,224,245,265,284,306,324,345,365,384,405,426,445,465,485,505,524,546,566,584,604,625,644,665,685,706,726,745,765,784,805,826,845,865,885,905,926,945,964,985,1006,1025,1045,1065,1084,1105,1126,1144,1165,1185,1204,1226,1245,1264,1286,1305,1325,1345,1364,1385,1404,1425,1445,1465,1484,1504,1525,1545,1565,1585,1604,1624,1644,1664,1686,1704,1725,1744],"xSR":741.5,"ySR":481,"xT1":424.9,"yT1":0,"xT2":1058.1,"yT2":0,"toosoon":0,"cond_shown":"Incongruent","ratio_trial":100,"L_num":13,"L_den":26,"R_num":6,"R_den":10,"correct_side":2,"subjID":"SimonEstebanTorresLeon23","gender":"0","school":"cafam","age":"10"},{"start_time":1551887095183,"click_time":1551887097097,"finger_time":1551887096657,"fix_duration":1086.5202600565897,"trial":19,"RT":1474,"MT":440,"sideResp":1,"stimulus":[],"xmouse":[809,809,809,809,809,809,809,809,809,809,809,809,809,809,809,809,809,809,809,809,809,809,809,809,809,809,809,809,809,809,809,809,809,809,809,809,809,809,809,809,809,809,809,809,809,809,809,809,809,809,809,809,809,809,809,809,809,809,809,809,809,809,809,809,809,809,809,809,809,809,808,799,786,773,756,749,742,732,719,670,578,508,453,421,393,387,386,386,386,389,392,394,396,401,418,430],"ymouse":[517,517,517,517,517,517,517,517,517,517,517,517,517,517,517,517,517,517,517,517,517,517,517,517,517,517,517,517,517,517,517,517,517,517,517,517,517,517,517,517,517,517,517,517,517,517,517,517,517,517,517,517,517,517,517,517,517,517,517,517,517,517,517,517,517,517,517,517,517,517,517,503,487,470,447,437,428,416,399,359,301,238,189,161,117,103,92,85,80,76,73,71,71,69,65,60],"timestamp_mouse":[14,41,54,72,93,114,133,152,172,194,213,233,252,273,294,312,334,353,373,394,412,433,454,472,494,513,534,554,573,593,613,634,654,673,692,713,734,752,772,793,812,834,854,873,892,912,933,952,973,993,1013,1032,1053,1072,1093,1113,1133,1153,1174,1193,1212,1234,1254,1272,1292,1313,1332,1353,1372,1392,1414,1433,1453,1474,1493,1513,1533,1554,1573,1593,1612,1633,1652,1672,1692,1714,1733,1754,1774,1792,1814,1833,1853,1873,1892,1914],"xSR":741.5,"ySR":481,"xT1":424.9,"yT1":0,"xT2":1058.1,"yT2":0,"toosoon":0,"cond_shown":"Incongruent","ratio_trial":100,"L_num":9,"L_den":15,"R_num":14,"R_den":28,"correct_side":1,"subjID":"SimonEstebanTorresLeon23","gender":"0","school":"cafam","age":"10"},{"start_time":1551887098388,"click_time":1551887100275,"finger_time":1551887099875,"fix_duration":250,"trial":20,"RT":1487,"MT":400,"sideResp":1,"stimulus":[],"xmouse":[805,805,805,805,805,805,805,805,805,805,805,805,805,805,805,805,805,805,805,805,805,805,805,805,805,805,805,805,805,805,805,805,805,805,805,805,805,805,805,805,805,805,805,805,805,805,805,805,805,805,805,805,805,805,805,805,805,805,805,805,805,805,805,805,805,805,805,805,805,805,805,805,803,784,719,682,651,631,609,574,543,522,499,478,450,442,438,434,432,432,434,435,439,445,460],"ymouse":[505,505,505,505,505,505,505,505,505,505,505,505,505,505,505,505,505,505,505,505,505,505,505,505,505,505,505,505,505,505,505,505,505,505,505,505,505,505,505,505,505,505,505,505,505,505,505,505,505,505,505,505,505,505,505,505,505,505,505,505,505,505,505,505,505,505,505,505,505,505,505,505,504,494,456,437,421,411,399,375,348,333,317,299,264,246,228,209,191,163,141,129,115,105,88],"timestamp_mouse":[10,35,48,67,88,108,128,148,168,189,207,229,248,267,288,308,327,349,368,387,409,428,447,467,487,508,528,547,569,588,607,628,647,668,687,709,727,749,768,787,807,829,847,869,888,908,927,947,969,987,1008,1029,1048,1069,1088,1109,1127,1148,1168,1187,1209,1228,1247,1268,1287,1309,1327,1348,1367,1389,1407,1427,1449,1468,1487,1507,1528,1549,1568,1588,1608,1628,1648,1669,1688,1708,1727,1749,1767,1787,1808,1828,1847,1868,1887],"xSR":741.5,"ySR":481,"xT1":424.9,"yT1":0,"xT2":1058.1,"yT2":0,"toosoon":0,"cond_shown":"Congruent","ratio_trial":200,"L_num":11,"L_den":22,"R_num":3,"R_den":10,"correct_side":1,"subjID":"SimonEstebanTorresLeon23","gender":"0","school":"cafam","age":"10"},{"start_time":1551887101816,"click_time":1551887103197,"finger_time":1551887102595,"fix_duration":678.1373281955139,"trial":21,"RT":779,"MT":602,"sideResp":2,"stimulus":[],"xmouse":[814,814,814,814,814,814,814,814,814,814,814,814,814,814,814,814,814,814,814,814,814,814,814,814,814,814,814,814,814,814,814,814,814,814,814,814,814,820,840,861,875,886,891,894,894,894,895,895,902,913,924,938,954,992,1003,1013,1021,1029,1042,1047,1048,1049,1050,1050,1050,1050,1050,1051,1054,1062],"ymouse":[556,556,556,556,556,556,556,556,556,556,556,556,556,556,556,556,556,556,556,556,556,556,556,556,556,556,556,556,556,556,556,556,556,556,556,556,556,555,521,485,466,451,442,436,436,436,434,434,423,404,384,360,328,246,220,195,169,145,100,80,74,69,64,62,62,62,62,62,62,61],"timestamp_mouse":[1,21,46,61,81,99,120,140,160,180,200,220,240,260,281,300,319,339,361,380,400,420,440,460,480,500,521,540,561,579,599,620,640,659,680,699,721,741,761,779,799,820,840,860,880,900,920,940,959,980,1000,1020,1040,1060,1081,1100,1119,1140,1160,1180,1200,1221,1240,1260,1280,1299,1320,1340,1359,1381],"xSR":741.5,"ySR":481,"xT1":424.9,"yT1":0,"xT2":1058.1,"yT2":0,"toosoon":0,"cond_shown":"Congruent","ratio_trial":200,"L_num":3,"L_den":10,"R_num":7,"R_den":14,"correct_side":2,"subjID":"SimonEstebanTorresLeon23","gender":"0","school":"cafam","age":"10"},{"start_time":1551887104327,"click_time":1551887105196,"finger_time":1551887104997,"fix_duration":250,"trial":22,"RT":670,"MT":199,"sideResp":1,"stimulus":[],"xmouse":[792,792,792,792,792,792,792,792,792,792,792,792,792,792,792,792,792,792,792,792,792,792,792,792,792,792,792,792,792,792,788,782,752,705,674,634,603,548,531,518,508,498,480,466],"ymouse":[547,547,547,547,547,547,547,547,547,547,547,547,547,547,547,547,547,547,547,547,547,547,547,547,547,547,547,547,547,547,540,530,486,420,376,321,277,198,175,156,143,129,111,98],"timestamp_mouse":[10,29,49,68,90,109,128,149,169,189,210,228,248,269,288,309,329,348,368,388,409,428,449,469,489,509,529,549,570,588,608,629,648,669,689,709,730,749,769,788,810,828,848,869],"xSR":741.5,"ySR":481,"xT1":424.9,"yT1":0,"xT2":1058.1,"yT2":0,"toosoon":0,"cond_shown":"Congruent","ratio_trial":200,"L_num":11,"L_den":22,"R_num":3,"R_den":10,"correct_side":1,"subjID":"SimonEstebanTorresLeon23","gender":"0","school":"cafam","age":"10"},{"start_time":1551887107786,"click_time":1551887108975,"finger_time":1551887108617,"fix_duration":1488.9359933826142,"trial":23,"RT":831,"MT":358,"sideResp":2,"stimulus":[],"xmouse":[786,786,786,786,786,786,786,786,786,786,786,786,786,786,786,786,786,786,786,786,786,786,786,786,786,786,786,786,786,786,786,786,786,786,786,786,786,786,789,806,827,842,860,890,993,1065,1123,1165,1165,1165,1165,1165,1165,1165,1165,1165,1165,1165,1165,1081],"ymouse":[513,513,513,513,513,513,513,513,513,513,513,513,513,513,513,513,513,513,513,513,513,513,513,513,513,513,513,513,513,513,513,513,513,513,513,513,513,513,513,503,488,478,462,437,321,233,139,28,28,28,28,28,28,28,28,28,28,28,28,7],"timestamp_mouse":[10,36,49,70,89,111,131,149,170,190,210,231,251,269,290,309,331,349,370,390,410,429,450,470,491,511,529,550,570,589,611,631,649,671,690,709,729,750,770,789,811,831,850,871,890,910,930,950,970,991,1010,1030,1050,1070,1089,1109,1130,1151,1170,1189],"xSR":741.5,"ySR":481,"xT1":424.9,"yT1":0,"xT2":1058.1,"yT2":0,"toosoon":0,"cond_shown":"Congruent","ratio_trial":100,"L_num":2,"L_den":5,"R_num":11,"R_den":22,"correct_side":2,"subjID":"SimonEstebanTorresLeon23","gender":"0","school":"cafam","age":"10"},{"start_time":1551887110582,"click_time":1551887112176,"finger_time":1551887111735,"fix_duration":705.1632307297174,"trial":24,"RT":1153,"MT":441,"sideResp":2,"stimulus":[],"xmouse":[791,791,791,791,791,791,791,791,791,791,791,791,791,791,791,791,791,791,791,791,791,791,791,791,791,791,791,791,791,791,791,791,791,791,791,791,791,791,791,791,791,791,791,791,791,791,791,791,791,791,791,791,791,795,807,821,836,854,872,917,927,936,943,951,961,964,968,971,974,981,985,990,996,1004,1018,1026,1037,1050,1061,1086],"ymouse":[560,560,560,560,560,560,560,560,560,560,560,560,560,560,560,560,560,560,560,560,560,560,560,560,560,560,560,560,560,560,560,560,560,560,560,560,560,560,560,560,560,560,560,560,560,560,560,560,560,560,560,560,560,553,540,524,505,480,448,362,340,319,301,286,261,247,234,223,213,193,185,178,170,161,148,139,129,118,107,70],"timestamp_mouse":[13,41,54,74,94,113,134,153,174,194,214,234,254,274,294,315,335,353,373,394,413,434,453,474,493,513,534,554,575,594,613,635,653,674,693,714,734,755,773,794,814,834,853,874,893,914,934,954,974,993,1013,1035,1054,1073,1093,1114,1133,1153,1173,1194,1213,1234,1255,1275,1293,1314,1334,1354,1373,1394,1414,1434,1455,1474,1494,1515,1533,1553,1575,1593],"xSR":741.5,"ySR":481,"xT1":424.9,"yT1":0,"xT2":1058.1,"yT2":0,"toosoon":0,"cond_shown":"Congruent","ratio_trial":300,"L_num":1,"L_den":5,"R_num":3,"R_den":6,"correct_side":2,"subjID":"SimonEstebanTorresLeon23","gender":"0","school":"cafam","age":"10"},{"start_time":1551887115876,"click_time":1551887149956,"finger_time":1551887148176,"fix_duration":758.5587551733943,"trial":25,"RT":32300,"MT":1780,"sideResp":2,"stimulus":[],"xmouse":[781,781,781,781,781,781,781,781,781,781,781,781,781,781,781,781,781,781,781,781,781,781,781,781,781,781,781,781,781,781,781,781,781,781,781,781,781,781,781,781,781,781,781,781,781,781,781,781,781,781,781,781,781,781,781,781,781,781,781,781,781,781,781,781,781,781,781,781,781,781,781,781,781,781,781,781,781,781,781,781,781,781,781,781,781,781,781,781,781,781,781,781,781,781,781,781,781,781,781,781,781,781,781,781,781,781,781,781,781,781,781,781,781,781,781,781,781,781,781,781,781,781,781,781,781,781,781,781,781,781,781,781,781,781,781,781,781,781,781,781,781,781,781,781,781,781,781,781,781,781,781,781,781,781,781,781,781,781,781,781,781,781,781,781,781,781,781,781,781,781,781,781,781,781,781,781,781,781,781,781,781,781,781,781,781,781,781,781,781,781,781,781,781,781,781,781,781,781,781,781,781,781,781,781,781,781,781,781,781,781,781,781,781,781,781,781,781,781,781,781,781,781,781,781,781,781,781,781,781,781,781,781,781,781,781,781,781,781,781,781,781,781,781,781,781,781,781,781,781,781,781,781,781,781,781,781,781,781,781,781,781,781,781,781,781,781,781,781,781,781,781,781,781,781,781,781,781,781,781,781,781,781,781,781,781,781,781,781,781,781,781,781,781,781,781,781,781,781,781,781,781,781,781,781,781,781,781,781,781,781,781,781,781,781,781,781,781,781,781,781,781,781,781,781,781,781,781,781,781,781,781,781,781,781,781,781,781,781,781,781,781,781,781,781,781,781,781,781,781,781,781,781,781,781,781,781,781,781,781,781,781,781,781,781,781,781,781,781,781,781,781,781,781,781,781,781,781,781,781,781,781,781,781,781,781,781,781,781,781,781,781,781,781,781,781,781,781,781,781,781,781,781,781,781,781,781,781,781,781,781,781,781,781,781,781,781,781,781,781,781,781,781,781,781,781,781,781,781,781,781,781,781,781,781,781,781,781,781,781,781,781,781,781,781,781,781,781,781,781,781,781,781,781,781,781,781,781,781,781,781,781,781,781,781,781,781,781,781,781,781,781,781,781,781,781,781,781,781,781,781,781,781,781,781,781,781,781,781,781,781,781,781,781,781,781,781,781,781,781,781,781,781,781,781,781,781,781,781,781,781,781,781,781,781,781,781,781,781,781,781,781,781,781,781,781,781,781,781,781,781,781,781,781,781,781,781,781,781,781,781,781,781,781,781,781,781,781,781,781,781,781,781,781,781,781,781,781,781,781,781,781,781,781,781,781,781,781,781,781,781,781,781,781,781,781,781,781,781,781,781,781,781,781,781,781,781,781,781,781,781,781,781,781,781,781,781,781,781,781,781,781,781,781,781,781,781,781,781,781,781,781,781,781,781,781,781,781,781,781,781,781,781,781,781,781,781,781,781,781,781,781,781,781,781,781,781,781,781,781,781,781,781,781,781,781,781,781,781,781,781,781,781,781,781,781,781,781,781,781,781,781,781,781,781,781,781,781,781,781,781,781,781,781,781,781,781,781,781,781,781,781,781,781,781,781,781,781,781,781,781,781,781,781,781,781,781,781,781,781,781,781,781,781,781,781,781,781,781,781,781,781,781,781,781,781,781,781,781,781,781,781,781,781,781,781,781,781,781,781,781,781,781,781,781,781,781,781,781,781,781,781,781,781,781,781,781,781,781,781,781,781,781,781,781,781,781,781,781,781,781,781,781,781,781,781,781,781,781,781,781,781,781,781,781,781,781,781,781,781,781,781,781,781,781,781,781,781,781,781,781,781,781,781,781,781,781,781,781,781,781,781,781,781,781,781,781,781,781,781,781,781,781,781,781,781,781,781,781,781,781,781,781,781,781,781,781,781,781,781,781,781,781,781,781,781,781,781,781,781,781,781,781,781,781,781,781,781,781,781,781,781,781,781,781,781,781,781,781,781,781,781,781,781,781,781,781,781,781,781,781,781,781,781,781,781,781,781,781,781,781,781,781,781,781,781,781,781,781,781,781,781,781,781,781,781,781,781,781,781,781,781,781,781,781,781,781,781,781,781,781,781,781,781,781,781,781,781,781,781,781,781,781,781,781,781,781,781,781,781,781,781,781,781,781,781,781,781,781,781,781,781,781,781,781,781,781,781,781,781,781,781,781,781,781,781,781,781,781,781,781,781,781,781,781,781,781,781,781,781,781,781,781,781,781,781,781,781,781,781,781,781,781,781,781,781,781,781,781,781,781,781,781,781,781,781,781,781,781,781,781,781,781,781,781,781,781,781,781,781,781,781,781,781,781,781,781,781,781,781,781,781,781,781,781,781,781,781,781,781,781,781,781,781,781,781,781,781,781,781,781,781,781,781,781,781,781,781,781,781,781,781,781,781,781,781,781,781,781,781,781,781,781,781,781,781,781,781,781,781,781,781,781,781,781,781,781,781,781,781,781,781,781,781,781,781,781,781,781,781,781,781,781,781,781,781,781,781,781,781,781,781,781,781,781,781,781,781,781,781,781,781,781,781,781,781,781,781,781,781,781,781,781,781,781,781,781,781,781,781,781,781,781,781,781,781,781,781,781,781,781,781,781,781,781,781,781,781,781,781,781,781,781,781,781,781,781,781,781,781,781,781,781,781,781,781,781,781,781,781,781,781,781,781,781,781,781,781,781,781,781,781,781,781,781,781,781,781,781,781,781,781,781,781,781,781,781,781,781,781,781,781,781,781,781,781,781,781,781,781,781,781,781,781,781,781,781,781,781,781,781,781,781,781,781,781,781,781,781,781,781,781,781,781,781,781,781,781,781,781,781,781,781,781,781,781,781,781,781,781,781,781,781,781,781,781,781,781,781,781,781,781,781,781,781,781,781,781,781,781,781,781,781,781,781,781,781,781,781,781,781,781,781,781,781,781,781,781,781,781,781,781,781,781,781,781,781,781,781,781,781,781,781,781,781,781,781,781,781,781,781,781,781,781,781,781,781,781,781,781,781,781,781,781,781,781,781,781,781,781,781,781,781,781,781,781,781,781,781,781,781,781,781,781,781,781,781,781,781,781,781,781,781,781,781,781,781,781,781,781,781,781,781,781,781,781,781,781,781,781,781,781,781,781,781,781,781,781,781,781,781,781,781,781,781,781,781,781,781,781,781,781,781,781,781,781,781,781,781,781,781,781,781,781,781,781,781,781,781,781,781,781,781,781,781,781,781,781,781,781,781,781,781,781,781,781,781,781,781,781,781,781,781,781,781,781,781,781,781,781,781,781,781,781,781,781,781,781,781,781,781,781,781,781,781,781,781,781,781,781,781,781,781,781,781,781,781,781,781,781,781,781,781,781,781,781,781,781,781,781,781,781,781,781,781,781,781,781,781,781,781,781,781,781,781,781,781,781,781,781,781,781,781,781,781,781,781,781,781,781,781,781,781,781,781,781,781,781,781,781,781,781,781,781,781,781,781,781,781,781,781,781,781,781,781,781,781,781,781,781,781,781,781,781,781,781,781,781,781,781,781,781,781,781,781,781,781,781,781,781,781,781,781,781,781,781,781,781,781,781,781,781,781,781,781,781,781,781,781,781,781,781,781,781,781,781,781,781,781,781,781,781,781,781,781,781,781,781,781,781,781,781,781,781,781,781,781,781,781,781,781,781,781,781,781,782,797,811,822,826,827,827,827,827,827,826,824,824,824,824,824,816,812,810,809,809,809,809,809,809,809,809,809,809,809,809,809,809,809,809,809,809,809,809,808,808,805,803,800,796,792,785,780,780,779,779,779,781,833,885,931,970,970,970,967,936,843,836,836,836,836,836,836,836,836,836,849,869,885,905,932,976,996,996,996,996,996,996,996,996,996,996,996,996,996,1107],"ymouse":[520,520,520,520,520,520,520,520,520,520,520,520,520,520,520,520,520,520,520,520,520,520,520,520,520,520,520,520,520,520,520,520,520,520,520,520,520,520,520,520,520,520,520,520,520,520,520,520,520,520,520,520,520,520,520,520,520,520,520,520,520,520,520,520,520,520,520,520,520,520,520,520,520,520,520,520,520,520,520,520,520,520,520,520,520,520,520,520,520,520,520,520,520,520,520,520,520,520,520,520,520,520,520,520,520,520,520,520,520,520,520,520,520,520,520,520,520,520,520,520,520,520,520,520,520,520,520,520,520,520,520,520,520,520,520,520,520,520,520,520,520,520,520,520,520,520,520,520,520,520,520,520,520,520,520,520,520,520,520,520,520,520,520,520,520,520,520,520,520,520,520,520,520,520,520,520,520,520,520,520,520,520,520,520,520,520,520,520,520,520,520,520,520,520,520,520,520,520,520,520,520,520,520,520,520,520,520,520,520,520,520,520,520,520,520,520,520,520,520,520,520,520,520,520,520,520,520,520,520,520,520,520,520,520,520,520,520,520,520,520,520,520,520,520,520,520,520,520,520,520,520,520,520,520,520,520,520,520,520,520,520,520,520,520,520,520,520,520,520,520,520,520,520,520,520,520,520,520,520,520,520,520,520,520,520,520,520,520,520,520,520,520,520,520,520,520,520,520,520,520,520,520,520,520,520,520,520,520,520,520,520,520,520,520,520,520,520,520,520,520,520,520,520,520,520,520,520,520,520,520,520,520,520,520,520,520,520,520,520,520,520,520,520,520,520,520,520,520,520,520,520,520,520,520,520,520,520,520,520,520,520,520,520,520,520,520,520,520,520,520,520,520,520,520,520,520,520,520,520,520,520,520,520,520,520,520,520,520,520,520,520,520,520,520,520,520,520,520,520,520,520,520,520,520,520,520,520,520,520,520,520,520,520,520,520,520,520,520,520,520,520,520,520,520,520,520,520,520,520,520,520,520,520,520,520,520,520,520,520,520,520,520,520,520,520,520,520,520,520,520,520,520,520,520,520,520,520,520,520,520,520,520,520,520,520,520,520,520,520,520,520,520,520,520,520,520,520,520,520,520,520,520,520,520,520,520,520,520,520,520,520,520,520,520,520,520,520,520,520,520,520,520,520,520,520,520,520,520,520,520,520,520,520,520,520,520,520,520,520,520,520,520,520,520,520,520,520,520,520,520,520,520,520,520,520,520,520,520,520,520,520,520,520,520,520,520,520,520,520,520,520,520,520,520,520,520,520,520,520,520,520,520,520,520,520,520,520,520,520,520,520,520,520,520,520,520,520,520,520,520,520,520,520,520,520,520,520,520,520,520,520,520,520,520,520,520,520,520,520,520,520,520,520,520,520,520,520,520,520,520,520,520,520,520,520,520,520,520,520,520,520,520,520,520,520,520,520,520,520,520,520,520,520,520,520,520,520,520,520,520,520,520,520,520,520,520,520,520,520,520,520,520,520,520,520,520,520,520,520,520,520,520,520,520,520,520,520,520,520,520,520,520,520,520,520,520,520,520,520,520,520,520,520,520,520,520,520,520,520,520,520,520,520,520,520,520,520,520,520,520,520,520,520,520,520,520,520,520,520,520,520,520,520,520,520,520,520,520,520,520,520,520,520,520,520,520,520,520,520,520,520,520,520,520,520,520,520,520,520,520,520,520,520,520,520,520,520,520,520,520,520,520,520,520,520,520,520,520,520,520,520,520,520,520,520,520,520,520,520,520,520,520,520,520,520,520,520,520,520,520,520,520,520,520,520,520,520,520,520,520,520,520,520,520,520,520,520,520,520,520,520,520,520,520,520,520,520,520,520,520,520,520,520,520,520,520,520,520,520,520,520,520,520,520,520,520,520,520,520,520,520,520,520,520,520,520,520,520,520,520,520,520,520,520,520,520,520,520,520,520,520,520,520,520,520,520,520,520,520,520,520,520,520,520,520,520,520,520,520,520,520,520,520,520,520,520,520,520,520,520,520,520,520,520,520,520,520,520,520,520,520,520,520,520,520,520,520,520,520,520,520,520,520,520,520,520,520,520,520,520,520,520,520,520,520,520,520,520,520,520,520,520,520,520,520,520,520,520,520,520,520,520,520,520,520,520,520,520,520,520,520,520,520,520,520,520,520,520,520,520,520,520,520,520,520,520,520,520,520,520,520,520,520,520,520,520,520,520,520,520,520,520,520,520,520,520,520,520,520,520,520,520,520,520,520,520,520,520,520,520,520,520,520,520,520,520,520,520,520,520,520,520,520,520,520,520,520,520,520,520,520,520,520,520,520,520,520,520,520,520,520,520,520,520,520,520,520,520,520,520,520,520,520,520,520,520,520,520,520,520,520,520,520,520,520,520,520,520,520,520,520,520,520,520,520,520,520,520,520,520,520,520,520,520,520,520,520,520,520,520,520,520,520,520,520,520,520,520,520,520,520,520,520,520,520,520,520,520,520,520,520,520,520,520,520,520,520,520,520,520,520,520,520,520,520,520,520,520,520,520,520,520,520,520,520,520,520,520,520,520,520,520,520,520,520,520,520,520,520,520,520,520,520,520,520,520,520,520,520,520,520,520,520,520,520,520,520,520,520,520,520,520,520,520,520,520,520,520,520,520,520,520,520,520,520,520,520,520,520,520,520,520,520,520,520,520,520,520,520,520,520,520,520,520,520,520,520,520,520,520,520,520,520,520,520,520,520,520,520,520,520,520,520,520,520,520,520,520,520,520,520,520,520,520,520,520,520,520,520,520,520,520,520,520,520,520,520,520,520,520,520,520,520,520,520,520,520,520,520,520,520,520,520,520,520,520,520,520,520,520,520,520,520,520,520,520,520,520,520,520,520,520,520,520,520,520,520,520,520,520,520,520,520,520,520,520,520,520,520,520,520,520,520,520,520,520,520,520,520,520,520,520,520,520,520,520,520,520,520,520,520,520,520,520,520,520,520,520,520,520,520,520,520,520,520,520,520,520,520,520,520,520,520,520,520,520,520,520,520,520,520,520,520,520,520,520,520,520,520,520,520,520,520,520,520,520,520,520,520,520,520,520,520,520,520,520,520,520,520,520,520,520,520,520,520,520,520,520,520,520,520,520,520,520,520,520,520,520,520,520,520,520,520,520,520,520,520,520,520,520,520,520,520,520,520,520,520,520,520,520,520,520,520,520,520,520,520,520,520,520,520,520,520,520,520,520,520,520,520,520,520,520,520,520,520,520,520,520,520,520,520,520,520,520,520,520,520,520,520,520,520,520,520,520,520,520,520,520,520,520,520,520,520,520,520,520,520,520,520,520,520,520,520,520,520,520,520,520,520,520,520,520,520,520,520,520,520,520,520,520,520,520,520,520,520,520,520,520,520,520,520,520,520,520,520,520,520,520,520,520,520,520,520,520,520,520,520,520,520,520,520,520,520,520,520,520,520,520,520,520,520,520,520,520,520,520,520,520,520,520,520,520,520,520,520,520,520,520,520,520,520,520,520,520,520,520,520,520,520,520,520,520,520,520,520,520,520,520,520,520,520,520,520,520,520,520,520,520,520,520,520,520,520,520,520,520,520,520,520,520,520,520,520,520,520,520,520,520,520,520,520,520,520,520,520,520,520,520,520,520,520,520,520,520,520,520,520,520,520,520,520,520,520,520,520,466,434,408,390,378,368,368,368,368,372,412,442,462,481,500,534,544,549,552,552,552,552,552,552,552,552,552,552,552,552,552,552,552,552,552,552,552,552,552,552,547,544,541,535,532,528,526,525,525,525,521,514,450,402,363,330,329,329,329,350,405,410,410,410,410,410,410,410,410,409,379,330,276,203,131,37,5,5,5,5,5,5,5,5,5,5,5,5,5,3],"timestamp_mouse":[8,21,45,60,80,99,120,141,159,179,200,221,239,260,280,300,320,341,360,380,401,419,440,461,479,499,521,541,560,579,600,620,640,660,679,699,720,739,760,780,799,819,841,859,879,900,919,940,961,980,999,1019,1040,1059,1080,1099,1121,1139,1160,1180,1199,1220,1241,1261,1280,1300,1321,1340,1360,1380,1400,1421,1439,1459,1481,1500,1519,1539,1560,1579,1601,1619,1639,1660,1681,1699,1720,1740,1759,1780,1800,1820,1840,1859,1881,1900,1919,1941,1959,1980,2001,2019,2039,2061,2079,2099,2120,2139,2159,2179,2200,2219,2239,2260,2280,2299,2320,2340,2361,2380,2399,2419,2439,2461,2479,2500,2519,2541,2560,2580,2600,2619,2641,2661,2681,2701,2721,2740,2760,2781,2800,2819,2840,2860,2881,2900,2921,2941,2960,2981,2999,3021,3040,3060,3081,3099,3120,3140,3159,3179,3201,3219,3240,3261,3280,3299,3321,3340,3359,3381,3400,3420,3441,3460,3479,3500,3521,3541,3559,3581,3600,3620,3641,3660,3679,3700,3720,3741,3761,3780,3800,3821,3840,3860,3881,3899,3920,3941,3959,3980,4000,4021,4039,4060,4080,4101,4120,4140,4161,4181,4201,4220,4240,4259,4281,4300,4321,4339,4360,4380,4400,4421,4440,4460,4479,4501,4519,4539,4560,4581,4600,4620,4639,4661,4679,4700,4721,4740,4760,4780,4800,4821,4840,4861,4880,4900,4919,4940,4960,4979,5000,5020,5040,5060,5081,5100,5119,5141,5160,5179,5200,5220,5241,5261,5279,5299,5320,5340,5361,5379,5399,5421,5439,5460,5480,5499,5520,5540,5560,5579,5600,5619,5640,5661,5680,5700,5719,5741,5761,5780,5800,5819,5841,5860,5879,5899,5921,5939,5959,5980,5999,6020,6041,6059,6079,6100,6119,6141,6159,6180,6200,6220,6239,6260,6280,6300,6320,6341,6361,6380,6400,6420,6441,6461,6479,6499,6521,6541,6560,6579,6599,6621,6641,6661,6680,6699,6721,6740,6761,6780,6800,6821,6840,6861,6879,6900,6920,6939,6960,6979,7000,7020,7041,7059,7080,7100,7120,7139,7161,7180,7199,7221,7240,7261,7279,7299,7321,7341,7359,7380,7400,7421,7440,7460,7479,7500,7520,7539,7560,7579,7600,7620,7641,7659,7681,7700,7720,7740,7761,7781,7799,7819,7841,7861,7880,7900,7921,7939,7961,7980,7999,8020,8039,8061,8081,8099,8120,8141,8159,8179,8200,8221,8240,8261,8280,8300,8321,8339,8361,8380,8399,8420,8440,8461,8480,8499,8521,8539,8560,8581,8599,8620,8641,8661,8681,8699,8721,8741,8761,8780,8800,8821,8840,8859,8880,8900,8920,8939,8960,8981,8999,9021,9039,9059,9080,9099,9120,9139,9159,9181,9199,9221,9241,9261,9281,9300,9320,9340,9359,9380,9400,9420,9440,9460,9480,9501,9519,9541,9560,9581,9599,9620,9641,9660,9681,9699,9720,9741,9759,9780,9800,9821,9841,9859,9880,9900,9921,9941,9960,9980,10000,10021,10040,10059,10080,10100,10120,10141,10161,10180,10200,10220,10240,10260,10281,10300,10319,10340,10361,10381,10400,10419,10440,10461,10479,10499,10521,10541,10560,10580,10600,10621,10639,10660,10680,10699,10719,10740,10759,10779,10799,10819,10841,10859,10880,10899,10920,10940,10959,10980,11000,11021,11040,11061,11080,11100,11119,11140,11161,11180,11199,11220,11240,11261,11279,11299,11320,11339,11360,11379,11400,11421,11439,11461,11479,11499,11519,11541,11561,11580,11600,11620,11640,11660,11681,11699,11720,11741,11760,11780,11799,11820,11840,11860,11880,11900,11920,11939,11961,11981,11999,12019,12041,12060,12080,12100,12119,12139,12161,12180,12199,12221,12241,12260,12279,12299,12321,12341,12360,12380,12399,12421,12441,12461,12480,12499,12519,12541,12560,12579,12600,12619,12639,12660,12680,12699,12721,12741,12761,12780,12799,12820,12841,12861,12879,12899,12920,12941,12960,12981,13000,13019,13039,13060,13080,13100,13119,13141,13159,13180,13199,13220,13241,13261,13281,13300,13321,13339,13361,13380,13400,13419,13440,13460,13481,13500,13520,13539,13559,13580,13601,13621,13641,13659,13680,13700,13721,13741,13759,13780,13799,13819,13840,13861,13880,13899,13919,13941,13961,13979,14000,14021,14040,14060,14081,14100,14121,14140,14159,14179,14200,14221,14241,14259,14280,14300,14320,14339,14360,14380,14399,14419,14440,14461,14481,14500,14520,14540,14561,14580,14600,14619,14641,14659,14679,14700,14720,14741,14761,14780,14799,14821,14839,14860,14880,14899,14920,14941,14960,14979,15000,15020,15041,15059,15081,15100,15120,15139,15159,15180,15199,15220,15239,15261,15280,15299,15321,15339,15359,15381,15399,15421,15439,15459,15479,15499,15521,15539,15559,15580,15599,15619,15641,15660,15681,15700,15721,15739,15761,15780,15799,15821,15840,15861,15879,15899,15921,15941,15960,15980,16000,16020,16039,16061,16081,16099,16121,16141,16161,16180,16200,16219,16239,16261,16280,16300,16321,16339,16359,16381,16400,16420,16441,16459,16480,16499,16521,16539,16561,16580,16599,16621,16640,16659,16679,16701,16720,16741,16759,16780,16800,16819,16840,16861,16880,16899,16921,16940,16959,16980,16999,17021,17041,17059,17079,17099,17120,17141,17161,17180,17199,17219,17240,17259,17281,17300,17319,17340,17359,17379,17399,17420,17441,17460,17479,17499,17521,17539,17561,17580,17600,17620,17641,17659,17680,17699,17720,17739,17761,17779,17800,17819,17840,17861,17880,17900,17919,17940,17959,17980,18000,18021,18041,18060,18080,18100,18121,18139,18159,18180,18199,18220,18241,18259,18280,18301,18320,18340,18359,18381,18399,18420,18440,18459,18480,18501,18519,18541,18559,18581,18599,18621,18641,18660,18680,18699,18720,18739,18761,18779,18800,18820,18839,18861,18879,18901,18920,18939,18959,18980,18999,19021,19041,19059,19079,19100,19121,19140,19160,19180,19200,19220,19241,19260,19280,19300,19321,19341,19359,19381,19401,19419,19440,19460,19481,19500,19520,19539,19560,19580,19599,19621,19641,19660,19681,19700,19719,19740,19759,19781,19801,19819,19840,19860,19880,19899,19921,19940,19960,19980,20000,20019,20039,20060,20081,20099,20119,20139,20160,20180,20199,20219,20240,20261,20280,20300,20319,20340,20360,20380,20400,20419,20439,20461,20480,20500,20520,20541,20559,20580,20601,20619,20641,20661,20679,20700,20719,20739,20760,20781,20800,20820,20840,20860,20881,20900,20920,20941,20961,20980,21000,21020,21040,21059,21080,21100,21119,21141,21160,21180,21200,21219,21239,21261,21280,21300,21319,21341,21361,21380,21400,21419,21441,21459,21480,21499,21520,21541,21560,21580,21600,21620,21640,21659,21680,21700,21721,21739,21760,21781,21800,21820,21839,21861,21880,21900,21920,21940,21960,21979,22001,22020,22039,22060,22081,22099,22120,22140,22161,22179,22200,22221,22241,22261,22279,22299,22319,22339,22359,22379,22399,22420,22439,22459,22481,22501,22520,22541,22561,22581,22601,22620,22639,22659,22679,22699,22719,22741,22760,22780,22801,22820,22841,22860,22880,22900,22920,22940,22960,22981,22999,23021,23041,23060,23079,23101,23120,23140,23160,23180,23201,23221,23240,23260,23280,23300,23320,23341,23361,23380,23400,23420,23440,23460,23479,23501,23520,23539,23561,23581,23599,23621,23641,23660,23680,23701,23721,23741,23759,23779,23800,23819,23840,23859,23881,23900,23920,23940,23960,23980,23999,24021,24039,24059,24080,24100,24119,24141,24159,24180,24200,24219,24240,24261,24280,24299,24321,24340,24359,24380,24399,24420,24440,24459,24481,24499,24521,24541,24560,24580,24599,24620,24641,24660,24679,24700,24720,24740,24761,24780,24800,24821,24841,24859,24881,24901,24921,24939,24960,24980,25000,25019,25039,25060,25081,25101,25121,25139,25159,25181,25200,25219,25241,25261,25280,25300,25319,25340,25359,25381,25400,25421,25439,25460,25479,25500,25520,25541,25560,25581,25599,25620,25641,25659,25680,25700,25719,25740,25760,25779,25799,25821,25841,25861,25880,25899,25921,25941,25960,25980,26000,26020,26041,26059,26080,26100,26120,26141,26161,26181,26199,26220,26240,26261,26281,26300,26320,26341,26360,26380,26400,26419,26441,26461,26481,26500,26520,26541,26560,26580,26599,26619,26639,26660,26679,26699,26720,26740,26761,26781,26799,26821,26841,26861,26879,26899,26921,26940,26959,26979,27001,27019,27040,27061,27079,27100,27120,27140,27161,27180,27199,27219,27240,27261,27280,27300,27320,27341,27361,27381,27400,27420,27440,27460,27479,27500,27520,27539,27560,27580,27600,27621,27641,27659,27681,27700,27719,27741,27761,27779,27800,27821,27841,27861,27880,27899,27921,27939,27959,27980,28000,28021,28041,28059,28080,28100,28119,28140,28161,28181,28200,28221,28240,28260,28280,28300,28320,28340,28361,28380,28400,28419,28440,28459,28481,28501,28519,28541,28561,28581,28599,28620,28640,28659,28680,28700,28721,28740,28760,28780,28800,28819,28840,28861,28881,28900,28920,28940,28961,28981,28999,29021,29041,29060,29079,29100,29119,29140,29161,29180,29200,29220,29240,29261,29279,29299,29319,29340,29360,29379,29399,29421,29441,29461,29479,29499,29520,29541,29560,29580,29599,29620,29641,29661,29679,29699,29720,29740,29760,29780,29800,29821,29840,29859,29880,29900,29919,29941,29961,29980,29999,30019,30040,30061,30079,30099,30120,30139,30161,30181,30199,30220,30239,30260,30281,30300,30320,30340,30360,30380,30401,30420,30439,30461,30480,30499,30521,30541,30559,30580,30600,30619,30641,30661,30681,30700,30719,30740,30761,30781,30800,30819,30840,30861,30879,30900,30921,30941,30959,30980,31000,31020,31041,31061,31079,31100,31121,31140,31160,31181,31199,31221,31241,31260,31281,31300,31319,31341,31361,31379,31399,31420,31441,31460,31481,31500,31521,31541,31560,31581,31599,31621,31641,31660,31681,31700,31719,31741,31760,31781,31799,31821,31841,31860,31880,31899,31919,31941,31960,31981,32000,32019,32040,32061,32081,32099,32120,32141,32159,32179,32200,32221,32240,32260,32279,32300,32320,32340,32360,32380,32400,32419,32440,32460,32480,32500,32521,32540,32560,32581,32600,32621,32639,32661,32679,32699,32721,32741,32759,32781,32799,32820,32840,32861,32879,32899,32921,32939,32960,32980,32999,33020,33041,33061,33079,33099,33120,33141,33160,33179,33200,33221,33240,33261,33280,33299,33320,33339,33359,33381,33400,33420,33439,33460,33480,33500,33521,33539,33559,33579,33600,33620,33640,33659,33680,33700,33720,33740,33759,33780,33800,33820,33840,33861,33879,33900,33920,33939,33959,33979,34000,34019,34041,34060,34080],"xSR":741.5,"ySR":481,"xT1":424.9,"yT1":0,"xT2":1058.1,"yT2":0,"toosoon":0,"cond_shown":"Incongruent","ratio_trial":100,"L_num":11,"L_den":22,"R_num":9,"R_den":15,"correct_side":2,"subjID":"SimonEstebanTorresLeon23","gender":"0","school":"cafam","age":"10"},{"start_time":1551887152062,"click_time":1551887153377,"finger_time":1551887152955,"fix_duration":1184.8299264234315,"trial":26,"RT":893,"MT":422,"sideResp":1,"stimulus":[],"xmouse":[787,787,787,787,787,787,787,787,787,787,787,787,787,787,787,787,787,787,787,787,787,787,787,787,787,787,787,787,787,787,787,787,787,787,787,787,787,787,787,787,787,781,776,767,754,695,664,637,607,582,552,544,540,538,537,535,535,535,535,535,534,529,517,501,485,462],"ymouse":[516,516,516,516,516,516,516,516,516,516,516,516,516,516,516,516,516,516,516,516,516,516,516,516,516,516,516,516,516,516,516,516,516,516,516,516,516,516,516,516,516,505,497,482,465,408,378,346,306,268,215,192,173,161,152,142,141,141,141,141,137,131,120,112,100,83],"timestamp_mouse":[13,34,61,75,93,114,134,154,174,194,215,235,254,274,293,314,333,355,374,394,414,435,455,473,493,514,534,554,573,594,614,633,655,675,694,714,734,754,774,794,813,833,854,874,893,913,934,954,974,994,1013,1034,1054,1074,1095,1115,1134,1154,1173,1194,1214,1234,1254,1275,1294,1315],"xSR":741.5,"ySR":481,"xT1":424.9,"yT1":0,"xT2":1058.1,"yT2":0,"toosoon":0,"cond_shown":"Incongruent","ratio_trial":100,"L_num":6,"L_den":12,"R_num":3,"R_den":5,"correct_side":2,"subjID":"SimonEstebanTorresLeon23","gender":"0","school":"cafam","age":"10"},{"start_time":1551887155105,"click_time":1551887156935,"finger_time":1551887156596,"fix_duration":888.2059805335158,"trial":27,"RT":1491,"MT":339,"sideResp":2,"stimulus":[],"xmouse":[825,825,825,825,825,825,825,825,825,825,825,825,825,825,825,825,825,825,825,825,825,825,825,825,825,825,825,825,825,825,825,825,825,825,825,825,825,825,825,825,825,825,825,825,825,825,825,825,825,825,825,825,825,825,825,825,825,825,825,825,825,825,825,825,825,825,825,825,825,825,825,825,827,838,853,875,905,941,1040,1089,1122,1142,1159,1189,1204,1208,1211,1211,1196,1177,1159,1144],"ymouse":[537,537,537,537,537,537,537,537,537,537,537,537,537,537,537,537,537,537,537,537,537,537,537,537,537,537,537,537,537,537,537,537,537,537,537,537,537,537,537,537,537,537,537,537,537,537,537,537,537,537,537,537,537,537,537,537,537,537,537,537,537,537,537,537,537,537,537,537,537,537,537,537,529,508,481,451,411,371,285,243,213,194,181,157,141,131,123,117,100,92,85,81],"timestamp_mouse":[10,42,50,72,92,110,132,150,171,192,212,231,251,270,290,311,332,351,370,390,411,430,452,470,492,510,531,551,571,590,611,630,651,670,690,710,731,750,772,791,810,830,852,872,890,910,931,951,971,991,1010,1031,1051,1072,1091,1111,1131,1150,1171,1190,1211,1230,1252,1270,1290,1311,1330,1351,1371,1392,1411,1430,1451,1471,1491,1511,1532,1550,1571,1590,1610,1632,1651,1670,1692,1711,1731,1752,1771,1791,1810,1830],"xSR":741.5,"ySR":481,"xT1":424.9,"yT1":0,"xT2":1058.1,"yT2":0,"toosoon":0,"cond_shown":"Incongruent","ratio_trial":200,"L_num":4,"L_den":5,"R_num":6,"R_den":10,"correct_side":1,"subjID":"SimonEstebanTorresLeon23","gender":"0","school":"cafam","age":"10"},{"start_time":1551887159108,"click_time":1551887160636,"finger_time":1551887160376,"fix_duration":990.0509044589762,"trial":28,"RT":1268,"MT":260,"sideResp":2,"stimulus":[],"xmouse":[825,825,825,825,825,825,825,825,825,825,825,825,825,825,825,825,825,825,825,825,825,825,825,825,825,825,825,825,825,825,825,825,825,825,825,825,825,825,825,825,825,825,825,825,825,825,825,825,825,825,825,825,825,825,825,825,825,825,825,825,825,825,827,845,862,884,913,945,990,1004,1013,1021,1027,1043,1051,1060,1072],"ymouse":[496,496,496,496,496,496,496,496,496,496,496,496,496,496,496,496,496,496,496,496,496,496,496,496,496,496,496,496,496,496,496,496,496,496,496,496,496,496,496,496,496,496,496,496,496,496,496,496,496,496,496,496,496,496,496,496,496,496,496,496,496,496,492,469,454,434,396,350,273,249,229,211,196,157,139,120,99],"timestamp_mouse":[8,45,47,67,88,109,127,147,168,187,208,227,247,267,289,309,328,348,367,388,409,429,447,469,488,507,528,548,567,588,608,627,648,668,688,707,727,748,768,789,809,827,849,867,888,909,929,947,968,987,1009,1029,1047,1067,1087,1109,1128,1148,1167,1188,1208,1228,1249,1268,1287,1307,1328,1349,1368,1389,1408,1428,1448,1467,1487,1507,1528],"xSR":741.5,"ySR":481,"xT1":424.9,"yT1":0,"xT2":1058.1,"yT2":0,"toosoon":0,"cond_shown":"Congruent","ratio_trial":100,"L_num":6,"L_den":20,"R_num":5,"R_den":25,"correct_side":1,"subjID":"SimonEstebanTorresLeon23","gender":"0","school":"cafam","age":"10"},{"start_time":1551887161767,"click_time":1551887163657,"finger_time":1551887163195,"fix_duration":250,"trial":29,"RT":1428,"MT":462,"sideResp":1,"stimulus":[],"xmouse":[774,774,774,774,774,774,774,774,774,774,774,774,774,774,774,774,774,774,774,774,774,774,774,774,774,774,774,774,774,774,774,774,774,774,774,774,774,774,774,774,774,774,774,774,774,774,774,774,774,774,774,774,774,774,774,774,774,774,774,774,774,774,774,774,774,774,774,774,773,775,786,795,797,797,797,797,797,797,797,792,764,727,700,674,652,616,600,586,573,565,542,533,520,509,496],"ymouse":[518,518,518,518,518,518,518,518,518,518,518,518,518,518,518,518,518,518,518,518,518,518,518,518,518,518,518,518,518,518,518,518,518,518,518,518,518,518,518,518,518,518,518,518,518,518,518,518,518,518,518,518,518,518,518,518,518,518,518,518,518,518,518,518,518,518,518,518,518,513,490,476,473,471,471,471,471,471,471,472,483,489,491,489,479,445,413,371,330,288,203,171,127,102,78],"timestamp_mouse":[8,37,49,69,88,108,130,148,168,188,209,229,248,268,288,308,329,349,369,390,410,430,449,468,490,508,529,549,570,589,608,630,650,669,689,709,729,750,768,789,809,828,850,870,888,908,928,949,969,989,1009,1030,1049,1068,1088,1109,1130,1148,1168,1189,1208,1229,1248,1270,1290,1310,1329,1348,1370,1390,1409,1428,1449,1470,1488,1508,1528,1548,1570,1589,1609,1629,1649,1669,1688,1708,1729,1750,1769,1789,1809,1828,1849,1869,1890],"xSR":741.5,"ySR":481,"xT1":424.9,"yT1":0,"xT2":1058.1,"yT2":0,"toosoon":0,"cond_shown":"Incongruent","ratio_trial":200,"L_num":6,"L_den":20,"R_num":3,"R_den":6,"correct_side":2,"subjID":"SimonEstebanTorresLeon23","gender":"0","school":"cafam","age":"10"},{"start_time":1551887167458,"click_time":1551887169016,"finger_time":1551887168916,"fix_duration":1059.366349738594,"trial":30,"RT":1458,"MT":100,"sideResp":2,"stimulus":[],"xmouse":[778,778,778,778,778,778,778,778,778,778,778,778,778,778,778,778,778,778,778,778,778,778,778,778,778,778,778,778,778,778,778,778,778,778,778,778,778,778,778,778,778,778,778,778,778,778,778,778,778,778,778,778,778,778,778,778,778,778,778,778,778,778,778,778,778,778,778,778,778,778,777,788,812,869,937,1036,1072,1110],"ymouse":[531,531,531,531,531,531,531,531,531,531,531,531,531,531,531,531,531,531,531,531,531,531,531,531,531,531,531,531,531,531,531,531,531,531,531,531,531,531,531,531,531,531,531,531,531,531,531,531,531,531,531,531,531,531,531,531,531,531,531,531,531,531,531,531,531,531,531,531,531,531,525,500,458,357,267,146,103,55],"timestamp_mouse":[19,39,58,77,97,117,137,158,177,199,217,237,259,277,299,319,338,358,379,398,418,438,458,477,499,517,538,559,578,597,618,639,658,677,698,718,738,759,777,799,818,839,859,877,898,919,938,957,977,999,1018,1037,1058,1077,1097,1119,1137,1158,1178,1198,1219,1238,1258,1277,1298,1317,1339,1357,1379,1398,1418,1439,1458,1477,1499,1518,1538,1558],"xSR":741.5,"ySR":481,"xT1":424.9,"yT1":0,"xT2":1058.1,"yT2":0,"toosoon":0,"cond_shown":"Incongruent","ratio_trial":100,"L_num":10,"L_den":25,"R_num":8,"R_den":16,"correct_side":2,"subjID":"SimonEstebanTorresLeon23","gender":"0","school":"cafam","age":"10"},{"start_time":1551887171226,"click_time":1551887173676,"finger_time":1551887172876,"fix_duration":1268.933196884265,"trial":31,"RT":1650,"MT":800,"sideResp":1,"stimulus":[],"xmouse":[776,776,776,776,776,776,776,776,776,776,776,776,776,776,776,776,776,776,776,776,776,776,776,776,776,776,776,776,776,776,776,776,776,776,776,776,776,776,776,776,776,776,776,776,776,776,776,776,776,776,776,776,776,776,776,776,776,776,776,776,776,776,776,776,776,776,776,776,776,776,776,776,776,776,776,776,776,776,776,776,776,772,749,733,718,708,700,691,691,691,691,689,688,688,698,710,724,747,751,751,751,751,751,752,752,752,752,731,703,688,673,655,607,581,556,536,516,488,481,477,471,467,461],"ymouse":[514,514,514,514,514,514,514,514,514,514,514,514,514,514,514,514,514,514,514,514,514,514,514,514,514,514,514,514,514,514,514,514,514,514,514,514,514,514,514,514,514,514,514,514,514,514,514,514,514,514,514,514,514,514,514,514,514,514,514,514,514,514,514,514,514,514,514,514,514,514,514,514,514,514,514,514,514,514,514,514,514,507,455,431,412,400,389,380,380,380,380,383,444,479,515,537,554,570,572,572,572,572,572,553,543,514,476,399,347,324,305,285,248,230,211,196,180,148,136,127,118,110,99],"timestamp_mouse":[11,32,49,71,91,111,129,150,169,189,211,230,250,270,291,310,330,350,370,389,410,430,450,469,491,509,529,550,569,589,610,629,650,670,691,711,729,750,771,789,810,830,850,870,891,911,931,949,971,990,1010,1031,1049,1069,1091,1109,1130,1151,1169,1191,1209,1230,1250,1269,1290,1311,1330,1350,1370,1390,1409,1430,1450,1471,1491,1509,1531,1550,1571,1591,1610,1629,1649,1671,1690,1709,1731,1750,1770,1790,1809,1830,1851,1871,1890,1910,1930,1950,1970,1990,2011,2029,2049,2070,2090,2110,2130,2150,2169,2189,2210,2230,2250,2270,2290,2311,2329,2350,2371,2390,2410,2431,2450],"xSR":741.5,"ySR":481,"xT1":424.9,"yT1":0,"xT2":1058.1,"yT2":0,"toosoon":0,"cond_shown":"Congruent","ratio_trial":100,"L_num":7,"L_den":14,"R_num":9,"R_den":15,"correct_side":2,"subjID":"SimonEstebanTorresLeon23","gender":"0","school":"cafam","age":"10"},{"start_time":1551887175553,"click_time":1551887176596,"finger_time":1551887176197,"fix_duration":1155.615567273274,"trial":32,"RT":644,"MT":399,"sideResp":1,"stimulus":[],"xmouse":[799,799,799,799,799,799,799,799,799,799,799,799,799,799,799,799,799,799,799,799,799,799,799,799,799,799,799,799,799,799,799,795,768,721,654,578,412,343,289,289,289,289,289,289,289,289,289,289,289,289,289,289,432],"ymouse":[505,505,505,505,505,505,505,505,505,505,505,505,505,505,505,505,505,505,505,505,505,505,505,505,505,505,505,505,505,505,505,494,461,405,336,266,126,59,6,6,6,6,6,6,6,6,6,6,6,6,6,6,21],"timestamp_mouse":[9,35,44,63,83,104,122,143,163,183,203,223,242,263,282,304,322,342,362,383,403,424,444,463,483,503,524,542,564,584,604,623,644,663,683,703,722,743,764,783,804,824,842,863,883,903,924,943,963,983,1003,1023,1043],"xSR":741.5,"ySR":481,"xT1":424.9,"yT1":0,"xT2":1058.1,"yT2":0,"toosoon":0,"cond_shown":"Congruent","ratio_trial":200,"L_num":12,"L_den":15,"R_num":6,"R_den":10,"correct_side":1,"subjID":"SimonEstebanTorresLeon23","gender":"0","school":"cafam","age":"10"},{"start_time":1551887178460,"click_time":1551887181315,"finger_time":1551887180875,"fix_duration":1083.5725031404959,"trial":33,"RT":2415,"MT":440,"sideResp":2,"stimulus":[],"xmouse":[806,806,806,806,806,806,806,806,806,806,806,806,806,806,806,806,806,806,806,806,806,806,806,806,806,806,806,806,806,806,806,806,806,806,806,806,806,806,806,806,806,806,806,806,806,806,806,806,806,806,806,806,806,806,806,806,806,806,806,806,806,806,806,806,806,806,806,806,806,806,806,806,806,806,806,806,806,806,806,806,806,806,806,806,806,806,806,806,806,806,806,806,806,806,806,806,806,806,806,806,806,806,806,806,806,806,806,806,805,805,806,806,806,806,806,806,806,807,808,811,820,824,828,834,841,862,881,895,908,922,939,949,960,971,984,1011,1018,1026,1033,1037,1048,1056,1065],"ymouse":[529,529,529,529,529,529,529,529,529,529,529,529,529,529,529,529,529,529,529,529,529,529,529,529,529,529,529,529,529,529,529,529,529,529,529,529,529,529,529,529,529,529,529,529,529,529,529,529,529,529,529,529,529,529,529,529,529,529,529,529,529,529,529,529,529,529,529,529,529,529,529,529,529,529,529,529,529,529,529,529,529,529,529,529,529,529,529,529,529,529,529,529,529,529,529,529,529,529,529,529,529,529,529,529,529,529,529,529,529,527,523,523,523,523,523,523,523,519,514,502,471,454,440,423,408,366,332,306,284,258,226,209,193,178,164,133,128,122,116,112,104,97,92],"timestamp_mouse":[15,35,56,76,95,115,135,156,176,195,216,235,255,275,295,315,335,356,375,395,415,435,456,474,495,515,535,556,575,595,615,635,655,676,695,715,735,755,775,795,815,836,856,875,896,915,935,955,975,995,1015,1036,1056,1075,1095,1115,1134,1155,1175,1195,1215,1235,1255,1274,1295,1315,1336,1355,1375,1395,1415,1436,1455,1475,1496,1515,1535,1554,1575,1595,1615,1635,1655,1676,1695,1715,1736,1755,1775,1795,1815,1836,1854,1875,1895,1915,1936,1955,1975,1994,2015,2034,2056,2076,2095,2115,2136,2155,2175,2195,2215,2236,2256,2275,2295,2315,2335,2356,2375,2395,2415,2435,2456,2476,2495,2515,2535,2555,2576,2596,2615,2635,2655,2675,2695,2715,2735,2755,2776,2795,2816,2836,2855],"xSR":741.5,"ySR":481,"xT1":424.9,"yT1":0,"xT2":1058.1,"yT2":0,"toosoon":0,"cond_shown":"Incongruent","ratio_trial":100,"L_num":3,"L_den":6,"R_num":4,"R_den":10,"correct_side":1,"subjID":"SimonEstebanTorresLeon23","gender":"0","school":"cafam","age":"10"},{"start_time":1551887182931,"click_time":1551887184335,"finger_time":1551887183835,"fix_duration":655.2543765950848,"trial":34,"RT":904,"MT":500,"sideResp":2,"stimulus":[],"xmouse":[802,802,802,802,802,802,802,802,802,802,802,802,802,802,802,802,802,802,802,802,802,802,802,802,802,802,802,802,802,802,802,802,802,802,802,802,802,802,802,802,802,802,802,806,827,843,858,879,885,892,901,910,928,941,951,962,970,991,998,1004,1011,1020,1035,1045,1050,1057,1063,1071,1073,1076,1079],"ymouse":[525,525,525,525,525,525,525,525,525,525,525,525,525,525,525,525,525,525,525,525,525,525,525,525,525,525,525,525,525,525,525,525,525,525,525,525,525,525,525,525,525,525,523,516,491,474,456,430,420,407,390,374,343,319,302,282,264,229,213,197,184,171,147,134,128,120,114,105,103,100,95],"timestamp_mouse":[9,24,44,64,84,104,124,145,165,185,205,226,244,264,284,303,324,345,364,385,405,424,444,464,485,504,525,544,564,584,605,624,643,665,684,705,724,744,765,785,805,825,844,864,885,904,925,944,965,984,1005,1025,1044,1064,1084,1105,1125,1145,1164,1185,1205,1224,1245,1265,1284,1305,1324,1345,1365,1384,1404],"xSR":741.5,"ySR":481,"xT1":424.9,"yT1":0,"xT2":1058.1,"yT2":0,"toosoon":0,"cond_shown":"Congruent","ratio_trial":300,"L_num":4,"L_den":20,"R_num":13,"R_den":26,"correct_side":2,"subjID":"SimonEstebanTorresLeon23","gender":"0","school":"cafam","age":"10"},{"start_time":1551887185870,"click_time":1551887187636,"finger_time":1551887187335,"fix_duration":593.4900099757477,"trial":35,"RT":1465,"MT":301,"sideResp":2,"stimulus":[],"xmouse":[767,767,767,767,767,767,767,767,767,767,767,767,767,767,767,767,767,767,767,767,767,767,767,767,767,767,767,767,767,767,767,767,767,767,767,767,767,767,767,767,767,767,767,767,767,767,767,767,767,767,767,767,767,767,767,767,767,767,767,767,767,767,767,767,767,767,767,767,769,782,812,824,838,854,877,929,947,959,969,977,986,989,996,1005,1014,1036,1044,1055,1062],"ymouse":[556,556,556,556,556,556,556,556,556,556,556,556,556,556,556,556,556,556,556,556,556,556,556,556,556,556,556,556,556,556,556,556,556,556,556,556,556,556,556,556,556,556,556,556,556,556,556,556,556,556,556,556,556,556,556,556,556,556,556,556,556,556,556,556,556,556,556,556,556,545,517,501,481,459,414,274,241,214,195,181,160,154,141,127,115,91,84,78,74],"timestamp_mouse":[8,25,45,65,84,106,125,145,165,185,206,226,246,265,286,305,325,346,365,385,405,425,445,465,485,505,526,546,565,585,605,625,646,665,685,705,725,745,765,785,805,826,846,866,886,906,926,945,966,986,1005,1025,1045,1065,1085,1105,1124,1146,1166,1185,1206,1225,1245,1266,1285,1305,1326,1346,1365,1385,1405,1425,1446,1465,1486,1505,1524,1545,1566,1586,1605,1626,1646,1666,1686,1705,1725,1745,1766],"xSR":741.5,"ySR":481,"xT1":424.9,"yT1":0,"xT2":1058.1,"yT2":0,"toosoon":0,"cond_shown":"Incongruent","ratio_trial":200,"L_num":7,"L_den":10,"R_num":12,"R_den":24,"correct_side":1,"subjID":"SimonEstebanTorresLeon23","gender":"0","school":"cafam","age":"10"},{"start_time":1551887189734,"click_time":1551887191035,"finger_time":1551887190615,"fix_duration":1197.989662349424,"trial":36,"RT":881,"MT":420,"sideResp":1,"stimulus":[],"xmouse":[768,768,768,768,768,768,768,768,768,768,768,768,768,768,768,768,768,768,768,768,768,768,768,768,768,768,768,768,768,768,768,768,768,768,768,768,768,768,768,768,768,768,761,753,741,713,672,631,541,489,445,407,370,366,364,364,364,364,364,364,366,370,386,405,421,438],"ymouse":[550,550,550,550,550,550,550,550,550,550,550,550,550,550,550,550,550,550,550,550,550,550,550,550,550,550,550,550,550,550,550,550,550,550,550,550,550,550,550,550,550,549,527,510,485,442,391,343,261,213,170,123,52,35,24,19,18,18,18,18,18,19,25,37,46,54],"timestamp_mouse":[8,21,40,62,82,102,121,141,161,181,201,221,242,261,281,301,321,341,361,381,401,421,441,462,482,501,521,542,562,581,601,621,640,661,681,701,721,742,761,782,801,822,841,862,881,901,921,942,961,981,1002,1021,1041,1061,1081,1101,1120,1140,1160,1182,1202,1222,1241,1261,1281,1301],"xSR":741.5,"ySR":481,"xT1":424.9,"yT1":0,"xT2":1058.1,"yT2":0,"toosoon":0,"cond_shown":"Congruent","ratio_trial":300,"L_num":8,"L_den":16,"R_num":1,"R_den":5,"correct_side":1,"subjID":"SimonEstebanTorresLeon23","gender":"0","school":"cafam","age":"10"},{"start_time":1551887192526,"click_time":1551887193895,"finger_time":1551887193555,"fix_duration":610.0971855708198,"trial":37,"RT":1029,"MT":340,"sideResp":1,"stimulus":[],"xmouse":[837,837,837,837,837,837,837,837,837,837,837,837,837,837,837,837,837,837,835,831,819,808,801,801,801,801,801,801,801,801,801,801,801,801,801,801,798,794,790,787,785,785,784,784,784,784,784,781,777,772,760,739,684,655,631,616,598,564,552,539,528,520,516,516,515,514,514,512,511],"ymouse":[559,559,559,559,559,559,559,559,559,559,559,559,559,559,559,559,559,559,559,559,559,559,559,559,559,559,559,559,559,559,559,559,559,559,559,559,559,559,558,558,557,557,556,556,556,556,556,554,551,546,533,506,413,346,304,273,233,174,154,135,121,113,107,107,105,105,103,101,99],"timestamp_mouse":[9,32,49,69,89,108,130,150,169,189,209,229,250,269,289,309,329,349,368,389,410,430,449,469,489,509,529,549,569,589,610,630,649,670,689,709,729,749,768,790,809,830,848,870,890,910,929,949,970,990,1009,1029,1049,1069,1089,1110,1130,1149,1169,1188,1209,1229,1249,1269,1290,1309,1329,1349,1369],"xSR":741.5,"ySR":481,"xT1":424.9,"yT1":0,"xT2":1058.1,"yT2":0,"toosoon":0,"cond_shown":"Incongruent","ratio_trial":200,"L_num":3,"L_den":10,"R_num":1,"R_den":2,"correct_side":2,"subjID":"SimonEstebanTorresLeon23","gender":"0","school":"cafam","age":"10"},{"start_time":1551887195229,"click_time":1551887197355,"finger_time":1551887196775,"fix_duration":392.10442907751184,"trial":38,"RT":1546,"MT":580,"sideResp":1,"stimulus":[],"xmouse":[798,798,798,798,798,798,798,798,798,798,798,798,798,798,798,798,798,798,798,798,798,798,798,798,798,798,798,798,798,798,798,798,798,798,798,798,798,798,798,798,798,798,798,798,798,798,798,798,798,798,798,798,798,798,798,798,798,798,798,798,798,798,798,798,798,798,798,798,798,798,798,798,798,798,799,802,804,819,826,828,829,829,829,825,808,785,750,610,558,502,448,394,341,335,335,335,335,335,335,335,335,335,335,335,418,424,427],"ymouse":[516,517,517,517,517,517,517,517,517,517,517,517,517,517,517,517,517,517,517,517,517,517,517,517,517,517,517,517,517,517,517,517,517,517,517,517,517,517,517,517,517,517,517,517,517,517,517,517,517,517,517,517,517,517,517,517,517,517,517,517,517,517,517,517,517,517,517,517,517,517,517,517,517,517,516,505,502,478,464,459,456,456,456,455,455,452,447,393,344,277,176,100,16,4,4,4,4,4,4,4,4,4,4,4,17,22,26],"timestamp_mouse":[8,26,46,66,86,107,126,146,166,186,206,226,246,266,287,307,326,347,367,387,407,426,447,466,486,506,526,547,567,587,606,627,646,666,686,706,725,746,766,786,806,827,846,866,886,906,926,946,965,986,1006,1027,1046,1066,1085,1107,1125,1147,1167,1187,1207,1227,1245,1267,1286,1307,1325,1345,1365,1386,1406,1427,1446,1467,1497,1506,1526,1546,1566,1587,1607,1626,1646,1666,1687,1707,1727,1747,1767,1786,1805,1827,1846,1866,1886,1906,1926,1947,1966,1987,2006,2026,2047,2066,2087,2106,2125],"xSR":741.5,"ySR":481,"xT1":424.9,"yT1":0,"xT2":1058.1,"yT2":0,"toosoon":0,"cond_shown":"Congruent","ratio_trial":200,"L_num":7,"L_den":21,"R_num":2,"R_den":15,"correct_side":1,"subjID":"SimonEstebanTorresLeon23","gender":"0","school":"cafam","age":"10"},{"start_time":1551887199422,"click_time":1551887201315,"finger_time":1551887201175,"fix_duration":1146.429761332658,"trial":39,"RT":1753,"MT":140,"sideResp":1,"stimulus":[],"xmouse":[799,799,799,799,799,799,799,799,799,799,799,799,799,799,799,799,799,799,799,799,799,799,799,799,799,799,799,799,799,799,799,799,799,799,799,799,799,799,799,799,799,799,799,799,799,799,799,799,799,799,799,799,799,799,799,799,799,799,799,799,799,799,799,799,799,799,799,799,799,799,799,799,799,799,799,799,799,799,799,799,799,799,799,799,793,785,766,701,675,656,623,591,533,513,502],"ymouse":[518,518,518,518,518,518,518,518,518,518,518,518,518,518,518,518,518,518,518,518,518,518,518,518,518,518,518,518,518,518,518,518,518,518,518,518,518,518,518,518,518,518,518,518,518,518,518,518,518,518,518,518,518,518,518,518,518,518,518,518,518,518,518,518,518,518,518,518,518,518,518,518,518,518,518,518,518,518,518,518,518,518,518,518,519,515,503,450,421,387,311,249,147,113,90],"timestamp_mouse":[13,33,53,74,93,113,133,153,174,193,213,233,254,273,293,313,332,354,373,394,414,434,453,474,493,512,534,554,573,594,614,633,652,673,694,713,733,753,773