[{"start_time":1551790925408,"click_time":1551790927012,"finger_time":1551790926272,"fix_duration":1192.1509710669122,"trial":0,"RT":864,"MT":740,"sideResp":1,"stimulus":"img/750/equaldotsize/L/9_Ratio_750_L_4_R_3.png","xmouse":[779,781,781,782,782,782,782,782,782,782,782,782,782,782,782,782,782,782,782,782,782,782,782,782,782,782,782,782,782,779,771,764,762,761,760,757,756,750,747,746,742,741,726,726,721,711,709,709,709,709,710,710,700,684,674,669,667,656,637,569,535,529,523,523,518,510,498,485,485,485,485,485,485,485,485,485,485,485,485,484],"ymouse":[545,540,540,536,536,536,536,536,536,536,536,536,536,536,536,536,536,536,536,536,536,536,536,536,536,536,536,536,536,536,535,533,533,533,533,533,533,533,533,533,533,533,533,533,533,533,533,533,533,533,531,529,514,509,505,496,481,443,407,293,228,206,148,148,143,135,126,102,100,100,100,100,100,100,100,100,100,100,100,95],"timestamp_mouse":[4,48,64,84,106,125,145,164,185,205,225,245,264,285,304,325,345,364,384,405,425,445,464,484,505,525,544,565,585,604,625,644,665,684,704,724,745,764,785,804,824,844,864,884,904,924,946,965,984,1004,1024,1044,1064,1084,1104,1124,1144,1164,1185,1204,1225,1245,1265,1284,1305,1324,1345,1364,1385,1404,1425,1445,1464,1485,1505,1524,1545,1565,1585,1604],"xSR":733.5,"ySR":475.15000000000003,"xT1":420.09999999999997,"yT1":0,"xT2":1046.8999999999999,"yT2":0,"toosoon":0,"cond_shown":"equaldotsize","ratio_trial":750,"smaller_num":"3","larger_num":"4","correct_side":1,"subjID":"sofiafandiñotorres12","gender":"1","age":"11","school":"6","test":{"fix_dur":[250,1500],"timestim":300,"targets_dim":[100,100],"targets_relative_coord":[0.3,0.7],"size_stim":[880,420],"start_dim":[100,100],"size_start":[300,300],"size_fix":60,"samplingrate":20,"img_types":["equaldotsize","equaldotanddens","randomdotsizeEA"],"ratios":[250,500,750,900],"rep_conds":9,"nTrials":120,"trials_to_rest":500,"Trials_order":[102,112,16,20,82,100,11,95,93,106,67,40,48,54,56,108,80,71,65,89,68,46,88,3,24,38,70,49,34,61,72,111,31,117,79,66,17,76,94,81,8,77,42,33,55,37,103,52,109,110,86,32,62,36,0,1,44,26,116,83,87,10,99,35,78,5,96,6,105,4,47,115,2,73,59,107,60,19,30,25,15,12,39,90,101,9,22,57,43,91,7,50,75,92,29,118,13,113,114,27,97,18,74,69,104,119,14,58,28,85,21,41,51,84,23,45,63,98,64,53],"cond_shown":["equaldotsize","equaldotanddens","equaldotanddens","randomdotsizeEA","equaldotanddens","equaldotanddens","randomdotsizeEA","randomdotsizeEA","equaldotsize","equaldotanddens","equaldotanddens","equaldotanddens","equaldotsize","equaldotsize","randomdotsizeEA","equaldotsize","randomdotsizeEA","randomdotsizeEA","randomdotsizeEA","randomdotsizeEA","randomdotsizeEA","equaldotanddens","equaldotanddens","equaldotsize","equaldotsize","randomdotsizeEA","equaldotanddens","equaldotanddens","equaldotanddens","equaldotanddens","equaldotsize","equaldotsize","equaldotanddens","equaldotsize","equaldotanddens","equaldotsize","randomdotsizeEA","equaldotanddens","equaldotanddens","equaldotsize","randomdotsizeEA","randomdotsizeEA","equaldotsize","equaldotsize","equaldotanddens","equaldotanddens","equaldotanddens","equaldotanddens","equaldotanddens","randomdotsizeEA","randomdotsizeEA","randomdotsizeEA","randomdotsizeEA","equaldotsize","equaldotsize","equaldotanddens","randomdotsizeEA","randomdotsizeEA","randomdotsizeEA","randomdotsizeEA","equaldotsize","equaldotanddens","equaldotsize","randomdotsizeEA","equaldotsize","randomdotsizeEA","equaldotsize","equaldotsize","equaldotsize","equaldotanddens","randomdotsizeEA","equaldotanddens","randomdotsizeEA","equaldotanddens","randomdotsizeEA","randomdotsizeEA","equaldotsize","equaldotanddens","equaldotsize","equaldotanddens","equaldotsize","equaldotsize","equaldotsize","equaldotsize","randomdotsizeEA","equaldotsize","equaldotanddens","equaldotsize","equaldotanddens","equaldotanddens","equaldotanddens","randomdotsizeEA","equaldotsize","randomdotsizeEA","randomdotsizeEA","equaldotanddens","equaldotanddens","randomdotsizeEA","equaldotsize","equaldotsize","equaldotanddens","equaldotsize","randomdotsizeEA","equaldotsize","randomdotsizeEA","randomdotsizeEA","randomdotsizeEA","equaldotanddens","equaldotanddens","equaldotanddens","equaldotsize","randomdotsizeEA","equaldotsize","equaldotsize","randomdotsizeEA","equaldotsize","equaldotsize","randomdotsizeEA","equaldotanddens","randomdotsizeEA"],"ratio_trial":[750,500,500,750,900,500,900,900,900,900,750,500,250,750,750,250,750,900,500,500,750,900,500,500,250,250,900,250,900,250,250,500,750,900,750,750,500,500,900,900,750,500,750,900,750,250,750,500,250,250,250,750,250,250,250,250,750,250,750,900,500,900,500,900,750,500,250,750,900,500,900,750,250,250,900,900,250,750,750,250,500,250,500,750,500,900,900,900,750,750,750,250,500,750,500,900,250,500,750,500,250,750,250,900,750,900,250,900,500,250,900,500,500,250,900,900,500,250,500,500],"smaller_num":["3","3","9","3","18","9","18","18","18","18","3","5","3","3","3","1","6","18","1","1","18","18","2","5","1","3","9","4","18","4","3","10","3","9","15","3","4","9","18","18","3","5","9","9","6","3","18","5","4","5","3","15","2","2","2","5","3","2","3","18","4","18","2","18","3","9","4","6","9","10","18","6","4","1","9","9","2","12","3","3","2","6","5","3","6","18","9","9","3","3","3","3","6","6","9","18","1","5","3","9","4","15","2","18","12","9","5","18","6","4","18","10","4","6","9","18","5","2","5","4"],"larger_num":["4","6","18","4","20","18","20","20","20","20","4","10","12","4","4","4","8","20","2","2","24","20","4","10","4","12","10","16","20","16","12","20","4","10","20","4","8","18","20","20","4","10","12","10","8","12","24","10","16","20","12","20","8","8","8","20","4","8","4","20","8","20","4","20","4","18","16","8","10","20","20","8","16","4","10","10","8","16","4","12","4","24","10","4","12","20","10","10","4","4","4","12","12","8","18","20","4","10","4","18","16","20","8","20","16","10","20","20","12","16","20","20","8","24","10","20","10","8","10","8"],"correct_side":[1,2,2,1,1,2,1,1,1,2,1,2,2,1,1,2,1,1,2,2,1,2,1,1,2,2,2,2,1,1,1,2,1,1,2,2,1,1,1,2,2,1,2,2,1,2,1,1,2,2,1,1,1,1,1,2,1,1,1,1,1,1,1,1,1,2,2,1,2,2,2,1,1,2,2,2,1,2,1,1,1,2,2,1,1,1,2,2,2,1,2,2,1,2,1,1,2,2,1,1,1,2,1,1,2,1,2,1,1,2,1,2,1,1,2,1,1,1,2,1],"img_shown":["img/750/equaldotsize/L/9_Ratio_750_L_4_R_3.png","img/500/equaldotanddens/R/2_Ratio_500_L_3_R_6.png","img/500/equaldotanddens/R/1_Ratio_500_L_9_R_18.png","img/750/randomdotsizeEA/L/9_Ratio_750_L_4_R_3.png","img/900/equaldotanddens/L/2_Ratio_900_L_20_R_18.png","img/500/equaldotanddens/R/1_Ratio_500_L_9_R_18.png","img/900/randomdotsizeEA/L/2_Ratio_900_L_20_R_18.png","img/900/randomdotsizeEA/L/10_Ratio_900_L_20_R_18.png","img/900/equaldotsize/L/8_Ratio_900_L_20_R_18.png","img/900/equaldotanddens/R/13_Ratio_900_L_18_R_20.png","img/750/equaldotanddens/L/10_Ratio_750_L_4_R_3.png","img/500/equaldotanddens/R/14_Ratio_500_L_5_R_10.png","img/250/equaldotsize/R/11_Ratio_250_L_3_R_12.png","img/750/equaldotsize/L/9_Ratio_750_L_4_R_3.png","img/750/randomdotsizeEA/L/9_Ratio_750_L_4_R_3.png","img/250/equaldotsize/R/8_Ratio_250_L_1_R_4.png","img/750/randomdotsizeEA/L/13_Ratio_750_L_8_R_6.png","img/900/randomdotsizeEA/L/2_Ratio_900_L_20_R_18.png","img/500/randomdotsizeEA/R/15_Ratio_500_L_1_R_2.png","img/500/randomdotsizeEA/R/15_Ratio_500_L_1_R_2.png","img/750/randomdotsizeEA/L/6_Ratio_750_L_24_R_18.png","img/900/equaldotanddens/R/11_Ratio_900_L_18_R_20.png","img/500/equaldotanddens/L/10_Ratio_500_L_4_R_2.png","img/500/equaldotsize/L/7_Ratio_500_L_10_R_5.png","img/250/equaldotsize/R/8_Ratio_250_L_1_R_4.png","img/250/randomdotsizeEA/R/9_Ratio_250_L_3_R_12.png","img/900/equaldotanddens/R/7_Ratio_900_L_9_R_10.png","img/250/equaldotanddens/R/10_Ratio_250_L_4_R_16.png","img/900/equaldotanddens/L/10_Ratio_900_L_20_R_18.png","img/250/equaldotanddens/L/2_Ratio_250_L_16_R_4.png","img/250/equaldotsize/L/15_Ratio_250_L_12_R_3.png","img/500/equaldotsize/R/3_Ratio_500_L_10_R_20.png","img/750/equaldotanddens/L/9_Ratio_750_L_4_R_3.png","img/900/equaldotsize/L/1_Ratio_900_L_10_R_9.png","img/750/equaldotanddens/R/4_Ratio_750_L_15_R_20.png","img/750/equaldotsize/R/12_Ratio_750_L_3_R_4.png","img/500/randomdotsizeEA/L/8_Ratio_500_L_8_R_4.png","img/500/equaldotanddens/L/4_Ratio_500_L_18_R_9.png","img/900/equaldotanddens/L/2_Ratio_900_L_20_R_18.png","img/900/equaldotsize/R/13_Ratio_900_L_18_R_20.png","img/750/randomdotsizeEA/R/7_Ratio_750_L_3_R_4.png","img/500/randomdotsizeEA/L/7_Ratio_500_L_10_R_5.png","img/750/equaldotsize/R/15_Ratio_750_L_9_R_12.png","img/900/equaldotsize/R/3_Ratio_900_L_9_R_10.png","img/750/equaldotanddens/L/13_Ratio_750_L_8_R_6.png","img/250/equaldotanddens/R/11_Ratio_250_L_3_R_12.png","img/750/equaldotanddens/L/6_Ratio_750_L_24_R_18.png","img/500/equaldotanddens/L/7_Ratio_500_L_10_R_5.png","img/250/equaldotanddens/R/10_Ratio_250_L_4_R_16.png","img/250/randomdotsizeEA/R/12_Ratio_250_L_5_R_20.png","img/250/randomdotsizeEA/L/15_Ratio_250_L_12_R_3.png","img/750/randomdotsizeEA/L/1_Ratio_750_L_20_R_15.png","img/250/randomdotsizeEA/L/3_Ratio_250_L_8_R_2.png","img/250/equaldotsize/L/7_Ratio_250_L_8_R_2.png","img/250/equaldotsize/L/3_Ratio_250_L_8_R_2.png","img/250/equaldotanddens/R/12_Ratio_250_L_5_R_20.png","img/750/randomdotsizeEA/L/8_Ratio_750_L_4_R_3.png","img/250/randomdotsizeEA/L/3_Ratio_250_L_8_R_2.png","img/750/randomdotsizeEA/L/9_Ratio_750_L_4_R_3.png","img/900/randomdotsizeEA/L/8_Ratio_900_L_20_R_18.png","img/500/equaldotsize/L/8_Ratio_500_L_8_R_4.png","img/900/equaldotanddens/L/4_Ratio_900_L_20_R_18.png","img/500/equaldotsize/L/5_Ratio_500_L_4_R_2.png","img/900/randomdotsizeEA/L/4_Ratio_900_L_20_R_18.png","img/750/equaldotsize/L/8_Ratio_750_L_4_R_3.png","img/500/randomdotsizeEA/R/1_Ratio_500_L_9_R_18.png","img/250/equaldotsize/R/10_Ratio_250_L_4_R_16.png","img/750/equaldotsize/L/13_Ratio_750_L_8_R_6.png","img/900/equaldotsize/R/3_Ratio_900_L_9_R_10.png","img/500/equaldotanddens/R/3_Ratio_500_L_10_R_20.png","img/900/randomdotsizeEA/R/13_Ratio_900_L_18_R_20.png","img/750/equaldotanddens/L/13_Ratio_750_L_8_R_6.png","img/250/randomdotsizeEA/L/2_Ratio_250_L_16_R_4.png","img/250/equaldotanddens/R/8_Ratio_250_L_1_R_4.png","img/900/randomdotsizeEA/R/7_Ratio_900_L_9_R_10.png","img/900/randomdotsizeEA/R/5_Ratio_900_L_9_R_10.png","img/250/equaldotsize/L/7_Ratio_250_L_8_R_2.png","img/750/equaldotanddens/R/11_Ratio_750_L_12_R_16.png","img/750/equaldotsize/L/9_Ratio_750_L_4_R_3.png","img/250/equaldotanddens/L/15_Ratio_250_L_12_R_3.png","img/500/equaldotsize/L/5_Ratio_500_L_4_R_2.png","img/250/equaldotsize/R/6_Ratio_250_L_6_R_24.png","img/500/equaldotsize/R/14_Ratio_500_L_5_R_10.png","img/750/equaldotsize/L/8_Ratio_750_L_4_R_3.png","img/500/randomdotsizeEA/L/13_Ratio_500_L_12_R_6.png","img/900/equaldotsize/L/2_Ratio_900_L_20_R_18.png","img/900/equaldotanddens/R/6_Ratio_900_L_9_R_10.png","img/900/equaldotsize/R/6_Ratio_900_L_9_R_10.png","img/750/equaldotanddens/R/12_Ratio_750_L_3_R_4.png","img/750/equaldotanddens/L/10_Ratio_750_L_4_R_3.png","img/750/equaldotanddens/R/7_Ratio_750_L_3_R_4.png","img/250/randomdotsizeEA/R/4_Ratio_250_L_3_R_12.png","img/500/equaldotsize/L/13_Ratio_500_L_12_R_6.png","img/750/randomdotsizeEA/R/2_Ratio_750_L_6_R_8.png","img/500/randomdotsizeEA/L/4_Ratio_500_L_18_R_9.png","img/900/equaldotanddens/L/4_Ratio_900_L_20_R_18.png","img/250/equaldotanddens/R/8_Ratio_250_L_1_R_4.png","img/500/randomdotsizeEA/R/14_Ratio_500_L_5_R_10.png","img/750/equaldotsize/L/8_Ratio_750_L_4_R_3.png","img/500/equaldotsize/L/4_Ratio_500_L_18_R_9.png","img/250/equaldotanddens/L/2_Ratio_250_L_16_R_4.png","img/750/equaldotsize/R/3_Ratio_750_L_15_R_20.png","img/250/randomdotsizeEA/L/7_Ratio_250_L_8_R_2.png","img/900/equaldotsize/L/4_Ratio_900_L_20_R_18.png","img/750/randomdotsizeEA/R/11_Ratio_750_L_12_R_16.png","img/900/randomdotsizeEA/L/1_Ratio_900_L_10_R_9.png","img/250/randomdotsizeEA/R/12_Ratio_250_L_5_R_20.png","img/900/equaldotanddens/L/4_Ratio_900_L_20_R_18.png","img/500/equaldotanddens/L/13_Ratio_500_L_12_R_6.png","img/250/equaldotanddens/R/10_Ratio_250_L_4_R_16.png","img/900/equaldotsize/L/10_Ratio_900_L_20_R_18.png","img/500/randomdotsizeEA/R/3_Ratio_500_L_10_R_20.png","img/500/equaldotsize/L/8_Ratio_500_L_8_R_4.png","img/250/equaldotsize/L/5_Ratio_250_L_24_R_6.png","img/900/randomdotsizeEA/R/5_Ratio_900_L_9_R_10.png","img/900/equaldotsize/L/10_Ratio_900_L_20_R_18.png","img/500/equaldotsize/L/7_Ratio_500_L_10_R_5.png","img/250/randomdotsizeEA/L/7_Ratio_250_L_8_R_2.png","img/500/equaldotanddens/R/14_Ratio_500_L_5_R_10.png","img/500/randomdotsizeEA/L/8_Ratio_500_L_8_R_4.png"],"Rat0":[["12_Ratio_0_L_9_R_0.png","13_Ratio_0_L_6_R_0.png","5_Ratio_0_L_2_R_0.png","6_Ratio_0_L_4_R_0.png","8_Ratio_0_L_6_R_0.png"],["1_Ratio_0_L_0_R_17.png","10_Ratio_0_L_0_R_22.png","11_Ratio_0_L_0_R_1.png","14_Ratio_0_L_0_R_24.png","15_Ratio_0_L_0_R_4.png","2_Ratio_0_L_0_R_5.png","3_Ratio_0_L_0_R_17.png","4_Ratio_0_L_0_R_7.png","7_Ratio_0_L_0_R_19.png","9_Ratio_0_L_0_R_15.png"]],"Rat250":[["1_Ratio_250_L_8_R_2.png","14_Ratio_250_L_12_R_3.png","15_Ratio_250_L_12_R_3.png","2_Ratio_250_L_16_R_4.png","3_Ratio_250_L_8_R_2.png","5_Ratio_250_L_24_R_6.png","7_Ratio_250_L_8_R_2.png"],["10_Ratio_250_L_4_R_16.png","11_Ratio_250_L_3_R_12.png","12_Ratio_250_L_5_R_20.png","13_Ratio_250_L_2_R_8.png","4_Ratio_250_L_3_R_12.png","6_Ratio_250_L_6_R_24.png","8_Ratio_250_L_1_R_4.png","9_Ratio_250_L_3_R_12.png"]],"Rat500":[["10_Ratio_500_L_4_R_2.png","11_Ratio_500_L_12_R_6.png","13_Ratio_500_L_12_R_6.png","4_Ratio_500_L_18_R_9.png","5_Ratio_500_L_4_R_2.png","7_Ratio_500_L_10_R_5.png","8_Ratio_500_L_8_R_4.png"],["1_Ratio_500_L_9_R_18.png","12_Ratio_500_L_1_R_2.png","14_Ratio_500_L_5_R_10.png","15_Ratio_500_L_1_R_2.png","2_Ratio_500_L_3_R_6.png","3_Ratio_500_L_10_R_20.png","6_Ratio_500_L_9_R_18.png","9_Ratio_500_L_2_R_4.png"]],"Rat750":[["1_Ratio_750_L_20_R_15.png","10_Ratio_750_L_4_R_3.png","13_Ratio_750_L_8_R_6.png","14_Ratio_750_L_8_R_6.png","6_Ratio_750_L_24_R_18.png","8_Ratio_750_L_4_R_3.png","9_Ratio_750_L_4_R_3.png"],["11_Ratio_750_L_12_R_16.png","12_Ratio_750_L_3_R_4.png","15_Ratio_750_L_9_R_12.png","2_Ratio_750_L_6_R_8.png","3_Ratio_750_L_15_R_20.png","4_Ratio_750_L_15_R_20.png","5_Ratio_750_L_15_R_20.png","7_Ratio_750_L_3_R_4.png"]],"Rat900":[["1_Ratio_900_L_10_R_9.png","10_Ratio_900_L_20_R_18.png","2_Ratio_900_L_20_R_18.png","4_Ratio_900_L_20_R_18.png","8_Ratio_900_L_20_R_18.png"],["11_Ratio_900_L_18_R_20.png","12_Ratio_900_L_18_R_20.png","13_Ratio_900_L_18_R_20.png","14_Ratio_900_L_18_R_20.png","15_Ratio_900_L_9_R_10.png","3_Ratio_900_L_9_R_10.png","5_Ratio_900_L_9_R_10.png","6_Ratio_900_L_9_R_10.png","7_Ratio_900_L_9_R_10.png","9_Ratio_900_L_18_R_20.png"]],"Rat1000":[["10_Ratio_1000_L_16_R_16.png","11_Ratio_1000_L_6_R_6.png","12_Ratio_1000_L_14_R_14.png","13_Ratio_1000_L_20_R_20.png","15_Ratio_1000_L_15_R_15.png","2_Ratio_1000_L_17_R_17.png","4_Ratio_1000_L_9_R_9.png","5_Ratio_1000_L_6_R_6.png","6_Ratio_1000_L_19_R_19.png","8_Ratio_1000_L_14_R_14.png","9_Ratio_1000_L_25_R_25.png"],["1_Ratio_1000_L_1_R_1.png","14_Ratio_1000_L_17_R_17.png","3_Ratio_1000_L_17_R_17.png","7_Ratio_1000_L_6_R_6.png"]]}},{"start_time":1551790929488,"click_time":1551790930392,"finger_time":1551790930092,"fix_duration":1213.2428884141787,"trial":1,"RT":604,"MT":300,"sideResp":2,"stimulus":"img/500/equaldotanddens/R/2_Ratio_500_L_3_R_6.png","xmouse":[783,783,783,783,783,783,783,783,783,783,783,783,783,783,783,783,783,783,783,783,783,783,783,783,783,783,783,784,789,815,847,868,870,876,895,903,903,903,903,905,906,907,909,913,938,1069],"ymouse":[534,534,534,534,534,534,534,534,534,534,534,534,534,534,534,534,534,534,534,534,534,534,534,534,534,534,534,534,527,493,461,424,415,371,262,211,208,201,190,164,144,135,132,128,109,83],"timestamp_mouse":[8,25,44,64,85,106,124,145,164,185,204,225,244,265,284,304,324,345,365,384,404,425,444,465,484,505,526,544,565,584,604,624,644,664,684,704,724,744,764,784,804,824,845,864,884,904],"xSR":733.5,"ySR":475.15000000000003,"xT1":420.09999999999997,"yT1":0,"xT2":1046.8999999999999,"yT2":0,"toosoon":0,"cond_shown":"equaldotanddens","ratio_trial":500,"smaller_num":"3","larger_num":"6","correct_side":2,"subjID":"sofiafandiñotorres12","gender":"1","age":"11","school":"6"},{"start_time":1551790931880,"click_time":1551790932752,"finger_time":1551790932232,"fix_duration":546.4466837369346,"trial":2,"RT":352,"MT":520,"sideResp":2,"stimulus":"img/500/equaldotanddens/R/1_Ratio_500_L_9_R_18.png","xmouse":[771,771,771,771,771,771,771,771,772,772,772,772,772,777,786,795,808,814,825,860,889,929,961,990,1025,1049,1057,1059,1071,1078,1078,1078,1078,1078,1078,1079,1081,1082,1083,1085,1088,1091,1096,1101],"ymouse":[523,523,523,523,523,523,523,523,523,523,523,523,523,520,509,499,481,466,447,406,382,348,320,291,249,222,214,211,195,173,171,169,168,168,157,152,144,141,139,134,130,121,108,94],"timestamp_mouse":[12,45,53,72,92,112,133,152,173,192,212,232,252,273,292,312,332,352,372,392,412,432,452,472,493,512,532,553,572,592,612,632,653,673,692,713,732,753,772,792,812,832,852,872],"xSR":733.5,"ySR":475.15000000000003,"xT1":420.09999999999997,"yT1":0,"xT2":1046.8999999999999,"yT2":0,"toosoon":0,"cond_shown":"equaldotanddens","ratio_trial":500,"smaller_num":"9","larger_num":"18","correct_side":2,"subjID":"sofiafandiñotorres12","gender":"1","age":"11","school":"6"},{"start_time":1551790933956,"click_time":1551790935072,"finger_time":1551790934533,"fix_duration":382.7588840775801,"trial":3,"RT":577,"MT":539,"sideResp":1,"stimulus":"img/750/randomdotsizeEA/L/9_Ratio_750_L_4_R_3.png","xmouse":[793,793,793,793,793,793,793,793,793,793,793,793,793,793,793,793,793,793,793,793,792,791,791,790,789,780,771,762,746,718,694,679,661,643,640,619,611,603,599,599,584,578,565,563,563,563,563,563,563,563,562,557,543,532,515,499],"ymouse":[525,525,525,525,525,525,525,525,525,525,525,525,525,525,525,525,525,525,525,525,525,525,525,524,523,511,499,487,470,444,416,388,349,305,298,258,238,208,195,195,175,169,157,155,155,154,152,152,152,152,151,148,136,122,102,80],"timestamp_mouse":[16,41,56,77,97,116,136,156,176,196,217,236,257,276,296,317,336,356,376,397,416,436,456,476,496,516,536,557,577,596,616,637,656,677,696,717,736,756,776,798,816,836,856,876,896,916,936,957,976,996,1016,1036,1056,1077,1096,1116],"xSR":733.5,"ySR":475.15000000000003,"xT1":420.09999999999997,"yT1":0,"xT2":1046.8999999999999,"yT2":0,"toosoon":0,"cond_shown":"randomdotsizeEA","ratio_trial":750,"smaller_num":"3","larger_num":"4","correct_side":1,"subjID":"sofiafandiñotorres12","gender":"1","age":"11","school":"6"},{"start_time":1551790937187,"click_time":1551790938252,"finger_time":1551790937892,"fix_duration":1473.9269443872383,"trial":4,"RT":705,"MT":360,"sideResp":1,"stimulus":"img/900/equaldotanddens/L/2_Ratio_900_L_20_R_18.png","xmouse":[776,776,776,776,776,776,776,776,776,776,776,776,776,776,776,776,776,776,776,776,776,776,776,776,776,776,776,776,776,776,776,776,771,763,748,735,710,670,624,533,533,523,523,523,523,523,523,523,523,523,523,523,523,517],"ymouse":[519,519,519,519,519,519,519,519,519,519,519,519,519,519,519,519,519,519,519,519,519,519,519,519,519,519,519,519,519,519,519,519,517,515,496,475,434,365,282,115,111,88,84,75,63,62,62,62,62,62,62,62,61,61],"timestamp_mouse":[11,26,48,65,85,106,125,147,165,185,205,226,246,266,285,306,327,347,365,386,405,425,445,465,486,505,526,545,565,586,606,625,646,665,685,705,725,745,766,786,805,825,846,866,886,905,926,945,966,985,1007,1026,1045,1065],"xSR":733.5,"ySR":475.15000000000003,"xT1":420.09999999999997,"yT1":0,"xT2":1046.8999999999999,"yT2":0,"toosoon":0,"cond_shown":"equaldotanddens","ratio_trial":900,"smaller_num":"18","larger_num":"20","correct_side":1,"subjID":"sofiafandiñotorres12","gender":"1","age":"11","school":"6"},{"start_time":1551790939423,"click_time":1551790940354,"finger_time":1551790940053,"fix_duration":268.46848549004744,"trial":5,"RT":630,"MT":301,"sideResp":2,"stimulus":"img/500/equaldotanddens/R/1_Ratio_500_L_9_R_18.png","xmouse":[777,777,777,777,777,777,777,777,777,777,777,777,777,777,777,777,777,777,777,777,777,777,777,777,777,777,777,777,777,778,783,795,843,871,929,999,1036,1072,1077,1081,1089,1092,1109,1116,1121,1122,1122],"ymouse":[500,500,500,500,500,500,500,500,500,500,500,500,500,500,500,500,500,500,500,500,500,500,500,500,500,500,500,500,500,495,485,469,417,387,339,276,246,215,203,193,167,161,133,123,109,103,98],"timestamp_mouse":[10,31,50,70,91,109,129,149,169,190,209,229,249,270,289,310,329,350,369,389,410,430,449,469,490,509,529,549,570,589,609,630,650,669,689,710,730,749,769,789,809,829,849,869,889,909,930],"xSR":733.5,"ySR":475.15000000000003,"xT1":420.09999999999997,"yT1":0,"xT2":1046.8999999999999,"yT2":0,"toosoon":0,"cond_shown":"equaldotanddens","ratio_trial":500,"smaller_num":"9","larger_num":"18","correct_side":2,"subjID":"sofiafandiñotorres12","gender":"1","age":"11","school":"6"},{"start_time":1551790942478,"click_time":1551790943852,"finger_time":1551790943333,"fix_duration":1244.1040291849931,"trial":6,"RT":855,"MT":519,"sideResp":1,"stimulus":"img/900/randomdotsizeEA/L/2_Ratio_900_L_20_R_18.png","xmouse":[800,800,800,800,801,801,801,801,801,801,801,801,801,801,801,801,801,801,801,801,801,801,801,801,801,801,801,801,801,801,801,801,801,801,801,801,798,794,789,784,780,776,763,748,731,722,708,692,682,673,673,674,676,675,634,624,602,591,583,577,569,554,539,531,529,529,529,522,515],"ymouse":[520,520,520,520,518,518,518,518,518,518,518,518,518,518,518,518,518,518,518,518,518,518,518,518,518,518,518,518,518,518,518,518,518,518,518,515,510,503,495,484,481,477,456,430,416,408,389,369,363,347,337,323,296,273,211,199,176,162,151,144,133,117,98,89,87,86,86,82,75],"timestamp_mouse":[14,49,54,74,95,115,135,155,174,195,214,235,254,276,294,314,334,354,374,394,416,434,455,474,494,516,534,554,574,594,614,635,656,675,694,714,734,754,774,794,814,834,855,875,894,915,934,955,974,995,1014,1034,1054,1075,1095,1115,1134,1154,1174,1194,1214,1234,1255,1274,1294,1315,1335,1355,1374],"xSR":733.5,"ySR":475.15000000000003,"xT1":420.09999999999997,"yT1":0,"xT2":1046.8999999999999,"yT2":0,"toosoon":0,"cond_shown":"randomdotsizeEA","ratio_trial":900,"smaller_num":"18","larger_num":"20","correct_side":1,"subjID":"sofiafandiñotorres12","gender":"1","age":"11","school":"6"},{"start_time":1551790946198,"click_time":1551790947653,"finger_time":1551790946932,"fix_duration":1465.1618624767748,"trial":7,"RT":734,"MT":721,"sideResp":2,"stimulus":"img/900/randomdotsizeEA/L/10_Ratio_900_L_20_R_18.png","xmouse":[809,809,809,809,809,809,809,809,809,809,809,809,809,809,809,809,809,809,809,809,809,809,809,809,809,809,809,809,809,809,809,809,809,810,814,827,844,856,889,905,914,921,931,958,972,989,997,1012,1039,1039,1046,1063,1079,1099,1100,1104,1109,1115,1119,1119,1119,1119,1119,1119,1116,1112,1108,1107,1099,1096,1094,1094,1091],"ymouse":[523,523,523,523,523,523,523,523,523,523,523,523,523,523,523,523,523,523,523,523,523,523,523,523,523,523,523,523,523,523,523,523,523,523,517,502,483,468,401,363,334,312,288,241,220,202,196,185,171,171,165,158,151,141,140,136,128,119,111,109,109,109,109,109,108,107,105,105,104,101,101,101,96],"timestamp_mouse":[15,40,54,74,95,115,135,154,174,196,214,235,254,275,296,314,334,355,375,396,414,435,455,474,494,514,536,556,574,595,614,634,654,674,694,714,734,754,774,794,814,834,854,875,894,914,934,954,974,994,1014,1035,1054,1074,1094,1114,1134,1154,1174,1194,1215,1234,1255,1275,1294,1314,1334,1354,1374,1394,1414,1435,1455],"xSR":733.5,"ySR":475.15000000000003,"xT1":420.09999999999997,"yT1":0,"xT2":1046.8999999999999,"yT2":0,"toosoon":0,"cond_shown":"randomdotsizeEA","ratio_trial":900,"smaller_num":"18","larger_num":"20","correct_side":1,"subjID":"sofiafandiñotorres12","gender":"1","age":"11","school":"6"},{"start_time":1551790949689,"click_time":1551790951072,"finger_time":1551790950533,"fix_duration":934.3783900816949,"trial":8,"RT":844,"MT":539,"sideResp":2,"stimulus":"img/900/equaldotsize/L/8_Ratio_900_L_20_R_18.png","xmouse":[784,784,784,784,784,784,784,784,784,784,784,784,784,784,784,784,784,784,784,784,784,784,784,784,784,784,784,784,784,784,784,784,784,784,784,784,784,784,784,784,784,799,815,823,845,881,907,917,935,947,948,948,953,957,975,990,1009,1010,1011,1016,1020,1021,1021,1023,1023,1023,1023,1026,1035,1060],"ymouse":[509,509,509,509,509,509,509,509,509,509,509,509,509,509,509,509,509,509,509,509,509,509,510,510,510,510,510,510,510,510,510,510,510,510,510,510,510,510,510,510,503,485,474,467,450,403,333,303,245,191,182,177,166,156,140,130,121,120,120,120,119,119,118,116,111,107,106,98,88,64],"timestamp_mouse":[8,23,47,63,83,103,123,144,163,184,203,223,243,264,283,304,323,345,363,384,404,424,443,464,483,504,524,545,563,583,604,625,643,663,684,703,724,743,763,783,803,823,844,863,883,903,923,945,964,984,1003,1023,1044,1064,1083,1103,1123,1145,1163,1184,1203,1223,1243,1263,1284,1305,1323,1343,1363,1383],"xSR":733.5,"ySR":475.15000000000003,"xT1":420.09999999999997,"yT1":0,"xT2":1046.8999999999999,"yT2":0,"toosoon":0,"cond_shown":"equaldotsize","ratio_trial":900,"smaller_num":"18","larger_num":"20","correct_side":1,"subjID":"sofiafandiñotorres12","gender":"1","age":"11","school":"6"},{"start_time":1551790952443,"click_time":1551790953572,"finger_time":1551790953112,"fix_duration":649.4209251975594,"trial":9,"RT":669,"MT":460,"sideResp":1,"stimulus":"img/900/equaldotanddens/R/13_Ratio_900_L_18_R_20.png","xmouse":[762,764,766,766,770,772,773,773,773,773,773,773,773,773,773,773,773,773,773,773,773,773,773,773,773,773,773,773,773,773,773,767,752,731,706,667,611,601,579,570,570,566,564,559,556,555,549,538,534,530,528,528,527,524,524,516,503],"ymouse":[553,550,549,549,546,545,545,545,545,545,545,545,545,545,545,545,545,545,545,545,545,545,545,545,545,545,545,545,545,545,545,530,500,456,418,354,270,257,242,240,240,238,236,232,230,229,224,214,203,187,172,156,142,125,125,111,88],"timestamp_mouse":[9,29,60,70,89,109,129,150,169,190,209,230,249,269,289,310,329,350,369,389,409,431,449,471,489,509,530,550,569,589,609,629,649,669,689,709,729,749,769,789,809,829,849,869,889,910,929,949,969,990,1009,1029,1049,1070,1089,1109,1129],"xSR":733.5,"ySR":475.15000000000003,"xT1":420.09999999999997,"yT1":0,"xT2":1046.8999999999999,"yT2":0,"toosoon":0,"cond_shown":"equaldotanddens","ratio_trial":900,"smaller_num":"18","larger_num":"20","correct_side":2,"subjID":"sofiafandiñotorres12","gender":"1","age":"11","school":"6"},{"start_time":1551790954618,"click_time":1551790955953,"finger_time":1551790955512,"fix_duration":283.03308920192427,"trial":10,"RT":894,"MT":441,"sideResp":2,"stimulus":"img/750/equaldotanddens/L/10_Ratio_750_L_4_R_3.png","xmouse":[765,765,765,765,765,765,765,765,765,765,765,765,765,765,765,765,765,765,765,765,765,765,765,765,765,765,765,765,765,765,765,765,765,765,765,765,765,765,765,765,765,768,787,806,841,880,940,1115,1201,1290,1356,1356,1356,1356,1356,1356,1356,1356,1356,1356,1356,1356,1356,1356,1356,1356,1089],"ymouse":[531,531,531,531,531,531,531,531,531,531,531,531,531,531,531,531,531,531,531,531,531,531,531,531,531,531,531,531,531,531,531,531,531,531,531,531,531,531,531,531,531,530,512,497,465,417,356,208,151,72,8,8,8,8,8,8,8,8,8,8,8,8,8,8,8,8,8],"timestamp_mouse":[14,42,54,74,94,114,135,154,174,195,214,235,256,275,294,314,335,354,375,394,416,434,454,474,494,514,534,554,574,594,614,634,654,674,694,715,734,755,774,794,814,834,854,874,894,914,935,955,975,994,1015,1035,1055,1075,1094,1114,1135,1154,1175,1195,1216,1234,1256,1275,1295,1316,1335],"xSR":733.5,"ySR":475.15000000000003,"xT1":420.09999999999997,"yT1":0,"xT2":1046.8999999999999,"yT2":0,"toosoon":0,"cond_shown":"equaldotanddens","ratio_trial":750,"smaller_num":"3","larger_num":"4","correct_side":1,"subjID":"sofiafandiñotorres12","gender":"1","age":"11","school":"6"},{"start_time":1551790957888,"click_time":1551790958813,"finger_time":1551790958572,"fix_duration":295.5702111915105,"trial":11,"RT":684,"MT":241,"sideResp":2,"stimulus":"img/500/equaldotanddens/R/14_Ratio_500_L_5_R_10.png","xmouse":[809,809,811,811,811,811,811,811,811,811,811,811,811,811,811,811,811,807,805,804,804,804,803,803,794,794,794,794,794,793,792,789,773,768,727,724,735,792,859,979,1054,1072,1123,1128,1141,1141,1141],"ymouse":[560,560,560,559,558,558,558,558,558,558,558,558,558,558,558,555,552,543,538,537,534,533,533,534,544,544,544,544,544,542,534,525,496,486,384,378,367,332,292,236,191,181,138,133,117,101,90],"timestamp_mouse":[4,24,47,64,84,106,125,146,164,184,204,225,244,265,284,304,324,344,364,384,404,424,444,464,484,505,524,545,564,585,604,626,644,665,684,704,724,745,764,784,804,824,844,865,884,905,924],"xSR":733.5,"ySR":475.15000000000003,"xT1":420.09999999999997,"yT1":0,"xT2":1046.8999999999999,"yT2":0,"toosoon":0,"cond_shown":"equaldotanddens","ratio_trial":500,"smaller_num":"5","larger_num":"10","correct_side":2,"subjID":"sofiafandiñotorres12","gender":"1","age":"11","school":"6"},{"start_time":1551790960725,"click_time":1551790961992,"finger_time":1551790961393,"fix_duration":970.1738932774866,"trial":12,"RT":668,"MT":599,"sideResp":1,"stimulus":"img/250/equaldotsize/R/11_Ratio_250_L_3_R_12.png","xmouse":[803,803,803,803,802,802,802,802,802,802,802,802,802,803,804,804,804,804,804,804,804,804,804,804,804,804,804,804,804,803,803,801,801,801,785,758,747,670,648,637,634,632,619,612,591,575,552,524,516,502,473,473,473,473,473,473,473,473,473,475,475,476,477,477],"ymouse":[535,535,535,535,535,533,532,531,531,531,531,531,531,530,531,531,531,531,531,531,531,531,531,531,531,531,531,531,531,527,521,511,485,453,358,301,287,219,199,187,179,175,163,158,149,142,138,133,132,127,118,118,118,118,118,118,118,118,117,114,113,108,100,96],"timestamp_mouse":[8,43,48,67,87,108,127,148,167,188,208,227,247,267,288,307,327,348,369,387,407,427,447,469,488,507,527,547,567,587,607,628,647,668,687,707,727,747,767,788,807,828,847,867,887,908,928,948,967,987,1008,1027,1047,1067,1089,1107,1128,1147,1167,1188,1208,1228,1247,1267],"xSR":733.5,"ySR":475.15000000000003,"xT1":420.09999999999997,"yT1":0,"xT2":1046.8999999999999,"yT2":0,"toosoon":0,"cond_shown":"equaldotsize","ratio_trial":250,"smaller_num":"3","larger_num":"12","correct_side":2,"subjID":"sofiafandiñotorres12","gender":"1","age":"11","school":"6"},{"start_time":1551790963565,"click_time":1551790964772,"finger_time":1551790963973,"fix_duration":531.3275102282142,"trial":13,"RT":408,"MT":799,"sideResp":1,"stimulus":"img/750/equaldotsize/L/9_Ratio_750_L_4_R_3.png","xmouse":[770,770,770,770,770,772,774,777,778,778,778,778,779,782,782,784,784,784,784,784,797,800,809,809,809,813,814,814,814,814,812,807,794,777,756,726,708,692,682,652,620,499,470,469,469,469,469,469,469,469,469,469,469,469,469,469,469,469,469,469,469],"ymouse":[518,518,518,518,518,517,516,515,515,515,515,515,515,512,508,503,503,503,503,502,466,460,445,445,445,436,432,430,429,429,427,425,422,420,416,410,399,382,366,324,266,135,110,109,107,104,104,104,104,104,104,104,104,104,104,103,103,102,102,101,98],"timestamp_mouse":[9,37,47,67,87,107,127,147,168,188,207,228,247,267,288,308,327,347,368,388,408,428,447,467,487,507,527,547,567,588,607,628,647,667,687,707,727,747,767,787,807,828,847,867,887,907,928,947,968,987,1007,1027,1047,1068,1088,1107,1127,1148,1167,1187,1207],"xSR":733.5,"ySR":475.15000000000003,"xT1":420.09999999999997,"yT1":0,"xT2":1046.8999999999999,"yT2":0,"toosoon":0,"cond_shown":"equaldotsize","ratio_trial":750,"smaller_num":"3","larger_num":"4","correct_side":1,"subjID":"sofiafandiñotorres12","gender":"1","age":"11","school":"6"},{"start_time":1551790966544,"click_time":1551790968092,"finger_time":1551790967533,"fix_duration":489.43656826907755,"trial":14,"RT":989,"MT":559,"sideResp":1,"stimulus":"img/750/randomdotsizeEA/L/9_Ratio_750_L_4_R_3.png","xmouse":[790,790,790,790,790,790,790,790,790,790,790,790,790,790,790,790,790,790,790,790,790,790,790,790,790,790,790,790,790,791,793,801,803,804,804,804,804,804,804,804,804,804,804,804,804,804,804,804,798,783,757,728,717,716,708,707,704,699,685,681,661,622,593,590,576,575,574,574,574,574,574,571,567,565,563,559,502,472],"ymouse":[543,543,543,543,543,543,543,543,543,543,543,543,543,543,543,543,543,543,543,543,543,543,543,543,543,543,543,543,543,541,539,536,534,534,534,534,522,520,519,519,519,518,518,518,518,518,518,518,508,475,439,407,399,399,394,392,384,368,350,347,330,281,246,244,231,230,216,201,183,168,157,145,139,136,135,133,104,77],"timestamp_mouse":[17,28,48,68,88,108,128,148,168,188,209,228,248,268,289,309,328,348,369,389,409,428,448,468,488,509,528,548,568,590,609,628,649,668,690,708,728,748,769,788,808,828,848,869,888,909,928,948,968,989,1009,1028,1048,1069,1090,1108,1128,1148,1168,1189,1208,1228,1248,1268,1289,1308,1328,1348,1369,1389,1408,1429,1448,1469,1488,1509,1528,1548],"xSR":733.5,"ySR":475.15000000000003,"xT1":420.09999999999997,"yT1":0,"xT2":1046.8999999999999,"yT2":0,"toosoon":0,"cond_shown":"randomdotsizeEA","ratio_trial":750,"smaller_num":"3","larger_num":"4","correct_side":1,"subjID":"sofiafandiñotorres12","gender":"1","age":"11","school":"6"},{"start_time":1551790969840,"click_time":1551790972954,"finger_time":1551790972372,"fix_duration":426.80136998836906,"trial":15,"RT":2532,"MT":582,"sideResp":2,"stimulus":"img/250/equaldotsize/R/8_Ratio_250_L_1_R_4.png","xmouse":[804,804,804,804,805,805,805,805,805,806,806,806,806,806,806,806,806,806,806,806,806,807,807,807,807,807,807,807,807,807,807,807,807,807,807,807,807,807,807,807,807,807,807,807,807,807,807,807,807,807,807,807,807,807,807,807,807,807,807,807,807,807,807,807,807,807,806,795,788,785,785,785,785,785,785,785,785,786,786,786,787,788,788,788,788,788,788,788,788,788,788,789,788,785,785,785,786,786,786,786,786,786,786,786,786,786,786,784,783,782,781,775,773,772,772,770,770,770,770,770,770,770,770,770,770,786,850,850,920,966,1016,1070,1126,1174,1208,1233,1242,1246,1248,1248,1246,1243,1243,1243,1243,1243,1189,1180,1169,1165,1161,1158,1157,1156,1153,1145],"ymouse":[546,546,545,541,540,538,538,538,537,537,537,537,537,537,537,537,537,537,537,537,537,536,536,536,536,536,536,536,536,536,536,536,536,536,536,536,536,536,536,536,536,536,536,536,536,536,536,536,536,536,536,536,536,536,536,536,536,536,536,536,536,536,536,535,534,532,529,516,510,509,509,509,509,509,509,509,509,508,508,508,508,508,508,508,508,508,508,508,508,508,508,507,502,498,498,498,494,492,492,492,492,492,492,492,492,492,492,493,494,495,496,503,508,509,509,510,510,510,510,510,510,510,510,510,510,486,379,379,279,244,208,177,145,107,81,53,36,23,16,10,4,0,0,0,0,0,7,15,24,28,31,34,35,35,37,42],"timestamp_mouse":[12,32,52,72,94,113,133,153,173,192,214,234,253,273,293,312,332,352,372,392,412,433,452,472,492,512,532,552,572,592,612,632,652,672,692,712,732,754,772,792,812,833,853,872,894,914,933,954,974,994,1012,1032,1053,1072,1093,1113,1134,1152,1173,1194,1212,1233,1252,1272,1292,1313,1332,1352,1372,1393,1413,1433,1453,1472,1493,1512,1532,1552,1573,1593,1613,1632,1653,1673,1692,1713,1733,1752,1772,1793,1812,1832,1852,1874,1892,1913,1932,1952,1972,1994,2013,2033,2052,2073,2093,2113,2132,2152,2173,2192,2213,2233,2252,2272,2292,2312,2332,2352,2373,2392,2412,2432,2452,2472,2492,2512,2532,2552,2572,2592,2613,2632,2652,2673,2692,2713,2732,2752,2772,2794,2813,2833,2852,2872,2892,2914,2932,2952,2972,2993,3012,3033,3053,3073,3093,3114],"xSR":733.5,"ySR":475.15000000000003,"xT1":420.09999999999997,"yT1":0,"xT2":1046.8999999999999,"yT2":0,"toosoon":0,"cond_shown":"equaldotsize","ratio_trial":250,"smaller_num":"1","larger_num":"4","correct_side":2,"subjID":"sofiafandiñotorres12","gender":"1","age":"11","school":"6"},{"start_time":1551790975111,"click_time":1551790976772,"finger_time":1551790976033,"fix_duration":897.0691875696066,"trial":16,"RT":922,"MT":739,"sideResp":1,"stimulus":"img/750/randomdotsizeEA/L/13_Ratio_750_L_8_R_6.png","xmouse":[795,795,795,795,795,795,795,795,795,795,795,795,795,795,794,793,793,793,793,793,793,793,793,793,793,793,793,793,793,793,793,793,793,793,793,793,793,793,793,791,789,789,785,782,780,780,780,779,779,781,785,787,792,826,854,857,859,859,858,856,834,790,765,765,749,739,737,744,760,762,762,759,756,741,726,720,714,695,660,633,594,542,513,464],"ymouse":[509,509,509,509,509,509,509,509,509,509,509,509,509,509,509,509,509,509,509,509,509,509,509,509,509,509,509,509,509,509,509,509,509,509,509,509,509,509,509,507,503,503,499,493,488,487,475,463,451,442,435,432,427,390,364,363,363,363,363,361,333,282,257,257,246,237,228,219,207,204,201,198,195,184,178,173,171,162,150,140,127,112,103,85],"timestamp_mouse":[8,21,48,61,82,101,121,141,161,182,202,223,241,261,283,301,321,341,362,382,402,421,443,461,482,502,521,541,562,582,601,622,643,662,682,701,722,741,761,781,802,821,842,861,881,901,922,941,961,982,1002,1021,1041,1061,1081,1101,1123,1141,1162,1181,1201,1221,1241,1262,1282,1301,1321,1342,1361,1382,1401,1422,1442,1461,1482,1503,1521,1542,1562,1581,1602,1622,1641,1661],"xSR":733.5,"ySR":475.15000000000003,"xT1":420.09999999999997,"yT1":0,"xT2":1046.8999999999999,"yT2":0,"toosoon":0,"cond_shown":"randomdotsizeEA","ratio_trial":750,"smaller_num":"6","larger_num":"8","correct_side":1,"subjID":"sofiafandiñotorres12","gender":"1","age":"11","school":"6"},{"start_time":1551790979293,"click_time":1551790980812,"finger_time":1551790980073,"fix_duration":1079.5541549614309,"trial":17,"RT":780,"MT":739,"sideResp":1,"stimulus":"img/900/randomdotsizeEA/L/2_Ratio_900_L_20_R_18.png","xmouse":[772,772,786,786,786,786,786,786,786,786,786,786,786,786,786,786,786,786,786,786,786,786,786,786,786,786,786,786,786,786,786,786,783,775,766,749,744,734,689,672,661,634,619,606,606,603,601,595,594,594,594,593,593,592,592,592,592,592,571,564,552,545,537,534,534,531,529,529,529,529,529,529,526,513,502,474],"ymouse":[528,528,531,531,531,531,531,531,531,531,531,531,531,531,531,531,531,531,531,531,531,531,531,531,531,531,531,531,531,531,531,531,531,528,519,501,495,480,408,379,365,329,315,305,305,299,296,286,285,285,285,283,283,282,282,282,282,282,256,246,228,215,188,176,176,168,161,158,158,158,158,158,155,139,124,96],"timestamp_mouse":[32,39,59,79,99,120,140,160,179,199,220,240,259,279,300,319,340,359,380,400,420,439,459,479,500,519,540,560,579,600,619,640,660,679,699,720,739,759,780,799,820,839,859,879,900,919,939,959,979,1000,1019,1039,1059,1080,1099,1121,1139,1159,1179,1200,1220,1239,1260,1279,1299,1319,1340,1361,1380,1400,1420,1439,1460,1479,1500,1519],"xSR":733.5,"ySR":475.15000000000003,"xT1":420.09999999999997,"yT1":0,"xT2":1046.8999999999999,"yT2":0,"toosoon":0,"cond_shown":"randomdotsizeEA","ratio_trial":900,"smaller_num":"18","larger_num":"20","correct_side":1,"subjID":"sofiafandiñotorres12","gender":"1","age":"11","school":"6"},{"start_time":1551790983070,"click_time":1551790984212,"finger_time":1551790983933,"fix_duration":1036.872190764295,"trial":18,"RT":863,"MT":279,"sideResp":2,"stimulus":"img/500/randomdotsizeEA/R/15_Ratio_500_L_1_R_2.png","xmouse":[774,774,774,774,774,774,774,774,774,774,774,774,774,774,774,774,774,774,774,774,773,773,773,772,771,767,763,763,763,763,763,762,762,761,760,757,757,757,757,758,766,766,768,784,807,839,869,906,931,976,1035,1048,1057,1058,1058,1066,1073,1083],"ymouse":[531,531,531,531,531,531,531,531,531,531,531,531,531,531,531,531,531,531,531,531,532,532,532,533,533,533,534,534,534,534,534,534,534,534,534,535,535,535,534,530,512,511,506,475,445,426,409,389,374,350,306,287,266,245,221,166,141,98],"timestamp_mouse":[8,39,43,62,83,102,122,142,163,184,202,223,242,262,282,302,322,342,362,383,403,422,443,463,483,501,523,542,562,582,602,621,642,662,682,702,723,743,763,782,802,822,843,863,883,902,922,942,962,982,1002,1021,1041,1062,1083,1102,1122,1141],"xSR":733.5,"ySR":475.15000000000003,"xT1":420.09999999999997,"yT1":0,"xT2":1046.8999999999999,"yT2":0,"toosoon":0,"cond_shown":"randomdotsizeEA","ratio_trial":500,"smaller_num":"1","larger_num":"2","correct_side":2,"subjID":"sofiafandiñotorres12","gender":"1","age":"11","school":"6"},{"start_time":1551790985314,"click_time":1551790986272,"finger_time":1551790985972,"fix_duration":340.25952791669147,"trial":19,"RT":658,"MT":300,"sideResp":2,"stimulus":"img/500/randomdotsizeEA/R/15_Ratio_500_L_1_R_2.png","xmouse":[813,812,812,812,812,812,812,811,811,811,811,811,811,811,811,811,811,811,810,810,810,810,810,810,810,810,810,810,810,810,810,813,828,837,872,889,900,945,958,967,973,977,987,991,1008,1024,1043,1071],"ymouse":[506,506,506,506,506,506,506,506,506,506,506,506,506,506,506,506,506,506,506,506,506,506,506,506,506,506,506,506,506,506,500,495,472,450,379,358,339,269,248,233,221,211,181,172,143,126,111,83],"timestamp_mouse":[18,39,58,79,98,119,139,158,179,198,218,238,258,278,299,318,339,358,378,398,419,439,457,478,499,519,539,558,579,598,618,638,657,677,715,717,738,758,778,798,818,838,858,878,898,918,938,958],"xSR":733.5,"ySR":475.15000000000003,"xT1":420.09999999999997,"yT1":0,"xT2":1046.8999999999999,"yT2":0,"toosoon":0,"cond_shown":"randomdotsizeEA","ratio_trial":500,"smaller_num":"1","larger_num":"2","correct_side":2,"subjID":"sofiafandiñotorres12","gender":"1","age":"11","school":"6"},{"start_time":1551790988728,"click_time":1551790989972,"finger_time":1551790989512,"fix_duration":874.4992240191607,"trial":20,"RT":784,"MT":460,"sideResp":1,"stimulus":"img/750/randomdotsizeEA/L/6_Ratio_750_L_24_R_18.png","xmouse":[784,784,784,784,784,784,784,784,784,786,786,786,786,786,786,786,786,786,786,786,786,786,786,786,786,786,786,788,788,788,788,788,788,786,776,774,766,750,750,739,739,737,736,734,733,732,732,732,732,732,732,729,722,718,701,684,684,630,599,559,515,506,464],"ymouse":[539,539,537,537,536,536,536,536,536,534,534,534,534,534,534,534,534,534,534,534,534,534,534,534,534,534,532,525,520,516,516,516,516,512,502,501,496,479,479,459,459,454,452,447,444,442,419,409,409,409,409,399,385,379,357,338,338,276,240,186,128,108,21],"timestamp_mouse":[9,23,59,65,84,104,125,144,163,184,204,225,244,264,284,304,324,344,363,385,403,424,445,464,484,505,524,544,564,584,604,625,643,664,684,705,724,744,764,784,804,825,844,865,884,904,924,943,964,985,1004,1024,1044,1065,1084,1104,1124,1144,1163,1184,1203,1224,1244],"xSR":733.5,"ySR":475.15000000000003,"xT1":420.09999999999997,"yT1":0,"xT2":1046.8999999999999,"yT2":0,"toosoon":0,"cond_shown":"randomdotsizeEA","ratio_trial":750,"smaller_num":"18","larger_num":"24","correct_side":1,"subjID":"sofiafandiñotorres12","gender":"1","age":"11","school":"6"},{"start_time":1551790991836,"click_time":1551790993233,"finger_time":1551790992652,"fix_duration":1203.8405628524752,"trial":21,"RT":816,"MT":581,"sideResp":1,"stimulus":"img/900/equaldotanddens/R/11_Ratio_900_L_18_R_20.png","xmouse":[804,801,797,795,793,791,787,787,787,787,787,787,787,787,787,787,787,787,787,787,787,787,787,787,787,787,787,787,787,787,787,787,787,787,787,784,781,780,770,757,727,678,668,664,641,630,605,592,574,562,552,534,526,525,524,522,519,518,517,517,517,517,517,516,516,515,511,510,507,506],"ymouse":[554,554,554,554,554,554,554,554,554,554,554,554,554,554,554,554,554,554,554,554,554,554,554,554,554,554,554,554,554,554,554,554,554,554,554,552,546,543,527,505,455,367,354,347,316,300,268,253,226,206,189,152,137,134,130,125,116,114,112,112,112,112,112,111,111,108,104,103,100,97],"timestamp_mouse":[20,36,56,76,96,116,136,156,176,196,215,238,256,277,295,316,335,357,377,396,417,436,456,476,497,517,535,557,576,596,617,636,656,676,696,716,735,756,776,796,816,835,856,876,895,916,936,957,976,996,1016,1036,1056,1076,1096,1116,1136,1157,1176,1197,1217,1236,1257,1277,1296,1317,1336,1356,1376,1397],"xSR":733.5,"ySR":475.15000000000003,"xT1":420.09999999999997,"yT1":0,"xT2":1046.8999999999999,"yT2":0,"toosoon":0,"cond_shown":"equaldotanddens","ratio_trial":900,"smaller_num":"18","larger_num":"20","correct_side":2,"subjID":"sofiafandiñotorres12","gender":"1","age":"11","school":"6"},{"start_time":1551790994934,"click_time":1551790995872,"finger_time":1551790995732,"fix_duration":760.9864801663805,"trial":22,"RT":798,"MT":140,"sideResp":1,"stimulus":"img/500/equaldotanddens/L/10_Ratio_500_L_4_R_2.png","xmouse":[778,778,778,778,778,778,778,778,778,778,778,778,778,778,778,778,778,778,778,778,778,778,778,778,778,778,775,773,767,761,757,756,756,756,756,756,756,755,755,755,755,753,744,730,676,622,450],"ymouse":[509,509,509,509,509,509,509,509,509,509,509,509,509,509,509,509,509,509,509,509,509,509,509,509,509,509,510,511,512,513,514,514,514,514,514,514,514,504,485,464,443,417,394,355,276,216,68],"timestamp_mouse":[18,45,58,79,98,118,139,158,179,197,218,238,258,278,298,319,338,358,378,398,418,439,458,479,498,518,538,558,578,598,619,639,657,679,699,717,738,758,778,798,818,838,858,878,899,918,938],"xSR":733.5,"ySR":475.15000000000003,"xT1":420.09999999999997,"yT1":0,"xT2":1046.8999999999999,"yT2":0,"toosoon":0,"cond_shown":"equaldotanddens","ratio_trial":500,"smaller_num":"2","larger_num":"4","correct_side":1,"subjID":"sofiafandiñotorres12","gender":"1","age":"11","school":"6"},{"start_time":1551791000673,"click_time":1551791002472,"finger_time":1551791001352,"fix_duration":1240.8440718161785,"trial":23,"RT":679,"MT":1120,"sideResp":1,"stimulus":"img/500/equaldotsize/L/7_Ratio_500_L_10_R_5.png","xmouse":[751,751,751,751,751,755,757,760,778,786,787,787,787,787,787,787,787,787,787,787,787,787,787,787,787,787,787,784,780,774,771,764,747,725,599,587,567,567,567,567,565,562,561,555,551,549,542,534,534,522,522,522,522,522,526,526,528,531,535,535,535,535,535,535,533,529,521,515,515,514,511,510,510,510,518,522,522,526,529,532,534,534,536,536,536,536,532,528,523,512],"ymouse":[490,490,490,490,490,490,490,490,496,497,498,498,498,498,498,498,498,498,498,498,498,498,498,498,498,498,498,498,498,499,499,498,492,480,417,412,404,404,404,404,399,390,389,375,361,352,337,322,322,302,302,302,302,301,293,293,289,275,259,258,258,258,258,258,248,239,217,207,206,205,199,196,196,196,164,149,149,131,109,90,67,67,52,40,34,34,34,34,36,44],"timestamp_mouse":[19,40,63,80,99,120,139,159,178,199,219,240,259,280,299,319,338,359,380,400,419,439,459,479,499,519,539,559,579,599,619,639,659,678,699,719,739,760,780,799,819,839,859,879,899,919,939,960,979,999,1020,1040,1059,1080,1099,1119,1139,1159,1180,1199,1220,1239,1259,1279,1299,1319,1338,1359,1379,1399,1418,1439,1459,1479,1499,1519,1539,1559,1579,1599,1619,1639,1659,1679,1699,1719,1739,1760,1779,1799],"xSR":733.5,"ySR":475.15000000000003,"xT1":420.09999999999997,"yT1":0,"xT2":1046.8999999999999,"yT2":0,"toosoon":0,"cond_shown":"equaldotsize","ratio_trial":500,"smaller_num":"5","larger_num":"10","correct_side":1,"subjID":"sofiafandiñotorres12","gender":"1","age":"11","school":"6"},{"start_time":1551791003750,"click_time":1551791005153,"finger_time":1551791004593,"fix_duration":336.3201366298988,"trial":24,"RT":843,"MT":560,"sideResp":2,"stimulus":"img/250/equaldotsize/R/8_Ratio_250_L_1_R_4.png","xmouse":[777,777,777,777,777,777,777,777,777,777,777,777,777,777,777,777,777,777,777,777,777,777,777,777,777,777,777,777,777,777,777,777,777,777,777,777,777,777,777,774,773,765,751,735,704,689,679,679,684,690,695,748,772,806,872,938,1009,1017,1020,1021,1021,1021,1021,1021,1022,1023,1023,1025,1030,1042,1056],"ymouse":[494,494,494,494,494,494,494,494,494,494,494,494,494,494,494,494,494,494,494,494,494,494,494,494,494,494,494,494,494,494,494,494,494,494,494,494,494,494,494,495,495,490,475,453,412,393,370,370,358,349,345,319,306,286,250,217,162,147,137,133,129,127,127,127,126,125,121,119,115,109,99],"timestamp_mouse":[10,34,41,62,82,102,122,142,163,183,203,222,243,263,281,302,322,342,362,383,403,422,441,463,482,502,521,542,562,583,603,621,642,663,682,702,722,743,762,782,802,822,843,862,882,902,922,942,962,981,1002,1022,1042,1062,1082,1102,1122,1142,1162,1182,1202,1221,1242,1262,1282,1302,1321,1341,1362,1382,1403],"xSR":733.5,"ySR":475.15000000000003,"xT1":420.09999999999997,"yT1":0,"xT2":1046.8999999999999,"yT2":0,"toosoon":0,"cond_shown":"equaldotsize","ratio_trial":250,"smaller_num":"1","larger_num":"4","correct_side":2,"subjID":"sofiafandiñotorres12","gender":"1","age":"11","school":"6"},{"start_time":1551791006266,"click_time":1551791007513,"finger_time":1551791007052,"fix_duration":291.04915661198885,"trial":25,"RT":786,"MT":461,"sideResp":2,"stimulus":"img/250/randomdotsizeEA/R/9_Ratio_250_L_3_R_12.png","xmouse":[763,763,763,763,763,763,763,763,763,763,763,763,763,763,763,763,763,763,763,763,763,763,763,763,763,763,763,763,763,763,763,763,763,763,763,764,772,780,797,818,882,927,958,976,982,998,1007,1015,1024,1034,1043,1046,1047,1051,1051,1061,1063,1064,1064,1064,1064,1064,1066],"ymouse":[526,526,526,526,526,526,526,526,526,526,526,526,526,526,526,526,526,526,526,526,526,526,526,526,526,526,526,526,526,526,526,526,526,526,526,526,518,506,488,466,407,369,345,332,329,308,286,267,250,239,199,180,176,155,135,109,105,101,101,101,101,100,99],"timestamp_mouse":[11,26,47,67,87,105,126,147,167,187,206,226,247,266,285,307,327,346,366,387,407,426,446,467,486,505,526,547,567,586,605,627,647,666,686,706,726,746,766,786,806,826,846,866,886,906,926,946,967,986,1005,1026,1047,1066,1086,1106,1125,1146,1167,1186,1206,1225,1247],"xSR":733.5,"ySR":475.15000000000003,"xT1":420.09999999999997,"yT1":0,"xT2":1046.8999999999999,"yT2":0,"toosoon":0,"cond_shown":"randomdotsizeEA","ratio_trial":250,"smaller_num":"3","larger_num":"12","correct_side":2,"subjID":"sofiafandiñotorres12","gender":"1","age":"11","school":"6"},{"start_time":1551791009825,"click_time":1551791010953,"finger_time":1551791010471,"fix_duration":1491.7967251924354,"trial":26,"RT":646,"MT":482,"sideResp":1,"stimulus":"img/900/equaldotanddens/R/7_Ratio_900_L_9_R_10.png","xmouse":[778,778,778,778,778,778,778,778,778,778,778,778,778,778,778,778,778,778,778,778,778,778,778,778,778,778,778,778,778,778,776,771,737,733,711,706,655,642,635,626,621,618,611,607,606,606,603,580,580,571,570,565,554,540,527,522,515],"ymouse":[513,513,513,513,513,513,513,513,513,513,513,513,513,513,513,513,513,513,513,513,513,513,513,513,513,513,513,513,513,513,512,506,466,460,437,431,369,355,342,324,311,301,283,278,277,277,274,242,241,222,219,208,178,145,118,108,98],"timestamp_mouse":[8,27,60,67,88,107,128,148,168,187,207,227,248,268,287,307,328,348,368,388,408,427,447,466,487,508,528,548,568,587,608,627,646,668,687,707,727,747,767,787,807,827,846,866,887,907,928,947,967,986,1007,1027,1046,1066,1088,1107,1128],"xSR":733.5,"ySR":475.15000000000003,"xT1":420.09999999999997,"yT1":0,"xT2":1046.8999999999999,"yT2":0,"toosoon":0,"cond_shown":"equaldotanddens","ratio_trial":900,"smaller_num":"9","larger_num":"10","correct_side":2,"subjID":"sofiafandiñotorres12","gender":"1","age":"11","school":"6"},{"start_time":1551791012987,"click_time":1551791014273,"finger_time":1551791013633,"fix_duration":1293.3644192912138,"trial":27,"RT":646,"MT":640,"sideResp":2,"stimulus":"img/250/equaldotanddens/R/10_Ratio_250_L_4_R_16.png","xmouse":[780,780,780,780,780,780,780,780,780,780,780,780,780,780,780,780,780,780,780,780,780,780,780,780,780,780,780,780,780,780,810,821,821,821,821,823,840,869,869,900,928,936,948,957,967,971,974,981,982,999,1014,1037,1046,1046,1046,1046,1046,1046,1046,1046,1046,1046,1046,1046,1066],"ymouse":[528,528,528,528,528,528,528,528,528,528,528,528,528,528,528,528,528,528,528,528,528,528,528,528,528,528,528,528,528,528,495,476,467,463,452,438,410,379,379,345,307,291,275,256,231,220,216,197,194,133,87,34,14,14,14,14,14,14,14,14,14,14,14,14,30],"timestamp_mouse":[8,38,46,66,85,105,125,145,165,186,206,226,246,265,285,305,326,346,366,386,405,426,446,464,486,505,526,546,566,585,605,625,646,666,685,704,725,745,764,785,805,824,845,865,885,905,925,945,965,985,1005,1024,1046,1065,1085,1105,1125,1145,1166,1185,1204,1225,1246,1264,1286],"xSR":733.5,"ySR":475.15000000000003,"xT1":420.09999999999997,"yT1":0,"xT2":1046.8999999999999,"yT2":0,"toosoon":0,"cond_shown":"equaldotanddens","ratio_trial":250,"smaller_num":"4","larger_num":"16","correct_side":2,"subjID":"sofiafandiñotorres12","gender":"1","age":"11","school":"6"},{"start_time":1551791016512,"click_time":1551791017372,"finger_time":1551791017192,"fix_duration":1219.4464706593533,"trial":28,"RT":680,"MT":180,"sideResp":1,"stimulus":"img/900/equaldotanddens/L/10_Ratio_900_L_20_R_18.png","xmouse":[783,782,781,781,781,781,781,781,781,781,781,781,781,781,781,781,781,781,781,781,781,781,781,781,781,781,781,781,781,780,778,777,765,750,727,700,673,664,545,535,535,533,517,509],"ymouse":[524,521,520,520,520,520,520,520,520,520,520,520,520,520,520,520,520,520,520,520,520,520,520,520,520,520,520,520,520,519,519,519,508,498,478,450,402,390,172,139,139,137,107,89],"timestamp_mouse":[1,20,41,61,80,101,119,141,159,180,201,220,240,260,281,300,320,341,360,380,401,420,440,460,481,501,521,541,560,579,600,620,640,660,680,700,721,740,760,781,800,820,839,860],"xSR":733.5,"ySR":475.15000000000003,"xT1":420.09999999999997,"yT1":0,"xT2":1046.8999999999999,"yT2":0,"toosoon":0,"cond_shown":"equaldotanddens","ratio_trial":900,"smaller_num":"18","larger_num":"20","correct_side":1,"subjID":"sofiafandiñotorres12","gender":"1","age":"11","school":"6"},{"start_time":1551791019508,"click_time":1551791020672,"finger_time":1551791020172,"fix_duration":1295.9291014384248,"trial":29,"RT":664,"MT":500,"sideResp":1,"stimulus":"img/250/equaldotanddens/L/2_Ratio_250_L_16_R_4.png","xmouse":[769,771,772,775,775,775,776,776,776,776,776,776,776,776,776,776,776,776,776,776,776,776,776,776,776,776,773,767,753,751,751,744,739,714,694,689,652,645,566,533,513,506,489,487,477,464,458,458,458,461,468,482,487,494,494,494,494,495,495],"ymouse":[522,520,520,517,517,517,516,516,516,516,516,516,516,516,516,516,516,516,516,516,516,516,516,516,516,516,516,518,519,518,518,513,508,478,458,453,413,406,327,291,272,263,244,242,223,190,169,160,150,145,138,128,123,105,102,101,101,100,99],"timestamp_mouse":[9,23,47,64,85,105,124,144,165,184,204,224,244,264,285,303,324,344,364,384,404,425,445,464,485,503,525,544,564,584,604,623,645,664,684,704,724,744,763,784,804,824,845,864,884,903,923,943,964,983,1003,1025,1044,1063,1083,1104,1125,1144,1164],"xSR":733.5,"ySR":475.15000000000003,"xT1":420.09999999999997,"yT1":0,"xT2":1046.8999999999999,"yT2":0,"toosoon":0,"cond_shown":"equaldotanddens","ratio_trial":250,"smaller_num":"4","larger_num":"16","correct_side":1,"subjID":"sofiafandiñotorres12","gender":"1","age":"11","school":"6"},{"start_time":1551791023144,"click_time":1551791024072,"finger_time":1551791023952,"fix_duration":250,"trial":30,"RT":808,"MT":120,"sideResp":1,"stimulus":"img/250/equaldotsize/L/15_Ratio_250_L_12_R_3.png","xmouse":[796,796,796,796,796,796,796,796,796,796,796,796,796,796,796,796,796,796,796,796,796,796,796,796,796,796,796,796,796,795,793,782,782,782,782,782,774,762,762,747,739,713,682,591,545,520,476],"ymouse":[550,550,550,550,550,550,550,550,550,550,550,550,550,550,550,550,550,550,550,550,550,550,550,550,550,550,550,550,550,548,547,527,527,527,527,525,511,493,493,476,467,438,402,294,228,184,98],"timestamp_mouse":[8,40,49,69,88,108,128,148,168,188,208,228,248,268,287,308,328,347,368,387,408,428,448,468,488,508,528,548,568,587,608,627,647,668,689,707,728,748,767,787,808,828,848,867,887,908,928],"xSR":733.5,"ySR":475.15000000000003,"xT1":420.09999999999997,"yT1":0,"xT2":1046.8999999999999,"yT2":0,"toosoon":0,"cond_shown":"equaldotsize","ratio_trial":250,"smaller_num":"3","larger_num":"12","correct_side":1,"subjID":"sofiafandiñotorres12","gender":"1","age":"11","school":"6"},{"start_time":1551791025834,"click_time":1551791027212,"finger_time":1551791026552,"fix_duration":761.8634582484997,"trial":31,"RT":718,"MT":660,"sideResp":2,"stimulus":"img/500/equaldotsize/R/3_Ratio_500_L_10_R_20.png","xmouse":[786,786,786,786,786,786,786,786,786,786,786,786,786,786,786,786,786,786,786,786,786,786,786,786,786,786,786,786,786,786,786,786,789,805,810,821,887,922,955,962,966,972,977,981,982,987,994,995,995,999,1000,1005,1017,1021,1025,1029,1034,1035,1035,1039,1043,1046,1046,1046,1046,1046,1046,1046,1050],"ymouse":[501,501,501,501,501,501,501,501,501,501,501,501,501,501,501,501,501,501,501,501,501,501,501,501,501,501,501,501,501,501,501,501,496,481,477,470,422,391,340,328,320,297,280,258,255,237,203,176,157,145,144,134,119,114,110,106,104,103,103,102,102,100,100,100,100,100,100,100,98],"timestamp_mouse":[18,40,58,78,98,118,139,158,178,199,217,239,258,277,298,319,339,358,377,398,419,438,457,478,499,518,538,558,578,597,617,639,657,679,698,718,738,759,778,798,818,838,857,878,898,919,938,958,977,999,1018,1039,1057,1078,1098,1118,1138,1158,1177,1198,1218,1238,1258,1279,1298,1318,1338,1358,1377],"xSR":733.5,"ySR":475.15000000000003,"xT1":420.09999999999997,"yT1":0,"xT2":1046.8999999999999,"yT2":0,"toosoon":0,"cond_shown":"equaldotsize","ratio_trial":500,"smaller_num":"10","larger_num":"20","correct_side":2,"subjID":"sofiafandiñotorres12","gender":"1","age":"11","school":"6"},{"start_time":1551791028724,"click_time":1551791029972,"finger_time":1551791029572,"fix_duration":250,"trial":32,"RT":848,"MT":400,"sideResp":1,"stimulus":"img/750/equaldotanddens/L/9_Ratio_750_L_4_R_3.png","xmouse":[785,785,785,785,785,785,785,785,785,785,785,785,785,786,786,786,787,787,787,787,787,787,787,787,787,787,787,787,787,787,787,787,787,787,787,787,787,787,787,787,787,785,773,768,730,728,715,700,687,676,676,666,645,639,630,630,624,598,583,559,532,502,450],"ymouse":[483,483,483,483,483,483,483,483,483,483,483,483,483,484,486,487,487,487,487,487,487,487,487,488,489,490,490,490,490,490,490,490,490,490,490,490,490,490,490,490,490,488,466,454,363,360,331,302,272,240,239,215,169,154,136,136,132,120,118,115,110,106,97],"timestamp_mouse":[13,28,60,68,88,108,129,148,168,189,207,229,248,268,288,309,328,348,368,389,408,429,447,469,488,509,528,548,569,588,609,628,648,668,688,709,728,748,769,789,808,829,848,869,888,907,928,947,968,988,1008,1029,1048,1068,1088,1107,1129,1149,1168,1188,1207,1228,1247],"xSR":733.5,"ySR":475.15000000000003,"xT1":420.09999999999997,"yT1":0,"xT2":1046.8999999999999,"yT2":0,"toosoon":0,"cond_shown":"equaldotanddens","ratio_trial":750,"smaller_num":"3","larger_num":"4","correct_side":1,"subjID":"sofiafandiñotorres12","gender":"1","age":"11","school":"6"},{"start_time":1551791031598,"click_time":1551791033053,"finger_time":1551791032392,"fix_duration":722.0585243655785,"trial":33,"RT":794,"MT":661,"sideResp":2,"stimulus":"img/900/equaldotsize/L/1_Ratio_900_L_10_R_9.png","xmouse":[756,756,756,756,756,757,757,757,757,757,757,757,757,757,757,757,757,757,757,757,757,757,757,757,757,757,757,757,757,757,757,757,757,757,757,757,762,770,786,847,860,878,882,970,1047,1103,1133,1142,1160,1179,1207,1207,1207,1207,1207,1207,1207,1203,1184,1167,1157,1154,1154,1154,1151,1151,1151,1150,1149,1149,1149,1147,1143],"ymouse":[502,502,502,502,502,502,502,502,502,502,502,502,502,502,502,502,502,502,502,502,502,502,502,502,502,502,502,502,502,502,502,502,502,502,502,502,500,494,478,409,393,376,371,308,255,219,194,185,166,154,137,137,137,136,134,133,133,127,109,98,91,88,88,87,86,86,86,86,86,86,86,86,86],"timestamp_mouse":[14,49,55,74,94,115,134,154,175,194,215,234,254,274,294,314,334,354,374,394,414,435,453,474,494,514,534,555,574,594,614,635,653,674,694,714,733,754,774,794,813,834,854,873,894,914,934,954,974,994,1014,1035,1053,1074,1094,1114,1134,1155,1173,1194,1214,1235,1253,1274,1294,1315,1333,1354,1374,1395,1414,1434,1455],"xSR":733.5,"ySR":475.15000000000003,"xT1":420.09999999999997,"yT1":0,"xT2":1046.8999999999999,"yT2":0,"toosoon":0,"cond_shown":"equaldotsize","ratio_trial":900,"smaller_num":"9","larger_num":"10","correct_side":1,"subjID":"sofiafandiñotorres12","gender":"1","age":"11","school":"6"},{"start_time":1551791034256,"click_time":1551791035572,"finger_time":1551791034872,"fix_duration":323.0000616499259,"trial":34,"RT":616,"MT":700,"sideResp":2,"stimulus":"img/750/equaldotanddens/R/4_Ratio_750_L_15_R_20.png","xmouse":[789,789,789,789,789,789,789,789,789,789,789,789,789,789,789,789,789,789,789,789,789,789,789,789,789,789,789,792,799,817,829,848,919,958,958,964,969,1013,1026,1037,1057,1058,1061,1061,1061,1072,1073,1073,1072,1072,1072,1074,1080,1085,1085,1087,1087,1087,1087,1087,1088,1088,1088,1088,1090,1092],"ymouse":[504,504,504,504,504,504,504,504,504,504,504,504,504,504,504,504,504,504,504,504,504,504,504,504,504,504,504,503,497,482,471,456,399,371,371,366,362,318,303,287,253,251,243,242,242,208,204,203,197,189,172,160,144,135,135,130,128,128,126,121,115,115,115,115,109,99],"timestamp_mouse":[15,46,57,75,97,116,136,157,176,197,216,236,257,276,296,316,336,356,376,395,416,436,455,476,496,516,537,556,577,596,616,637,656,676,696,716,737,755,777,796,816,835,856,877,897,916,936,956,975,995,1016,1036,1056,1076,1096,1116,1137,1157,1176,1196,1216,1236,1256,1276,1297,1316],"xSR":733.5,"ySR":475.15000000000003,"xT1":420.09999999999997,"yT1":0,"xT2":1046.8999999999999,"yT2":0,"toosoon":0,"cond_shown":"equaldotanddens","ratio_trial":750,"smaller_num":"15","larger_num":"20","correct_side":2,"subjID":"sofiafandiñotorres12","gender":"1","age":"11","school":"6"},{"start_time":1551791037238,"click_time":1551791038313,"finger_time":1551791037993,"fix_duration":845.6189382994894,"trial":35,"RT":755,"MT":320,"sideResp":2,"stimulus":"img/750/equaldotsize/R/12_Ratio_750_L_3_R_4.png","xmouse":[769,769,769,769,769,769,769,769,769,769,769,769,769,769,769,769,769,769,769,769,769,769,769,769,769,769,769,769,769,769,769,769,769,769,769,780,832,856,916,956,961,1057,1102,1116,1116,1118,1119,1119,1119,1119,1119,1121,1121,1121],"ymouse":[529,529,529,529,529,529,529,529,529,529,529,529,529,529,529,529,529,529,529,529,529,529,529,529,529,529,529,529,529,529,529,529,529,529,529,521,484,468,423,398,394,334,299,283,281,274,269,269,263,250,225,133,100,89],"timestamp_mouse":[14,44,54,74,95,115,135,154,175,194,214,234,254,275,295,314,335,354,374,394,414,434,455,475,494,515,534,555,575,594,615,634,655,675,693,714,734,755,774,795,815,834,855,875,894,914,934,954,973,995,1014,1034,1054,1074],"xSR":733.5,"ySR":475.15000000000003,"xT1":420.09999999999997,"yT1":0,"xT2":1046.8999999999999,"yT2":0,"toosoon":0,"cond_shown":"equaldotsize","ratio_trial":750,"smaller_num":"3","larger_num":"4","correct_side":2,"subjID":"sofiafandiñotorres12","gender":"1","age":"11","school":"6"},{"start_time":1551791042489,"click_time":1551791044312,"finger_time":1551791043971,"fix_duration":1075.371211607782,"trial":36,"RT":1482,"MT":341,"sideResp":2,"stimulus":"img/500/randomdotsizeEA/L/8_Ratio_500_L_8_R_4.png","xmouse":[778,778,778,778,778,778,778,778,778,778,778,778,778,778,778,778,778,778,778,778,778,778,778,777,777,777,777,777,777,777,777,777,777,777,777,777,777,777,777,777,777,777,777,777,777,777,777,777,777,777,777,777,777,777,777,777,777,777,777,777,777,777,777,777,777,778,782,787,787,798,800,803,814,821,843,872,879,879,885,895,904,915,922,922,922,922,924,929,937,999,1035,1090],"ymouse":[520,520,520,520,520,520,520,520,520,520,520,520,520,520,520,520,520,520,520,520,520,520,520,520,520,520,520,520,520,520,520,520,520,520,520,520,520,520,520,520,520,520,520,520,520,520,520,520,520,520,520,520,520,520,520,520,520,520,520,520,520,520,520,520,520,520,520,516,516,503,502,499,492,487,472,438,429,428,418,403,388,370,353,353,353,353,350,337,319,180,109,28],"timestamp_mouse":[8,24,47,64,83,104,123,144,164,183,203,223,244,263,283,304,324,343,364,383,403,424,443,464,482,504,523,543,563,583,604,623,643,663,683,703,724,742,764,784,804,824,843,864,883,904,923,944,963,983,1003,1024,1043,1062,1082,1103,1123,1143,1163,1182,1205,1223,1244,1262,1284,1303,1322,1344,1363,1382,1402,1423,1443,1462,1482,1502,1522,1543,1562,1582,1603,1623,1644,1663,1683,1702,1722,1743,1763,1783,1802,1823],"xSR":733.5,"ySR":475.15000000000003,"xT1":420.09999999999997,"yT1":0,"xT2":1046.8999999999999,"yT2":0,"toosoon":0,"cond_shown":"randomdotsizeEA","ratio_trial":500,"smaller_num":"4","larger_num":"8","correct_side":1,"subjID":"sofiafandiñotorres12","gender":"1","age":"11","school":"6"},{"start_time":1551791046689,"click_time":1551791048411,"finger_time":1551791047371,"fix_duration":935.261381707992,"trial":37,"RT":682,"MT":1040,"sideResp":1,"stimulus":"img/500/equaldotanddens/L/4_Ratio_500_L_18_R_9.png","xmouse":[752,752,752,752,752,752,752,752,752,752,752,752,752,752,752,752,752,752,752,752,752,752,752,752,752,752,752,752,752,752,752,752,752,752,750,747,746,745,745,737,735,720,699,672,640,610,559,540,491,491,491,491,491,491,491,491,491,491,491,491,491,388,399,420,450,459,475,479,479,479,479,480,480,482,484,487,488,490,491,493,493,493,493,493,494,494,494],"ymouse":[519,519,519,519,519,519,519,519,519,519,519,519,519,519,519,519,519,519,519,519,519,519,519,519,519,519,519,519,519,519,519,510,490,479,469,465,463,460,454,435,429,409,369,335,289,239,144,102,0,0,0,0,0,0,0,0,0,0,0,0,0,20,46,90,137,148,166,168,168,168,168,168,168,167,156,145,140,129,119,111,110,110,110,110,108,104,98],"timestamp_mouse":[8,23,42,64,83,102,122,143,162,182,203,222,242,263,282,302,322,343,363,382,402,422,444,464,484,503,523,542,562,582,603,623,644,663,682,703,724,744,764,782,803,823,842,863,882,904,923,942,963,983,1003,1023,1043,1063,1082,1103,1122,1142,1163,1183,1202,1222,1243,1262,1282,1303,1322,1343,1362,1383,1404,1424,1443,1464,1482,1503,1522,1544,1563,1583,1603,1622,1643,1663,1682,1702,1722],"xSR":733.5,"ySR":475.15000000000003,"xT1":420.09999999999997,"yT1":0,"xT2":1046.8999999999999,"yT2":0,"toosoon":0,"cond_shown":"equaldotanddens","ratio_trial":500,"smaller_num":"9","larger_num":"18","correct_side":1,"subjID":"sofiafandiñotorres12","gender":"1","age":"11","school":"6"},{"start_time":1551791049824,"click_time":1551791051171,"finger_time":1551791050731,"fix_duration":250,"trial":38,"RT":907,"MT":440,"sideResp":1,"stimulus":"img/900/equaldotanddens/L/2_Ratio_900_L_20_R_18.png","xmouse":[741,741,741,741,743,744,744,744,745,746,746,746,746,746,746,746,746,746,746,746,746,746,746,746,746,746,746,746,746,746,746,746,746,746,746,746,746,746,746,747,748,749,749,749,749,747,745,724,714,708,708,698,670,659,655,645,635,618,608,586,574,569,539,517,497,479,470,466],"ymouse":[528,528,528,528,527,527,527,527,526,526,526,526,526,526,526,526,526,526,526,526,526,526,526,526,526,526,526,526,526,526,526,526,526,526,526,526,526,526,526,525,525,520,504,492,486,472,468,428,410,403,402,380,337,318,311,296,269,237,224,199,187,183,156,136,124,113,105,91],"timestamp_mouse":[11,34,47,67,89,107,129,147,168,187,209,227,247,268,287,308,329,347,369,387,407,427,447,468,488,507,529,548,568,588,607,629,647,669,689,708,728,747,768,788,807,828,848,868,888,907,928,947,967,987,1009,1028,1049,1067,1088,1107,1128,1147,1168,1187,1207,1227,1247,1268,1289,1307,1327,1347],"xSR":733.5,"ySR":475.15000000000003,"xT1":420.09999999999997,"yT1":0,"xT2":1046.8999999999999,"yT2":0,"toosoon":0,"cond_shown":"equaldotanddens","ratio_trial":900,"smaller_num":"18","larger_num":"20","correct_side":1,"subjID":"sofiafandiñotorres12","gender":"1","age":"11","school":"6"},{"start_time":1551791052828,"click_time":1551791053752,"finger_time":1551791053592,"fix_duration":394.0619217247859,"trial":39,"RT":764,"MT":160,"sideResp":1,"stimulus":"img/900/equaldotsize/R/13_Ratio_900_L_18_R_20.png","xmouse":[788,788,788,788,788,788,788,788,788,788,788,788,788,788,788,788,788,788,788,788,788,788,788,788,788,788,788,788,788,788,788,788,788,788,788,788,785,760,718,667,625,592,502,492,485,477,473],"ymouse":[550,550,550,550,550,550,550,550,550,550,550,550,550,550,550,550,550,550,550,550,550,550,550,550,550,550,550,550,550,550,550,550,550,550,547,546,539,503,457,400,356,312,180,156,131,103,83],"timestamp_mouse":[8,24,52,64,85,103,123,143,165,184,203,224,243,264,284,303,325,343,363,384,403,423,443,463,483,504,524,543,564,583,605,624,645,664,683,704,724,743,764,783,804,824,844,865,884,904,924],"xSR":733.5,"ySR":475.15000000000003,"xT1":420.09999999999997,"yT1":0,"xT2":1046.8999999999999,"yT2":0,"toosoon":0,"cond_shown":"equaldotsize","ratio_trial":900,"smaller_num":"18","larger_num":"20","correct_side":2,"subjID":"sofiafandiñotorres12","gender":"1","age":"11","school":"6"},{"start_time":1551791054942,"click_time":1551791055772,"finger_time":1551791055412,"fix_duration":268.6445650624064,"trial":40,"RT":470,"MT":360,"sideResp":2,"stimulus":"img/750/randomdotsizeEA/R/7_Ratio_750_L_3_R_4.png","xmouse":[784,784,784,784,784,784,784,784,784,784,784,784,784,784,784,784,784,786,788,793,797,799,802,803,803,803,803,803,803,803,800,798,796,792,790,790,814,841,879,921,976,1051],"ymouse":[539,539,539,539,539,539,539,539,539,539,539,539,539,539,539,539,535,525,514,497,484,479,476,472,472,472,472,472,472,472,468,464,462,450,438,422,308,234,164,116,73,34],"timestamp_mouse":[9,40,49,70,90,111,131,150,169,189,211,229,249,270,290,310,330,349,370,390,410,429,449,470,490,511,530,549,569,589,611,629,649,670,691,710,729,749,770,790,810,830],"xSR":733.5,"ySR":475.15000000000003,"xT1":420.09999999999997,"yT1":0,"xT2":1046.8999999999999,"yT2":0,"toosoon":0,"cond_shown":"randomdotsizeEA","ratio_trial":750,"smaller_num":"3","larger_num":"4","correct_side":2,"subjID":"sofiafandiñotorres12","gender":"1","age":"11","school":"6"},{"start_time":1551791058312,"click_time":1551791059232,"finger_time":1551791059051,"fix_duration":1459.9366651534322,"trial":41,"RT":739,"MT":181,"sideResp":1,"stimulus":"img/500/randomdotsizeEA/L/7_Ratio_500_L_10_R_5.png","xmouse":[805,807,807,808,809,809,809,809,809,809,809,809,809,809,809,809,809,809,809,809,809,809,809,809,809,809,809,808,808,808,808,808,808,808,807,788,759,709,671,625,581,554,528,523,521,516],"ymouse":[523,522,522,520,519,518,517,516,516,515,515,515,515,515,514,514,514,514,514,514,514,514,514,513,513,513,512,512,512,512,512,512,512,512,511,493,454,390,345,289,231,184,128,94,77,59],"timestamp_mouse":[21,39,59,79,99,119,139,159,181,199,219,240,260,281,300,320,339,360,379,399,419,440,459,479,500,519,539,560,580,599,620,640,661,681,699,721,739,760,779,800,820,839,859,879,899,920],"xSR":733.5,"ySR":475.15000000000003,"xT1":420.09999999999997,"yT1":0,"xT2":1046.8999999999999,"yT2":0,"toosoon":0,"cond_shown":"randomdotsizeEA","ratio_trial":500,"smaller_num":"5","larger_num":"10","correct_side":1,"subjID":"sofiafandiñotorres12","gender":"1","age":"11","school":"6"},{"start_time":1551791061300,"click_time":1551791062612,"finger_time":1551791062111,"fix_duration":1406.8426151607382,"trial":42,"RT":811,"MT":501,"sideResp":2,"stimulus":"img/750/equaldotsize/R/15_Ratio_750_L_9_R_12.png","xmouse":[794,794,794,794,794,794,794,794,794,794,794,794,794,794,794,794,794,794,794,794,794,794,794,794,794,794,794,794,793,793,793,793,793,793,792,792,793,796,805,815,829,836,844,877,890,906,917,927,938,940,944,951,958,977,980,984,991,1005,1042,1062,1072,1082,1084,1085,1088,1096],"ymouse":[526,526,526,526,526,526,526,526,526,526,526,526,526,526,526,526,526,526,526,526,526,526,526,526,526,526,526,526,527,527,527,527,527,527,527,525,520,515,500,487,468,456,442,385,357,317,292,267,225,221,206,188,176,155,151,149,146,140,124,116,109,105,104,103,102,98],"timestamp_mouse":[12,43,53,73,92,112,133,153,171,191,213,231,251,272,292,311,332,351,373,391,413,431,452,471,503,512,532,552,571,592,613,631,652,672,692,711,732,752,773,792,811,832,853,871,893,912,931,952,971,991,1011,1031,1052,1071,1091,1112,1132,1151,1172,1192,1211,1232,1252,1271,1292,1312],"xSR":733.5,"ySR":475.15000000000003,"xT1":420.09999999999997,"yT1":0,"xT2":1046.8999999999999,"yT2":0,"toosoon":0,"cond_shown":"equaldotsize","ratio_trial":750,"smaller_num":"9","larger_num":"12","correct_side":2,"subjID":"sofiafandiñotorres12","gender":"1","age":"11","school":"6"},{"start_time":1551791064396,"click_time":1551791065312,"finger_time":1551791065031,"fix_duration":983.2961588708279,"trial":43,"RT":635,"MT":281,"sideResp":2,"stimulus":"img/900/equaldotsize/R/3_Ratio_900_L_9_R_10.png","xmouse":[782,782,782,782,782,782,782,782,782,782,782,782,782,782,782,782,782,782,782,782,782,782,782,782,782,782,782,782,782,782,796,811,834,893,926,947,970,999,1028,1031,1033,1035,1037,1041,1045,1051],"ymouse":[517,517,517,517,517,517,517,517,517,517,517,517,517,517,517,517,517,517,517,517,517,517,517,517,517,517,517,517,516,514,494,471,435,332,271,233,200,161,121,115,110,106,101,93,87,81],"timestamp_mouse":[17,41,57,75,96,115,137,156,176,197,216,237,255,277,295,316,335,357,375,395,415,435,455,475,495,516,536,556,576,596,616,635,656,676,695,715,735,757,775,795,816,835,855,876,896,915],"xSR":733.5,"ySR":475.15000000000003,"xT1":420.09999999999997,"yT1":0,"xT2":1046.8999999999999,"yT2":0,"toosoon":0,"cond_shown":"equaldotsize","ratio_trial":900,"smaller_num":"9","larger_num":"10","correct_side":2,"subjID":"sofiafandiñotorres12","gender":"1","age":"11","school":"6"},{"start_time":1551791066586,"click_time":1551791067771,"finger_time":1551791067292,"fix_duration":473.9754846160282,"trial":44,"RT":706,"MT":479,"sideResp":1,"stimulus":"img/750/equaldotanddens/L/13_Ratio_750_L_8_R_6.png","xmouse":[768,768,768,768,768,768,768,768,768,768,768,768,768,768,768,768,768,768,768,768,768,768,768,768,768,768,768,768,768,768,768,768,767,764,761,751,742,709,684,656,639,607,588,558,477,450,428,410,404,402,402,402,402,401,401,401,411,426,439,456],"ymouse":[518,518,518,518,518,518,518,518,518,518,518,518,518,518,518,518,518,518,518,518,518,518,518,518,518,518,518,518,518,518,518,518,516,500,492,457,440,370,323,281,260,233,220,204,170,160,151,144,143,142,142,142,142,142,140,136,128,118,107,90],"timestamp_mouse":[8,25,47,66,86,105,126,145,167,185,206,226,245,266,287,305,325,346,365,386,405,426,447,465,485,505,525,547,566,586,606,626,646,665,685,706,726,745,766,785,806,826,847,866,885,906,925,945,967,986,1007,1025,1046,1066,1085,1105,1126,1146,1165,1185],"xSR":733.5,"ySR":475.15000000000003,"xT1":420.09999999999997,"yT1":0,"xT2":1046.8999999999999,"yT2":0,"toosoon":0,"cond_shown":"equaldotanddens","ratio_trial":750,"smaller_num":"6","larger_num":"8","correct_side":1,"subjID":"sofiafandiñotorres12","gender":"1","age":"11","school":"6"},{"start_time":1551791069831,"click_time":1551791070751,"finger_time":1551791070352,"fix_duration":1358.394753803903,"trial":45,"RT":521,"MT":399,"sideResp":2,"stimulus":"img/250/equaldotanddens/R/11_Ratio_250_L_3_R_12.png","xmouse":[788,788,788,788,788,788,788,788,788,788,788,788,788,788,788,788,788,788,788,788,788,788,789,791,798,808,823,861,877,908,924,939,960,967,973,979,987,1006,1016,1027,1027,1029,1037,1048,1058,1071,1079],"ymouse":[523,523,523,523,523,523,523,523,523,523,523,523,523,523,523,523,523,523,523,523,523,521,518,512,503,488,466,412,386,336,311,287,251,238,224,212,199,165,146,128,128,126,122,119,112,101,91],"timestamp_mouse":[9,21,49,61,80,101,121,140,162,180,202,220,240,261,281,300,322,340,360,381,401,420,440,461,481,501,521,540,560,581,601,621,641,661,680,700,720,740,761,780,801,820,840,860,881,900,920],"xSR":733.5,"ySR":475.15000000000003,"xT1":420.09999999999997,"yT1":0,"xT2":1046.8999999999999,"yT2":0,"toosoon":0,"cond_shown":"equaldotanddens","ratio_trial":250,"smaller_num":"3","larger_num":"12","correct_side":2,"subjID":"sofiafandiñotorres12","gender":"1","age":"11","school":"6"},{"start_time":1551791072186,"click_time":1551791072972,"finger_time":1551791072631,"fix_duration":713.8001575750443,"trial":46,"RT":445,"MT":341,"sideResp":1,"stimulus":"img/750/equaldotanddens/L/6_Ratio_750_L_24_R_18.png","xmouse":[753,753,753,753,753,753,753,753,753,753,753,753,753,753,753,753,753,753,753,748,748,743,730,720,685,659,614,576,551,524,515,512,510,506,501,500,498,493,486,474],"ymouse":[517,517,517,517,517,517,517,517,517,517,517,517,517,517,517,517,517,517,518,519,519,514,502,489,449,423,386,359,337,294,257,238,214,188,155,146,137,120,104,76],"timestamp_mouse":[11,27,48,66,85,106,126,145,167,187,205,226,246,265,285,306,326,346,366,386,406,425,445,465,486,506,526,546,566,585,605,625,645,666,685,706,725,745,767,786],"xSR":733.5,"ySR":475.15000000000003,"xT1":420.09999999999997,"yT1":0,"xT2":1046.8999999999999,"yT2":0,"toosoon":0,"cond_shown":"equaldotanddens","ratio_trial":750,"smaller_num":"18","larger_num":"24","correct_side":1,"subjID":"sofiafandiñotorres12","gender":"1","age":"11","school":"6"},{"start_time":1551791075265,"click_time":1551791076271,"finger_time":1551791075952,"fix_duration":1492.967136760154,"trial":47,"RT":687,"MT":319,"sideResp":1,"stimulus":"img/500/equaldotanddens/L/7_Ratio_500_L_10_R_5.png","xmouse":[781,781,781,781,781,781,781,781,781,781,781,781,781,781,781,781,781,781,781,781,781,781,781,781,781,781,781,781,781,781,781,781,781,781,776,732,693,680,663,662,656,650,646,642,638,628,604,577,555,524,463],"ymouse":[522,522,522,522,522,522,522,522,522,522,522,522,522,522,522,522,522,522,522,522,522,522,522,522,522,522,522,522,522,522,522,520,508,482,453,290,181,141,88,88,58,48,44,40,38,38,42,50,56,65,80],"timestamp_mouse":[13,28,46,66,87,106,127,147,166,188,208,226,247,266,287,306,326,348,366,386,407,427,447,467,486,506,527,547,567,586,606,626,647,666,687,706,727,747,766,787,807,828,846,866,887,906,926,946,967,986,1006],"xSR":733.5,"ySR":475.15000000000003,"xT1":420.09999999999997,"yT1":0,"xT2":1046.8999999999999,"yT2":0,"toosoon":0,"cond_shown":"equaldotanddens","ratio_trial":500,"smaller_num":"5","larger_num":"10","correct_side":1,"subjID":"sofiafandiñotorres12","gender":"1","age":"11","school":"6"},{"start_time":1551791078567,"click_time":1551791079732,"finger_time":1551791079211,"fix_duration":1413.8334027969818,"trial":48,"RT":644,"MT":521,"sideResp":2,"stimulus":"img/250/equaldotanddens/R/10_Ratio_250_L_4_R_16.png","xmouse":[783,783,783,783,783,783,783,783,783,783,783,783,783,783,783,783,783,783,783,783,783,783,783,783,783,783,783,783,783,783,783,796,814,846,874,917,929,938,946,953,977,998,1015,1029,1040,1040,1040,1040,1040,1040,1040,1040,1040,1040,1040,1040,1040,1040,1081],"ymouse":[502,502,502,503,503,503,503,503,503,504,504,504,504,504,504,504,504,504,504,504,504,504,504,504,504,504,504,504,504,504,504,478,435,367,300,209,181,158,140,119,73,43,26,12,2,2,2,2,2,2,2,2,2,2,2,2,2,2,2],"timestamp_mouse":[10,34,45,65,84,105,125,145,166,184,204,225,244,264,285,304,324,346,364,385,405,426,444,465,485,505,525,545,565,585,604,625,644,664,684,704,724,744,765,784,804,824,845,864,884,905,924,945,964,984,1005,1026,1045,1064,1085,1105,1124,1144,1165],"xSR":733.5,"ySR":475.15000000000003,"xT1":420.09999999999997,"yT1":0,"xT2":1046.8999999999999,"yT2":0,"toosoon":0,"cond_shown":"equaldotanddens","ratio_trial":250,"smaller_num":"4","larger_num":"16","correct_side":2,"subjID":"sofiafandiñotorres12","gender":"1","age":"11","school":"6"},{"start_time":1551791081475,"click_time":1551791082433,"finger_time":1551791082211,"fix_duration":1002.2223549063007,"trial":49,"RT":736,"MT":222,"sideResp":2,"stimulus":"img/250/randomdotsizeEA/R/12_Ratio_250_L_5_R_20.png","xmouse":[815,815,815,813,811,811,811,811,811,811,811,811,811,811,811,811,811,811,811,811,811,810,809,809,809,809,809,809,809,809,809,809,809,809,812,821,846,871,900,947,968,991,1002,1011,1023,1037,1044,1051],"ymouse":[529,529,529,530,530,530,530,530,530,530,530,530,530,530,530,530,530,530,530,530,530,530,531,531,531,531,531,531,531,531,531,531,531,529,519,500,448,391,333,228,174,130,104,88,64,39,29,20],"timestamp_mouse":[17,45,56,77,96,117,136,156,177,197,216,238,257,278,296,316,336,356,376,398,416,436,458,476,496,516,536,557,577,597,617,637,657,677,696,717,736,757,776,798,816,837,857,878,896,917,936,958],"xSR":733.5,"ySR":475.15000000000003,"xT1":420.09999999999997,"yT1":0,"xT2":1046.8999999999999,"yT2":0,"toosoon":0,"cond_shown":"randomdotsizeEA","ratio_trial":250,"smaller_num":"5","larger_num":"20","correct_side":2,"subjID":"sofiafandiñotorres12","gender":"1","age":"11","school":"6"},{"start_time":1551791084405,"click_time":1551791085612,"finger_time":1551791085072,"fix_duration":852.0254719729567,"trial":50,"RT":667,"MT":540,"sideResp":1,"stimulus":"img/250/randomdotsizeEA/L/15_Ratio_250_L_12_R_3.png","xmouse":[765,765,765,765,765,765,765,765,765,765,765,765,765,765,765,765,765,765,765,765,765,765,765,765,765,766,766,768,773,775,775,774,768,711,656,609,568,529,487,442,417,400,390,382,382,382,382,382,384,388,388,390,390,391,393,396,404,411,415,419,428],"ymouse":[551,551,551,551,551,551,551,551,551,551,551,551,551,551,551,551,551,551,551,551,551,551,551,551,551,551,550,549,545,538,537,531,515,436,381,338,292,247,195,148,127,115,106,89,79,70,63,57,52,50,50,50,50,50,52,55,60,63,66,67,67],"timestamp_mouse":[8,27,46,66,87,108,127,147,167,188,208,226,246,268,287,307,327,347,366,386,408,426,447,467,488,506,527,547,567,587,606,627,646,667,686,706,726,748,766,787,806,827,847,866,886,906,926,947,966,987,1006,1026,1047,1067,1088,1106,1126,1147,1166,1186,1207],"xSR":733.5,"ySR":475.15000000000003,"xT1":420.09999999999997,"yT1":0,"xT2":1046.8999999999999,"yT2":0,"toosoon":0,"cond_shown":"randomdotsizeEA","ratio_trial":250,"smaller_num":"3","larger_num":"12","correct_side":1,"subjID":"sofiafandiñotorres12","gender":"1","age":"11","school":"6"},{"start_time":1551791087447,"click_time":1551791088412,"finger_time":1551791088113,"fix_duration":1033.8661442950415,"trial":51,"RT":666,"MT":299,"sideResp":2,"stimulus":"img/750/randomdotsizeEA/L/1_Ratio_750_L_20_R_15.png","xmouse":[784,784,784,784,784,784,784,784,784,784,784,784,784,784,784,784,784,784,784,784,784,784,784,784,784,784,784,785,785,785,785,785,785,778,777,760,708,694,692,692,697,743,785,838,865,880,1001,1038,1066],"ymouse":[490,490,490,490,490,490,490,490,490,490,490,490,490,490,490,490,490,490,490,490,490,490,490,490,490,490,489,489,489,488,487,484,478,467,466,447,358,313,286,259,235,174,134,97,81,75,40,32,28],"timestamp_mouse":[10,24,53,64,85,105,125,144,165,185,204,224,244,265,284,305,324,344,366,385,405,424,445,464,485,504,526,544,565,586,604,624,644,666,684,706,724,744,764,785,804,824,844,864,885,906,925,944,964],"xSR":733.5,"ySR":475.15000000000003,"xT1":420.09999999999997,"yT1":0,"xT2":1046.8999999999999,"yT2":0,"toosoon":0,"cond_shown":"randomdotsizeEA","ratio_trial":750,"smaller_num":"15","larger_num":"20","correct_side":1,"subjID":"sofiafandiñotorres12","gender":"1","age":"11","school":"6"},{"start_time":1551791089711,"click_time":1551791090872,"finger_time":1551791090492,"fix_duration":579.0592905487268,"trial":52,"RT":781,"MT":380,"sideResp":1,"stimulus":"img/250/randomdotsizeEA/L/3_Ratio_250_L_8_R_2.png","xmouse":[782,782,782,782,782,782,782,782,782,782,782,782,782,782,782,782,782,782,781,781,781,781,781,781,781,781,781,781,781,781,781,781,781,781,781,781,780,778,766,754,732,701,668,627,627,627,627,627,627,627,627,627,627,627,627,627,627,627,506],"ymouse":[528,528,528,528,528,528,528,528,528,528,528,528,528,528,528,528,528,528,527,527,527,527,527,527,527,527,527,527,527,527,527,527,527,527,525,524,521,516,489,450,374,256,129,14,14,14,14,14,14,14,14,14,14,14,14,14,14,14,30],"timestamp_mouse":[9,21,47,61,80,101,121,141,162,180,202,220,241,261,280,301,321,340,360,381,400,421,440,460,480,501,521,540,560,581,601,621,640,660,681,700,722,740,760,781,801,821,842,860,880,900,920,941,961,982,1002,1021,1040,1060,1080,1101,1120,1140,1161],"xSR":733.5,"ySR":475.15000000000003,"xT1":420.09999999999997,"yT1":0,"xT2":1046.8999999999999,"yT2":0,"toosoon":0,"cond_shown":"randomdotsizeEA","ratio_trial":250,"smaller_num":"2","larger_num":"8","correct_side":1,"subjID":"sofiafandiñotorres12","gender":"1","age":"11","school":"6"},{"start_time":1551791092544,"click_time":1551791093931,"finger_time":1551791093271,"fix_duration":370.27250432629796,"trial":53,"RT":727,"MT":660,"sideResp":1,"stimulus":"img/250/equaldotsize/L/7_Ratio_250_L_8_R_2.png","xmouse":[793,793,793,793,793,793,793,793,793,793,793,793,793,793,793,793,793,793,793,793,793,793,793,793,793,793,793,793,793,793,793,793,793,788,778,767,746,739,720,720,717,708,702,694,684,677,664,654,642,627,616,605,597,582,570,570,555,545,539,531,527,520,519,517,515,513,508,506,504,501],"ymouse":[541,541,541,541,541,541,541,541,541,541,541,541,541,541,541,541,541,541,541,541,541,541,541,541,541,541,541,541,541,541,541,541,540,531,516,499,471,462,440,440,433,399,380,353,333,320,301,286,269,251,238,225,217,206,196,196,186,178,171,160,155,146,144,140,137,132,116,110,104,97],"timestamp_mouse":[8,28,47,67,89,107,127,147,169,189,207,229,249,267,288,309,327,348,368,388,408,427,448,467,489,507,527,548,569,587,607,628,649,667,687,708,727,748,768,788,807,828,848,868,889,907,927,948,968,987,1008,1027,1047,1067,1087,1107,1127,1148,1168,1188,1208,1227,1247,1268,1287,1307,1328,1348,1367,1387],"xSR":733.5,"ySR":475.15000000000003,"xT1":420.09999999999997,"yT1":0,"xT2":1046.8999999999999,"yT2":0,"toosoon":0,"cond_shown":"equaldotsize","ratio_trial":250,"smaller_num":"2","larger_num":"8","correct_side":1,"subjID":"sofiafandiñotorres12","gender":"1","age":"11","school":"6"},{"start_time":1551791097084,"click_time":1551791098371,"finger_time":1551791097992,"fix_duration":1028.1827590546789,"trial":54,"RT":908,"MT":379,"sideResp":1,"stimulus":"img/250/equaldotsize/L/3_Ratio_250_L_8_R_2.png","xmouse":[766,766,766,766,766,766,766,766,766,766,766,766,769,772,784,786,786,786,787,787,788,788,788,788,788,788,788,788,788,788,788,788,788,788,788,788,788,788,788,788,788,788,782,775,735,729,715,710,701,685,679,672,665,659,643,634,620,610,596,566,545,528,516,509,494],"ymouse":[526,526,526,526,526,526,526,526,526,526,526,526,526,526,523,522,522,522,521,521,521,521,521,521,521,521,521,521,521,521,521,521,521,521,521,521,521,521,521,521,521,521,516,511,483,478,461,454,441,409,395,383,375,364,329,308,271,247,223,185,165,147,130,120,99],"timestamp_mouse":[8,29,49,67,89,107,128,148,167,189,208,229,247,268,288,308,328,348,369,387,409,428,447,469,487,509,527,548,569,588,607,628,647,667,687,708,727,747,767,787,809,827,847,868,887,908,928,947,967,987,1009,1028,1048,1068,1087,1107,1127,1147,1167,1189,1207,1227,1247,1268,1287],"xSR":733.5,"ySR":475.15000000000003,"xT1":420.09999999999997,"yT1":0,"xT2":1046.8999999999999,"yT2":0,"toosoon":0,"cond_shown":"equaldotsize","ratio_trial":250,"smaller_num":"2","larger_num":"8","correct_side":1,"subjID":"sofiafandiñotorres12","gender":"1","age":"11","school":"6"},{"start_time":1551791099824,"click_time":1551791100892,"finger_time":1551791100471,"fix_duration":250,"trial":55,"RT":647,"MT":421,"sideResp":2,"stimulus":"img/250/equaldotanddens/R/12_Ratio_250_L_5_R_20.png","xmouse":[764,764,764,764,764,764,764,764,764,764,764,764,764,764,764,764,764,764,764,764,764,764,764,764,764,764,764,764,764,770,781,799,853,903,955,969,1006,1029,1035,1041,1041,1041,1041,1043,1046,1051,1054,1058,1066,1077,1082,1088,1094,1097],"ymouse":[544,544,544,544,544,544,544,544,544,544,544,544,544,544,544,544,544,544,544,544,544,544,544,544,544,544,544,543,541,535,524,509,467,430,393,381,324,289,278,255,243,238,222,211,197,185,179,171,159,144,134,125,107,97],"timestamp_mouse":[8,27,63,67,87,108,128,147,169,189,207,227,247,268,287,307,328,347,369,388,409,427,447,467,487,508,528,548,568,587,608,628,647,667,687,707,728,747,769,787,807,827,847,869,887,907,927,947,968,988,1007,1028,1047,1068],"xSR":733.5,"ySR":475.15000000000003,"xT1":420.09999999999997,"yT1":0,"xT2":1046.8999999999999,"yT2":0,"toosoon":0,"cond_shown":"equaldotanddens","ratio_trial":250,"smaller_num":"5","larger_num":"20","correct_side":2,"subjID":"sofiafandiñotorres12","gender":"1","age":"11","school":"6"},{"start_time":1551791103156,"click_time":1551791104052,"finger_time":1551791103811,"fix_duration":1283.6799317165262,"trial":56,"RT":655,"MT":241,"sideResp":1,"stimulus":"img/750/randomdotsizeEA/L/8_Ratio_750_L_4_R_3.png","xmouse":[776,776,776,776,776,776,776,776,776,776,776,776,776,776,776,776,776,776,776,776,776,776,776,776,776,772,768,766,764,760,756,748,735,719,703,667,639,610,584,560,509,481,467,453,445],"ymouse":[533,533,533,533,533,533,533,533,533,533,533,533,533,533,533,533,533,533,533,533,533,533,533,533,532,526,519,515,511,504,495,481,461,440,416,369,336,302,270,241,164,132,116,100,90],"timestamp_mouse":[15,35,55,75,97,115,136,155,176,195,215,235,257,275,297,315,336,355,376,395,416,437,455,475,495,515,536,556,575,595,615,636,655,675,695,715,735,755,775,796,815,836,855,875,896],"xSR":733.5,"ySR":475.15000000000003,"xT1":420.09999999999997,"yT1":0,"xT2":1046.8999999999999,"yT2":0,"toosoon":0,"cond_shown":"randomdotsizeEA","ratio_trial":750,"smaller_num":"3","larger_num":"4","correct_side":1,"subjID":"sofiafandiñotorres12","gender":"1","age":"11","school":"6"},{"start_time":1551791105573,"click_time":1551791106752,"finger_time":1551791106211,"fix_duration":700.4970888700011,"trial":57,"RT":638,"MT":541,"sideResp":1,"stimulus":"img/250/randomdotsizeEA/L/3_Ratio_250_L_8_R_2.png","xmouse":[783,783,783,783,783,783,783,783,783,783,783,783,783,783,783,783,783,783,783,783,783,783,783,783,783,783,783,783,781,766,756,727,710,707,669,643,620,601,586,572,571,569,569,568,563,561,559,556,555,547,541,535,532,530,528,524,516,510,504],"ymouse":[506,506,506,506,506,506,506,506,506,506,506,506,506,506,506,506,506,506,506,506,506,506,506,506,506,506,506,506,506,506,506,490,475,474,418,382,337,296,264,224,218,214,213,209,192,189,186,183,181,168,162,154,151,149,144,136,121,109,94],"timestamp_mouse":[31,39,58,78,99,118,138,158,179,198,219,239,259,278,299,319,339,358,380,399,418,438,460,480,498,518,540,558,578,598,619,638,658,678,699,718,738,758,780,798,818,838,859,878,898,919,939,960,978,998,1019,1039,1058,1079,1098,1120,1138,1158,1179],"xSR":733.5,"ySR":475.15000000000003,"xT1":420.09999999999997,"yT1":0,"xT2":1046.8999999999999,"yT2":0,"toosoon":0,"cond_shown":"randomdotsizeEA","ratio_trial":250,"smaller_num":"2","larger_num":"8","correct_side":1,"subjID":"sofiafandiñotorres12","gender":"1","age":"11","school":"6"},{"start_time":1551791108762,"click_time":1551791109952,"finger_time":1551791109772,"fix_duration":1007.8089288903191,"trial":58,"RT":1010,"MT":180,"sideResp":1,"stimulus":"img/750/randomdotsizeEA/L/9_Ratio_750_L_4_R_3.png","xmouse":[763,763,763,763,763,763,763,763,763,763,763,763,763,763,763,763,763,763,763,763,763,763,763,763,763,763,763,763,763,763,763,763,763,763,763,763,763,764,765,769,786,788,790,790,790,790,790,790,790,790,789,780,769,754,729,652,606,564,526,486],"ymouse":[499,499,499,499,499,499,499,499,499,499,499,499,499,499,499,499,499,499,499,499,499,499,499,499,499,499,499,499,499,499,499,499,499,499,499,499,499,500,499,494,480,478,477,477,477,477,477,477,477,476,471,454,434,414,384,269,208,160,112,69],"timestamp_mouse":[15,40,49,69,90,109,129,149,169,189,209,229,249,270,290,310,330,350,370,390,409,430,449,469,490,510,530,549,570,589,610,629,649,669,689,709,730,749,770,790,809,829,851,869,889,909,929,950,969,989,1010,1031,1051,1070,1089,1109,1129,1149,1169,1190],"xSR":733.5,"ySR":475.15000000000003,"xT1":420.09999999999997,"yT1":0,"xT2":1046.8999999999999,"yT2":0,"toosoon":0,"cond_shown":"randomdotsizeEA","ratio_trial":750,"smaller_num":"3","larger_num":"4","correct_side":1,"subjID":"sofiafandiñotorres12","gender":"1","age":"11","school":"6"},{"start_time":1551791111244,"click_time":1551791112772,"finger_time":1551791112131,"fix_duration":250,"trial":59,"RT":887,"MT":641,"sideResp":1,"stimulus":"img/900/randomdotsizeEA/L/8_Ratio_900_L_20_R_18.png","xmouse":[766,766,766,766,766,766,766,766,766,766,766,766,766,766,766,766,766,766,766,766,766,766,766,766,766,766,766,766,766,766,766,766,766,766,766,766,766,766,766,766,766,766,765,764,760,746,716,706,674,655,635,623,615,612,612,612,612,610,606,597,586,569,557,540,522,509,488,487,486,486,486,481,479,479,478,478,477],"ymouse":[503,503,503,503,503,503,503,503,503,503,503,503,503,503,503,503,503,503,503,503,503,503,503,503,503,503,503,503,503,503,503,503,503,503,503,503,503,503,503,503,503,503,495,486,459,412,313,288,225,194,166,150,141,138,137,137,137,137,137,137,137,134,130,127,124,122,117,116,116,116,115,113,111,110,108,104,95],"timestamp_mouse":[8,44,48,68,88,107,128,147,167,188,208,227,249,268,288,309,328,347,367,387,408,428,448,468,487,508,528,549,568,587,608,628,647,667,687,707,727,747,767,787,809,827,847,867,887,909,927,947,967,989,1007,1027,1047,1067,1088,1107,1127,1147,1167,1187,1207,1228,1248,1267,1288,1309,1327,1348,1367,1387,1407,1427,1448,1467,1487,1507,1528],"xSR":733.5,"ySR":475.15000000000003,"xT1":420.09999999999997,"yT1":0,"xT2":1046.8999999999999,"yT2":0,"toosoon":0,"cond_shown":"randomdotsizeEA","ratio_trial":900,"smaller_num":"18","larger_num":"20","correct_side":1,"subjID":"sofiafandiñotorres12","gender":"1","age":"11","school":"6"},{"start_time":1551791115343,"click_time":1551791116332,"finger_time":1551791116152,"fix_duration":250,"trial":60,"RT":809,"MT":180,"sideResp":1,"stimulus":"img/500/equaldotsize/L/8_Ratio_500_L_8_R_4.png","xmouse":[809,809,809,809,809,809,809,809,809,809,809,809,809,809,809,809,809,809,809,809,809,809,809,809,809,809,809,809,809,809,809,809,809,809,809,809,809,805,796,766,732,654,609,547,512,487,449,442,439,438],"ymouse":[555,555,555,555,555,555,555,555,555,555,555,555,555,555,555,555,555,555,555,555,555,555,555,555,555,555,555,555,555,555,555,555,555,555,555,555,555,548,535,494,456,381,342,277,239,203,137,117,100,89],"timestamp_mouse":[10,28,49,68,89,110,128,149,168,189,209,228,249,268,289,309,328,349,370,389,408,429,448,469,488,508,528,549,568,589,610,628,648,668,688,708,729,748,768,788,809,828,848,868,889,908,929,948,968,989],"xSR":733.5,"ySR":475.15000000000003,"xT1":420.09999999999997,"yT1":0,"xT2":1046.8999999999999,"yT2":0,"toosoon":0,"cond_shown":"equaldotsize","ratio_trial":500,"smaller_num":"4","larger_num":"8","correct_side":1,"subjID":"sofiafandiñotorres12","gender":"1","age":"11","school":"6"},{"start_time":1551791117490,"click_time":1551791119012,"finger_time":1551791118471,"fix_duration":317.1903166327117,"trial":61,"RT":981,"MT":541,"sideResp":1,"stimulus":"img/900/equaldotanddens/L/4_Ratio_900_L_20_R_18.png","xmouse":[776,776,776,776,776,776,776,776,776,776,776,776,776,776,776,776,776,776,776,776,776,776,776,776,776,776,776,776,776,776,776,776,776,776,776,775,773,772,772,772,772,772,772,772,772,769,764,754,740,700,666,632,604,581,548,543,534,529,524,519,517,517,517,517,516,515,513,513,511,507,505,502,500,499,496,495,493],"ymouse":[531,531,531,531,531,531,531,531,531,531,531,531,531,531,531,531,531,531,531,531,531,531,531,531,531,531,531,531,531,531,531,531,531,531,531,531,531,531,531,531,531,531,531,531,531,529,526,519,506,462,415,368,327,296,249,241,222,211,198,185,181,179,179,177,176,172,167,161,153,138,130,125,120,116,107,101,93],"timestamp_mouse":[8,21,41,64,82,101,122,141,161,183,202,221,243,262,282,302,321,341,362,381,402,423,442,462,481,501,522,541,562,581,602,621,641,662,682,702,722,741,763,781,801,822,841,862,881,902,921,942,961,981,1002,1022,1041,1062,1081,1103,1121,1141,1161,1181,1202,1221,1241,1262,1281,1302,1321,1341,1361,1381,1401,1421,1441,1461,1481,1501,1521],"xSR":733.5,"ySR":475.15000000000003,"xT1":420.09999999999997,"yT1":0,"xT2":1046.8999999999999,"yT2":0,"toosoon":0,"cond_shown":"equaldotanddens","ratio_trial":900,"smaller_num":"18","larger_num":"20","correct_side":1,"subjID":"sofiafandiñotorres12","gender":"1","age":"11","school":"6"},{"start_time":1551791121003,"click_time":1551791122371,"finger_time":1551791121672,"fix_duration":1230.1041063597143,"trial":62,"RT":669,"MT":699,"sideResp":1,"stimulus":"img/500/equaldotsize/L/5_Ratio_500_L_4_R_2.png","xmouse":[805,805,805,805,805,805,805,805,805,805,805,805,805,805,805,805,805,805,805,805,805,805,805,805,805,805,805,805,805,805,804,800,795,783,776,766,756,749,739,736,726,718,711,696,686,674,662,652,626,617,604,598,589,574,570,568,567,565,564,563,561,559,558,555,552,549,544,536,515],"ymouse":[516,516,516,516,516,516,516,516,516,516,516,516,516,516,516,516,516,516,516,516,516,516,516,516,516,516,516,516,516,516,511,500,485,440,417,397,376,361,344,339,326,315,305,290,281,272,266,261,242,234,223,215,205,190,184,182,177,173,165,160,152,147,141,136,133,129,124,114,78],"timestamp_mouse":[8,42,48,69,88,108,128,148,168,188,208,228,248,269,288,308,329,349,368,389,408,429,450,468,489,508,529,548,568,588,609,629,648,669,688,708,728,748,768,789,809,828,848,868,888,908,929,948,968,988,1009,1028,1049,1068,1089,1108,1128,1149,1168,1188,1208,1228,1248,1268,1288,1308,1328,1348,1368],"xSR":733.5,"ySR":475.15000000000003,"xT1":420.09999999999997,"yT1":0,"xT2":1046.8999999999999,"yT2":0,"toosoon":0,"cond_shown":"equaldotsize","ratio_trial":500,"smaller_num":"2","larger_num":"4","correct_side":1,"subjID":"sofiafandiñotorres12","gender":"1","age":"11","school":"6"},{"start_time":1551791124788,"click_time":1551791125731,"finger_time":1551791125211,"fix_duration":1434.4883097907496,"trial":63,"RT":423,"MT":520,"sideResp":1,"stimulus":"img/900/randomdotsizeEA/L/4_Ratio_900_L_20_R_18.png","xmouse":[794,794,794,794,794,794,794,794,794,794,794,794,794,794,794,792,787,776,763,743,734,725,721,720,718,717,717,715,711,702,693,658,634,617,595,587,580,576,573,560,555,551,546,543,527,517,511,502],"ymouse":[532,532,532,532,532,532,532,532,532,532,532,532,532,532,532,532,532,532,531,516,505,490,482,478,469,464,457,446,433,409,387,317,281,263,238,225,214,209,208,206,202,185,172,163,133,115,105,87],"timestamp_mouse":[8,40,44,64,84,105,123,143,163,183,203,223,244,263,284,303,323,344,364,383,404,423,443,463,484,505,523,543,564,583,603,623,643,663,683,703,724,743,763,784,803,823,843,863,883,903,923,943],"xSR":733.5,"ySR":475.15000000000003,"xT1":420.09999999999997,"yT1":0,"xT2":1046.8999999999999,"yT2":0,"toosoon":0,"cond_shown":"randomdotsizeEA","ratio_trial":900,"smaller_num":"18","larger_num":"20","correct_side":1,"subjID":"sofiafandiñotorres12","gender":"1","age":"11","school":"6"},{"start_time":1551791128863,"click_time":1551791129872,"finger_time":1551791129591,"fix_duration":829.5244168283051,"trial":64,"RT":728,"MT":281,"sideResp":1,"stimulus":"img/750/equaldotsize/L/8_Ratio_750_L_4_R_3.png","xmouse":[781,781,781,781,781,781,781,781,781,781,781,781,781,781,781,781,781,781,781,781,781,781,781,781,781,781,781,781,781,781,781,776,773,769,764,747,736,715,709,706,702,700,697,686,671,629,618,571,543,518,490],"ymouse":[522,522,522,522,522,522,522,522,522,522,522,522,522,522,522,522,522,522,522,522,522,522,522,522,522,522,522,522,522,522,522,522,520,516,508,482,469,444,427,412,387,381,375,350,312,239,223,170,142,122,96],"timestamp_mouse":[15,29,49,69,89,109,129,149,168,188,209,228,248,269,288,308,329,349,368,388,409,430,448,469,488,508,529,549,569,590,608,628,648,668,689,708,728,748,769,788,808,828,848,868,889,908,929,948,969,988,1009],"xSR":733.5,"ySR":475.15000000000003,"xT1":420.09999999999997,"yT1":0,"xT2":1046.8999999999999,"yT2":0,"toosoon":0,"cond_shown":"equaldotsize","ratio_trial":750,"smaller_num":"3","larger_num":"4","correct_side":1,"subjID":"sofiafandiñotorres12","gender":"1","age":"11","school":"6"},{"start_time":1551791132491,"click_time":1551791133371,"finger_time":1551791133171,"fix_duration":1478.4720186130703,"trial":65,"RT":680,"MT":200,"sideResp":1,"stimulus":"img/500/randomdotsizeEA/R/1_Ratio_500_L_9_R_18.png","xmouse":[783,783,783,783,783,783,783,783,783,783,783,783,783,783,783,783,783,783,783,783,783,783,783,783,783,783,783,783,783,783,783,783,782,777,707,651,563,537,532,530,530,529,526,521,516],"ymouse":[509,509,509,509,509,509,509,509,509,509,509,509,509,509,509,509,509,509,509,509,509,509,509,509,509,509,509,509,509,509,509,509,506,497,368,277,150,113,103,97,96,91,84,74,65],"timestamp_mouse":[8,20,45,60,80,100,120,140,160,181,200,221,240,260,281,300,321,342,360,381,401,420,441,462,481,501,521,540,560,581,600,621,640,661,680,701,720,740,760,781,801,820,840,860,880],"xSR":733.5,"ySR":475.15000000000003,"xT1":420.09999999999997,"yT1":0,"xT2":1046.8999999999999,"yT2":0,"toosoon":0,"cond_shown":"randomdotsizeEA","ratio_trial":500,"smaller_num":"9","larger_num":"18","correct_side":2,"subjID":"sofiafandiñotorres12","gender":"1","age":"11","school":"6"},{"start_time":1551791136859,"click_time":1551791137971,"finger_time":1551791137451,"fix_duration":387.57064838300073,"trial":66,"RT":592,"MT":520,"sideResp":2,"stimulus":"img/250/equaldotsize/R/10_Ratio_250_L_4_R_16.png","xmouse":[778,778,778,778,778,778,778,778,778,778,778,778,778,778,778,778,778,778,778,778,778,778,778,778,778,778,778,790,816,869,1034,1112,1184,1210,1222,1240,1251,1260,1260,1259,1236,1228,1221,1214,1206,1192,1184,1176,1173,1169,1163,1157,1150,1144,1139,1129],"ymouse":[535,535,535,535,535,535,535,535,535,535,535,535,535,535,535,535,535,535,535,535,535,535,535,535,535,535,531,517,497,463,389,360,331,316,310,297,288,246,226,218,177,164,153,144,133,117,113,110,110,110,110,110,109,106,102,91],"timestamp_mouse":[12,33,58,72,92,112,133,154,172,192,214,232,253,272,292,312,333,352,373,392,412,432,452,472,493,512,532,552,573,592,612,632,652,672,692,712,732,753,772,792,812,833,852,872,892,912,932,952,972,992,1