[{"start_time":1551789962700,"click_time":1551789964691,"finger_time":1551789964250,"fix_duration":303.22690286560515,"trial":0,"RT":1550,"MT":441,"sideResp":1,"stimulus":[],"xmouse":[784,784,784,784,784,784,784,784,784,784,784,784,784,784,784,784,784,784,784,784,784,784,784,784,784,784,784,784,784,784,784,784,784,784,784,784,784,784,784,784,784,784,784,784,784,784,784,784,784,784,784,784,784,784,784,784,784,784,784,784,784,784,784,784,784,784,784,784,784,784,784,784,784,784,784,783,777,735,695,659,659,647,633,632,631,631,628,620,615,615,612,602,582,571,565,560,554,537,528,519],"ymouse":[483,483,483,483,483,483,483,483,483,483,483,483,483,483,483,483,483,483,483,483,483,483,483,483,483,483,483,483,483,483,483,483,483,483,483,483,483,483,483,483,483,483,483,483,483,483,483,483,483,483,483,483,483,483,483,483,483,483,483,483,483,483,483,483,483,483,483,483,483,483,483,483,483,483,483,483,477,377,310,263,262,253,245,245,245,245,241,229,223,223,217,202,167,144,131,122,115,102,96,88],"timestamp_mouse":[10,44,51,71,90,111,132,152,172,190,212,230,251,270,291,310,330,352,372,391,411,432,450,471,492,511,532,551,571,591,610,632,650,670,692,710,732,750,771,791,811,832,851,871,891,910,930,951,970,992,1011,1030,1051,1071,1091,1112,1131,1150,1172,1191,1210,1230,1251,1271,1292,1311,1330,1351,1370,1392,1412,1431,1450,1471,1490,1510,1531,1550,1572,1591,1610,1630,1652,1672,1691,1711,1730,1750,1771,1791,1810,1830,1850,1871,1890,1910,1932,1951,1971,1991],"xSR":733.5,"ySR":443.3,"xT1":420.09999999999997,"yT1":0,"xT2":1046.8999999999999,"yT2":0,"toosoon":0,"cond_shown":"Congruent","ratio_trial":100,"L_num":9,"L_den":15,"R_num":8,"R_den":16,"correct_side":1,"subjID":"SofiaFandiñoTorres12","gender":"1","age":"11","school":"6","test":{"fix_dur":[250,1500],"timestim":1000,"targets_dim":[100,100],"targets_relative_coord":[0.3,0.7],"size_stim":[880,420],"start_dim":[100,100],"size_start":[300,300],"size_fix":60,"samplingrate":20,"img_types":["Congruent","Incongruent"],"ratios":[100,200,300],"rep_conds":19,"nTrials":120,"trials_to_rest":500,"Trials_order":[42,65,20,39,55,106,43,0,88,5,33,41,108,62,110,69,23,92,67,89,51,31,96,3,64,113,74,37,34,22,82,85,116,36,46,99,63,115,24,21,78,48,119,13,86,59,17,38,72,2,98,81,27,84,7,25,45,71,49,91,90,57,112,35,52,54,101,68,75,95,70,114,105,97,47,44,8,60,15,118,76,29,58,12,80,4,56,79,10,14,61,32,66,19,83,50,6,103,11,30,117,94,107,111,109,26,9,18,104,102,40,87,1,93,16,28,77,100,73,53],"cond_shown":["Congruent","Incongruent","Congruent","Incongruent","Incongruent","Congruent","Incongruent","Congruent","Congruent","Incongruent","Incongruent","Incongruent","Congruent","Congruent","Congruent","Incongruent","Incongruent","Congruent","Incongruent","Incongruent","Incongruent","Incongruent","Congruent","Incongruent","Congruent","Incongruent","Congruent","Incongruent","Congruent","Congruent","Congruent","Incongruent","Congruent","Congruent","Congruent","Incongruent","Incongruent","Incongruent","Congruent","Incongruent","Congruent","Congruent","Incongruent","Incongruent","Congruent","Incongruent","Incongruent","Congruent","Congruent","Congruent","Congruent","Incongruent","Incongruent","Congruent","Incongruent","Incongruent","Incongruent","Incongruent","Incongruent","Incongruent","Congruent","Incongruent","Congruent","Incongruent","Congruent","Congruent","Incongruent","Congruent","Incongruent","Incongruent","Congruent","Congruent","Incongruent","Incongruent","Incongruent","Congruent","Congruent","Congruent","Incongruent","Congruent","Congruent","Incongruent","Congruent","Congruent","Congruent","Congruent","Congruent","Incongruent","Congruent","Congruent","Incongruent","Congruent","Congruent","Incongruent","Incongruent","Congruent","Congruent","Incongruent","Incongruent","Congruent","Incongruent","Congruent","Incongruent","Incongruent","Incongruent","Congruent","Incongruent","Congruent","Congruent","Congruent","Congruent","Incongruent","Incongruent","Incongruent","Congruent","Congruent","Incongruent","Congruent","Incongruent","Incongruent"],"ratio_trial":[100,300,200,200,100,300,100,100,300,300,200,300,100,200,200,200,300,200,100,300,200,100,100,200,300,300,200,100,300,300,300,100,200,100,300,200,200,100,100,200,100,100,300,100,200,300,300,200,100,200,200,200,200,100,100,100,200,300,100,100,100,200,300,300,300,100,300,200,200,300,300,100,200,100,300,200,200,100,200,300,300,300,300,100,200,300,200,100,300,200,100,200,100,100,300,200,100,100,300,100,200,300,300,200,100,200,200,100,200,100,300,200,100,200,300,300,300,300,100,300],"left_num":[9,8,3,6,9,11,1,11,3,3,11,2,1,1,3,3,13,1,6,8,4,6,2,6,3,1,1,17,3,24,4,6,11,7,18,14,7,9,1,7,11,4,4,8,3,1,8,14,3,16,1,3,4,12,9,2,7,1,6,11,2,4,1,1,20,15,8,20,7,8,3,7,14,12,4,8,11,4,4,1,18,2,12,15,6,2,3,9,9,4,4,15,8,17,13,16,1,3,13,4,7,2,8,4,12,8,4,2,16,1,20,1,17,6,20,1,4,1,11,13],"right_num":[8,9,14,3,6,4,8,4,2,4,3,6,18,21,14,1,12,21,13,14,6,11,11,3,2,3,21,10,2,8,13,11,3,15,9,12,4,14,3,14,4,6,6,1,14,3,9,6,2,12,21,11,1,13,6,6,8,2,7,9,6,6,6,2,8,13,14,9,8,14,11,15,6,2,2,3,3,15,6,6,9,6,2,13,3,12,9,14,3,3,8,4,2,10,12,12,18,7,12,6,8,12,9,14,9,7,14,11,9,18,14,2,10,3,5,8,2,8,9,12],"left_den":[15,10,10,20,18,22,2,22,6,6,20,4,2,2,6,10,26,2,10,10,5,10,5,20,6,2,2,30,6,30,20,10,22,14,20,30,15,15,2,10,22,8,5,20,10,2,10,28,6,20,2,4,30,30,18,4,10,2,10,22,5,5,5,2,25,25,10,25,10,10,12,14,30,30,20,15,22,10,5,5,20,4,24,25,15,10,12,15,10,10,8,25,16,30,26,20,2,9,26,8,10,10,10,6,24,15,6,5,30,2,25,3,30,20,25,30,20,30,22,26],"right_den":[16,18,28,6,10,20,20,10,10,20,4,30,30,30,20,2,15,30,26,28,10,22,22,6,10,15,30,15,10,16,26,22,10,25,15,18,6,28,5,28,10,10,12,2,28,15,18,20,5,20,30,20,3,26,10,15,16,10,14,15,12,10,12,10,16,26,28,15,16,28,20,25,9,4,4,9,10,30,10,12,15,30,10,26,15,24,20,28,5,15,20,10,5,15,15,20,30,30,15,10,16,24,18,30,15,21,30,22,27,30,28,15,15,6,10,24,4,24,15,15],"correct_side":[1,1,2,2,2,1,1,1,1,1,2,1,2,2,2,2,2,2,1,1,1,1,2,2,1,1,2,2,1,1,2,1,1,2,1,2,2,1,2,1,1,2,1,2,2,1,1,1,1,1,2,1,2,2,2,1,1,1,1,2,2,1,2,1,1,1,1,1,1,1,2,2,2,2,2,1,1,2,1,2,1,1,1,1,1,2,2,1,1,1,1,1,1,2,2,1,2,1,2,2,1,2,1,1,2,1,1,2,1,2,1,1,2,2,1,2,2,2,2,2],"img_shown":["img2/100/Congruent/L/C_Dist_100_LN_9_LD_15_RN_8_RD_16_0.png","img2/300/Incongruent/L/I_Dist_300_LN_8_LD_10_RN_9_RD_18_0.png","img2/200/Congruent/R/C_Dist_200_LN_3_LD_10_RN_14_RD_28_1.png","img2/200/Incongruent/R/I_Dist_200_LN_6_LD_20_RN_3_RD_6_1.png","img2/100/Incongruent/R/I_Dist_100_LN_9_LD_18_RN_6_RD_10_1.png","img2/300/Congruent/L/C_Dist_300_LN_11_LD_22_RN_4_RD_20_0.png","img2/100/Incongruent/L/I_Dist_100_LN_1_LD_2_RN_8_RD_20_0.png","img2/100/Congruent/L/C_Dist_100_LN_11_LD_22_RN_4_RD_10_0.png","img2/300/Congruent/L/C_Dist_300_LN_3_LD_6_RN_2_RD_10_0.png","img2/300/Incongruent/L/I_Dist_300_LN_3_LD_6_RN_4_RD_20_0.png","img2/200/Incongruent/R/I_Dist_200_LN_11_LD_20_RN_3_RD_4_1.png","img2/300/Incongruent/L/I_Dist_300_LN_2_LD_4_RN_6_RD_30_0.png","img2/100/Congruent/R/C_Dist_100_LN_1_LD_2_RN_18_RD_30_1.png","img2/200/Congruent/R/C_Dist_200_LN_1_LD_2_RN_21_RD_30_1.png","img2/200/Congruent/R/C_Dist_200_LN_3_LD_6_RN_14_RD_20_1.png","img2/200/Incongruent/R/I_Dist_200_LN_3_LD_10_RN_1_RD_2_1.png","img2/300/Incongruent/R/I_Dist_300_LN_13_LD_26_RN_12_RD_15_1.png","img2/200/Congruent/R/C_Dist_200_LN_1_LD_2_RN_21_RD_30_1.png","img2/100/Incongruent/L/I_Dist_100_LN_6_LD_10_RN_13_RD_26_0.png","img2/300/Incongruent/L/I_Dist_300_LN_8_LD_10_RN_14_RD_28_0.png","img2/200/Incongruent/L/I_Dist_200_LN_4_LD_5_RN_6_RD_10_0.png","img2/100/Incongruent/L/I_Dist_100_LN_6_LD_10_RN_11_RD_22_0.png","img2/100/Congruent/R/C_Dist_100_LN_2_LD_5_RN_11_RD_22_1.png","img2/200/Incongruent/R/I_Dist_200_LN_6_LD_20_RN_3_RD_6_1.png","img2/300/Congruent/L/C_Dist_300_LN_3_LD_6_RN_2_RD_10_0.png","img2/300/Incongruent/L/I_Dist_300_LN_1_LD_2_RN_3_RD_15_0.png","img2/200/Congruent/R/C_Dist_200_LN_1_LD_2_RN_21_RD_30_1.png","img2/100/Incongruent/R/I_Dist_100_LN_17_LD_30_RN_10_RD_15_1.png","img2/300/Congruent/L/C_Dist_300_LN_3_LD_6_RN_2_RD_10_0.png","img2/300/Congruent/L/C_Dist_300_LN_24_LD_30_RN_8_RD_16_0.png","img2/300/Congruent/R/C_Dist_300_LN_4_LD_20_RN_13_RD_26_1.png","img2/100/Incongruent/L/I_Dist_100_LN_6_LD_10_RN_11_RD_22_0.png","img2/200/Congruent/L/C_Dist_200_LN_11_LD_22_RN_3_RD_10_0.png","img2/100/Congruent/R/C_Dist_100_LN_7_LD_14_RN_15_RD_25_1.png","img2/300/Congruent/L/C_Dist_300_LN_18_LD_20_RN_9_RD_15_0.png","img2/200/Incongruent/R/I_Dist_200_LN_14_LD_30_RN_12_RD_18_1.png","img2/200/Incongruent/R/I_Dist_200_LN_7_LD_15_RN_4_RD_6_1.png","img2/100/Incongruent/L/I_Dist_100_LN_9_LD_15_RN_14_RD_28_0.png","img2/100/Congruent/R/C_Dist_100_LN_1_LD_2_RN_3_RD_5_1.png","img2/200/Incongruent/L/I_Dist_200_LN_7_LD_10_RN_14_RD_28_0.png","img2/100/Congruent/L/C_Dist_100_LN_11_LD_22_RN_4_RD_10_0.png","img2/100/Congruent/R/C_Dist_100_LN_4_LD_8_RN_6_RD_10_1.png","img2/300/Incongruent/L/I_Dist_300_LN_4_LD_5_RN_6_RD_12_0.png","img2/100/Incongruent/R/I_Dist_100_LN_8_LD_20_RN_1_RD_2_1.png","img2/200/Congruent/R/C_Dist_200_LN_3_LD_10_RN_14_RD_28_1.png","img2/300/Incongruent/L/I_Dist_300_LN_1_LD_2_RN_3_RD_15_0.png","img2/300/Incongruent/L/I_Dist_300_LN_8_LD_10_RN_9_RD_18_0.png","img2/200/Congruent/L/C_Dist_200_LN_14_LD_28_RN_6_RD_20_0.png","img2/100/Congruent/L/C_Dist_100_LN_3_LD_6_RN_2_RD_5_0.png","img2/200/Congruent/L/C_Dist_200_LN_16_LD_20_RN_12_RD_20_0.png","img2/200/Congruent/R/C_Dist_200_LN_1_LD_2_RN_21_RD_30_1.png","img2/200/Incongruent/L/I_Dist_200_LN_3_LD_4_RN_11_RD_20_0.png","img2/200/Incongruent/R/I_Dist_200_LN_4_LD_30_RN_1_RD_3_1.png","img2/100/Congruent/R/C_Dist_100_LN_12_LD_30_RN_13_RD_26_1.png","img2/100/Incongruent/R/I_Dist_100_LN_9_LD_18_RN_6_RD_10_1.png","img2/100/Incongruent/L/I_Dist_100_LN_2_LD_4_RN_6_RD_15_0.png","img2/200/Incongruent/L/I_Dist_200_LN_7_LD_10_RN_8_RD_16_0.png","img2/300/Incongruent/L/I_Dist_300_LN_1_LD_2_RN_2_RD_10_0.png","img2/100/Incongruent/L/I_Dist_100_LN_6_LD_10_RN_7_RD_14_0.png","img2/100/Incongruent/R/I_Dist_100_LN_11_LD_22_RN_9_RD_15_1.png","img2/100/Congruent/R/C_Dist_100_LN_2_LD_5_RN_6_RD_12_1.png","img2/200/Incongruent/L/I_Dist_200_LN_4_LD_5_RN_6_RD_10_0.png","img2/300/Congruent/R/C_Dist_300_LN_1_LD_5_RN_6_RD_12_1.png","img2/300/Incongruent/L/I_Dist_300_LN_1_LD_2_RN_2_RD_10_0.png","img2/300/Congruent/L/C_Dist_300_LN_20_LD_25_RN_8_RD_16_0.png","img2/100/Congruent/L/C_Dist_100_LN_15_LD_25_RN_13_RD_26_0.png","img2/300/Incongruent/L/I_Dist_300_LN_8_LD_10_RN_14_RD_28_0.png","img2/200/Congruent/L/C_Dist_200_LN_20_LD_25_RN_9_RD_15_0.png","img2/200/Incongruent/L/I_Dist_200_LN_7_LD_10_RN_8_RD_16_0.png","img2/300/Incongruent/L/I_Dist_300_LN_8_LD_10_RN_14_RD_28_0.png","img2/300/Congruent/R/C_Dist_300_LN_3_LD_12_RN_11_RD_20_1.png","img2/100/Congruent/R/C_Dist_100_LN_7_LD_14_RN_15_RD_25_1.png","img2/200/Incongruent/R/I_Dist_200_LN_14_LD_30_RN_6_RD_9_1.png","img2/100/Incongruent/R/I_Dist_100_LN_12_LD_30_RN_2_RD_4_1.png","img2/300/Incongruent/R/I_Dist_300_LN_4_LD_20_RN_2_RD_4_1.png","img2/200/Congruent/L/C_Dist_200_LN_8_LD_15_RN_3_RD_9_0.png","img2/200/Congruent/L/C_Dist_200_LN_11_LD_22_RN_3_RD_10_0.png","img2/100/Congruent/R/C_Dist_100_LN_4_LD_10_RN_15_RD_30_1.png","img2/200/Incongruent/L/I_Dist_200_LN_4_LD_5_RN_6_RD_10_0.png","img2/300/Congruent/R/C_Dist_300_LN_1_LD_5_RN_6_RD_12_1.png","img2/300/Congruent/L/C_Dist_300_LN_18_LD_20_RN_9_RD_15_0.png","img2/300/Incongruent/L/I_Dist_300_LN_2_LD_4_RN_6_RD_30_0.png","img2/300/Congruent/L/C_Dist_300_LN_12_LD_24_RN_2_RD_10_0.png","img2/100/Congruent/L/C_Dist_100_LN_15_LD_25_RN_13_RD_26_0.png","img2/200/Congruent/L/C_Dist_200_LN_6_LD_15_RN_3_RD_15_0.png","img2/300/Congruent/R/C_Dist_300_LN_2_LD_10_RN_12_RD_24_1.png","img2/200/Congruent/R/C_Dist_200_LN_3_LD_12_RN_9_RD_20_1.png","img2/100/Incongruent/L/I_Dist_100_LN_9_LD_15_RN_14_RD_28_0.png","img2/300/Congruent/L/C_Dist_300_LN_9_LD_10_RN_3_RD_5_0.png","img2/200/Congruent/L/C_Dist_200_LN_4_LD_10_RN_3_RD_15_0.png","img2/100/Incongruent/L/I_Dist_100_LN_4_LD_8_RN_8_RD_20_0.png","img2/200/Congruent/L/C_Dist_200_LN_15_LD_25_RN_4_RD_10_0.png","img2/100/Congruent/L/C_Dist_100_LN_8_LD_16_RN_2_RD_5_0.png","img2/100/Incongruent/R/I_Dist_100_LN_17_LD_30_RN_10_RD_15_1.png","img2/300/Incongruent/R/I_Dist_300_LN_13_LD_26_RN_12_RD_15_1.png","img2/200/Congruent/L/C_Dist_200_LN_16_LD_20_RN_12_RD_20_0.png","img2/100/Congruent/R/C_Dist_100_LN_1_LD_2_RN_18_RD_30_1.png","img2/100/Incongruent/L/I_Dist_100_LN_3_LD_9_RN_7_RD_30_0.png","img2/300/Incongruent/R/I_Dist_300_LN_13_LD_26_RN_12_RD_15_1.png","img2/100/Congruent/R/C_Dist_100_LN_4_LD_8_RN_6_RD_10_1.png","img2/200/Incongruent/L/I_Dist_200_LN_7_LD_10_RN_8_RD_16_0.png","img2/300/Congruent/R/C_Dist_300_LN_2_LD_10_RN_12_RD_24_1.png","img2/300/Incongruent/L/I_Dist_300_LN_8_LD_10_RN_9_RD_18_0.png","img2/200/Incongruent/L/I_Dist_200_LN_4_LD_6_RN_14_RD_30_0.png","img2/100/Incongruent/R/I_Dist_100_LN_12_LD_24_RN_9_RD_15_1.png","img2/200/Congruent/L/C_Dist_200_LN_8_LD_15_RN_7_RD_21_0.png","img2/200/Incongruent/L/I_Dist_200_LN_4_LD_6_RN_14_RD_30_0.png","img2/100/Congruent/R/C_Dist_100_LN_2_LD_5_RN_11_RD_22_1.png","img2/200/Congruent/L/C_Dist_200_LN_16_LD_30_RN_9_RD_27_0.png","img2/100/Congruent/R/C_Dist_100_LN_1_LD_2_RN_18_RD_30_1.png","img2/300/Congruent/L/C_Dist_300_LN_20_LD_25_RN_14_RD_28_0.png","img2/200/Incongruent/L/I_Dist_200_LN_1_LD_3_RN_2_RD_15_0.png","img2/100/Incongruent/R/I_Dist_100_LN_17_LD_30_RN_10_RD_15_1.png","img2/200/Incongruent/R/I_Dist_200_LN_6_LD_20_RN_3_RD_6_1.png","img2/300/Congruent/L/C_Dist_300_LN_20_LD_25_RN_5_RD_10_0.png","img2/300/Congruent/R/C_Dist_300_LN_1_LD_30_RN_8_RD_24_1.png","img2/300/Incongruent/R/I_Dist_300_LN_4_LD_20_RN_2_RD_4_1.png","img2/300/Congruent/R/C_Dist_300_LN_1_LD_30_RN_8_RD_24_1.png","img2/100/Incongruent/R/I_Dist_100_LN_11_LD_22_RN_9_RD_15_1.png","img2/300/Incongruent/R/I_Dist_300_LN_13_LD_26_RN_12_RD_15_1.png"],"dist100_C":[["C_Dist_100_LN_10_LD_25_RN_3_RD_10_0.png","C_Dist_100_LN_11_LD_22_RN_4_RD_10_0.png","C_Dist_100_LN_11_LD_22_RN_6_RD_15_0.png","C_Dist_100_LN_15_LD_25_RN_13_RD_26_0.png","C_Dist_100_LN_3_LD_6_RN_2_RD_5_0.png","C_Dist_100_LN_6_LD_20_RN_5_RD_25_0.png","C_Dist_100_LN_8_LD_16_RN_2_RD_5_0.png","C_Dist_100_LN_9_LD_15_RN_8_RD_16_0.png"],["C_Dist_100_LN_1_LD_2_RN_18_RD_30_1.png","C_Dist_100_LN_1_LD_2_RN_3_RD_5_1.png","C_Dist_100_LN_12_LD_30_RN_13_RD_26_1.png","C_Dist_100_LN_2_LD_5_RN_11_RD_22_1.png","C_Dist_100_LN_2_LD_5_RN_6_RD_12_1.png","C_Dist_100_LN_3_LD_20_RN_4_RD_16_1.png","C_Dist_100_LN_4_LD_10_RN_15_RD_30_1.png","C_Dist_100_LN_4_LD_8_RN_6_RD_10_1.png","C_Dist_100_LN_6_LD_12_RN_15_RD_25_1.png","C_Dist_100_LN_7_LD_14_RN_15_RD_25_1.png","C_Dist_100_LN_7_LD_14_RN_9_RD_15_1.png"]],"dist100_I":[["I_Dist_100_LN_1_LD_2_RN_8_RD_20_0.png","I_Dist_100_LN_2_LD_4_RN_6_RD_15_0.png","I_Dist_100_LN_2_LD_4_RN_8_RD_20_0.png","I_Dist_100_LN_3_LD_5_RN_11_RD_22_0.png","I_Dist_100_LN_3_LD_5_RN_8_RD_16_0.png","I_Dist_100_LN_3_LD_6_RN_4_RD_10_0.png","I_Dist_100_LN_3_LD_9_RN_7_RD_30_0.png","I_Dist_100_LN_4_LD_8_RN_8_RD_20_0.png","I_Dist_100_LN_6_LD_10_RN_11_RD_22_0.png","I_Dist_100_LN_6_LD_10_RN_13_RD_26_0.png","I_Dist_100_LN_6_LD_10_RN_7_RD_14_0.png","I_Dist_100_LN_9_LD_10_RN_20_RD_25_0.png","I_Dist_100_LN_9_LD_15_RN_13_RD_26_0.png","I_Dist_100_LN_9_LD_15_RN_14_RD_28_0.png"],["I_Dist_100_LN_10_LD_25_RN_8_RD_16_1.png","I_Dist_100_LN_10_LD_25_RN_9_RD_18_1.png","I_Dist_100_LN_11_LD_22_RN_9_RD_15_1.png","I_Dist_100_LN_12_LD_24_RN_9_RD_15_1.png","I_Dist_100_LN_12_LD_30_RN_2_RD_4_1.png","I_Dist_100_LN_13_LD_26_RN_12_RD_20_1.png","I_Dist_100_LN_13_LD_26_RN_6_RD_10_1.png","I_Dist_100_LN_17_LD_30_RN_10_RD_15_1.png","I_Dist_100_LN_6_LD_12_RN_3_RD_5_1.png","I_Dist_100_LN_8_LD_16_RN_6_RD_10_1.png","I_Dist_100_LN_8_LD_20_RN_1_RD_2_1.png","I_Dist_100_LN_9_LD_18_RN_6_RD_10_1.png"]],"dist100_S":[["E_Dist_100_LN_2_LD_12_RN_2_RD_30_0.png","E_Dist_100_LN_6_LD_10_RN_6_RD_12_0.png"],["E_Dist_100_LN_6_LD_12_RN_6_RD_10_1.png"]],"dist200_C":[["C_Dist_200_LN_11_LD_22_RN_3_RD_10_0.png","C_Dist_200_LN_12_LD_15_RN_6_RD_10_0.png","C_Dist_200_LN_12_LD_20_RN_6_RD_15_0.png","C_Dist_200_LN_14_LD_28_RN_6_RD_20_0.png","C_Dist_200_LN_15_LD_25_RN_4_RD_10_0.png","C_Dist_200_LN_16_LD_20_RN_12_RD_20_0.png","C_Dist_200_LN_16_LD_30_RN_9_RD_27_0.png","C_Dist_200_LN_20_LD_25_RN_9_RD_15_0.png","C_Dist_200_LN_21_LD_30_RN_2_RD_4_0.png","C_Dist_200_LN_4_LD_10_RN_3_RD_15_0.png","C_Dist_200_LN_4_LD_8_RN_3_RD_10_0.png","C_Dist_200_LN_6_LD_15_RN_3_RD_15_0.png","C_Dist_200_LN_7_LD_21_RN_2_RD_15_0.png","C_Dist_200_LN_8_LD_15_RN_2_RD_6_0.png","C_Dist_200_LN_8_LD_15_RN_3_RD_9_0.png","C_Dist_200_LN_8_LD_15_RN_7_RD_21_0.png","C_Dist_200_LN_9_LD_20_RN_4_RD_16_0.png"],["C_Dist_200_LN_1_LD_2_RN_21_RD_30_1.png","C_Dist_200_LN_13_LD_26_RN_14_RD_20_1.png","C_Dist_200_LN_3_LD_10_RN_11_RD_22_1.png","C_Dist_200_LN_3_LD_10_RN_14_RD_28_1.png","C_Dist_200_LN_3_LD_10_RN_7_RD_14_1.png","C_Dist_200_LN_3_LD_12_RN_9_RD_20_1.png","C_Dist_200_LN_3_LD_6_RN_14_RD_20_1.png","C_Dist_200_LN_5_LD_10_RN_14_RD_20_1.png","C_Dist_200_LN_6_LD_12_RN_7_RD_10_1.png","C_Dist_200_LN_6_LD_20_RN_11_RD_22_1.png","C_Dist_200_LN_7_LD_15_RN_18_RD_27_1.png","C_Dist_200_LN_9_LD_30_RN_13_RD_26_1.png"]],"dist200_I":[["I_Dist_200_LN_1_LD_2_RN_3_RD_10_0.png","I_Dist_200_LN_1_LD_3_RN_2_RD_15_0.png","I_Dist_200_LN_3_LD_4_RN_11_RD_20_0.png","I_Dist_200_LN_4_LD_5_RN_6_RD_10_0.png","I_Dist_200_LN_4_LD_6_RN_14_RD_30_0.png","I_Dist_200_LN_7_LD_10_RN_12_RD_24_0.png","I_Dist_200_LN_7_LD_10_RN_14_RD_28_0.png","I_Dist_200_LN_7_LD_10_RN_8_RD_16_0.png"],["I_Dist_200_LN_11_LD_20_RN_3_RD_4_1.png","I_Dist_200_LN_14_LD_30_RN_12_RD_18_1.png","I_Dist_200_LN_14_LD_30_RN_6_RD_9_1.png","I_Dist_200_LN_3_LD_10_RN_1_RD_2_1.png","I_Dist_200_LN_4_LD_30_RN_1_RD_3_1.png","I_Dist_200_LN_6_LD_20_RN_3_RD_6_1.png","I_Dist_200_LN_7_LD_15_RN_4_RD_6_1.png","I_Dist_200_LN_7_LD_15_RN_6_RD_9_1.png","I_Dist_200_LN_9_LD_15_RN_8_RD_10_1.png"]],"dist200_S":[["E_Dist_200_LN_3_LD_6_RN_3_RD_10_0.png"],["E_Dist_200_LN_3_LD_10_RN_3_RD_6_1.png"]],"dist300_C":[["C_Dist_300_LN_11_LD_22_RN_1_RD_5_0.png","C_Dist_300_LN_11_LD_22_RN_2_RD_10_0.png","C_Dist_300_LN_11_LD_22_RN_4_RD_20_0.png","C_Dist_300_LN_12_LD_24_RN_2_RD_10_0.png","C_Dist_300_LN_18_LD_20_RN_9_RD_15_0.png","C_Dist_300_LN_20_LD_25_RN_13_RD_26_0.png","C_Dist_300_LN_20_LD_25_RN_14_RD_28_0.png","C_Dist_300_LN_20_LD_25_RN_5_RD_10_0.png","C_Dist_300_LN_20_LD_25_RN_8_RD_16_0.png","C_Dist_300_LN_20_LD_25_RN_9_RD_18_0.png","C_Dist_300_LN_24_LD_30_RN_2_RD_4_0.png","C_Dist_300_LN_24_LD_30_RN_8_RD_16_0.png","C_Dist_300_LN_3_LD_6_RN_2_RD_10_0.png","C_Dist_300_LN_4_LD_10_RN_1_RD_10_0.png","C_Dist_300_LN_4_LD_5_RN_2_RD_4_0.png","C_Dist_300_LN_8_LD_16_RN_1_RD_5_0.png","C_Dist_300_LN_9_LD_10_RN_3_RD_5_0.png"],["C_Dist_300_LN_1_LD_20_RN_7_RD_20_1.png","C_Dist_300_LN_1_LD_3_RN_19_RD_30_1.png","C_Dist_300_LN_1_LD_30_RN_8_RD_24_1.png","C_Dist_300_LN_1_LD_5_RN_11_RD_22_1.png","C_Dist_300_LN_1_LD_5_RN_3_RD_6_1.png","C_Dist_300_LN_1_LD_5_RN_6_RD_12_1.png","C_Dist_300_LN_2_LD_10_RN_12_RD_24_1.png","C_Dist_300_LN_2_LD_20_RN_10_RD_25_1.png","C_Dist_300_LN_3_LD_12_RN_11_RD_20_1.png","C_Dist_300_LN_3_LD_6_RN_4_RD_5_1.png","C_Dist_300_LN_4_LD_20_RN_13_RD_26_1.png","C_Dist_300_LN_5_LD_25_RN_6_RD_12_1.png","C_Dist_300_LN_5_LD_25_RN_7_RD_14_1.png","C_Dist_300_LN_7_LD_14_RN_20_RD_25_1.png","C_Dist_300_LN_8_LD_15_RN_10_RD_12_1.png"]],"dist300_I":[["I_Dist_300_LN_1_LD_2_RN_2_RD_10_0.png","I_Dist_300_LN_1_LD_2_RN_3_RD_15_0.png","I_Dist_300_LN_2_LD_4_RN_6_RD_30_0.png","I_Dist_300_LN_3_LD_6_RN_4_RD_20_0.png","I_Dist_300_LN_4_LD_5_RN_6_RD_12_0.png","I_Dist_300_LN_4_LD_5_RN_8_RD_16_0.png","I_Dist_300_LN_7_LD_10_RN_8_RD_20_0.png","I_Dist_300_LN_8_LD_10_RN_14_RD_28_0.png","I_Dist_300_LN_8_LD_10_RN_9_RD_18_0.png"],["I_Dist_300_LN_13_LD_26_RN_12_RD_15_1.png","I_Dist_300_LN_4_LD_20_RN_2_RD_4_1.png"]],"dist300_S":[["E_Dist_300_LN_9_LD_12_RN_9_RD_20_0.png"],["E_Dist_300_LN_18_LD_30_RN_18_RD_20_1.png","E_Dist_300_LN_3_LD_10_RN_3_RD_5_1.png","E_Dist_300_LN_9_LD_20_RN_9_RD_12_1.png"]],"dist500_C":[["C_Dist_500_LN_10_LD_13_RN_7_RD_26_0.png","C_Dist_500_LN_10_LD_15_RN_4_RD_24_0.png","C_Dist_500_LN_12_LD_16_RN_3_RD_12_0.png","C_Dist_500_LN_12_LD_18_RN_4_RD_24_0.png","C_Dist_500_LN_15_LD_18_RN_5_RD_15_0.png","C_Dist_500_LN_15_LD_20_RN_1_RD_4_0.png","C_Dist_500_LN_18_LD_27_RN_1_RD_6_0.png","C_Dist_500_LN_20_LD_24_RN_1_RD_3_0.png","C_Dist_500_LN_20_LD_24_RN_3_RD_9_0.png","C_Dist_500_LN_20_LD_24_RN_7_RD_21_0.png","C_Dist_500_LN_20_LD_28_RN_3_RD_14_0.png","C_Dist_500_LN_21_LD_28_RN_6_RD_24_0.png","C_Dist_500_LN_22_LD_28_RN_2_RD_7_0.png","C_Dist_500_LN_25_LD_30_RN_9_RD_27_0.png","C_Dist_500_LN_4_LD_6_RN_1_RD_6_0.png","C_Dist_500_LN_5_LD_6_RN_2_RD_6_0.png","C_Dist_500_LN_6_LD_9_RN_1_RD_6_0.png","C_Dist_500_LN_7_LD_10_RN_1_RD_5_0.png","C_Dist_500_LN_8_LD_12_RN_1_RD_6_0.png","C_Dist_500_LN_8_LD_12_RN_4_RD_24_0.png"],["C_Dist_500_LN_1_LD_4_RN_12_RD_16_1.png","C_Dist_500_LN_1_LD_4_RN_9_RD_12_1.png","C_Dist_500_LN_1_LD_9_RN_11_RD_18_1.png","C_Dist_500_LN_10_LD_24_RN_22_RD_24_1.png","C_Dist_500_LN_2_LD_12_RN_10_RD_15_1.png","C_Dist_500_LN_2_LD_12_RN_12_RD_18_1.png","C_Dist_500_LN_2_LD_12_RN_4_RD_6_1.png","C_Dist_500_LN_2_LD_24_RN_7_RD_12_1.png","C_Dist_500_LN_2_LD_5_RN_18_RD_20_1.png","C_Dist_500_LN_2_LD_5_RN_9_RD_10_1.png","C_Dist_500_LN_2_LD_8_RN_12_RD_16_1.png","C_Dist_500_LN_2_LD_8_RN_21_RD_28_1.png","C_Dist_500_LN_3_LD_10_RN_4_RD_5_1.png","C_Dist_500_LN_3_LD_12_RN_15_RD_20_1.png","C_Dist_500_LN_3_LD_30_RN_6_RD_10_1.png","C_Dist_500_LN_3_LD_8_RN_14_RD_16_1.png","C_Dist_500_LN_4_LD_16_RN_15_RD_20_1.png","C_Dist_500_LN_4_LD_24_RN_12_RD_18_1.png","C_Dist_500_LN_5_LD_14_RN_6_RD_7_1.png","C_Dist_500_LN_7_LD_21_RN_20_RD_24_1.png","C_Dist_500_LN_7_LD_28_RN_12_RD_16_1.png","C_Dist_500_LN_7_LD_28_RN_9_RD_12_1.png","C_Dist_500_LN_9_LD_27_RN_20_RD_24_1.png"]],"dist500_I":[["I_Dist_500_LN_2_LD_3_RN_4_RD_24_0.png","I_Dist_500_LN_5_LD_6_RN_6_RD_18_0.png","I_Dist_500_LN_7_LD_8_RN_9_RD_24_0.png"],["I_Dist_500_LN_7_LD_21_RN_5_RD_6_1.png"]],"dist500_S":[["E_Dist_500_LN_6_LD_8_RN_6_RD_24_0.png"],["E_Dist_500_LN_2_LD_12_RN_2_RD_3_1.png","E_Dist_500_LN_6_LD_24_RN_6_RD_8_1.png"]]}},{"start_time":1551789967230,"click_time":1551789969411,"finger_time":1551789968630,"fix_duration":1438.5419487017607,"trial":1,"RT":1400,"MT":781,"sideResp":2,"stimulus":[],"xmouse":[771,771,771,771,771,771,771,771,771,771,771,771,771,771,771,771,771,771,771,771,771,771,771,771,771,771,771,771,771,771,771,771,771,771,771,771,771,771,771,771,771,771,771,771,771,771,771,771,771,771,771,771,771,771,771,771,771,771,771,771,771,771,771,771,771,771,771,771,772,781,804,930,944,971,976,980,981,981,981,981,981,981,981,983,992,1000,1036,1051,1058,1058,1058,1065,1066,1075,1077,1077,1078,1078,1078,1078,1077,1077,1077,1077,1077,1077,1077,1077,1077,1077],"ymouse":[481,481,481,481,481,481,481,481,481,481,481,481,481,481,481,481,481,481,481,481,481,481,481,481,481,481,481,481,481,481,481,481,481,481,481,481,481,481,481,481,481,481,481,481,481,481,481,481,481,481,481,481,481,481,481,481,481,481,481,481,481,481,481,481,481,481,481,481,480,465,431,288,272,240,231,218,196,195,195,194,193,189,189,187,179,174,149,142,137,137,137,131,130,123,121,119,115,115,115,115,113,112,101,100,100,100,100,100,100,99],"timestamp_mouse":[9,21,46,60,81,101,122,142,160,181,200,220,241,260,282,300,321,341,361,381,400,421,440,462,482,500,520,541,561,581,602,621,640,662,682,700,721,741,761,780,800,821,841,860,880,901,921,941,962,982,1001,1021,1040,1061,1080,1101,1122,1142,1161,1182,1201,1221,1241,1260,1280,1301,1321,1341,1361,1380,1400,1421,1441,1461,1480,1500,1521,1542,1561,1580,1601,1621,1642,1660,1681,1701,1720,1742,1760,1780,1801,1821,1841,1860,1881,1901,1922,1941,1960,1981,2001,2021,2041,2061,2081,2101,2122,2141,2162,2180],"xSR":733.5,"ySR":443.3,"xT1":420.09999999999997,"yT1":0,"xT2":1046.8999999999999,"yT2":0,"toosoon":0,"cond_shown":"Incongruent","ratio_trial":300,"L_num":8,"L_den":10,"R_num":9,"R_den":18,"correct_side":1,"subjID":"SofiaFandiñoTorres12","gender":"1","school":"6","age":"11"},{"start_time":1551789971897,"click_time":1551789973371,"finger_time":1551789973032,"fix_duration":685.0309427860813,"trial":2,"RT":1135,"MT":339,"sideResp":2,"stimulus":[],"xmouse":[774,774,774,774,774,774,774,774,774,774,774,774,774,774,774,774,774,774,774,774,774,774,774,774,774,774,774,774,774,774,774,774,774,774,774,774,774,774,774,774,774,774,774,774,774,774,774,774,774,774,774,774,774,774,780,808,919,1093,1157,1158,1161,1170,1183,1184,1184,1184,1184,1184,1184,1183,1179,1176,1150,1137],"ymouse":[496,496,496,496,496,496,496,496,496,496,496,496,496,496,496,496,496,496,496,496,496,496,496,496,496,496,496,496,496,496,496,496,496,496,496,496,496,496,496,496,496,496,496,496,496,496,496,496,496,496,496,496,496,496,490,468,387,236,161,161,155,131,85,82,82,82,82,82,82,82,82,82,82,83],"timestamp_mouse":[14,33,54,73,95,114,135,153,173,193,214,233,253,273,294,314,334,354,373,395,413,433,453,475,493,515,533,555,574,593,614,635,654,675,693,715,733,753,774,793,813,835,854,874,893,914,935,953,973,994,1014,1034,1053,1073,1094,1113,1135,1153,1174,1193,1214,1233,1253,1275,1294,1313,1335,1354,1374,1394,1414,1434,1453,1474],"xSR":733.5,"ySR":443.3,"xT1":420.09999999999997,"yT1":0,"xT2":1046.8999999999999,"yT2":0,"toosoon":0,"cond_shown":"Congruent","ratio_trial":200,"L_num":3,"L_den":10,"R_num":14,"R_den":28,"correct_side":2,"subjID":"SofiaFandiñoTorres12","gender":"1","school":"6","age":"11"},{"start_time":1551789976233,"click_time":1551789977351,"finger_time":1551789976891,"fix_duration":1401.8587643544106,"trial":3,"RT":658,"MT":460,"sideResp":1,"stimulus":[],"xmouse":[761,761,761,761,761,761,761,761,761,761,761,761,761,761,761,761,761,761,761,761,761,761,761,761,761,761,761,761,761,761,762,757,749,742,738,730,721,711,701,689,679,670,665,660,652,639,636,633,629,622,584,573,560,545,533,518],"ymouse":[469,469,469,469,469,469,469,469,469,469,469,469,469,469,469,469,469,469,469,469,469,469,469,469,469,469,469,469,469,469,465,447,422,390,357,269,216,183,157,133,117,105,98,92,81,62,58,55,49,45,27,24,17,11,9,6],"timestamp_mouse":[17,37,64,78,98,118,139,158,179,199,217,238,257,279,297,317,338,357,378,398,417,437,457,478,498,518,538,557,578,598,618,638,658,677,697,717,738,758,777,798,817,838,858,878,899,918,938,957,977,997,1019,1039,1058,1077,1099,1118],"xSR":733.5,"ySR":443.3,"xT1":420.09999999999997,"yT1":0,"xT2":1046.8999999999999,"yT2":0,"toosoon":0,"cond_shown":"Incongruent","ratio_trial":200,"L_num":6,"L_den":20,"R_num":3,"R_den":6,"correct_side":2,"subjID":"SofiaFandiñoTorres12","gender":"1","school":"6","age":"11"},{"start_time":1551789978872,"click_time":1551789982131,"finger_time":1551789981410,"fix_duration":359.73119465954284,"trial":4,"RT":2538,"MT":721,"sideResp":2,"stimulus":[],"xmouse":[787,787,787,787,787,787,787,787,787,787,787,787,787,787,787,787,787,787,787,787,787,787,787,787,787,787,787,787,787,787,787,787,787,787,787,787,787,787,787,787,787,787,787,787,787,787,787,787,787,787,787,787,787,787,787,787,787,787,787,787,787,787,787,787,787,787,787,787,787,787,787,787,787,787,787,787,787,787,787,787,787,787,787,787,787,787,787,787,787,787,787,787,787,787,787,787,787,787,787,787,787,787,787,787,787,787,787,787,787,787,787,787,787,787,787,787,787,787,787,787,787,787,787,788,801,820,844,867,877,907,917,925,942,959,968,979,989,998,1018,1027,1029,1033,1034,1040,1040,1043,1044,1047,1062,1064,1084,1103,1119,1120,1120,1120,1120,1120,1120,1120,1120,1120,1120],"ymouse":[518,518,518,518,518,518,518,518,518,518,518,518,518,518,518,518,518,518,518,518,518,518,518,518,518,518,518,518,518,518,518,518,518,518,518,518,518,518,518,518,518,518,518,518,518,518,518,518,518,518,518,518,518,518,518,518,518,518,518,518,518,518,518,518,518,518,518,518,518,518,518,518,518,518,518,518,518,518,518,518,518,518,518,518,518,518,518,518,518,518,518,518,518,518,518,518,518,518,518,518,518,518,518,518,518,518,518,518,518,518,518,518,518,518,518,518,518,518,518,518,518,518,516,516,503,486,465,435,420,353,332,319,300,284,276,265,254,241,211,194,191,182,178,165,164,161,159,157,147,147,134,122,110,108,108,108,108,108,108,103,102,101,99],"timestamp_mouse":[20,39,61,79,99,120,139,158,179,199,218,239,258,278,299,320,339,358,380,398,418,439,459,479,499,519,539,559,579,599,618,638,659,679,699,719,740,759,778,798,819,839,859,879,898,920,938,958,979,1000,1018,1040,1058,1079,1099,1119,1138,1159,1180,1198,1220,1240,1260,1280,1299,1318,1340,1359,1380,1399,1418,1440,1458,1479,1500,1520,1538,1559,1580,1599,1619,1639,1660,1680,1699,1720,1738,1759,1779,1799,1819,1838,1859,1880,1899,1920,1938,1960,1979,1999,2018,2040,2058,2080,2099,2119,2140,2158,2179,2200,2218,2240,2258,2279,2298,2319,2339,2360,2379,2399,2419,2438,2459,2479,2499,2520,2538,2558,2578,2600,2619,2639,2658,2678,2700,2718,2739,2760,2779,2799,2820,2840,2860,2879,2899,2919,2939,2958,2978,3000,3019,3039,3060,3079,3100,3119,3140,3159,3178,3199,3219,3239,3259],"xSR":733.5,"ySR":443.3,"xT1":420.09999999999997,"yT1":0,"xT2":1046.8999999999999,"yT2":0,"toosoon":0,"cond_shown":"Incongruent","ratio_trial":100,"L_num":9,"L_den":18,"R_num":6,"R_den":10,"correct_side":2,"subjID":"SofiaFandiñoTorres12","gender":"1","school":"6","age":"11"},{"start_time":1551789985723,"click_time":1551789987410,"finger_time":1551789986932,"fix_duration":410.0934078471109,"trial":5,"RT":1209,"MT":478,"sideResp":1,"stimulus":[],"xmouse":[794,794,794,794,794,794,794,794,794,794,794,794,794,794,794,794,794,794,794,794,794,794,794,794,794,794,794,794,794,794,794,794,794,794,794,794,794,794,794,794,794,794,794,794,794,794,794,794,794,794,794,794,794,794,794,794,794,794,794,791,787,776,769,761,753,744,717,704,688,667,644,604,590,578,572,564,557,556,554,548,539,534,531,521,508],"ymouse":[459,459,459,459,459,459,459,459,459,459,459,459,459,459,459,459,459,459,459,459,459,459,459,459,459,459,459,459,459,459,459,459,459,459,459,459,459,459,459,459,459,459,459,459,459,459,459,459,459,459,459,459,459,459,459,459,458,453,451,444,436,413,396,378,356,334,279,257,228,196,158,94,70,47,39,28,20,20,20,19,17,17,16,16,16],"timestamp_mouse":[9,29,49,67,88,109,128,148,167,188,208,228,249,267,287,308,328,349,369,388,408,428,448,468,489,507,528,548,567,588,607,627,648,669,688,708,727,749,768,787,809,829,848,869,887,907,928,947,969,987,1008,1028,1048,1068,1088,1107,1127,1148,1167,1188,1209,1227,1248,1268,1289,1307,1327,1347,1368,1388,1409,1429,1448,1468,1488,1508,1528,1547,1568,1588,1607,1627,1649,1668,1687],"xSR":733.5,"ySR":443.3,"xT1":420.09999999999997,"yT1":0,"xT2":1046.8999999999999,"yT2":0,"toosoon":0,"cond_shown":"Congruent","ratio_trial":300,"L_num":11,"L_den":22,"R_num":4,"R_den":20,"correct_side":1,"subjID":"SofiaFandiñoTorres12","gender":"1","school":"6","age":"11"},{"start_time":1551789989002,"click_time":1551789990571,"finger_time":1551789989871,"fix_duration":268.3458246852811,"trial":6,"RT":869,"MT":700,"sideResp":2,"stimulus":[],"xmouse":[789,789,789,789,789,789,789,789,789,789,789,789,789,789,789,789,789,789,789,789,789,789,789,789,789,789,789,789,789,789,789,789,789,789,789,789,789,789,789,789,789,792,806,812,820,824,831,848,855,861,868,876,888,892,897,900,902,905,907,909,912,918,934,946,951,951,959,963,965,965,966,967,975,990,1005,1015,1017,1034,1050],"ymouse":[480,480,480,480,480,480,480,480,480,480,480,480,480,480,480,480,480,480,480,480,480,480,480,480,480,480,480,480,480,480,480,480,480,480,480,480,480,480,480,480,480,477,456,439,418,399,379,327,302,279,257,234,198,188,173,164,156,149,144,141,136,129,122,118,117,117,115,114,114,114,114,113,105,97,88,78,77,63,55],"timestamp_mouse":[9,43,49,69,90,109,130,148,170,190,208,228,249,268,289,308,329,350,370,389,410,428,448,470,488,510,530,549,568,590,610,628,650,668,690,709,729,750,769,789,808,828,849,869,888,909,929,948,969,988,1008,1029,1048,1070,1089,1108,1128,1148,1170,1189,1210,1228,1248,1268,1289,1308,1329,1348,1369,1389,1410,1429,1448,1469,1489,1509,1530,1549,1569],"xSR":733.5,"ySR":443.3,"xT1":420.09999999999997,"yT1":0,"xT2":1046.8999999999999,"yT2":0,"toosoon":0,"cond_shown":"Incongruent","ratio_trial":100,"L_num":1,"L_den":2,"R_num":8,"R_den":20,"correct_side":1,"subjID":"SofiaFandiñoTorres12","gender":"1","school":"6","age":"11"},{"start_time":1551789992553,"click_time":1551789993650,"finger_time":1551789993250,"fix_duration":721.9939960882093,"trial":7,"RT":697,"MT":400,"sideResp":1,"stimulus":[],"xmouse":[759,759,759,759,759,759,759,759,759,759,759,759,759,759,759,759,759,759,759,759,759,759,759,759,759,759,759,759,759,759,759,759,759,758,741,724,708,693,683,666,660,655,650,647,644,643,636,627,616,586,572,564,549,535,503],"ymouse":[493,493,493,493,493,493,493,493,493,493,493,493,493,493,493,493,493,493,493,493,493,493,493,493,493,493,493,493,493,493,493,490,484,473,420,382,344,312,290,253,241,232,225,220,214,212,205,197,187,154,136,126,110,96,72],"timestamp_mouse":[18,37,61,77,98,117,139,157,178,199,218,239,258,277,299,317,337,359,378,399,418,438,459,478,498,518,537,557,578,597,619,637,659,677,697,719,737,757,777,797,819,838,857,878,897,918,938,958,979,998,1018,1038,1059,1078,1097],"xSR":733.5,"ySR":443.3,"xT1":420.09999999999997,"yT1":0,"xT2":1046.8999999999999,"yT2":0,"toosoon":0,"cond_shown":"Congruent","ratio_trial":100,"L_num":11,"L_den":22,"R_num":4,"R_den":10,"correct_side":1,"subjID":"SofiaFandiñoTorres12","gender":"1","school":"6","age":"11"},{"start_time":1551789995102,"click_time":1551789997751,"finger_time":1551789997191,"fix_duration":250,"trial":8,"RT":2089,"MT":560,"sideResp":1,"stimulus":[],"xmouse":[769,769,769,769,769,769,769,769,769,769,769,769,769,769,769,769,769,769,769,769,769,769,769,769,769,769,769,769,769,769,769,769,769,769,769,769,769,769,769,769,769,769,769,769,769,769,769,769,769,769,769,769,769,769,769,769,769,769,769,769,769,769,769,769,769,769,769,769,769,769,769,769,769,769,769,769,769,769,769,769,769,769,769,769,769,769,769,769,769,769,769,769,769,769,769,769,769,769,769,769,769,769,769,755,729,659,538,404,358,308,279,270,267,266,265,265,265,276,294,325,358,378,387,387,387,387,387,392,398,404,411,420,437],"ymouse":[482,482,482,482,482,482,482,482,482,482,482,482,482,482,482,482,482,482,482,482,482,482,482,482,482,482,482,482,482,482,482,482,482,482,482,482,482,482,482,482,482,482,482,482,482,482,482,482,482,482,482,482,482,482,482,482,482,482,482,482,482,482,482,482,482,482,482,482,482,482,482,482,482,482,482,482,482,482,482,482,482,482,482,482,482,482,482,482,482,482,482,482,482,482,482,482,482,482,482,482,482,482,482,475,462,418,339,231,178,119,80,64,57,49,41,36,33,28,26,25,25,26,31,32,32,32,32,32,35,36,39,41,46],"timestamp_mouse":[9,29,48,69,90,108,129,149,168,190,208,228,248,270,288,310,328,349,368,389,408,430,448,469,488,508,529,548,569,588,609,629,649,670,689,708,730,748,770,790,809,830,848,869,888,910,930,949,968,990,1009,1028,1048,1070,1088,1108,1129,1148,1169,1188,1209,1228,1249,1268,1289,1309,1330,1350,1368,1389,1409,1430,1449,1468,1490,1508,1529,1549,1569,1590,1609,1629,1649,1668,1690,1708,1730,1748,1768,1788,1810,1830,1849,1868,1890,1910,1929,1948,1969,1989,2008,2030,2048,2068,2089,2109,2129,2148,2169,2189,2208,2229,2249,2270,2289,2308,2329,2349,2369,2389,2408,2428,2448,2468,2488,2509,2529,2549,2569,2588,2610,2629,2649],"xSR":733.5,"ySR":443.3,"xT1":420.09999999999997,"yT1":0,"xT2":1046.8999999999999,"yT2":0,"toosoon":0,"cond_shown":"Congruent","ratio_trial":300,"L_num":3,"L_den":6,"R_num":2,"R_den":10,"correct_side":1,"subjID":"SofiaFandiñoTorres12","gender":"1","school":"6","age":"11"},{"start_time":1551789999356,"click_time":1551790001391,"finger_time":1551790001030,"fix_duration":522.2379309474761,"trial":9,"RT":1674,"MT":361,"sideResp":1,"stimulus":[],"xmouse":[802,802,802,802,802,802,802,802,802,802,802,802,802,801,801,801,801,800,800,800,800,800,800,800,800,800,800,800,800,800,800,800,800,800,800,800,800,800,800,800,800,800,800,800,800,800,800,800,800,800,800,800,800,800,800,800,800,800,800,800,800,800,800,800,800,800,800,800,800,800,800,800,800,800,800,800,800,800,800,800,797,788,754,710,637,632,632,632,632,632,630,622,612,597,549,527,512,499,493,484,481,476],"ymouse":[481,481,481,481,481,481,481,481,481,481,481,481,481,482,482,482,482,482,482,482,482,482,482,482,482,482,482,482,482,482,482,482,482,482,482,482,482,482,482,482,482,482,482,482,482,482,482,482,482,482,482,482,482,482,482,482,482,482,482,482,482,482,482,482,482,482,482,482,482,482,482,482,482,482,482,482,482,482,482,482,482,478,466,451,423,420,419,419,419,419,417,404,386,360,252,198,161,138,126,110,106,99],"timestamp_mouse":[18,46,56,75,95,116,134,154,175,196,214,235,254,275,295,315,335,354,375,396,415,435,455,476,495,515,534,556,576,594,615,634,656,674,695,715,734,756,775,795,815,836,855,875,895,915,935,955,975,994,1014,1035,1054,1075,1096,1115,1136,1156,1176,1195,1216,1234,1254,1274,1295,1316,1334,1356,1375,1394,1416,1435,1454,1476,1495,1515,1536,1556,1574,1596,1614,1635,1656,1674,1694,1716,1735,1755,1774,1795,1815,1834,1855,1875,1894,1914,1936,1954,1974,1994,2014,2035],"xSR":733.5,"ySR":443.3,"xT1":420.09999999999997,"yT1":0,"xT2":1046.8999999999999,"yT2":0,"toosoon":0,"cond_shown":"Incongruent","ratio_trial":300,"L_num":3,"L_den":6,"R_num":4,"R_den":20,"correct_side":1,"subjID":"SofiaFandiñoTorres12","gender":"1","school":"6","age":"11"},{"start_time":1551790004905,"click_time":1551790006751,"finger_time":1551790006370,"fix_duration":732.5215282713915,"trial":10,"RT":1465,"MT":381,"sideResp":1,"stimulus":[],"xmouse":[812,812,812,812,812,812,812,812,812,812,812,812,812,812,812,812,812,812,812,812,812,812,812,812,812,812,812,812,812,812,812,812,812,812,812,812,812,812,812,812,812,812,812,812,812,812,812,812,812,812,812,812,812,812,812,812,812,812,812,812,812,812,812,812,812,812,812,812,812,812,811,803,746,727,717,709,703,689,677,650,612,594,585,582,575,567,554,533,531,531,528,523,514],"ymouse":[494,494,494,494,494,494,494,494,494,494,494,494,494,494,494,494,494,494,494,494,494,494,494,494,494,494,494,494,494,494,494,494,494,494,494,494,494,494,494,494,494,494,494,494,494,494,494,494,494,494,494,494,494,494,494,494,494,494,494,494,494,494,494,494,494,494,494,494,494,493,492,482,448,431,416,399,385,346,323,285,244,223,214,206,190,173,155,124,122,119,113,106,91],"timestamp_mouse":[8,26,60,66,87,105,125,145,166,186,206,225,246,265,287,305,327,346,367,386,406,426,447,465,486,506,525,545,567,585,606,626,645,666,686,706,726,747,766,785,806,827,845,866,885,907,925,946,967,986,1007,1025,1046,1065,1087,1105,1127,1145,1166,1186,1205,1226,1247,1266,1286,1306,1326,1346,1367,1385,1407,1427,1446,1465,1486,1507,1525,1545,1565,1587,1606,1627,1646,1667,1685,1705,1725,1746,1767,1786,1806,1827,1845],"xSR":733.5,"ySR":443.3,"xT1":420.09999999999997,"yT1":0,"xT2":1046.8999999999999,"yT2":0,"toosoon":0,"cond_shown":"Incongruent","ratio_trial":200,"L_num":11,"L_den":20,"R_num":3,"R_den":4,"correct_side":2,"subjID":"SofiaFandiñoTorres12","gender":"1","school":"6","age":"11"},{"start_time":1551790011517,"click_time":1551790013771,"finger_time":1551790013291,"fix_duration":1365.12123293818,"trial":11,"RT":1774,"MT":480,"sideResp":2,"stimulus":[],"xmouse":[797,797,797,797,797,797,797,797,797,797,797,797,797,797,797,797,797,797,797,797,797,797,797,797,797,797,797,797,797,797,797,797,797,797,797,797,797,797,797,797,797,797,797,797,797,797,797,797,797,797,797,797,797,797,797,797,797,797,797,797,797,797,797,797,797,797,797,797,797,797,797,797,797,797,797,797,797,798,798,798,798,798,798,798,798,798,805,818,846,867,879,896,901,905,911,920,953,960,964,965,968,980,986,991,994,998,1014,1021,1024,1030,1037,1053,1063],"ymouse":[486,486,486,486,486,486,486,486,486,486,486,486,486,486,486,486,486,486,486,486,486,486,486,486,486,486,486,486,486,486,486,486,486,486,486,486,486,486,486,486,486,486,486,486,486,486,486,486,486,486,486,486,486,486,486,486,486,486,486,486,486,486,486,486,486,486,486,486,486,486,486,486,486,486,486,486,486,485,485,485,485,485,485,485,485,482,465,451,429,416,405,379,370,362,354,342,306,295,284,278,267,242,233,223,217,211,189,174,169,160,146,105,87],"timestamp_mouse":[13,46,54,73,93,115,134,154,174,195,215,234,253,274,293,315,333,353,375,394,414,434,455,474,494,515,534,554,574,594,614,633,655,674,695,714,734,754,773,793,815,835,853,873,893,914,934,955,974,993,1013,1034,1053,1074,1093,1114,1133,1154,1174,1195,1215,1235,1254,1274,1294,1313,1334,1354,1373,1394,1414,1434,1454,1474,1495,1514,1534,1554,1575,1593,1614,1633,1654,1675,1693,1714,1734,1753,1774,1795,1814,1834,1855,1873,1894,1914,1934,1955,1973,1994,2014,2034,2055,2074,2094,2114,2134,2153,2174,2194,2214,2234,2254],"xSR":733.5,"ySR":443.3,"xT1":420.09999999999997,"yT1":0,"xT2":1046.8999999999999,"yT2":0,"toosoon":0,"cond_shown":"Incongruent","ratio_trial":300,"L_num":2,"L_den":4,"R_num":6,"R_den":30,"correct_side":1,"subjID":"SofiaFandiñoTorres12","gender":"1","school":"6","age":"11"},{"start_time":1551790015322,"click_time":1551790017251,"finger_time":1551790016451,"fix_duration":250,"trial":12,"RT":1129,"MT":800,"sideResp":2,"stimulus":[],"xmouse":[780,780,780,780,780,780,780,780,780,780,780,780,780,780,780,780,780,780,780,780,780,780,780,780,780,780,780,780,780,780,780,780,780,780,780,780,780,780,780,780,780,780,780,780,780,780,780,780,780,780,780,780,780,779,783,799,840,844,845,847,847,847,847,848,853,895,933,940,948,961,972,989,997,1010,1010,1017,1022,1025,1027,1029,1030,1037,1038,1039,1045,1045,1051,1052,1052,1052,1052,1052,1053,1053,1054,1054,1070],"ymouse":[520,520,520,520,520,520,520,520,520,520,520,520,520,520,520,520,520,520,520,520,520,520,520,520,520,520,520,520,520,520,520,520,520,520,520,520,520,520,520,520,520,520,520,520,520,520,520,520,520,520,520,520,520,514,511,498,461,451,445,441,440,440,440,437,431,389,330,312,287,249,222,186,177,162,159,152,143,139,137,136,136,128,128,127,121,121,108,107,107,107,107,107,105,105,101,101,77],"timestamp_mouse":[8,28,60,69,89,109,129,148,169,189,209,229,250,268,288,309,328,349,369,390,410,430,450,468,489,509,529,548,568,590,608,630,649,668,689,709,728,748,770,789,809,828,850,870,888,908,929,948,969,989,1008,1029,1049,1069,1088,1110,1129,1149,1168,1188,1210,1229,1249,1268,1289,1309,1329,1349,1368,1388,1410,1430,1450,1469,1488,1509,1528,1548,1569,1590,1610,1628,1649,1669,1689,1709,1729,1750,1769,1790,1809,1829,1850,1868,1889,1910,1929],"xSR":733.5,"ySR":443.3,"xT1":420.09999999999997,"yT1":0,"xT2":1046.8999999999999,"yT2":0,"toosoon":0,"cond_shown":"Congruent","ratio_trial":100,"L_num":1,"L_den":2,"R_num":18,"R_den":30,"correct_side":2,"subjID":"SofiaFandiñoTorres12","gender":"1","school":"6","age":"11"},{"start_time":1551790019919,"click_time":1551790022031,"finger_time":1551790021252,"fix_duration":927.3706286362403,"trial":13,"RT":1333,"MT":779,"sideResp":2,"stimulus":[],"xmouse":[781,781,781,781,781,781,781,781,781,781,781,781,781,781,781,781,781,781,781,781,781,781,781,781,781,781,781,781,781,781,781,781,781,781,781,781,781,781,781,781,781,781,781,781,781,781,781,781,781,781,781,781,781,781,781,781,781,781,781,781,781,781,782,782,782,782,788,792,795,802,806,817,822,828,834,843,870,882,892,900,906,918,931,949,972,983,1014,1028,1036,1039,1041,1045,1048,1048,1048,1048,1048,1048,1054,1060,1060,1060,1060,1060,1061,1064],"ymouse":[454,454,454,454,454,454,454,454,454,454,454,454,454,454,454,454,454,454,454,454,454,454,454,454,454,454,454,454,454,454,454,454,454,454,454,454,454,454,454,454,454,454,454,454,454,454,454,454,454,454,454,454,454,454,454,454,454,454,454,454,454,454,454,453,453,453,438,428,417,403,391,363,349,331,313,292,237,218,203,193,188,180,172,162,150,145,132,126,123,121,119,116,114,114,114,114,114,114,107,103,102,102,102,102,102,96],"timestamp_mouse":[11,44,53,71,93,113,131,153,173,191,212,233,251,271,293,311,332,351,371,392,413,433,452,473,492,513,531,552,573,591,611,632,652,672,693,712,732,752,771,793,813,832,852,871,892,913,933,952,972,993,1012,1032,1052,1073,1093,1112,1133,1152,1172,1193,1212,1233,1252,1272,1293,1312,1333,1351,1372,1392,1413,1432,1453,1472,1493,1513,1532,1552,1572,1592,1612,1632,1652,1673,1692,1712,1732,1753,1772,1793,1813,1832,1852,1872,1893,1913,1932,1953,1972,1992,2012,2033,2052,2073,2093,2112],"xSR":733.5,"ySR":443.3,"xT1":420.09999999999997,"yT1":0,"xT2":1046.8999999999999,"yT2":0,"toosoon":0,"cond_shown":"Congruent","ratio_trial":200,"L_num":1,"L_den":2,"R_num":21,"R_den":30,"correct_side":2,"subjID":"SofiaFandiñoTorres12","gender":"1","school":"6","age":"11"},{"start_time":1551790023952,"click_time":1551790025751,"finger_time":1551790025252,"fix_duration":399.8163117688766,"trial":14,"RT":1300,"MT":499,"sideResp":2,"stimulus":[],"xmouse":[809,809,809,809,809,809,809,809,809,809,809,809,809,809,809,809,809,809,809,809,809,809,809,809,809,809,809,809,809,809,809,809,809,809,809,809,809,809,809,809,808,808,806,805,805,805,805,805,805,805,805,805,805,805,805,805,805,805,805,805,805,805,805,805,806,814,820,824,831,840,860,873,886,903,914,948,958,961,964,966,966,968,979,986,995,1011,1023,1025,1032,1045,1060],"ymouse":[509,509,509,509,509,509,509,509,509,509,509,509,509,509,509,509,509,509,509,509,509,509,509,509,509,509,509,509,509,509,509,509,509,509,509,509,509,509,509,509,509,508,506,505,504,504,504,504,504,504,504,504,504,504,504,504,504,504,504,504,501,495,486,474,458,424,411,400,389,376,352,337,322,306,292,248,230,228,217,213,213,206,183,159,141,117,90,85,73,58,46],"timestamp_mouse":[1,19,44,59,79,99,119,140,160,179,199,219,240,259,279,300,319,340,359,379,399,419,439,460,479,499,519,540,559,579,599,621,639,659,679,699,719,740,760,779,799,821,839,859,879,900,920,939,959,979,999,1019,1039,1059,1079,1100,1120,1140,1159,1180,1199,1219,1239,1259,1279,1300,1320,1339,1359,1380,1399,1420,1439,1459,1479,1499,1520,1539,1560,1579,1600,1619,1640,1660,1679,1699,1719,1739,1759,1780,1799],"xSR":733.5,"ySR":443.3,"xT1":420.09999999999997,"yT1":0,"xT2":1046.8999999999999,"yT2":0,"toosoon":0,"cond_shown":"Congruent","ratio_trial":200,"L_num":3,"L_den":6,"R_num":14,"R_den":20,"correct_side":2,"subjID":"SofiaFandiñoTorres12","gender":"1","school":"6","age":"11"},{"start_time":1551790027950,"click_time":1551790029671,"finger_time":1551790029151,"fix_duration":896.883713598956,"trial":15,"RT":1201,"MT":520,"sideResp":1,"stimulus":[],"xmouse":[755,755,755,755,755,755,755,755,755,755,755,755,755,755,755,755,755,755,755,755,755,755,755,755,755,755,755,755,755,755,755,755,755,755,755,755,755,755,755,755,755,755,755,755,755,755,755,755,755,755,755,755,755,755,755,755,755,755,753,751,741,731,721,711,698,653,633,617,602,590,572,564,562,562,562,562,562,562,562,562,562,562,562,562,562,521,517],"ymouse":[468,468,468,468,468,468,468,468,468,468,468,468,468,468,468,468,468,468,468,468,468,468,468,468,468,468,468,468,468,468,468,468,468,468,468,468,468,468,468,468,468,468,468,468,468,468,468,468,468,468,468,468,468,468,468,468,468,468,465,460,429,406,380,349,310,197,151,118,83,56,20,7,4,4,4,4,4,4,4,4,4,4,4,4,4,3,13],"timestamp_mouse":[13,33,41,61,81,101,122,141,161,181,201,221,242,261,281,301,321,341,361,381,402,422,441,461,481,501,522,541,562,581,603,621,641,662,681,701,721,741,761,781,802,821,842,861,881,901,921,941,961,981,1001,1021,1041,1061,1081,1101,1121,1143,1162,1182,1201,1221,1241,1261,1281,1301,1321,1341,1361,1382,1401,1421,1441,1461,1481,1501,1521,1541,1562,1581,1602,1621,1641,1661,1681,1701,1721],"xSR":733.5,"ySR":443.3,"xT1":420.09999999999997,"yT1":0,"xT2":1046.8999999999999,"yT2":0,"toosoon":0,"cond_shown":"Incongruent","ratio_trial":200,"L_num":3,"L_den":10,"R_num":1,"R_den":2,"correct_side":2,"subjID":"SofiaFandiñoTorres12","gender":"1","school":"6","age":"11"},{"start_time":1551790032244,"click_time":1551790034571,"finger_time":1551790033632,"fix_duration":250,"trial":16,"RT":1388,"MT":939,"sideResp":2,"stimulus":[],"xmouse":[761,761,761,761,761,761,762,762,762,762,762,762,762,762,762,762,762,762,762,762,762,762,762,763,763,763,763,763,763,763,763,763,763,763,763,763,763,763,763,763,763,763,763,763,763,763,763,763,763,763,763,763,763,763,763,763,763,763,763,763,763,764,764,764,764,765,767,771,779,786,799,802,814,827,840,861,869,880,888,897,928,945,959,973,985,998,1003,1005,1008,1012,1021,1023,1028,1030,1030,1030,1030,1030,1031,1031,1031,1032,1032,1034,1039,1042,1042,1042,1042,1042,1042,1042,1042,1042,1042,1042,1050],"ymouse":[471,471,471,471,471,471,471,471,471,471,471,471,471,471,471,471,471,471,471,471,471,471,471,471,471,471,471,471,471,471,471,471,471,471,471,471,471,471,471,471,471,471,471,471,471,471,471,471,471,471,471,471,471,471,471,471,471,471,470,470,470,470,470,470,470,470,468,462,447,435,408,403,385,368,352,323,310,297,287,279,257,243,232,216,196,153,133,123,109,91,67,60,53,51,51,51,51,51,51,51,51,51,51,51,51,51,51,51,51,51,51,51,51,51,51,51,51],"timestamp_mouse":[8,27,49,68,88,107,128,149,167,188,207,227,247,267,287,308,329,347,368,388,408,427,447,468,487,508,528,547,568,587,608,627,647,667,688,707,727,748,767,787,807,827,848,867,888,907,927,948,968,988,1008,1028,1047,1067,1087,1107,1127,1148,1167,1187,1208,1228,1247,1268,1287,1308,1327,1348,1367,1388,1407,1428,1447,1467,1487,1507,1527,1547,1568,1587,1607,1629,1647,1667,1687,1707,1728,1747,1767,1787,1807,1827,1847,1868,1888,1907,1928,1948,1967,1987,2007,2028,2047,2068,2087,2107,2128,2148,2168,2187,2207,2228,2247,2268,2289,2307,2327],"xSR":733.5,"ySR":443.3,"xT1":420.09999999999997,"yT1":0,"xT2":1046.8999999999999,"yT2":0,"toosoon":0,"cond_shown":"Incongruent","ratio_trial":300,"L_num":13,"L_den":26,"R_num":12,"R_den":15,"correct_side":2,"subjID":"SofiaFandiñoTorres12","gender":"1","school":"6","age":"11"},{"start_time":1551790036660,"click_time":1551790038572,"finger_time":1551790037612,"fix_duration":888.3506752358556,"trial":17,"RT":952,"MT":960,"sideResp":2,"stimulus":[],"xmouse":[808,808,808,808,808,808,808,808,808,808,808,808,808,808,808,808,808,808,808,808,808,808,808,808,808,808,808,808,808,808,808,808,808,808,808,808,808,808,808,809,811,813,816,820,826,828,831,834,837,841,841,842,842,842,842,842,848,859,878,914,924,935,940,948,971,977,983,987,988,996,1002,1007,1012,1021,1029,1039,1050,1056,1060,1069,1069,1071,1073,1075,1082,1082,1082,1082,1082,1082,1082,1082,1083,1085,1088,1091],"ymouse":[502,502,502,502,502,502,502,502,502,502,502,502,502,502,502,502,502,502,502,502,502,502,502,502,502,502,502,502,502,502,502,502,502,502,502,502,502,502,502,500,496,490,484,477,466,464,460,456,452,447,446,445,445,445,445,443,434,421,406,379,371,358,351,339,311,304,296,290,287,277,267,257,246,231,212,192,173,162,155,143,143,138,132,128,118,118,118,118,118,117,117,115,114,109,103,95],"timestamp_mouse":[10,39,51,72,91,111,131,151,172,192,211,231,252,272,292,311,332,352,372,391,412,431,451,472,491,511,531,552,572,592,612,632,652,672,692,711,731,752,772,791,811,831,852,871,891,913,931,952,972,991,1012,1031,1052,1071,1092,1112,1131,1151,1171,1192,1211,1231,1252,1271,1291,1312,1331,1351,1372,1391,1411,1432,1451,1472,1491,1511,1532,1551,1572,1591,1611,1632,1652,1671,1691,1711,1732,1752,1771,1792,1812,1832,1851,1871,1891,1912],"xSR":733.5,"ySR":443.3,"xT1":420.09999999999997,"yT1":0,"xT2":1046.8999999999999,"yT2":0,"toosoon":0,"cond_shown":"Congruent","ratio_trial":200,"L_num":1,"L_den":2,"R_num":21,"R_den":30,"correct_side":2,"subjID":"SofiaFandiñoTorres12","gender":"1","school":"6","age":"11"},{"start_time":1551790040197,"click_time":1551790041931,"finger_time":1551790041591,"fix_duration":345.40085677951294,"trial":18,"RT":1394,"MT":340,"sideResp":2,"stimulus":[],"xmouse":[804,804,804,804,804,804,804,804,804,804,804,804,804,804,804,804,804,804,804,804,804,804,804,804,804,804,804,804,804,804,804,804,804,804,804,804,804,804,804,804,804,804,804,804,804,804,804,804,804,804,804,804,804,804,804,804,804,804,804,804,804,804,804,804,804,804,805,811,820,832,848,867,937,960,986,987,989,1007,1012,1016,1019,1021,1025,1028,1031,1041,1053],"ymouse":[486,486,486,486,486,486,486,486,486,486,486,486,486,486,486,486,486,486,486,486,486,486,486,486,486,486,486,486,486,486,486,486,486,486,486,486,486,486,486,486,486,486,486,486,486,486,486,486,486,486,486,486,486,486,486,486,486,486,486,486,486,486,486,486,486,486,486,465,444,415,377,336,223,192,162,162,158,136,127,119,112,109,102,96,92,84,75],"timestamp_mouse":[14,34,70,75,94,114,134,155,174,194,215,235,254,274,295,314,335,354,375,394,414,435,454,474,494,514,534,555,574,594,614,635,654,674,695,714,735,754,774,794,815,835,854,874,895,916,935,954,974,995,1014,1034,1076,1076,1094,1114,1134,1154,1175,1194,1215,1234,1255,1274,1295,1315,1334,1355,1375,1394,1415,1434,1454,1474,1494,1515,1535,1555,1575,1594,1615,1635,1654,1674,1694,1714,1734],"xSR":733.5,"ySR":443.3,"xT1":420.09999999999997,"yT1":0,"xT2":1046.8999999999999,"yT2":0,"toosoon":0,"cond_shown":"Incongruent","ratio_trial":100,"L_num":6,"L_den":10,"R_num":13,"R_den":26,"correct_side":1,"subjID":"SofiaFandiñoTorres12","gender":"1","school":"6","age":"11"},{"start_time":1551790046302,"click_time":1551790048392,"finger_time":1551790047892,"fix_duration":1188.9110564546884,"trial":19,"RT":1590,"MT":500,"sideResp":1,"stimulus":[],"xmouse":[788,788,788,788,788,788,788,788,788,788,788,788,788,788,788,788,788,788,788,788,788,788,788,788,788,788,788,788,788,788,788,788,788,788,788,788,788,788,788,788,788,788,788,788,788,788,788,788,788,788,788,788,788,788,788,788,788,788,788,788,788,788,788,788,788,788,788,788,788,788,788,788,788,788,788,788,788,785,758,711,668,644,601,583,571,564,559,554,551,550,548,543,527,520,516,515,514,511,510,510,509,507,501,497,490],"ymouse":[481,481,481,481,481,481,481,481,481,481,481,481,481,481,481,481,481,481,481,481,481,481,481,481,481,481,481,481,481,481,481,481,481,481,481,481,481,481,481,481,481,481,481,481,481,481,481,481,481,481,481,481,481,481,481,481,481,481,481,481,481,481,481,481,481,481,481,481,481,481,481,481,481,481,481,481,481,471,447,413,372,341,270,244,224,211,203,191,185,183,181,174,156,147,141,139,138,133,132,132,130,127,118,110,98],"timestamp_mouse":[9,29,62,70,89,109,130,150,170,189,209,230,250,269,289,309,330,349,369,390,409,429,449,470,489,509,529,550,569,589,609,630,650,669,689,710,729,750,770,789,809,830,849,869,889,909,929,950,969,989,1009,1030,1049,1069,1089,1109,1130,1150,1170,1190,1209,1230,1249,1269,1290,1309,1330,1349,1370,1390,1409,1430,1450,1470,1490,1509,1529,1549,1569,1590,1610,1630,1649,1670,1690,1709,1729,1749,1769,1789,1809,1829,1849,1870,1890,1909,1929,1949,1969,1990,2009,2029,2050,2069,2089],"xSR":733.5,"ySR":443.3,"xT1":420.09999999999997,"yT1":0,"xT2":1046.8999999999999,"yT2":0,"toosoon":0,"cond_shown":"Incongruent","ratio_trial":300,"L_num":8,"L_den":10,"R_num":14,"R_den":28,"correct_side":1,"subjID":"SofiaFandiñoTorres12","gender":"1","school":"6","age":"11"},{"start_time":1551790050906,"click_time":1551790053112,"finger_time":1551790052691,"fix_duration":1153.4030668136843,"trial":20,"RT":1785,"MT":421,"sideResp":1,"stimulus":[],"xmouse":[788,788,788,788,788,788,788,788,788,788,788,788,788,788,788,788,788,788,788,788,788,788,788,788,788,788,788,788,788,788,788,788,788,788,788,788,788,788,788,788,788,788,788,788,788,788,788,788,788,788,788,788,788,788,788,788,788,788,788,788,788,788,788,788,788,788,788,788,788,788,788,788,788,788,788,788,788,788,788,788,788,788,788,788,788,788,788,760,736,707,682,653,620,607,595,588,579,564,561,560,560,559,559,559,558,547,535,512,489,473,461],"ymouse":[500,500,500,500,500,500,500,500,500,500,500,500,500,500,500,500,500,500,500,500,500,500,500,500,500,500,500,500,500,500,500,500,500,500,500,500,500,500,500,500,500,500,500,500,500,500,500,500,500,500,500,500,500,500,500,500,500,500,500,500,500,500,500,500,500,500,500,500,500,500,500,500,500,500,500,500,500,500,500,500,500,500,500,500,500,500,500,473,458,438,414,383,344,326,312,301,289,272,267,265,264,264,263,263,261,242,226,191,151,121,98],"timestamp_mouse":[8,26,45,65,86,105,125,145,165,185,206,225,245,265,285,306,325,345,365,386,405,425,446,465,486,505,525,545,565,586,605,625,645,666,685,705,725,745,765,785,806,825,846,865,885,905,925,946,965,985,1005,1026,1045,1066,1086,1105,1126,1146,1165,1185,1205,1225,1245,1265,1286,1305,1325,1346,1365,1385,1405,1425,1446,1466,1485,1505,1525,1545,1566,1585,1605,1625,1645,1666,1685,1706,1726,1745,1765,1785,1806,1825,1845,1866,1885,1906,1925,1945,1964,1985,2005,2026,2045,2065,2085,2105,2126,2146,2166,2185,2206],"xSR":733.5,"ySR":443.3,"xT1":420.09999999999997,"yT1":0,"xT2":1046.8999999999999,"yT2":0,"toosoon":0,"cond_shown":"Incongruent","ratio_trial":200,"L_num":4,"L_den":5,"R_num":6,"R_den":10,"correct_side":1,"subjID":"SofiaFandiñoTorres12","gender":"1","school":"6","age":"11"},{"start_time":1551790054503,"click_time":1551790057431,"finger_time":1551790056631,"fix_duration":250,"trial":21,"RT":2128,"MT":800,"sideResp":1,"stimulus":[],"xmouse":[759,759,759,759,759,759,759,759,759,759,759,759,759,759,759,759,759,759,759,759,759,759,759,759,759,759,759,759,759,759,759,759,759,759,759,759,759,759,759,759,759,759,759,759,759,759,759,759,759,759,759,759,759,759,759,759,759,759,759,759,759,759,759,759,759,759,759,759,759,759,759,759,759,759,759,759,759,759,759,759,759,759,759,759,759,759,759,759,759,759,759,759,759,759,759,759,759,759,759,759,759,759,759,761,773,794,830,921,923,923,923,923,922,921,919,917,915,906,906,905,904,896,831,756,699,671,652,642,632,612,587,562,512,496,482,470,454,430,425,422,420,417,416,416,416,424,433],"ymouse":[477,477,477,477,477,477,477,477,477,477,477,477,477,477,477,477,477,477,477,477,477,477,477,477,477,477,477,477,477,477,477,477,477,477,477,477,477,477,477,477,477,477,477,477,477,477,477,477,477,477,477,477,477,477,477,477,477,477,477,477,477,477,477,477,477,477,477,477,477,477,477,477,477,477,477,477,477,477,477,477,477,477,477,477,477,477,477,477,477,477,477,477,477,477,477,477,477,477,477,477,477,477,477,474,468,457,430,351,333,312,292,280,277,275,269,265,260,236,236,236,236,236,251,269,284,287,289,292,293,293,293,291,272,264,258,252,243,226,221,215,209,198,177,162,133,111,88],"timestamp_mouse":[8,43,49,70,89,109,128,148,168,189,208,228,249,268,288,308,328,349,368,389,408,429,449,468,488,508,528,548,569,589,609,628,649,668,688,708,728,749,768,788,809,829,848,868,889,908,928,948,968,988,1009,1028,1048,1069,1089,1108,1128,1149,1168,1189,1209,1229,1249,1268,1288,1308,1328,1348,1368,1389,1408,1429,1448,1468,1488,1509,1528,1549,1569,1589,1609,1628,1648,1668,1688,1708,1729,1749,1770,1789,1808,1828,1848,1869,1889,1908,1929,1948,1968,1989,2009,2029,2048,2069,2088,2109,2128,2148,2168,2188,2209,2229,2248,2269,2288,2308,2329,2348,2369,2388,2408,2429,2448,2468,2489,2508,2529,2548,2568,2589,2608,2628,2648,2669,2689,2708,2728,2748,2769,2788,2808,2829,2849,2869,2888,2908,2928],"xSR":733.5,"ySR":443.3,"xT1":420.09999999999997,"yT1":0,"xT2":1046.8999999999999,"yT2":0,"toosoon":0,"cond_shown":"Incongruent","ratio_trial":100,"L_num":6,"L_den":10,"R_num":11,"R_den":22,"correct_side":1,"subjID":"SofiaFandiñoTorres12","gender":"1","school":"6","age":"11"},{"start_time":1551790060843,"click_time":1551790064692,"finger_time":1551790063291,"fix_duration":1070.048851616672,"trial":22,"RT":2448,"MT":1401,"sideResp":2,"stimulus":[],"xmouse":[777,777,777,777,777,777,777,777,777,777,777,777,777,777,777,777,777,777,777,777,777,777,777,777,777,777,777,777,777,777,777,777,777,777,777,777,777,777,777,777,777,777,777,777,777,777,777,777,777,777,777,777,777,777,777,777,777,777,777,777,777,777,777,777,777,777,777,777,777,777,777,777,777,777,777,777,777,777,777,777,777,777,777,777,777,777,777,777,777,777,777,777,777,777,777,777,777,777,777,777,777,777,777,777,777,777,777,777,777,777,777,777,777,777,777,777,777,777,777,777,761,741,722,708,698,691,691,691,691,691,703,764,832,921,989,1030,1030,1030,1030,1030,1030,1030,1030,1030,1030,1030,1030,1030,1030,1030,1030,1030,1030,1030,1030,1030,1030,1030,1030,1030,1030,1030,1030,1030,1030,1030,1030,1030,1030,1030,1030,1030,1030,1030,1030,1030,1030,1030,1030,1030,1030,1030,1030,1030,1030,1030,1030,1030,1030,1030,1030,1030,1122],"ymouse":[509,509,509,509,509,509,509,509,509,509,509,509,509,509,509,509,509,509,509,509,509,509,509,509,509,509,509,509,509,509,509,509,509,509,509,509,509,509,509,509,509,509,509,509,509,509,509,509,509,509,509,509,509,509,509,509,509,509,509,509,509,509,509,509,509,509,509,509,509,509,509,509,509,509,509,509,509,509,509,509,509,509,509,509,509,509,509,509,509,509,509,509,509,509,509,509,509,509,509,509,509,509,509,509,509,509,509,509,509,509,509,509,509,509,509,509,509,509,509,509,516,525,533,539,544,547,547,547,547,547,519,417,312,200,100,13,13,13,13,13,13,13,13,13,13,13,13,13,13,13,13,13,13,13,13,13,13,13,13,13,13,13,13,13,13,13,13,13,13,13,13,13,13,13,13,13,13,13,13,13,13,13,13,13,13,13,13,13,13,13,13,13,1],"timestamp_mouse":[8,28,54,69,89,108,128,148,168,188,208,228,249,269,289,309,329,349,369,388,409,428,449,469,490,508,529,548,569,589,610,629,648,669,688,708,728,749,768,789,808,828,848,869,889,908,929,948,968,988,1009,1029,1048,1068,1088,1108,1128,1149,1168,1188,1208,1228,1248,1268,1289,1308,1328,1349,1368,1389,1409,1428,1448,1469,1488,1508,1528,1549,1568,1588,1608,1628,1648,1669,1689,1708,1728,1748,1769,1788,1808,1828,1848,1869,1888,1909,1929,1949,1969,1989,2008,2028,2048,2068,2090,2108,2129,2148,2168,2188,2209,2228,2248,2268,2289,2309,2329,2349,2368,2389,2408,2428,2448,2468,2489,2508,2529,2549,2569,2588,2608,2629,2648,2668,2689,2708,2728,2749,2768,2788,2808,2828,2848,2868,2889,2909,2929,2949,2968,2988,3008,3029,3049,3069,3089,3109,3128,3148,3168,3189,3209,3229,3249,3268,3289,3309,3328,3348,3369,3389,3409,3429,3449,3468,3488,3509,3528,3548,3569,3589,3609,3629,3648,3668,3689,3708,3729,3748,3768,3789,3809,3829,3849],"xSR":733.5,"ySR":443.3,"xT1":420.09999999999997,"yT1":0,"xT2":1046.8999999999999,"yT2":0,"toosoon":0,"cond_shown":"Congruent","ratio_trial":100,"L_num":2,"L_den":5,"R_num":11,"R_den":22,"correct_side":2,"subjID":"SofiaFandiñoTorres12","gender":"1","school":"6","age":"11"},{"start_time":1551790072526,"click_time":1551790076651,"finger_time":1551790076092,"fix_duration":1072.917634895429,"trial":23,"RT":3566,"MT":559,"sideResp":2,"stimulus":[],"xmouse":[780,780,780,780,780,780,780,780,780,780,780,780,780,780,780,780,780,780,780,780,780,780,780,780,780,780,780,780,780,780,780,780,780,780,780,780,780,780,780,780,780,780,780,780,780,780,780,780,780,780,780,780,780,780,780,780,780,780,780,780,780,780,780,780,780,780,780,780,780,780,780,780,780,780,780,780,780,780,780,780,780,780,780,780,780,780,780,780,780,780,780,780,780,780,780,780,780,780,780,780,780,780,780,780,780,780,780,780,780,780,780,780,780,780,780,780,780,780,780,780,780,780,780,780,780,780,780,780,780,780,780,780,780,780,780,780,780,780,780,780,780,780,780,780,780,780,780,780,780,780,780,780,780,780,780,780,780,780,780,780,780,780,780,780,780,780,780,780,780,780,780,780,780,780,780,780,803,822,844,864,882,907,926,964,1022,1084,1145,1158,1169,1181,1196,1220,1226,1227,1228,1228,1228,1228,1228,1228,1224,1195,1179,1162,1153,1152,1130],"ymouse":[469,469,469,469,469,469,469,469,469,469,469,469,469,469,469,469,469,469,469,469,469,469,469,469,469,469,469,469,469,469,469,469,469,469,469,469,469,469,469,469,469,469,469,469,469,469,469,469,469,469,469,469,469,469,469,469,469,469,469,469,469,469,469,469,469,469,469,469,469,469,469,469,469,469,469,469,469,469,469,469,469,469,469,469,469,469,469,469,469,469,469,469,469,469,469,469,469,469,469,469,469,469,469,469,469,469,469,469,469,469,469,469,469,469,469,469,469,469,469,469,469,469,469,469,469,469,469,469,469,469,469,469,469,469,469,469,469,469,469,469,469,469,469,469,469,469,469,469,469,469,469,469,469,469,469,469,469,469,469,469,469,469,469,469,469,469,469,469,469,469,469,469,469,469,469,469,462,446,433,423,411,387,364,327,287,257,219,206,188,169,145,100,86,79,78,78,78,78,78,78,77,78,81,83,85,85,88],"timestamp_mouse":[9,38,45,66,85,105,126,146,165,185,205,226,245,265,285,305,326,346,365,386,405,426,446,465,485,506,525,546,565,585,606,626,646,666,686,706,725,746,766,787,806,825,846,865,886,905,925,945,965,986,1006,1025,1045,1065,1087,1105,1125,1146,1166,1185,1205,1226,1246,1266,1285,1305,1325,1346,1365,1386,1405,1426,1446,1466,1485,1506,1526,1546,1566,1585,1606,1626,1646,1666,1686,1706,1725,1745,1766,1786,1806,1826,1846,1865,1886,1906,1926,1946,1966,1986,2005,2026,2045,2066,2085,2105,2125,2146,2166,2185,2206,2226,2246,2265,2286,2305,2326,2346,2366,2387,2406,2426,2446,2466,2486,2506,2526,2545,2566,2586,2606,2626,2646,2665,2686,2706,2726,2745,2765,2786,2806,2825,2846,2865,2886,2906,2925,2946,2965,2986,3005,3025,3045,3067,3086,3106,3125,3146,3165,3186,3206,3226,3245,3266,3286,3305,3326,3346,3366,3385,3406,3425,3445,3466,3485,3506,3525,3545,3566,3585,3605,3626,3645,3665,3686,3705,3725,3745,3765,3785,3805,3825,3846,3865,3885,3905,3926,3945,3965,3985,4006,4025,4045,4065,4085,4105,4125],"xSR":733.5,"ySR":443.3,"xT1":420.09999999999997,"yT1":0,"xT2":1046.8999999999999,"yT2":0,"toosoon":0,"cond_shown":"Incongruent","ratio_trial":200,"L_num":6,"L_den":20,"R_num":3,"R_den":6,"correct_side":2,"subjID":"SofiaFandiñoTorres12","gender":"1","school":"6","age":"11"},{"start_time":1551790080233,"click_time":1551790082450,"finger_time":1551790081850,"fix_duration":1080.651234317956,"trial":24,"RT":1617,"MT":600,"sideResp":1,"stimulus":[],"xmouse":[778,778,778,778,778,778,778,778,778,778,778,778,778,778,778,778,778,778,778,778,778,778,778,778,778,778,778,778,778,778,778,778,778,778,778,778,778,778,778,778,778,778,778,778,778,778,778,778,778,778,778,778,778,778,778,778,778,778,778,778,778,778,778,778,778,778,778,778,778,778,778,778,778,778,778,778,778,777,771,757,709,684,664,648,632,607,588,568,552,544,537,537,536,534,531,527,526,525,525,525,524,524,524,524,524,524,523,523,523,522,511],"ymouse":[481,481,481,481,481,481,481,481,481,481,481,481,481,481,481,481,481,481,481,481,481,481,481,481,481,481,481,481,481,481,481,481,481,481,481,481,481,481,481,481,481,481,481,481,481,481,481,481,481,481,481,481,481,481,481,481,481,481,481,481,481,481,481,481,481,481,481,481,481,481,481,481,481,481,481,481,481,479,470,446,400,381,367,353,337,304,282,266,252,241,212,198,182,165,153,131,123,119,118,117,116,116,116,116,116,116,114,114,114,109,96],"timestamp_mouse":[35,38,59,78,98,118,138,158,179,199,218,239,258,279,298,319,338,359,378,399,419,438,459,479,499,519,538,558,579,598,619,638,658,679,698,718,738,759,777,798,819,837,858,879,898,918,937,958,979,998,1017,1037,1059,1077,1097,1118,1137,1159,1178,1197,1217,1237,1258,1277,1299,1317,1339,1357,1379,1397,1418,1437,1458,1477,1498,1519,1537,1559,1578,1597,1617,1638,1657,1678,1698,1718,1738,1758,1777,1798,1817,1839,1858,1879,1898,1917,1938,1958,1977,1998,2018,2038,2058,2078,2098,2118,2138,2158,2177,2197,2217],"xSR":733.5,"ySR":443.3,"xT1":420.09999999999997,"yT1":0,"xT2":1046.8999999999999,"yT2":0,"toosoon":0,"cond_shown":"Congruent","ratio_trial":300,"L_num":3,"L_den":6,"R_num":2,"R_den":10,"correct_side":1,"subjID":"SofiaFandiñoTorres12","gender":"1","school":"6","age":"11"},{"start_time":1551790085203,"click_time":1551790087450,"finger_time":1551790086851,"fix_duration":250,"trial":25,"RT":1648,"MT":599,"sideResp":1,"stimulus":[],"xmouse":[770,770,770,770,770,770,770,770,770,770,770,770,770,770,770,770,770,770,770,770,770,770,770,770,770,770,770,770,770,770,770,770,770,770,770,770,770,770,770,770,770,770,770,770,770,770,770,770,770,770,770,770,770,770,770,770,770,770,770,770,770,770,770,770,770,770,770,770,770,770,770,770,770,770,770,770,770,770,770,769,762,759,741,730,720,710,700,685,684,683,682,681,671,667,659,649,632,569,523,493,471,454,432,428,425,423,422,422,422,422,422,422,429],"ymouse":[484,484,484,484,484,484,484,484,484,484,484,484,484,484,484,484,484,484,484,484,484,484,484,484,484,484,484,484,484,484,484,484,484,484,484,484,484,484,484,484,484,484,484,484,484,484,484,484,484,484,484,484,484,484,484,484,484,484,484,484,484,484,484,484,484,484,484,484,484,484,484,484,484,484,484,484,484,482,479,475,468,460,430,412,393,376,353,317,316,312,309,306,289,284,275,265,252,214,195,180,170,161,144,137,128,125,119,108,105,104,102,102,95],"timestamp_mouse":[8,38,47,68,89,107,127,148,167,187,208,229,248,269,287,308,327,348,368,387,408,427,447,468,489,507,527,549,568,587,609,628,647,667,689,707,728,748,767,789,808,828,848,869,888,908,927,947,968,989,1007,1028,1049,1068,1088,1109,1128,1148,1168,1189,1208,1227,1249,1267,1287,1308,1327,1348,1368,1389,1408,1427,1448,1467,1489,1508,1528,1547,1568,1587,1607,1628,1648,1667,1687,1707,1727,1747,1767,1787,1808,1829,1847,1868,1887,1908,1927,1949,1967,1987,2008,2027,2047,2068,2087,2108,2128,2147,2168,2188,2207,2228,2247],"xSR":733.5,"ySR":443.3,"xT1":420.09999999999997,"yT1":0,"xT2":1046.8999999999999,"yT2":0,"toosoon":0,"cond_shown":"Incongruent","ratio_trial":300,"L_num":1,"L_den":2,"R_num":3,"R_den":15,"correct_side":1,"subjID":"SofiaFandiñoTorres12","gender":"1","school":"6","age":"11"},{"start_time":1551790089634,"click_time":1551790092710,"finger_time":1551790091871,"fix_duration":1401.1545354896268,"trial":26,"RT":2237,"MT":839,"sideResp":1,"stimulus":[],"xmouse":[784,784,784,784,784,784,784,784,784,784,784,784,784,784,784,784,784,784,784,784,784,784,784,784,784,784,784,784,784,784,784,784,784,784,784,784,784,784,784,784,784,784,784,784,784,784,784,784,784,784,784,784,784,784,784,784,784,784,784,784,784,784,784,784,784,784,784,784,784,784,784,784,784,784,784,784,784,784,784,784,784,784,784,784,784,784,784,784,784,784,784,784,784,784,784,784,784,784,784,784,784,784,785,786,787,788,788,788,788,788,780,773,766,762,756,738,725,713,701,690,679,673,669,665,659,654,653,652,651,651,649,646,632,619,609,590,585,582,579,575,562,557,552,547,543,534,529,527,526,526,526,525,524,520],"ymouse":[511,511,511,511,511,511,511,511,511,511,511,511,511,511,511,511,511,511,511,511,511,511,511,511,511,511,511,511,511,511,511,511,511,511,511,511,511,511,511,511,511,511,511,511,511,511,511,511,511,511,511,511,511,511,511,511,511,511,511,511,511,511,511,511,511,511,511,511,511,511,511,511,511,511,511,511,511,511,511,511,511,511,511,511,511,511,511,511,511,511,511,511,511,511,511,511,511,511,511,511,511,511,507,504,499,493,491,490,484,481,452,439,428,422,413,385,366,348,327,303,278,266,259,254,244,237,235,234,233,233,231,227,219,213,205,187,179,171,165,157,134,125,116,109,101,91,86,84,83,83,83,83,83,83],"timestamp_mouse":[30,37,57,77,98,118,136,157,176,196,217,237,256,276,296,317,337,357,378,397,418,437,457,477,497,516,537,558,576,596,617,637,656,676,696,717,737,758,777,797,817,838,856,877,897,916,936,958,978,997,1016,1036,1058,1076,1097,1117,1137,1157,1177,1198,1217,1238,1257,1277,1296,1317,1337,1356,1377,1397,1417,1436,1458,1477,1496,1517,1538,1557,1577,1597,1617,1637,1657,1678,1696,1721,1737,1758,1778,1796,1816,1837,1858,1877,1897,1917,1936,1957,1978,1998,2016,2037,2057,2077,2097,2117,2137,2156,2176,2198,2216,2237,2256,2276,2297,2316,2336,2357,2377,2396,2416,2437,2456,2476,2496,2516,2538,2556,2576,2596,2616,2636,2656,2677,2696,2717,2736,2757,2776,2797,2816,2837,2857,2876,2897,2916,2937,2956,2977,2996,3017,3037,3056,3076],"xSR":733.5,"ySR":443.3,"xT1":420.09999999999997,"yT1":0,"xT2":1046.8999999999999,"yT2":0,"toosoon":0,"cond_shown":"Congruent","ratio_trial":200,"L_num":1,"L_den":2,"R_num":21,"R_den":30,"correct_side":2,"subjID":"SofiaFandiñoTorres12","gender":"1","school":"6","age":"11"},{"start_time":1551790094988,"click_time":1551790097071,"finger_time":1551790096572,"fix_duration":1235.1451117139668,"trial":27,"RT":1584,"MT":499,"sideResp":2,"stimulus":[],"xmouse":[763,763,763,763,763,763,763,763,763,763,763,764,764,764,764,764,764,764,764,764,764,764,764,764,764,764,764,764,764,764,764,764,764,764,764,764,764,764,764,764,764,764,764,764,764,764,764,765,765,765,765,765,765,765,765,765,765,765,765,765,765,765,765,765,765,766,766,766,766,766,767,767,767,768,769,769,769,770,794,826,877,955,980,1034,1040,1042,1043,1046,1053,1058,1062,1065,1067,1071,1073,1078,1082,1086,1089,1091,1094,1096,1099,1106,1115],"ymouse":[485,485,485,485,485,485,485,485,485,485,485,486,486,486,486,486,486,486,486,486,486,486,486,486,486,486,486,486,486,486,486,486,486,486,486,486,486,486,486,486,486,486,486,486,486,486,486,486,486,486,486,486,486,486,486,486,486,486,486,486,486,486,486,486,486,486,486,486,486,486,486,486,486,486,487,487,487,487,469,443,398,339,317,251,241,235,230,218,196,182,171,163,157,149,144,138,134,131,128,127,123,118,114,102,87],"timestamp_mouse":[8,22,42,62,82,104,123,143,162,183,202,223,242,264,282,304,322,344,362,383,402,423,442,464,482,502,524,543,563,583,602,623,642,664,683,703,723,742,763,783,803,823,842,863,882,902,922,944,963,982,1003,1024,1042,1064,1082,1103,1123,1143,1163,1183,1202,1223,1242,1262,1283,1302,1323,1343,1363,1383,1403,1423,1442,1463,1483,1502,1524,1543,1562,1584,1602,1622,1642,1662,1683,1702,1722,1742,1762,1783,1803,1823,1842,1862,1884,1902,1922,1943,1962,1983,2002,2022,2044,2062,2083],"xSR":733.5,"ySR":443.3,"xT1":420.09999999999997,"yT1":0,"xT2":1046.8999999999999,"yT2":0,"toosoon":0,"cond_shown":"Incongruent","ratio_trial":100,"L_num":17,"L_den":30,"R_num":10,"R_den":15,"correct_side":2,"subjID":"SofiaFandiñoTorres12","gender":"1","school":"6","age":"11"},{"start_time":1551790099723,"click_time":1551790102050,"finger_time":1551790101250,"fix_duration":250,"trial":28,"RT":1527,"MT":800,"sideResp":1,"stimulus":[],"xmouse":[789,789,789,793,795,796,796,796,796,796,796,796,796,796,796,796,796,796,796,796,796,796,796,796,796,796,797,797,797,797,797,797,797,797,797,797,797,797,797,797,797,797,797,797,797,797,797,797,797,797,797,797,797,797,797,796,792,790,790,790,789,789,789,789,789,789,789,789,789,789,789,789,788,786,781,761,722,697,672,650,641,640,640,638,638,630,616,605,593,583,577,557,546,535,527,524,523,523,522,521,518,512,509,508,507,505,503,503,503,503,503,503,503,503,502,500,497],"ymouse":[512,512,512,500,494,490,487,487,487,487,487,487,487,487,487,487,487,487,487,487,487,487,487,487,487,487,486,486,486,486,486,486,486,486,486,486,486,486,486,486,486,486,486,486,486,486,486,486,486,486,486,486,486,486,486,486,486,486,486,486,486,486,486,486,486,486,486,486,486,486,486,486,485,482,475,449,422,410,391,375,369,368,367,360,353,330,298,278,262,245,228,194,180,165,153,150,149,149,147,146,143,136,132,129,126,123,118,118,118,118,118,118,117,114,109,104,85],"timestamp_mouse":[10,44,49,68,88,108,127,147,169,188,208,228,249,269,288,309,328,347,368,389,408,429,449,468,487,508,528,547,567,589,608,629,648,667,687,708,727,748,767,787,808,827,848,868,889,909,928,947,968,989,1008,1027,1049,1067,1087,1107,1127,1147,1169,1187,1209,1229,1247,1267,1288,1307,1327,1347,1368,1388,1407,1428,1447,1467,1488,1507,1527,1548,1568,1587,1608,1627,1647,1667,1688,1707,1728,1748,1767,1787,1807,1828,1847,1868,1889,1907,1927,1947,1967,1987,2007,2027,2049,2067,2088,2107,2127,2147,2167,2188,2209,2228,2247,2267,2289,2309,2327],"xSR":733.5,"ySR":443.3,"xT1":420.09999999999997,"yT1":0,"xT2":1046.8999999999999,"yT2":0,"toosoon":0,"cond_shown":"Congruent","ratio_trial":300,"L_num":3,"L_den":6,"R_num":2,"R_den":10,"correct_side":1,"subjID":"SofiaFandiñoTorres12","gender":"1","school":"6","age":"11"},{"start_time":1551790103311,"click_time":1551790105050,"finger_time":1551790104671,"fix_duration":459.3248893317533,"trial":29,"RT":1360,"MT":379,"sideResp":2,"stimulus":[],"xmouse":[783,783,783,783,783,783,783,783,783,783,783,783,783,783,783,783,783,783,783,783,783,783,783,783,783,783,783,783,783,783,783,783,783,783,783,783,783,783,783,783,783,783,783,783,783,783,783,784,784,784,784,786,786,786,786,786,786,786,786,786,786,786,786,786,786,788,791,820,840,861,875,889,897,901,906,913,914,917,920,924,929,936,969,987,1008,1026,1042,1069],"ymouse":[524,524,524,524,524,524,524,524,524,524,524,524,524,524,524,524,524,524,524,524,524,524,524,524,524,524,524,524,524,524,524,524,524,524,524,524,524,524,524,524,524,524,524,524,524,524,524,525,525,525,525,525,525,525,525,525,525,525,525,525,525,525,525,525,525,522,517,486,471,455,446,436,422,412,394,373,360,307,287,270,245,215,142,112,83,62,52,38],"timestamp_mouse":[1,20,51,59,79,101,120,140,159,181,200,219,240,259,281,299,319,339,361,379,400,419,439,460,480,500,520,539,560,580,600,619,639,659,679,699,719,739,760,779,799,819,840,859,879,899,919,939,960,981,1000,1020,1039,1060,1079,1100,1119,1139,1159,1180,1199,1219,1239,1261,1279,1299,1319,1339,1360,1379,1399,1419,1439,1459,1479,1499,1520,1539,1559,1579,1599,1620,1639,1659,1679,1700,1721,1739],"xSR":733.5,"ySR":443.3,"xT1":420.09999999999997,"yT1":0,"xT2":1046.8999999999999,"yT2":0,"toosoon":0,"cond_shown":"Congruent","ratio_trial":300,"L_num":24,"L_den":30,"R_num":8,"R_den":16,"correct_side":1,"subjID":"SofiaFandiñoTorres12","gender":"1","school":"6","age":"11"},{"start_time":1551790106901,"click_time":1551790109031,"finger_time":1551790108410,"fix_duration":607.9253853560396,"trial":30,"RT":1509,"MT":621,"sideResp":1,"stimulus":[],"xmouse":[755,755,755,755,755,755,755,755,755,755,755,755,755,755,755,754,754,754,754,754,754,754,754,754,754,754,754,754,754,754,754,754,754,754,754,754,754,754,754,754,754,754,754,754,754,754,754,754,754,754,754,754,754,754,754,754,754,754,754,754,754,754,754,754,754,754,754,754,754,754,754,754,754,749,744,737,730,704,697,692,690,689,686,684,680,676,673,659,647,624,612,609,607,605,596,581,571,562,561,559,556,549,532,527,523,521,520],"ymouse":[477,477,477,477,477,477,477,477,477,477,477,477,477,477,477,477,477,477,477,477,477,477,477,477,477,477,477,477,477,477,477,477,477,477,477,477,477,477,477,477,477,477,477,477,477,477,477,477,477,477,477,477,477,477,477,477,477,477,477,477,477,477,477,477,477,477,477,477,477,477,477,477,477,463,454,443,429,389,381,379,378,377,356,343,329,319,311,274,236,185,165,161,158,156,142,122,110,101,99,97,92,83,70,66,63,62,61],"timestamp_mouse":[9,30,67,71,90,109,130,149,169,190,211,230,250,270,289,309,330,350,369,390,409,430,449,470,491,509,529,550,569,589,610,629,649,669,690,710,730,750,770,791,809,830,851,870,889,909,930,949,970,990,1010,1031,1049,1071,1090,1109,1130,1149,1170,1190,1210,1230,1250,1270,1291,1310,1330,1350,1369,1390,1409,1430,1449,1469,1490,1509,1529,1550,1569,1589,1610,1630,1650,1669,1690,1710,1729,1749,1770,1790,1809,1830,1849,1869,1890,1910,1931,1951,1969,1990,2010,2030,2049,2070,2090,2109,2130],"xSR":733.5,"ySR":443.3,"xT1":420.09999999999997,"yT1":0,"xT2":1046.8999999999999,"yT2":0,"toosoon":0,"cond_shown":"Congruent","ratio_trial":300,"L_num":4,"L_den":20,"R_num":13,"R_den":26,"correct_side":2,"subjID":"SofiaFandiñoTorres12","gender":"1","school":"6","age":"11"},{"start_time":1551790110675,"click_time":1551790113190,"finger_time":1551790112251,"fix_duration":843.2049124730152,"trial":31,"RT":1576,"MT":939,"sideResp":1,"stimulus":[],"xmouse":[765,765,765,765,765,765,765,765,765,765,765,765,765,765,765,765,765,765,765,765,765,765,765,765,765,765,765,765,765,765,765,765,765,766,766,766,766,766,766,766,766,766,766,766,766,766,766,766,770,774,777,778,778,778,778,778,778,778,778,778,778,778,778,778,778,778,778,779,781,781,781,781,781,781,782,782,782,782,772,767,766,766,763,753,747,741,736,729,724,723,720,717,712,678,647,613,553,553,553,553,553,553,553,553,553,553,553,553,553,553,575,587,596,605,606,606,606,606,606,606,606,606,606,594,570,520],"ymouse":[510,510,510,510,510,510,510,510,510,510,510,510,510,510,510,510,510,510,510,510,510,510,510,510,510,510,510,510,510,510,510,510,510,510,510,510,509,509,509,509,509,509,509,509,509,509,509,509,509,509,509,509,509,509,509,509,509,509,509,509,509,509,509,509,509,509,509,509,509,509,509,509,509,509,508,502,486,467,413,396,393,392,385,338,318,305,287,271,257,252,243,232,224,165,121,74,1,1,1,1,1,1,1,1,1,1,1,1,1,1,28,46,61,90,96,97,97,97,97,97,97,97,97,96,89,82],"timestamp_mouse":[15,40,55,76,95,117,135,157,175,195,216,236,256,276,297,316,336,355,376,395,417,435,456,475,495,516,535,556,575,597,616,636,657,676,695,715,737,755,776,795,817,836,856,876,896,917,935,956,976,996,1015,1036,1055,1076,1095,1116,1135,1155,1176,1196,1216,1236,1255,1276,1297,1315,1336,1355,1375,1395,1417,1435,1455,1475,1495,1516,1535,1555,1576,1595,1615,1636,1655,1675,1695,1715,1736,1755,1775,1796,1815,1836,1857,1876,1895,1915,1936,1957,1976,1996,2015,2035,2056,2076,2095,2116,2136,2157,2177,2198,2216,2236,2257,2276,2297,2316,2335,2355,2376,2395,2416,2435,2455,2476,2495,2515],"xSR":733.5,"ySR":443.3,"xT1":420.09999999999997,"yT1":0,"xT2":1046.8999999999999,"yT2":0,"toosoon":0,"cond_shown":"Incongruent","ratio_trial":100,"L_num":6,"L_den":10,"R_num":11,"R_den":22,"correct_side":1,"subjID":"SofiaFandiñoTorres12","gender":"1","school":"6","age":"11"},{"start_time":1551790115592,"click_time":1551790117310,"finger_time":1551790116932,"fix_duration":1100.8580316241585,"trial":32,"RT":1340,"MT":378,"sideResp":2,"stimulus":[],"xmouse":[792,792,792,792,792,792,792,792,792,792,792,792,792,792,792,792,792,792,792,792,792,792,792,792,792,792,792,792,792,792,792,792,792,792,792,792,792,792,792,792,792,792,792,792,792,792,792,792,792,792,792,792,792,792,792,792,792,792,792,792,792,792,792,796,807,821,843,887,904,918,932,946,981,992,1004,1010,1016,1028,1063,1079,1086,1095,1109,1116,1123,1133],"ymouse":[509,509,509,509,509,509,509,509,509,509,509,509,509,509,509,509,509,509,509,509,509,509,509,509,509,509,509,509,509,509,509,509,509,509,509,509,509,509,509,509,509,509,509,509,509,509,509,509,509,509,509,509,509,509,509,509,509,509,509,509,509,509,509,506,491,473,455,427,418,408,398,386,354,343,332,326,317,297,237,204,186,169,131,116,105,96],"timestamp_mouse":[18,38,64,78,100,118,140,158,179,198,220,240,258,280,299,318,338,359,378,400,420,438,458,478,499,519,539,558,579,598,620,638,659,679,699,719,740,758,779,798,819,838,859,879,898,918,939,959,978,999,1019,1038,1059,1079,1099,1119,1139,1159,1179,1200,1218,1238,1259,1278,1299,1319,1340,1358,1378,1398,1419,1440,1458,1478,1498,1519,1539,1558,1578,1599,1618,1638,1658,1678,1699,1718],"xSR":733.5,"ySR":443.3,"xT1":420.09999999999997,"yT1":0,"xT2":1046.8999999999999,"yT2":0,"toosoon":0,"cond_shown":"Congruent","ratio_trial":200,"L_num":11,"L_den":22,"R_num":3,"R_den":10,"correct_side":1,"subjID":"SofiaFandiñoTorres12","gender":"1","school":"6","age":"11"},{"start_time":1551790119638,"click_time":1551790122231,"finger_time":1551790121412,"fix_duration":986.9376917385498,"trial":33,"RT":1774,"MT":819,"sideResp":2,"stimulus":[],"xmouse":[814,814,814,814,814,814,814,814,814,814,814,814,814,814,814,814,814,814,814,814,814,814,815,815,815,815,815,815,815,815,815,815,815,815,816,817,817,818,819,819,820,821,822,823,824,824,824,824,824,824,824,824,824,824,824,824,824,824,824,824,824,824,824,824,824,824,824,824,824,824,824,824,824,824,825,826,826,826,826,826,826,826,826,826,827,827,828,829,836,847,858,879,893,907,927,961,974,990,1025,1071,1166,1166,1166,1166,1166,1166,1166,1166,1166,1166,1166,1166,1166,1166,1166,1166,1166,1166,1179,1179,1170,1168,1166,1165,1164,1162,1159,1154,1147,1139],"ymouse":[531,531,531,531,531,531,531,531,531,531,531,531,531,531,531,531,531,531,531,531,531,531,529,529,529,529,529,529,529,529,529,529,529,529,529,528,527,527,526,525,524,523,523,522,521,521,521,521,521,521,521,521,521,521,521,521,521,521,521,521,521,521,521,521,521,521,521,521,521,521,521,521,521,521,520,516,511,503,496,491,481,475,469,463,462,461,459,456,447,432,415,390,373,356,332,288,272,254,203,133,8,8,8,8,8,8,8,8,8,8,8,8,8,8,8,8,8,8,1,1,9,10,12,13,13,15,17,18,21,25],"timestamp_mouse":[14,32,59,73,93,114,133,153,172,193,212,233,253,273,292,313,333,354,373,392,414,433,452,474,493,513,534,553,574,592,613,634,652,674,692,712,733,752,773,793,812,832,852,873,893,912,932,952,972,992,1012,1032,1053,1072,1093,1113,1133,1153,1174,1192,1212,1232,1252,1272,1292,1313,1333,1353,1372,1392,1413,1433,1453,1472,1492,1512,1534,1552,1572,1592,1612,1633,1652,1672,1692,1713,1733,1752,1774,1792,1812,1833,1852,1873,1892,1912,1932,1953,1973,1994,2012,2034,2053,2072,2092,2113,2134,2153,2174,2194,2213,2233,2252,2273,2293,2312,2333,2352,2372,2393,2412,2433,2453,2473,2493,2512,2534,2552,2572,2593],"xSR":733.5,"ySR":443.3,"xT1":420.09999999999997,"yT1":0,"xT2":1046.8999999999999,"yT2":0,"toosoon":0,"cond_shown":"Congruent","ratio_trial":100,"L_num":7,"L_den":14,"R_num":15,"R_den":25,"correct_side":2,"subjID":"SofiaFandiñoTorres12","gender":"1","school":"6","age":"11"},{"start_time":1551790124281,"click_time":1551790126092,"finger_time":1551790125130,"fix_duration":969.9918707046439,"trial":34,"RT":849,"MT":962,"sideResp":2,"stimulus":[],"xmouse":[798,798,798,798,798,798,798,798,798,798,798,798,798,798,798,798,798,798,798,798,798,798,798,798,798,798,798,798,798,798,800,800,801,801,802,802,802,802,809,814,822,832,845,868,874,880,886,888,890,890,890,890,890,890,890,891,891,891,891,891,891,891,891,891,891,891,891,891,891,891,891,891,891,891,891,891,891,891,891,898,917,939,963,1003,1012,1021,1029,1053,1076,1086,1092],"ymouse":[471,471,471,471,471,471,471,471,471,471,471,471,471,471,471,471,471,471,471,471,471,471,471,471,471,471,471,471,471,471,471,470,470,470,469,469,469,468,465,463,460,457,454,448,447,445,445,445,444,444,444,444,444,444,444,444,444,444,444,444,444,444,444,444,444,444,444,444,444,444,444,444,444,444,444,444,444,444,444,439,422,395,341,259,237,218,203,160,118,103,91],"timestamp_mouse":[10,30,51,69,89,110,130,149,169,190,210,229,250,270,289,310,329,350,370,391,409,429,450,470,491,510,531,550,569,590,610,630,650,670,689,709,730,749,769,789,809,830,849,869,891,909,930,950,970,990,1010,1031,1049,1070,1090,1110,1129,1150,1171,1190,1209,1229,1250,1271,1291,1311,1330,1350,1369,1390,1410,1429,1450,1471,1489,1510,1530,1551,1571,1590,1610,1629,1650,1670,1689,1710,1730,1750,1769,1790,1811],"xSR":733.5,"ySR":443.3,"xT1":420.09999999999997,"yT1":0,"xT2":1046.8999999999999,"yT2":0,"toosoon":0,"cond_shown":"Congruent","ratio_trial":300,"L_num":18,"L_den":20,"R_num":9,"R_den":15,"correct_side":1,"subjID":"SofiaFandiñoTorres12","gender":"1","school":"6","age":"11"},{"start_time":1551790129355,"click_time":1551790132051,"finger_time":1551790130750,"fix_duration":363.1865122289949,"trial":35,"RT":1395,"MT":1301,"sideResp":1,"stimulus":[],"xmouse":[768,768,768,768,768,768,768,768,768,768,768,768,768,768,768,768,768,768,768,768,768,768,768,768,768,768,768,768,768,768,768,768,768,768,768,768,768,768,768,768,768,768,768,768,768,768,768,768,768,768,768,768,768,768,768,768,768,768,768,768,768,768,768,768,765,762,756,748,738,714,706,699,695,693,689,687,687,687,687,687,687,687,687,687,687,687,687,687,687,687,687,687,687,687,687,687,687,687,687,687,687,687,687,687,687,687,687,687,687,687,687,687,687,687,687,687,687,687,687,687,687,687,687,687,687,686,685,684,682,666,652,631,599,531,481],"ymouse":[476,476,476,476,476,476,476,476,476,476,476,476,476,476,476,476,476,476,476,476,476,476,476,476,476,476,476,476,476,476,476,476,476,476,476,476,476,476,476,476,476,476,476,476,476,476,476,476,476,476,476,476,476,476,476,476,476,476,476,476,476,476,476,476,475,474,472,468,464,455,453,450,449,448,447,447,447,447,447,447,447,447,447,447,447,447,447,447,447,447,447,447,447,447,447,447,447,447,447,447,447,447,447,447,447,447,447,447,447,447,447,447,447,447,447,447,447,447,447,447,447,447,447,447,447,447,445,441,435,409,383,348,283,148,45],"timestamp_mouse":[15,37,60,75,96,115,135,156,175,195,216,235,256,275,295,315,336,355,377,395,416,435,456,477,495,517,535,556,575,596,615,635,655,676,696,716,736,756,776,797,815,835,856,875,896,916,935,956,976,995,1015,1037,1055,1076,1096,1116,1136,1156,1175,1195,1217,1235,1256,1276,1295,1315,1335,1355,1375,1395,1416,1435,1455,1475,1495,1515,1535,1557,1577,1596,1616,1636,1656,1675,1695,1717,1737,1756,1775,1797,1815,1836,1855,1875,1895,1917,1935,1955,1975,1996,2017,2036,2055,2076,2097,2116,2136,2155,2175,2195,2216,2236,2256,2275,2295,2316,2336,2356,2376,2395,2417,2437,2456,2475,2496,2516,2535,2555,2576,2595,2616,2635,2655,2676,2696],"xSR":733.5,"ySR":443.3,"xT1":420.09999999999997,"yT1":0,"xT2":1046.8999999999999,"yT2":0,"toosoon":0,"cond_shown":"Incongruent","ratio_trial":200,"L_num":14,"L_den":30,"R_num":12,"R_den":18,"correct_side":2,"subjID":"SofiaFandiñoTorres12","gender":"1","school":"6","age":"11"},{"start_time":1551790135452,"click_time":1551790139171,"finger_time":1551790138710,"fix_duration":379.26957332379897,"trial":36,"RT":3258,"MT":461,"sideResp":2,"stimulus":[],"xmouse":[752,752,752,752,752,752,752,752,752,752,752,752,752,752,752,752,752,752,751,751,751,750,750,750,750,750,750,750,750,750,750,750,750,750,750,750,750,750,750,750,750,750,750,750,750,749,749,749,749,749,749,749,749,749,749,749,749,749,749,749,749,749,749,749,749,749,749,749,749,749,749,749,749,749,749,749,749,749,749,749,749,749,749,749,749,749,749,749,749,749,749,748,748,748,748,748,748,748,748,748,748,748,748,748,748,748,766,779,802,802,802,802,802,802,802,802,802,802,802,802,802,802,802,802,802,802,802,802,802,802,802,802,802,802,802,802,802,802,802,802,802,802,802,802,802,802,802,802,802,802,802,802,802,802,802,802,802,802,802,802,802,803,823,858,963,1028,1079,1122,1163,1201,1204,1204,1205,1205,1205,1204,1204,1203,1201,1201,1201,1201,1200,1200,1183,1151,1127],"ymouse":[483,483,483,483,483,483,483,483,483,483,482,482,482,482,482,482,482,482,482,482,482,482,482,482,482,482,482,482,482,482,482,482,482,482,482,482,482,482,482,482,482,482,482,481,481,481,481,481,481,481,481,481,481,481,481,481,481,481,481,481,481,481,481,481,481,481,481,481,481,481,481,481,481,481,481,481,481,481,481,481,481,481,481,481,481,481,481,481,481,481,481,481,481,481,481,481,481,481,481,481,481,481,481,481,481,481,479,478,478,478,478,478,478,478,478,478,478,478,478,478,478,478,478,478,478,478,478,478,478,478,478,478,478,478,478,478,478,478,478,478,478,478,478,478,478,478,478,478,478,478,478,478,478,478,478,478,478,478,478,478,478,478,470,455,412,393,370,344,307,237,206,195,181,165,144,125,118,111,106,106,106,106,105,105,105,100,96],"timestamp_mouse":[1,18,44,59,80,99,118,140,159,178,199,218,239,259,279,300,319,340,358,380,399,420,438,458,480,498,518,539,559,578,598,619,638,659,679,699,719,739,759,779,798,819,839,859,879,898,920,938,958,978,999,1018,1039,1058,1078,1099,1118,1139,1158,1179,1198,1218,1239,1258,1278,1298,1319,1338,1359,1379,1399,1419,1439,1459,1479,1498,1518,1540,1559,1578,1598,1619,1639,1660,1679,1699,1719,1738,1760,1779,1799,1819,1838,1859,1878,1899,1918,1939,1958,1978,1999,2018,2038,2059,2079,2099,2118,2139,2159,2179,2199,2218,2239,2259,2279,2298,2319,2339,2360,2378,2399,2418,2439,2460,2479,2499,2518,2538,2559,2579,2599,2619,2638,2659,2678,2698,2719,2739,2759,2779,2799,2818,2838,2858,2878,2899,2918,2939,2959,2978,2999,3018,3039,3060,3079,3099,3120,3140,3158,3179,3200,3219,3239,3258,3279,3298,3319,3338,3359,3379,3398,3420,3438,3458,3479,3498,3519,3538,3558,3578,3599,3619,3638,3659,3679,3698,3719],"xSR":733.5,"ySR":443.3,"xT1":420.09999999999997,"yT1":0,"xT2":1046.8999999999999,"yT2":0,"toosoon":0,"cond_shown":"Incongruent","ratio_trial":200,"L_num":7,"L_den":15,"R_num":4,"R_den":6,"correct_side":2,"subjID":"SofiaFandiñoTorres12","gender":"1","school":"6","age":"11"},{"start_time":1551790140494,"click_time":1551790142689,"finger_time":1551790142010,"fix_duration":461.09503975959376,"trial":37,"RT":1516,"MT":679,"sideResp":2,"stimulus":[],"xmouse":[810,810,810,810,810,810,810,810,810,810,810,810,810,810,810,810,810,810,810,810,810,810,810,810,810,810,810,810,810,810,810,810,810,810,810,810,810,810,810,810,810,810,810,810,810,810,810,810,810,810,810,810,810,810,810,810,810,810,810,810,810,810,810,810,810,810,810,810,810,809,809,805,795,786,777,765,736,723,719,713,710,704,695,686,673,665,650,646,646,646,646,646,654,666,686,724,777,875,957,1026,1085,1128,1135,1135,1135,1135,1136,1138,1138,1138],"ymouse":[489,489,489,489,489,489,489,489,489,489,489,489,489,489,489,489,489,489,489,489,489,489,489,489,489,489,489,489,489,489,489,489,489,489,489,489,489,489,489,489,489,489,489,489,489,489,489,489,489,489,489,489,489,489,489,489,489,489,489,489,489,489,489,489,489,489,489,489,489,489,489,486,469,456,445,431,409,397,393,389,387,381,375,366,355,346,331,325,325,325,324,316,300,287,271,257,247,227,212,188,164,143,139,139,139,138,135,108,101,97],"timestamp_mouse":[17,51,57,76,96,117,137,156,176,198,216,237,257,278,296,317,337,358,376,396,417,437,455,477,497,516,536,556,575,597,616,636,656,677,695,716,735,757,776,795,816,836,856,876,897,916,936,956,976,996,1015,1037,1055,1076,1095,1116,1135,1157,1176,1197,1216,1236,1256,1276,1295,1317,1336,1356,1377,1396,1416,1436,1456,1476,1495,1516,1535,1555,1577,1596,1615,1636,1656,1675,1696,1716,1735,1755,1775,1796,1816,1836,1857,1877,1896,1916,1935,1955,1975,1996,2016,2036,2055,2076,2095,2116,2135,2155,2175,2195],"xSR":733.5,"ySR":443.3,"xT1":420.09999999999997,"yT1":0,"xT2":1046.8999999999999,"yT2":0,"toosoon":0,"cond_shown":"Incongruent","ratio_trial":100,"L_num":9,"L_den":15,"R_num":14,"R_den":28,"correct_side":1,"subjID":"SofiaFandiñoTorres12","gender":"1","school":"6","age":"11"},{"start_time":1551790144121,"click_time":1551790151890,"finger_time":1551790149250,"fix_duration":250,"trial":38,"RT":5129,"MT":2640,"sideResp":2,"stimulus":[],"xmouse":[795,795,795,795,795,795,795,795,795,795,795,795,795,795,795,795,795,795,795,795,795,795,795,795,795,795,795,795,795,795,795,795,795,795,795,795,795,795,795,795,795,795,795,795,795,795,795,795,795,795,795,795,795,795,795,795,795,795,795,795,795,795,795,795,795,795,795,795,795,795,795,795,795,795,795,795,795,795,795,795,795,795,795,795,795,795,795,795,795,795,795,795,795,795,795,795,795,795,795,795,795,795,795,795,795,795,795,795,795,795,795,795,795,795,795,795,795,795,795,795,795,795,795,795,795,795,796,799,799,799,799,799,799,799,799,799,799,799,799,799,799,799,799,799,799,799,799,799,799,799,799,799,799,799,799,799,799,799,799,799,799,799,799,799,799,799,799,799,799,799,799,799,799,799,799,799,799,799,799,799,799,799,799,799,799,799,799,799,799,799,799,799,799,799,799,799,799,799,799,799,799,799,799,799,799,799,799,799,799,799,799,799,799,799,799,799,799,799,799,799,799,799,799,799,799,799,799,799,799,799,799,799,799,799,799,799,799,799,799,799,799,799,799,799,799,799,799,799,799,799,799,799,797,795,792,791,784,778,767,760,751,736,732,717,695,680,657,646,640,633,622,618,618,617,614,613,610,608,607,603,598,592,588,588,588,588,588,588,588,588,588,588,588,588,588,588,588,588,588,588,588,588,588,588,588,588,588,588,588,588,588,588,589,622,647,659,670,670,670,670,664,658,652,646,642,633,626,626,620,608,595,595,595,595,595,595,595,595,595,595,595,595,595,595,595,595,595,595,595,595,595,595,595,595,595,595,595,626,808,958,1034,1034,1034,1034,1034,1073,1170,1205,1205,1205,1205,1205,1205,1205,1205,1205,1205,1205,1205,1205,1205,1205,1205,1205,1205,1205,1205,1205,1100],"ymouse":[506,506,506,506,506,506,506,506,506,506,506,506,506,506,506,506,506,506,506,506,506,506,506,506,506,506,506,506,506,506,506,506,506,506,506,506,506,506,506,506,506,506,506,506,506,506,506,506,506,506,506,506,506,506,506,506,506,506,506,506,506,506,506,506,506,506,506,506,506,506,506,506,506,506,506,506,506,506,506,506,506,506,506,506,506,506,506,506,506,506,506,506,506,506,506,506,506,506,506,506,506,506,506,506,506,506,506,506,506,506,506,506,506,506,506,506,506,506,506,506,506,506,506,506,506,506,506,500,496,494,493,493,493,493,493,493,493,493,493,493,493,493,493,493,493,493,493,493,493,493,493,493,493,493,493,493,493,493,493,493,493,493,493,493,493,493,493,493,493,493,493,493,493,493,493,493,493,493,493,493,493,493,493,493,493,493,493,493,493,493,493,493,493,493,493,493,493,493,493,493,493,493,493,493,493,493,493,493,493,493,493,493,493,493,493,493,493,493,493,493,493,493,493,493,493,493,493,493,492,492,492,492,492,492,492,492,492,492,492,492,492,492,492,492,492,492,492,492,492,492,492,492,483,478,467,464,440,426,410,398,386,369,364,345,327,319,294,279,270,258,235,223,222,219,212,210,206,204,203,201,199,197,196,196,196,196,196,196,196,196,196,196,196,196,196,196,196,196,196,196,196,196,196,196,196,196,196,196,196,196,196,196,196,202,211,225,247,252,258,269,284,294,294,294,293,280,240,234,217,201,188,188,188,188,188,188,188,188,188,188,188,188,188,188,188,188,188,188,188,188,188,188,188,188,188,188,188,212,357,517,653,653,653,653,653,626,157,39,39,39,39,39,39,39,39,39,39,39,39,39,39,39,39,39,39,39,39,39,3],"timestamp_mouse":[11,28,50,68,88,110,130,148,168,189,208,229,250,268,290,308,330,350,370,389,409,428,449,470,489,509,530,548,568,590,608,630,649,668,689,710,729,749,768,788,808,830,848,869,890,910,929,949,969,989,1010,1029,1048,1068,1089,1109,1129,1150,1169,1189,1209,1229,1248,1268,1289,1309,1329,1349,1369,1389,1409,1429,1448,1469,1489,1509,1529,1549,1569,1590,1608,1628,1648,1668,1689,1708,1728,1749,1768,1790,1808,1830,1850,1870,1889,1908,1928,1948,1970,1989,2008,2029,2049,2069,2089,2109,2130,2150,2169,2188,2209,2229,2249,2269,2288,2308,2329,2348,2368,2389,2410,2429,2450,2468,2489,2510,2529,2548,2569,2589,2609,2629,2648,2669,2688,2708,2729,2748,2769,2790,2809,2828,2848,2868,2889,2910,2929,2948,2970,2988,3008,3030,3049,3068,3089,3109,3128,3150,3169,3188,3209,3229,3249,3269,3288,3310,3329,3348,3369,3390,3408,3429,3448,3469,3490,3509,3529,3549,3569,3588,3609,3628,3650,3669,3689,3709,3729,3748,3769,3790,3808,3830,3850,3869,3890,3909,3928,3949,3970,3988,4009,4030,4049,4069,4088,4109,4129,4150,4168,4189,4210,4230,4250,4269,4289,4308,4330,4349,4368,4388,4410,4430,4449,4468,4489,4510,4530,4548,4569,4590,4610,4630,4648,4669,4689,4709,4728,4749,4769,4789,4809,4828,4849,4869,4889,4909,4928,4949,4970,4990,5008,5029,5050,5069,5089,5108,5129,5148,5168,5189,5209,5230,5249,5268,5288,5309,5329,5349,5369,5389,5408,5429,5449,5470,5489,5509,5529,5549,5568,5589,5610,5628,5650,5669,5688,5708,5730,5750,5769,5789,5809,5830,5849,5870,5889,5910,5929,5949,5969,5989,6010,6030,6049,6070,6088,6109,6130,6149,6170,6188,6208,6228,6250,6269,6290,6309,6328,6349,6369,6390,6409,6428,6449,6469,6490,6509,6529,6548,6568,6589,6609,6629,6649,6668,6689,6710,6730,6750,6770,6789,6808,6828,6848,6868,6889,6910,6930,6949,6968,6988,7010,7029,7049,7070,7090,7109,7128,7149,7168,7189,7208,7228,7250,7269,7289,7310,7329,7349,7369,7388,7408,7428,7449,7470,7489,7509,7529,7550,7569,7589,7609,7630,7649,7668,7688,7709,7729,7749,7769],"xSR":733.5,"ySR":443.3,"xT1":420.09999999999997,"yT1":0,"xT2":1046.8999999999999,"yT2":0,"toosoon":0,"cond_shown":"Congruent","ratio_trial":100,"L_num":1,"L_den":2,"R_num":3,"R_den":5,"correct_side":2,"subjID":"SofiaFandiñoTorres12","gender":"1","school":"6","age":"11"},{"start_time":1551790157091,"click_time":1551790159390,"finger_time":1551790158969,"fix_duration":1359.140391322811,"trial":39,"RT":1878,"MT":421,"sideResp":2,"stimulus":[],"xmouse":[774,774,774,774,774,774,774,774,774,774,774,774,774,774,774,774,774,774,774,774,774,774,774,774,774,774,774,774,774,774,774,774,774,774,774,774,774,774,774,774,774,774,774,774,774,774,774,774,774,774,774,774,774,774,774,774,774,774,774,774,774,774,774,774,774,774,774,774,774,774,774,774,774,774,774,774,774,774,774,774,774,774,774,774,774,774,774,774,774,774,774,774,802,836,866,888,909,953,960,964,967,971,980,987,993,1000,1009,1019,1023,1028,1033,1036,1043,1045,1047],"ymouse":[498,498,498,498,498,498,498,498,498,498,498,498,498,498,498,498,498,498,498,498,498,498,498,498,498,498,498,498,498,498,498,498,498,498,498,498,498,498,498,498,498,498,498,498,498,498,498,498,498,498,498,498,498,498,498,498,498,498,498,498,498,498,498,498,498,498,498,498,498,498,498,498,498,498,498,498,498,498,498,498,498,498,498,498,498,498,498,498,498,498,498,492,454,427,406,387,364,304,282,267,258,251,229,218,209,193,173,157,151,143,134,126,108,97,92],"timestamp_mouse":[18,49,59,79,100,118,139,159,179,198,219,239,258,280,299,318,340,358,379,398,420,439,460,480,498,519,539,558,579,600,619,639,660,680,698,719,740,759,780,799,819,839,860,879,899,918,940,959,978,999,1019,1040,1058,1079,1099,1120,1139,1159,1179,1199,1219,1238,1260,1278,1298,1320,1339,1358,1379,1400,1419,1439,1458,1480,1499,1518,1539,1560,1579,1598,1619,1639,1659,1678,1699,1720,1739,1758,1779,1800,1818,1838,1858,1878,1899,1919,1940,1958,1978,1998,2020,2040,2059,2080,2098,2120,2140,2158,2179,2198,2220,2240,2259,2279,2299],"xSR":733.5,"ySR":443.3,"xT1":420.09999999999997,"yT1":0,"xT2":1046.8999999999999,"yT2":0,"toosoon":0,"cond_shown":"Incongruent","ratio_trial":200,"L_num":7,"L_den":10,"R_num":14,"R_den":28,"correct_side":1,"subjID":"SofiaFandiñoTorres12","gender":"1","school":"6","age":"11"},{"start_time":1551790160851,"click_time":1551790168631,"finger_time":1551790161169,"fix_duration":399.9459140347964,"trial":40,"RT":318,"MT":7462,"sideResp":2,"stimulus":[],"xmouse":[760,760,760,760,760,760,760,760,760,760,760,760,760,760,762,769,773,777,779,779,779,779,779,779,779,779,779,779,779,779,779,779,779,779,779,779,780,782,782,784,790,791,791,792,792,795,796,797,798,799,799,799,799,799,799,799,799,799,799,799,799,799,799,800,800,800,800,799,799,797,797,797,797,797,795,795,793,792,792,792,788,787,786,785,785,785,785,785,785,785,785,785,785,785,785,785,785,785,785,785,785