[{"start_time":1551800559756,"click_time":1551800561770,"finger_time":1551800561309,"fix_duration":341.2529538197488,"trial":0,"RT":1553,"MT":461,"sideResp":1,"stimulus":[],"xmouse":[803,803,803,803,803,803,803,803,803,803,803,803,803,803,803,803,803,803,803,803,803,803,803,803,803,803,803,803,803,803,803,803,803,803,803,803,803,803,803,803,803,803,803,803,803,803,803,803,803,803,803,803,803,803,803,803,803,803,803,803,803,803,803,803,803,803,803,803,803,803,803,803,803,803,793,782,769,745,689,662,644,630,621,604,586,576,568,559,549,537,534,534,534,534,534,534,533,531,526,505],"ymouse":[559,559,559,559,559,559,559,559,559,559,559,559,559,559,558,558,558,558,557,556,555,554,553,552,552,552,552,552,552,552,552,552,552,552,552,552,552,552,552,552,552,552,552,552,552,552,552,552,552,552,552,552,552,552,552,552,552,552,552,552,552,552,552,552,552,552,552,552,552,552,552,552,552,551,529,514,496,467,385,339,310,287,270,237,205,183,159,132,105,72,65,64,64,64,64,64,63,63,63,63],"timestamp_mouse":[38,53,73,94,113,133,153,173,193,212,233,253,274,292,313,333,353,373,394,413,432,453,474,493,513,534,554,573,593,612,634,653,673,693,712,733,754,773,792,814,834,852,873,893,912,933,954,973,993,1013,1033,1053,1073,1094,1114,1134,1152,1173,1194,1212,1234,1254,1274,1294,1314,1332,1354,1373,1394,1414,1433,1453,1472,1493,1513,1532,1553,1573,1594,1613,1633,1653,1674,1694,1712,1733,1753,1773,1794,1812,1832,1853,1874,1894,1913,1933,1954,1974,1993,2013],"xSR":741.5,"ySR":501.8,"xT1":424.9,"yT1":0,"xT2":1058.1,"yT2":0,"toosoon":0,"cond_shown":"Congruent","ratio_trial":300,"L_num":20,"L_den":25,"R_num":14,"R_den":28,"correct_side":1,"subjID":"angelbustos37","gender":"0","age":"11","school":"6","test":{"fix_dur":[250,1500],"timestim":1000,"targets_dim":[100,100],"targets_relative_coord":[0.3,0.7],"size_stim":[880,420],"start_dim":[100,100],"size_start":[300,300],"size_fix":60,"samplingrate":20,"img_types":["Congruent","Incongruent"],"ratios":[100,200,300],"rep_conds":19,"nTrials":120,"trials_to_rest":500,"Trials_order":[46,69,80,82,106,18,13,118,45,54,61,52,5,1,114,16,47,74,17,12,53,7,31,40,6,99,98,90,22,113,3,27,70,39,19,101,111,112,96,9,48,104,100,92,91,56,60,85,57,108,67,15,117,73,65,21,86,44,49,37,38,29,50,72,97,36,4,68,25,87,107,41,78,10,83,66,35,105,71,102,76,63,109,0,88,59,14,32,95,28,51,43,89,23,58,42,119,116,115,2,94,64,103,62,77,30,8,24,11,75,79,93,110,20,26,55,84,33,34,81],"cond_shown":["Congruent","Incongruent","Congruent","Congruent","Congruent","Congruent","Incongruent","Congruent","Incongruent","Congruent","Incongruent","Congruent","Incongruent","Incongruent","Congruent","Congruent","Incongruent","Congruent","Incongruent","Congruent","Incongruent","Incongruent","Incongruent","Congruent","Congruent","Incongruent","Congruent","Congruent","Congruent","Incongruent","Incongruent","Incongruent","Congruent","Incongruent","Incongruent","Incongruent","Incongruent","Congruent","Congruent","Incongruent","Congruent","Congruent","Congruent","Congruent","Incongruent","Congruent","Congruent","Incongruent","Incongruent","Congruent","Incongruent","Incongruent","Incongruent","Incongruent","Incongruent","Incongruent","Congruent","Congruent","Incongruent","Incongruent","Congruent","Incongruent","Congruent","Congruent","Incongruent","Congruent","Congruent","Congruent","Incongruent","Incongruent","Incongruent","Incongruent","Congruent","Congruent","Incongruent","Congruent","Incongruent","Incongruent","Incongruent","Congruent","Congruent","Incongruent","Incongruent","Congruent","Congruent","Incongruent","Congruent","Congruent","Incongruent","Congruent","Incongruent","Incongruent","Incongruent","Incongruent","Congruent","Congruent","Incongruent","Congruent","Incongruent","Congruent","Congruent","Congruent","Incongruent","Congruent","Incongruent","Congruent","Congruent","Congruent","Incongruent","Incongruent","Incongruent","Incongruent","Congruent","Congruent","Congruent","Incongruent","Congruent","Incongruent","Congruent","Incongruent"],"ratio_trial":[300,200,200,300,300,100,100,300,200,100,100,300,300,100,100,300,300,200,300,100,300,100,100,300,100,200,200,100,300,300,200,200,300,200,100,300,200,300,100,200,100,200,300,200,100,200,100,100,200,100,100,200,200,100,300,200,200,200,100,100,200,300,200,100,100,100,300,200,100,200,300,300,100,300,300,100,300,200,300,100,300,200,100,100,300,300,200,200,300,300,200,100,300,300,300,100,300,200,100,200,300,300,100,200,300,100,200,100,300,200,100,200,200,200,200,100,100,200,300,200],"left_num":[20,7,3,5,24,6,3,4,11,6,9,7,2,8,6,4,4,5,4,6,1,6,6,3,12,7,7,11,3,13,4,7,3,11,6,4,14,24,10,1,10,5,4,5,13,7,12,2,3,1,8,7,14,10,4,3,3,4,13,6,6,8,11,2,2,7,1,6,13,7,1,1,11,12,7,7,7,1,4,15,18,7,8,11,1,4,6,7,1,1,14,13,4,13,5,12,13,3,3,3,2,1,6,13,13,10,6,8,4,3,2,14,12,5,16,13,4,7,20,7],"right_num":[14,14,7,7,8,15,11,1,3,5,6,20,6,1,5,13,2,14,2,5,3,7,11,2,13,14,18,4,2,12,1,8,4,3,3,2,6,8,3,3,3,14,1,14,6,2,13,8,11,18,6,12,12,9,2,1,14,3,12,7,3,9,3,11,8,9,8,3,6,6,3,3,6,2,8,15,8,3,2,13,9,4,1,6,8,2,7,2,3,6,6,6,8,12,6,13,12,7,8,7,12,19,11,14,12,3,7,2,2,11,6,6,6,14,12,12,15,4,5,8],"left_den":[25,10,10,25,30,12,5,10,20,20,18,14,4,20,20,20,20,10,20,20,2,10,10,6,30,10,15,22,6,26,30,10,6,20,12,20,30,30,25,2,25,10,10,10,26,21,30,4,4,2,16,10,30,25,20,10,6,8,26,10,15,10,22,5,4,14,30,15,26,15,2,2,22,24,10,14,10,2,20,25,20,15,20,22,30,20,12,21,2,5,30,26,5,26,25,30,26,10,5,10,10,3,10,26,26,25,12,16,20,4,4,30,15,10,20,26,10,15,25,10],"right_den":[28,28,14,14,16,25,22,10,4,25,10,25,30,2,25,26,4,20,4,25,15,14,22,10,26,28,27,10,10,15,3,16,5,4,5,4,9,16,10,10,10,20,10,20,10,15,26,20,20,30,10,24,18,18,4,2,20,10,20,14,15,18,10,22,20,15,24,15,10,9,15,15,15,10,20,25,20,10,4,26,15,6,2,15,24,4,10,15,15,12,9,10,16,15,12,26,15,14,16,14,24,30,22,20,15,10,10,5,4,20,15,9,10,20,20,20,30,6,10,16],"correct_side":[1,1,2,2,1,2,1,1,2,1,2,2,1,2,1,2,2,2,2,1,1,1,1,1,2,1,2,1,1,2,2,1,2,2,2,2,2,1,1,1,1,2,1,2,2,1,2,1,1,2,2,1,2,2,2,2,2,1,2,1,1,1,1,2,1,2,2,1,2,2,1,1,1,1,1,2,1,1,2,1,1,2,2,1,2,2,2,1,1,2,2,2,1,2,2,2,2,2,1,2,2,2,1,2,2,1,2,1,2,1,1,2,1,2,1,2,2,2,1,1],"img_shown":["img2/300/Congruent/L/C_Dist_300_LN_20_LD_25_RN_14_RD_28_0.png","img2/200/Incongruent/L/I_Dist_200_LN_7_LD_10_RN_14_RD_28_0.png","img2/200/Congruent/R/C_Dist_200_LN_3_LD_10_RN_7_RD_14_1.png","img2/300/Congruent/R/C_Dist_300_LN_5_LD_25_RN_7_RD_14_1.png","img2/300/Congruent/L/C_Dist_300_LN_24_LD_30_RN_8_RD_16_0.png","img2/100/Congruent/R/C_Dist_100_LN_6_LD_12_RN_15_RD_25_1.png","img2/100/Incongruent/L/I_Dist_100_LN_3_LD_5_RN_11_RD_22_0.png","img2/300/Congruent/L/C_Dist_300_LN_4_LD_10_RN_1_RD_10_0.png","img2/200/Incongruent/R/I_Dist_200_LN_11_LD_20_RN_3_RD_4_1.png","img2/100/Congruent/L/C_Dist_100_LN_6_LD_20_RN_5_RD_25_0.png","img2/100/Incongruent/R/I_Dist_100_LN_9_LD_18_RN_6_RD_10_1.png","img2/300/Congruent/R/C_Dist_300_LN_7_LD_14_RN_20_RD_25_1.png","img2/300/Incongruent/L/I_Dist_300_LN_2_LD_4_RN_6_RD_30_0.png","img2/100/Incongruent/R/I_Dist_100_LN_8_LD_20_RN_1_RD_2_1.png","img2/100/Congruent/L/C_Dist_100_LN_6_LD_20_RN_5_RD_25_0.png","img2/300/Congruent/R/C_Dist_300_LN_4_LD_20_RN_13_RD_26_1.png","img2/300/Incongruent/R/I_Dist_300_LN_4_LD_20_RN_2_RD_4_1.png","img2/200/Congruent/R/C_Dist_200_LN_5_LD_10_RN_14_RD_20_1.png","img2/300/Incongruent/R/I_Dist_300_LN_4_LD_20_RN_2_RD_4_1.png","img2/100/Congruent/L/C_Dist_100_LN_6_LD_20_RN_5_RD_25_0.png","img2/300/Incongruent/L/I_Dist_300_LN_1_LD_2_RN_3_RD_15_0.png","img2/100/Incongruent/L/I_Dist_100_LN_6_LD_10_RN_7_RD_14_0.png","img2/100/Incongruent/L/I_Dist_100_LN_6_LD_10_RN_11_RD_22_0.png","img2/300/Congruent/L/C_Dist_300_LN_3_LD_6_RN_2_RD_10_0.png","img2/100/Congruent/R/C_Dist_100_LN_12_LD_30_RN_13_RD_26_1.png","img2/200/Incongruent/L/I_Dist_200_LN_7_LD_10_RN_14_RD_28_0.png","img2/200/Congruent/R/C_Dist_200_LN_7_LD_15_RN_18_RD_27_1.png","img2/100/Congruent/L/C_Dist_100_LN_11_LD_22_RN_4_RD_10_0.png","img2/300/Congruent/L/C_Dist_300_LN_3_LD_6_RN_2_RD_10_0.png","img2/300/Incongruent/R/I_Dist_300_LN_13_LD_26_RN_12_RD_15_1.png","img2/200/Incongruent/R/I_Dist_200_LN_4_LD_30_RN_1_RD_3_1.png","img2/200/Incongruent/L/I_Dist_200_LN_7_LD_10_RN_8_RD_16_0.png","img2/300/Congruent/R/C_Dist_300_LN_3_LD_6_RN_4_RD_5_1.png","img2/200/Incongruent/R/I_Dist_200_LN_11_LD_20_RN_3_RD_4_1.png","img2/100/Incongruent/R/I_Dist_100_LN_6_LD_12_RN_3_RD_5_1.png","img2/300/Incongruent/R/I_Dist_300_LN_4_LD_20_RN_2_RD_4_1.png","img2/200/Incongruent/R/I_Dist_200_LN_14_LD_30_RN_6_RD_9_1.png","img2/300/Congruent/L/C_Dist_300_LN_24_LD_30_RN_8_RD_16_0.png","img2/100/Congruent/L/C_Dist_100_LN_10_LD_25_RN_3_RD_10_0.png","img2/200/Incongruent/L/I_Dist_200_LN_1_LD_2_RN_3_RD_10_0.png","img2/100/Congruent/L/C_Dist_100_LN_10_LD_25_RN_3_RD_10_0.png","img2/200/Congruent/R/C_Dist_200_LN_5_LD_10_RN_14_RD_20_1.png","img2/300/Congruent/L/C_Dist_300_LN_4_LD_10_RN_1_RD_10_0.png","img2/200/Congruent/R/C_Dist_200_LN_5_LD_10_RN_14_RD_20_1.png","img2/100/Incongruent/R/I_Dist_100_LN_13_LD_26_RN_6_RD_10_1.png","img2/200/Congruent/L/C_Dist_200_LN_7_LD_21_RN_2_RD_15_0.png","img2/100/Congruent/R/C_Dist_100_LN_12_LD_30_RN_13_RD_26_1.png","img2/100/Incongruent/L/I_Dist_100_LN_2_LD_4_RN_8_RD_20_0.png","img2/200/Incongruent/L/I_Dist_200_LN_3_LD_4_RN_11_RD_20_0.png","img2/100/Congruent/R/C_Dist_100_LN_1_LD_2_RN_18_RD_30_1.png","img2/100/Incongruent/R/I_Dist_100_LN_8_LD_16_RN_6_RD_10_1.png","img2/200/Incongruent/L/I_Dist_200_LN_7_LD_10_RN_12_RD_24_0.png","img2/200/Incongruent/R/I_Dist_200_LN_14_LD_30_RN_12_RD_18_1.png","img2/100/Incongruent/R/I_Dist_100_LN_10_LD_25_RN_9_RD_18_1.png","img2/300/Incongruent/R/I_Dist_300_LN_4_LD_20_RN_2_RD_4_1.png","img2/200/Incongruent/R/I_Dist_200_LN_3_LD_10_RN_1_RD_2_1.png","img2/200/Congruent/R/C_Dist_200_LN_3_LD_6_RN_14_RD_20_1.png","img2/200/Congruent/L/C_Dist_200_LN_4_LD_8_RN_3_RD_10_0.png","img2/100/Incongruent/R/I_Dist_100_LN_13_LD_26_RN_12_RD_20_1.png","img2/100/Incongruent/L/I_Dist_100_LN_6_LD_10_RN_7_RD_14_0.png","img2/200/Congruent/L/C_Dist_200_LN_6_LD_15_RN_3_RD_15_0.png","img2/300/Incongruent/L/I_Dist_300_LN_8_LD_10_RN_9_RD_18_0.png","img2/200/Congruent/L/C_Dist_200_LN_11_LD_22_RN_3_RD_10_0.png","img2/100/Congruent/R/C_Dist_100_LN_2_LD_5_RN_11_RD_22_1.png","img2/100/Incongruent/L/I_Dist_100_LN_2_LD_4_RN_8_RD_20_0.png","img2/100/Congruent/R/C_Dist_100_LN_7_LD_14_RN_9_RD_15_1.png","img2/300/Congruent/R/C_Dist_300_LN_1_LD_30_RN_8_RD_24_1.png","img2/200/Congruent/L/C_Dist_200_LN_6_LD_15_RN_3_RD_15_0.png","img2/100/Incongruent/R/I_Dist_100_LN_13_LD_26_RN_6_RD_10_1.png","img2/200/Incongruent/R/I_Dist_200_LN_7_LD_15_RN_6_RD_9_1.png","img2/300/Incongruent/L/I_Dist_300_LN_1_LD_2_RN_3_RD_15_0.png","img2/300/Incongruent/L/I_Dist_300_LN_1_LD_2_RN_3_RD_15_0.png","img2/100/Congruent/L/C_Dist_100_LN_11_LD_22_RN_6_RD_15_0.png","img2/300/Congruent/L/C_Dist_300_LN_12_LD_24_RN_2_RD_10_0.png","img2/300/Incongruent/L/I_Dist_300_LN_7_LD_10_RN_8_RD_20_0.png","img2/100/Congruent/R/C_Dist_100_LN_7_LD_14_RN_15_RD_25_1.png","img2/300/Incongruent/L/I_Dist_300_LN_7_LD_10_RN_8_RD_20_0.png","img2/200/Incongruent/L/I_Dist_200_LN_1_LD_2_RN_3_RD_10_0.png","img2/300/Incongruent/R/I_Dist_300_LN_4_LD_20_RN_2_RD_4_1.png","img2/100/Congruent/L/C_Dist_100_LN_15_LD_25_RN_13_RD_26_0.png","img2/300/Congruent/L/C_Dist_300_LN_18_LD_20_RN_9_RD_15_0.png","img2/200/Incongruent/R/I_Dist_200_LN_7_LD_15_RN_4_RD_6_1.png","img2/100/Incongruent/R/I_Dist_100_LN_8_LD_20_RN_1_RD_2_1.png","img2/100/Congruent/L/C_Dist_100_LN_11_LD_22_RN_6_RD_15_0.png","img2/300/Congruent/R/C_Dist_300_LN_1_LD_30_RN_8_RD_24_1.png","img2/300/Incongruent/R/I_Dist_300_LN_4_LD_20_RN_2_RD_4_1.png","img2/200/Congruent/R/C_Dist_200_LN_6_LD_12_RN_7_RD_10_1.png","img2/200/Congruent/L/C_Dist_200_LN_7_LD_21_RN_2_RD_15_0.png","img2/300/Incongruent/L/I_Dist_300_LN_1_LD_2_RN_3_RD_15_0.png","img2/300/Congruent/R/C_Dist_300_LN_1_LD_5_RN_6_RD_12_1.png","img2/200/Incongruent/R/I_Dist_200_LN_14_LD_30_RN_6_RD_9_1.png","img2/100/Incongruent/R/I_Dist_100_LN_13_LD_26_RN_6_RD_10_1.png","img2/300/Incongruent/L/I_Dist_300_LN_4_LD_5_RN_8_RD_16_0.png","img2/300/Incongruent/R/I_Dist_300_LN_13_LD_26_RN_12_RD_15_1.png","img2/300/Congruent/R/C_Dist_300_LN_5_LD_25_RN_6_RD_12_1.png","img2/100/Congruent/R/C_Dist_100_LN_12_LD_30_RN_13_RD_26_1.png","img2/300/Incongruent/R/I_Dist_300_LN_13_LD_26_RN_12_RD_15_1.png","img2/200/Congruent/R/C_Dist_200_LN_3_LD_10_RN_7_RD_14_1.png","img2/100/Incongruent/L/I_Dist_100_LN_3_LD_5_RN_8_RD_16_0.png","img2/200/Congruent/R/C_Dist_200_LN_3_LD_10_RN_7_RD_14_1.png","img2/300/Congruent/R/C_Dist_300_LN_2_LD_10_RN_12_RD_24_1.png","img2/300/Congruent/R/C_Dist_300_LN_1_LD_3_RN_19_RD_30_1.png","img2/100/Incongruent/L/I_Dist_100_LN_6_LD_10_RN_11_RD_22_0.png","img2/200/Congruent/R/C_Dist_200_LN_13_LD_26_RN_14_RD_20_1.png","img2/300/Incongruent/R/I_Dist_300_LN_13_LD_26_RN_12_RD_15_1.png","img2/100/Congruent/L/C_Dist_100_LN_10_LD_25_RN_3_RD_10_0.png","img2/200/Congruent/R/C_Dist_200_LN_6_LD_12_RN_7_RD_10_1.png","img2/100/Congruent/L/C_Dist_100_LN_8_LD_16_RN_2_RD_5_0.png","img2/300/Incongruent/R/I_Dist_300_LN_4_LD_20_RN_2_RD_4_1.png","img2/200/Incongruent/L/I_Dist_200_LN_3_LD_4_RN_11_RD_20_0.png","img2/100/Incongruent/L/I_Dist_100_LN_2_LD_4_RN_6_RD_15_0.png","img2/200/Incongruent/R/I_Dist_200_LN_14_LD_30_RN_6_RD_9_1.png","img2/200/Congruent/L/C_Dist_200_LN_12_LD_15_RN_6_RD_10_0.png","img2/200/Congruent/R/C_Dist_200_LN_5_LD_10_RN_14_RD_20_1.png","img2/200/Congruent/L/C_Dist_200_LN_16_LD_20_RN_12_RD_20_0.png","img2/100/Incongruent/R/I_Dist_100_LN_13_LD_26_RN_12_RD_20_1.png","img2/100/Congruent/R/C_Dist_100_LN_4_LD_10_RN_15_RD_30_1.png","img2/200/Incongruent/R/I_Dist_200_LN_7_LD_15_RN_4_RD_6_1.png","img2/300/Congruent/L/C_Dist_300_LN_20_LD_25_RN_5_RD_10_0.png","img2/200/Incongruent/L/I_Dist_200_LN_7_LD_10_RN_8_RD_16_0.png"],"dist100_C":[["C_Dist_100_LN_10_LD_25_RN_3_RD_10_0.png","C_Dist_100_LN_11_LD_22_RN_4_RD_10_0.png","C_Dist_100_LN_11_LD_22_RN_6_RD_15_0.png","C_Dist_100_LN_15_LD_25_RN_13_RD_26_0.png","C_Dist_100_LN_3_LD_6_RN_2_RD_5_0.png","C_Dist_100_LN_6_LD_20_RN_5_RD_25_0.png","C_Dist_100_LN_8_LD_16_RN_2_RD_5_0.png","C_Dist_100_LN_9_LD_15_RN_8_RD_16_0.png"],["C_Dist_100_LN_1_LD_2_RN_18_RD_30_1.png","C_Dist_100_LN_1_LD_2_RN_3_RD_5_1.png","C_Dist_100_LN_12_LD_30_RN_13_RD_26_1.png","C_Dist_100_LN_2_LD_5_RN_11_RD_22_1.png","C_Dist_100_LN_2_LD_5_RN_6_RD_12_1.png","C_Dist_100_LN_3_LD_20_RN_4_RD_16_1.png","C_Dist_100_LN_4_LD_10_RN_15_RD_30_1.png","C_Dist_100_LN_4_LD_8_RN_6_RD_10_1.png","C_Dist_100_LN_6_LD_12_RN_15_RD_25_1.png","C_Dist_100_LN_7_LD_14_RN_15_RD_25_1.png","C_Dist_100_LN_7_LD_14_RN_9_RD_15_1.png"]],"dist100_I":[["I_Dist_100_LN_1_LD_2_RN_8_RD_20_0.png","I_Dist_100_LN_2_LD_4_RN_6_RD_15_0.png","I_Dist_100_LN_2_LD_4_RN_8_RD_20_0.png","I_Dist_100_LN_3_LD_5_RN_11_RD_22_0.png","I_Dist_100_LN_3_LD_5_RN_8_RD_16_0.png","I_Dist_100_LN_3_LD_6_RN_4_RD_10_0.png","I_Dist_100_LN_3_LD_9_RN_7_RD_30_0.png","I_Dist_100_LN_4_LD_8_RN_8_RD_20_0.png","I_Dist_100_LN_6_LD_10_RN_11_RD_22_0.png","I_Dist_100_LN_6_LD_10_RN_13_RD_26_0.png","I_Dist_100_LN_6_LD_10_RN_7_RD_14_0.png","I_Dist_100_LN_9_LD_10_RN_20_RD_25_0.png","I_Dist_100_LN_9_LD_15_RN_13_RD_26_0.png","I_Dist_100_LN_9_LD_15_RN_14_RD_28_0.png"],["I_Dist_100_LN_10_LD_25_RN_8_RD_16_1.png","I_Dist_100_LN_10_LD_25_RN_9_RD_18_1.png","I_Dist_100_LN_11_LD_22_RN_9_RD_15_1.png","I_Dist_100_LN_12_LD_24_RN_9_RD_15_1.png","I_Dist_100_LN_12_LD_30_RN_2_RD_4_1.png","I_Dist_100_LN_13_LD_26_RN_12_RD_20_1.png","I_Dist_100_LN_13_LD_26_RN_6_RD_10_1.png","I_Dist_100_LN_17_LD_30_RN_10_RD_15_1.png","I_Dist_100_LN_6_LD_12_RN_3_RD_5_1.png","I_Dist_100_LN_8_LD_16_RN_6_RD_10_1.png","I_Dist_100_LN_8_LD_20_RN_1_RD_2_1.png","I_Dist_100_LN_9_LD_18_RN_6_RD_10_1.png"]],"dist100_S":[["E_Dist_100_LN_2_LD_12_RN_2_RD_30_0.png","E_Dist_100_LN_6_LD_10_RN_6_RD_12_0.png"],["E_Dist_100_LN_6_LD_12_RN_6_RD_10_1.png"]],"dist200_C":[["C_Dist_200_LN_11_LD_22_RN_3_RD_10_0.png","C_Dist_200_LN_12_LD_15_RN_6_RD_10_0.png","C_Dist_200_LN_12_LD_20_RN_6_RD_15_0.png","C_Dist_200_LN_14_LD_28_RN_6_RD_20_0.png","C_Dist_200_LN_15_LD_25_RN_4_RD_10_0.png","C_Dist_200_LN_16_LD_20_RN_12_RD_20_0.png","C_Dist_200_LN_16_LD_30_RN_9_RD_27_0.png","C_Dist_200_LN_20_LD_25_RN_9_RD_15_0.png","C_Dist_200_LN_21_LD_30_RN_2_RD_4_0.png","C_Dist_200_LN_4_LD_10_RN_3_RD_15_0.png","C_Dist_200_LN_4_LD_8_RN_3_RD_10_0.png","C_Dist_200_LN_6_LD_15_RN_3_RD_15_0.png","C_Dist_200_LN_7_LD_21_RN_2_RD_15_0.png","C_Dist_200_LN_8_LD_15_RN_2_RD_6_0.png","C_Dist_200_LN_8_LD_15_RN_3_RD_9_0.png","C_Dist_200_LN_8_LD_15_RN_7_RD_21_0.png","C_Dist_200_LN_9_LD_20_RN_4_RD_16_0.png"],["C_Dist_200_LN_1_LD_2_RN_21_RD_30_1.png","C_Dist_200_LN_13_LD_26_RN_14_RD_20_1.png","C_Dist_200_LN_3_LD_10_RN_11_RD_22_1.png","C_Dist_200_LN_3_LD_10_RN_14_RD_28_1.png","C_Dist_200_LN_3_LD_10_RN_7_RD_14_1.png","C_Dist_200_LN_3_LD_12_RN_9_RD_20_1.png","C_Dist_200_LN_3_LD_6_RN_14_RD_20_1.png","C_Dist_200_LN_5_LD_10_RN_14_RD_20_1.png","C_Dist_200_LN_6_LD_12_RN_7_RD_10_1.png","C_Dist_200_LN_6_LD_20_RN_11_RD_22_1.png","C_Dist_200_LN_7_LD_15_RN_18_RD_27_1.png","C_Dist_200_LN_9_LD_30_RN_13_RD_26_1.png"]],"dist200_I":[["I_Dist_200_LN_1_LD_2_RN_3_RD_10_0.png","I_Dist_200_LN_1_LD_3_RN_2_RD_15_0.png","I_Dist_200_LN_3_LD_4_RN_11_RD_20_0.png","I_Dist_200_LN_4_LD_5_RN_6_RD_10_0.png","I_Dist_200_LN_4_LD_6_RN_14_RD_30_0.png","I_Dist_200_LN_7_LD_10_RN_12_RD_24_0.png","I_Dist_200_LN_7_LD_10_RN_14_RD_28_0.png","I_Dist_200_LN_7_LD_10_RN_8_RD_16_0.png"],["I_Dist_200_LN_11_LD_20_RN_3_RD_4_1.png","I_Dist_200_LN_14_LD_30_RN_12_RD_18_1.png","I_Dist_200_LN_14_LD_30_RN_6_RD_9_1.png","I_Dist_200_LN_3_LD_10_RN_1_RD_2_1.png","I_Dist_200_LN_4_LD_30_RN_1_RD_3_1.png","I_Dist_200_LN_6_LD_20_RN_3_RD_6_1.png","I_Dist_200_LN_7_LD_15_RN_4_RD_6_1.png","I_Dist_200_LN_7_LD_15_RN_6_RD_9_1.png","I_Dist_200_LN_9_LD_15_RN_8_RD_10_1.png"]],"dist200_S":[["E_Dist_200_LN_3_LD_6_RN_3_RD_10_0.png"],["E_Dist_200_LN_3_LD_10_RN_3_RD_6_1.png"]],"dist300_C":[["C_Dist_300_LN_11_LD_22_RN_1_RD_5_0.png","C_Dist_300_LN_11_LD_22_RN_2_RD_10_0.png","C_Dist_300_LN_11_LD_22_RN_4_RD_20_0.png","C_Dist_300_LN_12_LD_24_RN_2_RD_10_0.png","C_Dist_300_LN_18_LD_20_RN_9_RD_15_0.png","C_Dist_300_LN_20_LD_25_RN_13_RD_26_0.png","C_Dist_300_LN_20_LD_25_RN_14_RD_28_0.png","C_Dist_300_LN_20_LD_25_RN_5_RD_10_0.png","C_Dist_300_LN_20_LD_25_RN_8_RD_16_0.png","C_Dist_300_LN_20_LD_25_RN_9_RD_18_0.png","C_Dist_300_LN_24_LD_30_RN_2_RD_4_0.png","C_Dist_300_LN_24_LD_30_RN_8_RD_16_0.png","C_Dist_300_LN_3_LD_6_RN_2_RD_10_0.png","C_Dist_300_LN_4_LD_10_RN_1_RD_10_0.png","C_Dist_300_LN_4_LD_5_RN_2_RD_4_0.png","C_Dist_300_LN_8_LD_16_RN_1_RD_5_0.png","C_Dist_300_LN_9_LD_10_RN_3_RD_5_0.png"],["C_Dist_300_LN_1_LD_20_RN_7_RD_20_1.png","C_Dist_300_LN_1_LD_3_RN_19_RD_30_1.png","C_Dist_300_LN_1_LD_30_RN_8_RD_24_1.png","C_Dist_300_LN_1_LD_5_RN_11_RD_22_1.png","C_Dist_300_LN_1_LD_5_RN_3_RD_6_1.png","C_Dist_300_LN_1_LD_5_RN_6_RD_12_1.png","C_Dist_300_LN_2_LD_10_RN_12_RD_24_1.png","C_Dist_300_LN_2_LD_20_RN_10_RD_25_1.png","C_Dist_300_LN_3_LD_12_RN_11_RD_20_1.png","C_Dist_300_LN_3_LD_6_RN_4_RD_5_1.png","C_Dist_300_LN_4_LD_20_RN_13_RD_26_1.png","C_Dist_300_LN_5_LD_25_RN_6_RD_12_1.png","C_Dist_300_LN_5_LD_25_RN_7_RD_14_1.png","C_Dist_300_LN_7_LD_14_RN_20_RD_25_1.png","C_Dist_300_LN_8_LD_15_RN_10_RD_12_1.png"]],"dist300_I":[["I_Dist_300_LN_1_LD_2_RN_2_RD_10_0.png","I_Dist_300_LN_1_LD_2_RN_3_RD_15_0.png","I_Dist_300_LN_2_LD_4_RN_6_RD_30_0.png","I_Dist_300_LN_3_LD_6_RN_4_RD_20_0.png","I_Dist_300_LN_4_LD_5_RN_6_RD_12_0.png","I_Dist_300_LN_4_LD_5_RN_8_RD_16_0.png","I_Dist_300_LN_7_LD_10_RN_8_RD_20_0.png","I_Dist_300_LN_8_LD_10_RN_14_RD_28_0.png","I_Dist_300_LN_8_LD_10_RN_9_RD_18_0.png"],["I_Dist_300_LN_13_LD_26_RN_12_RD_15_1.png","I_Dist_300_LN_4_LD_20_RN_2_RD_4_1.png"]],"dist300_S":[["E_Dist_300_LN_9_LD_12_RN_9_RD_20_0.png"],["E_Dist_300_LN_18_LD_30_RN_18_RD_20_1.png","E_Dist_300_LN_3_LD_10_RN_3_RD_5_1.png","E_Dist_300_LN_9_LD_20_RN_9_RD_12_1.png"]],"dist500_C":[["C_Dist_500_LN_10_LD_13_RN_7_RD_26_0.png","C_Dist_500_LN_10_LD_15_RN_4_RD_24_0.png","C_Dist_500_LN_12_LD_16_RN_3_RD_12_0.png","C_Dist_500_LN_12_LD_18_RN_4_RD_24_0.png","C_Dist_500_LN_15_LD_18_RN_5_RD_15_0.png","C_Dist_500_LN_15_LD_20_RN_1_RD_4_0.png","C_Dist_500_LN_18_LD_27_RN_1_RD_6_0.png","C_Dist_500_LN_20_LD_24_RN_1_RD_3_0.png","C_Dist_500_LN_20_LD_24_RN_3_RD_9_0.png","C_Dist_500_LN_20_LD_24_RN_7_RD_21_0.png","C_Dist_500_LN_20_LD_28_RN_3_RD_14_0.png","C_Dist_500_LN_21_LD_28_RN_6_RD_24_0.png","C_Dist_500_LN_22_LD_28_RN_2_RD_7_0.png","C_Dist_500_LN_25_LD_30_RN_9_RD_27_0.png","C_Dist_500_LN_4_LD_6_RN_1_RD_6_0.png","C_Dist_500_LN_5_LD_6_RN_2_RD_6_0.png","C_Dist_500_LN_6_LD_9_RN_1_RD_6_0.png","C_Dist_500_LN_7_LD_10_RN_1_RD_5_0.png","C_Dist_500_LN_8_LD_12_RN_1_RD_6_0.png","C_Dist_500_LN_8_LD_12_RN_4_RD_24_0.png"],["C_Dist_500_LN_1_LD_4_RN_12_RD_16_1.png","C_Dist_500_LN_1_LD_4_RN_9_RD_12_1.png","C_Dist_500_LN_1_LD_9_RN_11_RD_18_1.png","C_Dist_500_LN_10_LD_24_RN_22_RD_24_1.png","C_Dist_500_LN_2_LD_12_RN_10_RD_15_1.png","C_Dist_500_LN_2_LD_12_RN_12_RD_18_1.png","C_Dist_500_LN_2_LD_12_RN_4_RD_6_1.png","C_Dist_500_LN_2_LD_24_RN_7_RD_12_1.png","C_Dist_500_LN_2_LD_5_RN_18_RD_20_1.png","C_Dist_500_LN_2_LD_5_RN_9_RD_10_1.png","C_Dist_500_LN_2_LD_8_RN_12_RD_16_1.png","C_Dist_500_LN_2_LD_8_RN_21_RD_28_1.png","C_Dist_500_LN_3_LD_10_RN_4_RD_5_1.png","C_Dist_500_LN_3_LD_12_RN_15_RD_20_1.png","C_Dist_500_LN_3_LD_30_RN_6_RD_10_1.png","C_Dist_500_LN_3_LD_8_RN_14_RD_16_1.png","C_Dist_500_LN_4_LD_16_RN_15_RD_20_1.png","C_Dist_500_LN_4_LD_24_RN_12_RD_18_1.png","C_Dist_500_LN_5_LD_14_RN_6_RD_7_1.png","C_Dist_500_LN_7_LD_21_RN_20_RD_24_1.png","C_Dist_500_LN_7_LD_28_RN_12_RD_16_1.png","C_Dist_500_LN_7_LD_28_RN_9_RD_12_1.png","C_Dist_500_LN_9_LD_27_RN_20_RD_24_1.png"]],"dist500_I":[["I_Dist_500_LN_2_LD_3_RN_4_RD_24_0.png","I_Dist_500_LN_5_LD_6_RN_6_RD_18_0.png","I_Dist_500_LN_7_LD_8_RN_9_RD_24_0.png"],["I_Dist_500_LN_7_LD_21_RN_5_RD_6_1.png"]],"dist500_S":[["E_Dist_500_LN_6_LD_8_RN_6_RD_24_0.png"],["E_Dist_500_LN_2_LD_12_RN_2_RD_3_1.png","E_Dist_500_LN_6_LD_24_RN_6_RD_8_1.png"]]}},{"start_time":1551800564242,"click_time":1551800565710,"finger_time":1551800565210,"fix_duration":250,"trial":1,"RT":968,"MT":500,"sideResp":2,"stimulus":[],"xmouse":[773,773,773,773,773,773,773,773,773,773,773,773,773,773,773,773,773,773,773,773,773,773,773,773,773,773,773,773,773,773,773,773,773,773,773,773,773,773,773,773,773,773,773,777,788,818,831,841,846,851,859,884,905,928,948,966,992,999,1002,1004,1006,1010,1017,1027,1035,1042,1043,1043,1044,1045,1047,1066,1089,1123],"ymouse":[553,553,553,553,553,553,553,553,553,553,553,553,553,553,553,553,553,553,553,553,553,553,553,553,553,553,553,553,553,553,553,553,553,553,553,553,553,553,553,553,553,553,553,548,540,519,510,502,497,491,477,427,392,355,325,295,252,239,230,226,222,210,196,181,166,150,148,147,146,145,142,121,104,84],"timestamp_mouse":[8,37,47,67,87,108,127,147,167,187,208,227,247,268,286,307,327,347,367,387,407,428,446,467,487,506,527,547,568,588,606,626,647,668,688,708,727,748,768,787,806,827,847,867,888,908,927,947,968,987,1007,1027,1046,1067,1087,1108,1127,1147,1167,1188,1208,1227,1247,1266,1286,1308,1326,1346,1367,1387,1408,1427,1447,1467],"xSR":741.5,"ySR":501.8,"xT1":424.9,"yT1":0,"xT2":1058.1,"yT2":0,"toosoon":0,"cond_shown":"Incongruent","ratio_trial":200,"L_num":7,"L_den":10,"R_num":14,"R_den":28,"correct_side":1,"subjID":"angelbustos37","gender":"0","school":"6","age":"11"},{"start_time":1551800567741,"click_time":1551800569689,"finger_time":1551800568889,"fix_duration":668.6613579782222,"trial":2,"RT":1148,"MT":800,"sideResp":2,"stimulus":[],"xmouse":[799,799,799,799,799,799,799,799,799,799,799,799,799,799,799,799,799,799,799,799,799,799,799,799,799,799,799,799,799,799,799,799,799,799,799,799,799,799,799,799,799,799,799,799,799,799,799,801,808,813,818,818,819,820,821,824,837,847,861,879,896,918,922,927,933,940,959,966,973,978,991,995,1000,1005,1014,1023,1032,1033,1033,1033,1035,1042,1044,1045,1048,1056,1058,1060,1064,1070,1073,1073,1073,1074,1075,1076,1082,1084],"ymouse":[567,567,567,567,567,567,567,567,567,567,567,567,567,567,567,567,567,567,567,567,567,567,567,567,567,567,567,567,567,567,567,567,567,567,567,567,567,567,567,567,567,567,567,567,567,567,563,559,556,553,551,551,549,548,546,543,521,503,479,447,419,377,366,357,346,336,306,291,276,263,240,231,224,214,201,183,167,167,167,167,164,157,156,155,151,141,139,135,128,120,116,116,116,114,113,110,101,97],"timestamp_mouse":[8,38,49,68,87,109,128,149,167,188,207,229,247,269,288,308,329,347,368,387,408,429,448,467,489,509,529,548,567,588,608,629,648,669,688,709,728,747,769,788,809,827,848,869,887,909,928,948,968,988,1011,1028,1049,1068,1089,1108,1129,1148,1168,1187,1208,1228,1249,1269,1288,1308,1328,1347,1368,1388,1409,1427,1448,1468,1488,1507,1527,1548,1568,1589,1608,1628,1648,1669,1689,1710,1727,1748,1769,1787,1809,1827,1848,1868,1889,1908,1928,1948],"xSR":741.5,"ySR":501.8,"xT1":424.9,"yT1":0,"xT2":1058.1,"yT2":0,"toosoon":0,"cond_shown":"Congruent","ratio_trial":200,"L_num":3,"L_den":10,"R_num":7,"R_den":14,"correct_side":2,"subjID":"angelbustos37","gender":"0","school":"6","age":"11"},{"start_time":1551800573582,"click_time":1551800575309,"finger_time":1551800575070,"fix_duration":250,"trial":3,"RT":1488,"MT":239,"sideResp":2,"stimulus":[],"xmouse":[780,779,779,779,779,779,779,779,779,779,779,779,779,779,779,779,779,779,779,779,779,779,779,779,779,779,779,779,779,779,779,779,779,779,779,779,779,779,779,779,779,779,779,779,779,779,779,779,779,779,779,779,779,779,779,779,779,779,779,779,779,779,779,779,779,779,779,779,779,779,779,779,780,784,806,830,862,900,977,1008,1029,1041,1049,1053,1066,1077,1089],"ymouse":[540,541,541,541,541,541,541,541,541,541,541,541,541,541,541,541,541,541,541,541,541,541,541,541,541,541,541,541,541,541,541,541,541,541,541,541,541,541,541,541,541,541,541,541,541,541,541,541,541,541,541,541,541,541,541,541,541,541,541,541,541,541,541,541,541,541,541,541,541,541,541,541,540,534,498,465,418,361,252,208,180,164,152,144,120,101,81],"timestamp_mouse":[8,30,47,68,88,107,128,147,168,188,207,228,247,268,286,308,327,348,368,387,407,427,448,468,487,508,526,547,567,587,606,628,647,668,688,707,728,747,767,787,807,826,847,867,888,907,927,947,967,987,1007,1027,1047,1067,1087,1108,1126,1148,1168,1188,1208,1228,1247,1267,1288,1307,1328,1346,1367,1388,1408,1428,1448,1467,1488,1507,1526,1547,1568,1587,1607,1627,1647,1666,1687,1708,1727],"xSR":741.5,"ySR":501.8,"xT1":424.9,"yT1":0,"xT2":1058.1,"yT2":0,"toosoon":0,"cond_shown":"Congruent","ratio_trial":300,"L_num":5,"L_den":25,"R_num":7,"R_den":14,"correct_side":2,"subjID":"angelbustos37","gender":"0","school":"6","age":"11"},{"start_time":1551800578071,"click_time":1551800579330,"finger_time":1551800578889,"fix_duration":1360.6231764620386,"trial":4,"RT":818,"MT":441,"sideResp":1,"stimulus":[],"xmouse":[790,790,788,788,787,787,787,787,787,787,787,787,787,787,787,787,787,787,787,787,787,787,787,787,787,787,787,787,787,787,787,787,787,787,787,787,787,786,785,775,768,761,756,751,743,740,739,736,735,722,709,689,666,620,602,585,572,563,543,536,531,525,520],"ymouse":[554,554,553,553,553,553,553,553,553,553,553,553,553,553,553,553,553,553,553,553,553,553,553,553,553,553,553,553,553,553,553,553,553,553,553,553,553,552,546,512,492,476,460,447,431,425,421,417,413,387,364,336,305,239,214,189,167,147,104,91,80,72,65],"timestamp_mouse":[31,37,58,79,99,118,138,159,178,197,219,238,258,278,297,319,338,359,379,398,418,438,458,478,499,518,538,558,578,599,618,637,658,678,697,717,739,758,779,798,818,839,857,878,898,918,938,958,977,998,1018,1038,1058,1079,1097,1118,1138,1157,1179,1198,1218,1239,1259],"xSR":741.5,"ySR":501.8,"xT1":424.9,"yT1":0,"xT2":1058.1,"yT2":0,"toosoon":0,"cond_shown":"Congruent","ratio_trial":300,"L_num":24,"L_den":30,"R_num":8,"R_den":16,"correct_side":1,"subjID":"angelbustos37","gender":"0","school":"6","age":"11"},{"start_time":1551800581074,"click_time":1551800582450,"finger_time":1551800581729,"fix_duration":502.9915574153622,"trial":5,"RT":655,"MT":721,"sideResp":2,"stimulus":[],"xmouse":[762,762,762,762,762,762,762,762,762,762,762,762,762,762,762,762,762,762,762,762,762,762,762,762,762,762,762,762,762,764,783,802,824,880,904,924,941,955,964,982,989,996,1006,1014,1033,1041,1050,1059,1075,1080,1084,1089,1091,1092,1094,1094,1094,1095,1100,1110,1110,1110,1110,1110,1110,1110,1110,1110,1107],"ymouse":[550,550,550,550,550,550,550,550,550,550,550,550,550,550,550,550,550,550,550,550,550,550,550,550,550,550,550,550,550,546,523,504,484,424,406,393,384,376,369,349,335,321,303,286,252,237,226,212,183,171,165,157,152,150,146,145,141,135,124,105,105,105,105,105,105,105,105,104,95],"timestamp_mouse":[15,39,55,76,96,115,135,156,175,194,215,235,256,275,294,315,335,356,374,396,415,436,455,475,496,515,535,555,576,596,615,634,655,676,695,715,735,755,775,796,815,836,855,875,895,915,935,955,977,994,1016,1035,1055,1075,1094,1115,1135,1155,1176,1196,1216,1236,1254,1276,1295,1315,1335,1355,1376],"xSR":741.5,"ySR":501.8,"xT1":424.9,"yT1":0,"xT2":1058.1,"yT2":0,"toosoon":0,"cond_shown":"Congruent","ratio_trial":100,"L_num":6,"L_den":12,"R_num":15,"R_den":25,"correct_side":2,"subjID":"angelbustos37","gender":"0","school":"6","age":"11"},{"start_time":1551800584895,"click_time":1551800586609,"finger_time":1551800585650,"fix_duration":1324.5115353840927,"trial":6,"RT":755,"MT":959,"sideResp":2,"stimulus":[],"xmouse":[811,811,811,811,811,811,811,811,811,811,811,811,811,811,811,811,811,811,811,811,811,811,811,811,811,811,811,811,811,811,811,811,811,811,811,814,821,847,856,866,872,877,884,888,893,900,906,913,923,928,933,940,952,959,966,971,982,1000,1005,1007,1008,1011,1021,1028,1036,1040,1041,1042,1047,1050,1054,1056,1059,1061,1062,1063,1063,1064,1065,1066,1067,1067,1067,1067,1068,1069],"ymouse":[538,538,538,538,538,538,538,538,538,538,538,538,538,538,538,538,538,538,538,538,538,538,538,538,538,538,538,538,538,538,538,538,538,538,534,528,515,470,453,439,430,423,409,397,385,374,362,350,329,321,313,303,284,273,262,252,239,222,218,216,212,204,181,170,162,157,156,154,144,140,135,131,124,120,118,117,115,113,106,104,103,103,102,102,100,97],"timestamp_mouse":[15,35,54,74,95,114,133,154,175,194,214,234,253,274,295,315,334,354,374,394,414,435,455,474,493,514,534,553,575,595,615,634,655,675,694,714,734,755,774,794,815,833,855,874,895,915,934,953,974,995,1014,1034,1055,1073,1095,1114,1134,1155,1174,1194,1214,1233,1255,1274,1294,1313,1335,1353,1373,1394,1414,1435,1455,1474,1494,1514,1534,1554,1574,1594,1614,1635,1655,1673,1694,1714],"xSR":741.5,"ySR":501.8,"xT1":424.9,"yT1":0,"xT2":1058.1,"yT2":0,"toosoon":0,"cond_shown":"Incongruent","ratio_trial":100,"L_num":3,"L_den":5,"R_num":11,"R_den":22,"correct_side":1,"subjID":"angelbustos37","gender":"0","school":"6","age":"11"},{"start_time":1551800588273,"click_time":1551800590369,"finger_time":1551800589929,"fix_duration":281.940316635952,"trial":7,"RT":1656,"MT":440,"sideResp":1,"stimulus":[],"xmouse":[813,813,813,813,813,813,813,813,813,813,813,813,813,813,813,813,813,813,813,813,813,813,813,813,813,813,813,813,813,813,813,813,813,813,813,813,813,813,813,813,813,813,813,813,813,813,813,813,813,813,813,813,813,813,813,813,813,813,813,813,813,813,813,813,813,813,813,813,813,813,813,813,813,813,813,813,813,813,812,808,800,790,779,752,738,720,698,672,641,626,617,607,596,572,563,559,557,556,556,556,556,555,552,524,506],"ymouse":[570,570,570,570,570,570,570,570,570,570,570,570,570,570,570,570,570,570,570,570,570,570,570,570,570,570,570,570,570,570,570,570,570,570,570,570,570,570,570,570,570,570,570,570,570,570,570,570,570,570,570,570,570,570,570,570,570,570,570,570,570,570,570,570,570,570,570,570,570,570,570,570,570,570,570,570,570,570,570,562,545,520,494,428,399,367,339,309,267,237,216,193,170,129,114,106,103,102,102,102,102,101,101,100,97],"timestamp_mouse":[17,39,56,76,97,116,136,157,177,195,216,235,257,277,297,316,336,355,377,397,416,437,456,477,497,516,537,556,576,597,616,636,656,677,695,715,737,756,777,796,817,836,856,876,897,917,936,957,977,996,1017,1037,1056,1076,1097,1115,1137,1157,1175,1197,1216,1236,1257,1276,1297,1317,1335,1356,1377,1397,1417,1436,1456,1475,1496,1515,1537,1557,1576,1596,1616,1636,1656,1677,1696,1716,1736,1755,1777,1796,1816,1836,1857,1878,1895,1916,1937,1956,1977,1996,2016,2037,2057,2077,2096],"xSR":741.5,"ySR":501.8,"xT1":424.9,"yT1":0,"xT2":1058.1,"yT2":0,"toosoon":0,"cond_shown":"Congruent","ratio_trial":300,"L_num":4,"L_den":10,"R_num":1,"R_den":10,"correct_side":1,"subjID":"angelbustos37","gender":"0","school":"6","age":"11"},{"start_time":1551800592845,"click_time":1551800594210,"finger_time":1551800593650,"fix_duration":1375.3000297437206,"trial":8,"RT":805,"MT":560,"sideResp":1,"stimulus":[],"xmouse":[803,803,803,803,803,803,803,803,803,803,803,803,803,803,803,803,803,803,803,803,803,803,803,803,803,803,803,803,803,803,803,803,803,803,803,803,803,801,796,786,762,755,753,751,749,747,742,738,734,729,710,705,701,698,695,688,682,677,669,662,631,614,600,585,573,557,545,528,508],"ymouse":[545,545,545,545,545,545,545,545,545,545,545,545,545,545,545,545,545,545,545,545,545,545,545,545,545,545,545,545,545,545,545,545,545,545,545,545,545,546,540,520,467,454,447,444,441,437,429,422,416,406,379,373,367,364,359,343,332,319,303,286,225,196,175,155,138,116,107,98,89],"timestamp_mouse":[10,35,44,64,84,104,123,144,163,185,204,224,243,264,284,305,324,345,365,384,404,424,444,465,484,505,523,543,565,584,604,625,644,665,685,704,724,744,764,784,805,823,844,864,884,904,924,944,965,984,1007,1024,1043,1065,1085,1106,1124,1145,1164,1184,1206,1224,1244,1264,1284,1305,1324,1343,1365],"xSR":741.5,"ySR":501.8,"xT1":424.9,"yT1":0,"xT2":1058.1,"yT2":0,"toosoon":0,"cond_shown":"Incongruent","ratio_trial":200,"L_num":11,"L_den":20,"R_num":3,"R_den":4,"correct_side":2,"subjID":"angelbustos37","gender":"0","school":"6","age":"11"},{"start_time":1551800596190,"click_time":1551800598070,"finger_time":1551800597650,"fix_duration":538.7194464069694,"trial":9,"RT":1460,"MT":420,"sideResp":2,"stimulus":[],"xmouse":[761,761,761,763,765,766,767,767,767,767,768,768,768,768,768,768,768,768,768,768,768,768,768,768,768,768,768,768,768,768,768,768,768,768,768,768,768,768,768,768,768,768,768,768,768,768,768,768,768,768,768,768,768,768,768,768,768,768,768,768,768,768,768,768,768,768,768,768,768,769,774,782,794,846,910,955,991,1025,1045,1074,1083,1090,1099,1125,1134,1138,1141,1142,1142,1142,1142,1142,1142,1142,1135],"ymouse":[548,548,548,547,544,544,543,542,542,542,541,541,541,541,541,541,541,541,541,541,541,541,541,541,541,541,541,541,541,541,541,541,541,541,541,541,541,541,541,541,541,541,541,541,541,541,541,541,541,541,541,541,541,541,541,541,541,541,541,541,541,541,541,541,541,541,541,541,541,541,534,522,506,445,387,352,324,299,283,258,247,232,213,162,142,127,114,109,107,107,107,107,106,106,97],"timestamp_mouse":[1,19,39,60,79,99,120,138,160,180,198,219,240,259,278,299,320,340,358,380,399,419,440,460,480,499,520,540,558,579,599,618,639,660,680,698,720,739,760,780,799,819,839,858,880,899,919,939,959,978,1000,1019,1038,1060,1080,1099,1119,1140,1159,1180,1198,1219,1240,1259,1279,1300,1319,1339,1359,1379,1399,1419,1439,1460,1478,1499,1520,1539,1560,1579,1599,1620,1640,1660,1679,1699,1720,1739,1759,1779,1799,1819,1839,1860,1880],"xSR":741.5,"ySR":501.8,"xT1":424.9,"yT1":0,"xT2":1058.1,"yT2":0,"toosoon":0,"cond_shown":"Congruent","ratio_trial":100,"L_num":6,"L_den":20,"R_num":5,"R_den":25,"correct_side":1,"subjID":"angelbustos37","gender":"0","school":"6","age":"11"},{"start_time":1551800600566,"click_time":1551800602469,"finger_time":1551800601950,"fix_duration":376.54512074307564,"trial":10,"RT":1384,"MT":519,"sideResp":1,"stimulus":[],"xmouse":[810,810,810,808,806,805,805,805,805,805,805,805,805,805,805,805,805,805,805,805,805,805,805,805,805,805,805,805,805,805,804,804,804,804,804,804,804,804,804,804,804,804,804,804,804,804,804,804,804,804,804,804,804,804,804,804,804,804,804,804,804,804,804,804,804,804,804,799,790,769,694,653,629,614,601,576,568,563,558,548,544,538,532,523,507,506,505,505,505,505,505,503,502,501,496,492],"ymouse":[548,547,547,545,544,542,542,542,542,542,542,542,542,542,542,542,542,542,542,542,542,542,542,542,542,542,542,542,542,542,541,541,541,541,541,541,541,541,541,541,541,541,541,541,541,541,541,541,541,541,541,541,541,541,541,541,541,541,541,541,541,541,541,541,541,541,540,529,512,476,348,284,250,229,211,184,177,172,167,154,148,140,135,129,122,121,120,120,120,120,119,117,114,112,101,94],"timestamp_mouse":[18,33,43,63,83,103,123,143,164,183,204,223,243,263,283,304,324,343,363,382,403,423,444,464,484,504,523,543,564,583,603,623,643,664,684,703,723,744,763,784,804,823,843,863,883,903,923,943,963,983,1002,1022,1043,1062,1082,1103,1122,1142,1163,1183,1204,1223,1243,1264,1283,1303,1323,1342,1364,1384,1403,1424,1444,1464,1483,1504,1522,1543,1563,1584,1603,1623,1643,1663,1684,1703,1723,1743,1763,1784,1803,1822,1843,1864,1885,1903],"xSR":741.5,"ySR":501.8,"xT1":424.9,"yT1":0,"xT2":1058.1,"yT2":0,"toosoon":0,"cond_shown":"Incongruent","ratio_trial":100,"L_num":9,"L_den":18,"R_num":6,"R_den":10,"correct_side":2,"subjID":"angelbustos37","gender":"0","school":"6","age":"11"},{"start_time":1551800606676,"click_time":1551800609169,"finger_time":1551800608089,"fix_duration":326.9670320439329,"trial":11,"RT":1413,"MT":1080,"sideResp":2,"stimulus":[],"xmouse":[794,794,794,794,794,794,794,794,794,794,794,794,794,794,794,794,794,794,794,794,794,794,794,794,794,794,794,794,794,794,794,794,794,794,794,794,794,794,794,794,794,794,794,794,794,794,794,794,794,794,794,794,794,794,794,794,794,794,796,796,796,796,796,796,796,796,797,798,799,806,813,821,829,850,864,877,893,905,920,920,921,924,929,942,947,950,953,957,961,979,982,987,989,995,997,998,999,1000,1000,1001,1003,1004,1007,1014,1018,1023,1027,1031,1036,1036,1036,1037,1039,1043,1055,1062,1069,1073,1081,1086,1088,1091,1093,1094,1095],"ymouse":[521,521,521,521,521,521,521,521,521,521,521,521,521,521,521,521,521,521,521,521,521,521,521,521,521,521,521,521,521,521,521,521,521,521,521,521,521,521,521,521,521,521,521,521,521,521,521,521,521,521,521,521,521,521,521,521,521,521,521,521,521,521,521,521,521,521,521,520,519,510,496,483,467,426,400,378,356,340,321,320,318,313,303,282,273,265,259,248,242,220,214,207,200,190,188,186,184,183,183,182,179,177,173,166,162,156,153,150,147,146,146,146,144,142,133,129,125,121,115,110,107,104,102,100,98],"timestamp_mouse":[12,35,53,73,93,113,134,154,174,193,213,232,253,273,293,313,333,353,372,393,412,434,453,474,493,513,533,552,573,594,613,633,653,672,693,713,732,753,773,792,813,832,852,874,893,913,933,953,974,993,1014,1033,1053,1074,1094,1113,1134,1154,1174,1194,1213,1233,1254,1274,1292,1313,1334,1353,1373,1393,1413,1433,1454,1474,1493,1514,1533,1554,1575,1593,1612,1633,1652,1675,1692,1713,1734,1753,1773,1792,1813,1833,1854,1875,1893,1912,1933,1953,1973,1994,2019,2034,2053,2074,2093,2113,2133,2152,2174,2192,2213,2234,2253,2274,2292,2313,2333,2353,2374,2393,2413,2433,2452,2473,2493],"xSR":741.5,"ySR":501.8,"xT1":424.9,"yT1":0,"xT2":1058.1,"yT2":0,"toosoon":0,"cond_shown":"Congruent","ratio_trial":300,"L_num":7,"L_den":14,"R_num":20,"R_den":25,"correct_side":2,"subjID":"angelbustos37","gender":"0","school":"6","age":"11"},{"start_time":1551800611273,"click_time":1551800613190,"finger_time":1551800611869,"fix_duration":641.1459633749201,"trial":12,"RT":596,"MT":1321,"sideResp":1,"stimulus":[],"xmouse":[756,756,756,756,756,756,756,756,756,756,756,756,756,756,756,756,756,756,756,756,756,756,756,756,756,756,756,763,768,808,822,833,839,840,840,840,840,840,840,840,840,840,840,840,840,840,840,840,839,826,815,804,794,789,786,786,786,786,786,786,786,786,786,786,786,786,786,785,763,739,718,700,685,649,631,613,602,595,585,581,577,571,568,566,564,563,560,557,553,540,532,527,525,524,522,519],"ymouse":[543,543,543,543,543,543,543,543,543,543,543,543,543,543,543,543,543,543,543,543,543,543,543,543,543,543,543,537,531,494,484,474,469,468,468,468,468,468,468,468,468,468,468,468,468,468,468,468,469,485,497,511,522,529,533,533,533,533,533,533,533,533,533,533,533,533,533,532,483,441,406,374,348,293,266,241,225,210,183,171,163,155,151,149,145,142,138,133,127,117,112,108,106,104,100,97],"timestamp_mouse":[17,41,57,76,96,117,135,156,175,197,215,237,255,275,296,316,336,356,377,397,416,437,456,476,496,517,535,556,576,596,616,637,657,676,696,716,737,756,777,796,816,836,856,876,897,917,937,956,976,996,1017,1036,1057,1076,1097,1117,1136,1156,1176,1196,1216,1236,1256,1276,1296,1316,1336,1357,1377,1396,1416,1437,1455,1478,1496,1516,1537,1556,1578,1595,1616,1637,1656,1676,1696,1716,1736,1756,1776,1796,1816,1836,1857,1876,1896,1917],"xSR":741.5,"ySR":501.8,"xT1":424.9,"yT1":0,"xT2":1058.1,"yT2":0,"toosoon":0,"cond_shown":"Incongruent","ratio_trial":300,"L_num":2,"L_den":4,"R_num":6,"R_den":30,"correct_side":1,"subjID":"angelbustos37","gender":"0","school":"6","age":"11"},{"start_time":1551800615420,"click_time":1551800618430,"finger_time":1551800617189,"fix_duration":250,"trial":13,"RT":1769,"MT":1241,"sideResp":1,"stimulus":[],"xmouse":[772,772,772,772,772,772,772,772,772,772,772,772,772,772,772,772,772,772,772,772,772,772,772,772,772,772,772,772,772,772,772,772,772,772,772,772,772,772,772,772,772,772,772,772,772,772,772,772,772,772,772,772,772,772,772,772,772,772,772,772,772,772,772,772,772,772,772,772,772,772,772,772,772,772,772,773,773,773,773,773,773,773,773,773,773,773,771,770,769,768,767,765,762,759,758,756,754,752,751,749,748,746,743,741,738,733,729,721,718,715,713,706,695,692,689,684,676,674,672,669,669,665,662,660,658,656,654,653,651,648,646,640,631,619,605,595,581,577,572,566,557,551,539,535,530,522,510,490,486,482,478],"ymouse":[540,540,540,540,540,540,540,540,540,540,540,540,540,540,540,540,540,540,540,540,540,540,540,540,540,540,540,540,540,540,540,540,540,540,540,540,540,540,540,540,540,540,540,540,540,540,540,540,540,540,540,540,540,540,540,540,540,540,540,540,540,540,540,540,540,540,540,540,540,540,540,540,540,540,540,539,538,535,533,532,530,529,529,528,525,519,509,502,493,486,479,468,455,447,439,431,422,418,414,408,406,397,386,381,373,364,355,342,337,332,327,314,295,286,279,267,250,244,239,235,232,225,218,214,210,207,202,198,194,191,188,180,169,160,152,146,138,136,134,132,128,127,121,118,116,114,111,105,104,102,98],"timestamp_mouse":[9,29,50,70,88,109,129,150,169,190,210,229,248,269,288,308,329,349,369,390,409,430,448,468,490,508,529,549,569,590,609,630,650,670,690,710,730,748,769,789,810,830,850,869,889,910,929,950,968,989,1008,1030,1049,1069,1090,1109,1129,1149,1169,1190,1208,1229,1250,1269,1290,1310,1330,1350,1369,1390,1409,1430,1450,1468,1490,1509,1529,1549,1568,1589,1610,1628,1650,1669,1689,1709,1730,1749,1769,1788,1810,1829,1849,1869,1890,1909,1930,1948,1969,1989,2008,2030,2049,2069,2088,2110,2130,2149,2169,2190,2209,2228,2248,2269,2289,2310,2330,2349,2369,2389,2409,2430,2448,2469,2489,2509,2530,2549,2568,2590,2609,2630,2649,2669,2689,2709,2731,2748,2769,2790,2809,2830,2848,2869,2889,2909,2928,2949,2969,2990,3010],"xSR":741.5,"ySR":501.8,"xT1":424.9,"yT1":0,"xT2":1058.1,"yT2":0,"toosoon":0,"cond_shown":"Incongruent","ratio_trial":100,"L_num":8,"L_den":20,"R_num":1,"R_den":2,"correct_side":2,"subjID":"angelbustos37","gender":"0","school":"6","age":"11"},{"start_time":1551800621585,"click_time":1551800623509,"finger_time":1551800623029,"fix_duration":534.9637710875976,"trial":14,"RT":1444,"MT":480,"sideResp":1,"stimulus":[],"xmouse":[749,749,749,749,749,749,749,749,749,749,749,749,749,749,749,749,749,749,749,749,749,749,749,749,749,749,749,749,749,749,749,749,749,749,749,749,749,749,749,749,749,749,749,749,749,749,749,749,749,749,749,749,749,749,749,749,749,749,749,749,749,749,749,749,749,749,749,749,749,751,750,746,741,736,734,724,705,686,662,650,635,624,618,606,600,594,589,584,565,554,546,543,540,539,533,529,524],"ymouse":[566,566,566,566,566,566,566,566,566,566,566,566,566,566,566,566,566,566,566,566,566,566,566,566,566,566,566,566,566,566,566,566,566,566,566,566,566,566,566,566,566,566,566,566,566,566,566,566,566,566,566,566,566,566,566,566,566,566,566,566,566,566,566,566,566,566,566,566,566,562,550,534,520,507,491,458,410,367,289,263,234,212,201,177,165,156,149,141,121,112,105,101,98,95,88,83,78],"timestamp_mouse":[14,35,44,65,85,103,124,144,163,183,204,224,244,264,285,304,323,344,363,385,403,424,444,465,485,503,523,544,564,584,605,624,645,664,684,704,725,745,765,783,804,823,845,864,885,905,924,944,965,984,1003,1025,1044,1065,1084,1105,1124,1144,1165,1183,1204,1225,1244,1264,1284,1304,1324,1344,1364,1384,1404,1425,1444,1464,1484,1504,1525,1559,1565,1583,1604,1624,1644,1664,1684,1703,1724,1745,1765,1783,1804,1825,1844,1864,1884,1904,1924],"xSR":741.5,"ySR":501.8,"xT1":424.9,"yT1":0,"xT2":1058.1,"yT2":0,"toosoon":0,"cond_shown":"Congruent","ratio_trial":100,"L_num":6,"L_den":20,"R_num":5,"R_den":25,"correct_side":1,"subjID":"angelbustos37","gender":"0","school":"6","age":"11"},{"start_time":1551800625321,"click_time":1551800627109,"finger_time":1551800626369,"fix_duration":250,"trial":15,"RT":1048,"MT":740,"sideResp":2,"stimulus":[],"xmouse":[818,818,818,818,818,818,818,818,818,818,818,818,818,818,818,818,818,818,818,818,818,818,818,818,818,818,818,818,818,818,818,818,818,818,818,818,818,818,816,814,811,810,810,810,810,810,809,806,806,806,804,802,800,799,799,798,798,798,798,797,797,797,797,797,797,797,797,797,803,812,826,847,916,951,967,977,1051,1091,1117,1131,1138,1140,1140,1140,1140,1138,1133,1133,1131,1130],"ymouse":[525,525,526,526,526,526,526,526,526,526,526,526,526,526,526,526,526,526,526,526,526,526,526,526,526,526,526,526,526,526,526,526,526,526,526,526,526,526,527,527,527,527,527,527,527,527,527,520,516,512,507,504,498,496,494,492,491,491,491,491,491,491,491,491,491,491,491,489,479,469,455,439,386,357,341,320,212,171,145,128,119,116,116,116,114,112,105,103,102,99],"timestamp_mouse":[8,28,48,68,88,107,128,147,167,189,209,229,249,267,287,308,327,348,367,387,409,428,448,469,489,508,529,547,568,587,608,627,649,667,689,707,729,747,768,787,807,829,849,868,889,908,928,948,968,988,1008,1028,1048,1069,1089,1108,1129,1149,1167,1187,1208,1228,1248,1267,1288,1308,1329,1348,1368,1388,1408,1429,1448,1468,1488,1508,1529,1547,1568,1587,1609,1629,1648,1668,1688,1707,1729,1748,1768,1788],"xSR":741.5,"ySR":501.8,"xT1":424.9,"yT1":0,"xT2":1058.1,"yT2":0,"toosoon":0,"cond_shown":"Congruent","ratio_trial":300,"L_num":4,"L_den":20,"R_num":13,"R_den":26,"correct_side":2,"subjID":"angelbustos37","gender":"0","school":"6","age":"11"},{"start_time":1551800629929,"click_time":1551800631070,"finger_time":1551800630628,"fix_duration":1258.6123711699283,"trial":16,"RT":699,"MT":442,"sideResp":2,"stimulus":[],"xmouse":[780,780,780,780,780,780,780,780,780,780,780,780,780,780,780,780,780,780,780,780,780,780,780,780,780,780,780,780,780,780,780,783,788,796,807,820,833,848,862,878,893,918,925,930,935,938,946,950,955,959,966,972,994,1010,1028,1047,1073,1091],"ymouse":[558,558,558,558,558,558,558,558,558,558,558,558,558,558,558,558,558,558,558,558,558,558,558,558,558,558,558,558,558,558,558,555,544,531,515,496,473,446,423,399,379,348,336,327,319,311,296,290,281,275,263,248,213,190,165,138,106,85],"timestamp_mouse":[1,19,39,61,79,101,120,141,160,180,200,221,241,260,280,301,319,341,360,381,400,421,440,460,481,501,519,541,560,580,599,621,640,660,680,699,721,739,760,780,799,821,840,860,881,901,921,939,960,980,1000,1020,1040,1061,1080,1099,1120,1141],"xSR":741.5,"ySR":501.8,"xT1":424.9,"yT1":0,"xT2":1058.1,"yT2":0,"toosoon":0,"cond_shown":"Incongruent","ratio_trial":300,"L_num":4,"L_den":20,"R_num":2,"R_den":4,"correct_side":2,"subjID":"angelbustos37","gender":"0","school":"6","age":"11"},{"start_time":1551800643864,"click_time":1551800645569,"finger_time":1551800644829,"fix_duration":292.2283885703986,"trial":17,"RT":965,"MT":740,"sideResp":2,"stimulus":[],"xmouse":[761,761,761,761,761,761,761,761,761,762,761,761,761,761,761,761,761,761,761,761,761,761,761,761,761,761,761,761,761,761,761,761,761,761,761,761,761,761,761,761,761,761,761,761,761,761,762,763,766,770,773,776,781,791,817,826,831,834,835,838,841,846,856,867,894,918,937,952,961,966,972,974,976,980,985,1005,1014,1022,1029,1041,1074,1082,1086,1089,1092,1094],"ymouse":[567,567,567,567,564,558,551,545,540,533,528,528,528,528,528,528,528,528,528,528,528,528,528,528,528,528,528,528,528,528,528,528,528,528,528,528,528,528,528,528,528,528,528,528,525,518,511,505,494,480,463,448,434,418,388,378,371,367,365,359,354,344,329,313,271,237,211,188,174,165,152,149,146,142,140,134,132,129,128,124,115,112,110,107,100,96],"timestamp_mouse":[10,31,45,64,85,105,125,146,164,185,205,226,244,265,285,305,325,346,365,384,406,425,446,465,484,506,525,546,566,586,606,626,645,666,684,706,726,746,766,786,804,825,846,866,885,905,925,945,965,986,1004,1025,1045,1065,1087,1105,1125,1145,1166,1185,1205,1225,1245,1265,1286,1305,1324,1345,1366,1385,1406,1425,1445,1465,1485,1505,1525,1546,1564,1586,1606,1625,1645,1666,1685,1705],"xSR":741.5,"ySR":501.8,"xT1":424.9,"yT1":0,"xT2":1058.1,"yT2":0,"toosoon":0,"cond_shown":"Congruent","ratio_trial":200,"L_num":5,"L_den":10,"R_num":14,"R_den":20,"correct_side":2,"subjID":"angelbustos37","gender":"0","school":"6","age":"11"},{"start_time":1551800647522,"click_time":1551800649369,"finger_time":1551800648850,"fix_duration":250,"trial":18,"RT":1328,"MT":519,"sideResp":2,"stimulus":[],"xmouse":[806,806,806,806,806,806,806,806,806,806,806,806,806,806,806,806,806,806,806,806,806,806,806,806,806,806,806,806,806,806,806,806,807,807,807,807,807,807,807,807,807,807,807,807,807,807,806,806,806,806,806,805,805,805,804,803,803,803,802,802,802,801,801,801,801,803,817,826,834,841,844,846,853,859,867,874,880,890,892,895,899,907,933,950,965,979,990,1023,1032,1042,1048,1049,1060],"ymouse":[550,550,550,550,550,550,550,550,550,550,550,550,550,550,550,550,550,550,550,550,550,552,552,552,552,552,552,552,552,552,552,552,552,552,552,552,552,552,552,552,552,552,551,551,550,550,549,548,548,548,548,546,544,544,543,542,542,541,540,539,539,537,534,528,521,505,439,411,384,363,347,332,294,273,250,232,219,199,193,187,179,172,152,144,135,127,119,98,91,84,80,79,68],"timestamp_mouse":[8,27,47,68,87,108,126,147,166,188,208,226,247,268,286,306,327,348,366,388,406,426,448,467,488,506,526,548,568,587,608,628,647,666,687,708,728,747,767,787,807,828,847,868,887,908,928,946,966,987,1007,1027,1047,1068,1086,1108,1127,1146,1167,1188,1207,1227,1247,1267,1287,1306,1328,1347,1367,1387,1408,1428,1447,1466,1487,1508,1527,1547,1567,1588,1607,1626,1647,1667,1688,1707,1727,1747,1767,1787,1807,1828,1847],"xSR":741.5,"ySR":501.8,"xT1":424.9,"yT1":0,"xT2":1058.1,"yT2":0,"toosoon":0,"cond_shown":"Incongruent","ratio_trial":300,"L_num":4,"L_den":20,"R_num":2,"R_den":4,"correct_side":2,"subjID":"angelbustos37","gender":"0","school":"6","age":"11"},{"start_time":1551800651458,"click_time":1551800653609,"finger_time":1551800652809,"fix_duration":607.9095775744119,"trial":19,"RT":1351,"MT":800,"sideResp":1,"stimulus":[],"xmouse":[782,782,782,782,782,782,782,782,782,782,782,782,782,782,782,782,782,782,782,782,782,782,782,782,782,782,782,782,782,783,783,783,783,783,783,783,783,783,783,783,783,783,783,783,783,782,782,782,782,781,781,780,780,780,779,778,778,778,778,778,778,778,778,778,778,777,777,777,777,777,775,775,775,773,765,751,731,715,696,673,627,615,606,598,584,582,581,579,578,576,571,568,563,561,557,550,547,545,542,539,536,536,536,535,531,529,526,524],"ymouse":[534,534,534,534,534,534,534,534,534,534,534,534,534,534,534,534,534,534,534,534,534,534,534,534,534,534,534,534,534,534,534,531,529,526,524,523,522,522,522,522,521,520,520,520,519,517,517,516,515,514,513,512,511,510,509,508,507,507,507,506,505,504,503,503,503,502,502,500,500,499,495,495,493,489,464,436,404,384,363,342,304,293,281,271,250,239,231,222,213,203,177,166,155,149,141,127,123,119,114,109,106,106,106,104,100,97,93,91],"timestamp_mouse":[12,40,51,70,90,112,130,151,171,191,211,231,252,272,290,312,331,352,371,391,411,431,452,472,491,512,531,551,572,592,610,631,651,671,690,711,732,751,770,791,812,831,851,871,891,912,930,951,971,991,1011,1030,1052,1071,1091,1110,1131,1151,1172,1192,1210,1231,1251,1271,1291,1311,1331,1351,1371,1390,1411,1431,1451,1471,1492,1511,1531,1552,1571,1591,1611,1631,1651,1672,1692,1710,1732,1751,1771,1791,1812,1831,1851,1871,1891,1911,1931,1952,1970,1992,2011,2031,2050,2071,2092,2111,2131,2151],"xSR":741.5,"ySR":501.8,"xT1":424.9,"yT1":0,"xT2":1058.1,"yT2":0,"toosoon":0,"cond_shown":"Congruent","ratio_trial":100,"L_num":6,"L_den":20,"R_num":5,"R_den":25,"correct_side":1,"subjID":"angelbustos37","gender":"0","school":"6","age":"11"},{"start_time":1551800655794,"click_time":1551800657610,"finger_time":1551800656869,"fix_duration":922.7717315978489,"trial":20,"RT":1075,"MT":741,"sideResp":1,"stimulus":[],"xmouse":[790,790,790,790,790,790,790,790,790,790,790,790,790,790,790,790,790,790,790,790,790,790,790,790,790,790,790,790,790,790,790,790,790,790,790,790,790,790,790,790,790,790,790,790,790,790,790,790,790,790,790,790,790,783,774,762,746,712,695,681,665,651,642,638,637,635,633,628,625,622,617,610,602,580,572,566,561,556,550,547,543,538,531,525,522,521,518,516,511,509,508],"ymouse":[557,557,557,556,556,556,556,556,556,556,556,556,556,556,556,556,556,556,556,556,556,556,556,556,556,556,556,556,556,556,556,556,556,556,556,556,556,556,556,556,556,556,556,556,556,556,556,556,556,556,556,546,536,490,468,444,418,372,353,337,321,309,301,289,286,282,279,270,265,258,249,238,223,194,185,181,177,173,166,161,153,144,136,128,126,121,115,109,102,100,99],"timestamp_mouse":[15,35,55,74,95,116,135,154,175,195,215,236,256,274,295,316,335,356,375,394,415,436,457,475,494,515,535,555,576,594,615,635,656,676,694,715,735,755,775,794,814,835,855,875,894,915,936,956,974,996,1015,1034,1054,1075,1095,1114,1136,1157,1175,1195,1215,1235,1255,1275,1294,1315,1335,1356,1374,1395,1416,1435,1454,1475,1495,1515,1535,1554,1575,1596,1615,1636,1655,1676,1694,1715,1736,1756,1775,1795,1816],"xSR":741.5,"ySR":501.8,"xT1":424.9,"yT1":0,"xT2":1058.1,"yT2":0,"toosoon":0,"cond_shown":"Incongruent","ratio_trial":300,"L_num":1,"L_den":2,"R_num":3,"R_den":15,"correct_side":1,"subjID":"angelbustos37","gender":"0","school":"6","age":"11"},{"start_time":1551800660035,"click_time":1551800661951,"finger_time":1551800661250,"fix_duration":723.935277181747,"trial":21,"RT":1215,"MT":701,"sideResp":2,"stimulus":[],"xmouse":[787,787,787,787,787,787,787,787,787,787,787,787,787,787,787,787,787,787,787,787,787,787,787,787,787,787,787,787,787,787,787,787,787,787,787,787,787,787,787,787,787,787,787,787,787,787,787,787,787,787,787,787,787,787,787,787,787,787,787,790,813,826,843,859,873,880,884,884,886,891,901,931,943,953,959,965,969,972,977,982,984,996,1001,1005,1007,1009,1011,1014,1017,1020,1023,1032,1040,1048,1055,1067],"ymouse":[528,528,528,528,528,528,528,528,528,528,528,528,528,528,528,528,528,528,528,528,528,528,528,528,528,528,528,528,528,528,528,528,528,528,528,528,528,528,528,528,528,528,528,528,528,528,528,528,528,528,528,528,528,528,528,528,528,528,526,519,483,466,448,433,422,414,411,411,408,399,384,340,319,300,287,274,268,260,249,237,232,211,201,193,189,183,179,171,166,160,155,141,132,120,109,93],"timestamp_mouse":[14,34,54,75,94,115,135,154,174,195,214,234,253,273,294,314,333,353,373,394,413,434,454,475,493,515,535,553,575,593,614,635,654,673,695,714,733,754,774,794,815,835,855,875,894,914,934,954,975,993,1014,1035,1054,1074,1095,1114,1135,1154,1174,1194,1215,1234,1254,1274,1294,1314,1334,1355,1375,1394,1414,1434,1454,1473,1494,1515,1533,1554,1574,1594,1614,1634,1654,1674,1694,1715,1734,1754,1773,1795,1815,1834,1853,1874,1895,1915],"xSR":741.5,"ySR":501.8,"xT1":424.9,"yT1":0,"xT2":1058.1,"yT2":0,"toosoon":0,"cond_shown":"Incongruent","ratio_trial":100,"L_num":6,"L_den":10,"R_num":7,"R_den":14,"correct_side":1,"subjID":"angelbustos37","gender":"0","school":"6","age":"11"},{"start_time":1551800666041,"click_time":1551800668129,"finger_time":1551800666870,"fix_duration":250,"trial":22,"RT":829,"MT":1259,"sideResp":1,"stimulus":[],"xmouse":[790,791,791,791,791,791,791,791,791,791,791,791,791,791,791,791,791,791,791,791,791,792,792,792,792,792,792,792,792,792,792,792,792,792,792,792,792,792,790,787,785,777,777,777,777,785,789,792,796,799,799,799,799,799,799,799,799,800,803,811,834,886,917,942,959,970,970,969,966,950,907,833,806,784,771,749,735,721,706,686,680,662,656,649,641,629,629,629,629,629,629,629,629,629,577,575,567,561,555,549,540,536,533,529,524],"ymouse":[572,568,566,565,564,564,564,564,564,564,564,564,564,564,564,564,564,564,564,564,564,562,561,560,560,560,560,560,560,560,560,560,560,560,560,560,556,550,540,525,505,457,445,437,425,404,394,386,379,374,372,372,372,372,372,372,372,371,367,356,331,292,271,253,239,224,222,220,219,218,216,207,200,193,188,180,174,167,160,148,144,116,96,71,45,8,8,8,8,8,8,8,8,8,0,2,14,22,31,38,52,56,58,62,64],"timestamp_mouse":[15,28,53,69,88,108,129,149,169,187,207,227,248,267,288,309,327,349,367,389,408,429,449,468,488,508,527,548,567,589,607,629,647,669,687,708,728,749,769,787,807,829,848,869,889,909,928,948,968,988,1010,1028,1047,1068,1088,1109,1129,1148,1168,1187,1207,1228,1248,1269,1288,1309,1328,1349,1368,1387,1407,1428,1448,1468,1489,1508,1528,1548,1569,1588,1609,1628,1648,1668,1688,1708,1728,1749,1769,1788,1809,1828,1848,1867,1889,1909,1928,1948,1968,1988,2009,2028,2048,2069,2088],"xSR":741.5,"ySR":501.8,"xT1":424.9,"yT1":0,"xT2":1058.1,"yT2":0,"toosoon":0,"cond_shown":"Incongruent","ratio_trial":100,"L_num":6,"L_den":10,"R_num":11,"R_den":22,"correct_side":1,"subjID":"angelbustos37","gender":"0","school":"6","age":"11"},{"start_time":1551800670959,"click_time":1551800672251,"finger_time":1551800671769,"fix_duration":1488.315681132292,"trial":23,"RT":810,"MT":482,"sideResp":1,"stimulus":[],"xmouse":[784,784,784,784,784,784,784,784,784,784,784,784,784,784,784,784,784,784,784,784,784,784,783,783,783,783,782,781,780,779,778,777,777,776,775,773,772,770,768,764,758,755,751,748,744,737,734,729,723,716,699,692,687,680,674,662,656,649,639,612,597,575,552,526,467],"ymouse":[553,553,553,553,553,553,553,553,553,553,553,553,553,553,553,553,553,553,553,553,553,553,553,551,547,543,539,535,532,527,525,524,523,522,520,518,516,513,511,506,497,493,488,484,478,468,463,455,445,433,408,396,387,376,367,338,323,309,288,240,213,180,149,118,43],"timestamp_mouse":[10,30,51,70,89,110,129,150,169,191,209,229,250,270,290,311,330,351,369,390,409,430,450,470,491,510,530,550,569,590,610,630,650,669,690,711,729,750,770,790,810,830,850,869,889,910,930,950,970,989,1009,1030,1049,1070,1090,1110,1130,1150,1171,1190,1209,1231,1251,1270,1291],"xSR":741.5,"ySR":501.8,"xT1":424.9,"yT1":0,"xT2":1058.1,"yT2":0,"toosoon":0,"cond_shown":"Congruent","ratio_trial":300,"L_num":3,"L_den":6,"R_num":2,"R_den":10,"correct_side":1,"subjID":"angelbustos37","gender":"0","school":"6","age":"11"},{"start_time":1551800676460,"click_time":1551800679450,"finger_time":1551800678349,"fix_duration":1469.6132106225753,"trial":24,"RT":1889,"MT":1101,"sideResp":1,"stimulus":[],"xmouse":[775,775,775,775,775,775,775,775,775,775,775,775,775,775,775,775,775,775,775,775,775,775,775,775,775,775,775,775,775,775,775,775,775,775,775,775,775,775,775,775,775,775,775,775,775,775,775,775,775,775,775,775,775,775,775,775,775,775,775,775,775,775,775,775,775,775,775,775,775,775,775,775,775,775,775,775,775,775,775,775,775,775,775,775,775,775,775,775,775,775,775,775,775,775,775,771,769,765,759,750,737,730,723,718,714,711,709,707,704,698,694,690,686,683,678,676,674,671,669,668,665,662,659,653,645,625,610,595,577,541,531,527,526,525,525,525,525,524,522,519,510,506,503,500,498,496,495,495,495,495],"ymouse":[549,549,549,549,549,549,549,549,549,549,549,549,549,549,549,549,549,549,549,549,549,549,549,549,549,549,549,549,549,549,549,549,549,549,549,549,549,549,549,549,549,549,549,549,549,549,549,549,549,549,549,549,549,549,549,549,549,549,549,549,549,549,549,549,549,549,549,549,549,549,549,549,549,549,549,549,549,549,549,549,549,549,549,549,549,549,545,542,536,523,520,516,511,507,499,484,476,464,451,432,406,394,384,374,367,357,352,347,341,325,319,311,304,300,292,289,286,282,280,278,270,266,259,251,241,217,204,194,180,158,152,150,149,149,149,149,148,146,142,137,121,116,112,109,106,102,101,101,101,99],"timestamp_mouse":[8,28,49,69,90,110,129,149,169,190,210,229,249,268,289,309,330,349,369,389,408,429,449,468,490,509,530,548,568,590,609,628,649,669,689,710,729,749,768,789,810,828,849,869,890,908,930,949,970,990,1009,1030,1050,1069,1090,1109,1130,1150,1169,1190,1208,1229,1248,1270,1288,1310,1329,1349,1369,1390,1408,1429,1449,1468,1490,1509,1528,1550,1570,1590,1610,1629,1649,1669,1690,1710,1729,1750,1769,1790,1810,1829,1849,1868,1889,1909,1930,1950,1970,1990,2009,2029,2050,2069,2088,2109,2129,2150,2170,2190,2209,2229,2249,2268,2290,2309,2329,2349,2369,2389,2410,2429,2450,2469,2489,2509,2529,2550,2569,2590,2609,2629,2648,2669,2689,2709,2729,2749,2770,2789,2809,2829,2850,2870,2888,2909,2929,2950,2969,2990],"xSR":741.5,"ySR":501.8,"xT1":424.9,"yT1":0,"xT2":1058.1,"yT2":0,"toosoon":0,"cond_shown":"Congruent","ratio_trial":100,"L_num":12,"L_den":30,"R_num":13,"R_den":26,"correct_side":2,"subjID":"angelbustos37","gender":"0","school":"6","age":"11"},{"start_time":1551800685852,"click_time":1551800687550,"finger_time":1551800686869,"fix_duration":381.1273489093602,"trial":25,"RT":1017,"MT":681,"sideResp":1,"stimulus":[],"xmouse":[758,758,758,758,758,758,758,758,758,758,758,758,758,758,758,758,758,758,758,758,758,758,758,758,758,758,758,758,758,758,758,758,758,758,758,758,758,758,758,758,758,758,758,758,758,758,755,754,753,750,729,721,708,690,668,619,594,568,539,455,423,396,369,348,323,316,314,312,312,312,312,312,312,312,312,379,385,392,400,409,412,412,414,419,438],"ymouse":[547,547,547,547,547,547,547,547,547,547,547,547,547,547,547,547,547,547,547,547,547,547,547,547,547,547,547,547,547,547,547,547,547,547,547,547,547,547,547,547,547,547,547,547,547,547,545,544,542,538,514,502,482,457,422,337,292,249,208,115,89,69,49,34,15,10,7,5,3,0,0,0,0,0,0,1,4,9,13,18,20,20,22,28,45],"timestamp_mouse":[29,38,57,77,97,117,137,158,176,197,217,237,257,276,298,317,337,357,378,398,418,438,457,478,498,517,537,557,577,596,618,637,658,676,697,718,737,757,776,798,817,838,857,878,897,917,937,957,976,997,1017,1037,1057,1078,1097,1118,1137,1158,1178,1198,1217,1237,1258,1277,1298,1317,1336,1357,1377,1398,1416,1437,1457,1478,1498,1517,1537,1557,1578,1598,1616,1637,1658,1678,1698],"xSR":741.5,"ySR":501.8,"xT1":424.9,"yT1":0,"xT2":1058.1,"yT2":0,"toosoon":0,"cond_shown":"Incongruent","ratio_trial":200,"L_num":7,"L_den":10,"R_num":14,"R_den":28,"correct_side":1,"subjID":"angelbustos37","gender":"0","school":"6","age":"11"},{"start_time":1551800690047,"click_time":1551800691789,"finger_time":1551800690929,"fix_duration":1376.8904702690052,"trial":26,"RT":882,"MT":860,"sideResp":1,"stimulus":[],"xmouse":[802,802,802,802,802,802,802,802,802,802,802,802,802,802,802,802,802,802,802,802,802,802,802,802,802,802,802,802,802,802,802,802,802,802,802,802,802,802,803,805,805,805,801,794,784,760,752,746,744,743,737,736,736,734,734,730,725,720,713,704,693,651,630,617,611,609,602,597,593,586,583,574,572,571,570,568,567,566,565,562,559,549,545,539,533,528,521,519],"ymouse":[548,548,548,548,548,548,548,548,548,548,548,548,548,548,548,548,548,548,548,548,548,548,548,548,548,548,548,548,548,548,548,548,548,548,548,548,548,548,548,548,545,535,520,505,486,454,444,437,436,435,430,430,429,427,426,418,412,401,390,377,365,318,296,279,265,257,237,227,218,204,199,183,179,176,175,173,171,170,168,164,160,142,136,127,120,113,102,99],"timestamp_mouse":[8,22,41,62,82,103,123,143,161,182,203,223,243,261,283,302,321,342,363,383,402,422,443,463,482,502,521,542,562,583,602,623,642,663,683,703,721,742,763,783,802,822,842,861,882,903,922,942,962,982,1004,1022,1042,1062,1083,1102,1122,1142,1162,1181,1203,1221,1242,1262,1282,1302,1322,1341,1363,1382,1403,1422,1442,1462,1483,1502,1522,1542,1561,1582,1602,1621,1642,1663,1683,1703,1722,1742],"xSR":741.5,"ySR":501.8,"xT1":424.9,"yT1":0,"xT2":1058.1,"yT2":0,"toosoon":0,"cond_shown":"Congruent","ratio_trial":200,"L_num":7,"L_den":15,"R_num":18,"R_den":27,"correct_side":2,"subjID":"angelbustos37","gender":"0","school":"6","age":"11"},{"start_time":1551800696173,"click_time":1551800701189,"finger_time":1551800698569,"fix_duration":263.5038720289311,"trial":27,"RT":2396,"MT":2620,"sideResp":2,"stimulus":[],"xmouse":[788,788,788,788,788,788,788,788,788,788,788,788,788,788,788,788,788,788,788,788,788,788,788,788,788,788,788,788,788,788,788,788,788,788,788,788,788,788,788,788,788,788,788,788,788,788,788,788,788,788,788,788,788,788,788,788,788,788,788,788,788,789,789,789,789,789,789,789,789,789,789,789,789,789,789,789,789,789,789,789,789,789,790,790,790,790,790,790,791,791,791,791,790,790,788,788,788,788,788,788,788,788,788,788,788,788,788,788,788,788,793,796,805,826,827,827,827,828,836,846,853,857,859,860,860,860,860,860,860,860,859,855,848,833,827,825,825,825,825,825,825,825,824,820,798,784,772,765,760,760,760,760,760,760,760,760,760,760,760,760,760,760,760,760,760,760,760,760,760,760,760,760,760,760,760,760,760,760,760,760,760,760,760,760,760,760,760,760,760,760,760,760,760,760,760,760,760,760,760,760,760,760,760,760,760,760,760,760,760,760,760,760,760,760,760,760,760,760,760,763,772,783,795,835,846,859,872,887,923,940,959,979,1017,1072,1095,1115,1131,1146,1159,1174,1178,1180,1180,1180,1170,1168,1168,1168,1168,1168,1142],"ymouse":[596,596,596,596,596,596,596,598,598,598,598,598,598,598,598,598,598,598,598,598,598,598,598,598,598,598,598,598,598,598,598,598,598,598,598,598,598,598,598,598,598,598,598,598,598,598,598,598,598,598,598,598,598,598,598,598,598,598,598,598,598,599,599,596,595,593,592,592,591,590,589,589,589,589,588,587,586,585,583,583,583,583,582,581,578,575,571,568,565,563,563,562,561,561,560,560,560,560,560,560,560,560,560,560,560,560,560,560,560,560,562,563,564,570,570,570,570,570,570,570,570,570,570,570,570,570,570,570,570,570,570,569,569,564,562,562,562,562,562,562,562,562,562,562,558,555,551,550,548,548,548,548,548,548,548,548,548,548,548,548,548,548,548,548,548,548,548,548,548,548,548,548,548,548,548,548,548,548,548,548,548,548,548,548,548,548,548,548,548,548,548,548,548,548,548,548,548,548,548,548,548,548,548,548,548,548,548,548,548,548,548,548,548,548,548,548,548,548,547,540,529,517,504,457,442,425,407,388,345,327,309,292,265,225,208,190,174,154,135,99,80,62,46,30,2,0,0,0,0,0,3],"timestamp_mouse":[15,40,57,76,96,117,137,157,177,197,216,237,257,275,297,316,335,356,377,397,416,435,457,476,495,516,537,556,577,595,616,636,657,675,697,716,736,757,776,797,815,837,857,876,896,915,936,957,977,997,1017,1035,1056,1076,1096,1116,1136,1155,1176,1195,1216,1236,1256,1277,1296,1316,1336,1356,1377,1397,1416,1436,1457,1476,1496,1516,1537,1556,1577,1596,1616,1636,1655,1676,1697,1716,1736,1757,1776,1797,1816,1837,1857,1876,1897,1917,1935,1956,1977,1997,2016,2036,2056,2075,2097,2116,2136,2156,2177,2197,2217,2236,2256,2277,2295,2317,2337,2356,2376,2396,2416,2436,2456,2476,2497,2516,2537,2556,2577,2595,2616,2637,2656,2677,2697,2715,2737,2756,2777,2795,2817,2837,2857,2876,2896,2916,2937,2956,2976,2997,3016,3037,3056,3076,3095,3117,3136,3156,3176,3197,3217,3237,3257,3276,3297,3317,3336,3356,3375,3397,3417,3436,3457,3476,3497,3515,3537,3556,3575,3597,3616,3636,3657,3676,3697,3716,3736,3755,3776,3796,3817,3837,3856,3877,3896,3916,3936,3956,3975,3996,4015,4037,4056,4076,4097,4117,4136,4156,4176,4195,4217,4235,4256,4275,4296,4317,4335,4357,4376,4396,4417,4437,4456,4477,4495,4516,4537,4556,4577,4596,4615,4637,4656,4677,4696,4716,4737,4756,4777,4796,4817,4836,4857,4876,4896,4916,4936,4955,4977,4996,5016],"xSR":741.5,"ySR":501.8,"xT1":424.9,"yT1":0,"xT2":1058.1,"yT2":0,"toosoon":0,"cond_shown":"Congruent","ratio_trial":100,"L_num":11,"L_den":22,"R_num":4,"R_den":10,"correct_side":1,"subjID":"angelbustos37","gender":"0","school":"6","age":"11"},{"start_time":1551800703699,"click_time":1551800705769,"finger_time":1551800704949,"fix_duration":1149.3466412498735,"trial":28,"RT":1250,"MT":820,"sideResp":1,"stimulus":[],"xmouse":[790,790,790,790,790,790,790,790,790,790,790,790,790,790,790,790,790,790,790,790,790,790,790,790,790,790,790,790,790,790,790,790,790,790,790,790,790,790,790,790,790,790,790,790,790,790,790,790,790,790,790,790,790,790,790,790,788,787,784,782,782,780,774,768,763,757,751,732,723,714,707,700,680,670,657,645,623,582,558,523,489,459,419,406,399,396,394,393,393,393,393,393,393,395,399,403,406,412,413,413,413,415,421,425],"ymouse":[547,547,547,547,547,547,547,547,547,547,547,547,547,547,547,547,547,547,547,547,547,547,547,547,547,547,547,547,547,547,547,547,547,547,547,547,547,547,547,547,547,547,547,547,547,547,547,547,547,547,547,547,547,547,542,539,535,533,526,523,519,512,493,481,471,457,445,416,403,391,382,373,351,341,329,312,281,229,204,175,149,128,102,95,89,87,85,84,83,83,83,83,81,80,80,80,79,78,78,78,78,77,76,75],"timestamp_mouse":[10,30,51,70,90,111,130,151,169,191,211,230,250,270,290,310,329,351,371,391,410,430,450,471,490,511,530,551,571,590,609,631,651,669,691,711,730,751,771,791,810,830,851,869,890,910,929,950,971,990,1010,1030,1051,1070,1090,1111,1130,1150,1170,1190,1211,1230,1250,1270,1291,1311,1331,1352,1370,1390,1409,1429,1451,1469,1490,1511,1530,1551,1569,1590,1611,1630,1651,1670,1690,1711,1730,1749,1770,1790,1810,1829,1851,1870,1891,1910,1929,1951,1969,1990,2011,2030,2051,2070],"xSR":741.5,"ySR":501.8,"xT1":424.9,"yT1":0,"xT2":1058.1,"yT2":0,"toosoon":0,"cond_shown":"Congruent","ratio_trial":300,"L_num":3,"L_den":6,"R_num":2,"R_den":10,"correct_side":1,"subjID":"angelbustos37","gender":"0","school":"6","age":"11"},{"start_time":1551800708330,"click_time":1551800711050,"finger_time":1551800709810,"fix_duration":897.2943029258014,"trial":29,"RT":1480,"MT":1240,"sideResp":2,"stimulus":[],"xmouse":[781,781,781,781,781,781,781,781,781,781,781,781,781,781,781,781,781,781,781,781,781,781,781,781,781,781,781,781,781,781,781,781,781,781,781,781,781,781,781,781,781,781,781,781,781,781,781,781,781,781,781,781,781,781,781,781,781,781,781,781,781,781,781,781,781,781,781,781,781,781,781,782,790,818,863,922,1000,1142,1159,1166,1167,1167,1167,1167,1167,1167,1165,1164,1161,1158,1157,1155,1153,1153,1153,1152,1151,1151,1150,1150,1150,1149,1149,1148,1148,1148,1148,1148,1148,1148,1148,1148,1148,1148,1148,1148,1148,1148,1148,1148,1148,1148,1148,1148,1147,1144,1139,1139,1139,1139,1139,1139,1138,1138,1138,1138,1136],"ymouse":[553,553,553,553,553,553,553,553,553,553,553,553,553,553,553,553,553,553,553,553,553,553,553,553,553,553,553,553,553,553,553,553,553,553,553,553,553,553,553,553,553,553,553,553,553,553,553,553,553,553,553,553,553,553,553,553,553,553,553,553,553,553,553,553,553,553,553,553,553,553,553,552,552,544,530,493,427,292,261,236,220,207,196,194,193,191,178,170,161,153,148,144,139,139,139,137,135,134,133,133,132,129,128,126,125,125,125,125,125,125,125,125,125,125,125,125,125,125,125,125,125,125,125,124,120,116,106,105,105,105,105,105,103,103,103,103,96],"timestamp_mouse":[1,33,39,58,79,100,119,139,160,180,200,219,239,259,279,300,320,338,359,379,399,419,440,459,480,500,519,540,559,579,600,620,640,660,680,699,719,740,759,780,800,819,838,859,878,899,919,940,959,979,999,1019,1039,1059,1078,1099,1119,1138,1159,1179,1199,1220,1240,1259,1280,1298,1320,1340,1359,1379,1399,1420,1439,1460,1480,1500,1519,1539,1558,1578,1600,1620,1639,1659,1679,1699,1721,1739,1759,1779,1799,1819,1839,1859,1879,1899,1920,1939,1959,1980,1999,2020,2039,2060,2079,2098,2120,2139,2159,2179,2198,2220,2239,2259,2279,2299,2320,2340,2359,2378,2399,2420,2440,2459,2480,2500,2520,2539,2558,2579,2600,2619,2639,2659,2679,2700,2719],"xSR":741.5,"ySR":501.8,"xT1":424.9,"yT1":0,"xT2":1058.1,"yT2":0,"toosoon":0,"cond_shown":"Incongruent","ratio_trial":300,"L_num":13,"L_den":26,"R_num":12,"R_den":15,"correct_side":2,"subjID":"angelbustos37","gender":"0","school":"6","age":"11"},{"start_time":1551800713161,"click_time":1551800715909,"finger_time":1551800714569,"fix_duration":250,"trial":30,"RT":1408,"MT":1340,"sideResp":2,"stimulus":[],"xmouse":[783,783,784,784,784,784,784,784,784,784,784,784,784,784,784,784,784,784,784,784,784,784,784,784,784,784,784,784,784,784,784,784,784,784,784,784,784,784,784,784,784,784,784,784,784,784,784,784,784,784,784,784,784,784,784,784,784,784,784,784,784,784,784,784,784,787,787,788,790,792,793,793,793,793,793,793,793,793,793,793,793,793,793,793,793,793,793,793,793,790,787,785,785,785,785,785,785,785,785,792,804,827,843,852,860,870,872,874,876,878,881,882,884,887,890,904,911,921,930,941,960,971,980,993,1017,1050,1058,1062,1063,1063,1063,1063,1064,1070,1078,1083,1086,1092],"ymouse":[555,555,556,556,556,556,556,556,556,556,556,556,556,556,556,556,556,556,556,556,556,556,556,556,556,556,556,556,556,556,556,556,556,556,556,556,556,556,556,556,556,556,556,556,556,556,556,556,556,556,556,556,556,556,556,556,556,556,556,556,556,556,556,555,554,541,536,525,512,502,493,492,491,491,491,491,491,491,491,491,491,491,491,491,491,491,491,491,491,495,500,505,508,510,510,510,510,510,510,489,462,408,370,352,334,300,288,278,272,261,253,247,241,233,227,210,204,197,191,183,171,164,157,149,139,127,124,123,122,122,122,122,121,117,110,104,100,93],"timestamp_mouse":[13,34,47,69,88,108,128,148,168,187,208,229,248,268,288,307,328,348,367,389,409,428,448,468,487,509,528,548,569,588,609,628,648,668,687,709,728,749,769,788,807,828,849,869,888,909,928,949,969,989,1007,1027,1049,1069,1088,1109,1129,1148,1168,1189,1208,1227,1249,1269,1287,1308,1328,1348,1368,1387,1408,1428,1447,1467,1487,1509,1528,1548,1568,1588,1608,1629,1648,1669,1689,1708,1727,1749,1768,1788,1808,1828,1848,1867,1888,1908,1928,1948,1968,1989,2007,2028,2049,2068,2088,2108,2127,2147,2168,2188,2208,2228,2248,2268,2288,2308,2328,2348,2367,2387,2408,2428,2449,2467,2487,2508,2528,2549,2568,2588,2607,2627,2649,2668,2689,2708,2728,2748],"xSR":741.5,"ySR":501.8,"xT1":424.9,"yT1":0,"xT2":1058.1,"yT2":0,"toosoon":0,"cond_shown":"Incongruent","ratio_trial":200,"L_num":4,"L_den":30,"R_num":1,"R_den":3,"correct_side":2,"subjID":"angelbustos37","gender":"0","school":"6","age":"11"},{"start_time":1551800718314,"click_time":1551800721969,"finger_time":1551800720050,"fix_duration":644.3540379575396,"trial":31,"RT":1736,"MT":1919,"sideResp":1,"stimulus":[],"xmouse":[812,812,812,812,812,812,812,812,812,812,812,812,812,812,812,812,812,812,812,812,812,812,812,812,812,812,812,812,812,812,812,812,812,812,812,812,812,812,812,812,812,812,812,812,812,812,812,812,812,812,812,812,812,812,812,812,812,812,812,812,812,812,812,812,812,812,812,812,812,812,812,812,812,812,812,812,812,812,812,812,812,802,790,781,775,772,764,762,762,762,762,762,762,762,762,762,762,762,762,762,762,762,762,762,762,762,762,762,762,760,755,749,749,749,749,749,749,746,744,743,743,741,740,737,732,729,726,724,724,723,723,723,723,723,723,723,725,727,727,727,727,727,727,727,728,728,729,729,729,729,729,729,728,726,722,719,705,694,690,686,682,674,673,672,672,671,664,646,628,613,600,593,584,575,567,560,554,543,542,540,537,533,523],"ymouse":[568,568,568,568,568,568,568,568,568,568,568,568,568,568,568,568,568,568,568,568,568,568,568,568,568,568,568,568,568,568,568,568,568,568,568,568,568,568,568,568,568,568,568,568,568,568,568,568,568,568,568,568,568,568,568,568,568,568,568,568,568,568,568,568,568,568,568,568,568,568,568,568,568,568,568,568,568,568,568,568,568,556,535,520,513,509,496,493,493,493,493,493,493,493,493,493,493,493,493,493,493,493,493,493,493,493,493,493,493,493,493,493,493,493,493,493,493,488,478,468,463,456,449,437,419,397,364,351,344,339,333,327,323,321,321,318,313,309,308,307,306,299,291,285,280,278,272,272,272,272,270,261,254,249,241,234,210,194,190,184,179,170,168,168,168,166,158,147,137,128,121,117,112,106,102,98,95,91,90,89,88,85,80],"timestamp_mouse":[15,34,55,75,96,115,136,155,175,196,215,236,256,276,295,314,336,355,374,396,415,434,456,474,496,516,536,556,575,596,616,635,655,675,696,715,736,756,774,796,815,835,855,876,895,916,935,956,974,994,1016,1036,1056,1075,1096,1115,1135,1156,1176,1195,1214,1236,1256,1274,1296,1315,1335,1354,1376,1394,1416,1436,1458,1474,1496,1516,1535,1555,1576,1594,1615,1636,1655,1674,1696,1716,1736,1755,1776,1796,1816,1835,1854,1875,1895,1915,1936,1955,1975,1996,2016,2034,2054,2075,2095,2114,2136,2155,2175,2195,2215,2236,2255,2275,2296,2316,2335,2356,2375,2395,2416,2436,2455,2475,2496,2514,2536,2554,2575,2595,2616,2636,2655,2675,2695,2714,2735,2756,2774,2795,2815,2836,2855,2875,2895,2915,2936,2956,2976,2996,3015,3036,3055,3075,3095,3115,3136,3154,3175,3195,3216,3235,3255,3275,3295,3315,3336,3354,3375,3395,3414,3436,3455,3475,3495,3514,3535,3556,3575,3595,3616,3636,3655],"xSR":741.5,"ySR":501.8,"xT1":424.9,"yT1":0,"xT2":1058.1,"yT2":0,"toosoon":0,"cond_shown":"Incongruent","ratio_trial":200,"L_num":7,"L_den":10,"R_num":8,"R_den":16,"correct_side":1,"subjID":"angelbustos37","gender":"0","school":"6","age":"11"},{"start_time":1551800725383,"click_time":1551800730550,"finger_time":1551800725509,"fix_duration":930.4395225127979,"trial":32,"RT":126,"MT":5041,"sideResp":1,"stimulus":[],"xmouse":[754,754,754,754,754,749,740,736,736,735,735,735,735,735,735,735,735,735,735,735,735,735,735,735,735,735,735,735,735,735,735,735,735,735,735,739,749,766,802,810,813,814,814,814,814,814,814,814,814,814,814,814,814,814,814,814,814,814,814,816,817,817,817,817,817,817,817,817,817,817,817,817,817,817,817,817,817,817,816,816,816,816,816,816,816,816,816,816,816,816,816,816,816,816,816,816,816,816,808,790,781,781,781,780,775,767,759,750,735,729,722,709,690,606,567,521,481,448,399,387,385,385,385,385,392,404,422,446,476,536,560,576,588,611,629,647,666,683,704,709,710,710,710,721,728,730,730,732,742,767,774,777,778,779,782,782,782,782,782,782,782,782,782,782,782,782,782,782,782,782,782,782,782,782,782,782,782,782,782,782,782,782,782,782,782,782,782,782,782,782,782,782,782,782,782,782,782,782,782,782,782,782,782,782,782,782,782,782,782,782,782,782,782,782,782,782,782,782,782,782,782,783,786,794,796,797,797,797,797,794,789,779,761,732,723,720,716,706,682,672,662,651,643,637,637,637,636,631,621,618,618,618,618,614,592,574,556,536,501],"ymouse":[573,573,573,573,573,576,581,583,583,584,584,584,584,584,584,584,584,584,584,584,584,584,584,584,584,584,584,584,584,584,584,584,584,584,584,578,568,556,543,542,541,541,541,541,541,541,541,541,541,541,541,541,541,541,541,541,541,541,541,538,531,528,527,527,527,527,527,527,527,527,527,527,527,527,527,527,526,525,519,519,519,519,519,519,519,519,519,519,519,519,519,519,519,519,519,519,519,519,519,529,535,537,539,547,573,591,605,613,623,626,629,634,642,666,679,697,714,730,757,766,768,768,768,769,766,758,743,723,695,647,632,621,614,607,602,598,592,586,574,573,572,572,572,572,573,574,574,574,575,575,575,575,575,575,575,575,575,575,575,575,575,575,575,575,575,575,575,575,575,575,575,575,575,575,575,575,575,575,575,575,575,575,575,575,575,575,575,575,575,575,575,575,575,575,575,575,575,575,575,575,575,575,575,575,575,575,575,575,575,575,575,575,575,575,575,575,575,575,575,575,571,564,545,494,478,467,458,450,439,413,396,374,339,287,268,261,255,240,204,188,171,150,132,119,119,119,118,113,102,101,101,101,100,98,93,87,82,76,63],"timestamp_mouse":[8,29,46,66,86,106,126,146,165,185,206,226,247,266,285,305,326,346,365,387,406,427,446,467,487,506,526,546,567,585,605,626,647,667,686,706,727,747,767,786,806,825,847,866,885,906,926,947,966,985,1005,1026,1046,1067,1086,1107,1125,1146,1167,1186,1206,1227,1246,1266,1286,1307,1326,1346,1367,1386,1406,1426,1446,1466,1486,1507,1527,1546,1566,1587,1606,1627,1647,1667,1685,1707,1726,1746,1767,1787,1807,1827,1846,1867,1885,1907,1927,1947,1967,1986,2005,2026,2047,2066,2087,2105,2126,2147,2166,2186,2206,2227,2246,2267,2285,2306,2326,2345,2367,2386,2406,2426,2445,2467,2486,2506,2526,2547,2566,2586,2606,2626,2646,2667,2686,2706,2726,2747,2767,2785,2805,2826,2846,2867,2885,2907,2926,2945,2966,2986,3006,3026,3045,3066,3086,3105,3126,3147,3165,3186,3207,3225,3246,3267,3285,3306,3325,3347,3366,3386,3406,3427,3447,3467,3486,3507,3526,3547,3566,3587,3607,3627,3647,3666,3685,3706,3725,3746,3766,3785,3806,3826,3847,3866,3885,3905,3925,3947,3966,3985,4007,4027,4046,4066,4085,4107,4127,4146,4165,4187,4207,4225,4247,4267,4286,4306,4326,4346,4366,4387,4407,4427,4446,4466,4485,4506,4526,4546,4566,4586,4606,4626,4646,4667,4685,4706,4727,4747,4767,4786,4806,4826,4846,4867,4885,4905,4925,4946,4967,4985,5007,5026,5046,5066,5086,5106,5125,5146,5167],"xSR":741.5,"ySR":501.8,"xT1":424.9,"yT1":0,"xT2":1058.1,"yT2":0,"toosoon":0,"cond_shown":"Congruent","ratio_trial":300,"L_num":3,"L_den":6,"R_num":4,"R_den":5,"correct_side":2,"subjID":"angelbustos37","gender":"0","school":"6","age":"11"},{"start_time":1551800746257,"click_time":1551800747989,"finger_time":1551800747449,"fix_duration":1067.413477402049,"trial":33,"RT":1192,"MT":540,"sideResp":2,"stimulus":[],"xmouse":[820,820,820,820,820,820,820,820,820,820,820,820,820,820,820,820,820,820,820,820,820,820,821,821,821,821,821,821,821,821,820,820,820,820,820,820,820,820,820,820,820,820,820,820,820,820,820,820,816,811,808,808,808,808,808,808,808,811,819,853,872,889,907,920,936,943,949,955,960,964,968,969,971,972,972,975,979,986,993,1011,1015,1018,1023,1031,1040,1052,1059],"ymouse":[533,533,533,533,533,533,533,533,533,533,533,533,533,533,533,533,533,533,533,533,533,533,534,534,534,534,534,534,534,534,535,535,535,535,535,535,535,535,535,535,535,535,535,535,535,535,535,535,535,535,534,534,534,534,534,534,532,522,508,462,440,415,385,353,299,279,266,251,239,223,203,194,189,185,183,172,164,156,148,131,124,117,108,98,88,73,66],"timestamp_mouse":[11,38,51,71,91,111,131,153,173,191,212,232,252,272,292,313,331,352,371,391,412,431,451,472,493,512,531,553,571,591,612,631,652,672,693,712,731,751,771,792,812,833,851,872,892,912,931,951,972,991,1011,1032,1052,1071,1092,1111,1131,1151,1171,1192,1211,1231,1252,1271,1292,1311,1331,1352,1371,1391,1412,1431,1451,1471,1492,1511,1531,1552,1572,1592,1611,1632,1651,1671,1691,1711,1731],"xSR":741.5,"ySR":501.8,"xT1":424.9,"yT1":0,"xT2":1058.1,"yT2":0,"toosoon":0,"cond_shown":"Incongruent","ratio_trial":200,"L_num":11,"L_den":20,"R_num":3,"R_den":4,"correct_side":2,"subjID":"angelbustos37","gender":"0","school":"6","age":"11"},{"start_time":1551800751457,"click_time":1551800753249,"finger_time":1551800752468,"fix_duration":846.5355989196811,"trial":34,"RT":1011,"MT":781,"sideResp":2,"stimulus":[],"xmouse":[763,763,763,762,758,758,758,758,758,758,758,758,758,758,758,758,758,758,758,758,758,758,758,758,758,758,758,758,758,758,758,757,756,754,754,750,747,746,745,745,745,745,745,745,745,745,745,745,745,749,760,769,777,786,794,804,807,810,812,815,817,817,817,817,817,818,821,826,842,848,885,898,910,926,944,971,978,981,983,983,985,993,1012,1042,1070,1103,1104,1104,1104,1109],"ymouse":[533,533,543,552,564,568,568,568,568,568,568,568,568,568,568,568,568,568,568,568,568,568,568,568,568,568,568,568,568,568,568,568,566,564,562,558,554,553,552,552,552,552,551,551,549,543,540,536,532,518,499,486,475,463,452,437,431,426,417,402,378,366,351,338,326,307,299,292,284,282,270,264,257,251,244,233,229,226,217,205,153,134,119,114,113,112,112,112,112,85],"timestamp_mouse":[12,36,51,72,92,111,131,152,172,191,212,231,252,271,291,312,331,352,372,392,412,432,451,472,492,511,531,553,572,592,613,631,651,672,691,711,731,753,771,791,812,831,852,871,892,911,933,952,971,992,1011,1031,1051,1072,1092,1111,1131,1151,1171,1191,1211,1231,1252,1272,1292,1311,1331,1351,1371,1392,1411,1431,1452,1471,1492,1511,1531,1551,1571,1592,1612,1631,1653,1672,1692,1711,1731,1752,1771,1792],"xSR":741.5,"ySR":501.8,"xT1":424.9,"yT1":0,"xT2":1058.1,"yT2":0,"toosoon":0,"cond_shown":"Incongruent","ratio_trial":100,"L_num":6,"L_den":12,"R_num":3,"R_den":5,"correct_side":2,"subjID":"angelbustos37","gender":"0","school":"6","age":"11"},{"start_time":1551800755752,"click_time":1551800757568,"finger_time":1551800757048,"fix_duration":1282.909578265136,"trial":35,"RT":1296,"MT":520,"sideResp":2,"stimulus":[],"xmouse":[747,747,747,747,747,747,747,747,747,747,747,747,747,747,747,747,747,747,747,747,747,747,747,747,747,747,747,747,747,747,747,747,747,747,747,747,747,747,747,747,747,747,747,747,747,747,747,747,747,747,747,747,747,747,747,751,756,762,771,785,787,791,794,799,805,818,824,828,834,851,862,873,887,899,939,974,994,1007,1017,1025,1028,1028,1030,1031,1034,1036,1039,1044,1048,1055,1059],"ymouse":[588,588,588,588,588,588,588,588,588,588,588,588,588,588,588,588,588,588,588,588,588,588,588,588,588,588,588,588,588,588,588,588,588,588,588,588,588,588,588,588,588,588,588,588,588,588,588,588,588,588,588,588,588,588,588,576,568,561,551,533,528,520,512,503,492,468,457,442,425,391,372,352,332,312,256,206,178,158,145,128,122,120,115,112,107,104,102,100,97,92,89],"timestamp_mouse":[28,37,56,76,96,117,136,156,176,197,216,236,257,277,296,316,336,356,377,396,416,436,456,477,496,516,537,556,577,597,617,636,658,676,696,716,737,757,777,796,816,836,857,876,896,917,936,957,976,996,1016,1036,1056,1077,1096,1116,1136,1157,1176,1197,1216,1236,1256,1277,1296,1316,1336,1356,1377,1398,1416,1436,1457,1477,1497,1516,1536,1556,1577,1597,1616,1636,1657,1677,1697,1716,1736,1756,1777,1797,1816],"xSR":741.5,"ySR":501.8,"xT1":424.9,"yT1":0,"xT2":1058.1,"yT2":0,"toosoon":0,"cond_shown":"Incongruent","ratio_trial":300,"L_num":4,"L_den":20,"R_num":2,"R_den":4,"correct_side":2,"subjID":"angelbustos37","gender":"0","school":"6","age":"11"},{"start_time":1551800759219,"click_time":1551800761549,"finger_time":1551800760849,"fix_duration":250,"trial":36,"RT":1630,"MT":700,"sideResp":2,"stimulus":[],"xmouse":[798,798,798,798,798,798,798,798,798,798,798,798,798,798,798,798,798,798,798,798,798,798,798,798,798,798,798,798,798,798,798,798,798,798,798,798,798,798,798,798,798,798,798,798,798,798,798,798,798,798,798,798,798,798,798,798,798,798,798,798,798,798,798,798,798,798,798,798,798,798,798,798,798,798,798,798,798,800,803,807,811,837,851,864,874,882,899,912,927,941,958,970,978,979,979,979,982,986,990,993,996,997,997,999,1004,1009,1024,1029,1032,1037,1042,1049,1056,1057,1057,1058,1059],"ymouse":[546,546,546,546,546,546,546,546,546,546,546,546,546,546,546,546,546,546,546,546,546,546,546,546,546,546,546,546,546,546,546,546,546,546,546,546,546,546,546,546,546,546,546,546,546,546,546,546,546,546,546,546,546,546,546,546,546,546,546,546,546,546,546,546,546,546,546,546,546,546,546,546,546,546,546,546,546,542,536,531,523,471,445,423,409,384,308,251,204,181,168,163,156,151,146,142,139,139,139,139,139,139,138,136,132,127,116,113,110,107,104,100,96,95,95,94,93],"timestamp_mouse":[10,29,49,70,89,109,129,150,169,189,209,229,250,271,289,310,329,349,369,389,409,429,449,469,489,509,529,549,569,589,610,630,650,669,689,709,730,750,769,790,810,829,850,869,889,909,929,950,969,990,1009,1029,1050,1070,1089,1109,1129,1151,1169,1190,1210,1230,1250,1270,1289,1310,1329,1349,1370,1390,1409,1429,1449,1470,1490,1510,1530,1549,1570,1590,1609,1630,1649,1669,1690,1709,1731,1749,1769,1790,1810,1829,1849,1870,1890,1910,1930,1949,1969,1990,2009,2029,2050,2069,2090,2110,2130,2149,2169,2189,2209,2230,2249,2269,2289,2310,2329],"xSR":741.5,"ySR":501.8,"xT1":424.9,"yT1":0,"xT2":1058.1,"yT2":0,"toosoon":0,"cond_shown":"Incongruent","ratio_trial":200,"L_num":14,"L_den":30,"R_num":6,"R_den":9,"correct_side":2,"subjID":"angelbustos37","gender":"0","school":"6","age":"11"},{"start_time":1551800763321,"click_time":1551800765449,"finger_time":1551800764609,"fix_duration":250,"trial":37,"RT":1288,"MT":840,"sideResp":1,"stimulus":[],"xmouse":[786,786,786,786,786,786,786,786,786,786,786,786,786,786,786,786,786,786,786,786,786,786,786,786,786,786,786,786,786,786,786,786,786,786,786,786,786,786,786,786,786,786,786,786,786,786,786,786,786,786,786,786,786,786,786,786,786,786,786,786,787,787,782,780,777,766,760,713,694,685,679,672,669,668,666,663,656,649,646,642,638,633,622,616,610,604,600,589,584,580,576,567,564,561,558,555,552,544,541,536,532,531,526,524,522,521,515],"ymouse":[541,541,541,541,541,541,541,541,541,541,541,541,541,541,541,541,541,541,541,541,541,541,541,541,541,541,541,541,541,541,541,541,541,541,541,541,541,541,541,541,541,541,541,541,541,541,541,541,541,541,541,541,541,541,541,541,541,541,541,541,540,535,517,507,493,467,454,344,312,292,277,258,248,243,236,229,214,205,202,197,194,190,184,182,179,176,173,165,161,157,153,143,139,136,132,129,126,119,116,114,113,112,108,107,105,104,98],"timestamp_mouse":[9,29,47,68,88,107,127,147,168,188,207,227,248,267,288,307,327,348,367,389,408,427,449,467,488,508,528,548,567,588,607,627,648,667,688,707,727,747,767,788,807,828,848,867,888,908,928,947,967,987,1007,1028,1047,1067,1088,1108,1128,1148,1167,1188,1207,1228,1247,1268,1288,1307,1328,1347,1367,1387,1408,1428,1447,1467,1487,1508,1528,1547,1567,1587,1608,1628,1647,1668,1688,1707,1727,1747,1767,1787,1808,1828,1847,1867,1888,1907,1927,1947,1967,1988,2007,2027,2047,2068,2087,2108,2128],"xSR":741.5,"ySR":501.8,"xT1":424.9,"yT1":0,"xT2":1058.1,"yT2":0,"toosoon":0,"cond_shown":"Congruent","ratio_trial":300,"L_num":24,"L_den":30,"R_num":8,"R_den":16,"correct_side":1,"subjID":"angelbustos37","gender":"0","school":"6","age":"11"},{"start_time":1551800768306,"click_time":1551800770528,"finger_time":1551800769630,"fix_duration":1136.0936154961921,"trial":38,"RT":1324,"MT":898,"sideResp":1,"stimulus":[],"xmouse":[786,786,786,786,786,786,786,786,786,786,786,786,786,786,786,786,786,786,786,786,786,786,786,786,786,786,786,786,786,786,786,786,786,786,786,786,786,786,786,786,786,786,786,786,786,786,786,786,786,786,786,786,786,786,786,786,786,786,786,786,786,786,786,786,786,785,779,768,761,753,747,742,735,732,727,720,714,700,680,671,662,654,641,633,627,621,617,610,609,607,605,604,601,599,598,595,592,581,578,576,574,573,571,570,568,566,563,558,553,543,532,521],"ymouse":[518,518,518,518,518,518,518,518,518,518,518,518,518,518,518,518,518,518,518,518,518,518,518,518,518,518,518,518,518,518,518,518,518,518,518,518,518,518,518,518,518,518,518,518,518,518,518,518,518,518,518,518,518,518,518,518,518,518,518,518,518,518,518,518,515,508,495,465,454,442,432,426,415,410,404,393,381,362,330,317,306,294,271,259,248,236,225,210,206,201,198,195,189,185,183,178,172,159,155,151,149,147,144,143,141,139,136,130,124,113,104,97],"timestamp_mouse":[7,23,43,62,83,103,122,143,163,182,202,223,242,263,282,303,322,343,363,384,402,423,444,463,482,503,523,544,562,582,603,622,643,663,682,703,724,743,763,783,802,822,842,862,882,902,923,943,962,983,1002,1023,1043,1062,1082,1103,1123,1143,1163,1184,1202,1222,1244,1262,1282,1302,1324,1343,1362,1382,1402,1422,1443,1462,1482,1502,1523,1542,1562,1582,1602,1623,1643,1662,1682,1703,1722,1743,1764,1782,1803,1822,1843,1862,1882,1903,1923,1943,1962,1982,2003,2023,2043,2062,2083,2103,2122,2144,2162,2182,2203,2222],"xSR":741.5,"ySR":501.8,"xT1":424.9,"yT1":0,"xT2":1058.1,"yT2":0,"toosoon":0,"cond_shown":"Congruent","ratio_trial":100,"L_num":10,"L_den":25,"R_num":3,"R_den":10,"correct_side":1,"subjID":"angelbustos37","gender":"0","school":"6","age":"11"},{"start_time":1551800772499,"click_time":1551800774388,"finger_time":1551800773669,"fix_duration":449.56177061603,"trial":39,"RT":1170,"MT":719,"sideResp":1,"stimulus":[],"xmouse":[791,791,791,791,791,791,791,791,791,791,791,791,791,791,791,791,791,791,791,791,791,791,791,791,791,791,791,791,791,791,791,791,791,791,791,791,791,791,791,791,791,791,791,791,791,791,791,791,791,791,791,791,791,791,791,791,791,791,779,762,743,727,716,705,701,694,687,669,651,639,629,622,618,611,606,602,596,580,572,565,561,558,552,550,548,547,546,543,540,538,534,532,528,525,523],"ymouse":[533,533,533,533,533,533,533,533,533,533,533,533,533,533,533,533,533,533,533,533,533,533,533,533,533,533,533,533,533,533,533,533,533,533,533,533,533,533,533,533,533,533,533,533,533,533,533,533,533,533,533,533,533,533,533,533,533,529,496,460,423,399,383,368,360,351,340,312,288,269,256,246,239,228,220,209,196,163,153,146,139,134,127,124,120,119,118,116,113,111,108,106,101,98,95],"timestamp_mouse":[9,30,50,69,89,110,129,149,170,189,209,230,251,270,290,310,329,350,369,389,410,430,449,470,490,510,529,549,570,589,610,629,649,669,689,710,729,749,769,789,810,830,849,870,890,910,930,950,969,990,1009,1029,1050,1069,1090,1110,1130,1149,1170,1189,1209,1230,1249,1269,1289,1309,1331,1350,1369,1389,1410,1430,1449,1469,1489,1510,1529,1550,1569,1589,1610,1629,1650,1669,1689,1709,1729,1750,1769,1789,1810,1829,1850,1869,1889],"xSR":741.5,"ySR":501.8,"xT1":424.9,"yT1":0,"xT2":1058.1,"yT2":0,"toosoon":0,"cond_shown":"Incongruent","ratio_trial":200,"L_num":1,"L_den":2,"R_num":3,"R_den":10,"correct_side":1,"subjID":"angelbustos37","gender":"0","school":"6","age":"11"},{"start_time":1551800777080,"click_time":1551800780208,"finger_time":1551800778649,"fix_duration":1491.685232931462,"trial":40,"RT":1569,"MT":1559,"sideResp":1,"stimulus":[],"xmouse":[758,758,758,758,758,758,758,758,758,758,758,758,758,758,758,758,758,758,758,758,758,758,758,758,758,758,758,758,758,758,758,758,758,758,758,758,758,758,758,758,758,758,758,758,758,758,758,758,758,758,758,758,758,758,758,758,758,758,758,758,758,758,758,758,758,758,758,758,758,758,758,758,758,758,758,758,758,758,752,749,746,743,740,736,732,727,722,716,710,695,692,689,686,678,673,668,666,662,661,657,656,655,655,655,655,655,654,654,653,653,653,653,653,653,651,650,649,648,645,644,643,642,640,639,633,631,629,628,625,622,619,615,614,613,611,610,609,606,600,579,570,560,553,541,539,538,537,535,533,533,531,529,526,520,518,516,514],"ymouse":[523,523,523,523,523,523,523,523,523,523,523,523,523,523,523,523,523,523,523,523,523,523,523,523,523,523,523,523,523,523,523,523,523,523,523,523,523,523,523,523,523,523,523,523,523,523,523,523,523,523,523,523,523,523,523,523,523,523,523,523,523,523,523,523,523,523,523,523,523,523,523,523,523,523,523,523,523,513,492,481,471,464,457,447,440,432,423,412,401,376,368,361,355,338,326,312,303,294,291,282,279,275,274,272,271,271,269,269,268,268,268,268,268,268,264,262,261,258,254,252,249,246,243,238,229,226,221,219,214,212,209,207,205,204,203,201,199,196,189,173,167,160,154,145,143,142,141,140,137,136,133,129,122,109,104,100,96],"timestamp_mouse":[8,29,48,69,88,108,129,148,168,190,208,229,249,268,288,308,329,349,368,389,408,429,450,469,488,509,528,548,568,589,608,629,649,669,690,708,728,749,769,789,810,828,849,869,889,908,929,948,968,990,1008,1029,1048,1069,1088,1109,1129,1148,1168,1190,1209,1228,1248,1268,1289,1308,1329,1350,1368,1389,1409,1428,1449,1469,1488,1508,1529,1549,1569,1588,1608,1629,1649,1670,1688,1708,1728,1749,1768,1789,1808,1830,1848,1869,1888,1908,1929,1948,1968,1988,2008,2028,2048,2069,2088,2108,2128,2148,2169,2188,2208,2228,2248,2269,2288,2308,2328,2348,2369,2388,2408,2428,2449,2469,2488,2508,2529,2548,2569,2588,2608,2628,2648,2669,2688,2709,2729,2748,2769,2788,2808,2828,2848,2869,2888,2909,2928,2949,2969,2988,3008,3028,3049,3069,3088,3108,3128],"xSR":741.5,"ySR":501.8,"xT1":424.9,"yT1":0,"xT2":1058.1,"yT2":0,"toosoon":0,"cond_shown":"Congruent","ratio_trial":100,"L_num":10,"L_den":25,"R_num":3,"R_den":10,"correct_side":1,"subjID":"angelbustos37","gender":"0","school":"6","age":"11"},{"start_time":1551800781880,"click_time":1551800784328,"finger_time":1551800783549,"fix_duration":490.41722083315074,"trial":41,"RT":1669,"MT":779,"sideResp":2,"stimulus":[],"xmouse":[825,825,825,825,825,825,825,825,825,825,825,825,825,825,825,825,825,825,825,825,825,825,825,825,825,825,825,825,825,825,825,825,825,825,825,825,825,825,825,825,825,825,825,825,825,825,825,825,825,825,825,825,825,825,825,825,825,825,825,825,825,825,825,825,825,825,825,825,825,825,825,825,825,825,825,825,825,825,826,827,829,832,835,841,848,855,861,871,893,908,920,931,939,962,975,985,992,995,996,997,997,999,999,1001,1002,1005,1007,1010,1014,1027,1038,1053,1066,1090,1098,1102,1103,1104,1104,1104,1104,1104,1104],"ymouse":[550,550,550,550,550,550,550,550,550,550,550,550,550,550,550,550,550,550,550,550,550,550,550,550,550,550,550,550,550,550,550,550,550,550,550,550,550,550,550,550,550,550,550,550,550,550,550,550,550,550,550,550,550,550,550,550,550,550,550,550,550,550,550,550,550,550,550,550,550,550,550,550,550,550,550,550,550,550,540,531,523,513,503,478,462,445,431,415,382,362,344,323,302,258,239,229,222,218,213,203,201,196,195,188,184,178,175,171,165,152,142,132,123,107,103,101,100,100,100,100,100,100,99],"timestamp_mouse":[9,30,48,69,88,108,128,148,168,189,210,228,248,268,289,308,328,348,368,388,408,429,449,468,488,508,528,549,568,589,608,629,649,668,689,708,729,748,768,789,809,828,848,869,888,908,929,948,968,988,1008,1028,1048,1068,1089,1108,1128,1148,1169,1188,1209,1230,1248,1269,1289,1308,1328,1348,1369,1389,1408,1429,1448,1468,1488,1508,1529,1548,1569,1589,1608,1629,1649,1669,1688,1708,1728,1749,1769,1788,1808,1828,1848,1870,1888,1909,1929,1949,1969,1990,2008,2028,2049,2069,2088,2108,2129,2148,2168,2188,2208,2228,2248,2269,2288,2308,2329,2348,2369,2388,2408,2429,2448],"xSR":741.5,"ySR":501.8,"xT1":424.9,"yT1":0,"xT2":1058.1,"yT2":0,"toosoon":0,"cond_shown":"Congruent","ratio_trial":200,"L_num":5,"L_den":10,"R_num":14,"R_den":20,"correct_side":2,"subjID":"angelbustos37","gender":"0","school":"6","age":"11"},{"start_time":1551800788956,"click_time":1551800792109,"finger_time":1551800791368,"fix_duration":1086.1904166690786,"trial":42,"RT":2412,"MT":741,"sideResp":1,"stimulus":[],"xmouse":[771,771,771,771,770,770,770,770,770,770,770,770,770,770,770,770,770,770,770,770,770,770,770,770,770,770,770,770,770,770,770,770,770,770,770,770,770,770,770,770,770,770,770,770,770,770,770,770,770,770,770,770,770,770,770,770,770,770,770,770,770,770,770,770,770,770,770,770,770,770,770,770,770,770,770,770,770,770,770,770,770,770,770,770,770,770,770,770,770,770,770,770,770,770,770,770,770,770,770,770,770,770,770,770,770,770,770,770,770,770,770,770,770,770,770,770,770,770,767,763,753,746,738,728,703,697,693,689,685,676,670,665,659,651,629,619,614,610,608,606,599,595,590,582,579,562,557,552,548,544,542,539,536,535,534,528,524,522],"ymouse":[533,533,533,533,535,535,535,535,535,535,535,535,535,535,535,535,535,535,535,535,535,535,535,535,535,535,535,535,535,535,535,535,535,535,535,535,535,535,535,535,535,535,535,535,535,535,535,535,535,535,535,535,535,535,535,535,535,535,535,535,535,535,535,535,535,535,535,535,535,535,535,535,535,535,535,535,535,535,535,535,535,535,535,535,535,535,535,535,535,535,535,535,535,535,535,535,535,535,535,535,535,535,535,535,535,535,535,535,535,535,535,535,535,535,535,535,535,535,529,519,480,455,429,404,347,332,318,304,289,255,239,223,208,196,173,167,163,160,158,156,150,147,143,137,135,124,122,119,117,115,114,112,110,109,109,104,101,98],"timestamp_mouse":[14,40,52,72,92,114,132,152,172,192,213,232,252,272,292,312,332,352,372,393,413,433,453,473,492,512,533,554,572,593,613,632,653,672,692,712,732,754,772,794,812,832,853,872,892,913,932,952,972,992,1012,1032,1052,1073,1092,1113,1134,1153,1173,1192,1213,1232,1252,1272,1292,1313,1332,1352,1373,1393,1412,1432,1453,1472,1492,1513,1533,1552,1572,1592,1613,1632,1653,1673,1693,1713,1732,1752,1772,1792,1812,1833,1852,1872,1893,1913,1932,1953,1972,1993,2012,2032,2053,2073,2092,2113,2132,2153,2172,2193,2213,2234,2252,2273,2293,2313,2333,2353,2372,2392,2412,2432,2453,2473,2493,2512,2532,2552,2573,2593,2612,2632,2652,2673,2693,2712,2732,2752,2772,2793,2812,2832,2852,2872,2892,2912,2932,2952,2973,2994,3012,3032,3052,3072,3092,3114,3133,3153],"xSR":741.5,"ySR":501.8,"xT1":424.9,"yT1":0,"xT2":1058.1,"yT2":0,"toosoon":0,"cond_shown":"Congruent","ratio_trial":300,"L_num":4,"L_den":10,"R_num":1,"R_den":10,"correct_side":1,"subjID":"angelbustos37","gender":"0","school":"6","age":"11"},{"start_time":1551800795065,"click_time":1551800797568,"finger_time":1551800796869,"fix_duration":654.038164744438,"trial":43,"RT":1804,"MT":699,"sideResp":1,"stimulus":[],"xmouse":[766,766,766,766,766,766,766,766,766,766,766,766,766,766,766,766,766,766,766,766,766,766,766,766,766,766,766,766,766,766,766,766,766,766,766,766,766,766,766,766,766,766,766,766,766,766,766,766,766,766,766,766,766,766,766,766,766,766,766,766,766,766,766,766,766,766,766,766,766,766,766,766,766,766,766,766,766,766,766,766,766,766,766,766,766,766,766,766,762,761,747,731,719,718,708,700,694,684,672,644,633,619,601,579,546,539,535,531,529,527,527,527,527,527,522,517,511,506,504,502,501,499,498,497,494,492],"ymouse":[593,593,593,593,593,593,593,593,593,593,593,593,593,593,593,593,593,593,593,593,593,593,593,593,593,593,593,593,593,593,593,593,593,593,593,593,593,593,593,593,593,593,593,593,593,593,593,593,593,593,593,593,593,593,593,593,593,593,593,593,593,593,593,593,593,593,593,593,593,593,593,593,593,593,593,593,592,591,590,590,590,590,589,588,