[{"start_time":1551801345416,"click_time":1551801346661,"finger_time":1551801346102,"fix_duration":1172.2241121195411,"trial":0,"RT":686,"MT":559,"sideResp":2,"stimulus":"img/750/equaldotsize/R/2_Ratio_750_L_6_R_8.png","xmouse":[743,743,743,743,743,743,743,743,743,743,743,743,743,743,743,743,743,743,743,743,743,743,743,743,743,743,743,743,745,747,751,761,771,791,799,808,818,835,843,858,869,881,913,935,959,979,993,1014,1020,1024,1026,1027,1033,1038,1046,1053,1061,1071,1073,1073,1073,1073,1079],"ymouse":[564,564,564,564,564,564,564,564,564,564,564,564,564,564,564,564,564,564,564,564,564,564,564,564,564,564,564,561,556,552,544,527,512,483,468,452,438,415,400,376,359,340,295,266,237,215,198,178,169,163,160,157,150,144,136,128,122,111,109,108,108,108,96],"timestamp_mouse":[8,36,45,65,86,105,126,145,165,185,206,225,245,266,286,305,325,344,365,386,406,425,445,465,486,506,526,546,565,584,606,625,644,665,686,705,724,746,764,785,805,824,846,865,884,904,924,946,964,985,1005,1025,1045,1065,1085,1105,1125,1145,1165,1185,1205,1225,1245],"xSR":741.5,"ySR":469.95,"xT1":424.9,"yT1":0,"xT2":1058.1,"yT2":0,"toosoon":0,"cond_shown":"equaldotsize","ratio_trial":750,"smaller_num":"6","larger_num":"8","correct_side":2,"subjID":"angelbustos37","gender":"0","age":"11","school":"colegio cafam","test":{"fix_dur":[250,1500],"timestim":300,"targets_dim":[100,100],"targets_relative_coord":[0.3,0.7],"size_stim":[880,420],"start_dim":[100,100],"size_start":[300,300],"size_fix":60,"samplingrate":20,"img_types":["equaldotsize","equaldotanddens","randomdotsizeEA"],"ratios":[250,500,750,900],"rep_conds":9,"nTrials":120,"trials_to_rest":500,"Trials_order":[66,3,107,108,55,100,14,57,49,58,0,86,99,81,85,77,1,51,25,119,114,97,96,33,36,53,26,54,105,76,93,27,92,44,19,10,28,38,84,65,70,82,52,7,42,103,29,40,79,78,90,6,47,89,13,69,87,106,59,43,18,9,73,63,74,64,30,68,2,88,109,98,83,101,5,95,22,21,112,72,71,41,50,62,17,35,23,37,15,115,11,80,39,75,104,4,94,46,91,16,117,102,8,32,56,60,110,111,67,61,31,20,24,34,48,113,118,12,45,116],"cond_shown":["equaldotsize","equaldotsize","randomdotsizeEA","equaldotsize","equaldotanddens","equaldotanddens","randomdotsizeEA","equaldotsize","equaldotanddens","equaldotanddens","equaldotsize","randomdotsizeEA","equaldotsize","equaldotsize","equaldotanddens","randomdotsizeEA","equaldotanddens","equaldotsize","equaldotanddens","randomdotsizeEA","equaldotsize","equaldotanddens","equaldotsize","equaldotsize","equaldotsize","randomdotsizeEA","randomdotsizeEA","equaldotsize","equaldotsize","equaldotanddens","equaldotsize","equaldotsize","randomdotsizeEA","randomdotsizeEA","equaldotanddens","equaldotanddens","equaldotanddens","randomdotsizeEA","equaldotsize","randomdotsizeEA","equaldotanddens","equaldotanddens","equaldotanddens","equaldotanddens","equaldotsize","equaldotanddens","randomdotsizeEA","equaldotanddens","equaldotanddens","equaldotsize","equaldotsize","equaldotsize","randomdotsizeEA","randomdotsizeEA","equaldotanddens","equaldotsize","equaldotsize","equaldotanddens","randomdotsizeEA","equaldotanddens","equaldotsize","equaldotsize","equaldotanddens","equaldotsize","randomdotsizeEA","equaldotanddens","equaldotsize","randomdotsizeEA","randomdotsizeEA","equaldotanddens","equaldotanddens","randomdotsizeEA","randomdotsizeEA","randomdotsizeEA","randomdotsizeEA","randomdotsizeEA","equaldotanddens","equaldotsize","equaldotanddens","equaldotsize","randomdotsizeEA","randomdotsizeEA","randomdotsizeEA","randomdotsizeEA","randomdotsizeEA","randomdotsizeEA","randomdotsizeEA","equaldotanddens","equaldotsize","equaldotanddens","randomdotsizeEA","randomdotsizeEA","equaldotsize","equaldotsize","randomdotsizeEA","equaldotanddens","equaldotanddens","equaldotanddens","equaldotanddens","equaldotanddens","equaldotsize","equaldotsize","randomdotsizeEA","randomdotsizeEA","randomdotsizeEA","equaldotsize","randomdotsizeEA","equaldotsize","equaldotanddens","equaldotanddens","equaldotanddens","randomdotsizeEA","equaldotsize","equaldotanddens","equaldotsize","randomdotsizeEA","equaldotanddens","equaldotsize","equaldotsize","randomdotsizeEA"],"ratio_trial":[750,500,900,250,750,500,250,900,250,900,250,250,500,900,250,500,250,500,250,900,750,250,250,900,250,500,250,750,900,500,900,500,750,750,750,900,500,250,250,500,900,900,500,750,750,750,500,500,750,750,750,750,900,500,250,900,500,900,900,750,750,900,250,500,250,500,750,750,250,500,250,250,900,500,500,900,900,900,500,250,900,500,250,250,500,900,900,250,500,750,900,750,500,500,750,500,900,900,750,500,900,750,750,750,750,250,250,500,750,250,750,750,250,900,250,500,900,250,900,750],"smaller_num":["6","6","18","3","3","6","1","9","2","9","3","2","9","18","6","4","3","10","2","9","3","2","3","18","6","3","6","3","9","4","18","2","15","15","9","18","1","3","5","4","18","9","9","15","15","9","5","9","6","15","3","15","18","2","3","18","4","18","18","9","12","18","1","10","4","9","3","15","6","4","6","5","9","6","6","9","9","9","3","2","18","2","3","6","9","18","18","2","9","3","18","6","9","4","3","5","18","18","6","9","9","3","18","18","3","2","2","2","6","3","15","15","4","18","2","9","9","3","18","3"],"larger_num":["8","12","20","12","4","12","4","10","8","10","12","8","18","20","24","8","12","20","8","10","4","8","12","20","24","6","24","4","10","8","20","4","20","20","12","20","2","12","20","8","20","10","18","20","20","12","10","18","8","20","4","20","20","4","12","20","8","20","20","12","16","20","4","20","16","18","4","20","24","8","24","20","10","12","12","10","10","10","6","8","20","4","12","24","18","20","20","8","18","4","20","8","18","8","4","10","20","20","8","18","10","4","24","24","4","8","8","4","8","12","20","20","16","20","8","18","10","12","20","4"],"correct_side":[2,1,1,2,1,1,2,2,2,1,1,1,2,1,2,1,1,2,1,2,1,1,2,1,1,2,1,1,2,1,1,2,1,1,2,1,2,1,2,1,1,2,2,1,2,2,1,2,1,2,2,2,2,1,1,1,1,1,1,2,2,1,2,2,1,2,1,2,2,1,1,2,2,1,1,2,2,2,2,2,2,2,2,1,2,1,2,1,2,1,1,2,1,1,1,2,2,2,1,2,1,2,1,1,2,2,1,1,1,1,2,2,2,1,1,2,1,1,1,1],"img_shown":["img/750/equaldotsize/R/2_Ratio_750_L_6_R_8.png","img/500/equaldotsize/L/13_Ratio_500_L_12_R_6.png","img/900/randomdotsizeEA/L/4_Ratio_900_L_20_R_18.png","img/250/equaldotsize/R/9_Ratio_250_L_3_R_12.png","img/750/equaldotanddens/L/8_Ratio_750_L_4_R_3.png","img/500/equaldotanddens/L/11_Ratio_500_L_12_R_6.png","img/250/randomdotsizeEA/R/8_Ratio_250_L_1_R_4.png","img/900/equaldotsize/R/15_Ratio_900_L_9_R_10.png","img/250/equaldotanddens/R/13_Ratio_250_L_2_R_8.png","img/900/equaldotanddens/L/1_Ratio_900_L_10_R_9.png","img/250/equaldotsize/L/15_Ratio_250_L_12_R_3.png","img/250/randomdotsizeEA/L/1_Ratio_250_L_8_R_2.png","img/500/equaldotsize/R/1_Ratio_500_L_9_R_18.png","img/900/equaldotsize/L/10_Ratio_900_L_20_R_18.png","img/250/equaldotanddens/R/6_Ratio_250_L_6_R_24.png","img/500/randomdotsizeEA/L/8_Ratio_500_L_8_R_4.png","img/250/equaldotanddens/L/15_Ratio_250_L_12_R_3.png","img/500/equaldotsize/R/3_Ratio_500_L_10_R_20.png","img/250/equaldotanddens/L/3_Ratio_250_L_8_R_2.png","img/900/randomdotsizeEA/R/6_Ratio_900_L_9_R_10.png","img/750/equaldotsize/L/9_Ratio_750_L_4_R_3.png","img/250/equaldotanddens/L/3_Ratio_250_L_8_R_2.png","img/250/equaldotsize/R/4_Ratio_250_L_3_R_12.png","img/900/equaldotsize/L/10_Ratio_900_L_20_R_18.png","img/250/equaldotsize/L/5_Ratio_250_L_24_R_6.png","img/500/randomdotsizeEA/R/2_Ratio_500_L_3_R_6.png","img/250/randomdotsizeEA/L/5_Ratio_250_L_24_R_6.png","img/750/equaldotsize/L/8_Ratio_750_L_4_R_3.png","img/900/equaldotsize/R/15_Ratio_900_L_9_R_10.png","img/500/equaldotanddens/L/8_Ratio_500_L_8_R_4.png","img/900/equaldotsize/L/4_Ratio_900_L_20_R_18.png","img/500/equaldotsize/R/9_Ratio_500_L_2_R_4.png","img/750/randomdotsizeEA/L/1_Ratio_750_L_20_R_15.png","img/750/randomdotsizeEA/L/1_Ratio_750_L_20_R_15.png","img/750/equaldotanddens/R/15_Ratio_750_L_9_R_12.png","img/900/equaldotanddens/L/2_Ratio_900_L_20_R_18.png","img/500/equaldotanddens/R/15_Ratio_500_L_1_R_2.png","img/250/randomdotsizeEA/L/15_Ratio_250_L_12_R_3.png","img/250/equaldotsize/R/12_Ratio_250_L_5_R_20.png","img/500/randomdotsizeEA/L/8_Ratio_500_L_8_R_4.png","img/900/equaldotanddens/L/2_Ratio_900_L_20_R_18.png","img/900/equaldotanddens/R/3_Ratio_900_L_9_R_10.png","img/500/equaldotanddens/R/6_Ratio_500_L_9_R_18.png","img/750/equaldotanddens/L/1_Ratio_750_L_20_R_15.png","img/750/equaldotsize/R/4_Ratio_750_L_15_R_20.png","img/750/equaldotanddens/R/15_Ratio_750_L_9_R_12.png","img/500/randomdotsizeEA/L/7_Ratio_500_L_10_R_5.png","img/500/equaldotanddens/R/6_Ratio_500_L_9_R_18.png","img/750/equaldotanddens/L/13_Ratio_750_L_8_R_6.png","img/750/equaldotsize/R/3_Ratio_750_L_15_R_20.png","img/750/equaldotsize/R/12_Ratio_750_L_3_R_4.png","img/750/equaldotsize/R/5_Ratio_750_L_15_R_20.png","img/900/randomdotsizeEA/R/12_Ratio_900_L_18_R_20.png","img/500/randomdotsizeEA/L/10_Ratio_500_L_4_R_2.png","img/250/equaldotanddens/L/15_Ratio_250_L_12_R_3.png","img/900/equaldotsize/L/2_Ratio_900_L_20_R_18.png","img/500/equaldotsize/L/8_Ratio_500_L_8_R_4.png","img/900/equaldotanddens/L/8_Ratio_900_L_20_R_18.png","img/900/randomdotsizeEA/L/10_Ratio_900_L_20_R_18.png","img/750/equaldotanddens/R/15_Ratio_750_L_9_R_12.png","img/750/equaldotsize/R/11_Ratio_750_L_12_R_16.png","img/900/equaldotsize/L/10_Ratio_900_L_20_R_18.png","img/250/equaldotanddens/R/8_Ratio_250_L_1_R_4.png","img/500/equaldotsize/R/3_Ratio_500_L_10_R_20.png","img/250/randomdotsizeEA/L/2_Ratio_250_L_16_R_4.png","img/500/equaldotanddens/R/6_Ratio_500_L_9_R_18.png","img/750/equaldotsize/L/8_Ratio_750_L_4_R_3.png","img/750/randomdotsizeEA/R/3_Ratio_750_L_15_R_20.png","img/250/randomdotsizeEA/R/6_Ratio_250_L_6_R_24.png","img/500/equaldotanddens/L/8_Ratio_500_L_8_R_4.png","img/250/equaldotanddens/L/5_Ratio_250_L_24_R_6.png","img/250/randomdotsizeEA/R/12_Ratio_250_L_5_R_20.png","img/900/randomdotsizeEA/R/5_Ratio_900_L_9_R_10.png","img/500/randomdotsizeEA/L/11_Ratio_500_L_12_R_6.png","img/500/randomdotsizeEA/L/11_Ratio_500_L_12_R_6.png","img/900/randomdotsizeEA/R/6_Ratio_900_L_9_R_10.png","img/900/equaldotanddens/R/15_Ratio_900_L_9_R_10.png","img/900/equaldotsize/R/7_Ratio_900_L_9_R_10.png","img/500/equaldotanddens/R/2_Ratio_500_L_3_R_6.png","img/250/equaldotsize/R/13_Ratio_250_L_2_R_8.png","img/900/randomdotsizeEA/R/12_Ratio_900_L_18_R_20.png","img/500/randomdotsizeEA/R/9_Ratio_500_L_2_R_4.png","img/250/randomdotsizeEA/R/4_Ratio_250_L_3_R_12.png","img/250/randomdotsizeEA/L/5_Ratio_250_L_24_R_6.png","img/500/randomdotsizeEA/R/6_Ratio_500_L_9_R_18.png","img/900/randomdotsizeEA/L/8_Ratio_900_L_20_R_18.png","img/900/randomdotsizeEA/R/11_Ratio_900_L_18_R_20.png","img/250/equaldotanddens/L/3_Ratio_250_L_8_R_2.png","img/500/equaldotsize/R/6_Ratio_500_L_9_R_18.png","img/750/equaldotanddens/L/9_Ratio_750_L_4_R_3.png","img/900/randomdotsizeEA/L/4_Ratio_900_L_20_R_18.png","img/750/randomdotsizeEA/R/2_Ratio_750_L_6_R_8.png","img/500/equaldotsize/L/4_Ratio_500_L_18_R_9.png","img/500/equaldotsize/L/8_Ratio_500_L_8_R_4.png","img/750/randomdotsizeEA/L/9_Ratio_750_L_4_R_3.png","img/500/equaldotanddens/R/14_Ratio_500_L_5_R_10.png","img/900/equaldotanddens/R/11_Ratio_900_L_18_R_20.png","img/900/equaldotanddens/R/13_Ratio_900_L_18_R_20.png","img/750/equaldotanddens/L/13_Ratio_750_L_8_R_6.png","img/500/equaldotanddens/R/6_Ratio_500_L_9_R_18.png","img/900/equaldotsize/L/1_Ratio_900_L_10_R_9.png","img/750/equaldotsize/R/7_Ratio_750_L_3_R_4.png","img/750/randomdotsizeEA/L/6_Ratio_750_L_24_R_18.png","img/750/randomdotsizeEA/L/6_Ratio_750_L_24_R_18.png","img/750/randomdotsizeEA/R/7_Ratio_750_L_3_R_4.png","img/250/equaldotsize/R/13_Ratio_250_L_2_R_8.png","img/250/randomdotsizeEA/L/7_Ratio_250_L_8_R_2.png","img/500/equaldotsize/L/5_Ratio_500_L_4_R_2.png","img/750/equaldotanddens/L/13_Ratio_750_L_8_R_6.png","img/250/equaldotanddens/L/14_Ratio_250_L_12_R_3.png","img/750/equaldotanddens/R/3_Ratio_750_L_15_R_20.png","img/750/randomdotsizeEA/R/4_Ratio_750_L_15_R_20.png","img/250/equaldotsize/R/10_Ratio_250_L_4_R_16.png","img/900/equaldotanddens/L/8_Ratio_900_L_20_R_18.png","img/250/equaldotsize/L/7_Ratio_250_L_8_R_2.png","img/500/randomdotsizeEA/R/6_Ratio_500_L_9_R_18.png","img/900/equaldotanddens/L/1_Ratio_900_L_10_R_9.png","img/250/equaldotsize/L/14_Ratio_250_L_12_R_3.png","img/900/equaldotsize/L/4_Ratio_900_L_20_R_18.png","img/750/randomdotsizeEA/L/9_Ratio_750_L_4_R_3.png"],"Rat0":[["12_Ratio_0_L_9_R_0.png","13_Ratio_0_L_6_R_0.png","5_Ratio_0_L_2_R_0.png","6_Ratio_0_L_4_R_0.png","8_Ratio_0_L_6_R_0.png"],["1_Ratio_0_L_0_R_17.png","10_Ratio_0_L_0_R_22.png","11_Ratio_0_L_0_R_1.png","14_Ratio_0_L_0_R_24.png","15_Ratio_0_L_0_R_4.png","2_Ratio_0_L_0_R_5.png","3_Ratio_0_L_0_R_17.png","4_Ratio_0_L_0_R_7.png","7_Ratio_0_L_0_R_19.png","9_Ratio_0_L_0_R_15.png"]],"Rat250":[["1_Ratio_250_L_8_R_2.png","14_Ratio_250_L_12_R_3.png","15_Ratio_250_L_12_R_3.png","2_Ratio_250_L_16_R_4.png","3_Ratio_250_L_8_R_2.png","5_Ratio_250_L_24_R_6.png","7_Ratio_250_L_8_R_2.png"],["10_Ratio_250_L_4_R_16.png","11_Ratio_250_L_3_R_12.png","12_Ratio_250_L_5_R_20.png","13_Ratio_250_L_2_R_8.png","4_Ratio_250_L_3_R_12.png","6_Ratio_250_L_6_R_24.png","8_Ratio_250_L_1_R_4.png","9_Ratio_250_L_3_R_12.png"]],"Rat500":[["10_Ratio_500_L_4_R_2.png","11_Ratio_500_L_12_R_6.png","13_Ratio_500_L_12_R_6.png","4_Ratio_500_L_18_R_9.png","5_Ratio_500_L_4_R_2.png","7_Ratio_500_L_10_R_5.png","8_Ratio_500_L_8_R_4.png"],["1_Ratio_500_L_9_R_18.png","12_Ratio_500_L_1_R_2.png","14_Ratio_500_L_5_R_10.png","15_Ratio_500_L_1_R_2.png","2_Ratio_500_L_3_R_6.png","3_Ratio_500_L_10_R_20.png","6_Ratio_500_L_9_R_18.png","9_Ratio_500_L_2_R_4.png"]],"Rat750":[["1_Ratio_750_L_20_R_15.png","10_Ratio_750_L_4_R_3.png","13_Ratio_750_L_8_R_6.png","14_Ratio_750_L_8_R_6.png","6_Ratio_750_L_24_R_18.png","8_Ratio_750_L_4_R_3.png","9_Ratio_750_L_4_R_3.png"],["11_Ratio_750_L_12_R_16.png","12_Ratio_750_L_3_R_4.png","15_Ratio_750_L_9_R_12.png","2_Ratio_750_L_6_R_8.png","3_Ratio_750_L_15_R_20.png","4_Ratio_750_L_15_R_20.png","5_Ratio_750_L_15_R_20.png","7_Ratio_750_L_3_R_4.png"]],"Rat900":[["1_Ratio_900_L_10_R_9.png","10_Ratio_900_L_20_R_18.png","2_Ratio_900_L_20_R_18.png","4_Ratio_900_L_20_R_18.png","8_Ratio_900_L_20_R_18.png"],["11_Ratio_900_L_18_R_20.png","12_Ratio_900_L_18_R_20.png","13_Ratio_900_L_18_R_20.png","14_Ratio_900_L_18_R_20.png","15_Ratio_900_L_9_R_10.png","3_Ratio_900_L_9_R_10.png","5_Ratio_900_L_9_R_10.png","6_Ratio_900_L_9_R_10.png","7_Ratio_900_L_9_R_10.png","9_Ratio_900_L_18_R_20.png"]],"Rat1000":[["10_Ratio_1000_L_16_R_16.png","11_Ratio_1000_L_6_R_6.png","12_Ratio_1000_L_14_R_14.png","13_Ratio_1000_L_20_R_20.png","15_Ratio_1000_L_15_R_15.png","2_Ratio_1000_L_17_R_17.png","4_Ratio_1000_L_9_R_9.png","5_Ratio_1000_L_6_R_6.png","6_Ratio_1000_L_19_R_19.png","8_Ratio_1000_L_14_R_14.png","9_Ratio_1000_L_25_R_25.png"],["1_Ratio_1000_L_1_R_1.png","14_Ratio_1000_L_17_R_17.png","3_Ratio_1000_L_17_R_17.png","7_Ratio_1000_L_6_R_6.png"]]}},{"start_time":1551801348832,"click_time":1551801349962,"finger_time":1551801349421,"fix_duration":1050.6921912082996,"trial":1,"RT":589,"MT":541,"sideResp":1,"stimulus":"img/500/equaldotsize/L/13_Ratio_500_L_12_R_6.png","xmouse":[784,784,784,784,784,784,784,784,784,784,784,784,784,784,784,784,784,784,784,784,784,784,784,783,783,781,780,772,761,745,732,705,695,684,674,665,649,646,643,640,639,627,620,612,603,594,570,556,545,530,525,510,510,510,510,510,508],"ymouse":[539,539,539,539,539,539,539,539,539,539,539,539,539,539,539,539,539,539,539,539,539,539,539,532,528,522,516,500,481,455,433,389,368,349,331,313,286,281,275,268,265,239,226,214,202,192,174,162,153,135,130,109,108,108,108,108,97],"timestamp_mouse":[10,29,50,68,89,109,130,149,170,189,209,230,249,269,290,309,330,349,369,389,410,429,449,470,489,508,528,549,569,589,609,629,648,668,689,709,730,749,769,788,810,829,849,869,890,909,930,949,969,989,1009,1029,1048,1069,1088,1109,1130],"xSR":741.5,"ySR":469.95,"xT1":424.9,"yT1":0,"xT2":1058.1,"yT2":0,"toosoon":0,"cond_shown":"equaldotsize","ratio_trial":500,"smaller_num":"6","larger_num":"12","correct_side":1,"subjID":"angelbustos37","gender":"0","age":"11","school":"colegio cafam"},{"start_time":1551801352664,"click_time":1551801355162,"finger_time":1551801354561,"fix_duration":1481.8524474205585,"trial":2,"RT":1897,"MT":601,"sideResp":2,"stimulus":"img/900/randomdotsizeEA/L/4_Ratio_900_L_20_R_18.png","xmouse":[751,751,751,751,751,751,751,751,751,751,751,751,751,751,751,751,751,751,751,751,751,751,751,751,751,751,751,751,751,751,751,751,751,751,751,751,751,751,751,751,751,751,751,751,751,751,751,751,751,751,751,751,751,751,751,751,751,751,751,751,751,751,751,751,751,751,751,751,751,751,751,751,751,751,751,751,751,752,752,752,753,754,754,754,754,755,755,755,755,756,756,756,757,760,772,784,796,813,822,829,845,850,857,862,875,882,888,896,912,932,942,955,972,989,1020,1031,1039,1045,1050,1056,1062,1071,1079,1085,1095],"ymouse":[500,500,500,500,500,500,500,500,500,500,500,500,500,500,500,500,500,500,500,500,500,500,500,500,500,500,500,500,500,500,500,500,500,500,500,500,500,500,500,500,500,500,500,500,500,500,500,500,500,500,500,500,500,500,500,500,500,500,500,500,500,500,500,500,500,500,500,500,500,500,500,500,500,500,500,500,500,497,496,495,493,492,492,492,492,489,488,487,486,485,485,484,481,477,456,436,418,384,365,347,314,303,295,287,272,264,258,252,239,225,218,211,203,196,183,176,169,164,159,148,138,127,117,105,87],"timestamp_mouse":[29,37,57,78,96,118,137,157,178,197,217,238,258,278,298,318,337,358,377,397,417,438,458,477,497,517,538,558,576,598,618,637,657,677,696,718,737,756,778,797,817,837,858,878,897,918,938,957,977,997,1018,1038,1057,1078,1098,1118,1137,1157,1178,1196,1218,1238,1258,1278,1297,1317,1338,1357,1377,1398,1418,1438,1458,1476,1497,1518,1538,1557,1578,1597,1617,1637,1656,1677,1697,1717,1736,1757,1776,1797,1817,1836,1857,1877,1897,1917,1937,1956,1977,1998,2017,2037,2057,2077,2097,2116,2136,2157,2177,2197,2217,2237,2257,2277,2297,2317,2336,2358,2376,2398,2416,2437,2456,2476,2498],"xSR":741.5,"ySR":469.95,"xT1":424.9,"yT1":0,"xT2":1058.1,"yT2":0,"toosoon":0,"cond_shown":"randomdotsizeEA","ratio_trial":900,"smaller_num":"18","larger_num":"20","correct_side":1,"subjID":"angelbustos37","gender":"0","age":"11","school":"colegio cafam"},{"start_time":1551801357884,"click_time":1551801358961,"finger_time":1551801358581,"fix_duration":1000.7772260437458,"trial":3,"RT":697,"MT":380,"sideResp":2,"stimulus":"img/250/equaldotsize/R/9_Ratio_250_L_3_R_12.png","xmouse":[768,768,768,768,768,768,768,768,766,766,766,765,763,758,757,757,757,757,757,757,757,757,757,757,757,756,756,757,763,767,770,772,774,779,804,824,843,871,903,919,935,951,965,990,999,1007,1015,1031,1059,1073,1085,1090,1093,1095],"ymouse":[513,513,513,513,513,513,513,512,511,511,511,511,510,508,507,507,507,507,507,507,507,507,507,507,507,507,506,498,490,486,483,481,477,472,451,435,418,389,346,324,297,276,256,224,213,201,189,168,132,118,108,103,100,97],"timestamp_mouse":[17,39,56,77,98,118,138,157,178,197,216,237,258,277,297,317,337,357,378,397,416,438,457,476,498,517,538,557,577,598,617,638,658,677,697,717,737,757,778,797,817,837,857,877,896,917,937,957,977,997,1016,1036,1057,1077],"xSR":741.5,"ySR":469.95,"xT1":424.9,"yT1":0,"xT2":1058.1,"yT2":0,"toosoon":0,"cond_shown":"equaldotsize","ratio_trial":250,"smaller_num":"3","larger_num":"12","correct_side":2,"subjID":"angelbustos37","gender":"0","age":"11","school":"colegio cafam"},{"start_time":1551801360872,"click_time":1551801362061,"finger_time":1551801361501,"fix_duration":1108.2404705459526,"trial":4,"RT":629,"MT":560,"sideResp":1,"stimulus":"img/750/equaldotanddens/L/8_Ratio_750_L_4_R_3.png","xmouse":[816,816,816,816,816,816,816,816,816,816,816,816,816,816,816,816,816,816,816,816,816,816,816,816,816,816,808,796,784,765,759,753,749,744,730,721,709,698,686,669,662,654,645,636,615,604,592,572,566,544,539,537,537,537,537,537,537,534,534,510],"ymouse":[505,505,505,505,505,505,505,505,505,505,505,505,505,505,505,505,505,505,505,505,505,505,505,505,505,505,503,497,491,478,473,466,461,456,441,430,416,399,382,344,325,306,284,262,212,187,162,128,118,88,85,84,84,84,84,84,84,83,83,74],"timestamp_mouse":[9,35,50,69,90,109,129,149,170,189,210,230,249,268,289,309,330,350,369,389,408,430,449,469,490,508,530,549,568,590,609,629,650,670,690,709,728,749,769,789,809,829,849,869,889,909,928,949,969,990,1009,1029,1048,1069,1089,1109,1129,1149,1170,1189],"xSR":741.5,"ySR":469.95,"xT1":424.9,"yT1":0,"xT2":1058.1,"yT2":0,"toosoon":0,"cond_shown":"equaldotanddens","ratio_trial":750,"smaller_num":"3","larger_num":"4","correct_side":1,"subjID":"angelbustos37","gender":"0","age":"11","school":"colegio cafam"},{"start_time":1551801363554,"click_time":1551801364563,"finger_time":1551801364222,"fix_duration":491.2577151923395,"trial":5,"RT":668,"MT":341,"sideResp":1,"stimulus":"img/500/equaldotanddens/L/11_Ratio_500_L_12_R_6.png","xmouse":[761,761,761,761,761,761,761,761,761,761,761,761,761,761,761,761,761,761,761,761,761,761,761,761,761,761,761,761,761,761,761,761,753,741,723,680,665,651,641,634,620,606,606,606,606,606,606,606,606,606,517],"ymouse":[502,502,502,502,502,502,502,502,502,502,502,502,502,502,502,502,502,502,502,502,502,502,502,502,502,502,502,502,502,502,502,502,483,461,427,335,288,239,181,129,38,5,5,5,5,5,5,5,5,5,4],"timestamp_mouse":[8,37,49,68,88,109,128,147,167,188,208,229,249,267,288,309,329,347,369,387,408,428,448,468,489,508,528,549,569,589,608,628,648,668,689,708,727,747,768,787,808,827,847,867,887,909,928,948,968,988,1009],"xSR":741.5,"ySR":469.95,"xT1":424.9,"yT1":0,"xT2":1058.1,"yT2":0,"toosoon":0,"cond_shown":"equaldotanddens","ratio_trial":500,"smaller_num":"6","larger_num":"12","correct_side":1,"subjID":"angelbustos37","gender":"0","age":"11","school":"colegio cafam"},{"start_time":1551801366401,"click_time":1551801368202,"finger_time":1551801367181,"fix_duration":478.28109515670945,"trial":6,"RT":780,"MT":1021,"sideResp":2,"stimulus":"img/250/randomdotsizeEA/R/8_Ratio_250_L_1_R_4.png","xmouse":[778,778,778,778,778,778,778,778,778,778,778,778,778,778,778,778,778,778,778,778,778,778,778,778,778,778,778,778,778,778,778,778,778,778,778,775,773,771,752,735,701,654,597,553,553,552,552,552,552,552,552,552,555,566,619,662,709,739,761,763,764,767,771,783,788,790,790,790,790,790,790,790,790,790,790,790,790,790,793,794,796,799,804,824,840,864,903,956,1010,1098,1124],"ymouse":[507,507,507,507,507,507,507,507,507,507,507,507,507,507,507,507,507,507,507,507,507,507,507,507,507,507,507,507,507,507,507,507,507,507,507,503,500,497,478,460,434,398,362,336,336,335,335,335,335,335,335,335,335,335,338,332,319,309,298,297,295,293,290,279,275,273,273,273,273,273,273,273,273,273,273,273,273,272,263,261,260,256,252,240,229,213,188,160,138,102,91],"timestamp_mouse":[8,21,40,61,81,101,121,141,161,181,201,221,240,261,281,301,320,340,360,381,401,421,441,461,482,501,521,541,561,582,600,620,642,662,680,701,722,740,761,780,802,820,841,861,881,901,920,941,962,981,1001,1021,1040,1060,1081,1100,1121,1141,1161,1181,1201,1221,1242,1261,1280,1301,1321,1341,1361,1381,1401,1421,1441,1461,1480,1501,1522,1540,1562,1580,1601,1620,1641,1661,1681,1700,1721,1741,1760,1781,1801],"xSR":741.5,"ySR":469.95,"xT1":424.9,"yT1":0,"xT2":1058.1,"yT2":0,"toosoon":0,"cond_shown":"randomdotsizeEA","ratio_trial":250,"smaller_num":"1","larger_num":"4","correct_side":2,"subjID":"angelbustos37","gender":"0","age":"11","school":"colegio cafam"},{"start_time":1551801371114,"click_time":1551801372343,"finger_time":1551801371861,"fix_duration":1491.8398239582066,"trial":7,"RT":747,"MT":482,"sideResp":2,"stimulus":"img/900/equaldotsize/R/15_Ratio_900_L_9_R_10.png","xmouse":[772,772,772,772,772,772,772,772,772,772,772,772,772,772,772,772,772,772,772,772,772,772,772,772,772,772,772,772,772,772,772,773,773,773,773,773,775,780,791,798,804,814,830,837,842,846,858,886,904,927,950,975,1006,1015,1022,1028,1034,1042,1046,1052,1058,1062],"ymouse":[485,485,485,485,485,485,485,485,485,485,485,485,485,485,485,485,485,485,485,485,485,485,485,485,485,485,485,485,485,485,485,485,485,484,482,481,475,468,447,435,421,404,375,364,355,348,332,299,277,248,221,191,156,145,134,127,121,115,112,107,103,99],"timestamp_mouse":[8,30,48,69,88,109,128,149,168,189,208,229,248,268,288,309,327,349,368,387,408,428,447,468,487,509,527,549,567,587,608,627,648,667,688,709,728,747,768,789,809,829,848,867,887,908,929,948,967,988,1009,1028,1048,1067,1087,1108,1128,1148,1168,1188,1207,1229],"xSR":741.5,"ySR":469.95,"xT1":424.9,"yT1":0,"xT2":1058.1,"yT2":0,"toosoon":0,"cond_shown":"equaldotsize","ratio_trial":900,"smaller_num":"9","larger_num":"10","correct_side":2,"subjID":"angelbustos37","gender":"0","age":"11","school":"colegio cafam"},{"start_time":1551801374014,"click_time":1551801375143,"finger_time":1551801374643,"fix_duration":351.469441842703,"trial":8,"RT":629,"MT":500,"sideResp":2,"stimulus":"img/250/equaldotanddens/R/13_Ratio_250_L_2_R_8.png","xmouse":[757,757,757,757,757,757,757,757,757,757,757,757,757,757,757,757,757,757,757,757,757,757,757,757,757,757,757,757,759,762,766,773,781,805,822,844,861,890,897,899,901,903,921,933,945,957,966,986,994,1005,1011,1022,1037,1044,1053,1061,1069],"ymouse":[488,488,488,488,488,488,488,488,488,488,488,488,488,488,488,488,488,488,488,488,488,488,488,488,488,488,488,488,485,480,475,466,455,427,408,382,358,316,307,302,299,294,271,257,241,227,218,198,188,175,165,152,134,125,114,104,96],"timestamp_mouse":[10,30,48,69,89,108,127,148,168,188,208,229,248,268,287,308,327,347,368,389,407,427,448,468,487,507,528,547,568,588,608,629,648,667,689,709,727,749,767,788,807,829,848,867,888,908,928,948,968,988,1009,1028,1049,1067,1088,1107,1129],"xSR":741.5,"ySR":469.95,"xT1":424.9,"yT1":0,"xT2":1058.1,"yT2":0,"toosoon":0,"cond_shown":"equaldotanddens","ratio_trial":250,"smaller_num":"2","larger_num":"8","correct_side":2,"subjID":"angelbustos37","gender":"0","age":"11","school":"colegio cafam"},{"start_time":1551801376615,"click_time":1551801378023,"finger_time":1551801377442,"fix_duration":452.3973821201196,"trial":9,"RT":827,"MT":581,"sideResp":2,"stimulus":"img/900/equaldotanddens/L/1_Ratio_900_L_10_R_9.png","xmouse":[798,798,798,798,798,798,798,798,798,798,798,798,798,798,798,798,798,798,798,798,798,798,798,798,798,798,798,798,798,798,798,798,798,798,798,797,797,797,795,795,794,794,794,798,808,819,834,855,866,877,895,906,915,939,956,975,994,1025,1034,1040,1043,1046,1048,1050,1051,1053,1059,1075,1079,1082,1084],"ymouse":[489,489,489,489,489,489,489,489,489,489,489,489,489,489,489,489,489,489,489,489,489,489,489,489,489,489,489,489,489,489,489,489,488,486,485,482,481,479,476,474,471,468,458,451,439,425,406,370,348,329,299,279,265,237,222,208,191,160,147,138,134,129,127,125,123,122,117,105,102,100,99],"timestamp_mouse":[8,27,48,67,87,108,127,147,166,188,207,227,247,268,286,306,327,348,366,387,408,426,446,467,488,506,528,546,568,586,607,628,647,667,687,706,727,748,768,787,806,827,847,866,887,906,928,947,966,987,1006,1027,1047,1068,1087,1107,1128,1148,1167,1187,1207,1226,1247,1267,1288,1308,1326,1347,1367,1387,1408],"xSR":741.5,"ySR":469.95,"xT1":424.9,"yT1":0,"xT2":1058.1,"yT2":0,"toosoon":0,"cond_shown":"equaldotanddens","ratio_trial":900,"smaller_num":"9","larger_num":"10","correct_side":1,"subjID":"angelbustos37","gender":"0","age":"11","school":"colegio cafam"},{"start_time":1551801380445,"click_time":1551801381563,"finger_time":1551801381062,"fix_duration":662.387614901852,"trial":10,"RT":617,"MT":501,"sideResp":1,"stimulus":"img/250/equaldotsize/L/15_Ratio_250_L_12_R_3.png","xmouse":[794,794,794,794,794,794,794,794,794,794,794,794,794,794,794,794,794,794,794,794,794,794,794,794,794,794,794,794,789,786,747,708,690,679,670,654,647,640,620,610,593,592,592,591,591,591,588,582,573,560,536,527,520,514,512,506],"ymouse":[512,512,512,512,512,512,512,512,512,512,512,512,512,512,512,512,512,512,512,512,512,512,512,512,512,512,512,512,509,503,442,396,374,358,342,305,285,266,236,224,206,205,205,205,204,204,202,193,181,168,136,124,114,106,100,90],"timestamp_mouse":[32,38,56,76,97,117,137,156,177,196,216,237,257,277,297,317,337,357,378,397,416,437,458,476,496,517,537,557,576,597,617,636,656,677,698,717,737,756,776,796,818,838,857,877,898,916,936,957,976,996,1017,1037,1057,1078,1097,1118],"xSR":741.5,"ySR":469.95,"xT1":424.9,"yT1":0,"xT2":1058.1,"yT2":0,"toosoon":0,"cond_shown":"equaldotsize","ratio_trial":250,"smaller_num":"3","larger_num":"12","correct_side":1,"subjID":"angelbustos37","gender":"0","age":"11","school":"colegio cafam"},{"start_time":1551801383928,"click_time":1551801385302,"finger_time":1551801384421,"fix_duration":1284.47840855563,"trial":11,"RT":493,"MT":881,"sideResp":1,"stimulus":"img/250/randomdotsizeEA/L/1_Ratio_250_L_8_R_2.png","xmouse":[780,780,780,780,780,780,780,780,780,780,780,780,780,780,780,780,780,780,780,780,780,780,779,776,775,773,772,772,772,772,772,776,779,784,790,802,830,845,861,878,888,901,902,902,902,902,902,896,865,803,724,565,518,488,460,453,426,417,409,406,406,406,406,406,407,409,419,422,426],"ymouse":[487,487,487,487,487,487,487,487,487,487,487,487,487,487,487,487,487,487,487,487,487,487,479,473,467,463,459,459,458,454,451,438,432,421,409,384,347,330,315,300,289,272,270,269,269,269,269,267,263,254,244,225,218,210,197,192,157,140,128,123,121,121,119,114,109,107,99,97,94],"timestamp_mouse":[14,45,54,73,94,114,133,155,173,193,215,233,254,275,293,314,334,354,375,393,415,433,454,473,493,514,535,555,574,595,613,634,654,674,694,714,734,754,774,795,815,834,854,873,893,915,935,955,974,994,1014,1034,1053,1074,1093,1115,1134,1153,1174,1194,1213,1234,1253,1273,1294,1315,1334,1354,1373],"xSR":741.5,"ySR":469.95,"xT1":424.9,"yT1":0,"xT2":1058.1,"yT2":0,"toosoon":0,"cond_shown":"randomdotsizeEA","ratio_trial":250,"smaller_num":"2","larger_num":"8","correct_side":1,"subjID":"angelbustos37","gender":"0","age":"11","school":"colegio cafam"},{"start_time":1551801386538,"click_time":1551801387642,"finger_time":1551801387082,"fix_duration":353.0154680029982,"trial":12,"RT":544,"MT":560,"sideResp":2,"stimulus":"img/500/equaldotsize/R/1_Ratio_500_L_9_R_18.png","xmouse":[751,751,751,751,751,751,751,751,751,751,751,751,751,751,751,751,751,751,751,751,751,751,751,751,752,755,761,783,796,811,827,859,874,891,906,926,948,957,964,970,978,999,1008,1016,1021,1024,1029,1032,1040,1048,1054,1061,1062,1064,1065,1069],"ymouse":[507,507,507,507,507,507,507,507,507,507,507,507,507,507,507,507,507,507,507,507,507,507,507,507,505,501,493,466,451,434,414,368,346,323,302,275,244,234,225,218,208,183,169,153,143,133,126,122,119,115,114,107,105,102,100,96],"timestamp_mouse":[8,23,43,63,84,103,124,145,164,184,205,225,245,263,284,303,325,344,364,383,405,423,443,463,483,503,523,544,564,585,603,625,644,663,685,704,724,744,763,785,804,824,843,863,884,904,924,944,964,984,1004,1024,1044,1063,1085,1104],"xSR":741.5,"ySR":469.95,"xT1":424.9,"yT1":0,"xT2":1058.1,"yT2":0,"toosoon":0,"cond_shown":"equaldotsize","ratio_trial":500,"smaller_num":"9","larger_num":"18","correct_side":2,"subjID":"angelbustos37","gender":"0","age":"11","school":"colegio cafam"},{"start_time":1551801388951,"click_time":1551801390363,"finger_time":1551801389562,"fix_duration":388.2394991527831,"trial":13,"RT":611,"MT":801,"sideResp":1,"stimulus":"img/900/equaldotsize/L/10_Ratio_900_L_20_R_18.png","xmouse":[789,789,789,789,789,789,789,789,789,789,789,789,789,789,789,789,789,789,789,789,789,789,789,789,789,789,789,789,781,775,739,729,724,722,721,719,716,708,697,686,661,652,645,641,637,623,613,606,602,599,592,583,570,554,535,532,532,532,532,532,532,532,532,532,531,526,525,523,521,519,515],"ymouse":[503,503,503,503,503,503,503,503,503,503,503,503,503,503,503,503,503,503,503,503,503,503,503,503,503,503,503,503,496,490,462,455,450,447,445,440,435,424,407,388,346,332,322,316,305,280,267,256,248,242,220,203,183,162,136,131,131,131,131,131,131,131,131,131,129,117,114,109,106,101,94],"timestamp_mouse":[11,39,51,71,91,111,131,151,171,190,211,232,252,271,291,312,332,350,370,392,411,430,450,471,490,510,532,551,571,592,611,631,650,671,691,711,730,751,772,790,811,830,850,872,891,911,931,950,971,991,1011,1030,1052,1071,1091,1111,1131,1152,1171,1192,1211,1231,1251,1272,1291,1311,1330,1351,1370,1391,1412],"xSR":741.5,"ySR":469.95,"xT1":424.9,"yT1":0,"xT2":1058.1,"yT2":0,"toosoon":0,"cond_shown":"equaldotsize","ratio_trial":900,"smaller_num":"18","larger_num":"20","correct_side":1,"subjID":"angelbustos37","gender":"0","age":"11","school":"colegio cafam"},{"start_time":1551801391738,"click_time":1551801392823,"finger_time":1551801392302,"fix_duration":275.0951018337407,"trial":14,"RT":564,"MT":521,"sideResp":2,"stimulus":"img/250/equaldotanddens/R/6_Ratio_250_L_6_R_24.png","xmouse":[788,788,788,788,788,788,788,788,788,788,788,788,788,788,788,788,788,788,788,788,788,788,788,788,788,788,788,800,813,825,835,859,868,880,891,903,937,946,950,952,952,955,972,994,1009,1019,1027,1039,1047,1055,1063,1084,1092,1099,1103],"ymouse":[489,489,489,489,489,489,489,489,489,489,489,489,489,489,489,489,489,489,489,489,489,489,489,489,489,489,489,475,460,448,435,401,387,369,349,332,290,279,273,271,270,265,244,224,212,203,194,176,166,157,148,122,110,101,92],"timestamp_mouse":[8,37,43,64,83,105,123,144,164,184,204,225,244,264,285,303,325,343,363,384,404,425,444,464,483,505,525,544,564,583,605,624,644,663,684,703,724,757,764,784,804,824,843,864,885,904,923,943,964,983,1004,1024,1044,1064,1085],"xSR":741.5,"ySR":469.95,"xT1":424.9,"yT1":0,"xT2":1058.1,"yT2":0,"toosoon":0,"cond_shown":"equaldotanddens","ratio_trial":250,"smaller_num":"6","larger_num":"24","correct_side":2,"subjID":"angelbustos37","gender":"0","age":"11","school":"colegio cafam"},{"start_time":1551801394043,"click_time":1551801395462,"finger_time":1551801394843,"fix_duration":260.63208337212865,"trial":15,"RT":800,"MT":619,"sideResp":1,"stimulus":"img/500/randomdotsizeEA/L/8_Ratio_500_L_8_R_4.png","xmouse":[787,787,787,787,787,787,787,787,787,787,787,787,787,787,787,787,787,787,787,787,787,787,787,787,787,787,787,787,786,786,787,787,787,788,788,790,791,794,797,798,797,786,771,752,730,697,685,677,672,670,665,663,659,655,649,628,616,598,595,578,570,553,548,546,545,545,545,545,542,530,512],"ymouse":[509,509,509,509,509,509,509,509,509,509,509,509,509,509,509,509,509,509,509,509,509,509,509,509,509,509,509,509,506,501,498,497,496,494,493,489,485,478,470,464,445,430,412,393,374,340,321,303,285,262,234,219,207,196,187,170,164,154,152,142,137,124,119,117,116,116,116,113,109,97,85],"timestamp_mouse":[30,39,59,78,100,118,140,160,179,199,220,239,260,279,299,319,338,359,380,398,420,438,460,479,500,519,540,560,579,598,619,639,658,678,699,719,738,760,778,800,819,838,859,879,899,919,939,959,980,999,1019,1038,1059,1079,1099,1120,1139,1158,1180,1200,1218,1240,1259,1279,1298,1319,1338,1359,1379,1400,1419],"xSR":741.5,"ySR":469.95,"xT1":424.9,"yT1":0,"xT2":1058.1,"yT2":0,"toosoon":0,"cond_shown":"randomdotsizeEA","ratio_trial":500,"smaller_num":"4","larger_num":"8","correct_side":1,"subjID":"angelbustos37","gender":"0","age":"11","school":"colegio cafam"},{"start_time":1551801396834,"click_time":1551801397962,"finger_time":1551801397442,"fix_duration":250,"trial":16,"RT":608,"MT":520,"sideResp":1,"stimulus":"img/250/equaldotanddens/L/15_Ratio_250_L_12_R_3.png","xmouse":[789,789,789,789,789,789,789,789,789,789,789,789,789,789,789,789,789,789,789,789,789,789,789,789,789,789,789,789,789,788,779,735,693,657,630,611,598,593,592,591,591,588,583,577,573,569,561,555,549,540,526,519,515,513,513,513,510],"ymouse":[482,482,482,482,482,482,482,482,482,482,482,482,482,482,482,482,482,482,482,482,482,482,482,482,482,482,482,482,482,483,469,408,366,332,307,287,269,259,258,254,252,243,232,221,210,200,177,164,153,140,122,112,105,103,103,103,96],"timestamp_mouse":[8,27,47,68,88,108,128,149,167,187,208,227,249,267,287,308,328,348,367,388,407,428,448,467,487,509,528,548,567,589,608,628,647,668,689,708,728,747,768,789,808,828,847,868,888,908,928,948,967,988,1008,1027,1048,1068,1087,1109,1128],"xSR":741.5,"ySR":469.95,"xT1":424.9,"yT1":0,"xT2":1058.1,"yT2":0,"toosoon":0,"cond_shown":"equaldotanddens","ratio_trial":250,"smaller_num":"3","larger_num":"12","correct_side":1,"subjID":"angelbustos37","gender":"0","age":"11","school":"colegio cafam"},{"start_time":1551801399262,"click_time":1551801400381,"finger_time":1551801399842,"fix_duration":257.65320066325336,"trial":17,"RT":580,"MT":539,"sideResp":2,"stimulus":"img/500/equaldotsize/R/3_Ratio_500_L_10_R_20.png","xmouse":[824,824,824,824,824,824,824,824,824,824,824,824,824,824,824,824,824,824,824,824,824,824,824,824,824,824,828,833,840,854,874,881,888,893,898,918,928,939,956,966,985,994,1001,1008,1015,1027,1032,1036,1040,1050,1060,1063,1064,1065,1067,1077,1083],"ymouse":[501,501,501,501,501,501,501,501,501,501,501,501,501,501,501,501,501,501,501,501,501,501,501,501,501,501,495,485,472,449,422,413,402,393,380,349,336,321,298,283,254,239,227,218,208,190,179,170,161,144,129,125,124,122,119,106,98],"timestamp_mouse":[7,29,40,60,79,100,119,140,160,180,199,220,239,260,280,300,319,340,359,379,400,420,439,460,480,500,520,541,561,580,601,619,640,660,680,700,720,739,760,780,800,820,839,860,880,900,919,940,960,980,1000,1019,1040,1059,1080,1101,1119],"xSR":741.5,"ySR":469.95,"xT1":424.9,"yT1":0,"xT2":1058.1,"yT2":0,"toosoon":0,"cond_shown":"equaldotsize","ratio_trial":500,"smaller_num":"10","larger_num":"20","correct_side":2,"subjID":"angelbustos37","gender":"0","age":"11","school":"colegio cafam"},{"start_time":1551801402358,"click_time":1551801403563,"finger_time":1551801402943,"fix_duration":1215.1829757659414,"trial":18,"RT":585,"MT":620,"sideResp":1,"stimulus":"img/250/equaldotanddens/L/3_Ratio_250_L_8_R_2.png","xmouse":[824,824,824,824,824,824,824,824,824,824,824,824,824,824,824,824,824,824,824,824,824,824,824,824,824,824,823,816,806,777,738,673,655,641,635,633,633,633,633,633,626,621,614,606,595,582,577,573,568,561,543,536,532,530,530,530,530,530,530,527,517],"ymouse":[503,503,503,503,503,503,503,503,503,503,503,503,503,503,503,503,503,503,503,503,503,503,503,503,503,503,503,498,485,464,434,388,371,358,349,346,346,346,346,345,329,314,300,283,255,227,211,197,183,166,136,125,116,110,110,110,110,109,109,104,87],"timestamp_mouse":[8,33,44,64,85,104,124,145,163,185,204,225,244,264,284,304,325,344,364,384,403,424,443,465,484,503,525,543,564,585,603,624,644,665,683,704,723,743,763,784,804,824,843,863,884,904,923,944,964,984,1005,1024,1043,1063,1084,1104,1124,1143,1163,1184,1204],"xSR":741.5,"ySR":469.95,"xT1":424.9,"yT1":0,"xT2":1058.1,"yT2":0,"toosoon":0,"cond_shown":"equaldotanddens","ratio_trial":250,"smaller_num":"2","larger_num":"8","correct_side":1,"subjID":"angelbustos37","gender":"0","age":"11","school":"colegio cafam"},{"start_time":1551801404972,"click_time":1551801408163,"finger_time":1551801405642,"fix_duration":426.23818023638415,"trial":19,"RT":670,"MT":2521,"sideResp":1,"stimulus":"img/900/randomdotsizeEA/R/6_Ratio_900_L_9_R_10.png","xmouse":[763,763,763,763,763,763,763,763,763,763,763,763,763,763,763,763,763,763,763,763,763,763,763,763,763,763,765,767,768,770,772,774,775,776,780,782,786,792,795,803,804,804,802,787,718,696,681,670,666,659,656,654,651,650,649,648,647,642,630,596,579,562,548,540,539,539,539,539,539,549,559,569,578,586,588,588,588,588,588,588,588,590,599,614,645,657,671,687,699,741,765,790,829,854,876,903,911,915,915,915,915,915,915,915,915,915,915,915,915,915,915,915,915,911,903,880,875,874,874,874,874,874,873,867,858,857,855,854,852,851,851,851,851,851,851,851,851,851,851,851,851,851,843,832,784,778,775,773,769,754,738,716,674,657,587,565,548,535,527,522],"ymouse":[490,490,490,490,490,490,490,490,490,490,490,490,490,490,490,490,490,490,490,490,490,490,490,490,490,491,488,483,481,479,475,472,471,468,460,455,448,439,429,410,401,394,380,360,299,284,270,259,251,229,218,210,205,202,200,199,197,193,186,166,156,145,136,130,129,129,129,129,127,125,125,124,121,117,116,116,116,116,116,116,115,114,114,114,114,114,114,114,114,114,114,114,114,114,114,114,114,113,113,113,113,113,113,113,113,113,113,113,113,113,113,113,113,114,116,142,155,155,155,155,155,155,155,153,149,149,150,153,162,178,181,181,181,181,181,181,181,181,181,181,181,181,175,163,120,116,113,112,108,102,96,90,76,71,61,58,55,53,52,50],"timestamp_mouse":[10,35,50,70,90,110,130,151,171,190,209,231,249,270,290,309,330,350,370,390,410,429,451,469,490,511,531,549,570,589,610,631,649,670,690,710,730,751,771,791,809,830,850,869,890,910,929,950,970,991,1010,1030,1051,1071,1091,1109,1130,1149,1170,1190,1209,1230,1250,1271,1290,1310,1331,1350,1369,1390,1410,1431,1450,1471,1490,1511,1530,1551,1570,1589,1610,1630,1650,1669,1690,1709,1730,1749,1771,1790,1809,1830,1850,1870,1890,1911,1931,1950,1969,1990,2009,2029,2050,2070,2090,2110,2130,2150,2171,2190,2211,2231,2250,2270,2290,2311,2330,2349,2370,2390,2411,2430,2451,2471,2490,2510,2529,2550,2570,2590,2610,2630,2650,2670,2691,2710,2729,2749,2771,2791,2810,2829,2849,2870,2890,2909,2930,2949,2970,2990,3009,3029,3051,3070,3090,3109,3130,3149,3169,3190],"xSR":741.5,"ySR":469.95,"xT1":424.9,"yT1":0,"xT2":1058.1,"yT2":0,"toosoon":0,"cond_shown":"randomdotsizeEA","ratio_trial":900,"smaller_num":"9","larger_num":"10","correct_side":2,"subjID":"angelbustos37","gender":"0","age":"11","school":"colegio cafam"},{"start_time":1551801410163,"click_time":1551801411123,"finger_time":1551801410702,"fix_duration":799.6291031374328,"trial":20,"RT":539,"MT":421,"sideResp":1,"stimulus":"img/750/equaldotsize/L/9_Ratio_750_L_4_R_3.png","xmouse":[773,773,773,773,773,773,773,773,773,773,773,773,773,773,773,773,773,773,773,773,773,773,773,773,773,767,756,743,727,685,663,649,635,618,583,576,573,569,566,557,553,548,544,538,531,529,525,523],"ymouse":[497,497,497,497,497,497,497,497,497,497,497,497,497,497,497,497,497,497,497,497,497,497,497,497,497,483,466,449,426,373,346,329,312,294,244,235,226,217,205,176,161,144,125,91,62,55,50,47],"timestamp_mouse":[28,38,59,80,99,118,139,160,179,199,219,239,258,280,298,319,340,360,380,399,419,439,459,478,499,518,539,559,579,599,618,638,659,680,699,718,739,759,778,800,818,840,859,879,899,918,939,960],"xSR":741.5,"ySR":469.95,"xT1":424.9,"yT1":0,"xT2":1058.1,"yT2":0,"toosoon":0,"cond_shown":"equaldotsize","ratio_trial":750,"smaller_num":"3","larger_num":"4","correct_side":1,"subjID":"angelbustos37","gender":"0","age":"11","school":"colegio cafam"},{"start_time":1551801412094,"click_time":1551801412862,"finger_time":1551801412623,"fix_duration":250,"trial":21,"RT":529,"MT":239,"sideResp":1,"stimulus":"img/250/equaldotanddens/L/3_Ratio_250_L_8_R_2.png","xmouse":[783,783,783,783,783,783,783,783,783,783,783,783,783,783,783,783,783,783,783,783,783,783,783,783,780,767,749,707,669,598,564,534,517,495,491,488,485,482,477],"ymouse":[504,504,504,504,504,504,504,504,504,504,504,504,504,504,504,504,504,504,504,504,504,504,504,504,496,476,452,398,348,265,229,198,175,144,132,125,116,103,92],"timestamp_mouse":[9,29,48,68,89,107,128,149,167,189,208,229,248,269,288,308,327,349,368,388,408,428,448,469,488,509,529,548,568,589,608,629,648,668,688,708,729,749,768],"xSR":741.5,"ySR":469.95,"xT1":424.9,"yT1":0,"xT2":1058.1,"yT2":0,"toosoon":0,"cond_shown":"equaldotanddens","ratio_trial":250,"smaller_num":"2","larger_num":"8","correct_side":1,"subjID":"angelbustos37","gender":"0","age":"11","school":"colegio cafam"},{"start_time":1551801415589,"click_time":1551801416602,"finger_time":1551801416182,"fix_duration":1145.5579584417467,"trial":22,"RT":593,"MT":420,"sideResp":2,"stimulus":"img/250/equaldotsize/R/4_Ratio_250_L_3_R_12.png","xmouse":[762,762,762,762,762,762,762,762,762,762,762,762,762,762,762,762,762,762,762,762,762,762,762,762,762,762,763,766,771,800,820,840,862,911,926,940,949,958,972,980,985,992,1003,1015,1047,1067,1085,1102,1121,1125,1127],"ymouse":[481,481,481,481,481,481,481,481,481,481,481,481,481,481,481,481,481,481,481,481,481,481,481,481,481,481,481,479,471,437,416,388,361,305,289,273,264,256,240,233,227,220,204,188,152,136,126,116,103,100,98],"timestamp_mouse":[17,41,53,73,93,112,133,154,172,193,213,232,253,273,292,313,334,352,374,394,413,433,452,473,492,513,533,553,572,593,613,632,653,673,692,713,733,752,773,792,813,833,852,873,894,913,933,953,973,992,1012],"xSR":741.5,"ySR":469.95,"xT1":424.9,"yT1":0,"xT2":1058.1,"yT2":0,"toosoon":0,"cond_shown":"equaldotsize","ratio_trial":250,"smaller_num":"3","larger_num":"12","correct_side":2,"subjID":"angelbustos37","gender":"0","age":"11","school":"colegio cafam"},{"start_time":1551801418153,"click_time":1551801419182,"finger_time":1551801418782,"fix_duration":670.7110074508175,"trial":23,"RT":629,"MT":400,"sideResp":1,"stimulus":"img/900/equaldotsize/L/10_Ratio_900_L_20_R_18.png","xmouse":[783,783,783,783,783,783,783,783,783,783,783,783,783,783,783,783,783,783,783,783,782,781,778,775,771,769,766,766,765,764,763,758,753,747,734,705,685,663,644,627,615,598,587,584,578,570,566,561,554,547,531,523],"ymouse":[516,516,516,516,516,516,516,516,516,516,516,516,516,516,516,516,516,516,516,516,516,509,503,497,491,487,482,481,480,478,476,465,454,437,402,319,273,224,171,133,107,70,52,48,40,33,31,29,28,28,28,28],"timestamp_mouse":[10,37,48,70,90,109,129,149,169,190,208,228,249,268,290,309,329,350,368,390,408,429,450,470,488,508,529,549,569,589,608,629,649,668,689,709,729,749,768,789,809,829,849,869,889,909,929,949,970,988,1009,1029],"xSR":741.5,"ySR":469.95,"xT1":424.9,"yT1":0,"xT2":1058.1,"yT2":0,"toosoon":0,"cond_shown":"equaldotsize","ratio_trial":900,"smaller_num":"18","larger_num":"20","correct_side":1,"subjID":"angelbustos37","gender":"0","age":"11","school":"colegio cafam"},{"start_time":1551801420807,"click_time":1551801421802,"finger_time":1551801421243,"fix_duration":443.7351125227088,"trial":24,"RT":436,"MT":559,"sideResp":1,"stimulus":"img/250/equaldotsize/L/5_Ratio_250_L_24_R_6.png","xmouse":[767,767,767,767,767,767,767,767,767,767,767,767,767,767,767,767,767,767,767,761,756,745,728,720,710,700,686,641,618,599,585,573,568,549,539,526,510,493,477,477,477,486,491,491,491,490,487,485,485,485],"ymouse":[487,487,487,488,488,488,488,488,488,488,488,488,488,488,488,488,488,488,488,476,470,459,440,428,410,386,359,299,272,249,234,223,220,208,200,193,184,174,166,166,162,158,145,137,129,119,110,104,102,99],"timestamp_mouse":[16,36,55,74,96,115,135,155,176,195,216,235,255,274,295,315,335,355,376,395,415,436,455,474,496,515,535,555,575,594,616,635,654,675,695,715,736,755,774,795,814,836,855,875,895,915,935,955,974,995],"xSR":741.5,"ySR":469.95,"xT1":424.9,"yT1":0,"xT2":1058.1,"yT2":0,"toosoon":0,"cond_shown":"equaldotsize","ratio_trial":250,"smaller_num":"6","larger_num":"24","correct_side":1,"subjID":"angelbustos37","gender":"0","age":"11","school":"colegio cafam"},{"start_time":1551801424046,"click_time":1551801425202,"finger_time":1551801424842,"fix_duration":1382.2347201622426,"trial":25,"RT":796,"MT":360,"sideResp":2,"stimulus":"img/500/randomdotsizeEA/R/2_Ratio_500_L_3_R_6.png","xmouse":[785,785,785,785,785,785,785,785,785,785,785,785,785,785,785,785,785,785,785,785,785,785,785,785,785,785,785,785,785,785,785,785,785,785,785,788,795,802,813,833,868,889,908,924,939,962,972,981,991,1004,1024,1033,1042,1053,1062,1085,1099,1112],"ymouse":[516,516,516,516,516,516,516,516,516,516,516,516,516,516,516,516,516,516,516,516,516,516,516,516,516,516,516,516,516,516,516,516,516,516,516,510,497,487,472,450,408,385,365,347,332,308,294,282,271,257,233,221,204,182,160,121,104,88],"timestamp_mouse":[15,36,55,75,95,115,136,156,175,197,215,235,255,275,295,316,335,355,376,395,415,436,455,476,496,516,535,555,576,595,616,635,655,675,695,715,735,756,775,796,815,835,856,876,896,916,935,956,975,995,1016,1035,1056,1076,1096,1116,1135,1156],"xSR":741.5,"ySR":469.95,"xT1":424.9,"yT1":0,"xT2":1058.1,"yT2":0,"toosoon":0,"cond_shown":"randomdotsizeEA","ratio_trial":500,"smaller_num":"3","larger_num":"6","correct_side":2,"subjID":"angelbustos37","gender":"0","age":"11","school":"colegio cafam"},{"start_time":1551801427313,"click_time":1551801429262,"finger_time":1551801428722,"fix_duration":550.3125770792548,"trial":26,"RT":1409,"MT":540,"sideResp":1,"stimulus":"img/250/randomdotsizeEA/L/5_Ratio_250_L_24_R_6.png","xmouse":[769,769,769,769,769,769,769,769,769,769,769,769,769,769,769,769,769,769,769,769,769,769,769,769,769,769,769,769,769,769,769,769,769,769,769,769,769,769,769,769,769,769,769,769,769,769,769,769,769,769,769,769,769,769,769,769,769,769,769,769,770,771,772,774,774,775,775,767,756,744,733,724,721,720,717,715,710,699,676,667,661,657,650,648,645,640,630,623,611,603,597,591,573,563,552,537,533,512],"ymouse":[538,538,538,538,538,538,538,538,538,538,538,538,538,538,538,538,538,538,538,538,538,538,538,538,538,538,538,538,538,538,538,538,538,538,538,538,538,538,538,538,538,538,538,538,538,538,538,538,538,538,538,538,538,538,538,538,538,538,538,538,538,537,536,534,532,530,524,509,497,487,478,469,460,454,437,429,410,375,323,298,278,261,236,227,219,210,197,190,179,172,164,157,140,131,122,110,107,95],"timestamp_mouse":[8,29,48,69,88,108,129,149,168,189,208,228,249,269,289,308,328,349,368,388,409,430,449,469,489,508,529,549,569,589,609,629,648,668,688,709,729,748,769,789,810,828,849,869,889,909,929,948,969,989,1009,1030,1049,1069,1089,1109,1128,1148,1169,1189,1209,1230,1248,1268,1289,1309,1329,1348,1368,1389,1409,1428,1448,1468,1488,1509,1528,1549,1568,1589,1608,1628,1649,1669,1688,1708,1729,1748,1769,1788,1808,1829,1849,1868,1889,1909,1929,1949],"xSR":741.5,"ySR":469.95,"xT1":424.9,"yT1":0,"xT2":1058.1,"yT2":0,"toosoon":0,"cond_shown":"randomdotsizeEA","ratio_trial":250,"smaller_num":"6","larger_num":"24","correct_side":1,"subjID":"angelbustos37","gender":"0","age":"11","school":"colegio cafam"},{"start_time":1551801431267,"click_time":1551801432802,"finger_time":1551801432123,"fix_duration":1184.548881936227,"trial":27,"RT":856,"MT":679,"sideResp":1,"stimulus":"img/750/equaldotsize/L/8_Ratio_750_L_4_R_3.png","xmouse":[766,766,766,766,766,766,766,766,766,766,767,767,767,767,767,767,767,767,767,767,767,768,769,769,769,769,769,769,769,769,769,769,769,769,769,769,769,769,769,769,767,763,757,748,724,713,704,691,682,663,653,645,639,634,622,618,609,599,587,577,554,541,527,515,496,487,481,478,477,477,477,477,477,476,475,472,468],"ymouse":[497,497,497,497,497,497,497,497,497,497,498,498,498,498,498,498,498,498,498,498,498,499,499,499,499,499,499,499,499,499,499,499,499,499,499,499,499,499,499,499,486,475,461,448,415,401,389,371,359,332,321,311,303,295,277,273,259,246,224,211,182,170,158,149,136,130,126,123,122,122,122,122,122,120,118,108,98],"timestamp_mouse":[23,36,54,74,94,115,134,154,175,194,214,235,254,274,295,314,334,354,375,395,416,434,455,474,495,515,534,554,575,594,616,635,655,675,694,715,734,754,774,794,814,835,856,875,895,914,934,955,974,994,1014,1034,1054,1075,1095,1114,1134,1155,1174,1194,1214,1234,1255,1275,1295,1315,1334,1354,1374,1395,1415,1434,1454,1474,1494,1515,1535],"xSR":741.5,"ySR":469.95,"xT1":424.9,"yT1":0,"xT2":1058.1,"yT2":0,"toosoon":0,"cond_shown":"equaldotsize","ratio_trial":750,"smaller_num":"3","larger_num":"4","correct_side":1,"subjID":"angelbustos37","gender":"0","age":"11","school":"colegio cafam"},{"start_time":1551801433753,"click_time":1551801435361,"finger_time":1551801434521,"fix_duration":250,"trial":28,"RT":768,"MT":840,"sideResp":2,"stimulus":"img/900/equaldotsize/R/15_Ratio_900_L_9_R_10.png","xmouse":[769,769,769,769,769,769,769,769,769,769,769,769,769,769,769,769,769,769,769,769,769,769,769,769,769,769,769,769,769,769,769,769,769,770,774,795,808,824,839,849,866,874,884,895,910,922,926,929,931,937,947,950,952,955,956,962,965,967,969,971,976,977,979,983,989,998,1004,1008,1011,1013,1017,1022,1030,1037,1047,1055,1055,1055,1055,1055,1060],"ymouse":[525,525,525,525,525,525,525,525,525,525,525,525,525,525,525,525,525,525,525,525,525,525,525,525,525,525,525,525,525,525,525,525,525,525,522,497,484,470,458,447,420,406,388,370,343,313,302,290,283,270,255,251,246,240,232,207,198,191,182,175,160,155,150,144,135,120,114,109,106,104,103,100,97,93,87,80,80,80,80,80,78],"timestamp_mouse":[8,28,49,69,89,108,129,149,169,189,208,228,248,268,288,309,328,348,369,388,408,430,449,469,488,508,528,549,569,589,608,629,649,668,688,709,729,749,768,789,808,828,849,868,888,908,928,948,969,988,1008,1028,1049,1068,1089,1108,1128,1148,1169,1188,1209,1228,1248,1269,1288,1309,1328,1348,1368,1388,1409,1428,1449,1469,1488,1508,1529,1548,1569,1589,1608],"xSR":741.5,"ySR":469.95,"xT1":424.9,"yT1":0,"xT2":1058.1,"yT2":0,"toosoon":0,"cond_shown":"equaldotsize","ratio_trial":900,"smaller_num":"9","larger_num":"10","correct_side":2,"subjID":"angelbustos37","gender":"0","age":"11","school":"colegio cafam"},{"start_time":1551801437261,"click_time":1551801438781,"finger_time":1551801438141,"fix_duration":599.2592359564276,"trial":29,"RT":880,"MT":640,"sideResp":1,"stimulus":"img/500/equaldotanddens/L/8_Ratio_500_L_8_R_4.png","xmouse":[766,766,766,766,766,766,766,766,766,766,766,766,766,766,766,766,766,766,766,766,766,766,766,766,766,766,766,766,766,766,766,766,766,766,766,766,766,766,766,766,766,766,757,745,734,710,703,699,692,687,680,651,625,598,581,571,569,569,566,561,551,549,546,542,536,518,511,508,507,506,505,504,502,499,496,492,491],"ymouse":[538,538,538,538,538,538,538,538,538,538,538,538,538,538,538,538,538,538,538,538,538,538,538,538,538,538,538,538,538,538,538,538,538,538,538,538,538,538,538,538,538,535,517,504,488,455,440,431,410,392,370,318,288,262,244,233,231,229,226,219,209,205,201,195,187,164,152,149,146,143,137,131,125,117,108,100,97],"timestamp_mouse":[11,31,41,60,80,100,120,140,160,181,200,221,240,261,280,300,322,340,361,381,401,421,441,460,480,501,520,541,561,581,600,620,640,661,680,702,721,741,760,781,801,820,840,862,880,901,921,941,961,981,1001,1021,1040,1062,1080,1101,1120,1140,1161,1180,1200,1220,1240,1260,1280,1301,1320,1340,1361,1382,1401,1420,1440,1460,1480,1500,1520],"xSR":741.5,"ySR":469.95,"xT1":424.9,"yT1":0,"xT2":1058.1,"yT2":0,"toosoon":0,"cond_shown":"equaldotanddens","ratio_trial":500,"smaller_num":"4","larger_num":"8","correct_side":1,"subjID":"angelbustos37","gender":"0","age":"11","school":"colegio cafam"},{"start_time":1551801440386,"click_time":1551801441562,"finger_time":1551801441061,"fix_duration":384.4719582471555,"trial":30,"RT":675,"MT":501,"sideResp":2,"stimulus":"img/900/equaldotsize/L/4_Ratio_900_L_20_R_18.png","xmouse":[744,744,744,744,744,744,744,744,744,744,744,744,744,744,744,744,744,744,744,744,744,744,744,744,744,744,744,744,744,744,744,744,745,743,740,735,727,713,685,672,660,656,656,656,656,656,656,656,656,656,662,688,700,778,833,892,952,1005,1115],"ymouse":[482,482,482,482,482,482,482,482,482,482,482,482,482,482,482,482,482,482,482,482,482,482,482,482,482,482,482,482,482,482,482,482,482,461,447,427,402,372,316,293,277,269,269,269,269,269,269,269,269,269,267,263,260,227,197,162,122,81,13],"timestamp_mouse":[15,39,55,76,95,116,135,155,176,195,216,235,256,275,296,316,335,356,375,395,415,435,455,477,495,515,535,556,575,597,615,637,656,675,695,716,736,755,776,797,816,836,856,875,896,915,936,955,976,995,1016,1035,1055,1076,1095,1115,1135,1155,1175],"xSR":741.5,"ySR":469.95,"xT1":424.9,"yT1":0,"xT2":1058.1,"yT2":0,"toosoon":0,"cond_shown":"equaldotsize","ratio_trial":900,"smaller_num":"18","larger_num":"20","correct_side":1,"subjID":"angelbustos37","gender":"0","age":"11","school":"colegio cafam"},{"start_time":1551801443333,"click_time":1551801444203,"finger_time":1551801443861,"fix_duration":250,"trial":31,"RT":528,"MT":342,"sideResp":2,"stimulus":"img/500/equaldotsize/R/9_Ratio_500_L_2_R_4.png","xmouse":[767,767,767,767,767,767,767,767,767,767,767,767,767,767,767,767,767,767,767,767,767,767,767,767,767,769,776,789,793,794,794,794,794,794,794,794,794,814,835,871,923,1058,1111,1143],"ymouse":[475,475,475,475,475,475,475,475,475,475,475,475,475,475,475,475,475,475,475,475,475,475,475,475,475,475,460,430,421,418,417,417,417,417,417,417,416,391,371,337,280,146,101,70],"timestamp_mouse":[8,30,48,68,88,109,128,149,168,188,208,228,248,269,289,309,328,348,368,389,410,429,448,469,488,508,528,548,569,589,608,629,648,669,689,708,729,748,768,788,809,829,850,870],"xSR":741.5,"ySR":469.95,"xT1":424.9,"yT1":0,"xT2":1058.1,"yT2":0,"toosoon":0,"cond_shown":"equaldotsize","ratio_trial":500,"smaller_num":"2","larger_num":"4","correct_side":2,"subjID":"angelbustos37","gender":"0","age":"11","school":"colegio cafam"},{"start_time":1551801446490,"click_time":1551801447481,"finger_time":1551801447122,"fix_duration":1008.4299293523034,"trial":32,"RT":632,"MT":359,"sideResp":1,"stimulus":"img/750/randomdotsizeEA/L/1_Ratio_750_L_20_R_15.png","xmouse":[794,794,794,794,794,794,794,794,794,794,794,794,794,794,794,794,794,794,794,794,794,794,794,794,794,794,794,794,794,793,791,786,775,739,721,706,697,693,693,693,691,689,683,664,651,634,615,585,533,511],"ymouse":[509,509,509,509,509,509,509,509,509,509,509,509,509,509,509,509,509,509,509,509,509,509,509,509,509,509,509,509,509,496,484,463,433,354,329,310,300,297,297,297,296,292,278,244,227,208,188,158,114,97],"timestamp_mouse":[11,35,52,72,91,112,131,151,172,192,212,231,251,272,292,312,332,352,371,392,411,431,451,472,492,511,532,553,573,592,611,631,652,672,691,711,732,751,772,793,812,832,852,871,891,911,932,951,971,991],"xSR":741.5,"ySR":469.95,"xT1":424.9,"yT1":0,"xT2":1058.1,"yT2":0,"toosoon":0,"cond_shown":"randomdotsizeEA","ratio_trial":750,"smaller_num":"15","larger_num":"20","correct_side":1,"subjID":"angelbustos37","gender":"0","age":"11","school":"colegio cafam"},{"start_time":1551801449367,"click_time":1551801450462,"finger_time":1551801449902,"fix_duration":882.9474878062856,"trial":33,"RT":535,"MT":560,"sideResp":1,"stimulus":"img/750/randomdotsizeEA/L/1_Ratio_750_L_20_R_15.png","xmouse":[754,754,754,754,754,754,754,754,754,754,754,754,754,754,754,754,754,754,754,754,754,754,754,754,753,752,751,748,746,745,745,745,745,736,717,703,681,661,644,618,606,596,586,578,556,550,546,545,545,545,545,544,537,528,514],"ymouse":[487,487,487,487,487,487,487,487,487,487,487,487,487,487,487,487,487,487,487,485,484,484,484,482,480,471,466,462,457,456,456,456,454,435,400,377,348,322,301,269,256,245,233,222,195,187,181,180,180,180,179,173,155,124,94],"timestamp_mouse":[15,34,54,75,95,114,134,156,175,194,214,235,254,275,295,315,334,354,374,394,414,434,455,475,494,514,535,556,574,595,615,635,655,676,695,714,734,754,774,794,814,834,854,874,894,914,934,955,974,995,1014,1034,1054,1075,1095],"xSR":741.5,"ySR":469.95,"xT1":424.9,"yT1":0,"xT2":1058.1,"yT2":0,"toosoon":0,"cond_shown":"randomdotsizeEA","ratio_trial":750,"smaller_num":"15","larger_num":"20","correct_side":1,"subjID":"angelbustos37","gender":"0","age":"11","school":"colegio cafam"},{"start_time":1551801452642,"click_time":1551801453781,"finger_time":1551801453262,"fix_duration":1157.5214260844837,"trial":34,"RT":620,"MT":519,"sideResp":2,"stimulus":"img/750/equaldotanddens/R/15_Ratio_750_L_9_R_12.png","xmouse":[764,764,764,764,764,764,764,764,764,764,764,764,764,764,764,764,764,764,764,764,764,764,764,764,764,764,764,764,764,765,774,799,813,829,840,849,864,874,883,894,913,931,938,945,953,962,984,994,1003,1006,1009,1016,1023,1033,1042,1052,1058,1060],"ymouse":[479,479,479,479,479,479,479,479,479,479,479,479,479,479,479,479,479,479,479,479,479,479,479,479,479,479,479,479,479,480,470,435,413,388,368,354,326,313,302,289,269,238,221,204,188,176,159,156,153,151,147,127,118,107,99,92,87,85],"timestamp_mouse":[1,19,39,61,79,99,120,139,159,179,200,220,239,260,279,300,319,339,360,379,399,420,439,459,479,499,519,541,559,579,601,620,639,660,679,699,719,739,759,780,799,821,840,859,880,901,920,940,959,980,1000,1019,1041,1059,1080,1099,1120,1139],"xSR":741.5,"ySR":469.95,"xT1":424.9,"yT1":0,"xT2":1058.1,"yT2":0,"toosoon":0,"cond_shown":"equaldotanddens","ratio_trial":750,"smaller_num":"9","larger_num":"12","correct_side":2,"subjID":"angelbustos37","gender":"0","age":"11","school":"colegio cafam"},{"start_time":1551801456005,"click_time":1551801457602,"finger_time":1551801456862,"fix_duration":982.2308341627961,"trial":35,"RT":857,"MT":740,"sideResp":1,"stimulus":"img/900/equaldotanddens/L/2_Ratio_900_L_20_R_18.png","xmouse":[781,781,781,781,781,781,781,781,781,781,781,781,781,781,781,781,781,781,781,781,781,781,781,781,781,781,781,781,781,781,781,781,781,782,782,782,782,783,784,784,791,799,819,824,827,829,830,825,813,796,776,757,735,709,693,677,663,637,626,615,611,605,597,592,586,581,577,570,567,563,559,555,549,542,533,526,523,515,511,505],"ymouse":[525,525,525,525,525,525,525,525,525,525,525,525,525,525,525,525,525,525,525,525,525,525,525,525,525,525,525,525,525,525,525,525,525,523,522,521,518,516,512,509,495,483,455,444,433,424,415,393,381,369,356,343,326,306,295,283,272,252,243,235,230,224,213,206,198,189,179,163,159,151,147,142,137,135,130,126,122,111,105,96],"timestamp_mouse":[17,36,57,76,98,116,137,157,176,197,216,236,256,276,297,316,337,356,376,396,417,438,456,478,497,517,536,557,576,596,616,636,656,676,696,716,736,757,776,796,817,836,857,876,896,917,936,956,976,997,1016,1036,1056,1076,1096,1116,1138,1157,1176,1196,1216,1237,1256,1276,1297,1317,1338,1357,1376,1396,1416,1436,1456,1476,1497,1517,1537,1556,1576,1597],"xSR":741.5,"ySR":469.95,"xT1":424.9,"yT1":0,"xT2":1058.1,"yT2":0,"toosoon":0,"cond_shown":"equaldotanddens","ratio_trial":900,"smaller_num":"18","larger_num":"20","correct_side":1,"subjID":"angelbustos37","gender":"0","age":"11","school":"colegio cafam"},{"start_time":1551801459475,"click_time":1551801460741,"finger_time":1551801460042,"fix_duration":951.0238322264612,"trial":36,"RT":567,"MT":699,"sideResp":2,"stimulus":"img/500/equaldotanddens/R/15_Ratio_500_L_1_R_2.png","xmouse":[799,799,799,799,799,799,799,799,799,799,799,799,799,799,799,799,799,799,799,799,799,799,799,801,803,817,826,837,839,843,843,843,846,853,876,889,901,910,925,951,963,974,980,987,996,1002,1007,1012,1017,1020,1022,1024,1025,1026,1030,1031,1032,1033,1037,1040,1047,1052,1057,1064],"ymouse":[512,512,512,512,512,512,512,512,512,512,512,512,512,512,512,512,512,512,512,512,512,512,512,512,505,488,482,470,468,464,464,464,460,452,425,409,392,375,341,286,267,251,240,226,204,191,180,169,156,142,136,128,123,119,111,108,105,103,98,95,83,74,65,58],"timestamp_mouse":[7,31,47,66,86,106,126,146,166,187,207,227,246,267,286,306,326,346,366,386,406,426,447,467,486,506,527,546,567,587,607,626,647,667,687,707,726,747,766,787,806,826,846,867,886,906,926,946,966,986,1006,1027,1047,1066,1086,1106,1127,1146,1167,1187,1206,1226,1246,1266],"xSR":741.5,"ySR":469.95,"xT1":424.9,"yT1":0,"xT2":1058.1,"yT2":0,"toosoon":0,"cond_shown":"equaldotanddens","ratio_trial":500,"smaller_num":"1","larger_num":"2","correct_side":2,"subjID":"angelbustos37","gender":"0","age":"11","school":"colegio cafam"},{"start_time":1551801462941,"click_time":1551801464142,"finger_time":1551801463642,"fix_duration":1257.023124531689,"trial":37,"RT":701,"MT":500,"sideResp":1,"stimulus":"img/250/randomdotsizeEA/L/15_Ratio_250_L_12_R_3.png","xmouse":[789,789,789,789,789,789,789,789,789,789,789,789,789,789,789,789,789,789,789,789,789,789,789,789,789,789,789,789,789,789,789,787,778,768,746,732,711,703,694,684,672,647,635,623,611,592,562,548,533,522,514,509,503,501,497,493,489,486,484,481,477],"ymouse":[519,519,519,519,519,519,519,519,519,519,519,519,519,519,519,519,519,519,519,519,519,519,519,519,519,519,519,519,519,519,519,519,509,498,480,467,446,435,423,410,392,356,339,319,298,265,220,201,185,173,163,157,142,137,130,120,113,109,106,102,96],"timestamp_mouse":[8,21,40,61,80,101,120,140,160,181,201,220,241,261,281,300,320,340,360,381,400,420,440,461,481,500,521,541,560,581,601,620,641,661,681,701,721,740,761,780,801,821,840,861,881,900,920,940,961,981,1000,1020,1040,1060,1081,1102,1121,1140,1160,1180,1201],"xSR":741.5,"ySR":469.95,"xT1":424.9,"yT1":0,"xT2":1058.1,"yT2":0,"toosoon":0,"cond_shown":"randomdotsizeEA","ratio_trial":250,"smaller_num":"3","larger_num":"12","correct_side":1,"subjID":"angelbustos37","gender":"0","age":"11","school":"colegio cafam"},{"start_time":1551801465450,"click_time":1551801466541,"finger_time":1551801466081,"fix_duration":488.72962385434937,"trial":38,"RT":631,"MT":460,"sideResp":2,"stimulus":"img/250/equaldotsize/R/12_Ratio_250_L_5_R_20.png","xmouse":[801,801,801,801,801,801,801,801,801,801,801,801,801,801,801,801,801,801,801,801,801,801,801,801,801,801,801,801,801,801,804,820,831,845,855,875,886,899,912,926,968,982,994,1005,1014,1022,1023,1025,1027,1031,1043,1047,1053,1057,1061],"ymouse":[500,500,500,500,500,500,500,500,500,500,500,500,500,500,500,500,500,500,500,500,500,500,500,500,500,500,500,500,500,495,488,466,454,439,425,393,375,353,330,307,229,197,171,152,136,123,122,120,118,115,104,99,94,91,87],"timestamp_mouse":[11,32,51,71,92,111,132,152,172,191,211,231,251,271,292,312,331,351,371,392,411,431,451,471,492,511,532,551,571,593,611,631,651,671,692,712,731,751,772,791,811,831,851,871,891,912,931,951,972,991,1011,1031,1051,1071,1091],"xSR":741.5,"ySR":469.95,"xT1":424.9,"yT1":0,"xT2":1058.1,"yT2":0,"toosoon":0,"cond_shown":"equaldotsize","ratio_trial":250,"smaller_num":"5","larger_num":"20","correct_side":2,"subjID":"angelbustos37","gender":"0","age":"11","school":"colegio cafam"},{"start_time":1551801468838,"click_time":1551801470381,"finger_time":1551801469541,"fix_duration":1414.972625171528,"trial":39,"RT":703,"MT":840,"sideResp":1,"stimulus":"img/500/randomdotsizeEA/L/8_Ratio_500_L_8_R_4.png","xmouse":[809,809,809,809,809,809,809,809,809,809,809,809,809,809,809,809,809,809,809,809,809,809,809,809,809,809,809,809,809,809,809,809,809,809,799,792,765,747,711,677,652,601,581,555,529,499,464,459,458,457,456,453,453,453,453,453,453,453,453,453,453,453,453,453,453,453,453,453,453,453,453,453,453,453,453,453,457,458],"ymouse":[492,492,492,492,492,492,492,492,492,492,492,492,492,492,492,492,492,492,492,492,492,492,492,492,492,492,492,492,492,492,492,492,492,492,476,465,413,381,343,307,286,242,227,212,197,183,160,155,151,146,136,127,125,124,122,122,122,122,122,122,122,122,122,122,122,122,122,122,122,122,122,121,121,119,114,112,100,93],"timestamp_mouse":[13,24,43,63,84,103,123,143,163,183,203,223,243,263,283,303,324,344,363,383,404,424,444,463,483,503,524,543,564,583,603,623,644,664,683,703,723,743,763,784,803,823,843,864,883,903,923,943,963,983,1004,1023,1043,1064,1083,1103,1123,1144,1163,1183,1204,1224,1243,1263,1283,1303,1323,1343,1363,1383,1404,1424,1443,1463,1483,1504,1524,1543],"xSR":741.5,"ySR":469.95,"xT1":424.9,"yT1":0,"xT2":1058.1,"yT2":0,"toosoon":0,"cond_shown":"randomdotsizeEA","ratio_trial":500,"smaller_num":"4","larger_num":"8","correct_side":1,"subjID":"angelbustos37","gender":"0","age":"11","school":"colegio cafam"},{"start_time":1551801471852,"click_time":1551801473001,"finger_time":1551801472742,"fix_duration":250,"trial":40,"RT":890,"MT":259,"sideResp":2,"stimulus":"img/900/equaldotanddens/L/2_Ratio_900_L_20_R_18.png","xmouse":[760,760,760,760,760,760,760,759,758,757,757,757,757,757,757,757,757,757,757,757,757,757,757,757,757,757,757,757,757,757,757,757,757,757,757,757,757,757,757,757,763,771,778,785,789,799,805,814,822,840,857,915,961,999,1027,1059,1067,1072],"ymouse":[506,506,507,507,507,507,507,507,507,507,507,507,507,507,507,507,507,507,507,507,507,507,507,507,507,507,507,507,507,507,507,507,507,507,507,507,507,507,507,507,495,486,479,471,467,457,451,444,436,417,399,342,295,252,209,133,105,87],"timestamp_mouse":[10,38,50,69,90,109,130,149,170,190,209,229,251,269,290,310,331,351,370,390,410,429,449,469,490,509,530,550,570,590,609,630,650,669,689,709,730,749,769,790,809,830,849,869,890,910,930,949,970,989,1009,1030,1049,1070,1089,1109,1131,1149],"xSR":741.5,"ySR":469.95,"xT1":424.9,"yT1":0,"xT2":1058.1,"yT2":0,"toosoon":0,"cond_shown":"equaldotanddens","ratio_trial":900,"smaller_num":"18","larger_num":"20","correct_side":1,"subjID":"angelbustos37","gender":"0","age":"11","school":"colegio cafam"},{"start_time":1551801475257,"click_time":1551801476301,"finger_time":1551801475642,"fix_duration":294.5337011099126,"trial":41,"RT":385,"MT":659,"sideResp":2,"stimulus":"img/900/equaldotanddens/R/3_Ratio_900_L_9_R_10.png","xmouse":[813,813,812,812,812,812,812,812,812,812,812,812,812,812,812,808,808,808,808,812,814,815,811,803,793,778,775,774,774,774,774,774,774,774,773,773,775,803,861,947,1032,1051,1061,1064,1065,1066,1068,1069,1071,1071,1071,1071,1071],"ymouse":[547,547,547,547,547,547,547,547,547,547,547,547,547,547,547,532,515,494,476,457,446,420,402,383,363,328,320,318,318,318,318,318,318,318,316,316,315,307,296,264,218,204,195,189,186,181,169,158,149,136,110,102,99],"timestamp_mouse":[11,34,45,64,85,106,124,144,164,184,204,224,244,265,284,305,325,346,365,385,405,424,444,464,485,504,524,544,564,584,605,625,644,664,685,705,724,745,764,785,804,824,846,865,885,904,924,944,964,985,1004,1024,1044],"xSR":741.5,"ySR":469.95,"xT1":424.9,"yT1":0,"xT2":1058.1,"yT2":0,"toosoon":0,"cond_shown":"equaldotanddens","ratio_trial":900,"smaller_num":"9","larger_num":"10","correct_side":2,"subjID":"angelbustos37","gender":"0","age":"11","school":"colegio cafam"},{"start_time":1551801477936,"click_time":1551801478741,"finger_time":1551801478382,"fix_duration":591.1785831238417,"trial":42,"RT":446,"MT":359,"sideResp":2,"stimulus":"img/500/equaldotanddens/R/6_Ratio_500_L_9_R_18.png","xmouse":[788,788,788,788,788,788,788,788,788,788,788,788,788,788,788,788,788,788,788,788,788,789,792,798,813,831,889,911,932,954,976,1013,1025,1033,1040,1042,1044,1044,1049,1054,1064],"ymouse":[506,506,506,506,506,506,506,506,506,506,506,506,506,506,506,506,505,492,484,478,475,473,466,456,438,416,337,304,274,241,204,140,120,105,93,91,89,89,87,86,85],"timestamp_mouse":[8,26,46,66,87,106,126,146,166,186,206,226,246,266,286,305,326,346,365,385,405,426,446,465,486,505,525,545,565,586,605,625,645,665,686,705,726,746,765,785,805],"xSR":741.5,"ySR":469.95,"xT1":424.9,"yT1":0,"xT2":1058.1,"yT2":0,"toosoon":0,"cond_shown":"equaldotanddens","ratio_trial":500,"smaller_num":"9","larger_num":"18","correct_side":2,"subjID":"angelbustos37","gender":"0","age":"11","school":"colegio cafam"},{"start_time":1551801483855,"click_time":1551801484642,"finger_time":1551801484403,"fix_duration":751.8187598637206,"trial":43,"RT":548,"MT":239,"sideResp":1,"stimulus":"img/750/equaldotanddens/L/1_Ratio_750_L_20_R_15.png","xmouse":[792,795,795,795,795,795,795,795,795,795,795,795,795,795,795,795,795,795,795,795,795,795,795,795,795,780,770,757,738,728,702,681,664,644,626,591,573,552,534,512],"ymouse":[545,546,546,546,546,546,546,546,546,546,546,546,546,546,546,546,546,546,546,546,546,546,546,546,542,514,493,469,437,417,373,345,321,291,261,201,165,123,91,57],"timestamp_mouse":[17,33,46,66,86,107,126,146,166,187,209,227,247,267,287,308,327,348,368,387,407,427,449,468,488,507,527,547,567,588,608,627,647,667,688,707,727,747,768,787],"xSR":741.5,"ySR":469.95,"xT1":424.9,"yT1":0,"xT2":1058.1,"yT2":0,"toosoon":0,"cond_shown":"equaldotanddens","ratio_trial":750,"smaller_num":"15","larger_num":"20","correct_side":1,"subjID":"angelbustos37","gender":"0","age":"11","school":"colegio cafam"},{"start_time":1551801486327,"click_time":1551801488062,"finger_time":1551801487063,"fix_duration":704.665367909398,"trial":44,"RT":736,"MT":999,"sideResp":1,"stimulus":"img/750/equaldotsize/R/4_Ratio_750_L_15_R_20.png","xmouse":[759,759,759,759,759,759,759,759,759,759,759,759,759,759,759,759,759,759,759,759,759,759,759,759,759,759,759,759,759,759,759,759,759,759,761,771,785,789,791,792,793,793,797,799,806,809,812,812,812,812,812,812,812,812,811,806,801,799,797,794,790,786,783,779,777,773,728,698,662,635,613,583,574,565,558,551,551,551,551,551,551,551,551,551,550,548,503],"ymouse":[504,504,504,504,504,504,504,504,504,504,504,504,504,504,504,504,504,504,504,504,504,504,504,504,504,504,504,504,504,504,504,504,504,504,504,488,466,458,455,453,451,450,445,441,431,426,420,420,420,420,420,420,420,420,419,419,419,419,420,422,426,431,433,434,435,435,402,373,332,293,252,182,157,136,120,107,106,106,106,106,106,106,106,106,105,105,85],"timestamp_mouse":[16,36,55,75,95,115,135,155,177,196,216,235,255,275,295,316,336,355,375,395,415,435,455,476,495,516,535,555,575,597,616,636,655,675,696,717,736,755,775,796,815,836,855,875,895,915,935,955,976,995,1015,1035,1056,1075,1095,1116,1135,1155,1176,1195,1215,1235,1255,1275,1295,1315,1335,1355,1375,1396,1416,1435,1455,1476,1496,1515,1536,1555,1575,1595,1615,1635,1655,1675,1696,1716,1735],"xSR":741.5,"ySR":469.95,"xT1":424.9,"yT1":0,"xT2":1058.1,"yT2":0,"toosoon":0,"cond_shown":"equaldotsize","ratio_trial":750,"smaller_num":"15","larger_num":"20","correct_side":2,"subjID":"angelbustos37","gender":"0","age":"11","school":"colegio cafam"},{"start_time":1551801489730,"click_time":1551801491063,"finger_time":1551801490163,"fix_duration":446.0066026570113,"trial":45,"RT":433,"MT":900,"sideResp":2,"stimulus":"img/750/equaldotanddens/R/15_Ratio_750_L_9_R_12.png","xmouse":[808,808,808,808,808,808,808,811,811,811,811,811,811,811,811,811,811,811,815,818,825,845,852,854,855,855,855,856,859,864,872,906,928,947,971,977,1001,1005,1012,1017,1029,1048,1053,1057,1058,1058,1058,1058,1058,1058,1058,1058,1059,1059,1059,1059,1059,1060,1061,1062,1062,1062,1062,1062,1062,1062,1064],"ymouse":[523,523,523,523,523,523,523,522,522,522,522,522,522,522,522,522,522,522,513,506,491,455,443,437,436,436,436,435,432,424,414,375,351,329,300,291,261,254,246,240,225,195,186,174,170,170,170,169,159,150,140,125,122,122,122,122,121,115,111,107,105,104,104,104,104,103,98],"timestamp_mouse":[13,33,54,72,92,114,132,153,172,193,213,233,253,272,292,314,333,353,373,393,412,433,452,472,493,513,533,553,573,592,612,632,652,672,692,712,732,752,772,792,813,832,852,872,893,912,932,953,972,992,1013,1033,1052,1072,1093,1113,1132,1152,1172,1193,1212,1232,1252,1272,1292,1312,1333],"xSR":741.5,"ySR":469.95,"xT1":424.9,"yT1":0,"xT2":1058.1,"yT2":0,"toosoon":0,"cond_shown":"equaldotanddens","ratio_trial":750,"smaller_num":"9","larger_num":"12","correct_side":2,"subjID":"angelbustos37","gender":"0","age":"11","school":"colegio cafam"},{"start_time":1551801492614,"click_time":1551801493782,"finger_time":1551801493342,"fix_duration":250,"trial":46,"RT":728,"MT":440,"sideResp":1,"stimulus":"img/500/randomdotsizeEA/L/7_Ratio_500_L_10_R_5.png","xmouse":[765,765,765,765,765,765,765,765,765,765,765,765,765,765,765,765,765,765,765,765,765,765,765,765,765,765,765,765,765,765,765,765,765,765,763,758,756,748,742,734,724,708,662,641,623,610,606,605,603,599,596,589,576,567,558,546,539,525,522],"ymouse":[514,514,514,514,514,514,514,514,514,514,514,514,514,514,514,514,514,514,514,514,514,514,514,514,514,514,514,514,514,514,514,514,514,514,508,485,466,414,370,318,280,249,200,189,182,179,178,177,172,162,154,136,110,96,86,76,72,67,67],"timestamp_mouse":[8,28,49,69,88,108,129,148,168,189,208,229,248,269,288,310,328,348,368,389,408,429,448,469,489,509,528,548,568,589,609,628,648,668,688,709,728,748,768,789,808,829,848,868,888,908,928,949,968,988,1008,1029,1048,1068,1088,1108,1129,1149,1168],"xSR":741.5,"ySR":469.95,"xT1":424.9,"yT1":0,"xT2":1058.1,"yT2":0,"toosoon":0,"cond_shown":"randomdotsizeEA","ratio_trial":500,"smaller_num":"5","larger_num":"10","correct_side":1,"subjID":"angelbustos37","gender":"0","age":"11","school":"colegio cafam"},{"start_time":1551801495579,"click_time":1551801496783,"finger_time":1551801496242,"fix_duration":1035.3918436871963,"trial":47,"RT":663,"MT":541,"sideResp":2,"stimulus":"img/500/equaldotanddens/R/6_Ratio_500_L_9_R_18.png","xmouse":[765,765,765,765,765,765,765,765,765,765,765,765,765,765,765,765,765,765,765,765,765,765,765,765,765,765,765,765,765,765,765,767,776,794,825,837,848,856,864,885,908,941,967,977,984,989,995,1009,1022,1045,1052,1056,1060,1062,1063,1064,1064,1065,1067,1076,1083],"ymouse":[536,536,536,536,536,536,536,536,536,536,536,536,536,536,536,536,536,536,536,536,536,536,536,536,536,536,536,536,536,536,518,511,489,449,386,365,347,333,321,299,284,262,239,229,219,215,212,205,194,168,156,146,136,130,129,128,128,126,123,100,84],"timestamp_mouse":[9,30,43,63,83,104,123,143,163,183,204,225,243,263,284,304,324,343,364,383,403,423,443,463,484,503,523,543,564,583,603,624,643,663,684,703,723,743,764,785,803,823,843,863,883,903,923,943,963,984,1004,1023,1044,1063,1084,1104,1123,1143,1164,1184,1204],"xSR":741.5,"ySR":469.95,"xT1":424.9,"yT1":0,"xT2":1058.1,"yT2":0,"toosoon":0,"cond_shown":"equaldotanddens","ratio_trial":500,"smaller_num":"9","larger_num":"18","correct_side":2,"subjID":"angelbustos37","gender":"0","age":"11","school":"colegio cafam"},{"start_time":1551801498808,"click_time":1551801499982,"finger_time":1551801499523,"fix_duration":1044.7384940116544,"trial":48,"RT":715,"MT":459,"sideResp":1,"stimulus":"img/750/equaldotanddens/L/13_Ratio_750_L_8_R_6.png","xmouse":[805,805,805,805,805,805,805,805,805,805,805,805,805,805,805,805,805,805,805,805,805,805,805,805,805,805,805,805,805,805,805,805,805,789,780,765,751,726,713,702,693,684,670,665,661,655,649,622,604,583,563,537,512,507,503,497,494,487,483],"ymouse":[510,510,510,510,510,510,510,510,510,510,510,510,510,510,510,510,510,510,510,510,510,510,510,510,510,510,510,510,510,510,510,510,511,489,476,458,438,398,375,352,332,309,292,287,283,278,273,254,242,229,219,202,179,167,155,141,128,104,91],"timestamp_mouse":[18,34,54,75,96,115,135,154,174,194,214,235,254,274,294,314,334,354,374,394,414,435,454,474,494,514,534,554,574,595,614,635,655,674,694,715,734,754,774,795,814,834,854,874,895,914,935,954,974,994,1014,1034,1055,1074,1095,1115,1135,1154,1174],"xSR":741.5,"ySR":469.95,"xT1":424.9,"yT1":0,"xT2":1058.1,"yT2":0,"toosoon":0,"cond_shown":"equaldotanddens","ratio_trial":750,"smaller_num":"6","larger_num":"8","correct_side":1,"subjID":"angelbustos37","gender":"0","age":"11","school":"colegio cafam"},{"start_time":1551801501204,"click_time":1551801502643,"finger_time":1551801502062,"fix_duration":378.280924492154,"trial":49,"RT":858,"MT":581,"sideResp":2,"stimulus":"img/750/equaldotsize/R/3_Ratio_750_L_15_R_20.png","xmouse":[770,770,770,770,770,770,770,770,770,770,770,770,770,770,770,770,770,770,770,770,770,770,770,770,770,770,770,770,770,770,770,770,770,770,770,770,770,770,770,770,770,771,775,801,814,827,837,843,852,854,856,859,865,891,903,918,932,940,955,967,982,998,1017,1035,1042,1046,1047,1047,1047,1050,1054,1058,1061],"ymouse":[545,545,545,545,545,545,545,545,545,545,545,545,545,545,545,545,545,545,545,545,545,545,545,545,545,545,545,545,545,545,544,543,543,542,542,542,542,542,542,538,531,524,508,446,416,387,363,347,326,320,316,312,306,286,273,259,245,233,215,204,194,180,160,134,125,119,117,117,116,111,106,100,93],"timestamp_mouse":[1,19,47,58,79,99,118,139,160,178,199,218,238,258,278,298,319,338,358,379,398,418,439,458,478,498,518,539,558,578,599,618,639,658,679,698,718,739,758,778,798,819,838,858,878,898,918,938,960,978,999,1018,1039,1058,1078,1098,1118,1138,1159,1180,1198,1218,1239,1259,1278,1298,1318,1340,1360,1378,1398,1419,1439],"xSR":741.5,"ySR":469.95,"xT1":424.9,"yT1":0,"xT2":1058.1,"yT2":0,"toosoon":0,"cond_shown":"equaldotsize","ratio_trial":750,"smaller_num":"15","larger_num":"20","correct_side":2,"subjID":"angelbustos37","gender":"0","age":"11","school":"colegio cafam"},{"start_time":1551801504368,"click_time":1551801505622,"finger_time":1551801505062,"fix_duration":604.8289392940368,"trial":50,"RT":694,"MT":560,"sideResp":2,"stimulus":"img/750/equaldotsize/R/12_Ratio_750_L_3_R_4.png","xmouse":[775,775,775,775,775,775,775,775,775,775,775,775,775,775,775,775,775,775,775,775,775,775,775,775,775,775,775,775,776,781,789,798,805,812,835,849,869,891,914,977,1009,1027,1043,1048,1052,1052,1054,1056,1057,1061,1062,1065,1066,1067,1068,1072,1074,1075,1075,1075,1076,1076,1075],"ymouse":[558,558,558,558,558,558,556,555,555,555,555,555,555,555,555,555,555,555,555,555,555,555,555,555,555,555,555,555,553,544,532,516,504,488,444,425,397,371,344,267,229,204,176,165,156,154,152,150,148,141,138,134,131,127,123,116,112,109,107,106,104,101,99],"timestamp_mouse":[14,34,55,74,94,114,134,154,175,194,214,235,255,274,294,315,334,354,375,394,415,434,454,474,495,516,534,556,574,594,614,634,656,674,694,714,734,754,775,795,814,835,854,875,894,914,934,954,975,995,1014,1034,1054,1074,1094,1114,1134,1154,1174,1195,1214,1234,1254],"xSR":741.5,"ySR":469.95,"xT1":424.9,"yT1":0,"xT2":1058.1,"yT2":0,"toosoon":0,"cond_shown":"equaldotsize","ratio_trial":750,"smaller_num":"3","larger_num":"4","correct_side":2,"subjID":"angelbustos37","gender":"0","age":"11","school":"colegio cafam"},{"start_time":1551801507901,"click_time":1551801509282,"finger_time":1551801508602,"fix_duration":1317.1965085069376,"trial":51,"RT":701,"MT":680,"sideResp":2,"stimulus":"img/750/equaldotsize/R/5_Ratio_750_L_15_R_20.png","xmouse":[780,780,780,780,780,780,780,780,780,780,780,780,780,780,780,780,780,780,780,780,780,780,780,780,780,780,780,780,780,780,780,780,784,803,826,856,889,941,986,996,1002,1002,1003,1004,1008,1018,1031,1060,1081,1109,1115,1118,1119,1119,1120,1120,1122,1123,1123,1123,1123,1123,1123,1123,1123,1123,1123,1123,1123,1119],"ymouse":[512,512,512,512,512,512,512,512,512,512,512,512,512,512,512,512,512,512,512,512,512,512,512,512,512,512,512,512,512,512,512,512,511,494,474,449,425,390,364,355,349,347,346,342,335,318,292,239,200,155,145,139,138,138,133,131,125,119,117,110,108,108,108,108,108,108,108,108,107,98],"timestamp_mouse":[8,21,41,61,81,101,121,142,161,181,201,222,241,261,282,301,323,341,361,381,402,421,442,461,481,502,521,542,561,581,603,621,641,661,682,701,721,742,762,781,801,822,841,862,881,901,921,942,962,981,1001,1022,1041,1062,1081,1102,1121,1143,1162,1181,1201,1223,1243,1262,1281,1302,1321,1341,1361,1381],"xSR":741.5,"ySR":469.95,"xT1":424.9,"yT1":0,"xT2":1058.1,"yT2":0,"toosoon":0,"cond_shown":"equaldotsize","ratio_trial":750,"smaller_num":"15","larger_num":"20","correct_side":2,"subjID":"angelbustos37","gender":"0","age":"11","school":"colegio cafam"},{"start_time":1551801510912,"click_time":1551801512243,"finger_time":1551801511744,"fix_duration":688.2854009846948,"trial":52,"RT":832,"MT":499,"sideResp":1,"stimulus":"img/900/randomdotsizeEA/R/12_Ratio_900_L_18_R_20.png","xmouse":[767,767,767,767,767,767,767,767,767,767,767,767,767,767,767,767,767,767,767,767,767,767,767,767,767,767,767,767,767,767,767,767,767,767,767,767,767,767,767,757,749,734,701,685,672,661,655,648,638,636,635,635,635,635,631,622,618,596,587,577,573,567,558,550,537,527,523],"ymouse":[503,503,503,503,503,503,503,503,503,503,503,503,503,503,503,503,503,503,503,503,503,503,503,503,503,503,503,503,503,503,503,503,503,503,503,503,503,503,503,483,473,450,404,382,362,341,329,319,303,299,298,298,288,279,267,239,229,183,167,153,143,134,117,105,87,73,68],"timestamp_mouse":[10,30,50,70,90,110,130,150,170,192,210,231,251,271,290,312,330,350,370,391,411,431,450,470,490,510,531,550,571,590,610,630,651,671,692,710,731,750,770,790,810,832,850,871,891,910,931,951,971,990,1010,1031,1050,1070,1090,1111,1130,1150,1170,1190,1210,1231,1250,1271,1290,1310,1331],"xSR":741.5,"ySR":469.95,"xT1":424.9,"yT1":0,"xT2":1058.1,"yT2":0,"toosoon":0,"cond_shown":"randomdotsizeEA","ratio_trial":900,"smaller_num":"18","larger_num":"20","correct_side":2,"subjID":"angelbustos37","gender":"0","age":"11","school":"colegio cafam"},{"start_time":1551801514793,"click_time":1551801516362,"finger_time":1551801516022,"fix_duration":509.4492607412117,"trial":53,"RT":1229,"MT":340,"sideResp":2,"stimulus":"img/500/randomdotsizeEA/L/10_Ratio_500_L_4_R_2.png","xmouse":[763,763,763,763,763,763,763,763,763,763,763,763,763,763,763,763,763,763,763,763,763,763,763,763,763,763,763,763,763,763,763,763,763,763,763,763,763,763,765,766,766,766,766,766,766,766,766,766,766,766,766,766,766,766,766,766,766,766,773,787,806,837,857,895,913,936,982,1020,1099,1122,1133,1141,1145,1145,1145,1145,1145,1145,1125],"ymouse":[518,518,518,518,518,518,518,518,518,518,518,518,518,518,518,518,518,518,518,518,518,518,518,518,518,518,518,518,518,518,518,518,518,518,518,518,518,519,518,517,517,517,517,517,517,517,517,517,517,517,517,517,517,517,517,517,517,517,514,506,492,465,447,409,385,358,302,267,188,157,142,126,114,112,112,112,112,111,95],"timestamp_mouse":[9,38,50,69,89,109,129,150,169,189,209,229,249,270,289,309,330,350,370,390,419,429,449,469,489,510,529,549,570,591,609,630,650,671,690,709,729,749,770,790,810,829,849,870,889,909,930,950,969,990,1009,1030,1050,1071,1090,1110,1129,1149,1169,1189,1211,1229,1249,1269,1289,1309,1330,1349,1369,1389,1409,1430,1450,1469,1489,1509,1529,1550,1569],"xSR":741.5,"ySR":469.95,"xT1":424.9,"yT1":0,"xT2":1058.1,"yT2":0,"toosoon":0,"cond_shown":"randomdotsizeEA","ratio_trial":500,"smaller_num":"2","larger_num":"4","correct_side":1,"subjID":"angelbustos37","gender":"0","age":"11","school":"colegio cafam"},{"start_time":1551801518131,"click_time":1551801519042,"finger_time":1551801518722,"fix_duration":626.6660011358715,"trial":54,"RT":591,"MT":320,"sideResp":1,"stimulus":"img/250/equaldotanddens/L/15_Ratio_250_L_12_R_3.png","xmouse":[791,791,791,791,791,791,791,791,791,791,791,791,791,791,791,791,791,791,791,791,791,791,791,791,791,791,791,790,781,765,742,704,693,681,665,655,644,623,613,603,593,570,559,538,529,509],"ymouse":[508,508,508,508,508,508,508,508,508,508,508,508,508,508,508,508,508,508,508,508,508,508,508,508,508,508,508,504,483,456,423,372,356,337,311,295,275,230,206,182,159,122,108,94,90,77],"timestamp_mouse":[12,31,52,72,91,112,131,151,171,191,212,231,252,272,291,312,331,351,371,391,411,431,451,472,491,511,532,552,571,591,611,631,651,671,691,712,732,752,771,792,811,831,852,871,891,911],"xSR":741.5,"ySR":469.95,"xT1":424.9,"yT1":0,"xT2":1058.1,"yT2":0,"toosoon":0,"cond_shown":"equaldotanddens","ratio_trial":250,"smaller_num":"3","larger_num":"12","correct_side":1,"subjID":"angelbustos37","gender":"0","age":"11","school":"colegio cafam"},{"start_time":1551801520375,"click_time":1551801523962,"finger_time":1551801522343,"fix_duration":350.7946784644424,"trial":55,"RT":1968,"MT":1619,"sideResp":1,"stimulus":"img/900/equaldotsize/L/2_Ratio_900_L_20_R_18.png","xmouse":[780,780,780,780,780,780,780,780,780,780,780,780,780,780,780,780,780,780,780,780,780,780,780,780,780,780,780,780,780,780,780,780,780,780,780,780,780,780,780,780,780,780,780,780,780,780,780,780,780,780,780,780,780,780,780,780,780,780,780,780,780,780,780,780,780,780,780,780,780,780,780,780,780,780,780,780,780,780,780,780,780,780,780,780,780,780,780,780,780,780,780,780,780,780,780,780,780,780,780,780,780,780,780,780,780,780,780,780,780,780,780,780,780,781,783,784,786,786,786,786,786,786,786,786,786,786,785,780,772,757,748,743,738,730,710,698,686,675,667,662,660,658,654,647,637,636,635,635,635,635,634,631,630,624,618,612,612,612,612,612,612,612,612,611,606,601,596,592,589,587,586,583,579,577,570,563,553,542,528,509],"ymouse":[484,484,484,484,484,484,484,484,484,484,484,484,484,484,484,484,484,484,484,484,484,484,484,484,484,484,484,484,484,484,484,484,484,484,484,484,484,484,484,484,484,484,484,484,484,484,484,484,484,484,484,484,484,484,484,484,484,484,484,484,484,484,484,484,484,484,484,484,484,484,484,484,484,484,484,484,484,484,484,484,484,484,484,484,484,484,484,484,484,484,484,483,481,480,477,476,474,471,469,469,467,467,466,465,465,465,465,465,464,459,455,451,448,443,433,426,418,410,405,398,398,398,398,398,397,392,387,378,367,348,338,330,323,311,287,274,263,254,248,242,240,237,232,224,217,215,215,215,215,215,214,209,208,202,196,193,193,193,193,193,193,193,193,191,182,177,172,167,165,160,157,152,148,146,138,130,122,113,103,89],"timestamp_mouse":[13,35,47,67,87,107,127,148,169,187,208,227,247,267,288,307,328,347,367,387,407,428,448,467,488,507,527,547,567,588,607,627,647,668,688,707,729,748,767,788,808,828,848,867,887,908,928,948,967,987,1008,1028,1047,1067,1087,1107,1128,1147,1168,1188,1207,1228,1248,1267,1288,1308,1327,1347,1367,1387,1407,1427,1447,1468,1487,1508,1527,1548,1569,1587,1608,1627,1647,1667,1687,1707,1727,1747,1767,1789,1808,1827,1848,1867,1887,1907,1928,1947,1968,1988,2007,2027,2047,2067,2088,2108,2127,2147,2168,2188,2207,2227,2247,2268,2287,2307,2328,2347,2368,2387,2408,2427,2447,2467,2487,2507,2527,2547,2568,2587,2607,2628,2648,2668,2687,2707,2728,2747,2767,2788,2807,2827,2849,2868,2887,2908,2927,2947,2967,2988,3007,3027,3048,3068,3088,3107,3128,3147,3168,3187,3208,3228,3247,3267,3287,3307,3327,3347,3367,3388,3407,3427,3447,3468,3487,3507,3527,3547,3568,3587],"xSR":741.5,"ySR":469.95,"xT1":424.9,"yT1":0,"xT2":1058.1,"yT2":0,"toosoon":0,"cond_shown":"equaldotsize","ratio_trial":900,"smaller_num":"18","larger_num":"20","correct_side":1,"subjID":"angelbustos37","gender":"0","age":"11","school":"colegio cafam"},{"start_time":1551801526859,"click_time":1551801527963,"finger_time":1551801527462,"fix_duration":976.3578713516016,"trial":56,"RT":603,"MT":501,"sideResp":1,"stimulus":"img/500/equaldotsize/L/8_Ratio_500_L_8_R_4.png","xmouse":[813,813,813,813,813,813,813,813,813,813,813,813,813,813,813,813,813,813,813,813,813,813,813,813,813,813,813,808,802,778,727,693,673,664,661,657,655,655,648,626,595,590,590,590,590,590,590,590,590,590,587,574,560,540,519,486],"ymouse":[492,492,492,492,492,492,492,492,492,492,492,492,492,492,492,492,492,492,492,492,492,492,492,492,492,492,492,491,487,473,442,423,413,407,405,394,376,347,302,209,134,127,127,127,127,127,127,127,127,127,127,125,122,116,111,99],"timestamp_mouse":[7,32,43,63,83,103,123,145,163,185,203,223,245,264,283,303,324,344,363,383,403,423,445,464,484,503,523,543,563,583,603,623,643,665,684,703,723,743,763,784,803,823,843,864,884,904,924,943,963,983,1003,1023,1044,1064,1083,1103],"xSR":741.5,"ySR":469.95,"xT1":424.9,"yT1":0,"xT2":1058.1,"yT2":0,"toosoon":0,"cond_shown":"equaldotsize","ratio_trial":500,"smaller_num":"4","larger_num":"8","correct_side":1,"subjID":"angelbustos37","gender":"0","age":"11","school":"colegio cafam"},{"start_time":1551801529434,"click_time":1551801530402,"finger_time":1551801530222,"fix_duration":250,"trial":57,"RT":788,"MT":180,"sideResp":1,"stimulus":"img/900/equaldotanddens/L/8_Ratio_900_L_20_R_18.png","xmouse":[790,790,790,790,790,790,790,790,790,790,790,790,790,790,790,790,790,790,790,790,790,790,790,790,790,790,790,790,790,790,790,790,790,790,790,790,790,789,786,779,769,722,686,649,609,578,540,526,509],"ymouse":[479,479,479,479,479,479,479,479,479,479,479,479,479,479,479,479,479,479,479,479,479,479,479,479,479,479,479,479,479,479,479,479,479,479,479,479,479,478,471,451,432,348,294,242,191,156,118,106,96],"timestamp_mouse":[8,30,49,68,88,108,128,148,168,189,209,229,248,269,290,308,329,349,368,389,409,429,448,469,489,509,528,548,568,589,609,628,649,669,688,708,729,749,768,788,808,829,848,869,888,909,928,948,968],"xSR":741.5,"ySR":469.95,"xT1":424.9,"yT1":0,"xT2":1058.1,"yT2":0,"toosoon":0,"cond_shown":"equaldotanddens","ratio_trial":900,"smaller_num":"18","larger_num":"20","correct_side":1,"subjID":"angelbustos37","gender":"0","age":"11","school":"colegio cafam"},{"start_time":1551801532413,"click_time":1551801534002,"finger_time":1551801533363,"fix_duration":250,"trial":58,"RT":950,"MT":639,"sideResp":1,"stimulus":"img/900/randomdotsizeEA/L/10_Ratio_900_L_20_R_18.png","xmouse":[782,782,782,782,782,782,782,782,782,782,782,782,782,782,782,782,782,782,782,782,782,782,782,782,782,782,782,782,782,782,782,782,782,782,782,782,782,782,773,763,756,753,748,747,745,744,743,739,721,702,677,662,641,637,635,633,630,623,619,617,614,607,605,598,593,588,582,568,562,555,546,539,526,521,518,515,514,513,512,508],"ymouse":[536,536,536,536,536,536,536,536,536,536,536,536,536,536,536,536,536,536,536,536,536,536,536,536,536,536,536,536,536,536,536,536,536,536,536,536,536,536,522,511,504,498,486,481,478,477,474,469,442,420,392,374,354,350,347,343,339,327,320,316,308,296,289,271,261,249,235,205,189,174,152,142,123,115,111,107,105,104,103,99],"timestamp_mouse":[10,29,50,70,90,109,130,149,169,189,211,230,249,269,290,311,330,350,370,390,410,429,449,469,489,510,529,549,569,589,610,630,649,670,690,709,730,749,769,790,809,829,849,869,889,909,930,949,969,990,1009,1030,1049,1069,1089,1109,1129,1149,1169,1189,1210,1230,1250,1269,1289,1309,1329,1349,1369,1390,1409,1430,1449,1469,1489,1510,1529,1549,1571,1589],"xSR":741.5,"ySR":469.95,"xT1":424.9,"yT1":0,"xT2":1058.1,"yT2":0,"toosoon":0,"cond_shown":"randomdotsizeEA","ratio_trial":900,"smaller_num":"18","larger_num":"20","correct_side":1,"subjID":"angelbustos37","gender":"0","age":"11","school":"colegio cafam"},{"start_time":1551801537405,"click_time":1551801539022,"finger_time":1551801538242,"fix_duration":722.9763548168798,"trial":59,"RT":837,"MT":780,"sideResp":2,"stimulus":"img/750/equaldotanddens/R/15_Ratio_750_L_9_R_12.png","xmouse":[809,809,809,809,809,809,809,809,809,809,809,809,809,809,809,809,809,809,809,809,809,809,809,809,809,809,809,809,809,809,809,809,809,809,809,809,809,809,813,817,827,848,873,880,886,891,898,914,926,941,960,966,980,983,985,991,998,1009,1012,1013,1013,1013,1013,1013,1013,1013,1013,1021,1029,1035,1038,1040,1040,1040,1040,1043,1046,1053,1055,1058,1060],"ymouse":[525,525,525,525,525,525,525,525,525,525,525,525,525,525,525,525,525,525,525,525,525,525,525,525,525,525,525,525,525,525,525,525,525,525,525,525,525,525,511,504,486,455,415,398,383,369,349,308,289,268,245,237,205,189,171,146,123,85,70,59,49,45,45,45,44,44,44,52,56,58,58,58,58,58,58,58,58,58,58,58,58],"timestamp_mouse":[18,37,58,78,97,117,138,157,177,197,217,237,258,277,298,318,337,357,379,397,417,437,457,478,498,517,538,557,578,597,617,637,657,678,697,717,738,757,777,797,817,837,857,877,897,917,937,958,977,998,1017,1037,1057,1077,1097,1118,1138,1157,1178,1197,1218,1238,1258,1278,1297,1318,1338,1357,1377,1398,1418,1437,1457,1477,1498,1517,1538,1557,1579,1597,1617],"xSR":741.5,"ySR":469.95,"xT1":424.9,"yT1":0,"xT2":1058.1,"yT2":0,"toosoon":0,"cond_shown":"equaldotanddens","ratio_trial":750,"smaller_num":"9","larger_num":"12","correct_side":2,"subjID":"angelbustos37","gender":"0","age":"11","school":"colegio cafam"},{"start_time":1551801540941,"click_time":1551801542663,"finger_time":1551801541822,"fix_duration":1057.602775406288,"trial":60,"RT":881,"MT":841,"sideResp":2,"stimulus":"img/750/equaldotsize/R/11_Ratio_750_L_12_R_16.png","xmouse":[786,786,786,786,786,786,786,786,786,786,786,786,786,786,786,786,786,786,786,786,786,786,786,786,786,786,786,786,786,786,786,786,786,786,786,786,786,786,786,786,786,786,786,789,797,813,838,848,854,859,860,860,860,865,877,894,900,900,900,901,905,910,911,912,916,926,955,973,990,1002,1012,1023,1049,1063,1066,1066,1066,1066,1066,1066,1066,1066,1066,1066,1066,1066,1068],"ymouse":[507,507,507,507,507,507,507,507,507,507,507,507,507,507,507,507,507,507,507,507,507,507,507,507,507,507,507,507,507,507,507,507,507,507,507,507,507,507,507,507,507,507,496,487,469,441,407,393,380,369,361,339,320,303,282,255,224,215,208,201,196,189,188,186,182,175,159,150,143,136,131,125,112,104,101,101,101,101,101,101,101,101,101,101,101,101,98],"timestamp_mouse":[7,33,41,61,81,103,121,141,162,181,202,223,242,262,281,301,321,342,361,382,402,421,442,461,482,501,521,542,562,582,601,621,642,662,682,701,721,742,762,782,801,821,841,861,881,901,921,941,962,982,1002,1022,1041,1061,1081,1102,1121,1141,1161,1181,1201,1221,1241,1262,1282,1301,1321,1341,1361,1382,1401,1422,1442,1462,1481,1502,1521,1542,1562,1581,1602,1622,1641,1661,1682,1701,1722],"xSR":741.5,"ySR":469.95,"xT1":424.9,"yT1":0,"xT2":1058.1,"yT2":0,"toosoon":0,"cond_shown":"equaldotsize","ratio_trial":750,"smaller_num":"12","larger_num":"16","correct_side":2,"subjID":"angelbustos37","gender":"0","age":"11","school":"colegio cafam"},{"start_time":1551801543854,"click_time":1551801544903,"finger_time":1551801544483,"fix_duration":250.3963524856978,"trial":61,"RT":629,"MT":420,"sideResp":1,"stimulus":"img/900/equaldotsize/L/10_Ratio_900_L_20_R_18.png","xmouse":[796,796,796,796,796,796,796,796,796,796,796,796,796,796,796,796,796,796,796,796,796,796,796,796,796,796,796,796,793,789,774,730,700,664,636,609,570,554,547,547,547,544,542,540,537,529,524,517,508,502,494,490,486],"ymouse":[509,509,509,509,509,509,509,509,509,509,509,509,509,509,509,509,509,509,509,509,509,509,509,509,509,509,509,509,508,500,477,398,342,291,252,222,189,181,176,176,176,173,172,170,166,153,143,134,121,115,106,102,99],"timestamp_mouse":[9,38,48,68,89,108,128,150,169,189,208,228,248,269,288,309,329,348,368,388,410,428,448,470,489,508,528,550,569,589,609,629,648,669,690,708,728,748,768,789,809,829,849,868,889,909,929,948,969,989,1009,1028,1048],"xSR":741.5,"ySR":469.95,"xT1":424.9,"yT1":0,"xT2":1058.1,"yT2":0,"toosoon":0,"cond_shown":"equaldotsize","ratio_trial":900,"smaller_num":"18","larger_num":"20","correct_side":1,"subjID":"angelbustos37","gender":"0","age":"11","school":"colegio cafam"},{"start_time":1551801547414,"click_time":1551801548343,"finger_time":1551801548062,"fix_duration":1489.959843843472,"trial":62,"RT":648,"MT":281,"sideResp":2,"stimulus":"img/250/equaldotanddens/R/8_Ratio_250_L_1_R_4.png","xmouse":[781,781,781,781,781,781,781,781,781,781,781,781,781,781,781,781,781,781,781,781,781,781,781,781,781,781,781,781,781,782,786,800,817,877,910,943,975,1023,1039,1052,1063,1076,1082,1083,1086,1088,1092],"ymouse":[497,497,497,497,497,497,497,497,497,497,497,497,497,497,497,497,497,497,497,497,497,497,497,497,497,497,497,497,497,496,490,471,451,388,350,312,268,199,176,155,139,119,111,110,107,103,98],"timestamp_mouse":[8,28,49,69,90,108,128,149,168,188,210,229,248,270,288,309,329,350,369,388,410,428,448,469,488,508,530,549,569,589,608,628,648,668,688,709,729,749,769,788,810,829,848,868,888,909,929],"xSR":741.5,"ySR":469.95,"xT1":424.9,"yT1":0,"xT2":1058.1,"yT2":0,"toosoon":0,"cond_shown":"equaldotanddens","ratio_trial":250,"smaller_num":"1","larger_num":"4","correct_side":2,"subjID":"angelbustos37","gender":"0","age":"11","school":"colegio cafam"},{"start_time":1551801549814,"click_time":1551801552423,"finger_time":1551801551623,"fix_duration":550.1247409745355,"trial":63,"RT":1809,"MT":800,"sideResp":1,"stimulus":"img/500/equaldotsize/R/3_Ratio_500_L_10_R_20.png","xmouse":[801,801,801,801,801,801,801,801,801,801,801,801,801,801,801,801,801,801,801,801,801,801,801,801,801,801,801,801,801,801,801,801,801,801,801,801,801,801,801,801,801,801,801,801,801,801,801,801,801,801,801,801,801,801,801,801,801,801,801,801,801,801,801,801,801,801,801,801,801,801,801,801,801,801,801,801,801,801,801,801,801,801,801,801,801,801,801,801,801,801,796,791,773,767,758,750,741,719,711,701,693,681,667,660,654,648,641,626,616,610,605,595,583,579,576,573,572,571,570,570,570,570,570,570,570,570,570,569,559,541,521],"ymouse":[520,520,520,520,520,520,520,520,520,520,520,520,520,520,520,520,520,520,520,520,520,520,520,520,520,520,520,520,520,520,520,520,520,520,520,520,520,520,520,520,520,520,520,520,520,520,520,520,520,520,520,520,520,520,520,520,520,520,520,520,520,520,520,520,520,520,520,520,520,520,520,520,520,520,520,520,520,520,520,520,520,520,520,520,520,520,520,520,508,491,469,446,394,376,358,337,317,277,261,246,233,214,195,185,176,166,158,140,130,123,117,105,93,89,84,81,80,79,78,78,78,78,78,78,78,78,78,77,73,67,58],"timestamp_mouse":[17,33,48,69,90,109,128,148,168,189,210,229,248,268,288,310,328,349,369,388,409,428,448,469,489,508,529,548,569,588,608,629,649,669,688,708,729,748,768,789,810,828,848,868,889,909,928,948,969,989,1008,1028,1049,1068,1088,1108,1130,1149,1168,1188,1209,1228,1249,1268,1289,1309,1328,1349,1369,1390,1409,1429,1450,1469,1489,1510,1528,1549,1570,1590,1610,1629,1649,1668,1689,1710,1730,1750,1768,1788,1809,1828,1849,1869,1889,1908,1928,1948,1968,1989,2008,2029,2048,2068,2088,2108,2129,2148,2168,2189,2209,2229,2249,2268,2288,2309,2330,2348,2368,2388,2409,2429,2448,2469,2488,2509,2529,2549,2569,2588,2609],"xSR":741.5,"ySR":469.95,"xT1":424.9,"yT1":0,"xT2":1058.1,"yT2":0,"toosoon":0,"cond_shown":"equaldotsize","ratio_trial":500,"smaller_num":"10","larger_num":"20","correct_side":2,"subjID":"angelbustos37","gender":"0","age":"11","school":"colegio cafam"},{"start_time":1551801558808,"click_time":1551801560142,"finger_time":1551801559622,"fix_duration":1404.0486748859194,"trial":64,"RT":814,"MT":520,"sideResp":1,"stimulus":"img/250/randomdotsizeEA/L/2_Ratio_250_L_16_R_4.png","xmouse":[778,778,778,778,778,778,778,778,778,778,778,778,778,778,778,778,778,778,778,778,778,778,778,778,778,778,778,778,778,778,778,778,778,778,778,777,776,771,763,754,736,679,572,511,469,438,417,383,362,346,334,334,334,334,334,334,335,344,350,357,362,366,370,379,405,438,459],"ymouse":[553,553,553,553,553,553,553,553,553,553,553,553,553,553,553,553,553,553,553,553,553,553,553,553,553,553,553,553,553