[{"start_time":1551881382937,"click_time":1551881384761,"finger_time":1551881384502,"fix_duration":1109.5754195725458,"trial":0,"RT":1565,"MT":259,"sideResp":1,"stimulus":"img/900/randomdotsizeEA/L/4_Ratio_900_L_20_R_18.png","xmouse":[790,790,790,790,790,790,790,790,790,790,790,790,790,790,790,790,790,790,790,790,790,790,790,790,790,790,790,790,790,790,790,790,790,790,790,790,790,790,790,790,790,790,790,790,790,790,790,790,790,790,790,790,790,790,790,790,790,790,790,790,790,790,790,790,790,790,790,790,790,790,790,790,790,790,790,790,793,785,762,696,669,647,631,620,603,597,594,583,571,540,519],"ymouse":[550,550,550,550,550,550,550,550,550,550,550,550,550,550,550,550,550,550,550,550,550,550,550,550,550,550,550,550,550,550,550,550,550,550,550,550,550,550,550,550,550,550,550,550,550,550,550,550,550,550,550,550,550,550,550,550,550,550,550,550,550,550,550,550,550,550,550,550,550,550,550,550,550,550,550,538,476,432,378,284,248,217,194,174,137,128,124,120,117,100,86],"timestamp_mouse":[10,49,64,85,104,125,145,165,185,206,224,245,266,284,305,325,346,364,385,405,425,445,464,485,505,525,545,565,585,605,625,646,665,686,705,725,745,764,785,805,826,846,866,886,904,925,945,966,984,1004,1024,1045,1064,1085,1104,1125,1145,1164,1184,1204,1225,1244,1264,1284,1304,1326,1344,1366,1384,1406,1425,1444,1466,1484,1504,1524,1544,1565,1585,1604,1624,1645,1665,1685,1705,1724,1744,1764,1785,1804,1824],"xSR":741.5,"ySR":500.5,"xT1":424.9,"yT1":0,"xT2":1058.1,"yT2":0,"toosoon":0,"cond_shown":"randomdotsizeEA","ratio_trial":900,"smaller_num":"18","larger_num":"20","correct_side":1,"subjID":"SofiaVargasMora17","gender":"1","age":"11","school":"6","test":{"fix_dur":[250,1500],"timestim":300,"targets_dim":[100,100],"targets_relative_coord":[0.3,0.7],"size_stim":[880,420],"start_dim":[100,100],"size_start":[300,300],"size_fix":60,"samplingrate":20,"img_types":["equaldotsize","equaldotanddens","randomdotsizeEA"],"ratios":[250,500,750,900],"rep_conds":9,"nTrials":120,"trials_to_rest":500,"Trials_order":[11,61,77,93,90,54,10,14,64,41,97,51,69,101,94,38,89,55,103,60,62,58,27,28,70,68,76,100,7,31,4,110,111,29,99,19,65,47,118,39,35,26,50,96,12,45,112,92,34,63,85,2,87,78,74,56,42,8,116,80,105,36,9,102,79,32,30,113,24,43,21,106,18,73,109,117,20,67,48,37,16,115,13,95,72,98,91,108,44,83,5,66,114,86,15,0,1,49,75,52,23,71,82,104,3,6,46,88,25,57,81,59,107,33,53,119,22,40,17,84],"cond_shown":["randomdotsizeEA","equaldotanddens","randomdotsizeEA","equaldotsize","equaldotsize","equaldotsize","equaldotanddens","randomdotsizeEA","equaldotanddens","randomdotsizeEA","equaldotanddens","equaldotsize","equaldotsize","randomdotsizeEA","equaldotanddens","randomdotsizeEA","randomdotsizeEA","equaldotanddens","equaldotanddens","equaldotsize","randomdotsizeEA","equaldotanddens","equaldotsize","equaldotanddens","equaldotanddens","randomdotsizeEA","equaldotanddens","equaldotanddens","equaldotanddens","equaldotanddens","equaldotanddens","randomdotsizeEA","equaldotsize","randomdotsizeEA","equaldotsize","equaldotanddens","randomdotsizeEA","randomdotsizeEA","equaldotanddens","equaldotsize","randomdotsizeEA","randomdotsizeEA","randomdotsizeEA","equaldotsize","equaldotsize","equaldotsize","equaldotanddens","randomdotsizeEA","equaldotanddens","equaldotsize","equaldotanddens","randomdotsizeEA","equaldotsize","equaldotsize","randomdotsizeEA","randomdotsizeEA","equaldotsize","randomdotsizeEA","randomdotsizeEA","randomdotsizeEA","equaldotsize","equaldotsize","equaldotsize","equaldotsize","equaldotanddens","randomdotsizeEA","equaldotsize","randomdotsizeEA","equaldotsize","equaldotanddens","equaldotsize","equaldotanddens","equaldotsize","equaldotanddens","equaldotanddens","equaldotsize","randomdotsizeEA","equaldotanddens","equaldotsize","equaldotanddens","equaldotanddens","equaldotanddens","equaldotanddens","randomdotsizeEA","equaldotsize","randomdotsizeEA","equaldotanddens","equaldotsize","randomdotsizeEA","randomdotsizeEA","randomdotsizeEA","equaldotsize","equaldotsize","randomdotsizeEA","equaldotsize","equaldotsize","equaldotanddens","equaldotanddens","equaldotsize","equaldotanddens","randomdotsizeEA","randomdotsizeEA","equaldotanddens","randomdotsizeEA","equaldotsize","equaldotsize","equaldotanddens","equaldotanddens","equaldotanddens","equaldotsize","equaldotsize","randomdotsizeEA","randomdotsizeEA","equaldotsize","randomdotsizeEA","randomdotsizeEA","equaldotanddens","equaldotanddens","randomdotsizeEA","equaldotsize"],"ratio_trial":[900,250,500,900,750,750,900,250,500,500,250,500,900,500,900,250,500,750,750,250,250,900,500,500,900,750,500,500,750,750,500,250,500,500,500,750,500,900,900,500,900,250,250,250,250,900,500,750,900,500,250,250,500,750,250,750,750,750,750,750,900,250,900,750,750,750,750,500,250,750,900,900,750,250,250,900,750,750,250,250,500,750,250,900,250,250,750,250,750,900,500,750,750,250,500,250,250,250,500,500,900,900,900,750,500,750,900,500,250,900,900,900,900,900,500,900,900,500,500,250],"smaller_num":["18","2","2","9","12","18","9","3","9","5","6","6","18","5","18","2","5","3","6","2","1","18","2","9","18","6","9","6","3","6","6","3","2","9","5","3","6","18","18","2","18","3","4","6","4","18","10","15","18","1","3","2","2","6","3","3","18","6","6","15","18","3","18","3","3","18","6","10","1","3","18","18","3","3","4","18","15","6","6","3","6","3","4","9","1","2","3","5","3","18","9","3","15","5","1","2","3","6","9","2","9","9","18","6","9","3","18","2","3","9","9","9","18","18","3","9","9","6","9","5"],"larger_num":["20","8","4","10","16","24","10","12","18","10","24","12","20","10","20","8","10","4","8","8","4","20","4","18","20","8","18","12","4","8","12","12","4","18","10","4","12","20","20","4","20","12","16","24","16","20","20","20","20","2","12","8","4","8","12","4","24","8","8","20","20","12","20","4","4","24","8","20","4","4","20","20","4","12","16","20","20","8","24","12","12","4","16","10","4","8","4","20","4","20","18","4","20","20","2","8","12","24","18","4","10","10","20","8","18","4","20","4","12","10","10","10","20","20","6","10","10","12","18","20"],"correct_side":[1,2,1,1,2,1,1,1,2,2,1,1,1,2,1,1,1,2,1,1,2,1,1,2,1,2,1,1,1,1,1,2,2,2,1,1,1,1,2,1,2,1,1,1,1,1,2,2,1,2,2,1,2,1,2,2,1,1,1,2,1,2,1,1,1,1,2,2,2,1,1,1,1,2,1,2,1,1,2,1,1,1,1,2,2,2,2,2,2,1,1,2,2,2,2,1,2,1,2,2,2,1,1,1,2,1,1,2,1,2,2,2,1,2,2,2,2,1,2,2],"img_shown":["img/900/randomdotsizeEA/L/4_Ratio_900_L_20_R_18.png","img/250/equaldotanddens/R/13_Ratio_250_L_2_R_8.png","img/500/randomdotsizeEA/L/5_Ratio_500_L_4_R_2.png","img/900/equaldotsize/L/1_Ratio_900_L_10_R_9.png","img/750/equaldotsize/R/11_Ratio_750_L_12_R_16.png","img/750/equaldotsize/L/6_Ratio_750_L_24_R_18.png","img/900/equaldotanddens/L/1_Ratio_900_L_10_R_9.png","img/250/randomdotsizeEA/L/14_Ratio_250_L_12_R_3.png","img/500/equaldotanddens/R/6_Ratio_500_L_9_R_18.png","img/500/randomdotsizeEA/R/14_Ratio_500_L_5_R_10.png","img/250/equaldotanddens/L/5_Ratio_250_L_24_R_6.png","img/500/equaldotsize/L/13_Ratio_500_L_12_R_6.png","img/900/equaldotsize/L/2_Ratio_900_L_20_R_18.png","img/500/randomdotsizeEA/R/14_Ratio_500_L_5_R_10.png","img/900/equaldotanddens/L/8_Ratio_900_L_20_R_18.png","img/250/randomdotsizeEA/L/1_Ratio_250_L_8_R_2.png","img/500/randomdotsizeEA/L/7_Ratio_500_L_10_R_5.png","img/750/equaldotanddens/R/7_Ratio_750_L_3_R_4.png","img/750/equaldotanddens/L/13_Ratio_750_L_8_R_6.png","img/250/equaldotsize/L/1_Ratio_250_L_8_R_2.png","img/250/randomdotsizeEA/R/8_Ratio_250_L_1_R_4.png","img/900/equaldotanddens/L/2_Ratio_900_L_20_R_18.png","img/500/equaldotsize/L/10_Ratio_500_L_4_R_2.png","img/500/equaldotanddens/R/6_Ratio_500_L_9_R_18.png","img/900/equaldotanddens/L/2_Ratio_900_L_20_R_18.png","img/750/randomdotsizeEA/R/2_Ratio_750_L_6_R_8.png","img/500/equaldotanddens/L/4_Ratio_500_L_18_R_9.png","img/500/equaldotanddens/L/11_Ratio_500_L_12_R_6.png","img/750/equaldotanddens/L/9_Ratio_750_L_4_R_3.png","img/750/equaldotanddens/L/13_Ratio_750_L_8_R_6.png","img/500/equaldotanddens/L/11_Ratio_500_L_12_R_6.png","img/250/randomdotsizeEA/R/11_Ratio_250_L_3_R_12.png","img/500/equaldotsize/R/9_Ratio_500_L_2_R_4.png","img/500/randomdotsizeEA/R/1_Ratio_500_L_9_R_18.png","img/500/equaldotsize/L/7_Ratio_500_L_10_R_5.png","img/750/equaldotanddens/L/8_Ratio_750_L_4_R_3.png","img/500/randomdotsizeEA/L/11_Ratio_500_L_12_R_6.png","img/900/randomdotsizeEA/L/4_Ratio_900_L_20_R_18.png","img/900/equaldotanddens/R/13_Ratio_900_L_18_R_20.png","img/500/equaldotsize/L/10_Ratio_500_L_4_R_2.png","img/900/randomdotsizeEA/R/9_Ratio_900_L_18_R_20.png","img/250/randomdotsizeEA/L/14_Ratio_250_L_12_R_3.png","img/250/randomdotsizeEA/L/2_Ratio_250_L_16_R_4.png","img/250/equaldotsize/L/5_Ratio_250_L_24_R_6.png","img/250/equaldotsize/L/2_Ratio_250_L_16_R_4.png","img/900/equaldotsize/L/2_Ratio_900_L_20_R_18.png","img/500/equaldotanddens/R/3_Ratio_500_L_10_R_20.png","img/750/randomdotsizeEA/R/4_Ratio_750_L_15_R_20.png","img/900/equaldotanddens/L/2_Ratio_900_L_20_R_18.png","img/500/equaldotsize/R/12_Ratio_500_L_1_R_2.png","img/250/equaldotanddens/R/11_Ratio_250_L_3_R_12.png","img/250/randomdotsizeEA/L/1_Ratio_250_L_8_R_2.png","img/500/equaldotsize/R/9_Ratio_500_L_2_R_4.png","img/750/equaldotsize/L/14_Ratio_750_L_8_R_6.png","img/250/randomdotsizeEA/R/11_Ratio_250_L_3_R_12.png","img/750/randomdotsizeEA/R/12_Ratio_750_L_3_R_4.png","img/750/equaldotsize/L/6_Ratio_750_L_24_R_18.png","img/750/randomdotsizeEA/L/13_Ratio_750_L_8_R_6.png","img/750/randomdotsizeEA/L/13_Ratio_750_L_8_R_6.png","img/750/randomdotsizeEA/R/5_Ratio_750_L_15_R_20.png","img/900/equaldotsize/L/8_Ratio_900_L_20_R_18.png","img/250/equaldotsize/R/9_Ratio_250_L_3_R_12.png","img/900/equaldotsize/L/4_Ratio_900_L_20_R_18.png","img/750/equaldotsize/L/8_Ratio_750_L_4_R_3.png","img/750/equaldotanddens/L/9_Ratio_750_L_4_R_3.png","img/750/randomdotsizeEA/L/6_Ratio_750_L_24_R_18.png","img/750/equaldotsize/R/2_Ratio_750_L_6_R_8.png","img/500/randomdotsizeEA/R/3_Ratio_500_L_10_R_20.png","img/250/equaldotsize/R/8_Ratio_250_L_1_R_4.png","img/750/equaldotanddens/L/8_Ratio_750_L_4_R_3.png","img/900/equaldotsize/L/8_Ratio_900_L_20_R_18.png","img/900/equaldotanddens/L/10_Ratio_900_L_20_R_18.png","img/750/equaldotsize/L/10_Ratio_750_L_4_R_3.png","img/250/equaldotanddens/R/4_Ratio_250_L_3_R_12.png","img/250/equaldotanddens/L/2_Ratio_250_L_16_R_4.png","img/900/equaldotsize/R/13_Ratio_900_L_18_R_20.png","img/750/randomdotsizeEA/L/1_Ratio_750_L_20_R_15.png","img/750/equaldotanddens/L/13_Ratio_750_L_8_R_6.png","img/250/equaldotsize/R/6_Ratio_250_L_6_R_24.png","img/250/equaldotanddens/L/14_Ratio_250_L_12_R_3.png","img/500/equaldotanddens/L/11_Ratio_500_L_12_R_6.png","img/750/equaldotanddens/L/10_Ratio_750_L_4_R_3.png","img/250/equaldotanddens/L/2_Ratio_250_L_16_R_4.png","img/900/randomdotsizeEA/R/15_Ratio_900_L_9_R_10.png","img/250/equaldotsize/R/8_Ratio_250_L_1_R_4.png","img/250/randomdotsizeEA/R/13_Ratio_250_L_2_R_8.png","img/750/equaldotanddens/R/7_Ratio_750_L_3_R_4.png","img/250/equaldotsize/R/12_Ratio_250_L_5_R_20.png","img/750/randomdotsizeEA/R/12_Ratio_750_L_3_R_4.png","img/900/randomdotsizeEA/L/4_Ratio_900_L_20_R_18.png","img/500/randomdotsizeEA/L/4_Ratio_500_L_18_R_9.png","img/750/equaldotsize/R/7_Ratio_750_L_3_R_4.png","img/750/equaldotsize/R/3_Ratio_750_L_15_R_20.png","img/250/randomdotsizeEA/R/12_Ratio_250_L_5_R_20.png","img/500/equaldotsize/R/15_Ratio_500_L_1_R_2.png","img/250/equaldotsize/L/3_Ratio_250_L_8_R_2.png","img/250/equaldotanddens/R/4_Ratio_250_L_3_R_12.png","img/250/equaldotanddens/L/5_Ratio_250_L_24_R_6.png","img/500/equaldotsize/R/1_Ratio_500_L_9_R_18.png","img/500/equaldotanddens/R/9_Ratio_500_L_2_R_4.png","img/900/randomdotsizeEA/R/6_Ratio_900_L_9_R_10.png","img/900/randomdotsizeEA/L/1_Ratio_900_L_10_R_9.png","img/900/equaldotanddens/L/10_Ratio_900_L_20_R_18.png","img/750/randomdotsizeEA/L/14_Ratio_750_L_8_R_6.png","img/500/equaldotsize/R/1_Ratio_500_L_9_R_18.png","img/750/equaldotsize/L/9_Ratio_750_L_4_R_3.png","img/900/equaldotanddens/L/2_Ratio_900_L_20_R_18.png","img/500/equaldotanddens/R/9_Ratio_500_L_2_R_4.png","img/250/equaldotanddens/L/15_Ratio_250_L_12_R_3.png","img/900/equaldotsize/R/3_Ratio_900_L_9_R_10.png","img/900/equaldotsize/R/7_Ratio_900_L_9_R_10.png","img/900/randomdotsizeEA/R/15_Ratio_900_L_9_R_10.png","img/900/randomdotsizeEA/L/4_Ratio_900_L_20_R_18.png","img/900/equaldotsize/R/12_Ratio_900_L_18_R_20.png","img/500/randomdotsizeEA/R/2_Ratio_500_L_3_R_6.png","img/900/randomdotsizeEA/R/5_Ratio_900_L_9_R_10.png","img/900/equaldotanddens/R/15_Ratio_900_L_9_R_10.png","img/500/equaldotanddens/L/13_Ratio_500_L_12_R_6.png","img/500/randomdotsizeEA/R/6_Ratio_500_L_9_R_18.png","img/250/equaldotsize/R/12_Ratio_250_L_5_R_20.png"],"Rat0":[["12_Ratio_0_L_9_R_0.png","13_Ratio_0_L_6_R_0.png","5_Ratio_0_L_2_R_0.png","6_Ratio_0_L_4_R_0.png","8_Ratio_0_L_6_R_0.png"],["1_Ratio_0_L_0_R_17.png","10_Ratio_0_L_0_R_22.png","11_Ratio_0_L_0_R_1.png","14_Ratio_0_L_0_R_24.png","15_Ratio_0_L_0_R_4.png","2_Ratio_0_L_0_R_5.png","3_Ratio_0_L_0_R_17.png","4_Ratio_0_L_0_R_7.png","7_Ratio_0_L_0_R_19.png","9_Ratio_0_L_0_R_15.png"]],"Rat250":[["1_Ratio_250_L_8_R_2.png","14_Ratio_250_L_12_R_3.png","15_Ratio_250_L_12_R_3.png","2_Ratio_250_L_16_R_4.png","3_Ratio_250_L_8_R_2.png","5_Ratio_250_L_24_R_6.png","7_Ratio_250_L_8_R_2.png"],["10_Ratio_250_L_4_R_16.png","11_Ratio_250_L_3_R_12.png","12_Ratio_250_L_5_R_20.png","13_Ratio_250_L_2_R_8.png","4_Ratio_250_L_3_R_12.png","6_Ratio_250_L_6_R_24.png","8_Ratio_250_L_1_R_4.png","9_Ratio_250_L_3_R_12.png"]],"Rat500":[["10_Ratio_500_L_4_R_2.png","11_Ratio_500_L_12_R_6.png","13_Ratio_500_L_12_R_6.png","4_Ratio_500_L_18_R_9.png","5_Ratio_500_L_4_R_2.png","7_Ratio_500_L_10_R_5.png","8_Ratio_500_L_8_R_4.png"],["1_Ratio_500_L_9_R_18.png","12_Ratio_500_L_1_R_2.png","14_Ratio_500_L_5_R_10.png","15_Ratio_500_L_1_R_2.png","2_Ratio_500_L_3_R_6.png","3_Ratio_500_L_10_R_20.png","6_Ratio_500_L_9_R_18.png","9_Ratio_500_L_2_R_4.png"]],"Rat750":[["1_Ratio_750_L_20_R_15.png","10_Ratio_750_L_4_R_3.png","13_Ratio_750_L_8_R_6.png","14_Ratio_750_L_8_R_6.png","6_Ratio_750_L_24_R_18.png","8_Ratio_750_L_4_R_3.png","9_Ratio_750_L_4_R_3.png"],["11_Ratio_750_L_12_R_16.png","12_Ratio_750_L_3_R_4.png","15_Ratio_750_L_9_R_12.png","2_Ratio_750_L_6_R_8.png","3_Ratio_750_L_15_R_20.png","4_Ratio_750_L_15_R_20.png","5_Ratio_750_L_15_R_20.png","7_Ratio_750_L_3_R_4.png"]],"Rat900":[["1_Ratio_900_L_10_R_9.png","10_Ratio_900_L_20_R_18.png","2_Ratio_900_L_20_R_18.png","4_Ratio_900_L_20_R_18.png","8_Ratio_900_L_20_R_18.png"],["11_Ratio_900_L_18_R_20.png","12_Ratio_900_L_18_R_20.png","13_Ratio_900_L_18_R_20.png","14_Ratio_900_L_18_R_20.png","15_Ratio_900_L_9_R_10.png","3_Ratio_900_L_9_R_10.png","5_Ratio_900_L_9_R_10.png","6_Ratio_900_L_9_R_10.png","7_Ratio_900_L_9_R_10.png","9_Ratio_900_L_18_R_20.png"]],"Rat1000":[["10_Ratio_1000_L_16_R_16.png","11_Ratio_1000_L_6_R_6.png","12_Ratio_1000_L_14_R_14.png","13_Ratio_1000_L_20_R_20.png","15_Ratio_1000_L_15_R_15.png","2_Ratio_1000_L_17_R_17.png","4_Ratio_1000_L_9_R_9.png","5_Ratio_1000_L_6_R_6.png","6_Ratio_1000_L_19_R_19.png","8_Ratio_1000_L_14_R_14.png","9_Ratio_1000_L_25_R_25.png"],["1_Ratio_1000_L_1_R_1.png","14_Ratio_1000_L_17_R_17.png","3_Ratio_1000_L_17_R_17.png","7_Ratio_1000_L_6_R_6.png"]]}},{"start_time":1551881388614,"click_time":1551881389642,"finger_time":1551881389181,"fix_duration":250,"trial":1,"RT":567,"MT":461,"sideResp":2,"stimulus":"img/250/equaldotanddens/R/13_Ratio_250_L_2_R_8.png","xmouse":[778,778,778,778,778,778,778,778,778,778,778,778,778,778,778,778,778,778,778,778,778,778,778,778,778,778,784,800,817,838,864,904,942,953,972,979,996,1004,1016,1023,1033,1044,1053,1063,1077,1083,1094,1097,1099,1100,1102,1105],"ymouse":[506,506,506,506,506,506,506,506,506,506,506,506,506,506,506,506,506,506,506,506,506,506,506,506,506,506,503,484,468,444,419,378,342,334,309,299,270,258,247,240,229,215,201,184,159,146,125,121,116,111,107,99],"timestamp_mouse":[9,27,53,67,89,108,127,149,168,187,208,227,249,267,287,307,327,347,368,387,409,427,449,468,487,508,527,547,567,587,607,627,647,668,689,708,727,747,768,787,807,827,848,868,888,908,928,947,968,987,1007,1027],"xSR":741.5,"ySR":469.95,"xT1":424.9,"yT1":0,"xT2":1058.1,"yT2":0,"toosoon":0,"cond_shown":"equaldotanddens","ratio_trial":250,"smaller_num":"2","larger_num":"8","correct_side":2,"subjID":"SofiaVargasMora17","gender":"1","age":"11","school":"6"},{"start_time":1551881391949,"click_time":1551881393102,"finger_time":1551881392441,"fix_duration":1225.3335923829688,"trial":2,"RT":492,"MT":661,"sideResp":1,"stimulus":"img/500/randomdotsizeEA/L/5_Ratio_500_L_4_R_2.png","xmouse":[783,783,783,783,783,783,783,783,783,783,783,783,783,783,783,783,783,783,783,783,783,772,763,751,733,729,724,722,722,716,714,709,703,694,673,660,632,612,594,570,568,566,562,557,538,533,521,515,509,506,506,506,506,505,504,502,501,498],"ymouse":[501,501,501,501,501,501,501,501,501,501,501,501,501,501,501,501,501,501,501,501,501,501,496,490,476,463,426,398,374,345,327,309,290,273,242,226,203,190,180,169,168,167,164,162,151,148,142,140,138,135,132,130,129,126,119,112,106,98],"timestamp_mouse":[13,48,52,73,94,113,134,154,172,192,214,232,253,273,292,312,332,354,372,392,412,432,453,472,492,513,532,552,573,593,613,632,653,672,693,713,732,753,772,792,812,834,853,872,892,912,932,952,973,992,1013,1033,1053,1072,1092,1114,1132,1153],"xSR":741.5,"ySR":469.95,"xT1":424.9,"yT1":0,"xT2":1058.1,"yT2":0,"toosoon":0,"cond_shown":"randomdotsizeEA","ratio_trial":500,"smaller_num":"2","larger_num":"4","correct_side":1,"subjID":"SofiaVargasMora17","gender":"1","age":"11","school":"6"},{"start_time":1551881394671,"click_time":1551881395601,"finger_time":1551881395321,"fix_duration":629.5396189859939,"trial":3,"RT":650,"MT":280,"sideResp":2,"stimulus":"img/900/equaldotsize/L/1_Ratio_900_L_10_R_9.png","xmouse":[786,786,786,786,786,786,786,786,786,786,786,786,786,786,786,786,786,786,786,786,786,786,786,786,786,786,786,786,786,792,806,826,847,899,921,952,978,999,1028,1034,1036,1037,1040,1051,1056,1061,1068],"ymouse":[524,524,524,524,524,524,524,524,524,524,524,524,524,524,524,524,524,524,524,524,524,524,524,524,524,524,524,524,524,521,508,492,474,423,393,354,318,285,245,227,214,207,194,155,134,115,91],"timestamp_mouse":[10,30,50,71,92,111,132,150,181,192,211,231,250,271,290,312,331,350,371,390,412,430,451,471,490,511,530,551,571,590,610,630,650,671,690,710,730,752,771,791,810,830,850,870,890,910,930],"xSR":741.5,"ySR":469.95,"xT1":424.9,"yT1":0,"xT2":1058.1,"yT2":0,"toosoon":0,"cond_shown":"equaldotsize","ratio_trial":900,"smaller_num":"9","larger_num":"10","correct_side":1,"subjID":"SofiaVargasMora17","gender":"1","age":"11","school":"6"},{"start_time":1551881396971,"click_time":1551881397841,"finger_time":1551881397561,"fix_duration":306.39151726576017,"trial":4,"RT":590,"MT":280,"sideResp":2,"stimulus":"img/750/equaldotsize/R/11_Ratio_750_L_12_R_16.png","xmouse":[766,766,766,766,766,766,766,766,766,766,766,766,766,766,766,766,766,766,766,766,766,766,766,766,766,766,766,768,796,821,858,897,937,1011,1034,1058,1068,1075,1087,1092,1094,1100,1104,1113],"ymouse":[491,491,491,491,491,491,491,491,491,491,491,491,491,491,491,491,491,491,491,491,491,491,491,491,491,491,491,492,479,460,430,404,370,300,274,233,211,192,162,149,143,134,120,94],"timestamp_mouse":[11,40,50,70,92,112,130,150,171,191,210,232,251,270,292,312,330,351,371,390,410,430,452,470,492,510,530,551,570,590,612,630,650,670,691,710,730,750,770,790,810,831,852,870],"xSR":741.5,"ySR":469.95,"xT1":424.9,"yT1":0,"xT2":1058.1,"yT2":0,"toosoon":0,"cond_shown":"equaldotsize","ratio_trial":750,"smaller_num":"12","larger_num":"16","correct_side":2,"subjID":"SofiaVargasMora17","gender":"1","age":"11","school":"6"},{"start_time":1551881399959,"click_time":1551881401201,"finger_time":1551881400583,"fix_duration":937.6384014540306,"trial":5,"RT":624,"MT":618,"sideResp":2,"stimulus":"img/750/equaldotsize/L/6_Ratio_750_L_24_R_18.png","xmouse":[802,802,802,802,802,802,802,802,802,802,802,802,802,802,802,802,802,802,802,802,802,802,802,802,802,802,802,802,802,794,781,766,754,743,731,727,720,715,707,692,689,689,689,689,721,745,788,839,888,1005,1046,1085,1117,1132,1142,1144,1152,1155,1159,1159,1159,1159,1158],"ymouse":[509,509,509,509,509,509,509,509,509,509,509,509,509,509,509,509,509,509,509,509,509,509,509,509,509,509,509,509,509,495,475,449,425,404,365,347,318,299,281,244,235,230,223,218,202,192,180,168,158,132,119,114,111,108,107,105,102,100,98,97,95,93,87],"timestamp_mouse":[9,22,43,66,83,103,123,143,162,183,203,222,242,262,283,302,324,342,363,383,404,423,442,463,482,502,522,543,562,582,602,624,642,663,683,703,722,742,762,782,802,822,843,862,882,902,922,942,962,982,1002,1022,1042,1062,1082,1103,1122,1142,1162,1184,1202,1222,1242],"xSR":741.5,"ySR":469.95,"xT1":424.9,"yT1":0,"xT2":1058.1,"yT2":0,"toosoon":0,"cond_shown":"equaldotsize","ratio_trial":750,"smaller_num":"18","larger_num":"24","correct_side":1,"subjID":"SofiaVargasMora17","gender":"1","age":"11","school":"6"},{"start_time":1551881402632,"click_time":1551881403441,"finger_time":1551881403341,"fix_duration":589.4470704954141,"trial":6,"RT":709,"MT":100,"sideResp":2,"stimulus":"img/900/equaldotanddens/L/1_Ratio_900_L_10_R_9.png","xmouse":[780,780,780,780,780,780,780,780,780,780,780,780,780,780,780,780,780,780,780,780,780,780,780,780,780,780,780,780,780,780,780,780,780,786,802,904,964,1036,1091,1124,1142],"ymouse":[543,543,543,543,543,543,543,543,543,543,543,543,543,543,543,543,543,543,543,543,543,543,543,543,543,543,543,543,543,543,543,543,543,535,516,397,330,246,180,133,95],"timestamp_mouse":[9,43,49,70,91,109,130,151,169,189,209,229,250,269,290,309,330,351,370,391,410,431,451,470,491,509,531,551,569,590,609,630,649,669,690,709,729,750,769,789,809],"xSR":741.5,"ySR":469.95,"xT1":424.9,"yT1":0,"xT2":1058.1,"yT2":0,"toosoon":0,"cond_shown":"equaldotanddens","ratio_trial":900,"smaller_num":"9","larger_num":"10","correct_side":1,"subjID":"SofiaVargasMora17","gender":"1","age":"11","school":"6"},{"start_time":1551881404754,"click_time":1551881406003,"finger_time":1551881405441,"fix_duration":250,"trial":7,"RT":687,"MT":562,"sideResp":1,"stimulus":"img/250/randomdotsizeEA/L/14_Ratio_250_L_12_R_3.png","xmouse":[779,779,779,779,779,779,779,779,779,779,779,779,779,779,779,779,779,779,779,779,779,779,779,779,779,779,779,779,779,779,779,779,774,772,752,742,724,712,698,678,667,656,644,637,625,623,622,619,615,599,585,570,554,541,532,531,531,531,531,531,530,525,513],"ymouse":[514,514,514,514,514,514,514,514,514,514,514,514,514,514,514,514,514,514,514,514,514,514,514,514,514,514,514,514,514,514,514,514,509,502,457,431,384,350,310,267,250,234,221,212,188,179,174,163,153,123,104,93,83,76,70,69,69,69,69,69,69,69,72],"timestamp_mouse":[9,41,49,67,87,107,128,148,167,189,207,229,248,268,288,308,327,348,367,388,408,428,447,467,488,507,528,549,567,589,607,629,647,668,687,709,727,747,767,787,807,827,848,869,888,908,928,949,969,987,1007,1027,1047,1067,1087,1107,1127,1147,1167,1188,1207,1228,1249],"xSR":741.5,"ySR":469.95,"xT1":424.9,"yT1":0,"xT2":1058.1,"yT2":0,"toosoon":0,"cond_shown":"randomdotsizeEA","ratio_trial":250,"smaller_num":"3","larger_num":"12","correct_side":1,"subjID":"SofiaVargasMora17","gender":"1","age":"11","school":"6"},{"start_time":1551881407517,"click_time":1551881408122,"finger_time":1551881408003,"fix_duration":514.3436465096648,"trial":8,"RT":486,"MT":119,"sideResp":2,"stimulus":"img/500/equaldotanddens/R/6_Ratio_500_L_9_R_18.png","xmouse":[792,792,792,792,792,792,792,792,792,792,792,792,792,792,792,792,792,792,792,792,792,792,801,812,862,918,1035,1072,1119,1136,1148],"ymouse":[492,492,492,492,492,492,492,492,492,492,492,492,492,492,492,492,492,492,492,492,492,492,485,474,438,393,272,227,154,119,92],"timestamp_mouse":[9,24,56,65,84,106,124,145,165,186,204,225,246,264,285,305,325,345,366,386,404,424,444,465,486,506,524,545,564,585,605],"xSR":741.5,"ySR":469.95,"xT1":424.9,"yT1":0,"xT2":1058.1,"yT2":0,"toosoon":0,"cond_shown":"equaldotanddens","ratio_trial":500,"smaller_num":"9","larger_num":"18","correct_side":2,"subjID":"SofiaVargasMora17","gender":"1","age":"11","school":"6"},{"start_time":1551881409743,"click_time":1551881410642,"finger_time":1551881410241,"fix_duration":299.8914318133514,"trial":9,"RT":498,"MT":401,"sideResp":1,"stimulus":"img/500/randomdotsizeEA/R/14_Ratio_500_L_5_R_10.png","xmouse":[774,774,774,775,775,775,775,775,775,775,776,776,776,776,776,776,776,776,776,776,776,776,776,778,785,796,798,800,800,800,797,792,785,778,770,751,737,714,683,661,604,581,564,549,537,518],"ymouse":[503,503,503,504,504,504,504,504,504,504,505,505,505,505,505,505,505,505,505,505,505,505,503,499,488,469,466,459,454,445,424,413,402,394,385,365,352,339,318,296,214,180,157,138,120,97],"timestamp_mouse":[1,18,39,58,78,98,119,138,160,180,198,219,240,258,279,300,319,339,358,379,399,419,439,458,479,498,519,538,559,578,598,618,639,658,679,698,718,738,759,779,798,818,838,858,879,898],"xSR":741.5,"ySR":469.95,"xT1":424.9,"yT1":0,"xT2":1058.1,"yT2":0,"toosoon":0,"cond_shown":"randomdotsizeEA","ratio_trial":500,"smaller_num":"5","larger_num":"10","correct_side":2,"subjID":"SofiaVargasMora17","gender":"1","age":"11","school":"6"},{"start_time":1551881411832,"click_time":1551881412623,"finger_time":1551881412281,"fix_duration":250,"trial":10,"RT":449,"MT":342,"sideResp":1,"stimulus":"img/250/equaldotanddens/L/5_Ratio_250_L_24_R_6.png","xmouse":[810,810,810,809,809,809,809,809,809,809,809,809,809,809,808,810,813,814,815,818,819,819,815,806,794,760,739,721,702,680,629,612,592,581,572,552,542,531,528,524],"ymouse":[514,514,514,514,514,514,514,514,514,514,514,514,514,514,514,511,508,505,502,496,483,477,466,455,443,422,407,392,373,343,253,221,192,175,159,110,87,68,59,55],"timestamp_mouse":[9,30,52,69,90,109,131,150,171,189,210,229,251,271,289,310,329,350,370,390,409,430,449,470,489,509,529,549,569,590,609,629,649,669,689,711,730,749,770,791],"xSR":741.5,"ySR":469.95,"xT1":424.9,"yT1":0,"xT2":1058.1,"yT2":0,"toosoon":0,"cond_shown":"equaldotanddens","ratio_trial":250,"smaller_num":"6","larger_num":"24","correct_side":1,"subjID":"SofiaVargasMora17","gender":"1","age":"11","school":"6"},{"start_time":1551881413793,"click_time":1551881414622,"finger_time":1551881414341,"fix_duration":250,"trial":11,"RT":548,"MT":281,"sideResp":1,"stimulus":"img/500/equaldotsize/L/13_Ratio_500_L_12_R_6.png","xmouse":[797,797,801,802,802,802,802,802,802,802,802,802,802,802,802,802,802,802,802,802,802,802,803,802,800,794,786,763,744,724,697,671,634,617,595,571,542,499,483,464,450,439],"ymouse":[509,510,511,511,511,511,511,511,511,511,511,511,511,511,511,511,511,511,511,511,511,511,511,504,495,485,474,446,416,384,350,320,273,256,232,212,190,158,141,123,108,92],"timestamp_mouse":[8,28,61,68,89,109,128,150,168,189,208,229,250,269,288,309,328,350,368,390,408,428,448,468,488,508,528,548,568,588,608,628,648,668,688,709,729,748,768,790,810,829],"xSR":741.5,"ySR":469.95,"xT1":424.9,"yT1":0,"xT2":1058.1,"yT2":0,"toosoon":0,"cond_shown":"equaldotsize","ratio_trial":500,"smaller_num":"6","larger_num":"12","correct_side":1,"subjID":"SofiaVargasMora17","gender":"1","age":"11","school":"6"},{"start_time":1551881416959,"click_time":1551881417762,"finger_time":1551881417441,"fix_duration":1476.2336318958771,"trial":12,"RT":482,"MT":321,"sideResp":2,"stimulus":"img/900/equaldotsize/L/2_Ratio_900_L_20_R_18.png","xmouse":[791,791,791,791,791,791,791,791,791,791,791,791,793,793,793,793,794,794,796,797,802,807,811,819,839,847,860,878,892,921,934,943,954,964,986,1005,1011,1027,1036,1056,1064],"ymouse":[531,531,531,531,531,531,531,531,531,531,531,531,531,531,529,528,526,525,523,520,510,502,494,481,451,439,422,401,384,349,329,315,293,272,227,198,187,159,144,108,92],"timestamp_mouse":[10,38,42,63,83,103,123,144,163,184,202,224,243,262,282,302,323,342,362,382,402,422,442,462,482,503,523,543,563,582,602,623,642,663,682,704,724,742,763,782,803],"xSR":741.5,"ySR":469.95,"xT1":424.9,"yT1":0,"xT2":1058.1,"yT2":0,"toosoon":0,"cond_shown":"equaldotsize","ratio_trial":900,"smaller_num":"18","larger_num":"20","correct_side":1,"subjID":"SofiaVargasMora17","gender":"1","age":"11","school":"6"},{"start_time":1551881418873,"click_time":1551881420722,"finger_time":1551881419922,"fix_duration":250,"trial":13,"RT":1049,"MT":800,"sideResp":2,"stimulus":"img/500/randomdotsizeEA/R/14_Ratio_500_L_5_R_10.png","xmouse":[769,769,769,769,769,769,769,769,769,769,769,769,769,769,769,769,769,769,769,769,769,769,769,769,769,769,769,769,769,769,769,769,769,769,769,769,769,769,769,769,769,769,769,770,772,775,776,776,779,780,794,815,846,887,896,901,904,908,927,942,954,976,992,1012,1020,1026,1030,1033,1036,1037,1037,1037,1031,1008,996,987,982,979,979,979,979,982,987,1013,1027,1035,1039,1042,1047,1048,1053,1058,1061],"ymouse":[515,515,515,515,515,515,515,515,515,515,515,515,515,515,515,515,515,515,515,515,515,515,515,515,515,515,515,515,515,515,515,515,515,515,515,515,515,515,515,515,515,515,515,515,515,513,512,511,508,507,494,476,451,419,407,401,393,379,323,292,275,245,225,202,191,183,175,169,162,161,161,160,157,148,143,139,136,134,134,134,134,132,131,125,121,118,116,113,109,107,101,96,92],"timestamp_mouse":[8,31,49,69,88,109,129,148,170,188,208,228,248,269,288,308,330,349,369,388,410,428,449,469,488,509,529,549,568,589,608,628,649,668,689,708,729,748,769,788,810,828,849,869,888,910,928,948,968,989,1008,1030,1049,1068,1088,1109,1129,1148,1168,1189,1209,1228,1249,1269,1288,1309,1329,1348,1368,1388,1408,1428,1449,1470,1488,1508,1528,1549,1568,1590,1608,1629,1649,1669,1688,1709,1729,1748,1769,1789,1808,1828,1849],"xSR":741.5,"ySR":469.95,"xT1":424.9,"yT1":0,"xT2":1058.1,"yT2":0,"toosoon":0,"cond_shown":"randomdotsizeEA","ratio_trial":500,"smaller_num":"5","larger_num":"10","correct_side":2,"subjID":"SofiaVargasMora17","gender":"1","age":"11","school":"6"},{"start_time":1551881421914,"click_time":1551881423302,"finger_time":1551881422541,"fix_duration":250,"trial":14,"RT":627,"MT":761,"sideResp":1,"stimulus":"img/900/equaldotanddens/L/8_Ratio_900_L_20_R_18.png","xmouse":[785,787,787,787,787,787,787,787,787,787,787,787,787,787,787,787,787,787,787,787,787,787,787,787,787,787,788,795,797,799,799,793,788,784,782,782,782,782,787,795,811,856,893,936,978,1004,1022,1023,1023,1023,1018,990,970,944,916,892,848,818,799,778,750,680,640,611,591,577,558,540,535,516],"ymouse":[517,517,517,517,517,517,517,517,517,517,517,517,517,517,517,517,517,517,517,517,517,517,517,517,517,517,517,506,500,483,472,442,425,409,396,389,385,384,379,369,353,312,281,244,211,193,176,173,170,170,166,158,153,148,144,141,125,111,99,88,71,47,39,37,37,37,36,36,36,36],"timestamp_mouse":[11,43,47,69,88,107,129,147,169,189,208,227,249,267,287,307,328,348,368,388,409,427,447,467,488,508,527,548,568,587,608,627,647,667,688,708,727,748,767,788,808,827,847,867,888,907,928,948,968,988,1009,1027,1047,1067,1088,1108,1127,1149,1167,1189,1209,1228,1247,1267,1287,1309,1327,1347,1367,1388],"xSR":741.5,"ySR":469.95,"xT1":424.9,"yT1":0,"xT2":1058.1,"yT2":0,"toosoon":0,"cond_shown":"equaldotanddens","ratio_trial":900,"smaller_num":"18","larger_num":"20","correct_side":1,"subjID":"SofiaVargasMora17","gender":"1","age":"11","school":"6"},{"start_time":1551881425139,"click_time":1551881425922,"finger_time":1551881425662,"fix_duration":897.5403780776392,"trial":15,"RT":523,"MT":260,"sideResp":1,"stimulus":"img/250/randomdotsizeEA/L/1_Ratio_250_L_8_R_2.png","xmouse":[783,783,783,783,783,783,783,783,783,783,783,783,783,783,783,783,783,783,783,783,783,785,791,793,795,794,787,767,750,730,696,684,669,645,619,573,555,533,525,520],"ymouse":[531,531,531,531,531,531,531,531,531,531,531,531,531,531,531,531,531,531,531,531,531,531,523,514,506,481,453,375,327,288,232,207,181,148,116,68,48,19,7,1],"timestamp_mouse":[9,24,44,63,83,103,122,144,163,183,204,222,243,262,282,302,323,344,363,383,403,422,443,463,482,502,523,542,563,582,602,622,642,663,682,702,723,742,763,783],"xSR":741.5,"ySR":469.95,"xT1":424.9,"yT1":0,"xT2":1058.1,"yT2":0,"toosoon":0,"cond_shown":"randomdotsizeEA","ratio_trial":250,"smaller_num":"2","larger_num":"8","correct_side":1,"subjID":"SofiaVargasMora17","gender":"1","age":"11","school":"6"},{"start_time":1551881427786,"click_time":1551881428481,"finger_time":1551881428261,"fix_duration":844.8273653109794,"trial":16,"RT":475,"MT":220,"sideResp":1,"stimulus":"img/500/randomdotsizeEA/L/7_Ratio_500_L_10_R_5.png","xmouse":[780,780,780,780,780,780,780,780,780,780,780,780,780,780,780,780,780,780,780,780,780,781,782,782,766,746,713,650,626,610,595,581,554,527,509],"ymouse":[522,522,522,522,522,522,522,522,522,522,522,522,522,522,522,522,522,522,522,522,522,519,495,468,412,361,303,226,200,185,173,158,125,90,69],"timestamp_mouse":[16,40,55,76,95,115,135,155,177,197,216,237,255,275,295,316,336,357,376,396,416,436,455,475,495,516,535,555,575,595,615,635,655,675,695],"xSR":741.5,"ySR":469.95,"xT1":424.9,"yT1":0,"xT2":1058.1,"yT2":0,"toosoon":0,"cond_shown":"randomdotsizeEA","ratio_trial":500,"smaller_num":"5","larger_num":"10","correct_side":1,"subjID":"SofiaVargasMora17","gender":"1","age":"11","school":"6"},{"start_time":1551881430892,"click_time":1551881431922,"finger_time":1551881431441,"fix_duration":1329.2035319709225,"trial":17,"RT":549,"MT":481,"sideResp":2,"stimulus":"img/750/equaldotanddens/R/7_Ratio_750_L_3_R_4.png","xmouse":[771,771,771,771,771,771,771,771,771,771,771,771,771,771,771,771,771,771,771,771,771,771,771,771,772,776,783,810,832,844,853,859,882,894,907,915,923,934,942,948,958,973,1002,1017,1038,1058,1074,1097,1105,1116,1122,1126],"ymouse":[518,518,518,518,518,518,518,518,518,518,518,518,518,518,518,518,518,518,518,518,518,518,518,518,519,516,507,464,430,407,388,370,326,305,287,275,265,250,241,234,223,213,195,183,168,156,144,126,118,106,101,94],"timestamp_mouse":[9,33,50,71,89,109,131,149,171,190,210,229,250,270,289,310,329,350,369,389,409,430,449,470,490,509,529,549,569,589,609,629,649,669,689,709,729,749,770,789,809,829,849,870,889,910,929,949,970,989,1010,1030],"xSR":741.5,"ySR":469.95,"xT1":424.9,"yT1":0,"xT2":1058.1,"yT2":0,"toosoon":0,"cond_shown":"equaldotanddens","ratio_trial":750,"smaller_num":"3","larger_num":"4","correct_side":2,"subjID":"SofiaVargasMora17","gender":"1","age":"11","school":"6"},{"start_time":1551881435300,"click_time":1551881436002,"finger_time":1551881435841,"fix_duration":976.9622935020013,"trial":18,"RT":541,"MT":161,"sideResp":1,"stimulus":"img/750/equaldotanddens/L/13_Ratio_750_L_8_R_6.png","xmouse":[779,779,779,779,779,779,779,779,779,779,779,779,779,779,779,779,779,779,779,779,779,779,779,779,779,781,781,759,732,723,688,654,583,554,533,518],"ymouse":[536,536,536,536,536,536,536,536,536,536,536,536,536,536,536,536,536,536,536,536,536,536,536,536,536,519,506,437,369,344,271,208,109,72,48,31],"timestamp_mouse":[1,22,58,62,82,101,121,143,161,183,201,221,241,263,283,302,322,341,362,383,402,421,442,462,481,501,521,541,561,582,603,622,641,661,682,702],"xSR":741.5,"ySR":469.95,"xT1":424.9,"yT1":0,"xT2":1058.1,"yT2":0,"toosoon":0,"cond_shown":"equaldotanddens","ratio_trial":750,"smaller_num":"6","larger_num":"8","correct_side":1,"subjID":"SofiaVargasMora17","gender":"1","age":"11","school":"6"},{"start_time":1551881437647,"click_time":1551881438621,"finger_time":1551881438181,"fix_duration":523.7631125356265,"trial":19,"RT":534,"MT":440,"sideResp":1,"stimulus":"img/250/equaldotsize/L/1_Ratio_250_L_8_R_2.png","xmouse":[780,780,780,780,780,780,780,780,780,780,780,780,780,780,780,780,780,780,780,780,780,781,780,779,770,764,755,746,737,711,687,671,658,648,637,633,629,621,616,608,602,593,586,577,558,548,540,530,521],"ymouse":[501,501,501,501,501,501,501,501,501,501,501,501,501,501,501,501,501,501,501,501,501,500,497,495,484,477,466,454,440,407,373,356,340,326,296,272,241,214,190,158,145,131,121,114,101,96,92,87,84],"timestamp_mouse":[16,40,56,75,94,116,134,156,174,195,215,235,255,276,294,314,336,354,374,394,414,435,455,475,494,515,534,555,575,594,615,634,655,675,694,714,734,754,775,794,815,834,854,875,894,914,935,955,974],"xSR":741.5,"ySR":469.95,"xT1":424.9,"yT1":0,"xT2":1058.1,"yT2":0,"toosoon":0,"cond_shown":"equaldotsize","ratio_trial":250,"smaller_num":"2","larger_num":"8","correct_side":1,"subjID":"SofiaVargasMora17","gender":"1","age":"11","school":"6"},{"start_time":1551881440892,"click_time":1551881442263,"finger_time":1551881441341,"fix_duration":1348.6894550377576,"trial":20,"RT":449,"MT":922,"sideResp":2,"stimulus":"img/250/randomdotsizeEA/R/8_Ratio_250_L_1_R_4.png","xmouse":[786,786,786,786,786,786,786,786,786,786,786,786,786,786,786,786,786,786,786,786,789,796,812,819,824,827,828,824,815,799,788,772,740,724,710,693,674,652,641,635,631,628,627,627,629,635,644,676,700,738,767,796,848,866,884,894,907,928,944,949,960,973,1001,1016,1032,1044,1055,1069,1080],"ymouse":[521,521,521,521,521,521,521,521,521,521,521,521,521,521,521,521,521,521,515,508,497,484,455,442,430,423,414,394,382,369,358,347,325,314,299,281,262,237,225,219,217,213,208,203,199,195,192,183,177,165,155,148,133,127,121,118,113,102,95,95,94,94,101,104,106,107,107,103,95],"timestamp_mouse":[9,35,49,70,90,109,130,150,171,191,210,230,249,271,289,309,331,349,369,389,410,429,449,469,490,509,530,550,570,589,610,630,649,669,690,710,730,749,771,789,809,831,850,870,889,909,929,949,970,989,1010,1029,1049,1069,1089,1109,1129,1149,1170,1189,1210,1230,1250,1269,1290,1309,1330,1349,1371],"xSR":741.5,"ySR":469.95,"xT1":424.9,"yT1":0,"xT2":1058.1,"yT2":0,"toosoon":0,"cond_shown":"randomdotsizeEA","ratio_trial":250,"smaller_num":"1","larger_num":"4","correct_side":2,"subjID":"SofiaVargasMora17","gender":"1","age":"11","school":"6"},{"start_time":1551881443622,"click_time":1551881444501,"finger_time":1551881444182,"fix_duration":359.6372345260578,"trial":21,"RT":560,"MT":319,"sideResp":1,"stimulus":"img/900/equaldotanddens/L/2_Ratio_900_L_20_R_18.png","xmouse":[779,779,779,779,779,779,779,779,779,779,779,779,779,779,779,779,779,779,779,779,779,779,779,779,778,772,766,759,747,736,707,683,676,656,642,626,614,603,592,580,559,547,528,519],"ymouse":[525,525,525,525,525,525,525,525,525,525,525,525,525,525,525,525,525,525,525,525,525,525,525,525,525,497,474,449,412,371,290,230,217,173,150,119,99,81,67,52,33,26,17,13],"timestamp_mouse":[19,39,60,79,100,121,139,159,180,199,219,239,261,279,299,320,339,359,379,400,421,440,461,480,499,519,539,560,580,599,619,639,660,679,700,719,739,759,780,799,819,840,859,879],"xSR":741.5,"ySR":469.95,"xT1":424.9,"yT1":0,"xT2":1058.1,"yT2":0,"toosoon":0,"cond_shown":"equaldotanddens","ratio_trial":900,"smaller_num":"18","larger_num":"20","correct_side":1,"subjID":"SofiaVargasMora17","gender":"1","age":"11","school":"6"},{"start_time":1551881446041,"click_time":1551881447021,"finger_time":1551881446641,"fix_duration":478.21064745138585,"trial":22,"RT":600,"MT":380,"sideResp":1,"stimulus":"img/500/equaldotsize/L/10_Ratio_500_L_4_R_2.png","xmouse":[782,782,782,782,782,782,782,782,782,782,782,782,782,782,782,782,782,782,782,782,782,782,782,782,782,782,782,783,782,779,756,737,717,686,671,648,642,637,629,621,602,590,581,571,561,543,536,532,528,523],"ymouse":[500,500,500,500,500,500,500,500,500,500,500,500,500,500,500,500,500,500,500,500,500,500,500,500,500,500,500,500,498,487,435,387,332,270,248,217,208,201,197,191,181,176,165,149,136,113,102,93,84,76],"timestamp_mouse":[9,35,41,60,81,102,121,141,162,180,200,221,241,260,282,300,320,340,362,381,400,422,441,461,481,501,521,540,561,580,600,620,640,661,681,700,720,741,761,780,800,820,840,861,880,900,920,941,961,980],"xSR":741.5,"ySR":469.95,"xT1":424.9,"yT1":0,"xT2":1058.1,"yT2":0,"toosoon":0,"cond_shown":"equaldotsize","ratio_trial":500,"smaller_num":"2","larger_num":"4","correct_side":1,"subjID":"SofiaVargasMora17","gender":"1","age":"11","school":"6"},{"start_time":1551881448536,"click_time":1551881449401,"finger_time":1551881448901,"fix_duration":272.82826772075805,"trial":23,"RT":365,"MT":500,"sideResp":2,"stimulus":"img/500/equaldotanddens/R/6_Ratio_500_L_9_R_18.png","xmouse":[764,764,764,764,764,764,764,764,764,764,764,764,764,764,764,764,764,770,777,785,811,836,858,873,884,891,895,901,912,922,935,941,946,956,966,990,1000,1009,1017,1023,1034,1043,1054,1068],"ymouse":[480,480,480,480,480,480,480,480,480,480,480,480,480,480,480,480,480,471,456,439,398,368,340,319,303,283,271,253,227,213,191,183,178,169,159,138,128,118,109,102,91,84,78,74],"timestamp_mouse":[10,36,45,66,85,105,126,145,166,186,205,226,245,267,285,305,327,345,365,385,406,425,446,466,485,505,526,545,566,586,606,625,645,666,685,705,726,745,766,785,805,825,846,865],"xSR":741.5,"ySR":469.95,"xT1":424.9,"yT1":0,"xT2":1058.1,"yT2":0,"toosoon":0,"cond_shown":"equaldotanddens","ratio_trial":500,"smaller_num":"9","larger_num":"18","correct_side":2,"subjID":"SofiaVargasMora17","gender":"1","age":"11","school":"6"},{"start_time":1551881451341,"click_time":1551881452141,"finger_time":1551881451841,"fix_duration":1178.4626325171591,"trial":24,"RT":500,"MT":300,"sideResp":1,"stimulus":"img/900/equaldotanddens/L/2_Ratio_900_L_20_R_18.png","xmouse":[763,763,763,763,763,763,763,763,763,763,763,763,763,763,763,763,763,763,763,761,760,758,757,754,749,723,706,675,655,638,606,591,579,571,563,545,536,518,505,490,472],"ymouse":[516,516,516,516,516,516,516,516,516,516,516,516,516,516,516,516,515,508,506,503,498,496,492,487,477,439,415,366,336,310,257,237,220,204,190,163,148,128,119,108,91],"timestamp_mouse":[8,34,42,60,80,100,122,142,160,181,200,220,240,261,281,300,322,340,360,381,400,420,440,461,480,500,521,540,560,580,600,620,640,661,681,701,720,740,761,780,800],"xSR":741.5,"ySR":469.95,"xT1":424.9,"yT1":0,"xT2":1058.1,"yT2":0,"toosoon":0,"cond_shown":"equaldotanddens","ratio_trial":900,"smaller_num":"18","larger_num":"20","correct_side":1,"subjID":"SofiaVargasMora17","gender":"1","age":"11","school":"6"},{"start_time":1551881453513,"click_time":1551881454602,"finger_time":1551881454041,"fix_duration":250,"trial":25,"RT":528,"MT":561,"sideResp":2,"stimulus":"img/750/randomdotsizeEA/R/2_Ratio_750_L_6_R_8.png","xmouse":[798,798,798,798,798,798,798,798,798,798,798,798,798,798,798,798,798,798,798,798,802,807,811,814,818,821,829,832,836,840,843,854,863,871,884,900,947,982,1010,1035,1044,1052,1054,1054,1054,1052,1050,1050,1051,1052,1053,1055,1056,1058,1061],"ymouse":[509,509,509,509,509,509,509,509,509,509,509,509,509,509,509,509,509,509,509,509,507,500,495,489,482,477,466,459,448,439,431,416,407,397,386,374,344,322,301,279,267,237,220,203,188,173,146,136,124,116,105,90,85,80,77],"timestamp_mouse":[8,29,57,69,88,108,130,149,169,189,210,228,249,268,289,309,330,348,369,389,408,428,448,468,489,509,528,550,568,588,608,628,648,669,688,710,728,748,768,789,809,828,848,869,889,908,929,948,968,988,1010,1029,1048,1069,1089],"xSR":741.5,"ySR":469.95,"xT1":424.9,"yT1":0,"xT2":1058.1,"yT2":0,"toosoon":0,"cond_shown":"randomdotsizeEA","ratio_trial":750,"smaller_num":"6","larger_num":"8","correct_side":2,"subjID":"SofiaVargasMora17","gender":"1","age":"11","school":"6"},{"start_time":1551881456136,"click_time":1551881456963,"finger_time":1551881456662,"fix_duration":832.957216247201,"trial":26,"RT":526,"MT":301,"sideResp":1,"stimulus":"img/500/equaldotanddens/L/4_Ratio_500_L_18_R_9.png","xmouse":[785,785,785,785,785,786,786,786,786,786,786,786,786,786,786,786,786,787,789,789,789,789,792,792,792,772,758,730,702,680,643,630,621,610,600,567,556,546,540,536,526,521],"ymouse":[539,539,539,539,539,538,538,538,538,538,538,538,538,538,538,538,538,537,537,537,537,535,528,519,509,470,446,396,346,285,201,181,166,154,146,131,124,116,110,105,100,99],"timestamp_mouse":[11,25,51,67,85,105,127,145,165,186,206,226,246,265,286,305,326,346,365,385,405,425,445,465,486,505,526,545,565,585,605,625,646,665,685,705,726,745,765,786,806,827],"xSR":741.5,"ySR":469.95,"xT1":424.9,"yT1":0,"xT2":1058.1,"yT2":0,"toosoon":0,"cond_shown":"equaldotanddens","ratio_trial":500,"smaller_num":"9","larger_num":"18","correct_side":1,"subjID":"SofiaVargasMora17","gender":"1","age":"11","school":"6"},{"start_time":1551881458311,"click_time":1551881459141,"finger_time":1551881458841,"fix_duration":448.3614378414023,"trial":27,"RT":530,"MT":300,"sideResp":1,"stimulus":"img/500/equaldotanddens/L/11_Ratio_500_L_12_R_6.png","xmouse":[797,797,797,797,797,797,797,797,797,797,797,797,797,797,799,801,804,805,805,805,806,806,806,801,791,777,752,737,710,691,674,648,636,625,611,599,578,568,561,552,543,521],"ymouse":[525,525,525,525,525,525,525,525,525,525,525,525,525,525,525,525,524,524,524,524,524,522,517,509,497,477,440,419,374,342,311,259,238,218,197,182,159,146,138,121,107,75],"timestamp_mouse":[10,34,51,70,90,112,130,150,171,191,211,232,251,270,290,310,330,350,370,392,410,431,450,472,490,510,530,551,570,590,610,631,650,671,691,711,730,751,771,790,810,830],"xSR":741.5,"ySR":469.95,"xT1":424.9,"yT1":0,"xT2":1058.1,"yT2":0,"toosoon":0,"cond_shown":"equaldotanddens","ratio_trial":500,"smaller_num":"6","larger_num":"12","correct_side":1,"subjID":"SofiaVargasMora17","gender":"1","age":"11","school":"6"},{"start_time":1551881461470,"click_time":1551881462502,"finger_time":1551881462182,"fix_duration":1326.4176478620232,"trial":28,"RT":712,"MT":320,"sideResp":1,"stimulus":"img/750/equaldotanddens/L/9_Ratio_750_L_4_R_3.png","xmouse":[786,786,786,786,786,786,786,786,786,786,786,786,786,786,786,786,786,786,786,786,786,786,787,787,787,787,787,787,787,787,787,785,782,773,767,758,748,739,719,710,687,676,662,641,629,617,606,593,564,549,526,516],"ymouse":[515,515,515,515,515,515,515,515,515,515,515,515,515,515,515,515,515,515,515,515,515,515,513,513,513,512,512,511,510,509,507,505,500,487,472,447,422,401,342,311,261,230,207,174,156,140,128,116,95,85,69,64],"timestamp_mouse":[12,44,51,72,93,113,131,152,172,193,211,231,251,272,292,312,332,352,371,391,411,431,451,471,492,513,531,553,571,592,611,631,652,671,691,712,731,751,772,791,811,832,853,872,891,911,931,951,971,993,1011,1032],"xSR":741.5,"ySR":469.95,"xT1":424.9,"yT1":0,"xT2":1058.1,"yT2":0,"toosoon":0,"cond_shown":"equaldotanddens","ratio_trial":750,"smaller_num":"3","larger_num":"4","correct_side":1,"subjID":"SofiaVargasMora17","gender":"1","age":"11","school":"6"},{"start_time":1551881464767,"click_time":1551881465681,"finger_time":1551881465361,"fix_duration":1405.4865100656455,"trial":29,"RT":594,"MT":320,"sideResp":1,"stimulus":"img/750/equaldotanddens/L/13_Ratio_750_L_8_R_6.png","xmouse":[783,783,783,783,783,783,783,783,783,783,783,783,783,783,783,783,783,783,783,783,783,783,783,783,783,783,784,784,775,762,742,719,697,668,653,649,638,627,604,592,580,570,558,528,511,496],"ymouse":[534,534,534,534,534,534,534,534,534,534,534,534,534,534,534,534,534,534,534,534,534,534,534,534,534,534,534,531,491,448,397,350,318,271,244,238,216,202,167,151,139,130,122,109,101,87],"timestamp_mouse":[14,34,55,74,94,115,134,156,176,194,215,234,254,274,295,315,334,354,374,395,415,435,456,474,494,514,535,555,574,594,614,635,654,674,694,715,734,754,774,794,815,834,855,874,894,914],"xSR":741.5,"ySR":469.95,"xT1":424.9,"yT1":0,"xT2":1058.1,"yT2":0,"toosoon":0,"cond_shown":"equaldotanddens","ratio_trial":750,"smaller_num":"6","larger_num":"8","correct_side":1,"subjID":"SofiaVargasMora17","gender":"1","age":"11","school":"6"},{"start_time":1551881467436,"click_time":1551881468161,"finger_time":1551881467922,"fix_duration":893.1837532331353,"trial":30,"RT":486,"MT":239,"sideResp":1,"stimulus":"img/500/equaldotanddens/L/11_Ratio_500_L_12_R_6.png","xmouse":[786,786,786,786,786,784,784,784,784,784,784,784,784,784,784,784,784,784,784,782,778,772,762,754,740,694,666,643,623,609,590,584,581,566,555,533,522],"ymouse":[546,546,546,546,546,546,546,546,546,546,546,546,546,546,546,546,546,546,546,545,543,540,534,517,487,365,300,253,217,194,146,133,125,104,92,72,63],"timestamp_mouse":[10,38,45,65,85,105,125,146,166,186,206,226,246,266,286,307,325,347,365,385,405,425,445,465,486,505,526,545,566,587,606,626,646,665,685,705,725],"xSR":741.5,"ySR":469.95,"xT1":424.9,"yT1":0,"xT2":1058.1,"yT2":0,"toosoon":0,"cond_shown":"equaldotanddens","ratio_trial":500,"smaller_num":"6","larger_num":"12","correct_side":1,"subjID":"SofiaVargasMora17","gender":"1","age":"11","school":"6"},{"start_time":1551881469894,"click_time":1551881470982,"finger_time":1551881470361,"fix_duration":971.5368429850024,"trial":31,"RT":467,"MT":621,"sideResp":2,"stimulus":"img/250/randomdotsizeEA/R/11_Ratio_250_L_3_R_12.png","xmouse":[780,780,781,782,783,784,784,784,784,784,784,784,784,784,784,785,786,792,797,800,802,804,810,813,814,814,814,814,814,811,810,808,807,807,807,812,822,847,867,921,959,979,996,999,999,999,997,996,1000,1008,1017,1026,1044,1054,1064],"ymouse":[516,516,516,516,516,516,516,516,516,516,516,516,516,516,516,516,515,511,506,501,495,490,470,458,449,442,433,426,422,418,417,414,412,411,410,403,393,375,358,311,274,254,221,210,198,188,178,161,143,132,121,111,99,93,86],"timestamp_mouse":[12,27,49,67,88,108,127,148,168,187,209,228,247,268,288,307,328,347,368,388,407,427,448,467,488,508,527,547,569,588,607,627,648,669,688,708,728,747,769,787,809,827,847,867,888,908,927,947,968,987,1007,1028,1047,1067,1088],"xSR":741.5,"ySR":469.95,"xT1":424.9,"yT1":0,"xT2":1058.1,"yT2":0,"toosoon":0,"cond_shown":"randomdotsizeEA","ratio_trial":250,"smaller_num":"3","larger_num":"12","correct_side":2,"subjID":"SofiaVargasMora17","gender":"1","age":"11","school":"6"},{"start_time":1551881473092,"click_time":1551881474281,"finger_time":1551881473841,"fix_duration":1188.8299523380638,"trial":32,"RT":749,"MT":440,"sideResp":2,"stimulus":"img/500/equaldotsize/R/9_Ratio_500_L_2_R_4.png","xmouse":[788,788,788,788,788,788,788,788,788,788,788,788,788,788,788,788,788,788,788,788,788,788,788,788,787,787,787,787,787,787,787,787,787,790,795,800,813,848,897,1011,1071,1089,1105,1105,1102,1100,1093,1088,1087,1086,1086,1086,1086,1086,1086,1086,1086,1086,1086,1090],"ymouse":[527,527,527,527,527,527,527,527,527,527,527,527,527,527,527,527,527,527,527,525,523,521,520,520,519,519,519,519,519,519,519,519,519,515,509,504,493,457,402,277,209,186,154,144,134,126,119,111,108,106,106,106,106,106,106,106,106,106,105,95],"timestamp_mouse":[9,30,64,70,90,109,129,150,169,189,210,229,249,269,290,309,329,349,369,389,411,430,449,469,489,509,529,550,569,590,609,630,649,669,691,709,729,749,769,789,811,830,850,869,889,910,930,949,970,990,1009,1031,1050,1069,1090,1110,1131,1149,1170,1189],"xSR":741.5,"ySR":469.95,"xT1":424.9,"yT1":0,"xT2":1058.1,"yT2":0,"toosoon":0,"cond_shown":"equaldotsize","ratio_trial":500,"smaller_num":"2","larger_num":"4","correct_side":2,"subjID":"SofiaVargasMora17","gender":"1","age":"11","school":"6"},{"start_time":1551881476201,"click_time":1551881477381,"finger_time":1551881476421,"fix_duration":498.6707974621495,"trial":33,"RT":220,"MT":960,"sideResp":1,"stimulus":"img/500/randomdotsizeEA/R/1_Ratio_500_L_9_R_18.png","xmouse":[796,796,796,796,796,796,796,796,796,795,794,794,793,793,793,793,793,783,778,773,768,766,760,759,757,756,755,752,751,748,746,743,726,707,691,676,665,644,635,625,615,610,603,598,586,577,569,562,557,551,544,538,532,532,532,532,532,528,527,524],"ymouse":[477,477,477,477,477,477,477,477,477,476,472,469,461,459,454,448,441,404,388,375,365,357,347,343,339,337,333,324,321,317,315,311,294,276,259,246,236,212,198,183,170,161,150,145,129,116,107,99,94,90,86,82,79,79,79,79,79,78,78,78],"timestamp_mouse":[8,21,40,61,82,100,120,140,160,182,201,220,241,262,280,301,320,341,360,381,401,422,442,461,480,500,521,540,561,581,600,620,640,661,681,701,722,741,760,780,800,821,840,861,880,902,921,940,960,981,1002,1022,1040,1061,1100,1101,1121,1140,1161,1180],"xSR":741.5,"ySR":469.95,"xT1":424.9,"yT1":0,"xT2":1058.1,"yT2":0,"toosoon":0,"cond_shown":"randomdotsizeEA","ratio_trial":500,"smaller_num":"9","larger_num":"18","correct_side":2,"subjID":"SofiaVargasMora17","gender":"1","age":"11","school":"6"},{"start_time":1551881479487,"click_time":1551881480361,"finger_time":1551881480041,"fix_duration":803.5665910162955,"trial":34,"RT":554,"MT":320,"sideResp":1,"stimulus":"img/500/equaldotsize/L/7_Ratio_500_L_10_R_5.png","xmouse":[795,795,795,795,795,795,795,795,795,795,795,795,795,795,795,795,795,796,796,796,796,796,796,795,793,789,784,750,706,637,605,583,567,562,557,547,536,513,505,492,485,481,477,474],"ymouse":[499,499,499,499,499,499,499,499,499,499,499,499,499,499,499,499,499,498,498,498,497,496,495,492,490,484,475,432,384,313,285,265,247,239,228,219,203,177,164,142,129,120,103,93],"timestamp_mouse":[14,38,54,74,94,115,135,154,175,194,215,234,255,276,294,314,335,355,374,395,415,435,456,474,494,515,534,554,574,594,614,635,654,674,694,716,735,755,775,794,814,834,854,874],"xSR":741.5,"ySR":469.95,"xT1":424.9,"yT1":0,"xT2":1058.1,"yT2":0,"toosoon":0,"cond_shown":"equaldotsize","ratio_trial":500,"smaller_num":"5","larger_num":"10","correct_side":1,"subjID":"SofiaVargasMora17","gender":"1","age":"11","school":"6"},{"start_time":1551881481699,"click_time":1551881482722,"finger_time":1551881482361,"fix_duration":435.3920080080934,"trial":35,"RT":662,"MT":361,"sideResp":1,"stimulus":"img/750/equaldotanddens/L/8_Ratio_750_L_4_R_3.png","xmouse":[774,774,774,774,774,774,774,774,774,774,774,774,774,774,774,774,774,774,774,774,774,774,774,774,774,774,774,774,774,774,772,769,763,759,756,754,751,748,747,741,731,723,710,700,688,680,667,638,614,584,544,504],"ymouse":[522,522,522,522,522,522,522,522,522,522,522,522,522,522,522,522,522,522,522,522,522,522,522,522,522,522,522,520,517,515,509,505,481,459,439,419,404,366,358,342,325,316,302,295,287,279,269,240,203,164,116,68],"timestamp_mouse":[8,22,43,63,83,103,123,143,164,182,202,222,243,264,283,302,323,343,362,382,402,423,442,462,482,503,523,542,562,582,603,622,643,662,683,703,723,743,762,782,804,822,843,863,883,903,922,942,963,983,1002,1023],"xSR":741.5,"ySR":469.95,"xT1":424.9,"yT1":0,"xT2":1058.1,"yT2":0,"toosoon":0,"cond_shown":"equaldotanddens","ratio_trial":750,"smaller_num":"3","larger_num":"4","correct_side":1,"subjID":"SofiaVargasMora17","gender":"1","age":"11","school":"6"},{"start_time":1551881485022,"click_time":1551881486661,"finger_time":1551881485641,"fix_duration":1279.2579707849388,"trial":36,"RT":619,"MT":1020,"sideResp":1,"stimulus":"img/500/randomdotsizeEA/L/11_Ratio_500_L_12_R_6.png","xmouse":[777,777,777,777,777,777,777,777,777,777,777,777,777,777,777,777,777,777,777,777,777,777,777,777,777,777,777,774,769,766,765,765,765,765,771,774,788,804,824,852,881,913,921,931,936,940,951,955,956,956,953,931,916,885,855,818,712,643,582,539,504,504,504,504,504,504,385,383,383,383,383,390,394,400,404,408,411,411,411,411,412,421,426],"ymouse":[508,508,508,508,508,508,508,508,508,508,508,508,508,508,508,508,508,508,508,508,508,508,508,508,508,508,508,496,485,478,476,469,457,452,442,436,420,405,390,369,351,327,317,295,277,261,227,213,200,189,177,156,146,132,117,96,45,22,9,4,0,0,0,0,0,0,1,3,5,9,15,31,38,45,48,52,56,56,56,56,56,61,62],"timestamp_mouse":[4,22,39,59,79,100,120,139,161,180,199,219,240,260,280,299,319,339,359,379,399,420,440,459,479,500,519,539,560,580,599,619,639,659,679,700,719,739,759,779,801,819,840,859,879,899,920,939,960,980,999,1019,1041,1059,1079,1100,1119,1139,1160,1180,1201,1219,1239,1259,1280,1300,1319,1340,1360,1381,1401,1419,1440,1459,1480,1500,1519,1541,1561,1579,1599,1619,1639],"xSR":741.5,"ySR":469.95,"xT1":424.9,"yT1":0,"xT2":1058.1,"yT2":0,"toosoon":0,"cond_shown":"randomdotsizeEA","ratio_trial":500,"smaller_num":"6","larger_num":"12","correct_side":1,"subjID":"SofiaVargasMora17","gender":"1","age":"11","school":"6"},{"start_time":1551881487872,"click_time":1551881488741,"finger_time":1551881488382,"fix_duration":250,"trial":37,"RT":510,"MT":359,"sideResp":2,"stimulus":"img/900/randomdotsizeEA/L/4_Ratio_900_L_20_R_18.png","xmouse":[784,784,784,784,784,784,784,784,784,784,784,784,784,784,784,784,784,784,784,784,784,784,784,784,796,815,835,851,893,918,929,938,943,955,959,967,974,980,995,1004,1020,1030,1037,1062],"ymouse":[507,507,507,507,507,507,507,507,507,507,507,507,507,507,507,507,507,507,507,507,507,507,507,507,492,457,421,400,328,286,266,247,230,203,186,168,151,138,114,104,89,80,72,66],"timestamp_mouse":[10,34,49,70,89,110,131,149,169,190,211,229,250,269,290,310,329,349,369,391,410,429,450,470,489,510,529,549,570,590,609,631,649,669,689,710,730,749,769,790,809,829,850,869],"xSR":741.5,"ySR":469.95,"xT1":424.9,"yT1":0,"xT2":1058.1,"yT2":0,"toosoon":0,"cond_shown":"randomdotsizeEA","ratio_trial":900,"smaller_num":"18","larger_num":"20","correct_side":1,"subjID":"SofiaVargasMora17","gender":"1","age":"11","school":"6"},{"start_time":1551881490780,"click_time":1551881491522,"finger_time":1551881491141,"fix_duration":1016.0741384744197,"trial":38,"RT":361,"MT":381,"sideResp":1,"stimulus":"img/900/equaldotanddens/R/13_Ratio_900_L_18_R_20.png","xmouse":[744,744,744,744,744,744,744,744,744,744,744,744,744,744,744,744,744,744,738,726,710,696,686,680,680,677,675,670,651,640,626,614,598,574,560,540,525,508],"ymouse":[523,523,523,523,523,523,523,523,523,523,523,523,523,523,523,523,523,523,510,499,487,477,467,453,449,435,417,397,348,322,289,253,215,159,135,103,87,76],"timestamp_mouse":[8,22,49,61,82,101,122,142,162,181,201,222,242,263,282,301,322,341,361,381,401,421,442,461,482,501,521,541,561,581,602,622,641,661,683,701,723,742],"xSR":741.5,"ySR":469.95,"xT1":424.9,"yT1":0,"xT2":1058.1,"yT2":0,"toosoon":0,"cond_shown":"equaldotanddens","ratio_trial":900,"smaller_num":"18","larger_num":"20","correct_side":2,"subjID":"SofiaVargasMora17","gender":"1","age":"11","school":"6"},{"start_time":1551881492613,"click_time":1551881493561,"finger_time":1551881493302,"fix_duration":250,"trial":39,"RT":689,"MT":259,"sideResp":1,"stimulus":"img/500/equaldotsize/L/10_Ratio_500_L_4_R_2.png","xmouse":[779,779,779,779,779,779,779,779,779,779,779,779,779,779,779,779,779,779,779,779,779,779,779,779,779,779,779,779,779,779,779,778,770,756,740,721,678,657,644,629,616,589,567,556,542,530,511,501],"ymouse":[537,537,537,537,537,537,537,537,537,537,537,537,537,537,537,537,537,537,537,537,537,537,537,537,537,537,537,537,537,537,537,524,509,479,444,403,329,282,261,237,217,180,156,147,133,120,100,93],"timestamp_mouse":[8,29,48,68,88,108,128,148,168,189,208,228,249,268,290,308,330,348,368,390,409,428,448,469,488,509,528,550,569,588,608,628,648,668,689,708,728,748,769,789,809,828,850,868,888,909,928,948],"xSR":741.5,"ySR":469.95,"xT1":424.9,"yT1":0,"xT2":1058.1,"yT2":0,"toosoon":0,"cond_shown":"equaldotsize","ratio_trial":500,"smaller_num":"2","larger_num":"4","correct_side":1,"subjID":"SofiaVargasMora17","gender":"1","age":"11","school":"6"},{"start_time":1551881495692,"click_time":1551881496801,"finger_time":1551881496341,"fix_duration":1309.5040495353055,"trial":40,"RT":649,"MT":460,"sideResp":2,"stimulus":"img/900/randomdotsizeEA/R/9_Ratio_900_L_18_R_20.png","xmouse":[792,792,792,792,792,792,792,792,792,792,792,792,792,792,792,792,792,792,792,792,792,792,792,792,792,792,792,792,792,799,810,821,843,851,861,870,881,907,922,937,955,964,985,1000,1015,1033,1047,1064,1068,1072,1076,1083,1099,1105,1109,1115],"ymouse":[532,532,532,532,532,532,532,532,532,532,532,532,532,532,532,532,532,532,532,532,532,532,532,532,532,532,532,532,532,530,522,513,493,481,466,450,434,401,381,364,343,329,296,276,254,230,214,185,174,164,157,145,121,113,105,98],"timestamp_mouse":[9,41,51,70,89,110,130,149,170,189,210,229,249,269,289,310,330,349,370,390,410,430,449,469,490,510,529,549,571,589,609,629,649,669,689,709,730,749,769,789,810,830,849,870,889,910,930,950,971,989,1010,1030,1050,1069,1090,1109],"xSR":741.5,"ySR":469.95,"xT1":424.9,"yT1":0,"xT2":1058.1,"yT2":0,"toosoon":0,"cond_shown":"randomdotsizeEA","ratio_trial":900,"smaller_num":"18","larger_num":"20","correct_side":2,"subjID":"SofiaVargasMora17","gender":"1","age":"11","school":"6"},{"start_time":1551881499016,"click_time":1551881500041,"finger_time":1551881499641,"fix_duration":1292.5644143088082,"trial":41,"RT":625,"MT":400,"sideResp":1,"stimulus":"img/250/randomdotsizeEA/L/14_Ratio_250_L_12_R_3.png","xmouse":[775,775,775,775,775,775,775,775,775,775,775,775,775,775,775,775,775,775,775,775,775,775,775,775,775,775,775,775,775,775,775,756,740,721,701,694,685,681,674,667,658,646,638,627,618,606,582,568,556,543,527,489],"ymouse":[511,511,511,511,511,511,511,511,511,511,511,511,511,511,511,511,511,511,511,511,511,511,511,511,511,511,511,511,504,495,470,415,379,334,277,253,217,200,186,173,160,144,138,128,125,122,116,111,104,95,84,57],"timestamp_mouse":[13,38,45,65,87,105,126,146,165,185,205,225,247,266,286,307,326,346,366,385,405,425,446,466,487,505,525,546,566,585,605,625,646,665,687,706,725,745,765,786,806,825,845,865,886,906,926,945,966,985,1007,1025],"xSR":741.5,"ySR":469.95,"xT1":424.9,"yT1":0,"xT2":1058.1,"yT2":0,"toosoon":0,"cond_shown":"randomdotsizeEA","ratio_trial":250,"smaller_num":"3","larger_num":"12","correct_side":1,"subjID":"SofiaVargasMora17","gender":"1","age":"11","school":"6"},{"start_time":1551881502553,"click_time":1551881503642,"finger_time":1551881503102,"fix_duration":250,"trial":42,"RT":549,"MT":540,"sideResp":1,"stimulus":"img/250/randomdotsizeEA/L/2_Ratio_250_L_16_R_4.png","xmouse":[799,799,799,799,799,799,799,799,799,799,799,799,799,799,799,799,799,799,799,799,799,799,799,799,795,784,773,758,737,671,643,620,605,589,562,548,536,520,513,509,509,509,509,509,509,509,509,509,509,509,507,506,505,503,499],"ymouse":[535,535,535,535,535,535,535,535,535,535,535,535,535,535,535,535,535,535,535,535,535,535,535,535,528,502,480,451,407,307,268,239,218,197,157,143,133,122,116,113,113,113,113,113,113,113,113,113,113,113,111,109,106,102,93],"timestamp_mouse":[9,41,48,68,88,108,129,148,170,189,208,228,248,269,290,308,328,349,369,389,408,429,450,468,488,509,528,549,569,589,610,628,649,669,689,709,728,748,768,788,809,828,850,870,889,909,928,950,969,989,1008,1030,1048,1070,1089],"xSR":741.5,"ySR":469.95,"xT1":424.9,"yT1":0,"xT2":1058.1,"yT2":0,"toosoon":0,"cond_shown":"randomdotsizeEA","ratio_trial":250,"smaller_num":"4","larger_num":"16","correct_side":1,"subjID":"SofiaVargasMora17","gender":"1","age":"11","school":"6"},{"start_time":1551881505289,"click_time":1551881506221,"finger_time":1551881505841,"fix_duration":846.6954343300116,"trial":43,"RT":552,"MT":380,"sideResp":1,"stimulus":"img/250/equaldotsize/L/5_Ratio_250_L_24_R_6.png","xmouse":[785,785,785,785,785,785,785,785,785,785,785,785,785,785,785,785,785,785,785,785,785,785,785,786,779,773,763,737,723,706,681,665,633,623,613,598,582,559,555,554,553,551,537,525,517,507,499],"ymouse":[531,531,531,531,531,531,531,531,531,531,531,531,531,531,531,531,531,531,531,531,531,531,531,531,525,519,504,466,440,409,364,336,283,266,241,215,190,162,156,153,151,148,128,116,109,100,93],"timestamp_mouse":[19,37,53,72,93,113,132,154,173,193,212,234,253,274,293,313,333,353,372,394,414,434,452,472,493,513,533,552,572,592,614,633,652,673,693,712,732,752,774,792,813,832,852,872,893,913,932],"xSR":741.5,"ySR":469.95,"xT1":424.9,"yT1":0,"xT2":1058.1,"yT2":0,"toosoon":0,"cond_shown":"equaldotsize","ratio_trial":250,"smaller_num":"6","larger_num":"24","correct_side":1,"subjID":"SofiaVargasMora17","gender":"1","age":"11","school":"6"},{"start_time":1551881507815,"click_time":1551881508542,"finger_time":1551881508262,"fix_duration":731.0362082453101,"trial":44,"RT":447,"MT":280,"sideResp":1,"stimulus":"img/250/equaldotsize/L/2_Ratio_250_L_16_R_4.png","xmouse":[782,782,782,782,782,782,782,782,782,782,782,782,782,782,782,782,782,782,782,782,781,777,764,759,732,712,677,663,652,642,632,606,583,567,558,543,516],"ymouse":[514,514,514,514,514,514,514,514,514,514,514,514,514,514,514,514,514,514,514,514,512,501,468,454,388,342,259,227,204,181,158,118,92,80,73,63,42],"timestamp_mouse":[8,41,46,66,88,106,127,146,167,188,208,227,248,268,286,306,328,346,367,386,406,426,447,467,487,507,526,546,566,586,607,626,646,666,688,707,727],"xSR":741.5,"ySR":469.95,"xT1":424.9,"yT1":0,"xT2":1058.1,"yT2":0,"toosoon":0,"cond_shown":"equaldotsize","ratio_trial":250,"smaller_num":"4","larger_num":"16","correct_side":1,"subjID":"SofiaVargasMora17","gender":"1","age":"11","school":"6"},{"start_time":1551881510413,"click_time":1551881511222,"finger_time":1551881510902,"fix_duration":1150.8620661908024,"trial":45,"RT":489,"MT":320,"sideResp":1,"stimulus":"img/900/equaldotsize/L/2_Ratio_900_L_20_R_18.png","xmouse":[782,782,780,780,780,780,780,780,780,779,777,777,777,777,777,777,777,777,777,777,777,775,771,766,752,739,712,692,666,636,606,573,563,552,547,544,538,536,533,529,523],"ymouse":[537,537,537,537,537,537,537,537,537,537,537,537,537,537,537,537,537,537,537,537,537,535,517,497,449,412,350,311,271,231,192,154,142,122,112,102,90,86,80,73,60],"timestamp_mouse":[9,31,48,69,90,108,129,149,169,188,209,228,249,268,288,308,330,348,370,388,409,428,448,469,489,509,528,548,568,589,608,628,648,668,690,709,729,748,769,789,809],"xSR":741.5,"ySR":469.95,"xT1":424.9,"yT1":0,"xT2":1058.1,"yT2":0,"toosoon":0,"cond_shown":"equaldotsize","ratio_trial":900,"smaller_num":"18","larger_num":"20","correct_side":1,"subjID":"SofiaVargasMora17","gender":"1","age":"11","school":"6"},{"start_time":1551881512388,"click_time":1551881513662,"finger_time":1551881513141,"fix_duration":384.7251485625767,"trial":46,"RT":753,"MT":521,"sideResp":2,"stimulus":"img/500/equaldotanddens/R/3_Ratio_500_L_10_R_20.png","xmouse":[769,769,769,769,769,769,769,769,769,769,769,769,769,769,769,769,762,754,753,752,751,751,751,751,751,751,751,751,751,751,751,751,751,751,751,764,778,824,857,880,899,911,919,919,921,929,936,945,950,956,961,968,980,990,1006,1016,1025,1044,1051,1056,1062,1066,1074,1078],"ymouse":[504,504,504,504,504,504,504,504,504,504,504,504,504,504,504,504,504,501,500,500,500,500,500,500,500,500,500,500,500,500,500,500,500,499,496,492,486,462,440,421,402,381,341,309,297,264,246,211,198,188,180,170,159,154,150,147,144,139,136,131,126,120,108,97],"timestamp_mouse":[14,33,54,73,94,114,134,154,174,208,214,233,253,274,293,314,334,354,373,394,414,435,453,474,494,514,533,554,573,595,614,634,655,673,693,715,734,753,773,794,814,835,853,873,893,914,934,954,975,994,1014,1035,1053,1074,1094,1114,1135,1154,1173,1195,1214,1233,1253,1273],"xSR":741.5,"ySR":469.95,"xT1":424.9,"yT1":0,"xT2":1058.1,"yT2":0,"toosoon":0,"cond_shown":"equaldotanddens","ratio_trial":500,"smaller_num":"10","larger_num":"20","correct_side":2,"subjID":"SofiaVargasMora17","gender":"1","age":"11","school":"6"},{"start_time":1551881515842,"click_time":1551881516722,"finger_time":1551881516441,"fix_duration":1336.7556421225354,"trial":47,"RT":599,"MT":281,"sideResp":1,"stimulus":"img/750/randomdotsizeEA/R/4_Ratio_750_L_15_R_20.png","xmouse":[782,782,782,782,782,782,782,782,782,782,782,782,782,782,782,782,782,782,782,782,782,782,782,782,782,782,780,780,780,778,766,753,741,728,713,678,662,640,623,603,570,554,549,529,518],"ymouse":[493,493,493,493,493,493,493,493,493,493,493,493,493,493,493,493,493,493,493,493,493,493,493,493,493,493,488,484,479,474,447,415,389,352,319,252,227,198,181,166,141,129,125,106,94],"timestamp_mouse":[8,19,40,60,80,100,120,139,160,179,199,220,240,260,280,299,320,341,359,380,399,420,439,460,479,500,519,540,559,581,599,619,640,661,680,700,719,739,760,780,799,819,839,860,880],"xSR":741.5,"ySR":469.95,"xT1":424.9,"yT1":0,"xT2":1058.1,"yT2":0,"toosoon":0,"cond_shown":"randomdotsizeEA","ratio_trial":750,"smaller_num":"15","larger_num":"20","correct_side":2,"subjID":"SofiaVargasMora17","gender":"1","age":"11","school":"6"},{"start_time":1551881520002,"click_time":1551881521022,"finger_time":1551881520623,"fix_duration":338.45011527518875,"trial":48,"RT":621,"MT":399,"sideResp":2,"stimulus":"img/900/equaldotanddens/L/2_Ratio_900_L_20_R_18.png","xmouse":[788,789,789,789,789,789,789,789,789,789,789,789,789,789,789,787,786,786,786,786,786,786,786,786,786,786,786,788,796,804,816,836,875,893,915,930,940,948,954,960,970,974,998,1017,1044,1053,1056,1057,1057,1057,1058,1059],"ymouse":[544,543,542,542,542,542,542,542,542,542,542,542,542,541,541,540,540,540,540,540,540,540,540,540,540,540,540,535,523,506,485,433,292,230,164,124,95,53,35,22,13,9,8,8,19,22,24,24,24,24,24,24],"timestamp_mouse":[2,21,40,59,79,100,120,140,160,181,199,219,239,260,279,300,320,341,360,380,399,419,439,459,480,499,519,540,559,579,599,621,639,661,679,700,720,739,759,779,800,821,839,860,879,899,920,940,959,979,999,1020],"xSR":741.5,"ySR":469.95,"xT1":424.9,"yT1":0,"xT2":1058.1,"yT2":0,"toosoon":0,"cond_shown":"equaldotanddens","ratio_trial":900,"smaller_num":"18","larger_num":"20","correct_side":1,"subjID":"SofiaVargasMora17","gender":"1","age":"11","school":"6"},{"start_time":1551881522862,"click_time":1551881523801,"finger_time":1551881523522,"fix_duration":1019.205173791314,"trial":49,"RT":660,"MT":279,"sideResp":2,"stimulus":"img/500/equaldotsize/R/12_Ratio_500_L_1_R_2.png","xmouse":[801,801,801,801,801,801,801,801,801,801,801,801,801,801,801,801,801,801,801,801,801,801,801,801,801,801,801,801,801,801,801,813,838,857,886,898,907,920,934,949,959,971,979,990,1027,1055,1068,1082],"ymouse":[541,541,541,541,541,541,541,541,541,541,541,541,541,541,541,541,541,541,541,541,541,541,541,541,541,541,541,541,541,541,541,534,511,494,463,441,416,380,343,277,250,216,199,182,143,117,103,89],"timestamp_mouse":[1,34,40,60,80,100,119,140,161,180,201,220,240,260,280,299,320,340,360,379,401,420,441,459,481,499,519,541,559,580,599,619,640,660,680,699,720,740,761,779,800,819,839,860,879,900,919,939],"xSR":741.5,"ySR":469.95,"xT1":424.9,"yT1":0,"xT2":1058.1,"yT2":0,"toosoon":0,"cond_shown":"equaldotsize","ratio_trial":500,"smaller_num":"1","larger_num":"2","correct_side":2,"subjID":"SofiaVargasMora17","gender":"1","age":"11","school":"6"},{"start_time":1551881525531,"click_time":1551881526341,"finger_time":1551881526081,"fix_duration":808.0750316323765,"trial":50,"RT":550,"MT":260,"sideResp":2,"stimulus":"img/250/equaldotanddens/R/11_Ratio_250_L_3_R_12.png","xmouse":[797,797,797,797,797,797,797,797,797,797,797,797,797,797,797,797,797,797,797,797,797,797,797,797,799,812,824,843,855,869,924,955,977,999,1017,1046,1054,1073,1082,1091,1104],"ymouse":[512,512,512,512,512,512,512,512,512,512,512,512,513,514,514,514,514,514,514,514,514,514,514,514,514,497,485,463,447,424,340,291,258,230,207,168,157,130,117,100,75],"timestamp_mouse":[12,42,51,71,90,110,130,150,172,191,212,231,252,270,290,310,330,350,371,390,411,431,451,472,492,510,531,550,572,590,610,630,651,671,690,710,730,750,771,790,810],"xSR":741.5,"ySR":469.95,"xT1":424.9,"yT1":0,"xT2":1058.1,"yT2":0,"toosoon":0,"cond_shown":"equaldotanddens","ratio_trial":250,"smaller_num":"3","larger_num":"12","correct_side":2,"subjID":"SofiaVargasMora17","gender":"1","age":"11","school":"6"},{"start_time":1551881528290,"click_time":1551881529142,"finger_time":1551881528801,"fix_duration":1046.6359714430153,"trial":51,"RT":511,"MT":341,"sideResp":1,"stimulus":"img/250/randomdotsizeEA/L/1_Ratio_250_L_8_R_2.png","xmouse":[806,806,806,806,806,806,806,806,806,806,806,806,806,806,806,806,806,808,808,809,809,809,804,798,789,765,718,660,633,607,592,575,543,522,504,494,487,482,478,477,475,473,470],"ymouse":[526,526,526,526,526,526,526,526,526,526,526,526,526,526,526,526,526,526,524,521,518,514,500,488,476,452,417,379,365,344,321,298,251,219,194,179,169,155,142,130,119,107,95],"timestamp_mouse":[12,32,51,73,92,112,131,151,172,191,212,231,252,271,292,312,332,352,371,391,413,432,451,471,493,511,531,551,573,591,611,632,651,671,692,711,731,751,771,792,812,833,852],"xSR":741.5,"ySR":469.95,"xT1":424.9,"yT1":0,"xT2":1058.1,"yT2":0,"toosoon":0,"cond_shown":"randomdotsizeEA","ratio_trial":250,"smaller_num":"2","larger_num":"8","correct_side":1,"subjID":"SofiaVargasMora17","gender":"1","age":"11","school":"6"},{"start_time":1551881531012,"click_time":1551881531782,"finger_time":1551881531462,"fix_duration":928.4004531085424,"trial":52,"RT":450,"MT":320,"sideResp":2,"stimulus":"img/500/equaldotsize/R/9_Ratio_500_L_2_R_4.png","xmouse":[786,786,786,786,786,786,786,786,786,786,786,786,786,786,786,786,786,786,786,790,795,824,843,869,883,897,930,942,955,967,976,998,1007,1021,1029,1038,1051,1056,1062],"ymouse":[517,517,517,517,517,517,517,517,517,517,517,517,517,517,517,517,517,517,517,517,517,500,486,465,445,422,356,329,301,272,249,192,166,136,121,109,81,69,59],"timestamp_mouse":[10,33,49,69,90,110,129,149,171,190,209,230,250,270,290,309,331,349,370,389,409,429,450,469,489,510,529,549,570,590,609,629,651,669,691,710,730,749,770],"xSR":741.5,"ySR":469.95,"xT1":424.9,"yT1":0,"xT2":1058.1,"yT2":0,"toosoon":0,"cond_shown":"equaldotsize","ratio_trial":500,"smaller_num":"2","larger_num":"4","correct_side":2,"subjID":"SofiaVargasMora17","gender":"1","age":"11","school":"6"},{"start_time":1551881533995,"click_time":1551881534922,"finger_time":1551881534422,"fix_duration":1493.4804119586381,"trial":53,"RT":427,"MT":500,"sideResp":1,"stimulus":"img/750/equaldotsize/L/14_Ratio_750_L_8_R_6.png","xmouse":[777,777,780,780,780,780,780,780,780,780,780,780,780,780,780,781,781,774,769,765,759,754,744,736,721,711,702,685,675,664,652,637,596,589,572,565,562,559,555,548,541,536,525,522,514,509,503],"ymouse":[537,537,537,537,537,537,537,537,537,537,537,537,537,537,537,536,532,506,496,484,471,457,420,401,370,353,334,290,270,245,224,203,166,162,152,148,147,144,140,136,132,128,119,116,106,100,94],"timestamp_mouse":[9,37,46,67,87,107,127,147,166,186,206,226,248,267,287,308,327,347,366,386,407,427,446,467,486,507,527,546,567,587,607,626,647,667,686,706,726,746,766,786,807,827,846,867,886,907,927],"xSR":741.5,"ySR":469.95,"xT1":424.9,"yT1":0,"xT2":1058.1,"yT2":0,"toosoon":0,"cond_shown":"equaldotsize","ratio_trial":750,"smaller_num":"6","larger_num":"8","correct_side":1,"subjID":"SofiaVargasMora17","gender":"1","age":"11","school":"6"},{"start_time":1551881536264,"click_time":1551881537282,"finger_time":1551881536783,"fix_duration":521.0495389668876,"trial":54,"RT":519,"MT":499,"sideResp":2,"stimulus":"img/250/randomdotsizeEA/R/11_Ratio_250_L_3_R_12.png","xmouse":[778,778,778,778,778,779,779,779,779,779,779,779,779,779,779,779,779,780,783,784,784,786,789,802,811,821,830,838,849,855,866,872,884,910,926,940,956,970,992,1000,1013,1022,1031,1048,1052,1056,1059,1065,1072,1076,1083],"ymouse":[511,511,511,511,512,512,512,512,512,512,512,512,512,512,512,512,512,512,512,512,512,510,507,493,480,465,449,436,410,397,374,356,336,304,289,276,260,246,217,205,187,178,163,143,136,129,125,118,108,102,92],"timestamp_mouse":[18,42,58,77,98,117,139,157,177,197,218,238,258,278,297,317,337,358,378,398,417,438,458,478,497,519,538,559,577,598,617,637,658,678,697,717,737,758,777,798,817,838,858,877,899,917,938,959,978,997,1018],"xSR":741.5,"ySR":469.95,"xT1":424.9,"yT1":0,"xT2":1058.1,"yT2":0,"toosoon":0,"cond_shown":"randomdotsizeEA","ratio_trial":250,"smaller_num":"3","larger_num":"12","correct_side":2,"subjID":"SofiaVargasMora17","gender":"1","age":"11","school":"6"},{"start_time":1551881539283,"click_time":1551881540203,"finger_time":1551881539741,"fix_duration":1140.912543556546,"trial":55,"RT":458,"MT":462,"sideResp":2,"stimulus":"img/750/randomdotsizeEA/R/12_Ratio_750_L_3_R_4.png","xmouse":[769,769,769,769,769,769,769,769,769,769,769,769,769,769,770,770,771,773,776,778,787,798,828,846,863,878,892,916,927,940,950,958,974,981,988,996,1003,1013,1018,1024,1029,1034,1050,1057,1065,1072],"ymouse":[525,525,525,525,525,525,525,525,525,525,525,525,525,525,523,523,522,516,509,505,493,478,446,428,413,398,380,342,326,302,285,270,247,237,226,214,204,190,179,171,162,153,129,120,108,98],"timestamp_mouse":[21,38,58,79,98,118,139,159,179,199,218,238,258,279,299,319,340,358,379,398,419,438,458,478,498,519,539,558,579,598,618,639,659,678,699,719,739,758,779,798,818,838,859,878,899,920],"xSR":741.5,"ySR":469.95,"xT1":424.9,"yT1":0,"xT2":1058.1,"yT2":0,"toosoon":0,"cond_shown":"randomdotsizeEA","ratio_trial":750,"smaller_num":"3","larger_num":"4","correct_side":2,"subjID":"SofiaVargasMora17","gender":"1","age":"11","school":"6"},{"start_time":1551881541494,"click_time":1551881542502,"finger_time":1551881542161,"fix_duration":250,"trial":56,"RT":667,"MT":341,"sideResp":1,"stimulus":"img/750/equaldotsize/L/6_Ratio_750_L_24_R_18.png","xmouse":[793,792,791,791,790,790,790,790,790,790,790,790,790,790,790,790,790,790,790,790,790,790,790,790,790,790,790,790,790,790,790,790,769,731,709,695,681,657,646,642,631,624,613,607,597,588,578,551,540,522,509],"ymouse":[532,532,532,532,532,532,532,532,532,532,532,532,532,532,532,532,532,532,532,532,532,532,532,532,532,532,532,532,532,532,532,532,527,500,477,453,424,353,318,306,278,261,229,210,190,177,163,135,126,109,98],"timestamp_mouse":[10,34,47,67,88,107,128,147,167,188,207,227,247,267,287,308,329,348,367,389,408,428,447,469,489,507,528,547,569,587,608,627,647,667,688,708,727,747,768,787,807,828,848,867,887,907,927,947,968,987,1008],"xSR":741.5,"ySR":469.95,"xT1":424.9,"yT1":0,"xT2":1058.1,"yT2":0,"toosoon":0,"cond_shown":"equaldotsize","ratio_trial":750,"smaller_num":"18","larger_num":"24","correct_side":1,"subjID":"SofiaVargasMora17","gender":"1","age":"11","school":"6"},{"start_time":1551881544230,"click_time":1551881545223,"finger_time":1551881544842,"fix_duration":787.3716324820575,"trial":57,"RT":612,"MT":381,"sideResp":2,"stimulus":"img/750/randomdotsizeEA/L/13_Ratio_750_L_8_R_6.png","xmouse":[808,808,808,808,808,808,808,808,808,808,808,808,808,808,808,808,808,808,808,808,808,808,808,808,808,808,808,808,811,816,847,856,871,897,908,926,933,944,955,966,988,997,1014,1020,1028,1041,1050,1057,1061,1065],"ymouse":[525,525,525,525,525,525,525,525,525,525,525,525,525,525,525,525,525,525,525,525,525,525,525,525,525,525,525,525,525,523,499,493,480,456,442,410,393,372,348,326,282,261,223,200,177,143,128,118,106,99],"timestamp_mouse":[11,40,53,72,93,111,131,151,173,191,211,233,252,273,293,311,332,351,371,391,413,432,452,472,492,511,532,551,571,591,612,631,651,671,691,712,733,753,772,791,811,832,851,871,892,911,932,951,972,993],"xSR":741.5,"ySR":469.95,"xT1":424.9,"yT1":0,"xT2":1058.1,"yT2":0,"toosoon":0,"cond_shown":"randomdotsizeEA","ratio_trial":750,"smaller_num":"6","larger_num":"8","correct_side":1,"subjID":"SofiaVargasMora17","gender":"1","age":"11","school":"6"},{"start_time":1551881546706,"click_time":1551881547883,"finger_time":1551881547401,"fix_duration":583.5152754318322,"trial":58,"RT":695,"MT":482,"sideResp":1,"stimulus":"img/750/randomdotsizeEA/L/13_Ratio_750_L_8_R_6.png","xmouse":[789,789,789,789,789,789,789,789,789,789,789,789,789,789,789,789,792,793,795,797,798,798,798,798,798,798,798,798,798,798,798,799,791,783,770,752,720,709,696,691,684,662,650,634,616,592,541,513,502,497,495,494,493,491,488,486,482,481,480],"ymouse":[520,520,520,520,520,520,520,520,520,520,520,520,520,520,522,523,523,523,524,525,525,525,525,525,525,525,525,525,525,525,525,514,496,477,449,408,343,325,304,295,284,258,243,227,211,190,160,145,136,131,129,128,125,121,116,113,104,102,94],"timestamp_mouse":[15,36,57,76,95,116,136,156,176,196,217,235,256,276,295,316,335,355,375,396,416,437,455,476,495,515,535,556,575,596,615,636,655,675,695,716,735,755,775,797,816,835,855,875,896,915,935,955,976,997,1017,1036,1056,1077,1095,1117,1136,1157,1177],"xSR":741.5,"ySR":469.95,"xT1":424.9,"yT1":0,"xT2":1058.1,"yT2":0,"toosoon":0,"cond_shown":"randomdotsizeEA","ratio_trial":750,"smaller_num":"6","larger_num":"8","correct_side":1,"subjID":"SofiaVargasMora17","gender":"1","age":"11","school":"6"},{"start_time":1551881548995,"click_time":1551881550001,"finger_time":1551881549802,"fix_duration":250,"trial":59,"RT":807,"MT":199,"sideResp":1,"stimulus":"img/750/randomdotsizeEA/R/5_Ratio_750_L_15_R_20.png","xmouse":[778,778,778,778,778,778,778,778,778,778,778,778,778,778,778,778,778,778,778,778,778,778,778,781,783,785,789,796,798,801,804,805,806,806,806,806,806,806,806,803,797,786,763,749,738,723,702,645,610,564,524],"ymouse":[520,520,520,520,520,520,520,520,520,520,520,520,520,520,520,520,520,520,520,520,520,520,520,520,519,517,514,504,500,496,492,490,488,488,488,488,488,488,484,472,455,434,388,354,326,288,254,180,144,103,70],"timestamp_mouse":[8,37,46,66,87,107,127,147,166,187,207,226,246,267,286,306,328,346,368,386,407,426,446,468,486,507,527,547,566,587,607,627,646,667,687,706,727,746,766,788,807,826,846,866,886,906,927,946,968,987,1006],"xSR":741.5,"ySR":469.95,"xT1":424.9,"yT1":0,"xT2":1058.1,"yT2":0,"toosoon":0,"cond_shown":"randomdotsizeEA","ratio_trial":750,"smaller_num":"15","larger_num":"20","correct_side":2,"subjID":"SofiaVargasMora17","gender":"1","age":"11","school":"6"},{"start_time":1551881552370,"click_time":1551881553442,"finger_time":1551881553081,"fix_duration":1047.1493896701243,"trial":60,"RT":711,"MT":361,"sideResp":2,"stimulus":"img/900/equaldotsize/L/8_Ratio_900_L_20_R_18.png","xmouse":[771,771,771,771,771,771,771,771,771,771,771,771,771,771,771,771,771,771,771,771,771,771,771,771,771,771,771,771,771,771,771,771,776,798,817,857,879,906,948,963,975,984,992,1015,1020,1028,1035,1045,1057,1062,1067,1071,1075,1082],"ymouse":[505,505,505,505,505,505,505,505,505,505,505,505,505,505,505,505,505,505,505,505,505,505,505,505,505,505,505,505,505,505,505,505,501,487,476,445,425,404,368,350,330,313,294,243,234,210,195,176,149,133,119,109,101,89],"timestamp_mouse":[12,47,52,72,93,111,132,151,172,191,211,232,251,272,291,312,332,352,371,391,413,433,451,473,492,511,532,551,572,591,611,631,652,671,693,711,731,751,771,791,811,832,853,872,892,911,931,951,973,992,1012,1031,1052,1071],"xSR":741.5,"ySR":469.95,"xT1":424.9,"yT1":0,"xT2":1058.1,"yT2":0,"toosoon":0,"cond_shown":"equaldotsize","ratio_trial":900,"smaller_num":"18","larger_num":"20","correct_side":1,"subjID":"SofiaVargasMora17","gender":"1","age":"11","school":"6"},{"start_time":1551881555547,"click_time":1551881556541,"finger_time":1551881556303,"fix_duration":1083.394121079975,"trial":61,"RT":756,"MT":238,"sideResp":2,"stimulus":"img/250/equaldotsize/R/9_Ratio_250_L_3_R_12.png","xmouse":[768,768,768,768,768,768,768,768,768,768,768,768,768,768,768,768,768,768,768,768,768,768,768,768,772,776,779,781,783,789,794,796,800,803,813,819,833,845,862,908,931,956,990,1021,1057,1077,1086,1093,1100,1115],"ymouse":[536,536,536,536,536,536,536,536,536,536,536,536,536,536,536,536,536,536,536,536,536,536,536,536,536,536,537,537,537,537,535,533,530,528,518,510,494,478,454,392,358,324,280,226,176,145,133,118,109,85],"timestamp_mouse":[15,45,54,76,95,115,135,156,175,194,215,235,255,275,296,314,335,355,374,395,414,434,454,475,494,516,534,554,574,595,614,636,655,674,695,716,734,756,775,794,814,835,855,875,894,914,934,954,974,994],"xSR":741.5,"ySR":469.95,"xT1":424.9,"yT1":0,"xT2":1058.1,"yT2":0,"toosoon":0,"cond_shown":"equaldotsize","ratio_trial":250,"smaller_num":"3","larger_num":"12","correct_side":2,"subjID":"SofiaVargasMora17","gender":"1","age":"11","school":"6"},{"start_time":1551881558280,"click_time":1551881559362,"finger_time":1551881559042,"fix_duration":755.5570974719745,"trial":62,"RT":762,"MT":320,"sideResp":1,"stimulus":"img/900/equaldotsize/L/4_Ratio_900_L_20_R_18.png","xmouse":[754,754,754,756,756,756,756,756,756,756,756,757,757,757,757,757,757,757,757,757,757,757,757,757,757,757,757,757,757,757,757,757,757,757,757,757,754,742,710,697,676,667,662,654,648,639,627,615,592,579,572,565,554,534,518],"ymouse":[538,538,538,537,537,537,537,537,537,537,537,537,537,537,537,537,537,537,537,537,537,537,537,537,537,537,537,537,537,537,537,537,537,537,536,532,520,501,456,436,408,392,380,356,339,321,300,281,247,219,198,175,153,111,88],"timestamp_mouse":[1,22,44,62,81,103,122,141,162,182,201,221,242,262,283,301,321,342,363,382,401,422,441,462,481,501,522,543,561,582,602,622,642,662,681,701,722,742,762,781,802,822,841,861,881,902,922,941,961,981,1002,1022,1042,1061,1082],"xSR":741.5,"ySR":469.95,"xT1":424.9,"yT1":0,"xT2":1058.1,"yT2":0,"toosoon":0,"cond_shown":"equaldotsize","ratio_trial":900,"smaller_num":"18","larger_num":"20","correct_side":1,"subjID":"SofiaVargasMora17","gender":"1","age":"11","school":"6"},{"start_time":1551881560968,"click_time":1551881563441,"finger_time":1551881562822,"fix_duration":364.4235177044787,"trial":63,"RT":1854,"MT":619,"sideResp":1,"stimulus":"img/750/equaldotsize/L/8_Ratio_750_L_4_R_3.png","xmouse":[775,775,775,776,777,781,781,781,781,781,781,781,782,783,783,783,783,783,783,783,783,783,783,783,783,783,783,783,783,783,783,783,783,783,783,783,783,783,783,783,783,783,783,783,783,783,783,783,783,783,783,783,783,783,783,783,783,783,783,783,783,783,783,783,783,783,783,783,783,783,783,783,783,783,783,783,783,783,783,783,783,783,783,783,783,783,783,783,783,783,782,768,748,683,656,628,618,612,603,598,591,586,582,578,577,577,577,577,580,591,601,609,614,616,616,615,610,600,581,573,565,555,544,520],"ymouse":[534,534,534,533,533,531,531,531,531,531,531,531,529,528,528,528,528,528,528,528,528,528,528,528,528,528,528,528,528,528,528,528,528,528,528,528,528,528,528,528,528,528,528,528,528,528,528,528,528,528,528,528,528,528,528,528,528,528,528,528,528,528,528,528,528,528,528,528,528,528,528,528,528,528,528,528,528,528,528,528,528,528,528,528,528,528,528,528,528,517,505,475,447,354,310,249,221,196,164,151,140,128,119,109,106,106,105,105,106,109,114,117,118,119,119,119,118,115,108,106,106,105,102,91],"timestamp_mouse":[13,40,53,74,94,114,133,154,174,193,214,234,255,273,294,314,334,355,373,393,413,434,454,473,494,513,533,553,574,593,613,634,654,674,693,715,734,754,773,794,815,834,854,874,895,915,934,953,973,995,1014,1034,1054,1075,1094,1114,1135,1155,1174,1194,1214,1234,1253,1275,1293,1313,1335,1354,1373,1394,1413,1434,1453,1474,1493,1515,1535,1553,1573,1595,1613,1633,1655,1675,1693,1714,1734,1755,1774,1794,1813,1834,1854,1874,1894,1913,1935,1953,1973,1993,2014,2034,2055,2073,2094,2113,2134,2153,2173,2194,2214,2234,2253,2274,2293,2313,2334,2354,2374,2394,2414,2433,2454,2473],"xSR":741.5,"ySR":469.95,"xT1":424.9,"yT1":0,"xT2":1058.1,"yT2":0,"toosoon":0,"cond_shown":"equaldotsize","ratio_trial":750,"smaller_num":"3","larger_num":"4","correct_side":1,"subjID":"SofiaVargasMora17","gender":"1","age":"11","school":"6"},{"start_time":1551881565241,"click_time":1551881566341,"finger_time":1551881566101,"fix_duration":977.6925613099463,"trial":64,"RT":860,"MT":240,"sideResp":1,"stimulus":"img/750/equaldotanddens/L/9_Ratio_750_L_4_R_3.png","xmouse":[789,789,789,789,789,789,789,789,789,789,789,789,789,789,789,789,789,789,789,789,789,789,789,789,789,789,789,789,789,789,789,789,789,789,789,789,789,789,789,790,786,783,768,756,743,706,680,653,625,607,579,572,558,545,533,507],"ymouse":[519,519,519,519,519,519,519,519,519,519,519,519,519,519,519,519,519,519,519,519,519,519,519,519,519,519,519,519,519,519,519,519,519,519,519,519,519,519,519,518,504,500,482,466,449,385,335,285,235,187,131,111,84,70,62,50],"timestamp_mouse":[9,31,40,61,80,101,122,140,160,180,201,221,240,262,281,301,320,342,362,381,401,420,440,460,482,501,522,540,560,580,600,621,641,660,682,700,721,741,761,780,800,822,841,860,880,900,922,941,960,981,1000,1021,1040,1062,1081,1100],"xSR":741.5,"ySR":469.95,"xT1":424.9,"yT1":0,"xT2":1058.1,"yT2":0,"toosoon":0,"cond_shown":"equaldotanddens","ratio_trial":750,"smaller_num":"3","larger_num":"4","correct_side":1,"subjID":"SofiaVargasMora17","gender":"1","age":"11","school":"6"},{"start_time":1551881568539,"click_time":1551881569841,"finger_time":1551881569481,"fix_duration":1296.7365274459607,"trial":65,"RT":942,"MT":360,"sideResp":1,"stimulus":"img/750/randomdotsizeEA/L/6_Ratio_750_L_24_R_18.png","xmouse":[768,768,768,768,768,768,768,768,768,768,768,768,768,768,768,768,768,768,768,768,768,768,768,768,768,768,768,768,768,768,768,768,768,768,768,768,768,768,768,768,768,768,768,768,768,769,769,768,761,747,709,685,666,652,641,626,620,610,607,603,588,582,577,565,553,513],"ymouse":[503,503,503,503,503,503,503,503,503,503,503,503,503,503,503,503,503,503,503,503,503,503,503,503,503,503,503,503,503,503,503,503,503,503,503,503,503,503,503,503,503,503,503,503,503,499,492,460,430,379,263,202,161,128,104,68,51,33,27,21,6,4,2,0,0,4],"timestamp_mouse":[9,22,42,63,82,102,122,144,164,183,203,222,242,264,283,302,323,343,362,383,404,422,442,462,483,502,523,543,562,582,602,623,643,664,683,702,722,743,762,782,802,822,842,863,883,902,923,942,962,982,1003,1022,1043,1063,1082,1102,1124,1142,1163,1183,1203,1224,1243,1262,1283,1302],"xSR":741.5,"ySR":469.95,"xT1":424.9,"yT1":0,"xT2":1058.1,"yT2":0,"toosoon":0,"cond_shown":"randomdotsizeEA","ratio_trial":750,"smaller_num":"18","larger_num":"24","correct_side":1,"subjID":"SofiaVargasMora17","gender":"1","age":"11","school":"6"},{"start_time":1551881572102,"click_time":1551881573322,"finger_time":1551881572842,"fix_duration":1058.6950438348401,"trial":66,"RT":740,"MT":480,"sideResp":2,"stimulus":"img/750/equaldotsize/R/2_Ratio_750_L_6_R_8.png","xmouse":[784,784,784,784,784,784,784,784,784,784,784,784,784,784,784,784,784,784,784,784,784,784,784,784,784,784,784,784,784,784,784,784,784,786,793,806,824,867,896,907,915,917,918,919,921,925,930,943,953,966,974,986,1002,1008,1013,1018,1023,1045,1050,1053,1058,1059],"ymouse":[502,502,502,502,502,502,502,502,502,502,502,502,502,502,502,502,502,502,502,502,502,502,502,502,502,502,502,502,502,502,502,502,502,501,498,493,484,452,409,386,362,338,305,291,275,257,242,211,195,173,161,149,134,129,125,122,119,107,103,101,97,95],"timestamp_mouse":[1,20,40,59,81,101,120,140,159,181,200,220,240,260,280,301,321,339,359,379,400,421,439,461,480,499,520,539,559,580,600,620,641,660,679,700,720,740,759,779,800,820,839,859,879,899,919,939,960,980,999,1019,1039,1060,1080,1100,1121,1140,1160,1179,1199,1220],"xSR":741.5,"ySR":469.95,"xT1":424.9,"yT1":0,"xT2":1058.1,"yT2":0,"toosoon":0,"cond_shown":"equaldotsize","ratio_trial":750,"smaller_num":"6","larger_num":"8","correct_side":2,"subjID":"SofiaVargasMora17","gender":"1","age":"11","school":"6"},{"start_time":1551881575513,"click_time":1551881576621,"finger_time":1551881576181,"fix_duration":1369.2331018215652,"trial":67,"RT":668,"MT":440,"sideResp":2,"stimulus":"img/500/randomdotsizeEA/R/3_Ratio_500_L_10_R_20.png","xmouse":[782,782,782,782,782,782,782,782,782,782,782,782,782,782,782,783,785,785,785,785,786,786,786,786,786,786,786,786,788,790,795,822,839,863,881,895,912,920,930,935,939,948,953,957,965,970,982,993,1006,1012,1016,1026,1032,1040,1049,1060],"ymouse":[532,532,532,532,532,532,532,532,532,532,532,532,532,532,532,530,529,528,528,528,528,528,528,528,528,528,528,528,527,524,520,498,481,459,439,422,398,378,360,342,325,287,270,251,237,223,193,177,152,142,133,114,106,97,87,79],"timestamp_mouse":[10,43,48,68,90,108,128,148,170,189,209,230,249,268,288,309,328,348,368,389,409,429,449,469,488,508,530,549,569,589,609,629,649,668,689,710,728,748,769,788,809,828,850,869,889,908,928,948,969,990,1009,1029,1048,1068,1089,1108],"xSR":741.5,"ySR":469.95,"xT1":424.9,"yT1":0,"xT2":1058.1,"yT2":0,"toosoon":0,"cond_shown":"randomdotsizeEA","ratio_trial":500,"smaller_num":"10","larger_num":"20","correct_side":2,"subjID":"SofiaVargasMora17","gender":"1","age":"11","school":"6"},{"start_time":1551881578358,"click_time":1551881579803,"finger_time":1551881579301,"fix_duration":935.277478738715,"trial":68,"RT":943,"MT":502,"sideResp":2,"stimulus":"img/250/equaldotsize/R/8_Ratio_250_L_1_R_4.png","xmouse":[791,791,791,791,791,791,791,791,791,791,791,791,791,791,791,791,791,791,791,791,791,791,791,791,791,791,791,791,791,791,791,791,791,791,794,795,797,799,800,800,801,801,803,804,818,826,837,850,863,886,899,911,922,933,944,950,958,964,972,983,991,1000,1005,1011,1022,1028,1034,1041,1047,1059,1062,1066,1070],"ymouse":[526,526,526,526,526,526,526,526,526,526,526,526,526,526,526,526,526,526,526,526,526,526,526,526,526,526,526,526,526,526,526,526,526,526,524,523,521,520,519,518,518,518,517,515,506,499,488,475,461,430,412,394,377,357,326,311,291,277,258,224,204,186,174,164,148,140,131,124,118,106,103,100,96],"timestamp_mouse":[9,24,43,64,85,103,123,143,165,184,205,223,243,263,283,303,323,345,363,383,403,423,445,464,483,503,524,543,563,584,603,623,643,663,684,703,724,745,763,784,805,824,844,863,884,903,924,943,964,983,1003,1024,1044,1063,1083,1104,1124,1145,1164,1183,1203,1223,1244,1265,1283,1303,1323,1343,1363,1384,1404,1425,1445],"xSR":741.5,"ySR":469.95,"xT1":424.9,"yT1":0,"xT2":1058.1,"yT2":0,"toosoon":0,"cond_shown":"equaldotsize","ratio_trial":250,"smaller_num":"1","larger_num":"4","correct_side":2,"subjID":"SofiaVargasMora17","gender":"1","age":"11","school":"6"},{"start_time":1551881580892,"click_time":1551881582141,"finger_time":1551881581682,"fix_duration":250,"trial":69,"RT":790,"MT":459,"sideResp":1,"stimulus":"img/750/equaldotanddens/L/8_Ratio_750_L_4_R_3.png","xmouse":[764,764,764,764,764,764,764,764,764,764,764,764,764,764,764,764,764,764,764,764,764,764,764,764,764,764,764,764,764,764,764,764,764,764,765,765,763,752,749,736,731,728,715,705,691,677,658,618,606,581,569,559,546,544,543,542,540,527,520,513,507,501,483],"ymouse":[536,536,536,536,536,536,536,536,536,536,536,536,536,536,536,536,536,536,536,536,536,536,536,536,536,536,536,536,536,536,536,536,536,536,537,537,535,522,518,508,503,499,482,469,449,426,404,340,319,276,253,233,209,202,196,190,175,144,135,126,121,113,86],"timestamp_mouse":[10,33,50,70,90,110,129,150,170,190,211,229,249,271,290,309,330,350,370,389,409,429,449,470,491,511,530,550,569,589,611,630,649,671,690,709,729,749,770,790,811,830,850,870,889,910,930,949,970,989,1010,1030,1049,1070,1089,1110,1130,1149,1170,1190,1211,1230,1249],"xSR":741.5,"ySR":469.95,"xT1":424.9,"yT1":0,"xT2":1058.1,"yT2":0,"toosoon":0,"cond_shown":"equaldotanddens","ratio_trial":750,"smaller_num":"3","larger_num":"4","correct_side":1,"subjID":"SofiaVargasMora17","gender":"1","age":"11","school":"6"},{"start_time":1551881583274,"click_time":1551881584362,"finger_time":1551881583902,"fix_duration":370.7820763426265,"trial":70,"RT":628,"MT":460,"sideResp":2,"stimulus":"img/900/equaldotsize/L/8_Ratio_900_L_20_R_18.png","xmouse":[783,783,783,783,783,783,783,783,783,783,783,783,783,783,783,783,783,783,783,783,783,783,783,783,783,783,784,786,791,806,824,848,867,898,906,909,911,913,922,934,937,947,953,966,973,985,998,1011,1024,1029,1035,1043,1051,1075,1085],"ymouse":[527,527,527,527,527,527,527,527,527,527,527,527,527,527,527,527,527,527,527,527,527,527,527,527,527,527,527,527,524,516,504,481,461,393,359,336,317,299,261,232,225,205,193,177,170,162,154,148,142,138,134,130,122,106,98],"timestamp_mouse":[10,32,48,67,87,109,127,148,167,189,207,227,248,267,289,309,328,349,367,387,409,427,447,468,488,507,527,548,568,587,607,628,648,667,688,708,728,748,767,788,807,827,848,867,888,907,927,948,967,989,1008,1027,1047,1067,1088],"xSR":741.5,"ySR":469.95,"xT1":424.9,"yT1":0,"xT2":1058.1,"yT2":0,"toosoon":0,"cond_shown":"equaldotsize","ratio_trial":900,"smaller_num":"18","larger_num":"20","correct_side":1,"subjID":"SofiaVargasMora17","gender":"1","age":"11","school":"6"},{"start_time":1551881588933,"click_time":1551881589942,"finger_time":1551881589642,"fix_duration":250,"trial":71,"RT":709,"MT":300,"sideResp":1,"stimulus":"img/900/equaldotanddens/L/10_Ratio_900_L_20_R_18.png","xmouse":[811,811,811,811,811,811,811,811,811,811,811,811,811,811,811,811,811,811,811,811,811,811,811,811,811,811,811,811,811,811,811,811,811,810,808,785,747,666,611,561,535,534,534,535,537,538,537,534,532,530,523],"ymouse":[515,515,515,515,515,515,515,515,515,515,515,515,515,515,515,515,515,515,515,515,515,515,515,515,515,515,515,515,515,515,515,515,515,512,503,455,396,307,254,217,186,184,180,175,170,152,143,131,126,117,91],"timestamp_mouse":[9,30,55,69,89,109,128,150,168,189,209,229,250,269,288,308,329,348,369,388,410,430,450,469,490,510,530,548,570,588,610,628,649,669,690,709,729,748,768,789,809,828,849,869,889,910,929,948,969,990,1009],"xSR":741.5,"ySR":469.95,"xT1":424.9,"yT1":0,"xT2":1058.1,"yT2":0,"toosoon":0,"cond_shown":"equaldotanddens","ratio_trial":900,"smaller_num":"18","larger_num":"20","correct_side":1,"subjID":"SofiaVargasMora17","gender":"1","age":"11","school":"6"},{"start_time":1551881591400,"click_time":1551881592702,"finger_time":1551881592183,"fix_duration":676.2669075375848,"trial":72,"RT":783,"MT":519,"sideResp":2,"stimulus":"img/750/equaldotsize/L/10_Ratio_750_L_4_R_3.png","xmouse":[781,781,781,781,781,781,781,781,781,781,781,781,781,781,781,781,781,781,781,781,781,781,781,781,781,781,781,781,781,781,781,781,781,781,781,781,781,807,823,840,861,881,919,932,937,943,947,957,961,965,973,982,993,998,1005,1010,1015,1027,1035,1048,1054,1065,1079,1087,1098,1105],"ymouse":[507,507,507,507,507,507,507,507,507,507,507,507,507,507,507,507,507,507,507,507,507,507,507,507,507,507,507,507,507,507,507,507,507,507,507,507,507,491,479,465,445,420,354,324,308,297,290,275,269,263,251,239,222,211,201,194,188,173,165,154,146,135,121,114,102,94],"timestamp_mouse":[8,22,43,62,83,101,122,142,162,183,202,221,242,261,283,301,322,343,362,382,402,421,442,461,481,501,521,542,563,581,601,622,643,661,682,701,721,741,762,783,802,822,841,861,881,903,921,941,962,982,1001,1021,1041,1063,1081,1102,1121,1141,1162,1182,1202,1221,1241,1261,1282,1302],"xSR":741.5,"ySR":469.95,"xT1":424.9,"yT1":0,"xT2":1058.1,"yT2":0,"toosoon":0,"cond_shown":"equaldotsize","ratio_trial":750,"smaller_num":"3","larger_num":"4","correct_side":1,"subjID":"SofiaVargasMora17","gender":"1","age":"11","school":"6"},{"start_time":1551881594876,"click_time":1551881595903,"finger_time":1551881595542,"fix_duration":1233.5217637567584,"trial":73,"RT":666,"MT":361,"sideResp":2,"stimulus":"img/250/equaldotanddens/R/4_Ratio_250_L_3_R_12.png","xmouse":[776,776,776,776,776,776,776,776,776,776,776,776,776,776,776,776,776,776,776,776,776,776,776,776,776,776,776,776,776,776,779,801,831,875,890,905,914,924,943,952,967,977,990,1013,1025,1035,1045,1052,1072,1082,1088,1091],"ymouse":[516,516,516,516,516,516,516,516,516,516,516,516,516,516,516,516,516,516,516,516,516,516,516,516,516,516,516,516,516,516,518,504,482,442,424,404,385,362,323,308,285,267,246,213,197,185,172,161,132,115,106,99],"timestamp_mouse":[8,35,46,66,85,105,127,146,167,185,206,225,247,266,286,307,327,345,365,385,405,425,446,467,485,505,526,546,565,585,606,625,645,666,687,706,726,745,765,787,806,826,846,866,886,905,925,946,965,986,1005,1027],"xSR":741.5,"ySR":469.95,"xT1":424.9,"yT1":0,"xT2":1058.1,"yT2":0,"toosoon":0,"cond_shown":"equaldotanddens","ratio_trial":250,"smaller_num":"3","larger_num":"12","correct_side":2,"subjID":"SofiaVargasMora17","gender":"1","age":"11","school":"6"},{"start_time":1551881597956,"click_time":1551881598922,"finger_time":1551881598542,"fix_duration":1094.882388041527,"trial":74,"RT":586,"MT":380,"sideResp":1,"stimulus":"img/250/equaldotanddens/L/2_Ratio_250_L_16_R_4.png","xmouse":[781,781,781,781,781,781,781,781,781,781,781,781,781,781,781,781,781,781,781,781,781,781,781,781,781,781,781,779,776,745,720,692,675,664,657,656,643,630,615,583,574,570,569,567,558,547,536,526,515],"ymouse":[514,514,514,514,514,514,514,514,514,514,514,514,514,514,514,514,514,514,514,514,514,515,515,515,515,515,515,509,499,415,375,338,318,301,282,269,241,216,190,153,141,135,131,128,111,99,86,75,64],"timestamp_mouse":[12,25,47,65,87,107,125,147,167,185,206,226,245,265,286,306,325,346,365,385,406,426,446,465,485,505,525,546,566,586,606,625,645,667,685,707,726,745,765,786,806,826,845,866,886,905,926,946,966],"xSR":741.5,"ySR":469.95,"xT1":424.9,"yT1":0,"xT2":1058.1,"yT2":0,"toosoon":0,"cond_shown":"equaldotanddens","ratio_trial":250,"smaller_num":"4","larger_num":"16","correct_side":1,"subjID":"SofiaVargasMora17","gender":"1","age":"11","school":"6"},{"start_time":1551881600215,"click_time":1551881601182,"finger_time":1551881600762,"fix_duration":351.714371965009,"trial":75,"RT":547,"MT":420,"sideResp":2,"stimulus":"img/900/equaldotsize/R/13_Ratio_900_L_18_R_20.png","xmouse":[827,827,827,827,827,827,827,827,827,827,827,827,827,827,827,827,827,827,827,827,827,827,827,827,827,828,838,851,867,885,905,942,961,985,996,1006,1025,1033,1039,1044,1048,1054,1058,1064,1068,1072,1078,1079,1083],"ymouse":[540,540,540,540,540,540,540,540,540,540,540,540,540,540,540,540,540,540,540,540,540,540,540,540,540,539,530,515,499,476,450,400,363,326,309,293,260,244,230,217,204,179,167,150,139,127,110,103,99],"timestamp_mouse":[8,26,53,66,87,108,127,147,167,187,206,228,247,266,286,307,326,346,367,386,407,427,448,466,486,507,527,547,566,586,607,626,648,667,686,707,727,748,766,786,806,826,846,867,886,907,927,947,967],"xSR":741.5,"ySR":469.95,"xT1":424.9,"yT1":0,"xT2":1058.1,"yT2":0,"toosoon":0,"cond_shown":"equaldotsize","ratio_trial":900,"smaller_num":"18","larger_num":"20","correct_side":2,"subjID":"SofiaVargasMor