[{"start_time":1551880602648,"click_time":1551880620248,"finger_time":1551880602658,"fix_duration":895.3478165312465,"trial":0,"RT":10,"MT":17590,"sideResp":2,"stimulus":[],"xmouse":[804,804,804,804,804,804,804,804,804,804,804,804,804,804,804,804,804,804,804,804,804,804,804,804,804,804,804,804,804,804,804,804,804,804,804,804,804,804,804,804,804,804,803,802,802,802,802,802,802,802,802,802,802,801,801,801,800,800,799,799,798,797,797,795,795,794,793,793,793,793,793,793,793,793,793,793,793,793,793,793,793,793,793,793,793,793,793,793,793,793,793,793,793,793,793,793,793,793,793,793,793,793,793,793,793,793,793,793,793,793,793,793,793,793,793,793,793,793,793,793,793,793,793,793,793,793,793,793,793,793,793,793,793,793,793,793,793,793,793,793,793,793,793,793,793,793,793,793,793,793,793,793,793,793,793,793,793,793,793,793,793,793,793,793,793,793,793,793,793,793,793,793,793,793,793,793,793,793,793,793,793,793,793,793,793,793,793,793,793,793,794,794,795,795,795,796,796,796,796,796,796,796,796,796,796,796,796,796,796,797,797,797,797,799,799,801,801,802,803,803,804,804,806,806,806,806,806,806,806,806,806,806,806,806,806,806,806,806,806,806,805,805,805,803,800,797,796,795,795,792,792,795,800,801,802,809,819,830,855,877,908,946,982,1009,1015,1017,1019,1021,1021,1021,1021,1021,1021,1021,1018,1001,979,955,915,905,902,901,901,898,896,893,887,880,870,848,840,833,831,829,828,827,826,826,823,820,818,814,810,805,805,805,805,805,805,805,805,805,805,805,804,809,812,814,816,816,816,816,816,816,816,816,816,817,817,817,817,817,817,817,817,817,817,817,820,830,841,848,851,851,851,851,851,851,851,851,854,857,858,858,858,858,856,856,856,856,856,856,855,850,847,845,844,843,843,843,843,843,843,843,843,843,843,843,843,843,843,843,842,835,830,822,815,812,810,809,809,808,807,799,794,792,790,790,790,790,790,790,790,790,790,790,790,790,790,790,790,790,790,790,790,790,790,790,790,790,790,790,790,790,790,790,790,790,790,790,790,790,790,790,790,790,790,790,790,790,790,790,790,790,790,790,790,790,790,790,790,790,790,790,790,790,790,790,790,790,790,790,790,790,790,790,790,790,790,790,790,790,790,790,790,790,790,790,790,790,790,790,790,790,790,790,790,790,790,790,790,790,790,790,790,790,790,790,790,790,790,790,790,790,790,790,790,790,790,790,790,790,790,790,790,790,790,790,790,790,790,790,790,790,790,790,790,790,790,790,790,790,790,790,790,790,790,790,790,790,790,790,790,790,790,790,790,790,790,790,790,790,790,790,790,790,790,790,790,790,790,790,790,790,790,790,790,790,790,790,790,790,790,790,790,790,790,786,779,773,766,760,754,753,753,751,747,735,716,688,667,655,650,648,653,664,677,685,686,686,685,685,685,685,685,685,685,685,685,685,685,685,685,685,685,685,685,685,685,685,685,685,685,685,685,685,685,684,684,684,684,684,684,684,684,681,674,665,658,644,644,644,647,668,676,688,706,728,741,751,751,749,742,739,729,729,729,729,728,728,727,727,727,727,727,727,727,727,727,727,727,727,727,727,727,727,727,727,727,727,727,727,727,727,727,727,727,727,727,727,727,727,727,727,727,727,727,727,727,727,727,727,727,727,727,727,727,727,727,727,727,727,727,727,727,727,727,727,727,727,727,727,727,727,727,727,727,727,727,727,727,727,727,727,727,727,727,727,727,727,727,727,727,727,727,727,727,727,727,727,727,727,727,727,727,727,727,727,727,727,727,727,727,727,727,727,727,727,727,727,727,727,727,727,727,727,727,727,727,727,727,727,727,727,727,727,727,727,727,727,727,727,727,727,727,727,727,727,727,727,727,727,727,727,727,727,727,727,727,727,727,727,727,727,727,727,727,727,727,727,727,727,727,727,727,727,727,727,727,727,727,727,727,727,727,727,727,727,727,727,727,727,727,727,727,727,727,727,727,727,727,727,727,727,727,727,727,727,727,727,748,790,832,857,887,896,902,912,916,925,927,929,930,932,951,965,993,1041,1119,1144,1157],"ymouse":[541,541,541,540,540,540,540,540,540,540,540,540,540,540,540,540,540,540,540,540,540,540,540,540,540,540,540,540,540,540,540,540,540,540,540,540,540,540,547,551,557,560,565,570,571,572,572,572,572,572,574,574,574,575,576,578,580,581,585,587,588,589,590,594,598,599,602,602,602,602,602,602,602,602,602,602,602,602,602,602,602,602,602,602,602,602,602,602,602,602,602,602,602,602,602,602,602,602,602,602,602,602,602,602,602,602,602,602,602,602,602,602,602,602,602,602,602,602,602,602,602,602,602,602,602,602,602,602,602,602,602,602,602,602,602,602,602,602,602,602,602,602,602,602,602,602,602,602,602,602,602,602,602,602,602,602,602,602,602,602,602,602,602,602,602,602,602,602,602,602,602,602,602,602,602,602,602,602,602,602,602,602,602,602,602,602,602,602,602,602,600,598,597,596,596,595,595,595,595,595,595,595,594,592,591,590,588,587,587,586,585,584,583,580,579,574,572,570,563,561,558,554,548,539,535,532,530,529,529,529,529,529,529,529,530,531,532,532,532,532,533,533,533,533,532,531,531,530,530,530,538,555,578,634,671,698,727,749,772,774,774,774,769,762,756,751,747,744,744,743,743,743,743,743,741,734,725,716,699,694,693,693,693,691,691,689,688,684,681,672,667,663,661,659,659,658,658,657,656,655,654,652,650,647,647,647,647,647,647,647,647,647,647,647,646,642,638,635,634,634,634,634,634,634,634,634,634,634,636,638,638,638,638,638,638,638,638,638,638,627,614,604,601,601,601,601,601,601,601,599,589,577,573,573,573,573,578,578,578,578,578,578,578,586,589,592,594,596,596,596,596,596,596,596,596,596,596,596,596,596,596,596,596,596,595,595,595,594,592,592,592,592,592,601,608,615,621,622,622,622,622,622,622,621,621,621,621,621,621,621,621,621,621,621,621,621,621,621,621,621,621,620,620,620,620,620,620,620,620,620,620,620,620,620,620,620,620,620,620,620,620,620,620,620,620,620,620,620,620,620,620,620,620,620,620,620,620,620,620,620,620,620,620,620,620,620,620,620,620,620,620,620,620,620,620,620,620,620,620,620,620,620,620,620,620,620,620,620,620,620,620,620,620,620,620,620,620,620,620,620,620,620,620,620,620,620,620,620,620,620,620,620,620,620,620,620,620,620,620,620,620,620,620,620,620,620,620,620,620,620,620,620,620,620,620,620,620,620,620,620,620,620,620,620,620,620,620,620,620,620,620,620,620,620,620,620,620,620,620,620,620,620,620,620,620,620,620,620,620,620,620,620,620,620,620,620,617,609,597,591,583,573,563,557,550,542,528,507,472,381,325,289,272,260,256,252,250,250,250,250,251,251,251,251,251,251,251,251,251,251,251,251,251,251,251,251,251,251,251,251,251,251,251,251,251,251,251,251,251,251,251,251,251,251,251,254,258,262,267,309,330,350,364,383,397,413,426,444,462,499,513,532,553,577,616,620,626,631,633,633,633,633,633,633,633,633,633,633,633,633,633,633,633,633,633,633,633,633,633,633,633,633,633,633,633,633,633,633,633,633,633,633,633,633,633,633,633,633,633,633,633,633,633,633,633,633,633,633,633,633,633,633,633,633,633,633,633,633,633,633,633,633,633,633,633,633,633,633,633,633,633,633,633,633,633,633,633,633,633,633,633,633,633,633,633,633,633,633,633,633,633,633,633,633,633,633,633,633,633,633,633,633,633,633,633,633,633,633,633,633,633,633,633,633,633,633,633,633,633,633,633,633,633,633,633,633,633,633,633,633,633,633,633,633,633,633,633,633,633,633,633,633,633,633,633,633,633,633,633,633,633,633,633,633,633,633,633,633,633,633,633,633,633,633,633,633,633,633,633,633,633,633,633,633,633,633,633,633,633,633,633,633,633,633,633,633,633,633,633,633,633,633,633,633,633,633,633,633,633,633,592,534,486,443,366,341,323,290,262,224,218,214,212,210,196,187,172,154,113,102,96],"timestamp_mouse":[10,19,39,59,79,99,120,140,159,179,199,219,239,259,280,300,319,339,360,379,399,419,440,460,479,499,519,539,559,579,599,619,640,659,680,700,719,739,760,779,799,819,840,859,880,899,919,940,958,978,999,1020,1040,1059,1079,1099,1119,1140,1158,1179,1199,1219,1239,1259,1279,1299,1319,1339,1358,1379,1399,1420,1439,1459,1479,1500,1520,1539,1559,1580,1600,1619,1640,1660,1679,1700,1720,1739,1759,1779,1799,1820,1840,1859,1879,1899,1919,1939,1959,1979,2000,2019,2039,2059,2080,2100,2119,2139,2159,2180,2200,2220,2240,2260,2280,2300,2320,2340,2360,2379,2399,2419,2439,2459,2479,2499,2519,2540,2559,2580,2600,2619,2640,2660,2680,2699,2719,2739,2760,2779,2800,2820,2839,2859,2879,2900,2920,2940,2959,2978,2999,3019,3039,3059,3079,3099,3119,3140,3160,3180,3200,3220,3240,3259,3279,3299,3319,3339,3359,3379,3400,3419,3440,3459,3479,3499,3519,3540,3559,3579,3599,3620,3639,3660,3680,3699,3719,3739,3760,3779,3799,3820,3839,3860,3879,3899,3918,3939,3959,3979,3999,4020,4039,4059,4080,4099,4119,4140,4160,4179,4200,4219,4239,4259,4279,4299,4319,4340,4359,4378,4399,4420,4439,4459,4479,4499,4519,4539,4559,4579,4600,4619,4639,4659,4680,4698,4720,4740,4760,4779,4800,4819,4840,4859,4880,4899,4918,4938,4959,4979,5000,5020,5038,5059,5080,5099,5120,5139,5159,5179,5199,5220,5239,5259,5279,5299,5319,5339,5360,5379,5399,5420,5439,5459,5478,5499,5519,5540,5559,5579,5600,5619,5639,5659,5679,5699,5719,5739,5759,5779,5799,5819,5839,5858,5879,5899,5920,5939,5960,5980,5999,6019,6039,6059,6079,6100,6120,6139,6159,6179,6199,6219,6240,6259,6280,6299,6319,6339,6360,6379,6399,6420,6439,6460,6479,6499,6520,6540,6559,6579,6600,6619,6640,6659,6680,6699,6720,6740,6760,6779,6800,6820,6839,6859,6880,6899,6920,6939,6959,6979,6999,7019,7039,7060,7080,7099,7118,7139,7160,7179,7200,7219,7239,7259,7279,7299,7320,7340,7359,7380,7399,7419,7439,7459,7479,7499,7520,7540,7560,7579,7599,7619,7639,7659,7679,7699,7720,7739,7758,7779,7799,7819,7839,7859,7880,7899,7918,7940,7960,7979,7999,8019,8040,8060,8080,8099,8119,8139,8159,8179,8200,8219,8240,8259,8279,8300,8319,8339,8359,8379,8400,8419,8439,8460,8479,8499,8519,8539,8560,8579,8599,8619,8640,8660,8679,8700,8719,8739,8760,8780,8800,8819,8839,8860,8880,8899,8920,8940,8959,8980,9000,9018,9039,9060,9079,9099,9119,9139,9159,9179,9199,9219,9239,9259,9279,9300,9319,9340,9359,9379,9399,9420,9440,9459,9479,9499,9520,9539,9559,9579,9599,9619,9639,9659,9680,9699,9719,9740,9760,9779,9799,9819,9839,9859,9879,9899,9919,9940,9959,9979,9999,10020,10039,10059,10079,10099,10120,10139,10160,10179,10200,10219,10239,10260,10279,10299,10319,10339,10360,10379,10399,10420,10439,10459,10479,10499,10519,10539,10559,10579,10600,10619,10640,10660,10679,10699,10719,10739,10760,10779,10800,10820,10840,10859,10879,10899,10919,10939,10959,10980,10999,11019,11039,11060,11079,11099,11119,11139,11159,11180,11199,11219,11239,11259,11280,11300,11319,11339,11359,11380,11399,11419,11439,11459,11480,11499,11519,11539,11559,11579,11599,11620,11639,11659,11678,11699,11720,11740,11759,11779,11799,11819,11839,11859,11880,11899,11920,11939,11959,11980,11999,12019,12039,12060,12079,12099,12120,12139,12159,12180,12199,12219,12239,12259,12279,12300,12320,12340,12360,12379,12400,12419,12439,12459,12480,12499,12519,12539,12560,12579,12600,12619,12639,12659,12679,12699,12720,12739,12760,12779,12800,12819,12840,12860,12879,12899,12919,12939,12959,12979,12999,13020,13039,13059,13079,13099,13120,13139,13159,13179,13199,13219,13240,13260,13279,13299,13319,13340,13360,13380,13400,13419,13439,13459,13480,13499,13519,13539,13558,13580,13600,13619,13639,13660,13679,13699,13719,13740,13758,13779,13800,13820,13838,13859,13879,13899,13920,13940,13960,13978,14000,14019,14039,14060,14079,14100,14120,14140,14159,14179,14198,14218,14239,14260,14279,14299,14320,14339,14359,14379,14399,14419,14439,14459,14480,14500,14519,14539,14560,14579,14599,14619,14639,14660,14680,14699,14719,14739,14760,14779,14799,14820,14839,14860,14879,14899,14919,14939,14960,14980,14999,15019,15039,15059,15080,15099,15119,15139,15160,15179,15199,15220,15240,15260,15279,15298,15319,15340,15359,15379,15399,15419,15439,15459,15480,15499,15519,15538,15559,15579,15599,15620,15640,15659,15678,15698,15719,15739,15759,15779,15799,15820,15840,15860,15878,15900,15920,15940,15960,15978,16000,16020,16039,16059,16080,16099,16119,16140,16159,16179,16199,16220,16239,16260,16279,16300,16320,16339,16359,16379,16399,16418,16439,16459,16479,16500,16520,16539,16559,16580,16600,16619,16639,16659,16680,16700,16719,16740,16760,16780,16800,16818,16839,16860,16879,16900,16920,16939,16960,16978,16999,17020,17040,17060,17079,17099,17119,17138,17160,17179,17199,17219,17240,17259,17280,17299,17320,17340,17359,17379,17399,17419,17440,17458,17480,17499,17520,17539,17560,17579,17599],"xSR":741.5,"ySR":500.5,"xT1":424.9,"yT1":0,"xT2":1058.1,"yT2":0,"toosoon":0,"cond_shown":"Congruent","ratio_trial":300,"L_num":4,"L_den":20,"R_num":13,"R_den":26,"correct_side":2,"subjID":"SofiaVargasMora17","gender":"1","age":"11","school":"6","test":{"fix_dur":[250,1500],"timestim":1000,"targets_dim":[100,100],"targets_relative_coord":[0.3,0.7],"size_stim":[880,420],"start_dim":[100,100],"size_start":[300,300],"size_fix":60,"samplingrate":20,"img_types":["Congruent","Incongruent"],"ratios":[100,200,300],"rep_conds":19,"nTrials":120,"trials_to_rest":500,"Trials_order":[16,118,44,12,86,93,64,97,96,31,37,7,66,100,112,108,104,42,24,38,53,107,80,6,61,29,110,60,34,77,46,11,102,5,51,84,59,54,89,63,43,22,18,20,98,69,67,41,2,113,78,35,33,4,92,25,1,58,3,117,103,56,75,39,85,81,114,95,88,10,106,99,70,72,36,83,111,65,21,19,27,62,90,52,0,13,40,57,55,48,76,26,17,47,9,68,15,109,79,8,119,73,101,71,105,30,45,74,50,28,94,14,23,91,82,49,87,116,32,115],"cond_shown":["Congruent","Congruent","Congruent","Congruent","Congruent","Incongruent","Congruent","Incongruent","Congruent","Incongruent","Incongruent","Incongruent","Congruent","Congruent","Congruent","Congruent","Congruent","Congruent","Congruent","Congruent","Incongruent","Incongruent","Congruent","Congruent","Incongruent","Incongruent","Congruent","Congruent","Congruent","Incongruent","Congruent","Incongruent","Congruent","Incongruent","Incongruent","Congruent","Incongruent","Congruent","Incongruent","Incongruent","Incongruent","Congruent","Congruent","Congruent","Congruent","Incongruent","Incongruent","Incongruent","Congruent","Incongruent","Congruent","Incongruent","Incongruent","Congruent","Congruent","Incongruent","Incongruent","Congruent","Incongruent","Incongruent","Incongruent","Congruent","Incongruent","Incongruent","Incongruent","Incongruent","Congruent","Incongruent","Congruent","Congruent","Congruent","Incongruent","Congruent","Congruent","Congruent","Incongruent","Incongruent","Incongruent","Incongruent","Incongruent","Incongruent","Congruent","Congruent","Congruent","Congruent","Incongruent","Congruent","Incongruent","Incongruent","Congruent","Congruent","Congruent","Incongruent","Incongruent","Incongruent","Congruent","Incongruent","Incongruent","Incongruent","Congruent","Incongruent","Incongruent","Incongruent","Incongruent","Incongruent","Congruent","Incongruent","Congruent","Congruent","Congruent","Congruent","Congruent","Incongruent","Incongruent","Congruent","Incongruent","Incongruent","Congruent","Congruent","Incongruent"],"ratio_trial":[300,300,200,100,200,200,300,100,100,100,100,100,100,300,300,100,200,100,100,200,300,300,200,100,100,300,200,100,300,300,300,300,100,300,200,100,300,100,300,200,100,300,100,200,200,200,100,300,200,300,100,300,200,300,200,100,100,300,200,200,100,200,200,200,100,200,100,300,300,300,300,200,300,100,100,300,200,300,200,100,200,200,100,300,100,100,300,200,100,100,300,200,300,300,200,200,200,100,100,200,300,100,300,300,200,100,200,200,200,300,300,200,300,100,300,100,200,200,200,100],"left_num":[4,20,16,2,6,7,11,17,8,9,6,3,7,8,20,3,12,10,7,3,4,4,8,11,17,1,5,11,1,4,11,13,15,4,1,3,2,1,4,7,13,5,1,3,9,7,4,4,14,13,3,1,3,1,14,6,3,4,4,3,1,3,7,7,2,3,6,4,5,8,3,4,20,12,3,4,7,7,9,6,9,15,4,3,6,13,5,11,9,4,3,4,8,13,7,14,4,12,10,6,4,11,3,2,14,3,4,6,3,1,8,4,2,3,11,9,3,6,5,9],"right_num":[13,13,12,11,7,8,2,10,2,14,3,11,15,10,9,4,6,3,15,7,6,2,2,6,10,3,14,6,8,2,2,12,13,6,2,2,6,3,2,12,12,6,18,14,4,12,8,2,6,12,2,2,1,11,6,3,8,2,1,1,8,9,14,8,6,1,5,2,7,10,2,1,5,13,2,2,8,8,8,13,8,4,15,4,5,6,6,3,20,15,2,3,14,12,8,6,14,9,8,3,2,9,4,6,6,2,14,3,7,7,10,3,6,4,4,6,11,7,14,20],"left_den":[20,25,20,5,12,10,22,30,16,15,12,5,14,15,25,20,20,25,14,10,5,20,15,22,30,2,10,22,30,20,22,26,25,5,3,6,4,2,20,10,26,25,2,10,20,10,8,20,28,26,6,2,10,5,28,12,5,5,30,10,2,12,10,10,4,10,20,20,25,15,6,30,25,30,6,20,10,10,15,10,15,25,10,6,20,26,25,20,10,10,6,10,10,26,10,28,6,24,25,15,20,22,6,4,30,6,6,15,10,20,15,10,4,6,22,18,4,12,10,10],"right_den":[26,26,20,22,10,16,10,15,5,28,5,22,25,12,18,16,15,10,25,14,12,4,6,15,15,15,20,15,24,4,10,15,26,12,15,5,30,5,4,24,20,12,30,28,16,24,20,4,20,15,5,10,2,22,20,5,16,4,3,2,20,20,28,16,15,2,25,4,14,12,10,3,10,26,5,4,16,20,10,26,10,10,30,5,25,10,12,4,25,30,10,15,28,15,16,20,30,15,16,15,4,15,20,30,9,5,30,15,14,20,12,15,30,10,20,10,20,10,20,25],"correct_side":[2,1,1,2,2,1,1,2,1,1,2,1,2,2,1,2,1,1,2,2,1,2,1,1,2,1,2,1,2,2,1,2,1,1,1,1,1,2,2,1,2,2,2,2,1,1,1,2,1,2,1,1,2,2,1,2,1,1,2,2,1,2,1,1,1,2,1,2,2,2,1,2,1,2,1,2,1,1,2,1,2,1,2,2,1,2,2,2,1,2,1,1,1,2,1,1,1,2,2,1,2,2,1,1,2,1,1,1,2,2,2,1,1,1,1,2,1,2,2,1],"img_shown":["img2/300/Congruent/R/C_Dist_300_LN_4_LD_20_RN_13_RD_26_1.png","img2/300/Congruent/L/C_Dist_300_LN_20_LD_25_RN_13_RD_26_0.png","img2/200/Congruent/L/C_Dist_200_LN_16_LD_20_RN_12_RD_20_0.png","img2/100/Congruent/R/C_Dist_100_LN_2_LD_5_RN_11_RD_22_1.png","img2/200/Congruent/R/C_Dist_200_LN_6_LD_12_RN_7_RD_10_1.png","img2/200/Incongruent/L/I_Dist_200_LN_7_LD_10_RN_8_RD_16_0.png","img2/300/Congruent/L/C_Dist_300_LN_11_LD_22_RN_2_RD_10_0.png","img2/100/Incongruent/R/I_Dist_100_LN_17_LD_30_RN_10_RD_15_1.png","img2/100/Congruent/L/C_Dist_100_LN_8_LD_16_RN_2_RD_5_0.png","img2/100/Incongruent/L/I_Dist_100_LN_9_LD_15_RN_14_RD_28_0.png","img2/100/Incongruent/R/I_Dist_100_LN_6_LD_12_RN_3_RD_5_1.png","img2/100/Incongruent/L/I_Dist_100_LN_3_LD_5_RN_11_RD_22_0.png","img2/100/Congruent/R/C_Dist_100_LN_7_LD_14_RN_15_RD_25_1.png","img2/300/Congruent/R/C_Dist_300_LN_8_LD_15_RN_10_RD_12_1.png","img2/300/Congruent/L/C_Dist_300_LN_20_LD_25_RN_9_RD_18_0.png","img2/100/Congruent/R/C_Dist_100_LN_3_LD_20_RN_4_RD_16_1.png","img2/200/Congruent/L/C_Dist_200_LN_12_LD_20_RN_6_RD_15_0.png","img2/100/Congruent/L/C_Dist_100_LN_10_LD_25_RN_3_RD_10_0.png","img2/100/Congruent/R/C_Dist_100_LN_7_LD_14_RN_15_RD_25_1.png","img2/200/Congruent/R/C_Dist_200_LN_3_LD_10_RN_7_RD_14_1.png","img2/300/Incongruent/L/I_Dist_300_LN_4_LD_5_RN_6_RD_12_0.png","img2/300/Incongruent/R/I_Dist_300_LN_4_LD_20_RN_2_RD_4_1.png","img2/200/Congruent/L/C_Dist_200_LN_8_LD_15_RN_2_RD_6_0.png","img2/100/Congruent/L/C_Dist_100_LN_11_LD_22_RN_6_RD_15_0.png","img2/100/Incongruent/R/I_Dist_100_LN_17_LD_30_RN_10_RD_15_1.png","img2/300/Incongruent/L/I_Dist_300_LN_1_LD_2_RN_3_RD_15_0.png","img2/200/Congruent/R/C_Dist_200_LN_5_LD_10_RN_14_RD_20_1.png","img2/100/Congruent/L/C_Dist_100_LN_11_LD_22_RN_6_RD_15_0.png","img2/300/Congruent/R/C_Dist_300_LN_1_LD_30_RN_8_RD_24_1.png","img2/300/Incongruent/R/I_Dist_300_LN_4_LD_20_RN_2_RD_4_1.png","img2/300/Congruent/L/C_Dist_300_LN_11_LD_22_RN_2_RD_10_0.png","img2/300/Incongruent/R/I_Dist_300_LN_13_LD_26_RN_12_RD_15_1.png","img2/100/Congruent/L/C_Dist_100_LN_15_LD_25_RN_13_RD_26_0.png","img2/300/Incongruent/L/I_Dist_300_LN_4_LD_5_RN_6_RD_12_0.png","img2/200/Incongruent/L/I_Dist_200_LN_1_LD_3_RN_2_RD_15_0.png","img2/100/Congruent/L/C_Dist_100_LN_3_LD_6_RN_2_RD_5_0.png","img2/300/Incongruent/L/I_Dist_300_LN_2_LD_4_RN_6_RD_30_0.png","img2/100/Congruent/R/C_Dist_100_LN_1_LD_2_RN_3_RD_5_1.png","img2/300/Incongruent/R/I_Dist_300_LN_4_LD_20_RN_2_RD_4_1.png","img2/200/Incongruent/L/I_Dist_200_LN_7_LD_10_RN_12_RD_24_0.png","img2/100/Incongruent/R/I_Dist_100_LN_13_LD_26_RN_12_RD_20_1.png","img2/300/Congruent/R/C_Dist_300_LN_5_LD_25_RN_6_RD_12_1.png","img2/100/Congruent/R/C_Dist_100_LN_1_LD_2_RN_18_RD_30_1.png","img2/200/Congruent/R/C_Dist_200_LN_3_LD_10_RN_14_RD_28_1.png","img2/200/Congruent/L/C_Dist_200_LN_9_LD_20_RN_4_RD_16_0.png","img2/200/Incongruent/L/I_Dist_200_LN_7_LD_10_RN_12_RD_24_0.png","img2/100/Incongruent/L/I_Dist_100_LN_4_LD_8_RN_8_RD_20_0.png","img2/300/Incongruent/R/I_Dist_300_LN_4_LD_20_RN_2_RD_4_1.png","img2/200/Congruent/L/C_Dist_200_LN_14_LD_28_RN_6_RD_20_0.png","img2/300/Incongruent/R/I_Dist_300_LN_13_LD_26_RN_12_RD_15_1.png","img2/100/Congruent/L/C_Dist_100_LN_3_LD_6_RN_2_RD_5_0.png","img2/300/Incongruent/L/I_Dist_300_LN_1_LD_2_RN_2_RD_10_0.png","img2/200/Incongruent/R/I_Dist_200_LN_3_LD_10_RN_1_RD_2_1.png","img2/300/Congruent/R/C_Dist_300_LN_1_LD_5_RN_11_RD_22_1.png","img2/200/Congruent/L/C_Dist_200_LN_14_LD_28_RN_6_RD_20_0.png","img2/100/Incongruent/R/I_Dist_100_LN_6_LD_12_RN_3_RD_5_1.png","img2/100/Incongruent/L/I_Dist_100_LN_3_LD_5_RN_8_RD_16_0.png","img2/300/Congruent/L/C_Dist_300_LN_4_LD_5_RN_2_RD_4_0.png","img2/200/Incongruent/R/I_Dist_200_LN_4_LD_30_RN_1_RD_3_1.png","img2/200/Incongruent/R/I_Dist_200_LN_3_LD_10_RN_1_RD_2_1.png","img2/100/Incongruent/L/I_Dist_100_LN_1_LD_2_RN_8_RD_20_0.png","img2/200/Congruent/R/C_Dist_200_LN_3_LD_12_RN_9_RD_20_1.png","img2/200/Incongruent/L/I_Dist_200_LN_7_LD_10_RN_14_RD_28_0.png","img2/200/Incongruent/L/I_Dist_200_LN_7_LD_10_RN_8_RD_16_0.png","img2/100/Incongruent/L/I_Dist_100_LN_2_LD_4_RN_6_RD_15_0.png","img2/200/Incongruent/R/I_Dist_200_LN_3_LD_10_RN_1_RD_2_1.png","img2/100/Congruent/L/C_Dist_100_LN_6_LD_20_RN_5_RD_25_0.png","img2/300/Incongruent/R/I_Dist_300_LN_4_LD_20_RN_2_RD_4_1.png","img2/300/Congruent/R/C_Dist_300_LN_5_LD_25_RN_7_RD_14_1.png","img2/300/Congruent/R/C_Dist_300_LN_8_LD_15_RN_10_RD_12_1.png","img2/300/Congruent/L/C_Dist_300_LN_3_LD_6_RN_2_RD_10_0.png","img2/200/Incongruent/R/I_Dist_200_LN_4_LD_30_RN_1_RD_3_1.png","img2/300/Congruent/L/C_Dist_300_LN_20_LD_25_RN_5_RD_10_0.png","img2/100/Congruent/R/C_Dist_100_LN_12_LD_30_RN_13_RD_26_1.png","img2/100/Congruent/L/C_Dist_100_LN_3_LD_6_RN_2_RD_5_0.png","img2/300/Incongruent/R/I_Dist_300_LN_4_LD_20_RN_2_RD_4_1.png","img2/200/Incongruent/L/I_Dist_200_LN_7_LD_10_RN_8_RD_16_0.png","img2/300/Incongruent/L/I_Dist_300_LN_7_LD_10_RN_8_RD_20_0.png","img2/200/Incongruent/R/I_Dist_200_LN_9_LD_15_RN_8_RD_10_1.png","img2/100/Incongruent/L/I_Dist_100_LN_6_LD_10_RN_13_RD_26_0.png","img2/200/Incongruent/R/I_Dist_200_LN_9_LD_15_RN_8_RD_10_1.png","img2/200/Congruent/L/C_Dist_200_LN_15_LD_25_RN_4_RD_10_0.png","img2/100/Congruent/R/C_Dist_100_LN_4_LD_10_RN_15_RD_30_1.png","img2/300/Congruent/R/C_Dist_300_LN_3_LD_6_RN_4_RD_5_1.png","img2/100/Congruent/L/C_Dist_100_LN_6_LD_20_RN_5_RD_25_0.png","img2/100/Incongruent/R/I_Dist_100_LN_13_LD_26_RN_6_RD_10_1.png","img2/300/Congruent/R/C_Dist_300_LN_5_LD_25_RN_6_RD_12_1.png","img2/200/Incongruent/R/I_Dist_200_LN_11_LD_20_RN_3_RD_4_1.png","img2/100/Incongruent/L/I_Dist_100_LN_9_LD_10_RN_20_RD_25_0.png","img2/100/Congruent/R/C_Dist_100_LN_4_LD_10_RN_15_RD_30_1.png","img2/300/Congruent/L/C_Dist_300_LN_3_LD_6_RN_2_RD_10_0.png","img2/200/Congruent/L/C_Dist_200_LN_4_LD_10_RN_3_RD_15_0.png","img2/300/Incongruent/L/I_Dist_300_LN_8_LD_10_RN_14_RD_28_0.png","img2/300/Incongruent/R/I_Dist_300_LN_13_LD_26_RN_12_RD_15_1.png","img2/200/Incongruent/L/I_Dist_200_LN_7_LD_10_RN_8_RD_16_0.png","img2/200/Congruent/L/C_Dist_200_LN_14_LD_28_RN_6_RD_20_0.png","img2/200/Incongruent/L/I_Dist_200_LN_4_LD_6_RN_14_RD_30_0.png","img2/100/Incongruent/R/I_Dist_100_LN_12_LD_24_RN_9_RD_15_1.png","img2/100/Incongruent/R/I_Dist_100_LN_10_LD_25_RN_8_RD_16_1.png","img2/200/Congruent/L/C_Dist_200_LN_6_LD_15_RN_3_RD_15_0.png","img2/300/Incongruent/R/I_Dist_300_LN_4_LD_20_RN_2_RD_4_1.png","img2/100/Incongruent/R/I_Dist_100_LN_11_LD_22_RN_9_RD_15_1.png","img2/300/Incongruent/L/I_Dist_300_LN_3_LD_6_RN_4_RD_20_0.png","img2/300/Incongruent/L/I_Dist_300_LN_2_LD_4_RN_6_RD_30_0.png","img2/200/Incongruent/R/I_Dist_200_LN_14_LD_30_RN_6_RD_9_1.png","img2/100/Congruent/L/C_Dist_100_LN_3_LD_6_RN_2_RD_5_0.png","img2/200/Incongruent/L/I_Dist_200_LN_4_LD_6_RN_14_RD_30_0.png","img2/200/Congruent/L/C_Dist_200_LN_6_LD_15_RN_3_RD_15_0.png","img2/200/Congruent/R/C_Dist_200_LN_3_LD_10_RN_7_RD_14_1.png","img2/300/Congruent/R/C_Dist_300_LN_1_LD_20_RN_7_RD_20_1.png","img2/300/Congruent/R/C_Dist_300_LN_8_LD_15_RN_10_RD_12_1.png","img2/200/Congruent/L/C_Dist_200_LN_4_LD_10_RN_3_RD_15_0.png","img2/300/Incongruent/L/I_Dist_300_LN_2_LD_4_RN_6_RD_30_0.png","img2/100/Incongruent/L/I_Dist_100_LN_3_LD_6_RN_4_RD_10_0.png","img2/300/Congruent/L/C_Dist_300_LN_11_LD_22_RN_4_RD_20_0.png","img2/100/Incongruent/R/I_Dist_100_LN_9_LD_18_RN_6_RD_10_1.png","img2/200/Incongruent/L/I_Dist_200_LN_3_LD_4_RN_11_RD_20_0.png","img2/200/Congruent/R/C_Dist_200_LN_6_LD_12_RN_7_RD_10_1.png","img2/200/Congruent/R/C_Dist_200_LN_5_LD_10_RN_14_RD_20_1.png","img2/100/Incongruent/L/I_Dist_100_LN_9_LD_10_RN_20_RD_25_0.png"],"dist100_C":[["C_Dist_100_LN_10_LD_25_RN_3_RD_10_0.png","C_Dist_100_LN_11_LD_22_RN_4_RD_10_0.png","C_Dist_100_LN_11_LD_22_RN_6_RD_15_0.png","C_Dist_100_LN_15_LD_25_RN_13_RD_26_0.png","C_Dist_100_LN_3_LD_6_RN_2_RD_5_0.png","C_Dist_100_LN_6_LD_20_RN_5_RD_25_0.png","C_Dist_100_LN_8_LD_16_RN_2_RD_5_0.png","C_Dist_100_LN_9_LD_15_RN_8_RD_16_0.png"],["C_Dist_100_LN_1_LD_2_RN_18_RD_30_1.png","C_Dist_100_LN_1_LD_2_RN_3_RD_5_1.png","C_Dist_100_LN_12_LD_30_RN_13_RD_26_1.png","C_Dist_100_LN_2_LD_5_RN_11_RD_22_1.png","C_Dist_100_LN_2_LD_5_RN_6_RD_12_1.png","C_Dist_100_LN_3_LD_20_RN_4_RD_16_1.png","C_Dist_100_LN_4_LD_10_RN_15_RD_30_1.png","C_Dist_100_LN_4_LD_8_RN_6_RD_10_1.png","C_Dist_100_LN_6_LD_12_RN_15_RD_25_1.png","C_Dist_100_LN_7_LD_14_RN_15_RD_25_1.png","C_Dist_100_LN_7_LD_14_RN_9_RD_15_1.png"]],"dist100_I":[["I_Dist_100_LN_1_LD_2_RN_8_RD_20_0.png","I_Dist_100_LN_2_LD_4_RN_6_RD_15_0.png","I_Dist_100_LN_2_LD_4_RN_8_RD_20_0.png","I_Dist_100_LN_3_LD_5_RN_11_RD_22_0.png","I_Dist_100_LN_3_LD_5_RN_8_RD_16_0.png","I_Dist_100_LN_3_LD_6_RN_4_RD_10_0.png","I_Dist_100_LN_3_LD_9_RN_7_RD_30_0.png","I_Dist_100_LN_4_LD_8_RN_8_RD_20_0.png","I_Dist_100_LN_6_LD_10_RN_11_RD_22_0.png","I_Dist_100_LN_6_LD_10_RN_13_RD_26_0.png","I_Dist_100_LN_6_LD_10_RN_7_RD_14_0.png","I_Dist_100_LN_9_LD_10_RN_20_RD_25_0.png","I_Dist_100_LN_9_LD_15_RN_13_RD_26_0.png","I_Dist_100_LN_9_LD_15_RN_14_RD_28_0.png"],["I_Dist_100_LN_10_LD_25_RN_8_RD_16_1.png","I_Dist_100_LN_10_LD_25_RN_9_RD_18_1.png","I_Dist_100_LN_11_LD_22_RN_9_RD_15_1.png","I_Dist_100_LN_12_LD_24_RN_9_RD_15_1.png","I_Dist_100_LN_12_LD_30_RN_2_RD_4_1.png","I_Dist_100_LN_13_LD_26_RN_12_RD_20_1.png","I_Dist_100_LN_13_LD_26_RN_6_RD_10_1.png","I_Dist_100_LN_17_LD_30_RN_10_RD_15_1.png","I_Dist_100_LN_6_LD_12_RN_3_RD_5_1.png","I_Dist_100_LN_8_LD_16_RN_6_RD_10_1.png","I_Dist_100_LN_8_LD_20_RN_1_RD_2_1.png","I_Dist_100_LN_9_LD_18_RN_6_RD_10_1.png"]],"dist100_S":[["E_Dist_100_LN_2_LD_12_RN_2_RD_30_0.png","E_Dist_100_LN_6_LD_10_RN_6_RD_12_0.png"],["E_Dist_100_LN_6_LD_12_RN_6_RD_10_1.png"]],"dist200_C":[["C_Dist_200_LN_11_LD_22_RN_3_RD_10_0.png","C_Dist_200_LN_12_LD_15_RN_6_RD_10_0.png","C_Dist_200_LN_12_LD_20_RN_6_RD_15_0.png","C_Dist_200_LN_14_LD_28_RN_6_RD_20_0.png","C_Dist_200_LN_15_LD_25_RN_4_RD_10_0.png","C_Dist_200_LN_16_LD_20_RN_12_RD_20_0.png","C_Dist_200_LN_16_LD_30_RN_9_RD_27_0.png","C_Dist_200_LN_20_LD_25_RN_9_RD_15_0.png","C_Dist_200_LN_21_LD_30_RN_2_RD_4_0.png","C_Dist_200_LN_4_LD_10_RN_3_RD_15_0.png","C_Dist_200_LN_4_LD_8_RN_3_RD_10_0.png","C_Dist_200_LN_6_LD_15_RN_3_RD_15_0.png","C_Dist_200_LN_7_LD_21_RN_2_RD_15_0.png","C_Dist_200_LN_8_LD_15_RN_2_RD_6_0.png","C_Dist_200_LN_8_LD_15_RN_3_RD_9_0.png","C_Dist_200_LN_8_LD_15_RN_7_RD_21_0.png","C_Dist_200_LN_9_LD_20_RN_4_RD_16_0.png"],["C_Dist_200_LN_1_LD_2_RN_21_RD_30_1.png","C_Dist_200_LN_13_LD_26_RN_14_RD_20_1.png","C_Dist_200_LN_3_LD_10_RN_11_RD_22_1.png","C_Dist_200_LN_3_LD_10_RN_14_RD_28_1.png","C_Dist_200_LN_3_LD_10_RN_7_RD_14_1.png","C_Dist_200_LN_3_LD_12_RN_9_RD_20_1.png","C_Dist_200_LN_3_LD_6_RN_14_RD_20_1.png","C_Dist_200_LN_5_LD_10_RN_14_RD_20_1.png","C_Dist_200_LN_6_LD_12_RN_7_RD_10_1.png","C_Dist_200_LN_6_LD_20_RN_11_RD_22_1.png","C_Dist_200_LN_7_LD_15_RN_18_RD_27_1.png","C_Dist_200_LN_9_LD_30_RN_13_RD_26_1.png"]],"dist200_I":[["I_Dist_200_LN_1_LD_2_RN_3_RD_10_0.png","I_Dist_200_LN_1_LD_3_RN_2_RD_15_0.png","I_Dist_200_LN_3_LD_4_RN_11_RD_20_0.png","I_Dist_200_LN_4_LD_5_RN_6_RD_10_0.png","I_Dist_200_LN_4_LD_6_RN_14_RD_30_0.png","I_Dist_200_LN_7_LD_10_RN_12_RD_24_0.png","I_Dist_200_LN_7_LD_10_RN_14_RD_28_0.png","I_Dist_200_LN_7_LD_10_RN_8_RD_16_0.png"],["I_Dist_200_LN_11_LD_20_RN_3_RD_4_1.png","I_Dist_200_LN_14_LD_30_RN_12_RD_18_1.png","I_Dist_200_LN_14_LD_30_RN_6_RD_9_1.png","I_Dist_200_LN_3_LD_10_RN_1_RD_2_1.png","I_Dist_200_LN_4_LD_30_RN_1_RD_3_1.png","I_Dist_200_LN_6_LD_20_RN_3_RD_6_1.png","I_Dist_200_LN_7_LD_15_RN_4_RD_6_1.png","I_Dist_200_LN_7_LD_15_RN_6_RD_9_1.png","I_Dist_200_LN_9_LD_15_RN_8_RD_10_1.png"]],"dist200_S":[["E_Dist_200_LN_3_LD_6_RN_3_RD_10_0.png"],["E_Dist_200_LN_3_LD_10_RN_3_RD_6_1.png"]],"dist300_C":[["C_Dist_300_LN_11_LD_22_RN_1_RD_5_0.png","C_Dist_300_LN_11_LD_22_RN_2_RD_10_0.png","C_Dist_300_LN_11_LD_22_RN_4_RD_20_0.png","C_Dist_300_LN_12_LD_24_RN_2_RD_10_0.png","C_Dist_300_LN_18_LD_20_RN_9_RD_15_0.png","C_Dist_300_LN_20_LD_25_RN_13_RD_26_0.png","C_Dist_300_LN_20_LD_25_RN_14_RD_28_0.png","C_Dist_300_LN_20_LD_25_RN_5_RD_10_0.png","C_Dist_300_LN_20_LD_25_RN_8_RD_16_0.png","C_Dist_300_LN_20_LD_25_RN_9_RD_18_0.png","C_Dist_300_LN_24_LD_30_RN_2_RD_4_0.png","C_Dist_300_LN_24_LD_30_RN_8_RD_16_0.png","C_Dist_300_LN_3_LD_6_RN_2_RD_10_0.png","C_Dist_300_LN_4_LD_10_RN_1_RD_10_0.png","C_Dist_300_LN_4_LD_5_RN_2_RD_4_0.png","C_Dist_300_LN_8_LD_16_RN_1_RD_5_0.png","C_Dist_300_LN_9_LD_10_RN_3_RD_5_0.png"],["C_Dist_300_LN_1_LD_20_RN_7_RD_20_1.png","C_Dist_300_LN_1_LD_3_RN_19_RD_30_1.png","C_Dist_300_LN_1_LD_30_RN_8_RD_24_1.png","C_Dist_300_LN_1_LD_5_RN_11_RD_22_1.png","C_Dist_300_LN_1_LD_5_RN_3_RD_6_1.png","C_Dist_300_LN_1_LD_5_RN_6_RD_12_1.png","C_Dist_300_LN_2_LD_10_RN_12_RD_24_1.png","C_Dist_300_LN_2_LD_20_RN_10_RD_25_1.png","C_Dist_300_LN_3_LD_12_RN_11_RD_20_1.png","C_Dist_300_LN_3_LD_6_RN_4_RD_5_1.png","C_Dist_300_LN_4_LD_20_RN_13_RD_26_1.png","C_Dist_300_LN_5_LD_25_RN_6_RD_12_1.png","C_Dist_300_LN_5_LD_25_RN_7_RD_14_1.png","C_Dist_300_LN_7_LD_14_RN_20_RD_25_1.png","C_Dist_300_LN_8_LD_15_RN_10_RD_12_1.png"]],"dist300_I":[["I_Dist_300_LN_1_LD_2_RN_2_RD_10_0.png","I_Dist_300_LN_1_LD_2_RN_3_RD_15_0.png","I_Dist_300_LN_2_LD_4_RN_6_RD_30_0.png","I_Dist_300_LN_3_LD_6_RN_4_RD_20_0.png","I_Dist_300_LN_4_LD_5_RN_6_RD_12_0.png","I_Dist_300_LN_4_LD_5_RN_8_RD_16_0.png","I_Dist_300_LN_7_LD_10_RN_8_RD_20_0.png","I_Dist_300_LN_8_LD_10_RN_14_RD_28_0.png","I_Dist_300_LN_8_LD_10_RN_9_RD_18_0.png"],["I_Dist_300_LN_13_LD_26_RN_12_RD_15_1.png","I_Dist_300_LN_4_LD_20_RN_2_RD_4_1.png"]],"dist300_S":[["E_Dist_300_LN_9_LD_12_RN_9_RD_20_0.png"],["E_Dist_300_LN_18_LD_30_RN_18_RD_20_1.png","E_Dist_300_LN_3_LD_10_RN_3_RD_5_1.png","E_Dist_300_LN_9_LD_20_RN_9_RD_12_1.png"]],"dist500_C":[["C_Dist_500_LN_10_LD_13_RN_7_RD_26_0.png","C_Dist_500_LN_10_LD_15_RN_4_RD_24_0.png","C_Dist_500_LN_12_LD_16_RN_3_RD_12_0.png","C_Dist_500_LN_12_LD_18_RN_4_RD_24_0.png","C_Dist_500_LN_15_LD_18_RN_5_RD_15_0.png","C_Dist_500_LN_15_LD_20_RN_1_RD_4_0.png","C_Dist_500_LN_18_LD_27_RN_1_RD_6_0.png","C_Dist_500_LN_20_LD_24_RN_1_RD_3_0.png","C_Dist_500_LN_20_LD_24_RN_3_RD_9_0.png","C_Dist_500_LN_20_LD_24_RN_7_RD_21_0.png","C_Dist_500_LN_20_LD_28_RN_3_RD_14_0.png","C_Dist_500_LN_21_LD_28_RN_6_RD_24_0.png","C_Dist_500_LN_22_LD_28_RN_2_RD_7_0.png","C_Dist_500_LN_25_LD_30_RN_9_RD_27_0.png","C_Dist_500_LN_4_LD_6_RN_1_RD_6_0.png","C_Dist_500_LN_5_LD_6_RN_2_RD_6_0.png","C_Dist_500_LN_6_LD_9_RN_1_RD_6_0.png","C_Dist_500_LN_7_LD_10_RN_1_RD_5_0.png","C_Dist_500_LN_8_LD_12_RN_1_RD_6_0.png","C_Dist_500_LN_8_LD_12_RN_4_RD_24_0.png"],["C_Dist_500_LN_1_LD_4_RN_12_RD_16_1.png","C_Dist_500_LN_1_LD_4_RN_9_RD_12_1.png","C_Dist_500_LN_1_LD_9_RN_11_RD_18_1.png","C_Dist_500_LN_10_LD_24_RN_22_RD_24_1.png","C_Dist_500_LN_2_LD_12_RN_10_RD_15_1.png","C_Dist_500_LN_2_LD_12_RN_12_RD_18_1.png","C_Dist_500_LN_2_LD_12_RN_4_RD_6_1.png","C_Dist_500_LN_2_LD_24_RN_7_RD_12_1.png","C_Dist_500_LN_2_LD_5_RN_18_RD_20_1.png","C_Dist_500_LN_2_LD_5_RN_9_RD_10_1.png","C_Dist_500_LN_2_LD_8_RN_12_RD_16_1.png","C_Dist_500_LN_2_LD_8_RN_21_RD_28_1.png","C_Dist_500_LN_3_LD_10_RN_4_RD_5_1.png","C_Dist_500_LN_3_LD_12_RN_15_RD_20_1.png","C_Dist_500_LN_3_LD_30_RN_6_RD_10_1.png","C_Dist_500_LN_3_LD_8_RN_14_RD_16_1.png","C_Dist_500_LN_4_LD_16_RN_15_RD_20_1.png","C_Dist_500_LN_4_LD_24_RN_12_RD_18_1.png","C_Dist_500_LN_5_LD_14_RN_6_RD_7_1.png","C_Dist_500_LN_7_LD_21_RN_20_RD_24_1.png","C_Dist_500_LN_7_LD_28_RN_12_RD_16_1.png","C_Dist_500_LN_7_LD_28_RN_9_RD_12_1.png","C_Dist_500_LN_9_LD_27_RN_20_RD_24_1.png"]],"dist500_I":[["I_Dist_500_LN_2_LD_3_RN_4_RD_24_0.png","I_Dist_500_LN_5_LD_6_RN_6_RD_18_0.png","I_Dist_500_LN_7_LD_8_RN_9_RD_24_0.png"],["I_Dist_500_LN_7_LD_21_RN_5_RD_6_1.png"]],"dist500_S":[["E_Dist_500_LN_6_LD_8_RN_6_RD_24_0.png"],["E_Dist_500_LN_2_LD_12_RN_2_RD_3_1.png","E_Dist_500_LN_6_LD_24_RN_6_RD_8_1.png"]]}},{"start_time":1551880626629,"click_time":1551880628488,"finger_time":1551880627867,"fix_duration":1059.4755342608776,"trial":1,"RT":1238,"MT":621,"sideResp":1,"stimulus":[],"xmouse":[778,778,778,778,778,778,778,778,778,778,778,778,778,778,778,778,778,778,778,778,778,778,778,778,778,778,778,778,778,778,778,778,778,778,778,778,778,778,778,778,778,778,778,778,778,778,778,778,778,778,778,778,778,778,782,789,790,790,788,780,771,760,740,733,686,665,641,621,604,587,586,584,582,581,579,574,564,554,544,531,528,527,525,521,519,518,516,515,512,508,506,505,502],"ymouse":[618,618,618,618,618,618,618,618,618,618,618,618,618,618,618,618,618,618,618,618,618,618,618,618,618,618,618,618,618,618,618,618,618,618,618,618,618,618,618,618,618,618,618,618,618,618,618,618,618,618,618,618,618,618,613,606,605,604,596,587,579,569,551,544,490,453,420,394,371,328,313,296,279,242,228,216,202,192,181,163,157,152,148,139,135,133,130,126,117,109,104,100,96],"timestamp_mouse":[18,39,74,78,98,118,138,158,179,199,219,238,258,279,298,318,339,359,379,399,419,439,459,479,498,519,539,559,579,598,618,638,659,677,699,718,739,758,779,798,819,838,858,878,899,919,939,958,978,999,1019,1038,1059,1078,1098,1118,1139,1158,1179,1198,1218,1238,1258,1278,1298,1318,1339,1359,1378,1398,1418,1438,1458,1479,1498,1519,1539,1559,1578,1598,1619,1638,1658,1679,1698,1718,1738,1758,1779,1798,1818,1838,1858],"xSR":741.5,"ySR":573.95,"xT1":424.9,"yT1":0,"xT2":1058.1,"yT2":0,"toosoon":0,"cond_shown":"Congruent","ratio_trial":300,"L_num":20,"L_den":25,"R_num":13,"R_den":26,"correct_side":1,"subjID":"SofiaVargasMora17","gender":"1","school":"6","age":"11"},{"start_time":1551880630244,"click_time":1551880631708,"finger_time":1551880631067,"fix_duration":733.2818677375773,"trial":2,"RT":823,"MT":641,"sideResp":2,"stimulus":[],"xmouse":[785,785,785,785,785,785,785,785,785,785,785,785,785,785,785,785,785,785,785,785,785,785,785,785,785,785,785,785,785,785,785,785,785,785,785,785,785,791,804,816,830,846,860,883,910,921,929,937,943,951,954,960,971,990,997,1004,1013,1019,1031,1036,1042,1045,1047,1053,1054,1054,1054,1054,1054,1059,1063,1069,1073,1080],"ymouse":[640,640,640,640,640,640,640,640,640,640,640,640,640,640,640,640,640,640,640,640,640,640,640,640,640,640,640,640,640,640,640,640,640,640,640,640,640,636,620,605,589,572,556,533,505,491,476,458,435,394,375,353,323,285,271,256,244,231,210,203,196,192,188,177,171,165,158,151,145,127,118,109,101,86],"timestamp_mouse":[8,36,43,64,83,103,124,144,163,184,203,224,243,263,283,303,323,343,363,383,403,423,443,464,483,503,523,543,564,584,604,623,643,663,683,703,724,743,764,783,804,823,843,863,884,903,924,943,963,983,1004,1023,1043,1064,1083,1103,1124,1143,1164,1183,1203,1222,1243,1264,1283,1303,1323,1343,1363,1383,1403,1424,1444,1464],"xSR":741.5,"ySR":573.95,"xT1":424.9,"yT1":0,"xT2":1058.1,"yT2":0,"toosoon":0,"cond_shown":"Congruent","ratio_trial":200,"L_num":16,"L_den":20,"R_num":12,"R_den":20,"correct_side":1,"subjID":"SofiaVargasMora17","gender":"1","school":"6","age":"11"},{"start_time":1551880634131,"click_time":1551880635387,"finger_time":1551880634787,"fix_duration":1041.0190469358674,"trial":3,"RT":656,"MT":600,"sideResp":2,"stimulus":[],"xmouse":[788,788,788,788,788,788,788,788,788,788,788,788,788,788,788,788,788,788,788,788,788,788,788,788,788,788,788,788,788,793,798,809,824,850,861,875,885,896,908,935,945,954,962,969,976,982,986,992,998,1011,1014,1016,1017,1021,1028,1032,1036,1039,1050,1061,1067,1075,1080],"ymouse":[604,604,604,604,604,604,604,604,604,604,604,604,604,604,604,604,604,604,604,604,604,604,604,604,604,604,604,604,604,598,592,580,562,523,502,483,466,451,434,396,382,369,356,343,327,315,305,297,284,253,242,229,219,207,189,181,175,168,145,126,116,104,93],"timestamp_mouse":[16,42,56,77,96,116,138,156,176,196,216,236,257,276,296,317,336,356,376,397,416,436,457,476,496,516,536,557,576,596,616,637,656,677,696,716,737,756,776,796,817,836,856,876,896,916,936,956,976,996,1016,1036,1056,1076,1096,1117,1136,1156,1176,1196,1216,1236,1256],"xSR":741.5,"ySR":573.95,"xT1":424.9,"yT1":0,"xT2":1058.1,"yT2":0,"toosoon":0,"cond_shown":"Congruent","ratio_trial":100,"L_num":2,"L_den":5,"R_num":11,"R_den":22,"correct_side":2,"subjID":"SofiaVargasMora17","gender":"1","school":"6","age":"11"},{"start_time":1551880637213,"click_time":1551880639127,"finger_time":1551880638007,"fix_duration":485.19366112658133,"trial":4,"RT":794,"MT":1120,"sideResp":2,"stimulus":[],"xmouse":[780,780,780,780,780,780,780,780,780,780,780,780,780,780,780,780,780,780,780,780,780,780,780,780,780,780,780,780,780,780,780,780,780,780,780,780,778,777,775,772,767,764,759,752,749,740,738,735,729,724,717,713,708,702,697,673,666,655,643,629,616,613,611,610,608,604,601,599,597,597,597,597,597,604,664,708,776,876,979,1124,1150,1161,1166,1170,1179,1182,1184,1186,1187,1188,1188,1186,1182,1180,1173,1148],"ymouse":[618,618,618,618,618,618,618,618,618,618,618,618,618,618,618,618,618,618,618,618,618,618,618,618,618,618,618,618,618,618,618,618,618,618,618,614,606,597,582,564,523,501,476,454,439,404,395,386,374,362,343,334,322,312,301,271,264,254,241,230,215,212,208,204,200,193,189,185,182,181,178,177,175,175,175,175,167,153,138,125,121,118,117,116,115,114,111,108,104,102,94,90,87,86,84,81],"timestamp_mouse":[14,33,54,74,94,114,134,155,174,194,214,235,255,274,294,314,334,354,374,394,414,435,455,474,494,514,534,555,574,594,615,635,655,673,694,714,734,755,774,794,814,834,855,874,894,915,934,954,974,995,1014,1035,1054,1074,1094,1114,1134,1154,1174,1194,1214,1233,1254,1274,1295,1315,1334,1354,1374,1395,1414,1434,1455,1474,1495,1514,1534,1555,1574,1595,1614,1635,1655,1675,1695,1714,1734,1755,1774,1794,1814,1834,1854,1874,1894,1914],"xSR":741.5,"ySR":573.95,"xT1":424.9,"yT1":0,"xT2":1058.1,"yT2":0,"toosoon":0,"cond_shown":"Congruent","ratio_trial":200,"L_num":6,"L_den":12,"R_num":7,"R_den":10,"correct_side":2,"subjID":"SofiaVargasMora17","gender":"1","school":"6","age":"11"},{"start_time":1551880640639,"click_time":1551880642328,"finger_time":1551880641627,"fix_duration":250,"trial":5,"RT":988,"MT":701,"sideResp":2,"stimulus":[],"xmouse":[787,787,787,787,787,787,787,787,787,787,787,787,787,787,787,787,787,787,787,787,787,787,787,787,787,787,787,787,787,787,787,787,787,787,787,787,787,787,787,787,787,787,787,787,787,786,783,780,775,763,755,741,720,664,648,635,622,615,604,601,601,601,601,612,628,647,668,690,746,785,829,876,923,991,1010,1026,1040,1048,1056,1066,1071,1074,1076,1084,1104],"ymouse":[608,608,608,608,608,608,608,608,608,608,608,608,608,608,608,608,608,608,608,608,608,608,608,608,608,608,608,608,608,608,608,608,608,608,608,608,608,608,608,608,608,608,608,608,608,608,603,595,588,568,555,533,496,382,339,295,261,238,204,194,191,186,179,170,169,168,165,162,147,133,113,88,63,31,21,13,4,0,0,0,0,0,0,0,12],"timestamp_mouse":[9,29,51,69,89,108,129,148,168,188,209,229,248,269,288,308,328,348,368,388,408,428,449,468,488,509,528,548,568,588,608,628,648,668,689,708,729,748,768,788,809,829,848,868,889,908,929,948,968,988,1008,1028,1049,1069,1088,1108,1128,1148,1168,1188,1209,1228,1248,1269,1288,1309,1328,1348,1369,1388,1408,1429,1448,1469,1488,1508,1528,1549,1568,1588,1608,1630,1649,1668,1689],"xSR":741.5,"ySR":573.95,"xT1":424.9,"yT1":0,"xT2":1058.1,"yT2":0,"toosoon":0,"cond_shown":"Incongruent","ratio_trial":200,"L_num":7,"L_den":10,"R_num":8,"R_den":16,"correct_side":1,"subjID":"SofiaVargasMora17","gender":"1","school":"6","age":"11"},{"start_time":1551880646553,"click_time":1551880647788,"finger_time":1551880647187,"fix_duration":1424.5466674292857,"trial":6,"RT":634,"MT":601,"sideResp":1,"stimulus":[],"xmouse":[779,779,779,779,779,779,779,779,779,779,779,779,779,779,779,779,779,779,779,779,779,779,779,779,779,779,779,779,778,770,757,737,708,651,632,619,606,591,580,578,577,576,575,571,570,569,568,562,557,553,550,545,542,539,537,535,532,529,528,527,525,523],"ymouse":[634,634,634,634,634,634,634,634,634,634,634,634,634,634,634,634,634,634,634,634,634,634,634,634,634,634,634,634,627,611,590,559,518,444,420,403,386,363,330,315,303,291,281,255,242,230,215,177,159,146,135,121,112,103,100,97,94,93,93,92,91,91],"timestamp_mouse":[17,33,55,75,95,115,134,154,175,195,215,235,255,274,294,315,335,354,374,395,414,435,454,475,494,515,535,555,574,594,615,634,655,674,694,714,734,755,774,794,815,835,854,874,895,915,934,955,974,994,1014,1035,1055,1074,1095,1115,1134,1154,1174,1194,1214,1235],"xSR":741.5,"ySR":573.95,"xT1":424.9,"yT1":0,"xT2":1058.1,"yT2":0,"toosoon":0,"cond_shown":"Congruent","ratio_trial":300,"L_num":11,"L_den":22,"R_num":2,"R_den":10,"correct_side":1,"subjID":"SofiaVargasMora17","gender":"1","school":"6","age":"11"},{"start_time":1551880650329,"click_time":1551880651567,"finger_time":1551880651048,"fix_duration":1361.423230043134,"trial":7,"RT":719,"MT":519,"sideResp":1,"stimulus":[],"xmouse":[787,787,787,787,787,787,787,787,787,787,787,787,787,787,787,787,787,787,787,787,787,787,787,787,787,787,787,787,787,787,787,787,787,786,780,773,766,750,732,690,676,664,655,650,640,638,636,628,609,599,590,582,576,568,567,564,562,559,546,537,529,521],"ymouse":[618,618,618,618,618,618,618,618,618,618,618,618,618,618,618,618,618,618,618,618,618,618,618,618,618,618,618,618,618,618,618,618,618,615,594,570,550,511,475,399,372,351,333,320,301,297,291,280,251,237,224,212,200,181,175,167,158,148,118,103,87,74],"timestamp_mouse":[19,38,63,79,98,118,138,159,178,198,218,238,259,278,298,319,337,358,378,398,419,437,458,478,498,519,537,558,579,598,618,638,658,679,698,719,739,758,778,799,818,838,859,878,898,919,938,958,979,998,1018,1039,1058,1079,1098,1118,1139,1158,1178,1198,1218,1238],"xSR":741.5,"ySR":573.95,"xT1":424.9,"yT1":0,"xT2":1058.1,"yT2":0,"toosoon":0,"cond_shown":"Incongruent","ratio_trial":100,"L_num":17,"L_den":30,"R_num":10,"R_den":15,"correct_side":2,"subjID":"SofiaVargasMora17","gender":"1","school":"6","age":"11"},{"start_time":1551880653534,"click_time":1551880655627,"finger_time":1551880655247,"fix_duration":724.6950349594584,"trial":8,"RT":1713,"MT":380,"sideResp":1,"stimulus":[],"xmouse":[794,794,794,794,794,794,794,794,794,794,794,794,794,794,794,794,794,794,794,794,794,794,794,794,794,794,794,794,794,794,794,794,794,794,794,794,794,794,794,794,794,794,794,794,794,794,794,794,794,794,794,794,794,794,794,794,794,794,794,794,794,794,794,794,794,794,794,794,794,794,794,794,794,794,794,794,794,794,794,794,794,794,794,794,783,775,766,752,737,729,723,719,716,710,698,691,682,673,644,620,602,580,551,526,489],"ymouse":[619,619,619,619,619,619,619,619,619,619,619,619,619,619,619,619,619,619,619,619,619,619,619,619,619,619,619,619,619,619,619,619,619,619,619,619,619,619,619,619,619,619,619,619,619,619,619,619,619,619,619,619,619,619,619,619,619,619,619,619,619,619,619,619,619,619,619,619,619,619,619,619,619,619,619,619,619,619,619,619,619,619,619,608,580,561,540,504,459,434,410,392,372,348,296,271,243,219,172,143,123,99,78,61,37],"timestamp_mouse":[18,34,54,73,94,113,134,153,173,193,213,233,253,273,293,313,333,353,373,393,414,433,453,472,494,513,533,553,574,594,613,633,654,673,693,713,734,753,774,794,814,834,853,874,893,913,933,954,973,993,1013,1034,1054,1073,1093,1113,1134,1153,1173,1194,1213,1233,1253,1273,1294,1313,1334,1353,1373,1393,1413,1433,1454,1474,1493,1513,1533,1554,1574,1593,1613,1633,1653,1673,1693,1713,1733,1753,1774,1793,1814,1832,1853,1873,1893,1913,1933,1953,1973,1993,2014,2034,2053,2073,2093],"xSR":741.5,"ySR":573.95,"xT1":424.9,"yT1":0,"xT2":1058.1,"yT2":0,"toosoon":0,"cond_shown":"Congruent","ratio_trial":100,"L_num":8,"L_den":16,"R_num":2,"R_den":5,"correct_side":1,"subjID":"SofiaVargasMora17","gender":"1","school":"6","age":"11"},{"start_time":1551880658736,"click_time":1551880659887,"finger_time":1551880659507,"fix_duration":1427.9645161693068,"trial":9,"RT":771,"MT":380,"sideResp":2,"stimulus":[],"xmouse":[795,795,795,795,795,795,795,795,795,795,795,795,795,795,795,795,795,795,795,795,795,795,795,795,795,795,795,795,795,795,795,795,795,795,795,800,804,819,832,867,889,915,942,965,1006,1021,1034,1044,1054,1072,1079,1082,1085,1085,1085,1085,1085,1085],"ymouse":[595,595,595,595,595,595,595,595,595,595,595,595,595,595,595,595,595,595,595,595,595,595,595,595,595,595,595,595,595,595,595,595,595,595,595,596,592,583,573,543,526,506,485,464,429,409,389,372,355,306,280,252,223,193,146,126,107,92],"timestamp_mouse":[11,32,53,72,91,112,132,152,171,191,211,231,251,271,292,311,331,351,372,392,412,431,451,472,491,512,531,552,571,592,612,631,651,672,691,712,731,752,771,792,811,831,852,871,891,911,932,951,971,992,1011,1032,1052,1071,1091,1112,1131,1151],"xSR":741.5,"ySR":573.95,"xT1":424.9,"yT1":0,"xT2":1058.1,"yT2":0,"toosoon":0,"cond_shown":"Incongruent","ratio_trial":100,"L_num":9,"L_den":15,"R_num":14,"R_den":28,"correct_side":1,"subjID":"SofiaVargasMora17","gender":"1","school":"6","age":"11"},{"start_time":1551880661528,"click_time":1551880662967,"finger_time":1551880662507,"fix_duration":359.90161457838366,"trial":10,"RT":979,"MT":460,"sideResp":1,"stimulus":[],"xmouse":[801,801,801,801,801,801,801,801,801,801,801,801,801,801,801,801,801,801,801,801,801,801,801,801,801,801,801,801,801,801,801,801,801,801,801,801,801,801,801,801,801,801,801,801,801,800,798,794,789,781,730,710,696,688,685,685,685,685,685,681,675,670,665,654,623,606,586,572,559,527,516,508,501],"ymouse":[612,612,612,612,612,612,612,612,612,612,612,612,612,612,612,612,612,612,612,612,612,612,612,612,612,612,612,612,612,612,612,612,612,612,612,612,612,612,612,612,612,612,612,612,611,604,596,587,577,559,486,451,431,411,377,361,345,326,305,266,240,223,210,196,170,159,148,139,131,112,104,100,96],"timestamp_mouse":[1,19,39,59,80,99,120,139,159,179,200,220,240,259,280,300,320,340,359,379,400,419,439,460,479,499,519,540,560,580,599,619,639,660,679,700,719,739,759,779,799,819,839,859,879,899,919,940,960,979,999,1020,1039,1059,1080,1099,1119,1140,1159,1179,1199,1219,1240,1260,1279,1299,1320,1340,1359,1380,1399,1419,1439],"xSR":741.5,"ySR":573.95,"xT1":424.9,"yT1":0,"xT2":1058.1,"yT2":0,"toosoon":0,"cond_shown":"Incongruent","ratio_trial":100,"L_num":6,"L_den":12,"R_num":3,"R_den":5,"correct_side":2,"subjID":"SofiaVargasMora17","gender":"1","school":"6","age":"11"},{"start_time":1551880664480,"click_time":1551880666108,"finger_time":1551880665507,"fix_duration":250,"trial":11,"RT":1027,"MT":601,"sideResp":2,"stimulus":[],"xmouse":[796,796,796,796,796,796,796,796,796,796,796,796,796,796,796,796,796,796,796,796,796,796,796,796,796,796,796,796,796,796,796,796,796,796,796,796,796,796,796,796,796,796,796,796,796,796,796,796,799,807,826,842,868,876,884,894,902,932,954,985,1019,1070,1081,1094,1101,1107,1112,1124,1128,1133,1135,1139,1140,1140,1136,1128,1110,1104,1100,1097,1095,1090],"ymouse":[642,642,642,642,642,642,641,640,640,640,640,640,640,640,640,640,640,640,640,640,640,640,640,640,640,640,640,640,640,640,640,640,640,640,640,640,640,640,640,640,640,640,640,640,640,640,640,640,638,637,634,631,620,616,610,601,585,526,487,442,398,335,319,304,294,284,273,243,227,211,198,173,164,152,142,133,116,112,108,105,104,97],"timestamp_mouse":[8,37,47,67,87,107,127,147,168,188,209,227,247,267,288,308,327,347,367,387,408,427,447,468,488,507,527,548,567,587,608,628,647,667,687,708,729,747,767,789,808,828,848,867,887,907,927,948,968,987,1007,1027,1048,1067,1087,1107,1127,1147,1167,1188,1207,1228,1248,1268,1287,1308,1327,1347,1368,1387,1407,1428,1447,1467,1487,1507,1528,1547,1567,1588,1608,1628],"xSR":741.5,"ySR":573.95,"xT1":424.9,"yT1":0,"xT2":1058.1,"yT2":0,"toosoon":0,"cond_shown":"Incongruent","ratio_trial":100,"L_num":3,"L_den":5,"R_num":11,"R_den":22,"correct_side":1,"subjID":"SofiaVargasMora17","gender":"1","school":"6","age":"11"},{"start_time":1551880667480,"click_time":1551880669289,"finger_time":1551880668527,"fix_duration":250,"trial":12,"RT":1047,"MT":762,"sideResp":2,"stimulus":[],"xmouse":[793,793,793,793,793,793,793,793,793,793,793,793,793,793,793,793,793,793,793,793,793,793,793,793,793,793,793,793,793,793,793,793,793,793,793,793,793,793,793,793,793,793,793,793,793,793,793,793,798,801,805,815,821,826,829,831,833,839,843,851,864,876,907,920,928,935,947,953,961,969,975,982,1000,1005,1012,1016,1025,1029,1034,1039,1043,1049,1053,1054,1055,1056,1059,1062,1064,1066,1068],"ymouse":[604,604,604,604,604,604,604,604,604,604,604,604,604,604,604,604,604,604,604,604,604,604,604,604,604,604,604,604,604,604,604,604,604,604,604,604,604,604,604,604,604,604,604,604,604,604,604,604,599,596,591,576,566,560,557,553,550,540,534,523,507,495,464,449,439,428,413,401,387,372,359,345,309,295,278,261,234,221,211,199,186,170,154,147,141,135,123,116,111,102,91],"timestamp_mouse":[10,28,59,67,88,107,128,147,167,187,208,227,249,268,288,307,328,347,367,387,408,427,448,468,488,508,527,547,568,588,607,628,648,667,688,708,727,748,768,787,807,827,847,868,888,907,927,947,968,987,1007,1028,1047,1067,1088,1108,1127,1147,1167,1188,1207,1228,1247,1267,1287,1307,1327,1347,1367,1388,1407,1427,1448,1467,1487,1508,1527,1547,1568,1587,1607,1627,1647,1667,1688,1707,1727,1747,1767,1787,1808],"xSR":741.5,"ySR":573.95,"xT1":424.9,"yT1":0,"xT2":1058.1,"yT2":0,"toosoon":0,"cond_shown":"Congruent","ratio_trial":100,"L_num":7,"L_den":14,"R_num":15,"R_den":25,"correct_side":2,"subjID":"SofiaVargasMora17","gender":"1","school":"6","age":"11"},{"start_time":1551880671244,"click_time":1551880672787,"finger_time":1551880672248,"fix_duration":694.4767109280242,"trial":13,"RT":1004,"MT":539,"sideResp":2,"stimulus":[],"xmouse":[800,800,800,800,800,800,800,800,800,800,800,800,800,800,800,800,800,800,800,800,800,800,800,800,800,800,800,800,800,800,800,800,800,800,800,800,800,800,800,800,800,800,800,800,800,800,800,800,804,827,862,894,920,974,988,1000,1004,1004,1004,1007,1008,1008,1008,1010,1015,1019,1022,1027,1042,1050,1053,1055,1056,1061,1062,1064,1065,1065],"ymouse":[609,609,609,609,609,609,609,609,609,609,609,609,609,609,609,609,609,609,609,609,609,609,609,609,609,609,609,609,609,609,609,609,609,609,609,609,609,609,609,609,609,609,609,609,609,609,609,609,607,590,560,531,508,457,439,418,397,379,365,339,326,315,303,277,260,246,237,224,197,180,168,159,152,139,133,123,111,99],"timestamp_mouse":[5,23,44,63,84,103,123,143,163,183,203,223,243,263,284,303,323,344,363,383,404,423,444,463,483,504,523,543,563,584,603,624,643,663,684,704,724,743,763,784,804,823,844,864,884,904,923,944,964,983,1004,1023,1043,1065,1084,1103,1124,1143,1164,1183,1204,1224,1244,1263,1283,1303,1323,1344,1363,1383,1404,1423,1444,1463,1483,1502,1523,1543],"xSR":741.5,"ySR":573.95,"xT1":424.9,"yT1":0,"xT2":1058.1,"yT2":0,"toosoon":0,"cond_shown":"Congruent","ratio_trial":300,"L_num":8,"L_den":15,"R_num":10,"R_den":12,"correct_side":2,"subjID":"SofiaVargasMora17","gender":"1","school":"6","age":"11"},{"start_time":1551880674231,"click_time":1551880675987,"finger_time":1551880675467,"fix_duration":302.0729424989084,"trial":14,"RT":1236,"MT":520,"sideResp":1,"stimulus":[],"xmouse":[789,789,789,789,789,789,789,789,789,789,789,789,789,789,789,789,789,789,789,789,789,789,789,789,789,789,789,789,789,789,789,789,789,789,789,789,789,789,789,789,789,789,789,789,789,789,789,789,789,789,789,789,789,789,789,789,789,789,789,784,773,760,748,725,702,686,668,651,619,604,592,584,577,566,560,555,551,549,542,535,528,519,508,485,480,474,471,469],"ymouse":[601,601,601,601,601,601,601,601,601,601,601,601,601,601,601,601,601,601,601,601,601,601,601,601,601,601,601,601,601,601,601,601,601,601,601,601,601,601,601,601,601,601,601,601,601,601,601,601,601,601,601,601,601,601,601,601,601,601,602,597,583,565,552,527,497,476,449,427,392,379,369,355,339,298,281,262,243,228,202,189,176,161,145,112,107,102,100,98],"timestamp_mouse":[20,49,57,77,97,116,136,157,177,197,216,237,256,276,297,316,337,356,377,396,417,436,456,476,496,516,537,557,576,597,617,636,656,677,697,716,736,757,778,796,817,836,857,876,897,917,936,957,976,996,1017,1038,1056,1077,1096,1117,1136,1156,1177,1196,1216,1236,1256,1276,1296,1316,1337,1356,1376,1396,1416,1437,1456,1476,1495,1516,1536,1556,1576,1596,1616,1636,1656,1677,1697,1716,1736,1756],"xSR":741.5,"ySR":573.95,"xT1":424.9,"yT1":0,"xT2":1058.1,"yT2":0,"toosoon":0,"cond_shown":"Congruent","ratio_trial":300,"L_num":20,"L_den":25,"R_num":9,"R_den":18,"correct_side":1,"subjID":"SofiaVargasMora17","gender":"1","school":"6","age":"11"},{"start_time":1551880677900,"click_time":1551880679007,"finger_time":1551880678608,"fix_duration":829.7520488913561,"trial":15,"RT":708,"MT":399,"sideResp":2,"stimulus":[],"xmouse":[790,790,790,790,790,790,790,790,790,790,790,790,790,790,790,790,790,790,790,790,790,790,790,790,790,790,790,790,790,790,790,790,794,806,813,835,849,869,896,919,954,982,999,1012,1021,1034,1039,1043,1046,1051,1055,1058,1060,1062,1063,1065],"ymouse":[619,619,619,619,619,619,619,619,619,619,619,619,619,619,619,619,619,619,619,619,619,619,619,619,619,619,619,619,619,619,619,619,613,602,591,564,549,530,505,484,437,404,383,362,341,297,274,255,236,217,179,147,130,116,107,94],"timestamp_mouse":[8,27,48,67,88,107,128,147,167,188,208,227,247,268,289,308,327,347,367,387,408,429,447,467,488,508,527,548,568,587,607,627,647,667,688,708,727,748,767,787,807,827,847,868,888,907,927,947,967,987,1008,1027,1047,1068,1087,1107],"xSR":741.5,"ySR":573.95,"xT1":424.9,"yT1":0,"xT2":1058.1,"yT2":0,"toosoon":0,"cond_shown":"Congruent","ratio_trial":100,"L_num":3,"L_den":20,"R_num":4,"R_den":16,"correct_side":2,"subjID":"SofiaVargasMora17","gender":"1","school":"6","age":"11"},{"start_time":1551880680175,"click_time":1551880681587,"finger_time":1551880680987,"fix_duration":285.4348821469624,"trial":16,"RT":812,"MT":600,"sideResp":1,"stimulus":[],"xmouse":[781,782,782,782,782,782,782,782,782,782,782,782,782,782,782,782,782,782,782,782,782,782,782,782,782,782,782,782,782,782,782,782,782,782,782,782,782,782,777,768,758,723,701,683,670,658,645,639,638,638,638,638,635,630,623,614,599,576,569,566,563,561,557,557,554,552,544,535,533,527,520],"ymouse":[628,628,628,628,628,628,628,628,628,628,628,628,628,628,628,628,628,628,628,628,628,628,628,628,628,628,628,628,628,628,628,628,628,628,628,628,628,622,603,582,559,486,446,415,390,369,343,313,296,274,256,241,208,197,184,169,152,134,129,124,121,116,106,103,97,91,78,68,63,56,49],"timestamp_mouse":[13,48,52,72,93,113,133,153,173,192,212,232,252,272,292,313,333,352,372,393,412,433,452,472,492,513,533,552,573,593,612,632,653,672,692,712,732,752,772,793,812,832,852,872,893,913,933,953,973,992,1012,1032,1052,1072,1092,1112,1132,1152,1172,1192,1212,1232,1252,1273,1293,1313,1332,1353,1372,1393,1412],"xSR":741.5,"ySR":573.95,"xT1":424.9,"yT1":0,"xT2":1058.1,"yT2":0,"toosoon":0,"cond_shown":"Congruent","ratio_trial":200,"L_num":12,"L_den":20,"R_num":6,"R_den":15,"correct_side":1,"subjID":"SofiaVargasMora17","gender":"1","school":"6","age":"11"},{"start_time":1551880683444,"click_time":1551880684848,"finger_time":1551880684287,"fix_duration":733.4276586800381,"trial":17,"RT":843,"MT":561,"sideResp":1,"stimulus":[],"xmouse":[776,776,776,776,776,776,776,776,776,776,776,776,776,776,776,776,776,776,776,776,776,776,776,776,776,776,776,776,776,776,776,776,776,776,776,776,776,776,776,776,774,769,766,745,697,681,665,651,636,609,600,593,589,578,566,564,561,558,552,546,545,543,535,528,514,507,500,493,484,480,478],"ymouse":[605,605,605,605,605,605,605,605,605,605,605,605,605,605,605,605,605,605,605,605,605,605,605,605,605,605,605,605,605,605,605,605,605,605,605,605,605,605,605,605,597,578,569,533,458,429,396,366,328,264,239,221,207,187,172,168,162,159,150,144,143,142,141,137,131,127,121,115,106,101,98],"timestamp_mouse":[8,40,43,64,83,103,123,144,163,183,203,223,244,264,284,304,323,343,363,383,403,424,444,464,484,503,524,544,563,583,604,624,643,664,684,704,724,744,763,783,803,823,843,863,884,903,923,943,963,983,1003,1023,1043,1064,1083,1103,1123,1144,1164,1183,1203,1223,1243,1263,1284,1304,1323,1344,1364,1383,1404],"xSR":741.5,"ySR":573.95,"xT1":424.9,"yT1":0,"xT2":1058.1,"yT2":0,"toosoon":0,"cond_shown":"Congruent","ratio_trial":100,"L_num":10,"L_den":25,"R_num":3,"R_den":10,"correct_side":1,"subjID":"SofiaVargasMora17","gender":"1","school":"6","age":"11"},{"start_time":1551880686689,"click_time":1551880688047,"finger_time":1551880687448,"fix_duration":781.6605863815579,"trial":18,"RT":759,"MT":599,"sideResp":2,"stimulus":[],"xmouse":[787,787,787,787,787,787,787,787,787,787,787,787,787,787,787,787,787,787,787,787,787,787,787,787,787,787,787,787,787,787,787,787,787,787,787,794,819,866,889,909,929,970,982,989,989,994,996,997,997,997,996,994,996,998,1001,1005,1013,1021,1024,1027,1033,1035,1037,1039,1042,1055,1067,1081],"ymouse":[626,626,626,626,626,626,626,626,626,626,626,626,626,626,626,626,626,626,626,626,626,626,626,626,626,626,626,626,626,626,626,626,626,626,626,621,607,584,571,555,533,478,458,436,417,381,361,342,326,302,287,257,247,238,229,219,196,181,175,170,160,158,155,150,145,119,102,84],"timestamp_mouse":[32,38,58,78,98,118,138,158,179,200,219,238,259,278,299,318,338,358,379,398,419,439,458,479,499,518,539,559,578,598,619,639,658,679,699,719,738,759,778,798,818,839,858,879,899,919,938,958,978,998,1018,1039,1058,1079,1099,1118,1138,1159,1179,1199,1219,1238,1258,1279,1298,1319,1338,1358],"xSR":741.5,"ySR":573.95,"xT1":424.9,"yT1":0,"xT2":1058.1,"yT2":0,"toosoon":0,"cond_shown":"Congruent","ratio_trial":100,"L_num":7,"L_den":14,"R_num":15,"R_den":25,"correct_side":2,"subjID":"SofiaVargasMora17","gender":"1","school":"6","age":"11"},{"start_time":1551880689539,"click_time":1551880690987,"finger_time":1551880690547,"fix_duration":250,"trial":19,"RT":1008,"MT":440,"sideResp":2,"stimulus":[],"xmouse":[785,783,783,783,783,783,783,783,783,783,783,783,783,783,783,783,783,783,783,783,783,783,783,783,783,783,783,783,783,783,783,783,783,783,783,783,783,783,783,783,783,783,783,783,783,783,783,783,793,803,816,832,849,877,892,904,914,921,928,942,947,953,961,973,996,1009,1021,1030,1039,1046,1049,1053,1059],"ymouse":[611,613,613,613,613,613,613,613,613,613,613,613,613,613,613,613,613,613,613,613,613,613,613,613,613,613,613,613,613,613,613,613,613,613,613,613,613,613,613,613,613,613,613,613,613,613,613,613,600,583,562,533,498,426,393,364,333,305,278,228,214,197,180,163,130,115,100,92,86,81,80,78,75],"timestamp_mouse":[10,28,54,68,89,108,129,148,168,188,208,229,248,268,288,308,328,348,368,388,409,428,449,468,488,508,529,548,568,588,608,628,648,669,689,709,729,749,768,788,809,828,848,869,889,908,929,949,969,989,1008,1028,1049,1069,1088,1109,1129,1148,1168,1189,1208,1228,1249,1268,1288,1309,1328,1348,1368,1389,1409,1428,1448],"xSR":741.5,"ySR":573.95,"xT1":424.9,"yT1":0,"xT2":1058.1,"yT2":0,"toosoon":0,"cond_shown":"Congruent","ratio_trial":200,"L_num":3,"L_den":10,"R_num":7,"R_den":14,"correct_side":2,"subjID":"SofiaVargasMora17","gender":"1","school":"6","age":"11"},{"start_time":1551880693181,"click_time":1551880694649,"finger_time":1551880693908,"fix_duration":1153.9611180579204,"trial":20,"RT":727,"MT":741,"sideResp":2,"stimulus":[],"xmouse":[778,778,778,778,778,778,778,778,778,778,778,778,778,778,778,778,778,778,778,778,778,778,778,778,778,778,778,778,778,778,778,778,778,778,778,778,778,778,778,778,777,777,777,777,777,777,776,775,775,774,773,773,773,773,774,783,790,812,829,853,885,945,965,981,994,1004,1023,1038,1049,1057,1065,1080,1089,1095],"ymouse":[613,613,613,613,613,613,613,613,613,613,613,613,613,613,613,613,613,613,613,613,613,613,613,613,613,613,613,613,613,613,613,613,613,613,613,612,573,553,528,503,481,451,443,440,438,435,423,419,413,408,405,402,401,401,401,402,404,404,397,384,363,324,310,296,277,260,226,197,178,164,148,115,101,91],"timestamp_mouse":[10,26,46,66,86,106,126,146,167,186,207,227,246,266,287,307,326,346,367,386,406,426,447,467,486,506,527,546,566,586,606,626,647,666,686,707,727,747,767,787,806,826,846,866,887,906,926,947,967,986,1006,1026,1046,1066,1086,1106,1127,1146,1166,1186,1206,1226,1246,1266,1287,1307,1326,1346,1366,1387,1406,1427,1446,1467],"xSR":741.5,"ySR":573.95,"xT1":424.9,"yT1":0,"xT2":1058.1,"yT2":0,"toosoon":0,"cond_shown":"Incongruent","ratio_trial":300,"L_num":4,"L_den":5,"R_num":6,"R_den":12,"correct_side":1,"subjID":"SofiaVargasMora17","gender":"1","school":"6","age":"11"},{"start_time":1551880697064,"click_time":1551880698148,"finger_time":1551880697768,"fix_duration":1136.4367682605873,"trial":21,"RT":704,"MT":380,"sideResp":2,"stimulus":[],"xmouse":[769,769,769,769,769,769,769,769,769,769,769,769,769,769,769,769,769,769,769,769,769,769,769,769,769,769,769,769,769,769,769,769,769,774,812,847,874,892,923,941,955,969,993,1008,1014,1022,1031,1039,1057,1069,1082,1092,1106,1116,1120],"ymouse":[620,620,620,620,620,620,620,620,620,620,620,620,620,620,620,620,620,620,620,620,620,620,620,620,620,620,620,620,620,620,620,620,620,613,589,569,550,532,490,466,445,425,389,356,333,309,290,268,231,207,186,169,143,110,98],"timestamp_mouse":[9,23,44,63,84,103,123,143,163,184,203,224,243,263,284,303,323,343,364,384,403,423,443,463,483,503,524,544,563,583,604,623,643,663,683,704,723,743,763,783,804,823,843,862,884,903,923,943,963,983,1003,1023,1043,1063,1084],"xSR":741.5,"ySR":573.95,"xT1":424.9,"yT1":0,"xT2":1058.1,"yT2":0,"toosoon":0,"cond_shown":"Incongruent","ratio_trial":300,"L_num":4,"L_den":20,"R_num":2,"R_den":4,"correct_side":2,"subjID":"SofiaVargasMora17","gender":"1","school":"6","age":"11"},{"start_time":1551880702053,"click_time":1551880703607,"finger_time":1551880702708,"fix_duration":1482.9894998023858,"trial":22,"RT":655,"MT":899,"sideResp":1,"stimulus":[],"xmouse":[796,796,796,796,796,796,796,796,796,796,796,796,796,796,796,796,796,796,796,796,796,796,796,796,796,796,796,796,796,796,793,791,775,770,765,760,754,741,740,735,726,718,695,674,654,631,601,579,548,541,538,537,537,537,537,537,537,537,537,537,537,537,533,530,527,527,525,525,524,524,523,523,522,519,514,511,505,493],"ymouse":[625,625,625,625,625,625,625,625,625,625,625,625,625,625,625,625,625,625,625,625,625,625,625,625,625,625,625,625,625,622,615,608,569,557,547,535,523,503,499,491,477,462,425,392,365,334,299,274,242,233,230,230,230,230,230,230,230,230,228,221,214,206,184,175,166,162,159,157,156,156,155,155,153,141,133,124,111,85],"timestamp_mouse":[14,36,54,74,95,114,135,154,174,194,214,234,255,275,296,314,334,355,375,395,414,434,455,475,494,515,534,554,574,594,614,634,655,674,694,714,735,754,774,794,815,835,854,874,894,914,934,954,974,994,1014,1035,1056,1074,1094,1114,1135,1155,1174,1194,1215,1235,1255,1274,1294,1314,1334,1354,1375,1394,1414,1435,1454,1475,1494,1514,1534,1554],"xSR":741.5,"ySR":573.95,"xT1":424.9,"yT1":0,"xT2":1058.1,"yT2":0,"toosoon":0,"cond_shown":"Congruent","ratio_trial":200,"L_num":8,"L_den":15,"R_num":2,"R_den":6,"correct_side":1,"subjID":"SofiaVargasMora17","gender":"1","school":"6","age":"11"},{"start_time":1551880705595,"click_time":1551880707547,"finger_time":1551880706907,"fix_duration":786.503638564575,"trial":23,"RT":1312,"MT":640,"sideResp":1,"stimulus":[],"xmouse":[777,777,777,777,777,777,777,777,777,777,777,777,777,777,777,777,777,777,777,777,777,777,777,777,777,777,777,777,777,777,777,777,777,777,777,777,777,777,777,777,777,777,777,777,777,777,777,777,777,777,777,777,777,777,777,777,777,777,777,777,777,777,777,775,773,762,754,745,739,732,718,704,693,685,675,649,634,622,610,597,577,571,563,557,549,537,534,533,532,532,532,532,532,532,532,532,531,524],"ymouse":[616,616,616,616,616,616,616,616,616,616,616,616,616,616,616,616,616,616,616,616,616,616,616,616,616,616,616,616,616,616,616,616,616,616,616,616,616,616,616,616,616,616,616,616,616,616,616,616,616,616,616,616,616,616,616,616,616,616,616,616,616,616,616,606,596,512,445,415,386,357,260,212,180,163,151,119,103,95,85,77,70,67,64,61,59,54,54,53,53,53,53,53,53,53,53,53,53,53],"timestamp_mouse":[13,40,52,72,93,113,133,152,174,192,212,233,252,272,293,312,332,352,372,393,412,432,453,472,492,512,532,552,572,592,612,632,652,672,692,713,732,752,773,792,812,832,853,873,893,913,932,953,972,993,1013,1032,1053,1072,1092,1112,1132,1152,1172,1193,1213,1233,1253,1272,1292,1312,1332,1352,1376,1393,1412,1432,1452,1472,1492,1512,1532,1552,1572,1592,1613,1631,1652,1672,1693,1712,1733,1753,1772,1793,1813,1832,1852,1872,1892,1913,1933,1952],"xSR":741.5,"ySR":573.95,"xT1":424.9,"yT1":0,"xT2":1058.1,"yT2":0,"toosoon":0,"cond_shown":"Congruent","ratio_trial":100,"L_num":11,"L_den":22,"R_num":6,"R_den":15,"correct_side":1,"subjID":"SofiaVargasMora17","gender":"1","school":"6","age":"11"},{"start_time":1551880709906,"click_time":1551880711128,"finger_time":1551880710607,"fix_duration":1315.0138747732217,"trial":24,"RT":701,"MT":521,"sideResp":1,"stimulus":[],"xmouse":[787,787,787,787,787,787,787,787,787,787,787,787,787,787,787,787,787,787,787,787,787,787,787,787,787,787,787,787,787,787,787,787,787,787,787,777,763,749,734,720,700,681,672,666,662,652,645,637,630,618,595,577,568,555,542,520,510,500,494,486,478,475],"ymouse":[599,599,599,599,599,599,599,599,599,599,599,599,599,599,599,599,599,599,599,599,599,599,599,599,599,599,599,599,599,599,599,599,599,599,597,568,542,518,489,464,424,393,376,362,351,327,313,295,281,268,241,216,204,189,174,149,138,130,121,113,101,95],"timestamp_mouse":[8,32,41,61,82,102,121,141,162,181,202,221,242,261,281,302,321,341,361,381,401,421,441,461,481,501,521,542,561,581,601,621,641,662,681,701,721,741,761,782,801,822,841,862,881,902,921,941,961,981,1002,1021,1042,1061,1081,1101,1121,1141,1161,1181,1201,1222],"xSR":741.5,"ySR":573.95,"xT1":424.9,"yT1":0,"xT2":1058.1,"yT2":0,"toosoon":0,"cond_shown":"Incongruent","ratio_trial":100,"L_num":17,"L_den":30,"R_num":10,"R_den":15,"correct_side":2,"subjID":"SofiaVargasMora17","gender":"1","school":"6","age":"11"},{"start_time":1551880712360,"click_time":1551880714027,"finger_time":1551880713547,"fix_duration":250,"trial":25,"RT":1187,"MT":480,"sideResp":2,"stimulus":[],"xmouse":[775,775,775,775,775,775,775,775,775,775,775,775,775,775,775,775,775,775,775,775,775,775,775,775,775,775,775,775,775,775,775,775,775,775,775,775,775,775,775,775,775,775,775,775,775,775,775,775,775,775,775,775,775,775,775,775,777,813,821,846,862,880,920,938,953,965,977,1007,1029,1036,1045,1053,1064,1069,1075,1081,1087,1096,1102,1103,1106,1107,1111,1111],"ymouse":[613,613,613,613,613,613,613,613,613,613,613,613,613,613,613,613,613,613,613,613,613,613,613,613,613,613,613,613,613,613,613,613,613,613,613,613,613,613,613,613,613,613,613,613,613,613,613,613,613,613,613,613,613,613,613,613,612,594,589,573,563,551,514,492,467,440,418,364,312,287,267,251,225,212,199,188,177,157,137,129,124,120,106,96],"timestamp_mouse":[8,27,48,78,87,107,127,147,168,187,207,227,247,267,288,308,327,347,368,387,407,427,447,468,487,507,527,547,567,587,607,627,648,667,687,708,728,748,768,787,807,827,847,867,888,908,927,947,968,988,1008,1027,1048,1068,1088,1107,1128,1148,1167,1187,1207,1227,1247,1267,1287,1308,1327,1347,1367,1387,1407,1427,1447,1467,1488,1507,1528,1547,1568,1587,1607,1628,1647,1667],"xSR":741.5,"ySR":573.95,"xT1":424.9,"yT1":0,"xT2":1058.1,"yT2":0,"toosoon":0,"cond_shown":"Incongruent","ratio_trial":300,"L_num":1,"L_den":2,"R_num":3,"R_den":15,"correct_side":1,"subjID":"SofiaVargasMora17","gender":"1","school":"6","age":"11"},{"start_time":1551880717153,"click_time":1551880718268,"finger_time":1551880717907,"fix_duration":644.4231294478852,"trial":26,"RT":754,"MT":361,"sideResp":2,"stimulus":[],"xmouse":[795,795,795,795,795,795,795,795,795,795,795,795,795,795,795,795,795,795,795,795,795,795,795,795,795,795,795,795,795,795,795,795,795,795,795,795,797,823,845,859,880,905,954,966,976,981,987,996,1003,1008,1014,1020,1036,1043,1051,1061],"ymouse":[634,634,634,634,634,634,634,634,634,634,634,634,634,634,634,634,634,634,634,634,634,634,634,634,634,634,634,634,634,634,634,634,634,634,634,632,626,536,472,435,393,359,301,282,263,246,224,193,175,166,157,149,129,120,112,98],"timestamp_mouse":[15,38,55,74,94,114,135,154,174,194,214,235,254,274,294,314,334,354,374,395,414,434,455,474,494,514,535,554,574,594,615,635,654,675,695,714,734,754,774,794,814,834,854,874,894,914,935,954,975,994,1014,1034,1054,1074,1094,1115],"xSR":741.5,"ySR":573.95,"xT1":424.9,"yT1":0,"xT2":1058.1,"yT2":0,"toosoon":0,"cond_shown":"Congruent","ratio_trial":200,"L_num":5,"L_den":10,"R_num":14,"R_den":20,"correct_side":2,"subjID":"SofiaVargasMora17","gender":"1","school":"6","age":"11"},{"start_time":1551880719861,"click_time":1551880721227,"finger_time":1551880720607,"fix_duration":611.8950418336324,"trial":27,"RT":746,"MT":620,"sideResp":1,"stimulus":[],"xmouse":[791,791,791,791,791,791,791,791,791,791,791,791,791,791,791,791,791,791,791,791,791,791,791,791,791,791,791,791,791,791,791,791,791,791,787,776,766,758,754,752,750,748,742,742,742,742,740,731,726,719,710,700,687,681,674,667,661,646,637,625,613,602,577,572,558,550,542,530,521],"ymouse":[608,608,608,608,608,608,608,608,608,608,608,608,608,608,608,608,608,608,608,608,608,608,608,608,608,608,608,608,608,608,608,608,608,608,606,596,584,561,550,535,518,503,461,444,426,406,386,347,327,312,297,283,265,259,250,244,240,228,221,213,206,198,179,174,158,146,134,106,91],"timestamp_mouse":[13,36,46,66,87,106,126,146,167,186,206,226,247,266,286,306,326,346,367,387,406,427,447,466,487,508,526,546,566,586,607,626,646,667,686,706,726,746,766,787,806,827,846,866,886,906,926,946,966,986,1006,1026,1046,1066,1086,1107,1126,1146,1166,1186,1207,1226,1247,1267,1286,1307,1327,1346,1366],"xSR":741.5,"ySR":573.95,"xT1":424.9,"yT1":0,"xT2":1058.1,"yT2":0,"toosoon":0,"cond_shown":"Congruent","ratio_trial":100,"L_num":11,"L_den":22,"R_num":6,"R_den":15,"correct_side":1,"subjID":"SofiaVargasMora17","gender":"1","school":"6","age":"11"},{"start_time":1551880723358,"click_time":1551880724528,"finger_time":1551880724047,"fix_duration":968.6874082174952,"trial":28,"RT":689,"MT":481,"sideResp":2,"stimulus":[],"xmouse":[771,771,771,771,771,771,771,771,771,771,771,771,771,771,771,771,771,771,771,771,771,771,771,771,771,771,771,771,771,771,771,774,780,821,842,862,881,895,922,929,935,940,953,960,965,969,977,983,1003,1014,1025,1038,1047,1063,1070,1073,1076,1081,1088],"ymouse":[616,616,616,616,616,616,616,616,616,616,616,616,616,616,616,616,616,616,616,616,616,616,616,616,616,616,616,616,616,616,616,616,613,585,569,555,540,527,486,472,454,433,392,369,347,328,298,281,243,222,205,189,178,155,144,139,133,114,84],"timestamp_mouse":[9,29,49,69,89,110,129,149,169,189,210,229,250,270,289,309,328,350,370,390,409,430,450,469,489,509,530,550,569,590,609,629,649,669,689,709,729,749,769,789,809,830,850,869,890,909,929,949,969,988,1009,1029,1049,1069,1089,1109,1130,1150,1169],"xSR":741.5,"ySR":573.95,"xT1":424.9,"yT1":0,"xT2":1058.1,"yT2":0,"toosoon":0,"cond_shown":"Congruent","ratio_trial":300,"L_num":1,"L_den":30,"R_num":8,"R_den":24,"correct_side":2,"subjID":"SofiaVargasMora17","gender":"1","school":"6","age":"11"},{"start_time":1551880726120,"click_time":1551880728407,"finger_time":1551880727727,"fix_duration":589.004992784459,"trial":29,"RT":1607,"MT":680,"sideResp":1,"stimulus":[],"xmouse":[765,765,765,765,765,765,765,765,765,765,765,765,765,765,765,765,765,765,765,765,765,765,765,765,765,765,765,765,765,765,765,765,765,765,765,765,765,765,765,765,765,765,765,765,765,765,765,765,765,765,765,765,765,765,765,765,765,765,765,765,765,765,765,765,765,765,765,765,765,765,765,765,765,770,789,802,811,819,827,830,836,839,841,844,847,855,856,857,858,859,854,849,843,838,834,819,810,798,783,759,692,640,599,560,532,501,488,475,470,464,464,464,464,464,468],"ymouse":[612,612,612,612,612,612,612,612,612,612,612,612,612,612,612,612,612,612,612,612,612,612,612,612,612,612,612,612,612,612,612,612,612,612,612,612,612,612,612,612,612,612,612,612,612,612,612,612,612,612,612,612,612,612,612,612,612,612,612,612,612,612,612,612,612,612,612,612,612,612,612,612,612,611,600,593,587,583,575,574,563,561,558,552,546,531,527,520,513,505,482,471,458,441,422,382,364,344,325,299,251,225,201,179,166,147,138,131,128,124,121,117,111,104,95],"timestamp_mouse":[14,38,47,67,87,107,127,147,167,187,207,228,247,267,287,307,327,347,367,387,407,427,447,467,487,508,527,547,567,588,608,627,647,667,688,707,727,747,768,787,807,828,848,867,887,907,927,948,967,987,1008,1027,1047,1067,1088,1108,1127,1146,1167,1188,1207,1227,1248,1267,1287,1307,1327,1347,1368,1388,1407,1428,1448,1467,1488,1507,1528,1548,1567,1587,1607,1627,1647,1668,1687,1707,1727,1747,1768,1787,1808,1827,1847,1867,1888,1907,1927,1947,1967,1987,2008,2027,2048,2067,2087,2107,2127,2147,2167,2188,2207,2227,2247,2268,2287],"xSR":741.5,"ySR":573.95,"xT1":424.9,"yT1":0,"xT2":1058.1,"yT2":0,"toosoon":0,"cond_shown":"Incongruent","ratio_trial":300,"L_num":4,"L_den":20,"R_num":2,"R_den":4,"correct_side":2,"subjID":"SofiaVargasMora17","gender":"1","school":"6","age":"11"},{"start_time":1551880729959,"click_time":1551880731387,"finger_time":1551880731127,"fix_duration":250,"trial":30,"RT":1168,"MT":260,"sideResp":1,"stimulus":[],"xmouse":[793,793,793,793,793,793,793,793,793,793,793,793,793,793,793,793,793,793,793,793,793,793,793,793,793,793,793,793,793,793,793,793,793,793,793,793,793,793,793,793,793,793,793,793,793,793,793,793,793,793,793,793,792,791,790,788,785,784,777,772,766,756,741,690,662,637,610,565,548,529,508,491],"ymouse":[624,624,624,624,624,624,624,624,624,624,624,624,624,624,624,624,624,624,624,624,624,624,624,624,624,624,624,624,624,624,624,624,624,624,624,624,624,624,624,624,624,624,624,624,624,624,624,623,623,622,621,619,618,609,604,599,592,588,564,552,536,515,489,411,372,334,293,225,194,153,107,78],"timestamp_mouse":[8,36,49,68,89,108,129,148,168,189,209,229,248,268,288,308,329,349,368,388,409,428,449,468,488,508,528,548,568,589,609,629,648,669,689,709,728,749,768,788,809,829,848,869,888,908,928,948,968,988,1009,1028,1048,1068,1088,1108,1128,1148,1168,1188,1208,1228,1248,1268,1289,1307,1328,1349,1368,1388,1409,1428],"xSR":741.5,"ySR":573.95,"xT1":424.9,"yT1":0,"xT2":1058.1,"yT2":0,"toosoon":0,"cond_shown":"Congruent","ratio_trial":300,"L_num":11,"L_den":22,"R_num":2,"R_den":10,"correct_side":1,"subjID":"SofiaVargasMora17","gender":"1","school":"6","age":"11"},{"start_time":1551880732857,"click_time":1551880734467,"finger_time":1551880733928,"fix_duration":269.5132534281639,"trial":31,"RT":1071,"MT":539,"sideResp":2,"stimulus":[],"xmouse":[790,790,790,790,790,790,790,790,790,790,790,790,790,790,790,790,790,790,790,790,790,790,790,790,790,790,790,790,790,790,790,790,790,790,790,790,790,790,790,790,790,790,790,790,790,790,790,790,790,790,790,796,835,855,879,903,926,965,976,986,993,999,1014,1021,1027,1033,1037,1041,1049,1050,1050,1050,1053,1066,1069,1072,1078,1089,1100,1107,1117],"ymouse":[622,622,622,622,622,622,622,622,622,622,622,622,622,622,622,622,622,622,622,622,622,622,622,622,622,622,622,622,622,622,622,622,622,622,622,622,622,622,622,622,622,622,622,622,622,622,622,622,622,622,622,618,599,588,574,560,543,501,480,457,439,421,369,343,322,306,292,279,256,243,233,225,219,198,193,184,171,140,121,106,87],"timestamp_mouse":[12,30,50,70,91,110,130,150,171,190,210,231,250,270,290,311,331,351,370,391,410,430,450,470,490,510,530,551,570,590,610,631,650,670,691,710,731,751,769,790,811,831,850,871,890,911,931,950,970,990,1010,1030,1050,1071,1090,1111,1130,1151,1170,1191,1210,1231,1250,1270,1290,1310,1331,1350,1370,1390,1410,1430,1450,1471,1490,1510,1530,1551,1570,1591,1610],"xSR":741.5,"ySR":573.95,"xT1":424.9,"yT1":0,"xT2":1058.1,"yT2":0,"toosoon":0,"cond_shown":"Incongruent","ratio_trial":300,"L_num":13,"L_den":26,"R_num":12,"R_den":15,"correct_side":2,"subjID":"SofiaVargasMora17","gender":"1","school":"6","age":"11"},{"start_time":1551880736328,"click_time":1551880738447,"finger_time":1551880738007,"fix_duration":818.8288277987936,"trial":32,"RT":1679,"MT":440,"sideResp":2,"stimulus":[],"xmouse":[781,781,781,781,781,781,781,781,781,781,781,781,781,781,781,781,781,781,781,781,781,781,781,781,781,781,781,781,781,781,781,781,781,781,781,781,781,781,781,781,781,781,781,781,781,781,781,781,781,781,781,781,781,781,781,781,781,781,781,781,781,781,781,781,781,781,781,781,781,781,781,781,781,781,781,781,781,781,781,781,781,781,781,789,844,879,907,930,946,985,994,999,1000,1000,1000,1000,1000,1002,1004,1013,1023,1029,1033,1041,1062,1074,1084],"ymouse":[624,624,624,624,624,624,624,624,624,624,624,624,624,624,624,624,624,624,624,624,624,624,624,624,624,624,624,624,624,624,624,624,624,624,624,624,624,624,624,624,624,624,624,624,624,624,624,624,624,624,624,624,624,624,624,624,624,624,624,624,624,624,624,624,624,624,624,624,624,624,624,624,624,624,624,624,624,624,624,624,624,624,623,615,550,514,486,463,447,395,378,362,346,330,293,273,258,249,240,223,208,198,190,177,138,119,98],"timestamp_mouse":[1,19,41,59,80,100,120,139,160,179,199,219,239,259,279,299,319,340,359,380,399,420,440,460,480,500,520,539,560,579,599,619,640,659,680,700,719,740,760,779,799,819,839,860,879,900,919,939,959,979,1000,1019,1039,1059,1080,1099,1120,1139,1160,1179,1199,1219,1240,1259,1279,1300,1320,1340,1360,1379,1399,1419,1439,1459,1480,1499,1520,1540,1560,1579,1599,1619,1638,1659,1679,1699,1720,1740,1760,1780,1798,1819,1839,1859,1880,1899,1919,1939,1959,1979,2000,2019,2040,2060,2079,2098,2118],"xSR":741.5,"ySR":573.95,"xT1":424.9,"yT1":0,"xT2":1058.1,"yT2":0,"toosoon":0,"cond_shown":"Congruent","ratio_trial":100,"L_num":15,"L_den":25,"R_num":13,"R_den":26,"correct_side":1,"subjID":"SofiaVargasMora17","gender":"1","school":"6","age":"11"},{"start_time":1551880740893,"click_time":1551880742067,"finger_time":1551880741608,"fix_duration":1204.1093267620017,"trial":33,"RT":715,"MT":459,"sideResp":1,"stimulus":[],"xmouse":[775,775,775,775,775,775,775,775,775,775,775,775,775,775,775,775,775,775,775,775,775,775,775,775,775,775,775,775,775,775,775,775,774,771,764,749,740,727,703,675,632,585,573,560,547,530,522,516,509,498,487,472,467,467,467,467,466,466,466],"ymouse":[607,607,607,607,607,607,607,607,607,607,608,615,617,618,618,618,618,618,618,618,618,620,620,620,620,620,620,620,620,620,620,620,619,611,597,560,536,494,433,368,272,166,126,89,57,16,0,0,0,0,0,0,0,0,0,0,0,0,2],"timestamp_mouse":[22,36,55,74,93,115,135,154,175,195,214,235,254,274,294,314,335,354,374,394,414,434,454,475,494,514,534,554,575,594,614,634,654,674,694,715,734,754,774,795,815,835,855,874,894,915,934,954,974,995,1015,1034,1055,1075,1094,1114,1135,1154,1174],"xSR":741.5,"ySR":573.95,"xT1":424.9,"yT1":0,"xT2":1058.1,"yT2":0,"toosoon":0,"cond_shown":"Incongruent","ratio_trial":300,"L_num":4,"L_den":5,"R_num":6,"R_den":12,"correct_side":1,"subjID":"SofiaVargasMora17","gender":"1","school":"6","age":"11"},{"start_time":1551880744595,"click_time":1551880746447,"finger_time":1551880745288,"fix_duration":1266.5590556050822,"trial":34,"RT":693,"MT":1159,"sideResp":1,"stimulus":[],"xmouse":[778,778,778,778,778,778,778,778,778,778,778,778,778,778,778,778,778,778,778,778,778,778,778,778,778,778,778,778,778,778,780,786,794,808,838,881,898,910,917,921,922,922,922,922,922,922,922,922,922,922,922,922,922,922,922,922,922,922,922,922,922,922,922,922,922,920,918,915,910,897,879,821,796,764,726,715,670,655,643,629,603,589,581,577,575,568,556,554,550,543,534,526,523],"ymouse":[596,596,596,596,596,596,596,596,596,596,596,596,596,596,596,596,596,596,596,596,596,596,596,596,596,596,596,596,596,596,596,596,588,577,553,518,503,490,483,477,477,477,477,477,477,477,475,473,472,472,472,472,472,472,472,472,472,472,471,470,468,466,465,465,464,464,464,463,461,454,444,412,393,377,359,352,316,304,293,282,262,252,244,241,235,224,191,180,167,151,117,97,86],"timestamp_mouse":[13,33,52,72,92,112,133,152,172,192,212,232,253,273,293,312,333,353,372,392,412,432,453,472,492,512,533,552,572,592,613,632,652,672,693,712,732,752,772,792,813,833,853,872,893,913,932,953,972,992,1013,1032,1052,1073,1092,1112,1132,1152,1172,1192,1212,1231,1252,1272,1292,1313,1332,1352,1372,1392,1412,1432,1452,1473,1493,1512,1532,1552,1572,1592,1613,1632,1652,1672,1693,1712,1732,1752,1772,1792,1813,1832,1852],"xSR":741.5,"ySR":573.95,"xT1":424.9,"yT1":0,"xT2":1058.1,"yT2":0,"toosoon":0,"cond_shown":"Incongruent","ratio_trial":200,"L_num":1,"L_den":3,"R_num":2,"R_den":15,"correct_side":1,"subjID":"SofiaVargasMora17","gender":"1","school":"6","age":"11"},{"start_time":1551880748235,"click_time":1551880750407,"finger_time":1551880749987,"fix_duration":826.3150327952312,"trial":35,"RT":1752,"MT":420,"sideResp":1,"stimulus":[],"xmouse":[784,784,784,784,784,784,784,784,784,784,784,784,784,784,784,784,784,784,784,784,784,784,784,784,784,784,784,784,784,784,784,784,784,784,784,784,784,784,784,784,784,784,784,784,784,784,784,784,784,784,784,784,784,784,784,784,784,784,784,784,784,784,784,784,784,784,784,784,784,784,784,784,784,784,784,784,784,784,784,783,783,784,786,787,788,788,788,788,780,772,760,740,725,698,661,646,631,622,612,609,607,604,600,594,566,558,544,530,516],"ymouse":[613,613,613,613,613,613,613,613,613,613,613,613,613,613,613,613,613,613,613,613,613,613,613,613,613,613,613,613,613,613,613,613,613,613,613,613,613,613,613,613,613,613,613,613,613,613,613,613,613,613,613,613,613,613,613,613,613,613,613,613,613,613,613,613,613,613,613,613,613,613,613,613,613,613,613,613,613,613,613,613,610,609,605,598,593,588,579,563,515,482,440,397,368,316,252,224,200,184,165,162,158,154,146,139,109,103,93,86,80],"timestamp_mouse":[13,39,52,72,92,111,133,153,173,193,213,232,252,273,292,312,332,353,372,392,412,431,453,473,492,513,533,553,572,592,613,633,653,672,693,713,733,752,771,793,813,832,852,872,893,913,933,952,973,993,1013,1032,1052,1073,1092,1112,1133,1152,1172,1192,1212,1232,1252,1273,1292,1312,1332,1352,1372,1392,1412,1432,1452,1473,1492,1512,1532,1552,1573,1592,1612,1632,1653,1673,1693,1712,1732,1752,1773,1792,1812,1833,1853,1872,1892,1912,1933,1952,1973,1992,2012,2032,2053,2073,2093,2112,2132,2152,2172],"xSR":741.5,"ySR":573.95,"xT1":424.9,"yT1":0,"xT2":1058.1,"yT2":0,"toosoon":0,"cond_shown":"Congruent","ratio_trial":100,"L_num":3,"L_den":6,"R_num":2,"R_den":5,"correct_side":1,"subjID":"SofiaVargasMora17","gender":"1","school":"6","age":"11"},{"start_time":1551880752953,"click_time":1551880754888,"finger_time":1551880754368,"fix_duration":1484.837232351693,"trial":36,"RT":1415,"MT":520,"sideResp":1,"stimulus":[],"xmouse":[773,773,773,773,773,773,773,773,773,773,773,773,773,773,773,773,773,773,773,773,773,773,773,773,773,773,773,773,773,773,773,773,773,773,773,773,773,773,773,773,773,773,773,773,773,773,773,773,773,773,773,775,776,778,778,778,778,778,778,778,778,778,778,778,778,778,778,778,778,776,771,766,758,723,699,681,671,661,650,647,646,646,644,637,633,627,619,590,578,568,560,554,551,540,534,529,524],"ymouse":[627,627,627,627,627,627,627,627,627,627,627,627,627,627,627,627,627,627,627,627,627,627,627,627,627,627,627,627,627,627,627,627,627,627,627,627,627,627,627,627,627,627,627,627,627,627,627,627,627,627,627,625,620,610,609,609,609,609,609,609,609,609,609,609,609,609,609,605,591,577,562,544,517,390,308,233,165,103,60,45,39,35,32,30,30,30,30,30,30,30,30,30,30,29,29,29,29],"timestamp_mouse":[14,39,54,75,94,115,135,155,175,194,215,235,255,274,294,314,334,355,374,395,414,435,455,475,494,514,535,555,574,594,614,634,655,675,695,715,734,755,774,794,814,834,855,874,895,915,935,954,974,994,1014,1033,1055,1074,1094,1113,1135,1154,1174,1194,1214,1235,1254,1274,1294,1315,1335,1354,1375,1394,1415,1434,1455,1474,1494,1514,1533,1554,1574,1594,1613,1634,1654,1674,1695,1715,1734,1755,1774,1794,1814,1834,1854,1874,1894,1914,1935],"xSR":741.5,"ySR":573.95,"xT1":424.9,"yT1":0,"xT2":1058.1,"yT2":0,"toosoon":0,"cond_shown":"Incongruent","ratio_trial":300,"L_num":2,"L_den":4,"R_num":6,"R_den":30,"correct_side":1,"subjID":"SofiaVargasMora17","gender":"1","school":"6","age":"11"},{"start_time":1551880757380,"click_time":1551880759108,"finger_time":1551880758627,"fix_duration":1451.0569328841218,"trial":37,"RT":1247,"MT":481,"sideResp":1,"stimulus":[],"xmouse":[800,800,800,800,800,800,800,800,800,800,800,800,800,800,800,800,800,800,800,800,800,800,800,800,800,800,800,800,800,800,800,800,800,800,800,800,800,800,800,800,800,800,800,800,800,800,800,800,800,800,800,800,800,800,800,800,800,800,798,794,789,779,774,766,758,749,742,713,706,702,696,680,665,651,636,625,599,586,577,570,563,548,537,531,524,517,507],"ymouse":[636,636,636,636,636,636,636,636,636,636,636,636,636,636,636,636,636,636,636,636,636,636,636,636,636,636,636,636,636,636,636,636,636,636,636,636,636,636,636,636,636,636,636,636,636,636,636,636,636,636,636,636,636,636,636,636,636,636,633,625,611,580,562,544,523,502,477,404,375,346,308,241,216,198,188,185,174,170,167,162,158,146,137,131,124,115,86],"timestamp_mouse":[9,43,47,68,87,108,128,147,167,188,207,227,247,268,287,307,327,347,367,387,407,427,447,467,488,507,527,547,567,587,607,627,647,667,688,707,728,747,768,787,807,827,847,867,887,907,928,947,967,988,1007,1027,1047,1067,1087,1107,1128,1147,1167,1187,1207,1227,1247,1267,1287,1308,1327,1348,1367,1387,1407,1427,1447,1468,1488,1507,1528,1547,1567,1587,1607,1628,1647,1667,1687,1707,1728],"xSR":741.5,"ySR":573.95,"xT1":424.9,"yT1":0,"xT2":1058.1,"yT2":0,"toosoon":0,"cond_shown":"Congruent","ratio_trial":100,"L_num":1,"L_den":2,"R_num":3,"R_den":5,"correct_side":2,"subjID":"SofiaVargasMora17","gender":"1","school":"6","age":"11"},{"start_time":1551880760598,"click_time":1551880762408,"finger_time":1551880762127,"fix_duration":250,"trial":38,"RT":1529,"MT":281,"sideResp":2,"stimulus":[],"xmouse":[754,755,762,764,768,774,774,774,774,774,774,774,774,774,774,774,774,774,774,774,774,774,774,774,774,774,774,774,774,774,774,774,774,774,774,774,774,774,774,774,774,774,774,774,774,774,775,777,780,781,781,781,781,781,781,781,781,781,781,781,781,781,781,781,781,781,781,781,781,781,781,781,781,781,787,814,850,872,899,932,996,1019,1036,1050,1059,1069,1071,1073,1076,1078,1087],"ymouse":[599,599,601,601,602,602,602,602,602,602,602,602,602,602,602,602,602,602,602,602,602,602,602,602,602,602,602,602,602,602,602,602,602,602,602,602,602,602,602,602,602,602,602,602,602,602,602,602,599,598,598,598,598,598,598,598,598,598,598,598,598,598,598,598,598,598,598,598,598,598,598,598,598,598,594,577,551,531,506,471,378,333,302,273,248,201,165,142,121,107,85],"timestamp_mouse":[11,40,49,69,89,109,129,149,169,190,209,230,248,269,290,309,329,349,369,389,410,429,450,470,490,510,529,550,570,589,609,630,650,670,689,710,730,750,770,790,809,829,850,870,890,910,930,949,970,989,1010,1029,1049,1069,1089,1109,1129,1150,1170,1190,1210,1229,1249,1270,1290,1310,1328,1350,1370,1390,1410,1429,1449,1470,1489,1509,1529,1549,1569,1589,1609,1629,1649,1669,1689,1709,1729,1748,1769,1788,1810],"xSR":741.5,"ySR":573.95,"xT1":424.9,"yT1":0,"xT2":1058.1,"yT2":0,"toosoon":0,"cond_shown":"Incongruent","ratio_trial":300,"L_num":4,"L_den":20,"R_num":2,"R_den":4,"correct_side":2,"subjID":"SofiaVargasMora17","gender":"1","school":"6","age":"11"},{"start_time":1551880763719,"click_time":1551880765208,"finger_time":1551880764787,"fix_duration":250,"trial":39,"RT":1068,"MT":421,"sideResp":1,"stimulus":[],"xmouse":[774,775,776,776,779,779,779,779,779,779,779,779,779,779,779,779,779,779,779,779,779,779,779,779,779,779,779,779,779,779,779,779,779,779,779,779,779,779,779,779,779,779,779,779,779,779,779,779,779,779,779,779,772,762,740,722,705,691,682,671,671,669,667,664,656,650,642,631,619,585,563,547,538,529,512],"ymouse":[638,636,634,634,631,631,631,631,631,631,631,631,631,631,631,631,631,631,631,631,631,631,631,631,631,631,631,631,631,631,631,631,631,631,631,631,631,631,631,631,631,631,631,631,631,631,631,631,631,631,631,623,597,571,529,498,469,446,432,411,402,389,378,367,350,339,327,309,287,228,189,156,131,114,91],"timestamp_mouse":[12,28,55,68,88,108,128,148,169,188,208,229,247,268,289,308,329,348,368,389,408,428,449,469,489,508,528,549,568,589,608,628,648,669,687,709,728,749,767,787,808,829,848,869,887,908,928,948,969,988,1009,1028,1049,1068,1088,1108,1128,1148,1169,1189,1209,1229,1248,1268,1288,1307,1329,1348,1369,1389,1408,1428,1448,1468,1488],"xSR":741.5,"ySR":573.95,"xT1":424.9,"yT1":0,"xT2":1058.1,"yT2":0,"toosoon":0,"cond_shown":"Incongruent","ratio_trial":200,"L_num":7,"L_den":10,"R_num":12,"R_den":24,"correct_side":1,"subjID":"SofiaVargasMora17","gender":"1","school":"6","age":"11"},{"start_time":1551880767640,"click_time":1551880769187,"finger_time":1551880768807,"fix_duration":1452.9308014311882,"trial":40,"RT":1167,"MT":380,"sideResp":2,"stimulus":[],"xmouse":[790,790,790,790,790,790,790,790,790,790,790,790,790,790,790,790,790,790,790,790,790,790,790,790,790,790,790,790,790,790,790,790,790,790,790,790,790,790,790,790,790,790,790,790,790,790,790,790,790,790,790,790,790,790,803,810,815,827,876,909,938,956,967,988,1014,1024,1025,1025,1027,1030,1032,1032,1032,1032,1034,1038,1048,1061],"ymouse":[640,640,640,640,640,640,640,640,640,640,640,640,640,640,640,640,640,640,640,640,640,640,640,640,640,640,640,640,640,640,640,640,640,640,640,640,640,640,640,640,640,640,640,640,640,640,640,640,640,640,640,640,640,640,636,633,630,626,600,578,556,536,513,455,395,337,287,238,158,131,109,95,86,82,76,76,80,91],"timestamp_mouse":[8,34,48,68,87,107,127,147,167,188,207,228,247,267,287,308,328,348,368,387,407,427,447,468,487,508,528,546,567,587,607,627,648,668,687,707,727,748,768,788,808,827,847,868,887,907,927,948,967,988,1008,1027,1048,1067,1088,1107,1127,1148,1167,1186,1207,1227,1248,1267,1287,1307,1328,1348,1367,1387,1407,1427,1447,1467,1488,1507,1527,1547],"xSR":741.5,"ySR":573.95,"xT1":424.9,"yT1":0,"xT2":1058.1,"yT2":0,"toosoon":0,"cond_shown":"Incongruent","ratio_trial":100,"L_num":13,"L_den":26,"R_num":12,"R_den":20,"correct_side":2,"subjID":"SofiaVargasMora17","gender":"1","school":"6","age":"11"},{"start_time":1551880771590,"click_time":1551880773027,"finger_time":1551880772347,"fix_duration":1381.0801715899236,"trial":41,"RT":757,"MT":680,"sideResp":2,"stimulus":[],"xmouse":[783,783,783,783,783,783,783,783,783,783,783,783,783,783,783,783,783,783,783,783,783,783,783,783,783,783,783,783,783,783,783,783,783,783,786,803,813,818,821,822,823,823,823,824,824,826,828,829,830,831,834,838,850,869,894,927,988,1007,1022,1030,1036,1036,1036,1036,1036,1038,1042,1045,1049,1053,1065,1072],"ymouse":[608,608,608,608,608,608,608,608,608,608,608,608,608,608,608,608,608,608,608,608,605,603,601,599,597,597,597,597,597,597,597,597,597,596,593,583,577,573,571,569,567,565,562,559,557,553,547,545,544,541,536,531,517,497,468,426,333,297,268,248,226,214,206,196,187,171,160,154,146,136,109,92],"timestamp_mouse":[17,48,57,78,98,117,137,157,178,198,217,238,257,277,297,318,337,357,377,397,417,437,456,478,497,517,538,557,578,597,617,637,658,677,698,717,738,757,778,797,817,837,858,878,898,917,937,957,978,997,1017,1037,1057,1077,1097,1117,1136,1157,1178,1197,1217,1237,1258,1278,1298,1317,1337,1357,1377,1397,1417,1437],"xSR":741.5,"ySR":573.95,"xT1":424.9,"yT1":0,"xT2":1058.1,"yT2":0,"toosoon":0,"cond_shown":"Congruent","ratio_trial":300,"L_num":5,"L_den":25,"R_num":6,"R_den":12,"correct_side":2,"subjID":"SofiaVargasMora17","gender":"1","school":"6","age":"11"},{"start_time":1551880774517,"click_time":1551880776347,"finger_time":1551880776007,"fix_duration":769.3438448886056,"trial":42,"RT":1490,"MT":340,"sideResp":1,"stimulus":[],"xmouse":[783,783,783,783,783,783,783,783,783,783,783,783,783,783,783,783,783,783,783,783,783,783,783,783,783,783,783,783,783,783,783,783,783,783,783,783,783,783,783,783,783,783,783,783,783,783,783,783,783,783,783,783,783,783,783,783,783,783,783,783,783,783,783,783,783,783,783,783,783,783,783,783,783,780,762,749,736,727,720,707,699,692,685,676,657,645,629,613,601,561,544,486],"ymouse":[611,611,611,611,611,611,611,611,611,611,611,611,611,611,611,611,611,611,611,611,611,611,611,611,611,611,611,611,611,611,611,611,611,611,611,611,611,611,611,611,611,611,611,611,611,611,611,611,611,611,611,611,611,611,611,611,611,611,611,611,611,611,611,612,612,612,612,612,612,612,612,612,607,595,511,467,426,404,387,370,361,352,345,333,310,292,271,250,229,158,138,80],"timestamp_mouse":[10,37,50,71,90,110,131,151,170,190,210,231,250,271,291,310,331,350,371,390,410,430,450,470,490,510,530,551,571,590,610,630,650,670,690,710,730,750,770,791,810,831,850,871,891,910,930,951,971,990,1010,1030,1050,1070,1091,1110,1130,1150,1170,1191,1211,1230,1250,1271,1291,1310,1330,1350,1371,1390,1410,1430,1450,1471,1490,1510,1529,1550,1571,1590,1611,1630,1651,1670,1689,1709,1731,1750,1770,1791,1811,1830],"xSR":741.5,"ySR":573.95,"xT1":424.9,"yT1":0,"xT2":1058.1,"yT2":0,"toosoon":0,"cond_shown":"Congruent","ratio_trial":100,"L_num":1,"L_den":2,"R_num":18,"R_den":30,"correct_side":2,"subjID":"SofiaVargasMora17","gender":"1","school":"6","age":"11"},{"start_time":1551880778249,"click_time":1551880779507,"finger_time":1551880778967,"fix_duration":461.0222249806284,"trial":43,"RT":718,"MT":540,"sideResp":2,"stimulus":[],"xmouse":[759,759,759,759,759,759,759,759,759,759,759,759,759,759,759,759,759,759,759,759,759,759,759,759,759,759,759,759,759,759,759,759,759,759,759,765,793,875,895,913,932,952,990,1010,1022,1033,1039,1041,1041,1040,1037,1033,1033,1036,1041,1045,1048,1054,1056,1059,1062,1066,1070],"ymouse":[575,575,575,575,575,575,575,575,575,575,575,575,575,575,575,575,575,575,575,575,575,575,575,575,575,575,575,575,575,575,575,575,575,575,575,573,561,521,509,491,469,444,396,366,344,323,304,262,244,226,207,189,173,149,138,132,129,122,118,115,108,103,90],"timestamp_mouse":[18,47,59,78,98,119,139,159,177,199,218,238,259,278,299,318,338,359,379,397,418,439,458,478,498,518,538,558,578,599,618,639,658,679,698,718,738,758,778,798,818,838,858,877,898,919,938,958,978,998,1018,1038,1058,1079,1098,1118,1138,1157,1177,1199,1218,1239,1258],"xSR":741.5,"ySR":573.95,"xT1":424.9,"yT1":0,"xT2":1058.1,"yT2":0,"toosoon":0,"cond_shown":"Congruent","ratio_trial":200,"L_num":3,"L_den":10,"R_num":14,"R_den":28,"correct_side":2,"subjID":"SofiaVargasMora17","gender":"1","school":"6","age":"11"},{"start_time":1551880783195,"click_time":1551880784527,"finger_time":1551880783987,"fix_duration":1248.4149827748072,"trial":44,"RT":792,"MT":540,"sideResp":1,"stimulus":[],"xmouse":[766,766,766,766,766,766,766,766,766,766,766,766,766,766,766,766,766,766,766,766,766,766,766,766,766,766,766,766,766,766,766,766,766,766,766,766,774,785,786,786,781,779,777,775,771,760,753,742,736,731,717,706,696,685,670,633,608,595,584,574,566,563,558,552,545,530,519],"ymouse":[634,634,634,634,634,634,634,634,634,634,634,634,634,634,634,634,634,634,634,634,634,634,634,634,634,634,634,634,634,634,634,634,634,634,634,634,627,600,580,564,526,502,479,455,430,385,362,326,309,294,269,254,242,228,213,181,160,147,136,124,108,96,87,75,66,57,57],"timestamp_mouse":[12,38,52,71,93,111,131,152,171,191,212,232,251,272,291,311,332,352,372,391,412,432,452,471,493,512,531,551,571,591,611,632,651,672,692,711,731,751,772,792,811,831,852,871,892,911,932,951,972,991,1012,1031,1051,1071,1091,1111,1131,1151,1172,1191,1211,1231,1252,1271,1292,1311,1331],"xSR":741.5,"ySR":573.95,"xT1":424.9,"yT1":0,"xT2":1058.1,"yT2":0,"toosoon":0,"cond_shown":"Congruent","ratio_trial":200,"L_num":9,"L_den":20,"R_num":4,"R_den":16,"correct_side":1,"subjID":"SofiaVargasMora17","gender":"1","school":"6","age":"11"},{"start_time":1551880787828,"click_time":1551880789306,"finger_time":1551880788727,"fix_duration":880.1511853572393,"trial":45,"RT":899,"MT":579,"sideResp":2,"stimulus":[],"xmouse":[797,797,797,797,797,797,797,797,797,797,797,797,797,797,797,797,797,797,797,797,797,797,797,797,797,797,797,797,797,797,797,797,797,797,797,797,797,797,797,797,798,802,811,819,880,936,949,957,966,968,968,969,971,982,990,997,1000,1003,1010,1014,1019,1024,1028,1031,1031,1033,1033,1034,1040,1048,1055,1061,1070,1095],"ymouse":[626,626,626,626,626,626,626,626,626,626,626,626,626,626,626,626,626,626,626,626,626,626,626,626,626,626,626,626,626,626,626,626,626,626,626,626,626,626,626,626,622,618,602,584,496,408,373,356,332,326,322,316,309,289,278,267,262,257,230,213,202,186,175,154,150,148,146,145,139,130,123,117,114,99],"timestamp_mouse":[19,44,58,78,99,118,138,158,179,199,218,239,258,278,298,320,338,359,378,399,419,438,458,479,498,519,538,559,578,599,618,638,658,679,699,718,739,760,779,798,820,839,859,878,899,918,939,958,978,998,1019,1038,1058,1078,1099,1118,1138,1159,1178,1198,1219,1239,1258,1278,1300,1318,1338,1359,1378,1398,1419,1439,1459,1478],"xSR":741.5,"ySR":573.95,"xT1":424.9,"yT1":0,"xT2":1058.1,"yT2":0,"toosoon":0,"cond_shown":"Incongruent","ratio_trial":200,"L_num":7,"L_den":10,"R_num":12,"R_den":24,"correct_side":1,"subjID":"SofiaVargasMora17","gender":"1","school":"6","age":"11"},{"start_time":1551880790953,"click_time":1551880792146,"finger_time":1551880791707,"fix_duration":605.8551570814903,"trial":46,"RT":754,"MT":439,"sideResp":1,"stimulus":[],"xmouse":[790,790,790,790,790,790,790,790,790,790,790,790,790,790,790,790,790,790,790,790,790,790,790,790,790,790,790,790,790,790,788,784,780,775,770,764,756,729,721,702,688,678,654,640,625,610,596,571,562,548,540,531,514,506,502,497,492,481,468,461],"ymouse":[621,621,621,621,621,621,621,621,621,621,621,621,621,621,621,621,621,621,621,621,621,621,622,622,622,622,622,622,622,622,622,621,618,615,609,601,590,558,547,514,491,471,438,419,402,383,367,337,326,308,293,277,242,227,212,196,175,139,113,98],"timestamp_mouse":[14,43,53,73,94,114,133,154,175,195,214,234,253,275,293,313,335,354,373,395,414,433,453,474,493,513,533,553,573,593,614,633,653,673,694,714,734,754,773,793,814,834,854,873,894,913,934,953,974,993,1013,1033,1053,1073,1093,1114,1134,1153,1173,1193],"xSR":741.5,"ySR":573.95,"xT1":424.9,"yT1":0,"xT2":1058.1,"yT2":0,"toosoon":0,"cond_shown":"Incongruent","ratio_trial":100,"L_num":4,"L_den":8,"R_num":8,"R_den":20,"correct_side":1,"subjID":"SofiaVargasMora17","gender":"1","school":"6","age":"11"},{"start_time":1551880793459,"click_time":1551880794807,"finger_time":1551880794167,"fix_duration":250,"trial":47,"RT":708,"MT":640,"sideResp":2,"stimulus":[],"xmouse":[794,794,794,794,794,794,794,794,794,794,794,794,794,794,794,794,794,794,794,794,794,794,794,794,794,794,794,794,794,794,794,794,794,796,813,834,857,891,900,904,912,914,920,924,928,933,937,943,946,950,954,960,974,992,1012,1031,1048,1058,1058,1058,1058,1058,1058,1058,1058,1058,1058,1060],"ymouse":[609,609,609,609,609,609,609,609,609,609,609,609,609,609,609,609,609,609,609,609,609,609,609,609,609,609,609,609,609,609,609,609,609,609,595,573,542,486,458,420,378,334,268,234,218,201,188,160,145,131,121,108,92,79,71,60,52,48,48,48,48,48,48,48,48,48,48,48],"timestamp_mouse":[9,33,48,68,89,108,128,148,167,188,207,228,248,267,287,307,327,347,368,387,407,428,448,468,488,507,527,548,567,587,608,627,649,669,687,708,728,747,767,787,808,827,847,869,887,909,928,948,967,987,1008,1029,1047,1069,1087,1107,1127,1147,1168,1187,1207,1228,1247,1269,1287,1307,1327,1347],"xSR":741.5,"ySR":573.95,"xT1":424.9,"yT1":0,"xT2":1058.1,"yT2":0,"toosoon":0,"cond_shown":"Incongruent","ratio_trial":300,"L_num":4,"L_den":20,"R_num":2,"R_den":4,"correct_side":2,"subjID":"SofiaVargasMora17","gender":"1","school":"6","age":"11"},{"start_time":1551880796742,"click_time":1551880797846,"finger_time":1551880797367,"fix_duration":974.2669812032238,"trial":48,"RT":625,"MT":479,"sideResp":1,"stimulus":[],"xmouse":[782,782,782,782,782,782,782,782,782,782,782,782,782,782,782,782,782,782,782,782,782,782,782,782,782,782,782,782,782,782,782,782,777,765,760,752,746,740,732,724,724,714,707,686,675,663,650,631,597,581,557,546,537,528,527,523],"ymouse":[607,607,607,607,607,607,607,607,607,607,607,607,607,607,607,607,607,607,607,607,607,607,607,607,607,607,607,607,607,606,594,571,545,501,482,466,455,442,418,396,389,365,350,309,291,273,253,230,189,169,136,121,107,87,82,75],"timestamp_mouse":[9,25,45,67,84,104,126,145,164,186,205,225,244,264,284,304,324,345,364,384,405,426,445,465,485,505,524,544,564,585,604,625,644,665,684,704,725,744,764,784,804,826,844,865,884,905,924,944,964,985,1004,1025,1045,1065,1084,1104],"xSR":741.5,"ySR":573.95,"xT1":424.9,"yT1":0,"xT2":1058.1,"yT2":0,"toosoon":0,"cond_shown":"Congruent","ratio_trial":200,"L_num":14,"L_den":28,"R_num":6,"R_den":20,"correct_side":1,"subjID":"SofiaVargasMora17","gender":"1","school":"6","age":"11"},{"start_time":1551880799198,"c