[{"start_time":1551901453149,"click_time":1551901456421,"finger_time":1551901453163,"fix_duration":1021.6172060851927,"trial":0,"RT":14,"MT":3258,"sideResp":1,"stimulus":"img/500/randomdotsizeEA/L/13_Ratio_500_L_12_R_6.png","xmouse":[803,803,803,803,803,803,803,803,803,803,803,803,803,803,803,803,803,803,803,803,803,803,803,803,803,803,803,801,801,800,797,796,796,796,796,796,796,796,796,796,796,796,796,796,796,796,796,796,796,796,796,796,796,796,796,796,796,796,796,796,796,796,796,796,796,796,796,796,796,796,796,796,796,796,796,796,796,796,796,796,795,793,792,791,792,798,803,807,808,809,807,804,803,802,802,802,800,799,797,797,797,797,799,799,799,798,794,792,791,790,788,788,787,787,787,792,793,794,794,794,794,794,793,792,792,820,839,854,860,860,830,781,769,753,751,751,751,751,751,753,756,757,757,757,757,757,757,758,758,758,758,757,740,704,638,503,487,487,491,494,494,493,492,491],"ymouse":[533,533,533,533,533,533,533,533,533,533,533,533,533,533,533,533,533,533,533,533,533,533,533,533,533,533,533,533,536,547,564,577,585,591,594,601,602,602,602,602,602,605,607,616,619,621,622,622,622,622,622,622,622,622,622,622,622,622,622,622,622,622,622,622,622,622,622,622,622,622,624,624,624,624,624,624,624,624,624,624,627,637,642,656,661,662,658,655,653,651,647,643,642,642,642,642,642,643,644,644,644,644,642,640,637,629,625,625,625,625,629,630,631,631,631,631,630,629,628,627,627,626,626,632,638,646,646,641,636,634,620,615,615,616,618,618,619,619,619,619,618,618,618,618,618,618,618,617,616,608,583,547,500,433,358,197,153,137,131,125,122,110,104,92],"timestamp_mouse":[14,33,52,73,93,113,133,153,173,193,212,233,252,273,292,312,333,352,372,393,413,433,452,474,493,513,533,553,572,593,612,633,654,672,692,713,732,752,773,793,812,833,854,873,892,912,933,952,972,992,1012,1033,1052,1073,1094,1112,1132,1152,1172,1193,1213,1232,1252,1272,1292,1314,1333,1352,1372,1392,1412,1433,1452,1472,1494,1512,1533,1553,1572,1592,1612,1632,1652,1672,1692,1712,1732,1752,1773,1792,1812,1832,1852,1872,1893,1914,1932,1952,1972,1994,2012,2032,2052,2073,2092,2112,2132,2153,2172,2193,2213,2233,2252,2272,2292,2312,2332,2353,2372,2392,2413,2432,2452,2472,2492,2512,2532,2553,2573,2592,2612,2632,2652,2673,2692,2713,2733,2752,2773,2792,2812,2832,2853,2872,2893,2912,2932,2952,2972,2992,3012,3032,3052,3073,3092,3112,3133,3152,3172,3193,3212,3233,3253,3272],"xSR":741.5,"ySR":469.95,"xT1":424.9,"yT1":0,"xT2":1058.1,"yT2":0,"toosoon":0,"cond_shown":"randomdotsizeEA","ratio_trial":500,"smaller_num":"6","larger_num":"12","correct_side":1,"subjID":"SuhaylMarianaBarrantesAlvarado20","gender":"1","age":"10","school":"6","test":{"fix_dur":[250,1500],"timestim":300,"targets_dim":[100,100],"targets_relative_coord":[0.3,0.7],"size_stim":[880,420],"start_dim":[100,100],"size_start":[300,300],"size_fix":60,"samplingrate":20,"img_types":["equaldotsize","equaldotanddens","randomdotsizeEA"],"ratios":[250,500,750,900],"rep_conds":9,"nTrials":120,"trials_to_rest":500,"Trials_order":[53,92,14,73,116,10,82,79,48,41,84,67,104,40,100,5,87,13,95,117,114,24,118,115,49,94,55,57,37,85,109,16,80,71,105,69,51,88,0,23,68,47,25,107,43,61,112,27,18,32,36,56,98,64,54,4,76,34,11,97,63,45,33,91,62,38,30,59,89,22,44,101,29,31,7,26,3,65,70,50,66,60,74,72,1,102,110,108,78,58,81,75,111,96,6,35,42,39,93,21,8,99,46,86,119,17,2,12,28,9,77,103,52,90,113,20,106,83,19,15],"cond_shown":["randomdotsizeEA","randomdotsizeEA","randomdotsizeEA","equaldotanddens","randomdotsizeEA","equaldotanddens","equaldotanddens","equaldotanddens","equaldotsize","randomdotsizeEA","equaldotsize","equaldotanddens","randomdotsizeEA","equaldotanddens","equaldotanddens","randomdotsizeEA","equaldotsize","equaldotanddens","randomdotsizeEA","equaldotsize","equaldotsize","equaldotsize","equaldotanddens","equaldotanddens","equaldotanddens","equaldotanddens","equaldotanddens","equaldotsize","equaldotanddens","equaldotanddens","equaldotanddens","equaldotanddens","randomdotsizeEA","randomdotsizeEA","equaldotsize","equaldotsize","equaldotsize","equaldotanddens","equaldotsize","randomdotsizeEA","randomdotsizeEA","randomdotsizeEA","equaldotanddens","randomdotsizeEA","equaldotanddens","equaldotanddens","equaldotanddens","equaldotsize","equaldotsize","randomdotsizeEA","equaldotsize","randomdotsizeEA","randomdotsizeEA","equaldotanddens","equaldotsize","equaldotanddens","equaldotanddens","equaldotanddens","randomdotsizeEA","equaldotanddens","equaldotsize","equaldotsize","equaldotsize","equaldotanddens","randomdotsizeEA","randomdotsizeEA","equaldotsize","randomdotsizeEA","randomdotsizeEA","equaldotanddens","randomdotsizeEA","randomdotsizeEA","randomdotsizeEA","equaldotanddens","equaldotanddens","randomdotsizeEA","equaldotsize","randomdotsizeEA","equaldotanddens","randomdotsizeEA","equaldotsize","equaldotsize","randomdotsizeEA","equaldotsize","equaldotanddens","equaldotsize","randomdotsizeEA","equaldotsize","equaldotsize","equaldotanddens","equaldotsize","equaldotsize","equaldotsize","equaldotsize","equaldotsize","randomdotsizeEA","equaldotsize","equaldotsize","equaldotsize","equaldotsize","randomdotsizeEA","equaldotsize","equaldotanddens","randomdotsizeEA","randomdotsizeEA","randomdotsizeEA","randomdotsizeEA","equaldotsize","equaldotanddens","equaldotsize","randomdotsizeEA","equaldotanddens","equaldotanddens","equaldotsize","randomdotsizeEA","randomdotsizeEA","equaldotanddens","randomdotsizeEA","equaldotanddens","equaldotsize"],"ratio_trial":[500,750,250,250,750,900,900,750,250,500,250,750,750,500,500,500,500,250,900,900,750,250,900,750,250,900,750,900,250,250,250,500,750,900,900,900,500,500,250,900,750,900,250,900,750,250,500,500,750,750,250,750,250,500,750,500,500,900,900,250,500,900,900,750,250,250,750,900,500,900,750,500,500,750,750,250,500,500,900,250,750,250,250,250,250,750,250,250,750,900,900,500,500,250,750,900,750,500,900,900,750,500,900,250,900,500,250,250,500,900,500,750,500,750,500,750,900,900,750,500],"smaller_num":["6","3","3","2","3","9","9","12","6","2","3","3","6","4","2","1","2","2","9","9","6","2","18","15","6","18","3","9","3","3","2","9","15","18","18","9","4","4","6","18","3","18","2","18","3","3","2","1","3","6","2","15","4","10","6","1","5","18","18","6","1","9","18","15","3","6","6","9","6","18","9","5","6","6","12","3","10","6","18","6","12","3","4","4","6","15","2","6","15","18","9","10","2","3","3","18","3","2","9","18","6","6","18","3","18","6","4","3","5","9","10","15","9","3","6","9","9","18","15","10"],"larger_num":["12","4","12","8","4","10","10","16","24","4","12","4","8","8","4","2","4","8","10","10","8","8","20","20","24","20","4","10","12","12","8","18","20","20","20","10","8","8","24","20","4","20","8","20","4","12","4","2","4","8","8","20","16","20","8","2","10","20","20","24","2","10","20","20","12","24","8","10","12","20","12","10","12","8","16","12","20","12","20","24","16","12","16","16","24","20","8","24","20","20","10","20","4","12","4","20","4","4","10","20","8","12","20","12","20","12","16","12","10","10","20","20","18","4","12","12","10","20","20","20"],"correct_side":[1,1,2,1,1,1,2,2,1,1,2,1,1,1,1,2,1,1,2,2,1,1,1,2,2,2,1,1,1,2,1,2,2,2,1,2,1,1,2,1,1,1,1,2,2,2,1,2,2,1,1,1,2,2,2,2,1,2,1,2,2,2,1,2,2,2,1,1,1,2,2,1,1,2,2,2,2,1,1,1,2,2,2,1,1,1,1,2,2,2,1,2,1,1,2,2,1,2,2,1,2,1,2,1,2,1,1,2,1,1,2,2,1,1,1,2,2,2,2,2],"img_shown":["img/500/randomdotsizeEA/L/13_Ratio_500_L_12_R_6.png","img/750/randomdotsizeEA/L/8_Ratio_750_L_4_R_3.png","img/250/randomdotsizeEA/R/4_Ratio_250_L_3_R_12.png","img/250/equaldotanddens/L/3_Ratio_250_L_8_R_2.png","img/750/randomdotsizeEA/L/9_Ratio_750_L_4_R_3.png","img/900/equaldotanddens/L/1_Ratio_900_L_10_R_9.png","img/900/equaldotanddens/R/6_Ratio_900_L_9_R_10.png","img/750/equaldotanddens/R/11_Ratio_750_L_12_R_16.png","img/250/equaldotsize/L/5_Ratio_250_L_24_R_6.png","img/500/randomdotsizeEA/L/10_Ratio_500_L_4_R_2.png","img/250/equaldotsize/R/9_Ratio_250_L_3_R_12.png","img/750/equaldotanddens/L/8_Ratio_750_L_4_R_3.png","img/750/randomdotsizeEA/L/13_Ratio_750_L_8_R_6.png","img/500/equaldotanddens/L/8_Ratio_500_L_8_R_4.png","img/500/equaldotanddens/L/5_Ratio_500_L_4_R_2.png","img/500/randomdotsizeEA/R/12_Ratio_500_L_1_R_2.png","img/500/equaldotsize/L/5_Ratio_500_L_4_R_2.png","img/250/equaldotanddens/L/1_Ratio_250_L_8_R_2.png","img/900/randomdotsizeEA/R/5_Ratio_900_L_9_R_10.png","img/900/equaldotsize/R/7_Ratio_900_L_9_R_10.png","img/750/equaldotsize/L/13_Ratio_750_L_8_R_6.png","img/250/equaldotsize/L/7_Ratio_250_L_8_R_2.png","img/900/equaldotanddens/L/4_Ratio_900_L_20_R_18.png","img/750/equaldotanddens/R/5_Ratio_750_L_15_R_20.png","img/250/equaldotanddens/R/6_Ratio_250_L_6_R_24.png","img/900/equaldotanddens/R/9_Ratio_900_L_18_R_20.png","img/750/equaldotanddens/L/8_Ratio_750_L_4_R_3.png","img/900/equaldotsize/L/1_Ratio_900_L_10_R_9.png","img/250/equaldotanddens/L/14_Ratio_250_L_12_R_3.png","img/250/equaldotanddens/R/9_Ratio_250_L_3_R_12.png","img/250/equaldotanddens/L/1_Ratio_250_L_8_R_2.png","img/500/equaldotanddens/R/1_Ratio_500_L_9_R_18.png","img/750/randomdotsizeEA/R/4_Ratio_750_L_15_R_20.png","img/900/randomdotsizeEA/R/11_Ratio_900_L_18_R_20.png","img/900/equaldotsize/L/2_Ratio_900_L_20_R_18.png","img/900/equaldotsize/R/7_Ratio_900_L_9_R_10.png","img/500/equaldotsize/L/8_Ratio_500_L_8_R_4.png","img/500/equaldotanddens/L/8_Ratio_500_L_8_R_4.png","img/250/equaldotsize/R/6_Ratio_250_L_6_R_24.png","img/900/randomdotsizeEA/L/4_Ratio_900_L_20_R_18.png","img/750/randomdotsizeEA/L/10_Ratio_750_L_4_R_3.png","img/900/randomdotsizeEA/L/2_Ratio_900_L_20_R_18.png","img/250/equaldotanddens/L/1_Ratio_250_L_8_R_2.png","img/900/randomdotsizeEA/R/12_Ratio_900_L_18_R_20.png","img/750/equaldotanddens/R/7_Ratio_750_L_3_R_4.png","img/250/equaldotanddens/R/4_Ratio_250_L_3_R_12.png","img/500/equaldotanddens/L/10_Ratio_500_L_4_R_2.png","img/500/equaldotsize/R/15_Ratio_500_L_1_R_2.png","img/750/equaldotsize/R/12_Ratio_750_L_3_R_4.png","img/750/randomdotsizeEA/L/13_Ratio_750_L_8_R_6.png","img/250/equaldotsize/L/7_Ratio_250_L_8_R_2.png","img/750/randomdotsizeEA/L/1_Ratio_750_L_20_R_15.png","img/250/randomdotsizeEA/R/10_Ratio_250_L_4_R_16.png","img/500/equaldotanddens/R/3_Ratio_500_L_10_R_20.png","img/750/equaldotsize/R/2_Ratio_750_L_6_R_8.png","img/500/equaldotanddens/R/15_Ratio_500_L_1_R_2.png","img/500/equaldotanddens/L/7_Ratio_500_L_10_R_5.png","img/900/equaldotanddens/R/13_Ratio_900_L_18_R_20.png","img/900/randomdotsizeEA/L/4_Ratio_900_L_20_R_18.png","img/250/equaldotanddens/R/6_Ratio_250_L_6_R_24.png","img/500/equaldotsize/R/12_Ratio_500_L_1_R_2.png","img/900/equaldotsize/R/3_Ratio_900_L_9_R_10.png","img/900/equaldotsize/L/8_Ratio_900_L_20_R_18.png","img/750/equaldotanddens/R/3_Ratio_750_L_15_R_20.png","img/250/randomdotsizeEA/R/11_Ratio_250_L_3_R_12.png","img/250/randomdotsizeEA/R/6_Ratio_250_L_6_R_24.png","img/750/equaldotsize/L/13_Ratio_750_L_8_R_6.png","img/900/randomdotsizeEA/L/1_Ratio_900_L_10_R_9.png","img/500/randomdotsizeEA/L/13_Ratio_500_L_12_R_6.png","img/900/equaldotanddens/R/12_Ratio_900_L_18_R_20.png","img/750/randomdotsizeEA/R/15_Ratio_750_L_9_R_12.png","img/500/randomdotsizeEA/L/7_Ratio_500_L_10_R_5.png","img/500/randomdotsizeEA/L/11_Ratio_500_L_12_R_6.png","img/750/equaldotanddens/R/2_Ratio_750_L_6_R_8.png","img/750/equaldotanddens/R/11_Ratio_750_L_12_R_16.png","img/250/randomdotsizeEA/R/4_Ratio_250_L_3_R_12.png","img/500/equaldotsize/R/3_Ratio_500_L_10_R_20.png","img/500/randomdotsizeEA/L/11_Ratio_500_L_12_R_6.png","img/900/equaldotanddens/L/2_Ratio_900_L_20_R_18.png","img/250/randomdotsizeEA/L/5_Ratio_250_L_24_R_6.png","img/750/equaldotsize/R/11_Ratio_750_L_12_R_16.png","img/250/equaldotsize/R/9_Ratio_250_L_3_R_12.png","img/250/randomdotsizeEA/R/10_Ratio_250_L_4_R_16.png","img/250/equaldotsize/L/2_Ratio_250_L_16_R_4.png","img/250/equaldotanddens/L/5_Ratio_250_L_24_R_6.png","img/750/equaldotsize/L/1_Ratio_750_L_20_R_15.png","img/250/randomdotsizeEA/L/1_Ratio_250_L_8_R_2.png","img/250/equaldotsize/R/6_Ratio_250_L_6_R_24.png","img/750/equaldotsize/R/3_Ratio_750_L_15_R_20.png","img/900/equaldotanddens/R/13_Ratio_900_L_18_R_20.png","img/900/equaldotsize/L/1_Ratio_900_L_10_R_9.png","img/500/equaldotsize/R/3_Ratio_500_L_10_R_20.png","img/500/equaldotsize/L/5_Ratio_500_L_4_R_2.png","img/250/equaldotsize/L/15_Ratio_250_L_12_R_3.png","img/750/equaldotsize/R/7_Ratio_750_L_3_R_4.png","img/900/randomdotsizeEA/R/13_Ratio_900_L_18_R_20.png","img/750/equaldotsize/L/9_Ratio_750_L_4_R_3.png","img/500/equaldotsize/R/9_Ratio_500_L_2_R_4.png","img/900/equaldotsize/R/7_Ratio_900_L_9_R_10.png","img/900/equaldotsize/L/4_Ratio_900_L_20_R_18.png","img/750/randomdotsizeEA/R/2_Ratio_750_L_6_R_8.png","img/500/equaldotsize/L/11_Ratio_500_L_12_R_6.png","img/900/equaldotanddens/R/11_Ratio_900_L_18_R_20.png","img/250/randomdotsizeEA/L/15_Ratio_250_L_12_R_3.png","img/900/randomdotsizeEA/R/13_Ratio_900_L_18_R_20.png","img/500/randomdotsizeEA/L/11_Ratio_500_L_12_R_6.png","img/250/randomdotsizeEA/L/2_Ratio_250_L_16_R_4.png","img/250/equaldotsize/R/4_Ratio_250_L_3_R_12.png","img/500/equaldotanddens/L/7_Ratio_500_L_10_R_5.png","img/900/equaldotsize/L/1_Ratio_900_L_10_R_9.png","img/500/randomdotsizeEA/R/3_Ratio_500_L_10_R_20.png","img/750/equaldotanddens/R/3_Ratio_750_L_15_R_20.png","img/500/equaldotanddens/L/4_Ratio_500_L_18_R_9.png","img/750/equaldotsize/L/8_Ratio_750_L_4_R_3.png","img/500/randomdotsizeEA/L/13_Ratio_500_L_12_R_6.png","img/750/randomdotsizeEA/R/15_Ratio_750_L_9_R_12.png","img/900/equaldotanddens/R/5_Ratio_900_L_9_R_10.png","img/900/randomdotsizeEA/R/12_Ratio_900_L_18_R_20.png","img/750/equaldotanddens/R/4_Ratio_750_L_15_R_20.png","img/500/equaldotsize/R/3_Ratio_500_L_10_R_20.png"],"Rat0":[["12_Ratio_0_L_9_R_0.png","13_Ratio_0_L_6_R_0.png","5_Ratio_0_L_2_R_0.png","6_Ratio_0_L_4_R_0.png","8_Ratio_0_L_6_R_0.png"],["1_Ratio_0_L_0_R_17.png","10_Ratio_0_L_0_R_22.png","11_Ratio_0_L_0_R_1.png","14_Ratio_0_L_0_R_24.png","15_Ratio_0_L_0_R_4.png","2_Ratio_0_L_0_R_5.png","3_Ratio_0_L_0_R_17.png","4_Ratio_0_L_0_R_7.png","7_Ratio_0_L_0_R_19.png","9_Ratio_0_L_0_R_15.png"]],"Rat250":[["1_Ratio_250_L_8_R_2.png","14_Ratio_250_L_12_R_3.png","15_Ratio_250_L_12_R_3.png","2_Ratio_250_L_16_R_4.png","3_Ratio_250_L_8_R_2.png","5_Ratio_250_L_24_R_6.png","7_Ratio_250_L_8_R_2.png"],["10_Ratio_250_L_4_R_16.png","11_Ratio_250_L_3_R_12.png","12_Ratio_250_L_5_R_20.png","13_Ratio_250_L_2_R_8.png","4_Ratio_250_L_3_R_12.png","6_Ratio_250_L_6_R_24.png","8_Ratio_250_L_1_R_4.png","9_Ratio_250_L_3_R_12.png"]],"Rat500":[["10_Ratio_500_L_4_R_2.png","11_Ratio_500_L_12_R_6.png","13_Ratio_500_L_12_R_6.png","4_Ratio_500_L_18_R_9.png","5_Ratio_500_L_4_R_2.png","7_Ratio_500_L_10_R_5.png","8_Ratio_500_L_8_R_4.png"],["1_Ratio_500_L_9_R_18.png","12_Ratio_500_L_1_R_2.png","14_Ratio_500_L_5_R_10.png","15_Ratio_500_L_1_R_2.png","2_Ratio_500_L_3_R_6.png","3_Ratio_500_L_10_R_20.png","6_Ratio_500_L_9_R_18.png","9_Ratio_500_L_2_R_4.png"]],"Rat750":[["1_Ratio_750_L_20_R_15.png","10_Ratio_750_L_4_R_3.png","13_Ratio_750_L_8_R_6.png","14_Ratio_750_L_8_R_6.png","6_Ratio_750_L_24_R_18.png","8_Ratio_750_L_4_R_3.png","9_Ratio_750_L_4_R_3.png"],["11_Ratio_750_L_12_R_16.png","12_Ratio_750_L_3_R_4.png","15_Ratio_750_L_9_R_12.png","2_Ratio_750_L_6_R_8.png","3_Ratio_750_L_15_R_20.png","4_Ratio_750_L_15_R_20.png","5_Ratio_750_L_15_R_20.png","7_Ratio_750_L_3_R_4.png"]],"Rat900":[["1_Ratio_900_L_10_R_9.png","10_Ratio_900_L_20_R_18.png","2_Ratio_900_L_20_R_18.png","4_Ratio_900_L_20_R_18.png","8_Ratio_900_L_20_R_18.png"],["11_Ratio_900_L_18_R_20.png","12_Ratio_900_L_18_R_20.png","13_Ratio_900_L_18_R_20.png","14_Ratio_900_L_18_R_20.png","15_Ratio_900_L_9_R_10.png","3_Ratio_900_L_9_R_10.png","5_Ratio_900_L_9_R_10.png","6_Ratio_900_L_9_R_10.png","7_Ratio_900_L_9_R_10.png","9_Ratio_900_L_18_R_20.png"]],"Rat1000":[["10_Ratio_1000_L_16_R_16.png","11_Ratio_1000_L_6_R_6.png","12_Ratio_1000_L_14_R_14.png","13_Ratio_1000_L_20_R_20.png","15_Ratio_1000_L_15_R_15.png","2_Ratio_1000_L_17_R_17.png","4_Ratio_1000_L_9_R_9.png","5_Ratio_1000_L_6_R_6.png","6_Ratio_1000_L_19_R_19.png","8_Ratio_1000_L_14_R_14.png","9_Ratio_1000_L_25_R_25.png"],["1_Ratio_1000_L_1_R_1.png","14_Ratio_1000_L_17_R_17.png","3_Ratio_1000_L_17_R_17.png","7_Ratio_1000_L_6_R_6.png"]]}},{"start_time":1551901457688,"click_time":1551901458961,"finger_time":1551901458562,"fix_duration":544.5566246525855,"trial":1,"RT":874,"MT":399,"sideResp":1,"stimulus":"img/750/randomdotsizeEA/L/8_Ratio_750_L_4_R_3.png","xmouse":[772,772,772,772,772,772,772,772,772,772,772,772,772,772,772,772,772,772,772,772,772,772,772,772,772,772,772,772,772,772,772,772,772,772,772,772,772,772,772,772,772,771,766,733,717,680,654,635,630,629,628,626,624,608,590,579,569,564,561,559,556,552,531,516],"ymouse":[624,624,624,624,624,624,624,624,624,624,624,624,624,624,624,624,624,624,624,624,624,624,624,624,624,624,624,624,624,624,624,624,624,624,624,624,622,620,611,607,601,593,579,518,483,401,334,286,250,243,239,234,229,203,182,173,164,160,155,152,145,135,108,93],"timestamp_mouse":[14,38,55,74,94,113,133,154,174,194,213,233,253,273,293,314,333,354,374,393,413,433,454,474,493,514,534,555,574,593,613,633,653,673,693,714,733,753,773,793,813,833,853,874,893,913,934,953,973,994,1013,1033,1054,1073,1093,1113,1134,1153,1173,1194,1213,1233,1254,1273],"xSR":741.5,"ySR":573.95,"xT1":424.9,"yT1":0,"xT2":1058.1,"yT2":0,"toosoon":0,"cond_shown":"randomdotsizeEA","ratio_trial":750,"smaller_num":"3","larger_num":"4","correct_side":1,"subjID":"SuhaylMarianaBarrantesAlvarado20","gender":"1","age":"10","school":"6"},{"start_time":1551901459994,"click_time":1551901461221,"finger_time":1551901460601,"fix_duration":250,"trial":2,"RT":607,"MT":620,"sideResp":2,"stimulus":"img/250/randomdotsizeEA/R/4_Ratio_250_L_3_R_12.png","xmouse":[781,781,781,781,781,781,781,781,781,781,781,780,780,780,779,779,779,779,779,779,779,779,779,779,779,779,779,781,793,815,851,892,912,944,960,979,1000,1034,1116,1160,1185,1193,1193,1193,1195,1198,1200,1201,1195,1191,1191,1190,1189,1178,1171,1168,1167,1167,1167,1167,1159,1151],"ymouse":[629,629,629,629,629,629,629,627,626,626,626,625,623,622,621,620,620,619,619,619,619,619,619,619,619,619,619,614,599,579,555,527,513,491,479,465,449,424,368,338,316,294,279,251,235,216,194,175,151,146,146,143,141,121,113,108,106,105,102,98,86,80],"timestamp_mouse":[10,30,49,67,87,107,127,148,168,187,208,227,249,267,287,307,327,348,368,388,408,428,448,467,487,508,527,549,567,587,607,628,647,668,687,707,728,748,768,787,807,827,847,867,888,907,927,947,967,988,1007,1027,1047,1068,1088,1107,1127,1147,1169,1187,1208,1227],"xSR":741.5,"ySR":573.95,"xT1":424.9,"yT1":0,"xT2":1058.1,"yT2":0,"toosoon":0,"cond_shown":"randomdotsizeEA","ratio_trial":250,"smaller_num":"3","larger_num":"12","correct_side":2,"subjID":"SuhaylMarianaBarrantesAlvarado20","gender":"1","age":"10","school":"6"},{"start_time":1551901462453,"click_time":1551901463221,"finger_time":1551901462961,"fix_duration":250,"trial":3,"RT":508,"MT":260,"sideResp":1,"stimulus":"img/250/equaldotanddens/L/3_Ratio_250_L_8_R_2.png","xmouse":[790,790,790,790,790,790,790,790,790,790,790,790,790,790,790,790,790,790,790,790,790,790,788,785,772,760,731,698,654,566,536,526,524,524,524,524,522,519],"ymouse":[598,598,598,598,598,598,598,598,598,598,598,598,598,598,598,598,598,598,598,598,598,598,598,594,572,550,480,414,337,182,132,117,116,116,113,113,106,95],"timestamp_mouse":[29,48,68,90,108,129,149,168,188,209,229,249,268,288,308,328,348,369,389,409,428,448,468,488,508,528,549,569,588,608,628,648,668,688,709,728,748,768],"xSR":741.5,"ySR":573.95,"xT1":424.9,"yT1":0,"xT2":1058.1,"yT2":0,"toosoon":0,"cond_shown":"equaldotanddens","ratio_trial":250,"smaller_num":"2","larger_num":"8","correct_side":1,"subjID":"SuhaylMarianaBarrantesAlvarado20","gender":"1","age":"10","school":"6"},{"start_time":1551901464895,"click_time":1551901465982,"finger_time":1551901465461,"fix_duration":951.2666274418206,"trial":4,"RT":566,"MT":521,"sideResp":2,"stimulus":"img/750/randomdotsizeEA/L/9_Ratio_750_L_4_R_3.png","xmouse":[787,787,787,787,787,787,787,787,787,787,787,787,787,787,787,787,787,787,787,787,787,787,790,798,808,817,827,834,851,862,875,884,894,902,908,916,931,945,1003,1034,1055,1071,1077,1080,1080,1080,1081,1084,1090,1091,1093,1095,1101,1107,1113],"ymouse":[638,638,638,638,638,638,638,638,638,638,638,638,638,638,638,638,638,638,638,638,638,636,630,624,618,611,602,595,572,557,542,529,515,500,490,475,444,418,328,287,256,234,218,206,205,205,203,199,177,165,152,141,120,105,87],"timestamp_mouse":[10,31,46,67,86,108,127,146,167,186,206,226,247,267,286,306,327,347,367,386,406,426,447,466,486,506,527,546,566,587,607,626,647,666,686,706,726,746,766,787,806,826,846,866,886,907,926,946,967,987,1006,1026,1047,1066,1087],"xSR":741.5,"ySR":573.95,"xT1":424.9,"yT1":0,"xT2":1058.1,"yT2":0,"toosoon":0,"cond_shown":"randomdotsizeEA","ratio_trial":750,"smaller_num":"3","larger_num":"4","correct_side":1,"subjID":"SuhaylMarianaBarrantesAlvarado20","gender":"1","age":"10","school":"6"},{"start_time":1551901468383,"click_time":1551901469861,"finger_time":1551901469361,"fix_duration":1400.7284789649623,"trial":5,"RT":978,"MT":500,"sideResp":2,"stimulus":"img/900/equaldotanddens/L/1_Ratio_900_L_10_R_9.png","xmouse":[817,817,817,817,817,817,817,817,817,817,817,817,817,817,817,817,817,817,817,817,817,816,814,812,812,812,812,812,811,811,811,810,810,810,810,809,809,809,809,809,811,815,816,817,818,819,824,835,875,915,928,949,970,985,989,993,999,1019,1032,1051,1061,1064,1071,1086,1096,1102,1104,1105,1105,1105,1105,1105,1106,1107],"ymouse":[634,634,634,634,634,634,634,634,634,634,634,634,634,634,634,634,634,634,634,634,633,631,630,628,628,628,628,628,627,626,625,623,622,620,617,616,616,616,614,612,608,603,600,600,598,598,596,591,561,517,496,459,413,367,340,312,288,245,227,202,190,184,169,143,129,120,116,115,114,114,113,111,106,96],"timestamp_mouse":[19,41,58,78,99,119,140,158,178,198,218,238,259,278,299,318,338,358,378,398,418,438,458,478,498,518,538,558,578,598,618,638,658,678,698,718,738,758,778,799,818,838,860,878,898,918,938,958,978,999,1018,1038,1058,1079,1098,1118,1138,1159,1178,1198,1218,1239,1259,1279,1298,1318,1338,1358,1379,1398,1418,1438,1459,1478],"xSR":741.5,"ySR":573.95,"xT1":424.9,"yT1":0,"xT2":1058.1,"yT2":0,"toosoon":0,"cond_shown":"equaldotanddens","ratio_trial":900,"smaller_num":"9","larger_num":"10","correct_side":1,"subjID":"SuhaylMarianaBarrantesAlvarado20","gender":"1","age":"10","school":"6"},{"start_time":1551901471054,"click_time":1551901472082,"finger_time":1551901471801,"fix_duration":250,"trial":6,"RT":747,"MT":281,"sideResp":2,"stimulus":"img/900/equaldotanddens/R/6_Ratio_900_L_9_R_10.png","xmouse":[794,794,794,794,794,794,794,794,794,796,799,799,799,799,800,800,800,800,800,800,800,800,800,800,800,800,800,800,800,800,800,800,800,801,801,806,817,836,842,864,894,908,924,952,989,1069,1087,1093,1095,1095,1095,1098],"ymouse":[619,619,619,619,619,619,619,619,619,619,619,619,619,618,618,618,618,618,618,618,618,618,618,618,618,618,618,618,618,618,618,618,615,614,612,601,588,566,560,541,511,488,459,419,355,206,163,143,128,123,104,88],"timestamp_mouse":[13,35,48,67,87,107,127,148,167,187,207,227,247,267,288,307,328,347,368,387,407,428,447,468,488,508,527,547,567,587,608,627,647,667,687,707,727,747,767,787,807,827,847,867,888,907,927,947,967,987,1008,1028],"xSR":741.5,"ySR":573.95,"xT1":424.9,"yT1":0,"xT2":1058.1,"yT2":0,"toosoon":0,"cond_shown":"equaldotanddens","ratio_trial":900,"smaller_num":"9","larger_num":"10","correct_side":2,"subjID":"SuhaylMarianaBarrantesAlvarado20","gender":"1","age":"10","school":"6"},{"start_time":1551901474107,"click_time":1551901475061,"finger_time":1551901474641,"fix_duration":963.6033144957073,"trial":7,"RT":534,"MT":420,"sideResp":2,"stimulus":"img/750/equaldotanddens/R/11_Ratio_750_L_12_R_16.png","xmouse":[796,796,796,796,795,795,793,793,793,793,793,793,793,793,793,793,793,793,793,793,795,798,809,816,823,828,838,856,867,882,897,914,959,978,1006,1037,1074,1085,1085,1085,1086,1088,1089,1089,1087,1083,1081,1081],"ymouse":[605,605,605,605,606,608,611,612,612,612,612,612,612,612,612,612,612,612,612,612,607,603,590,584,579,575,562,533,517,500,482,462,405,379,349,316,270,234,224,217,211,196,186,175,160,144,114,70],"timestamp_mouse":[15,34,54,74,94,115,135,155,175,194,214,235,255,274,294,314,336,354,374,394,414,435,454,474,494,515,534,554,575,595,614,634,654,675,694,714,734,754,774,794,814,834,854,874,894,915,934,954],"xSR":741.5,"ySR":573.95,"xT1":424.9,"yT1":0,"xT2":1058.1,"yT2":0,"toosoon":0,"cond_shown":"equaldotanddens","ratio_trial":750,"smaller_num":"12","larger_num":"16","correct_side":2,"subjID":"SuhaylMarianaBarrantesAlvarado20","gender":"1","age":"10","school":"6"},{"start_time":1551901476260,"click_time":1551901477421,"finger_time":1551901476721,"fix_duration":337.735806203024,"trial":8,"RT":461,"MT":700,"sideResp":1,"stimulus":"img/250/equaldotsize/L/5_Ratio_250_L_24_R_6.png","xmouse":[769,769,769,769,769,769,769,769,769,769,769,769,769,769,769,769,769,769,769,769,769,765,758,743,732,719,714,709,703,682,659,635,616,603,593,583,582,579,577,565,549,542,534,526,512,510,508,508,508,507,505,505,504,503,502,500,499,496,494],"ymouse":[630,630,630,630,630,630,630,630,630,630,630,630,630,630,630,630,630,630,630,630,628,612,588,553,529,487,469,454,441,390,353,325,310,298,292,284,284,281,279,263,240,231,220,210,183,174,165,157,152,144,126,121,118,114,113,108,105,101,96],"timestamp_mouse":[9,30,41,62,83,101,121,142,161,182,201,223,242,262,282,301,321,341,361,383,402,421,442,461,481,502,521,541,562,581,601,621,641,661,682,701,722,742,761,781,802,821,841,861,882,901,922,941,961,981,1001,1021,1042,1061,1082,1101,1122,1141,1161],"xSR":741.5,"ySR":573.95,"xT1":424.9,"yT1":0,"xT2":1058.1,"yT2":0,"toosoon":0,"cond_shown":"equaldotsize","ratio_trial":250,"smaller_num":"6","larger_num":"24","correct_side":1,"subjID":"SuhaylMarianaBarrantesAlvarado20","gender":"1","age":"10","school":"6"},{"start_time":1551901480272,"click_time":1551901481382,"finger_time":1551901480861,"fix_duration":250,"trial":9,"RT":589,"MT":521,"sideResp":1,"stimulus":"img/500/randomdotsizeEA/L/10_Ratio_500_L_4_R_2.png","xmouse":[814,814,814,814,814,814,814,814,814,814,814,814,814,814,814,814,814,814,814,814,814,814,814,814,814,814,810,805,790,763,761,758,755,745,727,704,656,639,602,586,587,588,588,588,586,582,573,558,521,512,507,500,493,487,477,474],"ymouse":[624,624,624,624,624,624,624,624,624,624,624,624,624,624,624,624,624,624,624,624,624,624,624,624,624,624,618,611,593,570,567,557,544,482,432,383,310,281,212,181,178,177,177,177,174,168,157,149,137,133,130,125,119,115,102,95],"timestamp_mouse":[14,33,49,70,90,110,131,149,170,190,210,229,249,270,290,309,330,349,369,389,410,430,451,470,490,509,529,549,569,589,609,629,649,669,689,710,730,749,769,789,809,829,849,870,890,911,929,949,969,989,1009,1029,1050,1069,1089,1110],"xSR":741.5,"ySR":573.95,"xT1":424.9,"yT1":0,"xT2":1058.1,"yT2":0,"toosoon":0,"cond_shown":"randomdotsizeEA","ratio_trial":500,"smaller_num":"2","larger_num":"4","correct_side":1,"subjID":"SuhaylMarianaBarrantesAlvarado20","gender":"1","age":"10","school":"6"},{"start_time":1551901484297,"click_time":1551901485241,"finger_time":1551901484641,"fix_duration":1394.9989739371558,"trial":10,"RT":344,"MT":600,"sideResp":2,"stimulus":"img/250/equaldotsize/R/9_Ratio_250_L_3_R_12.png","xmouse":[774,774,774,774,774,774,774,774,774,774,774,774,774,774,774,774,774,772,772,772,775,778,790,839,870,902,939,978,1002,1027,1041,1052,1058,1062,1062,1060,1059,1059,1059,1059,1059,1059,1059,1058,1060,1061,1065,1068],"ymouse":[602,602,602,602,602,602,602,602,602,602,602,602,602,602,602,602,601,572,562,555,551,547,537,496,465,437,409,376,356,335,320,304,291,269,258,245,239,234,228,212,191,174,169,150,141,130,104,95],"timestamp_mouse":[10,25,44,64,84,106,124,144,165,185,205,225,244,265,284,304,325,344,364,384,406,424,444,464,484,504,524,544,564,584,604,624,645,665,684,704,725,744,765,784,806,824,845,864,885,904,925,944],"xSR":741.5,"ySR":573.95,"xT1":424.9,"yT1":0,"xT2":1058.1,"yT2":0,"toosoon":0,"cond_shown":"equaldotsize","ratio_trial":250,"smaller_num":"3","larger_num":"12","correct_side":2,"subjID":"SuhaylMarianaBarrantesAlvarado20","gender":"1","age":"10","school":"6"},{"start_time":1551901487211,"click_time":1551901488421,"finger_time":1551901487622,"fix_duration":1268.6925731274123,"trial":11,"RT":411,"MT":799,"sideResp":1,"stimulus":"img/750/equaldotanddens/L/8_Ratio_750_L_4_R_3.png","xmouse":[773,773,773,773,773,773,773,773,774,774,774,774,774,774,774,774,774,774,775,774,754,737,711,706,703,699,697,695,692,685,669,640,620,603,592,582,578,578,576,575,573,570,581,585,585,577,561,554,546,535,522,495,493,492,487,476,470,465,465,465,467],"ymouse":[628,628,628,628,628,628,628,628,628,628,628,628,628,628,628,628,628,628,628,619,559,521,488,484,483,481,480,478,475,469,455,423,409,397,389,382,378,377,374,373,368,356,319,284,256,238,225,219,211,204,195,183,182,182,178,168,157,129,117,107,93],"timestamp_mouse":[14,37,52,70,91,112,131,151,171,190,210,230,250,271,290,311,330,352,371,390,411,430,451,470,491,511,531,550,570,590,611,630,650,670,692,712,730,750,770,790,812,830,850,870,891,910,930,950,970,991,1010,1030,1050,1070,1090,1110,1131,1150,1171,1190,1210],"xSR":741.5,"ySR":573.95,"xT1":424.9,"yT1":0,"xT2":1058.1,"yT2":0,"toosoon":0,"cond_shown":"equaldotanddens","ratio_trial":750,"smaller_num":"3","larger_num":"4","correct_side":1,"subjID":"SuhaylMarianaBarrantesAlvarado20","gender":"1","age":"10","school":"6"},{"start_time":1551901492052,"click_time":1551901493801,"finger_time":1551901492961,"fix_duration":1229.239385592161,"trial":12,"RT":909,"MT":840,"sideResp":1,"stimulus":"img/750/randomdotsizeEA/L/13_Ratio_750_L_8_R_6.png","xmouse":[777,777,777,777,777,777,777,777,777,777,777,777,777,777,777,777,777,777,777,777,777,777,777,777,776,774,771,770,769,769,768,768,768,768,768,768,768,768,768,768,768,768,768,767,758,737,715,703,691,660,653,645,639,632,616,610,606,604,601,593,584,572,561,552,540,536,532,528,526,521,516,513,510,507,504,503,500,499,497,497,497,497,497,496,496,496,496,495],"ymouse":[657,657,657,657,657,657,657,657,657,657,657,657,657,657,657,657,657,657,657,657,657,657,657,655,649,645,642,641,639,637,637,637,637,637,637,637,637,637,637,637,637,637,637,636,614,566,517,485,456,395,369,344,324,309,281,264,250,241,235,217,200,186,176,167,161,160,158,158,157,155,152,150,146,142,132,129,122,116,110,108,108,108,107,106,103,102,100,95],"timestamp_mouse":[10,35,50,70,90,110,129,149,171,190,209,230,250,271,289,309,331,350,370,389,409,429,449,469,489,509,530,550,569,589,609,629,650,669,689,709,729,751,771,789,810,829,851,869,889,909,929,950,970,989,1009,1029,1049,1069,1089,1109,1130,1149,1170,1189,1209,1230,1249,1269,1289,1310,1329,1349,1369,1389,1410,1429,1450,1471,1489,1509,1529,1549,1569,1590,1610,1629,1650,1669,1689,1711,1729,1749],"xSR":741.5,"ySR":573.95,"xT1":424.9,"yT1":0,"xT2":1058.1,"yT2":0,"toosoon":0,"cond_shown":"randomdotsizeEA","ratio_trial":750,"smaller_num":"6","larger_num":"8","correct_side":1,"subjID":"SuhaylMarianaBarrantesAlvarado20","gender":"1","age":"10","school":"6"},{"start_time":1551901495993,"click_time":1551901497042,"finger_time":1551901496641,"fix_duration":768.5937427061998,"trial":13,"RT":648,"MT":401,"sideResp":1,"stimulus":"img/500/equaldotanddens/L/8_Ratio_500_L_8_R_4.png","xmouse":[777,777,777,777,777,777,777,777,777,777,777,777,777,777,777,777,777,777,777,777,777,777,777,777,777,777,777,778,778,778,778,776,763,754,742,725,709,662,628,589,562,550,539,538,537,533,529,521,512,506,501,492,477],"ymouse":[615,615,615,615,615,615,615,615,615,615,615,615,615,615,615,615,615,615,615,615,615,615,615,615,615,615,615,609,604,599,595,587,554,535,508,479,449,377,337,302,275,259,243,243,241,239,237,229,219,209,189,157,71],"timestamp_mouse":[10,33,49,70,90,109,130,148,170,188,210,229,250,270,289,310,329,349,370,389,409,429,450,468,489,509,529,548,569,589,609,630,648,669,688,709,729,748,768,789,810,828,848,870,888,908,928,948,968,988,1009,1028,1049],"xSR":741.5,"ySR":573.95,"xT1":424.9,"yT1":0,"xT2":1058.1,"yT2":0,"toosoon":0,"cond_shown":"equaldotanddens","ratio_trial":500,"smaller_num":"4","larger_num":"8","correct_side":1,"subjID":"SuhaylMarianaBarrantesAlvarado20","gender":"1","age":"10","school":"6"},{"start_time":1551901498435,"click_time":1551901499663,"finger_time":1551901498842,"fix_duration":292.5010419358407,"trial":14,"RT":407,"MT":821,"sideResp":1,"stimulus":"img/500/equaldotanddens/L/5_Ratio_500_L_4_R_2.png","xmouse":[806,806,806,806,806,806,806,806,806,806,806,806,806,806,806,806,806,806,807,807,805,803,802,801,801,801,801,801,799,799,796,794,789,782,777,773,773,771,761,743,657,595,534,483,441,427,425,426,427,427,427,427,427,427,427,428,428,429,429,431,432],"ymouse":[602,602,602,603,603,603,603,603,603,603,603,603,603,603,603,603,599,591,578,562,532,525,520,517,516,515,513,508,500,496,483,473,457,444,432,425,425,420,402,375,289,246,215,192,172,159,145,133,126,120,114,114,114,114,114,112,109,107,104,100,95],"timestamp_mouse":[29,47,67,87,108,128,147,167,188,207,227,247,266,288,307,328,347,366,386,407,428,448,467,487,506,527,547,567,587,607,627,647,667,686,708,727,747,767,787,807,827,847,866,886,908,927,947,967,987,1007,1027,1047,1067,1086,1107,1127,1147,1166,1187,1207,1228],"xSR":741.5,"ySR":573.95,"xT1":424.9,"yT1":0,"xT2":1058.1,"yT2":0,"toosoon":0,"cond_shown":"equaldotanddens","ratio_trial":500,"smaller_num":"2","larger_num":"4","correct_side":1,"subjID":"SuhaylMarianaBarrantesAlvarado20","gender":"1","age":"10","school":"6"},{"start_time":1551901500934,"click_time":1551901502123,"finger_time":1551901501302,"fix_duration":250,"trial":15,"RT":368,"MT":821,"sideResp":2,"stimulus":"img/500/randomdotsizeEA/R/12_Ratio_500_L_1_R_2.png","xmouse":[765,765,765,765,765,765,765,765,765,765,765,765,766,767,767,768,769,769,769,769,769,769,769,770,772,774,791,809,829,850,874,913,924,931,940,949,973,985,1000,1011,1013,1015,1017,1020,1024,1031,1051,1059,1063,1066,1067,1074,1081,1083,1083,1083,1083,1085,1086,1092],"ymouse":[638,638,638,638,638,638,638,638,638,638,638,638,638,636,631,620,590,577,567,564,563,562,557,552,545,542,540,540,540,535,528,503,484,462,440,418,384,371,361,351,342,321,303,290,276,260,214,193,178,170,162,139,124,118,116,116,114,110,104,93],"timestamp_mouse":[10,42,48,68,88,107,127,148,168,188,208,228,247,268,288,307,328,348,367,388,409,428,447,468,487,507,528,548,568,588,609,628,647,668,689,708,728,748,767,788,809,828,848,868,888,907,928,948,967,988,1008,1027,1049,1067,1089,1108,1129,1149,1168,1189],"xSR":741.5,"ySR":573.95,"xT1":424.9,"yT1":0,"xT2":1058.1,"yT2":0,"toosoon":0,"cond_shown":"randomdotsizeEA","ratio_trial":500,"smaller_num":"1","larger_num":"2","correct_side":2,"subjID":"SuhaylMarianaBarrantesAlvarado20","gender":"1","age":"10","school":"6"},{"start_time":1551901507080,"click_time":1551901507982,"finger_time":1551901507442,"fix_duration":1096.4161386389421,"trial":16,"RT":362,"MT":540,"sideResp":1,"stimulus":"img/500/equaldotsize/L/5_Ratio_500_L_4_R_2.png","xmouse":[784,784,784,784,784,784,784,784,784,784,784,784,784,784,785,788,788,788,785,774,765,754,740,726,676,649,621,603,585,561,556,550,546,544,544,542,542,541,538,524,513,503,491,482,462,453],"ymouse":[634,634,634,634,634,634,634,634,634,634,634,634,634,633,622,607,591,576,562,531,513,493,474,454,408,387,365,346,323,286,265,238,211,169,162,159,159,158,154,139,132,128,122,118,107,98],"timestamp_mouse":[12,34,42,62,82,103,123,142,163,182,201,222,242,263,282,302,321,343,362,382,402,421,442,463,482,501,522,542,561,582,603,622,642,663,682,702,722,742,762,781,801,821,842,863,882,902],"xSR":741.5,"ySR":573.95,"xT1":424.9,"yT1":0,"xT2":1058.1,"yT2":0,"toosoon":0,"cond_shown":"equaldotsize","ratio_trial":500,"smaller_num":"2","larger_num":"4","correct_side":1,"subjID":"SuhaylMarianaBarrantesAlvarado20","gender":"1","age":"10","school":"6"},{"start_time":1551901509352,"click_time":1551901514463,"finger_time":1551901513562,"fix_duration":509.60719619084006,"trial":17,"RT":4210,"MT":901,"sideResp":1,"stimulus":"img/250/equaldotanddens/L/1_Ratio_250_L_8_R_2.png","xmouse":[793,792,792,792,792,793,793,793,793,793,793,793,793,793,793,793,793,793,793,793,793,793,793,793,793,793,793,793,793,793,793,793,793,793,793,793,793,793,793,793,793,793,793,793,793,793,793,793,793,793,793,793,793,793,793,793,793,793,793,793,793,793,793,793,793,793,793,793,793,793,793,793,793,793,793,793,793,793,793,793,793,793,793,793,793,793,793,793,793,793,793,793,793,793,793,793,793,793,793,793,793,793,793,793,793,793,793,793,793,793,793,793,793,793,793,793,793,793,793,793,793,793,793,793,793,793,793,793,793,793,793,793,793,793,793,793,793,793,793,793,793,793,793,793,793,793,793,793,793,793,793,793,793,793,793,793,793,793,793,793,793,793,793,793,793,793,793,793,793,793,793,793,793,793,793,793,793,793,793,793,793,793,793,793,793,793,793,793,793,793,793,793,793,793,793,793,793,793,793,793,793,793,793,793,793,793,788,783,773,735,708,679,649,632,617,610,603,596,589,582,579,573,567,561,553,544,538,537,536,530,529,529,529,529,529,529,529,528,526,524,524,523,521,521,521,521,521,521,521,521,521,520,518,517,508],"ymouse":[662,659,658,657,656,654,654,654,654,654,654,654,654,654,654,654,654,654,654,654,654,654,654,654,654,654,654,654,654,654,654,654,654,654,654,654,654,654,654,654,654,654,654,654,654,654,654,654,654,654,654,654,654,654,654,654,654,654,654,654,654,654,654,654,654,654,654,654,654,654,654,654,654,654,654,654,654,654,654,654,654,654,654,654,654,654,654,654,654,654,654,654,654,654,654,654,654,654,654,654,654,654,654,654,654,654,654,654,654,654,654,654,654,654,654,654,654,654,654,654,654,654,654,654,654,654,654,654,654,654,654,654,654,654,654,654,654,654,654,654,654,654,654,654,654,654,654,654,654,654,654,654,654,654,654,654,654,654,654,654,654,654,654,654,654,654,654,654,654,654,654,654,654,654,654,654,654,654,654,654,654,654,654,654,654,654,654,654,654,654,654,654,654,654,654,654,654,654,654,654,654,654,654,654,654,649,638,615,584,493,445,397,333,295,262,254,245,240,233,226,221,214,208,201,194,183,175,172,168,154,148,145,142,140,140,139,137,131,126,121,120,117,116,114,114,114,114,114,114,114,114,113,111,105,90],"timestamp_mouse":[30,50,71,89,111,129,151,169,191,209,230,250,271,289,309,330,350,371,389,410,430,449,470,490,509,531,550,570,590,610,629,649,670,690,711,729,750,770,790,811,830,850,871,889,911,930,951,971,990,1010,1030,1051,1071,1091,1110,1130,1150,1171,1190,1210,1230,1251,1271,1291,1311,1331,1350,1371,1390,1410,1431,1449,1471,1490,1509,1530,1550,1570,1591,1610,1630,1649,1671,1689,1711,1731,1751,1771,1790,1811,1831,1850,1869,1890,1910,1931,1950,1971,1990,2010,2031,2050,2070,2089,2111,2130,2151,2170,2191,2211,2229,2251,2271,2290,2310,2331,2349,2371,2390,2410,2431,2449,2471,2491,2511,2530,2549,2570,2591,2610,2631,2650,2669,2689,2711,2731,2749,2770,2790,2811,2830,2850,2871,2890,2910,2931,2950,2971,2990,3011,3030,3049,3070,3091,3111,3131,3151,3170,3190,3211,3230,3251,3269,3290,3310,3330,3350,3369,3389,3410,3431,3449,3470,3491,3509,3531,3551,3570,3591,3611,3630,3650,3670,3691,3711,3731,3751,3770,3791,3809,3831,3851,3870,3891,3909,3930,3950,3969,3991,4009,4030,4050,4070,4090,4110,4129,4150,4170,4191,4210,4231,4250,4271,4290,4309,4330,4349,4370,4390,4410,4431,4450,4471,4491,4509,4530,4550,4569,4591,4610,4630,4650,4670,4690,4711,4729,4751,4770,4789,4809,4830,4849,4871,4890,4911,4931,4949,4969,4990,5010,5030,5051,5071,5089,5111],"xSR":741.5,"ySR":573.95,"xT1":424.9,"yT1":0,"xT2":1058.1,"yT2":0,"toosoon":0,"cond_shown":"equaldotanddens","ratio_trial":250,"smaller_num":"2","larger_num":"8","correct_side":1,"subjID":"SuhaylMarianaBarrantesAlvarado20","gender":"1","age":"10","school":"6"},{"start_time":1551901516467,"click_time":1551901517762,"finger_time":1551901516901,"fix_duration":903.5858752759034,"trial":18,"RT":434,"MT":861,"sideResp":1,"stimulus":"img/900/randomdotsizeEA/R/5_Ratio_900_L_9_R_10.png","xmouse":[786,786,786,786,786,786,786,786,786,786,786,786,786,786,786,786,786,786,786,782,777,770,765,758,755,751,739,735,733,730,728,724,720,715,693,683,669,645,635,631,628,625,622,621,621,621,621,618,612,603,598,590,580,578,578,578,578,567,553,534,530,529,528,525,518],"ymouse":[633,633,633,633,633,633,633,633,633,633,633,633,633,633,633,633,633,628,616,592,580,569,561,550,546,539,524,519,513,502,493,482,469,460,433,419,394,351,335,328,325,320,316,310,304,304,303,301,298,288,254,199,161,149,143,128,100,52,32,22,21,21,21,21,22],"timestamp_mouse":[16,39,55,75,95,115,136,155,176,195,215,236,256,276,295,315,335,355,375,395,416,434,454,475,495,515,534,556,574,596,615,635,656,675,695,715,735,755,776,794,815,834,855,876,895,915,934,955,975,994,1014,1034,1055,1076,1094,1116,1135,1155,1174,1195,1216,1235,1255,1275,1295],"xSR":741.5,"ySR":573.95,"xT1":424.9,"yT1":0,"xT2":1058.1,"yT2":0,"toosoon":0,"cond_shown":"randomdotsizeEA","ratio_trial":900,"smaller_num":"9","larger_num":"10","correct_side":2,"subjID":"SuhaylMarianaBarrantesAlvarado20","gender":"1","age":"10","school":"6"},{"start_time":1551901521684,"click_time":1551901522602,"finger_time":1551901522201,"fix_duration":1138.4336690024295,"trial":19,"RT":517,"MT":401,"sideResp":2,"stimulus":"img/900/equaldotsize/R/7_Ratio_900_L_9_R_10.png","xmouse":[789,789,789,789,789,789,789,789,789,789,789,789,789,789,789,789,789,789,789,789,789,789,789,791,796,811,849,899,999,1044,1080,1112,1133,1154,1157,1160,1165,1171,1174,1174,1174,1173,1172,1166,1160,1158],"ymouse":[583,583,583,583,583,583,583,583,583,583,583,583,583,583,583,583,583,583,583,583,583,583,583,580,575,560,532,496,415,373,321,267,233,195,186,175,153,136,113,110,110,108,106,99,96,95],"timestamp_mouse":[20,40,58,78,98,117,139,157,179,199,217,237,259,279,298,318,337,358,379,397,419,438,459,478,498,517,538,557,579,598,619,637,658,677,698,718,738,757,777,799,819,838,859,878,899,918],"xSR":741.5,"ySR":573.95,"xT1":424.9,"yT1":0,"xT2":1058.1,"yT2":0,"toosoon":0,"cond_shown":"equaldotsize","ratio_trial":900,"smaller_num":"9","larger_num":"10","correct_side":2,"subjID":"SuhaylMarianaBarrantesAlvarado20","gender":"1","age":"10","school":"6"},{"start_time":1551901524094,"click_time":1551901525243,"finger_time":1551901524721,"fix_duration":250,"trial":20,"RT":627,"MT":522,"sideResp":1,"stimulus":"img/750/equaldotsize/L/13_Ratio_750_L_8_R_6.png","xmouse":[798,798,798,798,798,798,798,798,798,798,798,798,798,798,798,798,798,798,798,798,798,798,798,798,798,798,798,790,776,765,758,752,735,721,700,662,634,583,460,432,421,416,413,409,402,400,398,398,401,409,420,429,433,435,435,435,437,441],"ymouse":[637,637,637,637,637,637,637,637,637,637,637,637,637,637,637,637,637,637,637,637,637,637,637,637,637,637,637,624,600,584,575,568,555,547,535,507,472,411,290,268,258,252,242,217,201,196,186,168,158,145,131,121,111,107,107,105,102,99],"timestamp_mouse":[10,30,48,68,87,109,127,148,168,188,209,227,249,269,289,308,328,349,367,388,409,427,448,467,489,508,528,549,568,588,608,627,648,667,688,707,728,748,769,788,807,827,848,868,888,908,928,949,968,988,1007,1027,1047,1069,1088,1107,1129,1149],"xSR":741.5,"ySR":573.95,"xT1":424.9,"yT1":0,"xT2":1058.1,"yT2":0,"toosoon":0,"cond_shown":"equaldotsize","ratio_trial":750,"smaller_num":"6","larger_num":"8","correct_side":1,"subjID":"SuhaylMarianaBarrantesAlvarado20","gender":"1","age":"10","school":"6"},{"start_time":1551901526960,"click_time":1551901527662,"finger_time":1551901527442,"fix_duration":496.4412181600111,"trial":21,"RT":482,"MT":220,"sideResp":1,"stimulus":"img/250/equaldotsize/L/7_Ratio_250_L_8_R_2.png","xmouse":[781,781,781,781,781,781,781,781,781,781,781,781,781,781,781,781,781,781,781,781,782,782,781,778,775,766,754,744,731,713,645,607,560,552,542,516],"ymouse":[636,636,636,636,636,636,636,636,636,636,636,636,636,636,636,636,636,636,636,636,633,626,597,582,573,550,530,509,477,419,255,186,129,120,106,54],"timestamp_mouse":[10,38,42,61,83,101,121,143,161,182,203,221,242,262,282,302,323,342,363,383,402,421,442,463,482,503,523,542,562,583,601,623,642,663,681,701],"xSR":741.5,"ySR":573.95,"xT1":424.9,"yT1":0,"xT2":1058.1,"yT2":0,"toosoon":0,"cond_shown":"equaldotsize","ratio_trial":250,"smaller_num":"2","larger_num":"8","correct_side":1,"subjID":"SuhaylMarianaBarrantesAlvarado20","gender":"1","age":"10","school":"6"},{"start_time":1551901529013,"click_time":1551901530162,"finger_time":1551901529461,"fix_duration":250,"trial":22,"RT":448,"MT":701,"sideResp":2,"stimulus":"img/900/equaldotanddens/L/4_Ratio_900_L_20_R_18.png","xmouse":[759,759,762,763,763,763,763,763,763,763,763,763,763,763,763,763,763,763,763,765,772,781,803,816,831,843,858,890,895,912,923,935,958,972,994,1017,1037,1061,1066,1066,1066,1066,1070,1071,1071,1070,1069,1069,1067,1065,1064,1064,1064,1064,1065,1068,1072,1085],"ymouse":[629,629,628,628,628,628,627,627,627,627,627,627,627,627,627,627,627,627,627,627,616,600,566,552,540,528,519,486,480,456,441,422,384,360,332,310,292,262,233,217,204,187,160,146,137,131,129,128,126,122,119,116,115,114,112,107,102,88],"timestamp_mouse":[10,31,49,69,89,109,130,150,169,190,209,230,250,269,289,309,330,350,369,389,410,428,448,469,489,509,529,548,569,589,609,628,648,669,689,709,729,749,769,789,808,829,849,869,889,909,929,948,969,988,1009,1030,1049,1069,1089,1109,1130,1149],"xSR":741.5,"ySR":573.95,"xT1":424.9,"yT1":0,"xT2":1058.1,"yT2":0,"toosoon":0,"cond_shown":"equaldotanddens","ratio_trial":900,"smaller_num":"18","larger_num":"20","correct_side":1,"subjID":"SuhaylMarianaBarrantesAlvarado20","gender":"1","age":"10","school":"6"},{"start_time":1551901531547,"click_time":1551901539642,"finger_time":1551901539102,"fix_duration":384.4800054739964,"trial":23,"RT":7555,"MT":540,"sideResp":1,"stimulus":"img/750/equaldotanddens/R/5_Ratio_750_L_15_R_20.png","xmouse":[772,772,772,772,772,772,772,772,772,772,772,772,772,772,772,772,772,772,772,772,772,772,772,772,772,772,772,772,772,772,772,772,772,772,772,772,772,772,772,772,772,772,772,772,772,772,772,772,772,772,772,772,772,772,772,772,772,772,772,772,772,772,772,772,772,772,772,772,772,772,772,772,772,772,772,772,772,772,772,772,772,772,772,772,772,772,772,772,772,772,772,772,772,772,772,772,772,772,772,772,772,772,772,772,772,772,772,772,772,772,772,772,772,772,772,772,772,772,772,772,772,772,772,772,772,772,772,772,772,772,772,772,772,772,772,772,772,772,772,772,772,772,772,772,772,772,772,772,772,772,772,772,772,772,772,772,772,772,772,772,772,772,772,772,772,772,772,772,772,772,772,772,772,772,772,772,772,772,772,772,772,772,772,772,772,772,772,772,772,772,772,772,772,772,772,772,772,772,772,772,772,772,772,772,772,772,772,772,772,772,772,772,772,772,772,772,772,772,772,772,772,772,772,772,772,772,772,772,772,772,772,772,772,772,772,772,772,772,772,772,772,772,772,772,772,772,772,772,772,772,772,772,772,772,772,772,772,772,772,772,772,772,772,772,772,772,772,772,772,772,772,772,772,772,772,772,772,772,772,772,772,772,772,772,772,772,772,772,772,772,772,772,772,772,772,772,772,772,772,772,772,772,772,772,772,772,772,772,772,772,772,772,772,772,772,772,772,772,772,772,772,772,772,772,772,772,772,772,772,772,772,772,772,772,772,772,772,772,772,772,772,772,772,772,772,772,772,772,772,772,772,772,772,772,772,772,772,772,772,772,772,772,772,772,772,772,772,772,772,772,772,791,819,829,829,829,823,786,734,595,476,423,398,389,381,378,376,376,376,376,376,376,376,380,392,396,401,405,410,417,418,420,422,425],"ymouse":[619,619,619,619,619,619,619,619,619,619,619,619,619,619,619,619,619,619,619,619,619,619,619,619,619,619,619,619,619,619,619,619,619,619,619,619,619,619,619,619,619,619,619,619,619,619,619,619,619,619,619,619,619,619,619,619,619,619,619,619,619,619,619,619,619,619,619,619,619,619,619,619,619,619,619,619,619,619,619,619,619,619,619,619,619,619,619,619,619,619,619,619,619,619,619,619,619,619,619,619,619,619,619,619,619,619,619,619,619,619,619,619,619,619,619,619,619,619,619,619,619,619,619,619,619,619,619,619,619,619,619,619,619,619,619,619,619,619,619,619,619,619,619,619,619,619,619,619,619,619,619,619,619,619,619,619,619,619,619,619,619,619,619,619,619,619,619,619,619,619,619,619,619,619,619,619,619,619,619,619,619,619,619,619,619,619,619,619,619,619,619,619,619,619,619,619,619,619,619,619,619,619,619,619,619,619,619,619,619,619,619,619,619,619,619,619,619,619,619,619,619,619,619,619,619,619,619,619,619,619,619,619,619,619,619,619,619,619,619,619,619,619,619,619,619,619,619,619,619,619,619,619,619,619,619,619,619,619,619,619,619,619,619,619,619,619,619,619,619,619,619,619,619,619,619,619,619,619,619,619,619,619,619,619,619,619,619,619,619,619,619,619,619,619,619,619,619,619,619,619,619,619,619,619,619,619,619,619,619,619,619,619,619,619,619,619,619,619,619,619,619,619,619,619,619,619,619,619,619,619,619,619,619,619,619,619,619,619,619,619,619,619,619,619,619,619,619,619,619,619,619,619,619,619,619,619,619,619,619,619,619,619,619,619,619,619,619,619,619,619,618,600,580,578,578,577,561,482,364,103,0,0,0,0,0,0,0,0,0,0,0,0,1,6,28,38,49,56,61,64,64,64,64,64],"timestamp_mouse":[36,55,76,96,115,134,156,176,195,216,234,255,275,295,315,335,355,375,396,416,436,455,475,495,515,535,555,575,596,615,636,656,675,695,715,734,755,776,795,815,836,855,875,895,915,935,955,974,995,1014,1036,1055,1075,1096,1115,1135,1154,1175,1195,1214,1235,1254,1275,1295,1314,1335,1355,1376,1396,1416,1435,1455,1475,1495,1516,1534,1555,1576,1595,1616,1634,1656,1675,1696,1716,1735,1756,1776,1794,1814,1835,1856,1875,1896,1915,1936,1956,1976,1996,2015,2035,2056,2075,2095,2116,2136,2155,2176,2196,2216,2234,2256,2276,2296,2315,2336,2355,2376,2395,2415,2436,2456,2476,2495,2515,2536,2556,2575,2595,2615,2636,2655,2676,2695,2715,2735,2756,2775,2796,2816,2836,2854,2876,2895,2915,2936,2956,2975,2996,3015,3036,3055,3075,3096,3115,3136,3155,3175,3195,3216,3236,3255,3275,3294,3315,3334,3355,3375,3394,3416,3435,3455,3476,3495,3514,3536,3554,3575,3596,3616,3636,3656,3674,3696,3715,3734,3756,3776,3796,3816,3835,3856,3876,3895,3916,3934,3955,3976,3995,4016,4036,4054,4074,4095,4115,4136,4154,4176,4196,4215,4236,4255,4275,4296,4314,4335,4355,4376,4394,4416,4435,4455,4475,4496,4515,4536,4554,4575,4596,4615,4635,4656,4674,4696,4716,4736,4755,4775,4796,4816,4835,4856,4874,4895,4914,4935,4956,4974,4996,5015,5035,5055,5075,5096,5116,5135,5156,5174,5194,5216,5235,5255,5274,5296,5315,5335,5355,5375,5395,5415,5435,5455,5476,5494,5516,5536,5556,5575,5595,5615,5635,5656,5676,5695,5716,5735,5754,5775,5796,5814,5834,5855,5875,5896,5914,5936,5955,5975,5996,6015,6034,6055,6075,6095,6115,6135,6154,6175,6195,6214,6236,6255,6275,6295,6315,6334,6355,6376,6394,6414,6434,6455,6475,6496,6515,6534,6555,6575,6595,6616,6636,6656,6675,6695,6716,6736,6755,6775,6796,6815,6836,6856,6876,6895,6915,6935,6955,6974,6996,7015,7035,7055,7075,7096,7114,7136,7155,7175,7195,7215,7235,7255,7275,7294,7314,7334,7355,7376,7395,7415,7435,7455,7475,7496,7516,7534,7555,7575,7595,7615,7636,7654,7676,7695,7716,7734,7755,7775,7796,7815,7836,7856,7875,7894,7915,7936,7955,7974,7995,8014,8035,8055,8075,8095],"xSR":741.5,"ySR":573.95,"xT1":424.9,"yT1":0,"xT2":1058.1,"yT2":0,"toosoon":0,"cond_shown":"equaldotanddens","ratio_trial":750,"smaller_num":"15","larger_num":"20","correct_side":2,"subjID":"SuhaylMarianaBarrantesAlvarado20","gender":"1","age":"10","school":"6"},{"start_time":1551901541033,"click_time":1551901541862,"finger_time":1551901541463,"fix_duration":250,"trial":24,"RT":430,"MT":399,"sideResp":2,"stimulus":"img/250/equaldotanddens/R/6_Ratio_250_L_6_R_24.png","xmouse":[772,772,772,772,772,772,772,772,772,772,772,772,772,772,772,772,772,772,775,786,824,920,970,1022,1055,1079,1115,1129,1148,1163,1180,1199,1201,1201,1201,1201,1195,1193,1192,1185,1173,1114],"ymouse":[651,651,651,651,651,651,651,651,651,651,651,651,651,651,651,651,651,651,649,640,607,492,430,371,336,310,288,278,261,240,206,159,151,146,142,140,132,130,129,120,106,61],"timestamp_mouse":[10,30,49,70,90,110,129,149,169,190,209,230,249,270,290,308,330,350,369,389,409,430,449,468,489,509,528,550,569,588,609,629,649,669,688,709,728,749,769,790,810,829],"xSR":741.5,"ySR":573.95,"xT1":424.9,"yT1":0,"xT2":1058.1,"yT2":0,"toosoon":0,"cond_shown":"equaldotanddens","ratio_trial":250,"smaller_num":"6","larger_num":"24","correct_side":2,"subjID":"SuhaylMarianaBarrantesAlvarado20","gender":"1","age":"10","school":"6"},{"start_time":1551901543812,"click_time":1551901544482,"finger_time":1551901544161,"fix_duration":807.7044870853996,"trial":25,"RT":349,"MT":321,"sideResp":2,"stimulus":"img/900/equaldotanddens/R/9_Ratio_900_L_18_R_20.png","xmouse":[777,777,777,777,777,776,776,776,776,776,776,776,776,776,776,776,776,779,788,803,813,822,852,869,889,903,915,946,981,1011,1043,1069,1097,1106],"ymouse":[648,648,648,648,648,647,647,647,647,647,647,647,647,643,638,624,604,488,423,361,339,324,290,271,251,237,225,202,177,159,141,125,104,97],"timestamp_mouse":[10,32,50,70,89,111,130,150,171,190,211,231,251,270,289,310,330,349,370,390,410,430,450,470,490,510,531,550,569,589,610,630,650,670],"xSR":741.5,"ySR":573.95,"xT1":424.9,"yT1":0,"xT2":1058.1,"yT2":0,"toosoon":0,"cond_shown":"equaldotanddens","ratio_trial":900,"smaller_num":"18","larger_num":"20","correct_side":2,"subjID":"SuhaylMarianaBarrantesAlvarado20","gender":"1","age":"10","school":"6"},{"start_time":1551901548912,"click_time":1551901550063,"finger_time":1551901549402,"fix_duration":1008.1073091417541,"trial":26,"RT":490,"MT":661,"sideResp":1,"stimulus":"img/750/equaldotanddens/L/8_Ratio_750_L_4_R_3.png","xmouse":[787,787,787,787,787,787,787,787,787,787,787,786,782,779,778,778,777,777,776,776,776,776,777,778,779,780,773,755,744,733,715,695,657,653,639,628,621,611,607,604,601,597,575,544,530,526,525,521,519,517,516,514,510,508,507,507,506,505],"ymouse":[671,671,671,671,671,671,671,671,671,671,671,671,663,653,649,647,644,636,628,622,616,612,604,593,563,521,471,410,389,374,355,336,294,287,270,260,253,235,224,215,208,205,187,167,157,154,153,148,146,144,139,134,122,116,111,108,105,98],"timestamp_mouse":[10,29,50,71,90,110,130,150,170,189,210,229,250,269,290,311,330,350,370,390,409,430,450,471,490,509,529,549,571,591,610,630,649,669,689,710,729,750,770,789,810,830,850,870,891,910,930,950,971,990,1009,1030,1051,1069,1089,1110,1130,1151],"xSR":741.5,"ySR":573.95,"xT1":424.9,"yT1":0,"xT2":1058.1,"yT2":0,"toosoon":0,"cond_shown":"equaldotanddens","ratio_trial":750,"smaller_num":"3","larger_num":"4","correct_side":1,"subjID":"SuhaylMarianaBarrantesAlvarado20","gender":"1","age":"10","school":"6"},{"start_time":1551901553626,"click_time":1551901554921,"finger_time":1551901554082,"fix_duration":1162.378316047303,"trial":27,"RT":456,"MT":839,"sideResp":1,"stimulus":"img/900/equaldotsize/L/1_Ratio_900_L_10_R_9.png","xmouse":[832,832,832,832,832,832,832,832,832,832,832,832,832,832,832,832,832,832,831,829,825,817,817,817,820,825,835,856,872,887,904,938,954,965,970,973,974,974,964,937,891,744,660,595,546,521,495,482,473,469,465,456,448,445,441,440,435,435,435,435,435,432,429,426,426],"ymouse":[668,668,668,668,668,668,668,668,668,668,668,668,668,668,668,668,668,668,663,657,640,589,560,534,515,493,444,395,368,344,322,293,285,279,275,273,268,266,259,255,251,251,251,251,251,251,244,234,227,221,213,199,187,180,167,160,152,152,152,152,152,146,133,100,41],"timestamp_mouse":[16,36,57,75,95,117,137,155,177,196,217,237,256,275,297,316,337,356,376,396,415,436,456,476,497,516,536,555,576,596,616,637,656,675,696,717,736,756,775,795,816,836,856,877,895,915,936,956,975,997,1016,1037,1056,1076,1095,1116,1137,1156,1175,1197,1216,1236,1257,1275,1295],"xSR":741.5,"ySR":573.95,"xT1":424.9,"yT1":0,"xT2":1058.1,"yT2":0,"toosoon":0,"cond_shown":"equaldotsize","ratio_trial":900,"smaller_num":"9","larger_num":"10","correct_side":1,"subjID":"SuhaylMarianaBarrantesAlvarado20","gender":"1","age":"10","school":"6"},{"start_time":1551901557221,"click_time":1551901558081,"finger_time":1551901557682,"fix_duration":1278.8977827163114,"trial":28,"RT":461,"MT":399,"sideResp":1,"stimulus":"img/250/equaldotanddens/L/14_Ratio_250_L_12_R_3.png","xmouse":[792,792,792,792,792,792,792,792,792,792,792,792,792,792,792,792,792,792,792,792,792,790,790,790,790,783,775,754,737,718,711,704,690,680,675,670,665,650,646,623,595,547,466,445],"ymouse":[635,635,635,635,635,635,635,635,635,635,635,635,635,635,635,635,635,635,635,635,635,626,579,516,478,439,410,369,346,322,314,303,279,263,253,242,237,218,215,205,190,158,106,94],"timestamp_mouse":[9,20,40,59,80,100,119,140,159,180,201,220,239,261,281,300,321,341,359,380,401,420,441,461,479,500,520,539,560,580,601,619,639,660,679,700,720,739,761,780,801,820,840,859],"xSR":741.5,"ySR":573.95,"xT1":424.9,"yT1":0,"xT2":1058.1,"yT2":0,"toosoon":0,"cond_shown":"equaldotanddens","ratio_trial":250,"smaller_num":"3","larger_num":"12","correct_side":1,"subjID":"SuhaylMarianaBarrantesAlvarado20","gender":"1","age":"10","school":"6"},{"start_time":1551901559907,"click_time":1551901561361,"finger_time":1551901560721,"fix_duration":945.1218974572806,"trial":29,"RT":814,"MT":640,"sideResp":2,"stimulus":"img/250/equaldotanddens/R/9_Ratio_250_L_3_R_12.png","xmouse":[800,800,800,800,800,800,800,800,800,800,800,800,800,800,800,800,800,800,800,800,800,800,800,800,800,800,800,800,800,800,800,800,800,800,800,798,798,797,797,802,822,859,983,1065,1100,1123,1143,1153,1153,1153,1152,1152,1152,1153,1153,1149,1141,1124,1119,1114,1110,1108,1106,1106,1106,1106,1106,1106,1106,1106,1106,1106,1106],"ymouse":[607,607,607,607,607,607,607,607,607,607,607,607,607,607,607,607,607,607,607,607,607,607,607,607,607,607,607,607,607,607,607,607,607,607,604,598,593,593,591,587,573,553,487,446,424,405,387,362,359,354,347,335,299,283,265,248,239,220,213,202,190,179,155,142,135,133,131,125,124,122,119,115,97],"timestamp_mouse":[14,35,53,75,95,114,134,153,174,195,213,235,254,273,295,314,335,355,375,394,415,435,453,474,495,514,535,555,574,595,615,634,653,675,694,713,734,754,774,793,814,834,854,875,895,914,934,954,974,993,1014,1035,1054,1074,1094,1114,1134,1155,1174,1193,1213,1234,1253,1274,1294,1314,1333,1353,1373,1394,1414,1435,1454],"xSR":741.5,"ySR":573.95,"xT1":424.9,"yT1":0,"xT2":1058.1,"yT2":0,"toosoon":0,"cond_shown":"equaldotanddens","ratio_trial":250,"smaller_num":"3","larger_num":"12","correct_side":2,"subjID":"SuhaylMarianaBarrantesAlvarado20","gender":"1","age":"10","school":"6"},{"start_time":1551901566268,"click_time":1551901567381,"finger_time":1551901566720,"fix_duration":804.2812007261474,"trial":30,"RT":452,"MT":661,"sideResp":1,"stimulus":"img/250/equaldotanddens/L/1_Ratio_250_L_8_R_2.png","xmouse":[765,765,765,765,765,765,765,765,765,765,765,765,765,765,765,765,765,765,765,765,763,754,728,697,630,599,583,569,553,551,548,545,542,531,518,496,485,477,469,452,448,446,444,444,445,445,445,445,451,457,464,472,484,497,513,516],"ymouse":[668,668,668,668,668,668,668,668,668,668,668,668,668,668,668,668,668,668,668,668,663,651,617,580,516,486,470,454,426,416,405,396,387,367,348,325,309,292,273,231,213,197,180,169,160,160,160,160,156,149,142,133,124,115,102,95],"timestamp_mouse":[13,38,53,74,92,113,133,154,173,193,213,233,253,273,293,314,333,352,374,392,413,434,452,474,493,514,534,553,574,593,613,633,654,674,693,713,732,753,773,794,813,833,853,874,893,913,932,954,974,993,1013,1033,1052,1074,1093,1113],"xSR":741.5,"ySR":573.95,"xT1":424.9,"yT1":0,"xT2":1058.1,"yT2":0,"toosoon":0,"cond_shown":"equaldotanddens","ratio_trial":250,"smaller_num":"2","larger_num":"8","correct_side":1,"subjID":"SuhaylMarianaBarrantesAlvarado20","gender":"1","age":"10","school":"6"},{"start_time":1551901570814,"click_time":1551901571761,"finger_time":1551901571260,"fix_duration":812.2138907191427,"trial":31,"RT":446,"MT":501,"sideResp":2,"stimulus":"img/500/equaldotanddens/R/1_Ratio_500_L_9_R_18.png","xmouse":[812,813,817,819,820,821,821,821,821,821,821,821,821,821,821,821,821,821,821,821,821,823,850,864,884,904,922,963,971,987,1001,1013,1037,1043,1045,1045,1045,1045,1046,1052,1062,1069,1072,1072,1072,1072,1072,1074],"ymouse":[632,631,632,632,632,633,633,633,633,633,633,633,633,633,633,633,633,633,633,633,633,633,565,532,496,463,432,352,332,277,233,198,159,146,137,131,127,124,123,118,114,109,106,106,106,106,105,95],"timestamp_mouse":[10,34,46,66,87,107,127,148,166,186,208,226,247,268,288,307,327,348,367,387,407,427,446,467,488,507,527,547,567,588,606,626,647,667,687,707,727,747,766,787,807,828,846,867,887,907,927,946],"xSR":741.5,"ySR":573.95,"xT1":424.9,"yT1":0,"xT2":1058.1,"yT2":0,"toosoon":0,"cond_shown":"equaldotanddens","ratio_trial":500,"smaller_num":"9","larger_num":"18","correct_side":2,"subjID":"SuhaylMarianaBarrantesAlvarado20","gender":"1","age":"10","school":"6"},{"start_time":1551901573481,"click_time":1551901574561,"finger_time":1551901573961,"fix_duration":879.3215605972459,"trial":32,"RT":480,"MT":600,"sideResp":1,"stimulus":"img/750/randomdotsizeEA/R/4_Ratio_750_L_15_R_20.png","xmouse":[801,801,801,801,801,801,801,801,801,801,801,801,801,801,801,801,801,801,801,801,801,798,798,797,797,795,787,779,768,741,728,721,710,694,647,598,577,568,553,539,526,516,509,507,507,505,505,502,501,501,501,501,501,499,497],"ymouse":[596,596,596,596,596,596,596,596,596,596,596,596,596,596,596,596,596,596,596,596,596,591,587,582,572,557,526,500,471,422,405,391,374,351,289,231,208,195,180,166,149,131,119,117,117,115,115,111,107,105,105,105,104,101,94],"timestamp_mouse":[8,30,40,60,80,100,119,139,160,179,200,220,240,261,279,299,320,340,360,379,400,419,441,460,480,499,520,541,560,581,601,620,641,660,681,701,720,741,761,779,800,820,839,860,880,900,921,941,959,980,1000,1021,1041,1060,1080],"xSR":741.5,"ySR":573.95,"xT1":424.9,"yT1":0,"xT2":1058.1,"yT2":0,"toosoon":0,"cond_shown":"randomdotsizeEA","ratio_trial":750,"smaller_num":"15","larger_num":"20","correct_side":2,"subjID":"SuhaylMarianaBarrantesAlvarado20","gender":"1","age":"10","school":"6"},{"start_time":1551901576002,"click_time":1551901576861,"finger_time":1551901576461,"fix_duration":320.09968127396814,"trial":33,"RT":459,"MT":400,"sideResp":1,"stimulus":"img/900/randomdotsizeEA/R/11_Ratio_900_L_18_R_20.png","xmouse":[805,805,805,805,805,805,805,806,808,808,810,811,811,811,811,811,811,811,811,811,812,807,788,780,769,753,731,670,635,599,579,549,538,532,528,525,515,513,513,513,512,511,511],"ymouse":[632,632,632,632,632,632,632,633,633,633,632,632,632,632,632,632,632,632,632,632,630,611,565,553,536,514,482,395,345,299,273,231,212,199,188,175,146,134,125,116,109,102,79],"timestamp_mouse":[20,40,59,80,99,120,138,159,179,199,219,238,260,278,300,319,339,360,380,399,419,438,459,479,498,519,539,558,579,599,619,640,658,679,699,720,740,759,778,799,820,840,859],"xSR":741.5,"ySR":573.95,"xT1":424.9,"yT1":0,"xT2":1058.1,"yT2":0,"toosoon":0,"cond_shown":"randomdotsizeEA","ratio_trial":900,"smaller_num":"18","larger_num":"20","correct_side":2,"subjID":"SuhaylMarianaBarrantesAlvarado20","gender":"1","age":"10","school":"6"},{"start_time":1551901577855,"click_time":1551901578702,"finger_time":1551901578300,"fix_duration":252.88716769471142,"trial":34,"RT":445,"MT":402,"sideResp":1,"stimulus":"img/900/equaldotsize/L/2_Ratio_900_L_20_R_18.png","xmouse":[792,792,792,792,792,792,792,792,792,792,794,795,795,795,797,798,799,800,803,811,817,823,829,832,832,831,830,820,801,717,671,636,612,583,543,466,454,448,442,442,441,443,446],"ymouse":[600,600,600,600,600,600,600,600,600,600,601,601,601,601,602,602,602,602,602,599,591,576,558,539,530,523,521,499,465,365,326,297,278,256,224,155,142,135,128,124,118,109,96],"timestamp_mouse":[9,34,46,66,87,106,126,146,167,185,205,225,246,266,286,306,325,346,366,387,406,426,445,466,486,506,526,545,566,587,605,626,645,666,686,706,725,746,766,787,807,826,847],"xSR":741.5,"ySR":573.95,"xT1":424.9,"yT1":0,"xT2":1058.1,"yT2":0,"toosoon":0,"cond_shown":"equaldotsize","ratio_trial":900,"smaller_num":"18","larger_num":"20","correct_side":1,"subjID":"SuhaylMarianaBarrantesAlvarado20","gender":"1","age":"10","school":"6"},{"start_time":1551901580203,"click_time":1551901581301,"finger_time":1551901580600,"fix_duration":540.8276182838673,"trial":35,"RT":397,"MT":701,"sideResp":2,"stimulus":"img/900/equaldotsize/R/7_Ratio_900_L_9_R_10.png","xmouse":[766,766,766,766,766,766,766,766,766,766,766,766,764,762,758,757,755,753,753,750,749,749,758,774,802,845,887,947,967,969,978,983,1000,1009,1016,1016,1005,996,996,996,996,996,996,996,998,1000,1006,1016,1025,1032,1039,1044,1053,1057,1062],"ymouse":[636,636,636,636,636,636,636,636,636,636,635,635,635,635,635,636,637,625,599,558,543,536,522,508,491,466,449,418,405,402,382,361,311,287,235,156,56,0,0,0,0,0,0,0,1,5,17,38,57,72,83,89,93,94,94],"timestamp_mouse":[19,39,59,79,99,119,139,157,179,198,217,239,258,279,298,319,339,358,379,397,418,438,459,478,497,517,537,558,578,597,617,638,657,677,699,718,737,758,778,798,818,839,858,879,899,918,938,959,979,998,1018,1038,1057,1078,1098],"xSR":741.5,"ySR":573.95,"xT1":424.9,"yT1":0,"xT2":1058.1,"yT2":0,"toosoon":0,"cond_shown":"equaldotsize","ratio_trial":900,"smaller_num":"9","larger_num":"10","correct_side":2,"subjID":"SuhaylMarianaBarrantesAlvarado20","gender":"1","age":"10","school":"6"},{"start_time":1551901582479,"click_time":1551901583842,"finger_time":1551901583021,"fix_duration":316.14594340851477,"trial":36,"RT":542,"MT":821,"sideResp":1,"stimulus":"img/500/equaldotsize/L/8_Ratio_500_L_8_R_4.png","xmouse":[781,781,781,782,782,782,782,782,782,782,782,782,782,782,782,782,782,782,782,782,782,782,782,782,782,772,756,740,729,717,713,707,704,704,702,698,687,670,646,615,605,594,577,554,487,474,463,463,463,469,486,503,507,510,516,516,517,517,517,513,511,510,507,495,482,479,479,478,477],"ymouse":[612,613,613,613,613,613,613,613,613,613,613,613,613,613,613,613,613,613,613,613,613,613,613,613,613,608,599,591,585,579,575,571,568,568,563,551,524,493,457,418,407,396,383,367,325,321,317,317,317,286,248,210,184,163,145,143,139,138,137,132,130,128,125,115,104,102,101,101,98],"timestamp_mouse":[1,32,42,63,82,102,122,143,162,181,203,221,242,262,282,302,321,341,361,382,403,421,441,462,483,502,521,542,562,582,601,621,643,661,682,702,723,741,762,782,803,822,843,863,881,902,923,942,962,982,1003,1022,1043,1062,1081,1102,1122,1143,1163,1182,1202,1222,1243,1263,1282,1302,1322,1342,1363],"xSR":741.5,"ySR":573.95,"xT1":424.9,"yT1":0,"xT2":1058.1,"yT2":0,"toosoon":0,"cond_shown":"equaldotsize","ratio_trial":500,"smaller_num":"4","larger_num":"8","correct_side":1,"subjID":"SuhaylMarianaBarrantesAlvarado20","gender":"1","age":"10","school":"6"},{"start_time":1551901585374,"click_time":1551901586201,"finger_time":1551901585821,"fix_duration":312.49529653541407,"trial":37,"RT":447,"MT":380,"sideResp":1,"stimulus":"img/500/equaldotanddens/L/8_Ratio_500_L_8_R_4.png","xmouse":[778,778,778,778,778,778,778,778,778,778,778,778,778,778,778,779,772,764,760,755,751,742,731,703,690,670,638,615,600,581,570,556,538,522,505,503,502,502,502,500,496,495],"ymouse":[638,638,638,638,638,638,638,638,638,638,638,638,638,638,638,638,629,622,620,616,610,589,570,522,494,455,401,361,337,305,277,240,197,164,135,130,128,127,127,121,106,84],"timestamp_mouse":[9,34,47,67,86,106,126,147,168,187,207,226,248,268,287,307,326,348,367,387,407,427,447,468,486,507,527,548,567,587,607,627,647,667,688,707,726,747,768,788,807,827],"xSR":741.5,"ySR":573.95,"xT1":424.9,"yT1":0,"xT2":1058.1,"yT2":0,"toosoon":0,"cond_shown":"equaldotanddens","ratio_trial":500,"smaller_num":"4","larger_num":"8","correct_side":1,"subjID":"SuhaylMarianaBarrantesAlvarado20","gender":"1","age":"10","school":"6"},{"start_time":1551901590577,"click_time":1551901591521,"finger_time":1551901590961,"fix_duration":532.6466705046256,"trial":38,"RT":384,"MT":560,"sideResp":2,"stimulus":"img/250/equaldotsize/R/6_Ratio_250_L_6_R_24.png","xmouse":[785,784,784,773,770,770,770,770,770,770,770,770,769,769,766,764,763,763,769,787,816,865,889,911,943,954,966,976,995,1007,1011,1022,1026,1032,1041,1044,1044,1044,1044,1044,1044,1044,1045,1051,1055,1056,1058,1060],"ymouse":[611,611,611,613,614,614,614,614,614,614,614,614,614,615,616,616,616,612,587,548,493,420,381,355,298,264,237,216,189,179,175,161,147,130,103,98,97,97,97,97,97,97,96,84,77,75,72,70],"timestamp_mouse":[10,32,45,65,83,104,124,145,164,185,204,225,244,264,285,304,324,344,365,384,404,424,444,465,485,504,524,543,565,584,603,623,645,665,684,705,723,743,765,784,804,823,844,865,883,904,925,944],"xSR":741.5,"ySR":573.95,"xT1":424.9,"yT1":0,"xT2":1058.1,"yT2":0,"toosoon":0,"cond_shown":"equaldotsize","ratio_trial":250,"smaller_num":"6","larger_num":"24","correct_side":2,"subjID":"SuhaylMarianaBarrantesAlvarado20","gender":"1","age":"10","school":"6"},{"start_time":1551901593752,"click_time":1551901594461,"finger_time":1551901594161,"fix_duration":1430.7278099990365,"trial":39,"RT":409,"MT":300,"sideResp":2,"stimulus":"img/900/randomdotsizeEA/L/4_Ratio_900_L_20_R_18.png","xmouse":[798,798,798,798,798,798,798,798,798,798,798,798,798,798,798,798,798,799,803,818,834,852,877,901,922,959,976,994,1007,1018,1043,1058,1073,1080,1085,1095],"ymouse":[615,615,615,616,616,616,616,616,616,617,618,618,618,618,618,618,615,614,610,596,571,539,485,431,382,312,281,249,223,205,174,161,143,128,113,88],"timestamp_mouse":[19,44,49,69,89,109,130,149,169,189,209,229,249,268,290,310,328,349,369,390,409,429,450,469,488,509,529,549,569,588,608,629,648,669,689,709],"xSR":741.5,"ySR":573.95,"xT1":424.9,"yT1":0,"xT2":1058.1,"yT2":0,"toosoon":0,"cond_shown":"randomdotsizeEA","ratio_trial":900,"smaller_num":"18","larger_num":"20","correct_side":1,"subjID":"SuhaylMarianaBarrantesAlvarado20","gender":"1","age":"10","school":"6"},{"start_time":1551901597983,"click_time":1551901599620,"finger_time":1551901598421,"fix_duration":759.3526358867146,"trial":40,"RT":438,"MT":1199,"sideResp":1,"stimulus":"img/750/randomdotsizeEA/L/10_Ratio_750_L_4_R_3.png","xmouse":[780,780,780,780,780,780,780,780,780,780,780,780,780,780,780,780,780,780,780,780,778,774,740,720,696,676,663,651,640,637,633,631,629,625,625,620,617,616,615,615,615,615,615,615,619,625,634,650,654,656,658,660,662,662,663,663,660,648,575,508,402,366,297,259,256,256,256,256,256,257,265,279,295,328,338,349,359,370,394,404,417,430],"ymouse":[636,636,636,636,636,636,636,636,636,632,627,624,620,614,609,603,597,587,582,580,574,560,515,496,476,456,433,410,367,345,315,301,292,277,268,253,242,234,233,233,233,233,233,233,242,257,269,288,292,293,295,296,297,297,297,296,286,268,198,142,51,23,0,0,0,0,0,0,0,5,17,30,44,64,70,75,80,81,81,81,81,79],"timestamp_mouse":[17,39,58,77,99,119,138,157,177,198,219,239,258,279,297,317,338,359,378,398,417,438,459,478,498,517,538,558,578,598,618,638,657,678,698,717,738,759,777,798,819,839,858,878,898,917,938,959,977,999,1018,1039,1058,1079,1098,1118,1137,1157,1177,1198,1217,1237,1259,1278,1297,1319,1339,1358,1378,1398,1419,1438,1458,1477,1498,1518,1538,1558,1578,1598,1618,1637],"xSR":741.5,"ySR":573.95,"xT1":424.9,"yT1":0,"xT2":1058.1,"yT2":0,"toosoon":0,"cond_shown":"randomdotsizeEA","ratio_trial":750,"smaller_num":"3","larger_num":"4","correct_side":1,"subjID":"SuhaylMarianaBarrantesAlvarado20","gender":"1","age":"10","school":"6"},{"start_time":1551901602666,"click_time":1551901603761,"finger_time":1551901602900,"fix_duration":622.035410074079,"trial":41,"RT":234,"MT":861,"sideResp":1,"stimulus":"img/900/randomdotsizeEA/L/2_Ratio_900_L_20_R_18.png","xmouse":[763,763,763,762,760,758,758,756,753,747,744,741,739,738,738,737,737,737,737,745,754,766,776,784,790,790,783,774,764,735,713,681,641,605,539,519,501,495,489,486,481,477,474,474,474,474,474,474,474,474,474,474,474,474,474],"ymouse":[615,615,615,615,613,610,608,604,600,592,588,583,580,578,577,575,573,569,558,547,535,521,508,493,480,467,455,442,429,390,365,337,303,271,224,209,194,192,188,183,171,150,125,108,105,105,105,104,103,101,101,101,101,101,92],"timestamp_mouse":[16,43,56,75,95,115,136,155,175,195,216,234,255,276,295,315,335,354,376,394,414,435,455,474,495,515,535,556,575,595,615,635,656,674,694,715,735,755,776,794,815,835,855,876,896,915,934,955,976,995,1015,1034,1055,1076,1095],"xSR":741.5,"ySR":573.95,"xT1":424.9,"yT1":0,"xT2":1058.1,"yT2":0,"toosoon":0,"cond_shown":"randomdotsizeEA","ratio_trial":900,"smaller_num":"18","larger_num":"20","correct_side":1,"subjID":"SuhaylMarianaBarrantesAlvarado20","gender":"1","age":"10","school":"6"},{"start_time":1551901605563,"click_time":1551901606601,"finger_time":1551901606242,"fix_duration":801.686594768294,"trial":42,"RT":679,"MT":359,"sideResp":1,"stimulus":"img/250/equaldotanddens/L/1_Ratio_250_L_8_R_2.png","xmouse":[795,795,802,802,802,802,802,802,802,802,802,802,802,802,802,802,802,802,802,802,802,802,802,802,802,802,802,802,802,802,802,800,790,756,736,724,713,700,669,649,645,639,634,623,590,579,573,570,558,546,518,488],"ymouse":[643,643,652,652,652,652,652,652,652,652,652,652,652,652,652,652,652,652,652,652,652,652,652,652,652,652,652,652,652,652,652,617,579,507,464,434,417,393,347,324,319,309,304,292,245,225,209,200,174,146,103,42],"timestamp_mouse":[33,38,58,78,99,118,139,158,177,197,219,238,259,279,299,318,338,358,378,399,417,437,459,478,499,517,538,559,577,599,617,638,658,679,697,718,737,758,779,798,819,839,858,878,897,919,939,958,979,997,1017,1038],"xSR":741.5,"ySR":573.95,"xT1":424.9,"yT1":0,"xT2":1058.1,"yT2":0,"toosoon":0,"cond_shown":"equaldotanddens","ratio_trial":250,"smaller_num":"2","larger_num":"8","correct_side":1,"subjID":"SuhaylMarianaBarrantesAlvarado20","gender":"1","age":"10","school":"6"},{"start_time":1551901611431,"click_time":1551901612462,"finger_time":1551901611960,"fix_duration":1249.7650158743954,"trial":43,"RT":529,"MT":502,"sideResp":2,"stimulus":"img/900/randomdotsizeEA/R/12_Ratio_900_L_18_R_20.png","xmouse":[789,789,789,789,789,789,789,789,789,789,789,789,789,789,789,789,789,789,789,789,789,789,789,789,789,789,808,813,831,843,859,894,914,938,960,991,1048,1067,1073,1075,1075,1070,1065,1059,1055,1051,1043,1040,1039,1040,1045,1100],"ymouse":[614,614,614,614,614,614,614,614,614,614,614,614,614,614,614,614,614,614,614,614,614,614,614,608,602,588,532,521,500,488,471,438,426,413,403,389,352,324,307,291,271,244,230,215,197,180,156,142,136,131,120,55],"timestamp_mouse":[11,33,50,71,89,111,131,150,170,190,210,231,249,270,290,311,329,351,370,391,410,429,450,471,491,510,529,550,570,591,610,630,649,670,690,710,730,750,770,789,809,829,850,871,890,911,930,950,970,990,1009,1031],"xSR":741.5,"ySR":573.95,"xT1":424.9,"yT1":0,"xT2":1058.1,"yT2":0,"toosoon":0,"cond_shown":"randomdotsizeEA","ratio_trial":900,"smaller_num":"18","larger_num":"20","correct_side":2,"subjID":"SuhaylMarianaBarrantesAlvarado20","gender":"1","age":"10","school":"6"},{"start_time":1551901617599,"click_time":1551901618682,"finger_time":1551901618263,"fix_duration":737.0447905648991,"trial":44,"RT":664,"MT":419,"sideResp":2,"stimulus":"img/750/equaldotanddens/R/7_Ratio_750_L_3_R_4.png","xmouse":[805,805,805,805,805,805,805,805,805,805,805,805,805,805,805,805,805,805,805,805,805,805,805,805,805,805,805,805,805,805,806,815,830,870,892,905,913,917,931,931,933,937,942,959,978,1005,1042,1072,1109,1112,1114,1117,1119,1138,1151],"ymouse":[633,633,633,633,633,633,633,633,633,633,633,633,633,633,633,633,633,633,633,633,633,633,633,633,633,633,633,633,633,633,625,603,575,515,489,470,456,449,435,435,432,421,411,388,371,340,304,271,229,222,215,208,199,135,91],"timestamp_mouse":[10,23,42,64,82,104,123,142,164,183,203,224,242,263,282,302,323,343,362,383,404,422,442,464,482,504,523,543,562,583,602,622,643,664,683,703,722,743,763,782,803,824,844,862,882,902,922,944,963,983,1003,1023,1042,1062,1083],"xSR":741.5,"ySR":573.95,"xT1":424.9,"yT1":0,"xT2":1058.1,"yT2":0,"toosoon":0,"cond_shown":"equaldotanddens","ratio_trial":750,"smaller_num":"3","larger_num":"4","correct_side":2,"subjID":"SuhaylMarianaBarrantesAlvarado20","gender":"1","age":"10","school":"6"},{"start_time":1551901619836,"click_time":1551901621223,"finger_time":1551901620822,"fix_duration":392.214675514137,"trial":45,"RT":986,"MT":401,"sideResp":2,"stimulus":"img/250/equaldotanddens/R/4_Ratio_250_L_3_R_12.png","xmouse":[806,806,806,806,806,806,806,806,806,806,806,806,806,806,806,806,806,806,806,806,806,806,806,806,806,806,806,806,806,806,806,806,806,806,806,806,804,801,797,793,788,779,779,779,778,778,778,778,778,778,784,796,829,877,926,963,1006,1024,1028,1029,1026,1027,1030,1034,1036,1037,1045,1048,1062,1074],"ymouse":[629,629,629,629,629,629,629,629,629,629,629,629,629,629,629,629,629,629,629,629,629,629,629,629,629,629,629,629,629,629,629,629,629,629,629,628,620,614,606,598,590,576,576,576,575,575,575,575,574,569,534,502,444,387,339,310,279,262,251,243,222,211,194,178,165,155,134,128,110,99],"timestamp_mouse":[19,25,45,65,86,105,127,145,166,185,206,225,245,267,286,306,325,346,367,385,407,426,445,466,486,507,526,545,567,585,605,625,645,666,685,707,726,746,765,787,805,826,845,866,885,906,925,945,967,986,1007,1026,1045,1065,1085,1106,1126,1146,1165,1185,1207,1226,1246,1266,1286,1306,1325,1346,1366,1387],"xSR":741.5,"ySR":573.95,"xT1":424.9,"yT1":0,"xT2":1058.1,"yT2":0,"toosoon":0,"cond_shown":"equaldotanddens","ratio_trial":250,"smaller_num":"3","larger_num":"12","correct_side":2,"subjID":"SuhaylMarianaBarrantesAlvarado20","gender":"1","age":"10","school":"6"},{"start_time":1551901625625,"click_time":1551901626643,"finger_time":1551901626043,"fix_duration":581.2898183886832,"trial":46,"RT":418,"MT":600,"sideResp":1,"stimulus":"img/500/equaldotanddens/L/10_Ratio_500_L_4_R_2.png","xmouse":[802,802,802,802,803,803,803,804,805,805,806,806,806,806,806,806,815,821,829,834,836,836,831,814,790,766,722,700,686,672,661,634,625,620,615,611,600,586,571,552,529,507,503,500,497,496,490,489,487,484,480],"ymouse":[629,629,629,629,628,628,629,629,631,631,631,631,631,631,631,631,619,609,594,582,553,534,508,475,439,412,381,363,347,328,308,259,235,217,205,198,187,174,164,153,143,133,132,130,129,128,116,115,109,102,90],"timestamp_mouse":[16,38,58,76,96,118,138,157,177,197,217,237,256,277,298,317,338,356,377,397,418,436,458,477,496,516,536,557,577,596,616,636,657,676,697,716,737,757,776,796,817,838,857,877,898,917,936,957,977,998,1018],"xSR":741.5,"ySR":573.95,"xT1":424.9,"yT1":0,"xT2":1058.1,"yT2":0,"toosoon":0,"cond_shown":"equaldotanddens","ratio_trial":500,"smaller_num":"2","larger_num":"4","correct_side":1,"subjID":"SuhaylMarianaBarrantesAlvarado20","gender":"1","age":"10","school":"6"},{"start_time":1551901629370,"click_time":1551901630423,"finger_time":1551901630041,"fix_duration":587.2289416147617,"trial":47,"RT":671,"MT":382,"sideResp":2,"stimulus":"img/500/equaldotsize/R/15_Ratio_500_L_1_R_2.png","xmouse":[790,790,790,790,790,790,790,790,790,790,790,790,790,790,790,790,790,790,790,790,790,790,790,798,798,798,798,798,798,798,798,795,794,794,834,882,955,1048,1139,1260,1274,1275,1275,1275,1275,1274,1272,1267,1254,1220,1187,1161,1141],"ymouse":[583,583,583,583,583,583,583,583,583,583,583,583,583,583,583,583,583,583,583,583,583,583,583,583,583,583,583,583,583,583,583,582,574,555,480,403,309,199,102,0,0,0,0,0,0,0,0,0,0,0,12,28,40],"timestamp_mouse":[12,38,51,71,93,111,131,151,172,193,211,231,253,271,291,312,332,352,372,392,413,432,451,473,492,512,533,553,572,592,612,632,651,671,692,712,731,751,772,792,811,833,853,873,892,912,932,953,972,992,1013,1032,1053],"xSR":741.5,"ySR":573.95,"xT1":424.9,"yT1":0,"xT2":1058.1,"yT2":0,"toosoon":0,"cond_shown":"equaldotsize","ratio_trial":500,"smaller_num":"1","larger_num":"2","correct_side":2,"subjID":"SuhaylMarianaBarrantesAlvarado20","gender":"1","age":"10","school":"6"},{"start_time":1551901639402,"click_time":1551901640361,"finger_time":1551901639802,"fix_duration":377.86941819516915,"trial":48,"RT":400,"MT":559,"sideResp":2,"stimulus":"img/750/equaldotsize/R/12_Ratio_750_L_3_R_4.png","xmouse":[763,763,763,763,763,763,763,763,763,763,763,763,761,761,761,761,761,761,762,764,768,773,794,811,826,849,880,903,944,964,974,981,990,1007,1016,1026,1037,1053,1098,1124,1129,1130,1130,1130,1131,1132,1136,1137,1135],"ymouse":[635,635,635,635,635,635,635,635,635,635,633,631,625,624,622,617,612,606,593,584,564,552,515,496,478,461,444,431,413,393,376,355,333,300,284,268,252,232,179,147,140,138,138,138,137,128,117,103,97],"timestamp_mouse":[1,20,39,61,80,99,120,140,160,180,199,221,241,260,280,300,321,340,359,380,400,421,441,460,479,499,519,540,560,580,600,619,640,660,679,699,720,739,760,781,800,819,840,861,881,900,920,941,959],"xSR":741.5,"ySR":573.95,"xT1":424.9,"yT1":0,"xT2":1058.1,"yT2":0,"toosoon":0,"cond_shown":"equaldotsize","ratio_trial":750,"smaller_num":"3","larger_num":"4","correct_side":2,"subjID":"SuhaylMarianaBarrantesAlvarado20","gender":"1","age":"10","school":"6"},{"start_time":1551901642024,"click_time":1551901643561,"finger_time":1551901642323,"fix_duration":821.2492590709896,"trial":49,"RT":299,"MT":1238,"sideResp":1,"stimulus":"img/750/randomdotsizeEA/L/13_Ratio_750_L_8_R_6.png","xmouse":[777,777,777,777,777,774,771,770,768,767,765,760,754,747,741,738,737,736,736,736,738,741,745,752,764,775,797,803,805,806,807,807,802,792,776,731,691,690,690,690,690,690,688,686,686,686,683,683,683,683,682,675,675,675,662,613,609,608,599,593,591,589,586,582,574,565,551,548,546,543,537,530,529,528,528,527,515],"ymouse":[624,624,624,624,623,616,613,611,609,608,606,599,592,582,571,562,560,555,548,537,525,521,516,512,502,487,455,443,440,431,421,394,375,354,333,288,255,255,255,255,255,254,252,250,250,250,249,249,249,249,249,247,228,196,137,68,48,41,18,8,4,2,1,1,1,3,12,14,17,20,25,30,30,31,31,32,42],"timestamp_mouse":[34,37,58,78,97,119,138,158,177,197,217,238,257,277,299,319,337,357,377,399,419,437,457,478,498,517,537,557,578,599,617,639,658,677,697,719,738,759,778,798,817,838,858,877,898,918,938,958,979,998,1018,1039,1057,1078,1098,1119,1139,1158,1178,1198,1219,1238,1258,1279,1298,1318,1339,1358,1377,1397,1417,1437,1458,1478,1498,1518,1537],"xSR":741.5,"ySR":573.95,"xT1":424.9,"yT1":0,"xT2":1058.1,"yT2":0,"toosoon":0,"cond_shown":"randomdotsizeEA","ratio_trial":750,"smaller_num":"6","larger_num":"8","correct_side":1,"subjID":"SuhaylMarianaBarrantesAlvarado20","gender":"1","age":"10","school":"6"},{"start_time":1551901644614,"click_time":1551901646762,"finger_time":1551901645422,"fix_duration":250,"trial":50,"RT":808,"MT":1340,"sideResp":1,"stimulus":"img/250/equaldotsize/L/7_Ratio_250_L_8_R_2.png","xmouse":[778,778,778,777,776,774,771,767,767,767,767,767,767,767,767,767,767,769,770,772,772,775,775,775,777,778,784,790,791,791,791,791,791,791,791,789,787,773,761,752,740,724,668,627,585,573,573,573,573,573,573,573,573,573,573,571,569,567,567,566,566,566,564,561,557,553,550,549,549,549,549,549,549,545,542,538,536,529,519,515,510,502,474,454,437,424,410,389,381,377,372,364,344,340,340,340,340,336,334,334,343,353,368,377,389,398,410,462],"ymouse":[636,636,636,636,637,637,639,640,640,640,640,640,640,640,640,640,640,640,641,641,641,641,641,641,641,641,643,648,649,649,649,649,649,649,649,644,642,622,607,597,587,575,525,474,414,393,393,393,393,393,393,393,393,393,393,392,390,390,390,390,391,394,397,399,401,404,405,405,405,405,405,405,405,405,405,401,394,372,360,352,342,327,297,285,280,278,276,274,275,275,275,269,236,217,202,192,183,155,131,117,105,93,82,77,69,62,52,9],"timestamp_mouse":[8,34,48,67,89,107,128,148,167,187,208,227,247,268,289,307,327,348,367,388,407,428,448,467,487,509,528,547,567,587,608,628,648,668,687,708,727,747,769,789,808,827,848,867,888,908,927,949,968,988,1008,1029,1047,1069,1089,1107,1127,1147,1168,1189,1207,1227,1247,1267,1288,1307,1327,1349,1368,1389,1407,1427,1448,1468,1489,1508,1528,1549,1568,1587,1608,1627,1648,1668,1688,1708,1728,1748,1767,1788,1809,1829,1849,1868,1888,1909,1928,1949,1968,1987,2008,2027,2049,2069,2088,2109,2129,2148],"xSR":741.5,"ySR":573.95,"xT1":424.9,"yT1":0,"xT2":1058.1,"yT2":0,"toosoon":0,"cond_shown":"equaldotsize","ratio_trial":250,"smaller_num":"2","larger_num":"8","correct_side":1,"subjID":"SuhaylMarianaBarrantesAlvarado20","gender":"1","age":"10","school":"6"},{"start_time":1551901653610,"click_time":1551901654522,"finger_time":1551901653922,"fix_duration":565.8341622388451,"trial":51,"RT":312,"MT":600,"sideResp":1,"stimulus":"img/750/randomdotsizeEA/L/1_Ratio_750_L_20_R_15.png","xmouse":[773,778,785,787,788,788,788,788,788,788,788,788,788,788,787,786,786,786,780,759,726,701,677,674,673,673,672,670,658,640,599,524,521,519,516,512,507,506,506,505,503,501,496,495,494,493],"ymouse":[583,586,590,591,592,592,592,592,592,592,592,592,592,592,580,569,544,483,396,331,270,232,202,198,196,194,192,190,178,167,150,133,133,133,132,128,124,114,112,110,109,108,104,103,102,97],"timestamp_mouse":[13,33,51,72,91,111,132,152,172,192,212,231,252,273,293,312,331,352,372,392,412,432,453,472,491,512,532,552,573,592,612,633,651,671,691,713,732,752,772,793,812,831,851,872,891,912],"xSR":741.5,"ySR":573.95,"xT1":424.9,"yT1":0,"xT2":1058.1,"yT2":0,"toosoon":0,"cond_shown":"randomdotsizeEA","ratio_trial":750,"smaller_num":"15","larger_num":"20","correct_side":1,"subjID":"SuhaylMarianaBarrantesAlvarado20","gender":"1","age":"10","school":"6"},{"start_time":1551901658913,"click_time":1551901659622,"finger_time":1551901659042,"fix_duration":748.4721488059681,"trial":52,"RT":129,"MT":580,"sideResp":2,"stimulus":"img/250/randomdotsizeEA/R/10_Ratio_250_L_4_R_16.png","xmouse":[796,793,778,778,777,777,776,770,765,762,759,757,752,746,740,734,727,726,726,726,726,727,731,735,750,782,845,1017,1089,1133,1152,1159,1159,1159,1159,1158],"ymouse":[589,582,574,574,574,574,573,563,553,545,533,522,510,497,487,476,460,457,454,450,444,434,403,385,352,322,280,189,148,121,104,93,93,93,91,87],"timestamp_mouse":[10,31,49,70,89,109,129,150,170,189,209,229,248,269,290,310,330,348,369,390,409,429,448,468,488,509,530,548,569,589,609,630,649,668,688,709],"xSR":741.5,"ySR":573.95,"xT1":424.9,"yT1":0,"xT2":1058.1,"yT2":0,"toosoon":0,"cond_shown":"randomdotsizeEA","ratio_trial":250,"smaller_num":"4","larger_num":"16","correct_side":2,"subjID":"SuhaylMarianaBarrantesAlvarado20","gender":"1","age":"10","school":"6"},{"start_time":1551901662351,"click_time":1551901663243,"finger_time":1551901662862,"fix_duration":1286.7448511846794,"trial":53,"RT":511,"MT":381,"sideResp":2,"stimulus":"img/500/equaldotanddens/R/3_Ratio_500_L_10_R_20.png","xmouse":[793,793,793,793,793,793,793,793,792,792,792,792,792,792,792,792,792,792,794,794,798,800,805,811,824,886,933,974,1000,993,989,989,992,994,996,996,996,996,998,998,999,1002,1023,1040,1060],"ymouse":[635,635,635,635,635,634,633,633,632,631,629,629,629,629,629,629,629,629,629,628,627,626,624,621,613,567,529,469,377,213,176,149,133,132,132,129,119,107,103,103,102,102,102,96,81],"timestamp_mouse":[10,41,50,71,91,111,130,151,170,191,211,231,251,270,292,312,331,350,372,391,410,432,451,470,491,511,530,552,570,591,610,630,651,671,692,711,730,750,772,791,811,831,851,871,892],"xSR":741.5,"ySR":573.95,"xT1":424.9,"yT1":0,"xT2":1058.1,"yT2":0,"toosoon":0,"cond_shown":"equaldotanddens","ratio_trial":500,"smaller_num":"10","larger_num":"20","correct_side":2,"subjID":"SuhaylMarianaBarrantesAlvarado20","gender":"1","age":"10","school":"6"},{"start_time":1551901664878,"click_time":1551901665862,"finger_time":1551901665243,"fix_duration":695.8315057450685,"trial":54,"RT":365,"MT":619,"sideResp":2,"stimulus":"img/750/equaldotsize/R/2_Ratio_750_L_6_R_8.png","xmouse":[804,804,804,804,804,804,804,804,804,804,804,804,804,804,806,808,812,819,829,832,836,845,856,907,934,940,942,942,942,945,957,972,987,1000,1000,1002,1007,1011,1013,1015,1016,1017,1022,1030,1050,1054,1056,1060,1070,1104],"ymouse":[622,622,622,622,621,619,618,618,617,617,617,617,616,615,612,607,595,580,544,517,498,480,455,387,342,332,312,307,300,294,283,272,260,244,236,230,223,219,216,209,201,193,183,171,150,144,133,119,103,74],"timestamp_mouse":[9,30,44,63,84,103,123,143,164,183,204,224,243,264,284,303,325,343,365,383,403,424,445,465,484,505,524,544,565,584,604,624,645,664,684,705,724,744,765,783,803,824,844,864,885,904,925,944,963,984],"xSR":741.5,"ySR":573.95,"xT1":424.9,"yT1":0,"xT2":1058.1,"yT2":0,"toosoon":0,"cond_shown":"equaldotsize","ratio_trial":750,"smaller_num":"6","larger_num":"8","correct_side":2,"subjID":"SuhaylMarianaBarrantesAlvarado20","gender":"1","age":"10","school":"6"},{"start_time":1551901673367,"click_time":1551901673902,"finger_time":1551901673761,"fix_duration":1184.9806004349057,"trial":55,"RT":394,"MT":141,"sideResp":2,"stimulus":"img/500/equaldotanddens/R/15_Ratio_500_L_1_R_2.png","xmouse":[804,804,804,804,804,804,804,804,804,804,804,804,804,804,804,804,807,812,826,892,932,999,1035,1064,1084,1084,1084],"ymouse":[630,630,630,630,630,630,630,630,630,630,630,630,630,630,630,629,622,607,582,460,388,271,202,152,110,102,99],"timestamp_mouse":[15,41,55,74,95,115,135,155,175,196,214,234,256,274,295,315,336,355,374,394,416,436,454,474,495,516,535],"xSR":741.5,"ySR":573.95,"xT1":424.9,"yT1":0,"xT2":1058.1,"yT2":0,"toosoon":0,"cond_shown":"equaldotanddens","ratio_trial":500,"smaller_num":"1","larger_num":"2","correct_side":2,"subjID":"SuhaylMarianaBarrantesAlvarado20","gender":"1","age":"10","school":"6"},{"start_time":1551901675764,"click_time":1551901677543,"finger_time":1551901676163,"fix_duration":1220.3151559307998,"trial":56,"RT":399,"MT":1380,"sideResp":1,"stimulus":"img/500/equaldotanddens/L/7_Ratio_500_L_10_R_5.png","xmouse":[753,753,753,753,753,753,753,753,753,753,753,753,753,753,753,754,759,765,773,785,788,788,787,776,766,763,761,754,751,741,734,728,722,715,700,691,686,685,685,684,683,679,678,678,671,664,652,643,623,610,601,594,584,577,567,562,560,558,556,551,548,547,544,543,542,542,541,540,537,537,537,535,526,514,509,507,506,505,505,505,505,504,503,503,501,501,501,500,499],"ymouse":[634,634,634,634,634,634,634,634,634,634,634,634,634,634,634,629,616,601,584,551,537,522,515,499,490,489,487,483,482,477,474,470,464,448,404,389,382,379,379,377,375,366,364,259,182,142,123,114,106,106,106,108,109,111,114,116,117,117,117,114,110,107,94,90,90,90,88,87,85,85,85,85,94,112,119,124,126,127,127,127,127,127,127,126,118,113,108,103,96],"timestamp_mouse":[30,37,57,77,99,118,137,157,177,199,218,237,259,278,298,318,337,358,378,399,418,438,458,478,497,518,538,558,578,597,618,639,658,678,699,718,737,757,778,797,818,838,858,878,897,919,938,958,978,998,1018,1038,1057,1077,1099,1119,1137,1157,1178,1198,1218,1238,1258,1277,1297,1318,1339,1359,1378,1398,1417,1438,1458,1478,1497,1518,1538,1558,1577,1598,1617,1639,1658,1679,1699,1719,1738,1758,1779],"xSR":741.5,"ySR":573.95,"xT1":424.9,"yT1":0,"xT2":1058.1,"yT2":0,"toosoon":0,"cond_shown":"equaldotanddens","ratio_trial":500,"smaller_num":"5","larger_num":"10","correct_side":1,"subjID":"SuhaylMarianaBarrantesAlvarado20","gender":"1","age":"10","school":"6"},{"start_time":1551901680444,"click_time":1551901681301,"finger_time":1551901680862,"fix_duration":881.5105939534886,"trial":57,"RT":418,"MT":439,"sideResp":2,"stimulus":"img/900/equaldotanddens/R/13_Ratio_900_L_18_R_20.png","xmouse":[813,813,813,813,813,813,813,814,814,815,815,815,815,815,815,815,815,817,821,827,835,835,835,835,835,840,852,866,885,904,945,962,971,972,973,975,979,985,991,1003,1040,1056,1065],"ymouse":[621,621,621,621,621,621,621,621,621,621,621,621,621,621,621,621,619,609,596,576,523,499,472,443,410,331,303,283,265,250,222,208,196,190,185,170,161,148,131,109,66,55,47],"timestamp_mouse":[33,37,58,77,99,117,137,158,179,199,219,237,258,278,297,317,338,359,378,397,418,437,459,478,498,517,537,558,578,599,619,639,657,679,698,717,738,758,777,799,818,838,857],"xSR":741.5,"ySR":573.95,"xT1":424.9,"yT1":0,"xT2":1058.1,"yT2":0,"toosoon":0,"cond_shown":"equaldotanddens","ratio_trial":900,"smaller_num":"18","larger_num":"20","correct_side":2,"subjID":"SuhaylMarianaBarrantesAlvarado20","gender":"1","age":"10","school":"6"},{"start_time":1551901683027,"click_time":1551901683802,"finger_time":1551901683463,"fix_duration":1084.6230978015838,"trial":58,"RT":436,"MT":339,"sideResp":2,"stimulus":"img/900/randomdotsizeEA/L/4_Ratio_900_L_20_R_18.png","xmouse":[806,806,806,806,805,804,802,802,802,802,802,802,802,802,802,802,802,796,790,782,777,765,763,764,777,794,852,868,912,943,984,997,1006,1016,1023,1033,1054,1066,1074],"ymouse":[628,628,628,628,625,624,622,622,622,622,622,622,622,622,622,622,622,613,603,589,579,550,529,502,477,454,397,380,332,294,238,218,200,184,168,151,125,105,86],"timestamp_mouse":[15,35,54,76,95,115,134,154,176,194,214,234,254,275,295,314,335,355,376,394,416,436,454,474,495,515,534,554,574,596,616,634,656,675,695,715,734,755,775],"xSR":741.5,"ySR":573.95,"xT1":424.9,"yT1":0,"xT2":1058.1,"yT2":0,"toosoon":0,"cond_shown":"randomdotsizeEA","ratio_trial":900,"smaller_num":"18","larger_num":"20","correct_side":1,"subjID":"SuhaylMarianaBarrantesAlvarado20","gender":"1","age":"10","school":"6"},{"start_time":1551901685513,"click_time":1551901686921,"finger_time":1551901686102,"fix_duration":728.1536444927267,"trial":59,"RT":589,"MT":819,"sideResp":2,"stimulus":"img/250/equaldotanddens/R/6_Ratio_250_L_6_R_24.png","xmouse":[799,799,799,799,799,799,799,799,799,799,799,799,799,799,799,799,799,799,799,799,799,799,799,799,799,797,795,791,790,790,798,807,838,851,864,876,895,925,927,927,927,927,927,933,940,944,947,957,965,973,982,992,1003,1008,1015,1023,1035,1046,1046,1047,1047,1044,1043,1043,1043,1043,1043,1044,1050,1056,1061],"ymouse":[635,635,635,635,635,635,635,635,635,635,635,635,635,635,635,635,635,635,635,635,635,635,635,635,635,635,630,600,576,550,513,483,390,341,297,254,215,170,158,150,141,131,111,97,78,73,72,72,72,72,70,69,66,66,66,66,69,70,70,70,66,64,62,62,62,62,62,62,61,61,61],"timestamp_mouse":[10,33,49,69,89,108,128,148,168,189,208,228,249,268,289,309,329,349,369,389,410,428,449,468,489,509,529,549,570,589,609,630,648,669,689,709,728,748,768,789,808,829,848,868,888,909,929,949,969,988,1009,1030,1049,1068,1090,1109,1128,1149,1168,1188,1210,1229,1248,1269,1290,1309,1329,1349,1369,1389,1408],"xSR":741.5,"ySR":573.95,"xT1":424.9,"yT1":0,"xT2":1058.1,"yT2":0,"toosoon":0,"cond_shown":"equaldotanddens","ratio_trial":250,"smaller_num":"6","larger_num":"24","correct_side":2,"subjID":"SuhaylMarianaBarrantesAlvarado20","gender":"1","age":"10","school":"6"},{"start_time":1551901691953,"click_time":1551901692902,"finger_time":1551901692021,"fix_duration":628.6809285007785,"trial":60,"RT":68,"MT":881,"sideResp":2,"stimulus":"img/500/equaldotsize/R/12_Ratio_500_L_1_R_2.png","xmouse":[783,778,777,777,777,777,777,777,777,777,777,777,777,777,777,777,777,777,777,777,777,779,787,821,845,871,893,911,922,937,954,965,971,980,991,1003,1016,1024,1030,1030,1031,1031,1031,1033,1051,1058,1060],"ymouse":[583,575,573,572,572,572,572,572,572,571,570,570,570,570,570,570,570,570,571,571,571,561,535,451,397,338,286,244,216,180,160,150,141,120,108,93,77,64,47,43,41,41,41,40,40,40,40],"timestamp_mouse":[28,50,68,89,109,130,150,170,190,209,228,248,268,288,309,330,349,369,389,410,428,448,469,490,509,529,548,568,588,608,630,649,669,689,708,728,749,769,789,809,830,849,870,889,909,929,949],"xSR":741.5,"ySR":573.95,"xT1":424.9,"yT1":0,"xT2":1058.1,"yT2":0,"toosoon":0,"cond_shown":"equaldotsize","ratio_trial":500,"smaller_num":"1","larger_num":"2","correct_side":2,"subjID":"SuhaylMarianaBarrantesAlvarado20","gender":"1","age":"10","school":"6"},{"start_time":1551901695021,"click_time":1551901696002,"finger_time":1551901695683,"fix_duration":1397.3270071959523,"trial":61,"RT":662,"MT":319,"sideResp":2,"stimulus":"img/900/equaldotsize/R/3_Ratio_900_L_9_R_10.png","xmouse":[784,784,784,784,784,784,784,784,784,784,784,784,785,786,786,787,787,788,789,790,792,793,793,793,793,793,793,793,793,793,794,796,812,831,863,919,987,1095,1125,1142,1145,1148,1148,1148,1144,1137,1132,1128,1126,1123],"ymouse":[628,628,628,628,628,628,628,628,628,628,628,628,628,628,628,628,628,628,628,628,628,628,628,628,628,628,628,628,628,628,626,617,585,561,533,488,428,308,258,208,185,157,147,138,129,118,110,104,102,99],"timestamp_mouse":[1,31,40,61,80,100,120,142,160,181,200,220,240,262,280,301,321,341,360,381,401,421,441,460,480,500,521,540,560,581,601,622,642,662,681,700,720,740,762,781,802,822,841,862,881,901,922,941,961,981],"xSR":741.5,"ySR":573.95,"xT1":424.9,"yT1":0,"xT2":1058.1,"yT2":0,"toosoon":0,"cond_shown":"equaldotsize","ratio_trial":900,"smaller_num":"9","larger_num":"10","correct_side":2,"subjID":"SuhaylMarianaBarrantesAlvarado20","gender":"1","age":"10","school":"6"},{"start_time":1551901697423,"click_time":1551901711542,"finger_time":1551901698043,"fix_duration":419.3248916168528,"trial":62,"RT":620,"MT":13499,"sideResp":2,"stimulus":"img/900/equaldotsize/L/8_Ratio_900_L_20_R_18.png","xmouse":[781,781,781,781,781,781,781,781,781,781,781,781,781,781,781,781,781,781,781,781,781,781,781,781,781,781,781,781,779,762,724,710,703,697,696,696,696,696,696,696,696,696,696,696,696,696,696,696,696,696,696,696,696,696,696,696,696,696,696,696,696,696,696,696,696,696,696,696,696,696,696,696,696,696,696,696,696,696,696,696,696,696,696,696,696,696,696,693,678,662,625,624,624,624,624,624,624,624,624,624,624,624,624,624,624,624,624,624,624,624,624,624,624,624,624,624,624,624,624,624,624,625,625,627,627,627,627,627,627,627,627,627,627,627,626,625,625,624,620,616,607,604,604,604,604,603,600,599,598,598,598,598,598,598,598,598,598,598,598,598,598,597,597,595,594,593,586,585,585,585,585,585,585,585,585,585,585,585,585,585,585,585,585,585,585,585,585,585,585,585,585,585,585,588,593,606,631,656,670,714,736,765,774,778,780,784,816,846,850,854,847,833,809,786,760,742,726,725,725,723,721,720,720,720,720,718,718,718,722,727,730,733,735,738,743,755,763,768,773,774,774,774,774,774,774,774,774,774,774,774,774,774,774,774,774,774,774,774,774,774,774,774,774,774,774,774,774,774,774,774,774,774,774,774,774,774,774,774,774,774,774,775,777,778,779,782,787,788,788,788,788,788,788,788,788,788,788,788,788,788,788,788,787,785,778,749,730,702,694,678,674,672,672,672,672,672,672,672,672,672,672,672,672,672,672,672,672,672,672,672,672,672,672,672,672,672,672,672,672,672,672,672,672,672,671,669,669,668,666,666,666,666,665,664,662,662,662,662,661,660,660,660,659,659,659,658,658,657,657,657,657,657,656,656,656,656,656,656,655,655,655,655,655,654,653,653,650,649,647,645,642,632,626,624,623,623,623,623,623,623,623,623,623,623,623,623,623,623,623,623,623,623,623,623,623,624,625,629,630,632,632,633,633,633,634,637,642,650,660,669,672,672,672,672,672,672,672,672,672,672,672,679,692,711,741,768,791,791,790,790,790,791,791,791,791,791,792,793,794,794,794,794,794,794,794,795,796,797,799,802,805,811,813,814,815,816,816,816,816,816,816,816,816,816,814,812,803,797,792,790,790,790,790,790,790,790,790,789,788,788,788,788,787,787,787,787,787,787,787,787,787,787,787,787,787,787,786,786,783,781,779,778,778,778,778,777,776,776,776,776,776,776,776,776,776,776,775,775,774,774,774,774,774,774,774,774,773,773,768,759,732,723,723,722,722,722,722,722,722,722,722,722,722,722,722,722,722,722,722,722,722,722,722,722,722,722,722,722,722,722,722,722,721,721,721,721,721,721,721,721,721,721,721,721,720,720,705,699,699,699,699,699,699,699,699,699,699,699,699,698,698,698,699,701,704,729,744,758,772,788,794,794,794,794,794,794,794,794,794,794,794,794,794,794,794,794,794,794,794,796,798,798,799,799,799,799,799,799,799,799,799,799,799,799,799,799,799,799,799,799,799,799,799,799,799,799,799,799,799,799,800,810,826,843,862,882,887,887,887,903,913,917,917,917,917,917,920,925,931,936,940,966,980,993,1001,1003,1003,1004,1006,1008,1018,1023,1028,1035,1045,1071],"ymouse":[598,598,598,598,598,598,598,598,598,598,598,598,598,598,598,598,598,598,598,598,598,598,598,598,598,598,598,598,598,598,598,598,598,598,598,598,598,598,598,598,598,598,598,598,598,598,598,598,598,598,598,598,598,598,598,598,598,598,598,598,598,598,598,598,598,598,598,598,598,598,598,598,598,598,598,598,598,598,598,598,598,598,598,598,598,598,598,599,616,632,667,671,671,671,671,671,671,671,671,671,671,671,671,671,671,671,671,671,671,671,671,671,671,671,671,671,671,672,672,672,674,680,683,687,688,688,688,688,688,688,688,688,688,688,688,688,688,688,688,688,689,689,689,689,689,689,687,686,685,685,685,685,685,685,685,685,685,685,685,685,685,685,685,685,685,686,688,689,689,689,689,689,689,689,689,689,689,689,689,689,689,689,689,689,689,689,689,689,689,689,689,689,689,689,682,661,620,593,582,551,535,520,516,515,515,515,523,537,540,547,565,585,614,647,681,703,717,717,717,717,717,717,717,717,717,714,707,698,684,676,672,664,661,656,651,639,635,631,629,628,628,628,628,628,628,628,628,628,628,628,628,628,628,628,628,628,628,628,628,628,628,628,628,628,628,628,628,628,628,628,628,628,628,628,628,628,628,628,628,628,628,628,637,641,650,656,664,664,664,664,664,664,664,664,664,664,664,664,664,664,664,664,665,665,663,650,643,635,634,632,632,632,632,632,63