[{"start_time":1551887469494,"click_time":1551887471092,"finger_time":1551887469495,"fix_duration":1118.4921923454413,"trial":0,"RT":1,"MT":1597,"sideResp":1,"stimulus":"img/900/randomdotsizeEA/L/10_Ratio_900_L_20_R_18.png","xmouse":[813,813,813,813,813,813,813,813,813,813,813,813,813,813,813,813,813,813,813,813,813,813,813,813,813,813,813,813,813,813,813,813,813,813,813,811,802,796,790,786,785,785,785,785,785,785,785,785,785,785,785,785,785,785,785,785,785,785,785,785,785,782,779,767,747,680,668,639,627,621,611,607,603,599,591,560,546,531,515,503,487],"ymouse":[578,578,578,578,578,578,578,578,578,578,578,578,578,578,578,578,578,578,578,578,578,578,578,578,578,578,578,578,578,578,578,578,578,578,578,572,549,534,521,512,505,505,505,505,505,505,505,505,505,505,505,505,505,505,505,505,505,505,505,505,505,503,499,494,486,384,356,306,289,273,253,242,231,223,211,171,154,136,118,102,76],"timestamp_mouse":[1,18,36,56,76,97,117,137,157,177,196,217,237,256,277,297,316,336,358,377,397,417,437,456,477,496,517,536,556,577,596,617,637,657,676,696,716,736,756,777,796,816,837,857,878,896,916,937,956,976,996,1016,1037,1057,1076,1096,1117,1136,1156,1176,1197,1216,1237,1257,1276,1296,1317,1337,1356,1376,1397,1416,1436,1456,1476,1497,1516,1537,1557,1576,1597],"xSR":741.5,"ySR":501.8,"xT1":424.9,"yT1":0,"xT2":1058.1,"yT2":0,"toosoon":0,"cond_shown":"randomdotsizeEA","ratio_trial":900,"smaller_num":"18","larger_num":"20","correct_side":1,"subjID":"TomásDíazMontoya","gender":"0","age":"11","school":"6","test":{"fix_dur":[250,1500],"timestim":300,"targets_dim":[100,100],"targets_relative_coord":[0.3,0.7],"size_stim":[880,420],"start_dim":[100,100],"size_start":[300,300],"size_fix":60,"samplingrate":20,"img_types":["equaldotsize","equaldotanddens","randomdotsizeEA"],"ratios":[250,500,750,900],"rep_conds":9,"nTrials":120,"trials_to_rest":500,"Trials_order":[35,95,81,90,36,61,14,116,25,109,82,110,66,18,20,4,9,7,47,13,67,68,72,26,53,38,28,83,118,48,34,17,16,65,0,103,84,77,19,60,33,44,115,58,101,10,107,79,46,89,15,24,31,52,29,105,62,8,111,54,96,78,6,39,11,102,97,92,86,59,41,113,117,57,85,37,3,42,12,55,71,91,22,70,112,56,93,21,50,99,75,73,1,43,30,100,40,45,2,94,87,51,76,106,80,63,104,74,88,5,98,64,114,119,32,49,23,108,69,27],"cond_shown":["randomdotsizeEA","randomdotsizeEA","equaldotsize","equaldotsize","equaldotsize","equaldotanddens","randomdotsizeEA","randomdotsizeEA","equaldotanddens","equaldotanddens","equaldotanddens","randomdotsizeEA","equaldotsize","equaldotsize","randomdotsizeEA","equaldotanddens","equaldotsize","equaldotanddens","randomdotsizeEA","equaldotanddens","equaldotanddens","randomdotsizeEA","equaldotsize","randomdotsizeEA","randomdotsizeEA","randomdotsizeEA","equaldotanddens","randomdotsizeEA","equaldotanddens","equaldotsize","equaldotanddens","randomdotsizeEA","equaldotanddens","randomdotsizeEA","equaldotsize","equaldotanddens","equaldotsize","randomdotsizeEA","equaldotanddens","equaldotsize","equaldotsize","randomdotsizeEA","equaldotanddens","equaldotanddens","randomdotsizeEA","equaldotanddens","randomdotsizeEA","equaldotanddens","equaldotanddens","randomdotsizeEA","equaldotsize","equaldotsize","equaldotanddens","equaldotanddens","randomdotsizeEA","equaldotsize","randomdotsizeEA","randomdotsizeEA","equaldotsize","equaldotsize","equaldotsize","equaldotsize","equaldotsize","equaldotsize","randomdotsizeEA","equaldotsize","equaldotanddens","randomdotsizeEA","randomdotsizeEA","randomdotsizeEA","randomdotsizeEA","randomdotsizeEA","equaldotsize","equaldotsize","equaldotanddens","equaldotanddens","equaldotsize","equaldotsize","equaldotsize","equaldotanddens","randomdotsizeEA","equaldotanddens","equaldotanddens","equaldotanddens","equaldotanddens","randomdotsizeEA","equaldotsize","equaldotsize","randomdotsizeEA","equaldotsize","equaldotsize","equaldotanddens","equaldotanddens","equaldotanddens","equaldotsize","equaldotanddens","equaldotanddens","equaldotsize","randomdotsizeEA","equaldotanddens","equaldotsize","equaldotsize","equaldotanddens","equaldotanddens","randomdotsizeEA","equaldotsize","randomdotsizeEA","randomdotsizeEA","equaldotanddens","randomdotsizeEA","randomdotsizeEA","equaldotanddens","equaldotsize","randomdotsizeEA","randomdotsizeEA","equaldotanddens","randomdotsizeEA","equaldotsize","equaldotsize","equaldotsize"],"ratio_trial":[900,900,900,750,250,250,250,750,250,250,900,250,750,750,750,500,900,750,900,250,750,750,250,250,500,250,500,900,900,250,900,500,500,500,250,750,250,500,750,250,900,750,750,900,500,900,900,750,900,500,500,250,750,500,500,900,250,750,500,750,250,750,750,500,900,750,250,750,250,900,500,500,900,900,250,250,500,750,250,750,900,750,900,900,500,750,900,900,250,500,500,250,250,750,750,500,500,900,250,900,500,500,500,900,750,500,750,250,500,500,250,500,750,900,750,250,900,250,900,500],"smaller_num":["18","18","9","3","1","2","2","6","4","4","9","3","12","3","3","1","18","3","9","5","3","3","2","5","4","1","3","9","18","4","9","2","2","2","4","6","3","2","6","6","9","3","3","18","2","9","18","15","9","9","6","6","9","2","5","9","3","18","2","6","6","3","3","9","18","9","2","15","3","18","2","4","18","18","3","3","1","3","2","15","9","6","18","18","1","12","9","18","2","1","9","1","2","3","3","5","1","9","6","18","2","9","6","18","15","2","3","4","1","9","2","5","6","9","3","3","18","6","9","6"],"larger_num":["20","20","10","4","4","8","8","8","16","16","10","12","16","4","4","2","20","4","10","20","4","4","8","20","8","4","6","10","20","16","10","4","4","4","16","8","12","4","8","24","10","4","4","20","4","10","20","20","10","18","12","24","12","4","10","10","12","24","4","8","24","4","4","18","20","12","8","20","12","20","4","8","20","20","12","12","2","4","8","20","10","8","20","20","2","16","10","20","8","2","18","4","8","4","4","10","2","10","24","20","4","18","12","20","20","4","4","16","2","18","8","10","8","10","4","12","20","24","10","12"],"correct_side":[1,2,2,1,2,1,1,1,2,2,2,2,2,2,1,2,2,2,2,2,2,1,1,2,1,2,2,2,1,1,2,1,1,1,1,1,1,2,1,1,2,1,1,1,1,2,2,2,2,1,1,2,2,1,2,2,2,1,1,1,2,1,1,2,1,2,1,2,2,1,1,1,2,2,1,2,2,2,1,2,2,1,1,1,2,2,2,2,1,2,2,2,1,1,2,1,2,2,1,1,2,1,1,1,2,1,2,1,2,2,1,1,1,2,2,2,1,1,1,1],"img_shown":["img/900/randomdotsizeEA/L/10_Ratio_900_L_20_R_18.png","img/900/randomdotsizeEA/R/13_Ratio_900_L_18_R_20.png","img/900/equaldotsize/R/3_Ratio_900_L_9_R_10.png","img/750/equaldotsize/L/9_Ratio_750_L_4_R_3.png","img/250/equaldotsize/R/8_Ratio_250_L_1_R_4.png","img/250/equaldotanddens/L/7_Ratio_250_L_8_R_2.png","img/250/randomdotsizeEA/L/3_Ratio_250_L_8_R_2.png","img/750/randomdotsizeEA/L/13_Ratio_750_L_8_R_6.png","img/250/equaldotanddens/R/10_Ratio_250_L_4_R_16.png","img/250/equaldotanddens/R/10_Ratio_250_L_4_R_16.png","img/900/equaldotanddens/R/6_Ratio_900_L_9_R_10.png","img/250/randomdotsizeEA/R/9_Ratio_250_L_3_R_12.png","img/750/equaldotsize/R/11_Ratio_750_L_12_R_16.png","img/750/equaldotsize/R/7_Ratio_750_L_3_R_4.png","img/750/randomdotsizeEA/L/10_Ratio_750_L_4_R_3.png","img/500/equaldotanddens/R/12_Ratio_500_L_1_R_2.png","img/900/equaldotsize/R/11_Ratio_900_L_18_R_20.png","img/750/equaldotanddens/R/12_Ratio_750_L_3_R_4.png","img/900/randomdotsizeEA/R/6_Ratio_900_L_9_R_10.png","img/250/equaldotanddens/R/12_Ratio_250_L_5_R_20.png","img/750/equaldotanddens/R/7_Ratio_750_L_3_R_4.png","img/750/randomdotsizeEA/L/8_Ratio_750_L_4_R_3.png","img/250/equaldotsize/L/1_Ratio_250_L_8_R_2.png","img/250/randomdotsizeEA/R/12_Ratio_250_L_5_R_20.png","img/500/randomdotsizeEA/L/8_Ratio_500_L_8_R_4.png","img/250/randomdotsizeEA/R/8_Ratio_250_L_1_R_4.png","img/500/equaldotanddens/R/2_Ratio_500_L_3_R_6.png","img/900/randomdotsizeEA/R/15_Ratio_900_L_9_R_10.png","img/900/equaldotanddens/L/10_Ratio_900_L_20_R_18.png","img/250/equaldotsize/L/2_Ratio_250_L_16_R_4.png","img/900/equaldotanddens/R/3_Ratio_900_L_9_R_10.png","img/500/randomdotsizeEA/L/5_Ratio_500_L_4_R_2.png","img/500/equaldotanddens/L/10_Ratio_500_L_4_R_2.png","img/500/randomdotsizeEA/L/10_Ratio_500_L_4_R_2.png","img/250/equaldotsize/L/2_Ratio_250_L_16_R_4.png","img/750/equaldotanddens/L/14_Ratio_750_L_8_R_6.png","img/250/equaldotsize/L/14_Ratio_250_L_12_R_3.png","img/500/randomdotsizeEA/R/9_Ratio_500_L_2_R_4.png","img/750/equaldotanddens/L/13_Ratio_750_L_8_R_6.png","img/250/equaldotsize/L/5_Ratio_250_L_24_R_6.png","img/900/equaldotsize/R/6_Ratio_900_L_9_R_10.png","img/750/randomdotsizeEA/L/9_Ratio_750_L_4_R_3.png","img/750/equaldotanddens/L/8_Ratio_750_L_4_R_3.png","img/900/equaldotanddens/L/8_Ratio_900_L_20_R_18.png","img/500/randomdotsizeEA/L/10_Ratio_500_L_4_R_2.png","img/900/equaldotanddens/R/5_Ratio_900_L_9_R_10.png","img/900/randomdotsizeEA/R/13_Ratio_900_L_18_R_20.png","img/750/equaldotanddens/R/4_Ratio_750_L_15_R_20.png","img/900/equaldotanddens/R/15_Ratio_900_L_9_R_10.png","img/500/randomdotsizeEA/L/4_Ratio_500_L_18_R_9.png","img/500/equaldotsize/L/13_Ratio_500_L_12_R_6.png","img/250/equaldotsize/R/6_Ratio_250_L_6_R_24.png","img/750/equaldotanddens/R/15_Ratio_750_L_9_R_12.png","img/500/equaldotanddens/L/10_Ratio_500_L_4_R_2.png","img/500/randomdotsizeEA/R/14_Ratio_500_L_5_R_10.png","img/900/equaldotsize/R/15_Ratio_900_L_9_R_10.png","img/250/randomdotsizeEA/R/11_Ratio_250_L_3_R_12.png","img/750/randomdotsizeEA/L/6_Ratio_750_L_24_R_18.png","img/500/equaldotsize/L/5_Ratio_500_L_4_R_2.png","img/750/equaldotsize/L/13_Ratio_750_L_8_R_6.png","img/250/equaldotsize/R/6_Ratio_250_L_6_R_24.png","img/750/equaldotsize/L/9_Ratio_750_L_4_R_3.png","img/750/equaldotsize/L/8_Ratio_750_L_4_R_3.png","img/500/equaldotsize/R/6_Ratio_500_L_9_R_18.png","img/900/randomdotsizeEA/L/4_Ratio_900_L_20_R_18.png","img/750/equaldotsize/R/15_Ratio_750_L_9_R_12.png","img/250/equaldotanddens/L/3_Ratio_250_L_8_R_2.png","img/750/randomdotsizeEA/R/3_Ratio_750_L_15_R_20.png","img/250/randomdotsizeEA/R/9_Ratio_250_L_3_R_12.png","img/900/randomdotsizeEA/L/8_Ratio_900_L_20_R_18.png","img/500/randomdotsizeEA/L/5_Ratio_500_L_4_R_2.png","img/500/randomdotsizeEA/L/8_Ratio_500_L_8_R_4.png","img/900/equaldotsize/R/13_Ratio_900_L_18_R_20.png","img/900/equaldotsize/R/13_Ratio_900_L_18_R_20.png","img/250/equaldotanddens/L/14_Ratio_250_L_12_R_3.png","img/250/equaldotanddens/R/9_Ratio_250_L_3_R_12.png","img/500/equaldotsize/R/12_Ratio_500_L_1_R_2.png","img/750/equaldotsize/R/12_Ratio_750_L_3_R_4.png","img/250/equaldotsize/L/7_Ratio_250_L_8_R_2.png","img/750/equaldotanddens/R/3_Ratio_750_L_15_R_20.png","img/900/randomdotsizeEA/R/3_Ratio_900_L_9_R_10.png","img/750/equaldotanddens/L/13_Ratio_750_L_8_R_6.png","img/900/equaldotanddens/L/4_Ratio_900_L_20_R_18.png","img/900/equaldotanddens/L/10_Ratio_900_L_20_R_18.png","img/500/equaldotanddens/R/15_Ratio_500_L_1_R_2.png","img/750/randomdotsizeEA/R/11_Ratio_750_L_12_R_16.png","img/900/equaldotsize/R/15_Ratio_900_L_9_R_10.png","img/900/equaldotsize/R/9_Ratio_900_L_18_R_20.png","img/250/randomdotsizeEA/L/7_Ratio_250_L_8_R_2.png","img/500/equaldotsize/R/12_Ratio_500_L_1_R_2.png","img/500/equaldotsize/R/6_Ratio_500_L_9_R_18.png","img/250/equaldotanddens/R/8_Ratio_250_L_1_R_4.png","img/250/equaldotanddens/L/3_Ratio_250_L_8_R_2.png","img/750/equaldotanddens/L/9_Ratio_750_L_4_R_3.png","img/750/equaldotsize/R/7_Ratio_750_L_3_R_4.png","img/500/equaldotanddens/L/7_Ratio_500_L_10_R_5.png","img/500/equaldotanddens/R/15_Ratio_500_L_1_R_2.png","img/900/equaldotsize/R/6_Ratio_900_L_9_R_10.png","img/250/randomdotsizeEA/L/5_Ratio_250_L_24_R_6.png","img/900/equaldotanddens/L/4_Ratio_900_L_20_R_18.png","img/500/equaldotsize/R/9_Ratio_500_L_2_R_4.png","img/500/equaldotsize/L/4_Ratio_500_L_18_R_9.png","img/500/equaldotanddens/L/13_Ratio_500_L_12_R_6.png","img/900/equaldotanddens/L/8_Ratio_900_L_20_R_18.png","img/750/randomdotsizeEA/R/5_Ratio_750_L_15_R_20.png","img/500/equaldotsize/L/5_Ratio_500_L_4_R_2.png","img/750/randomdotsizeEA/R/7_Ratio_750_L_3_R_4.png","img/250/randomdotsizeEA/L/2_Ratio_250_L_16_R_4.png","img/500/equaldotanddens/R/12_Ratio_500_L_1_R_2.png","img/500/randomdotsizeEA/R/6_Ratio_500_L_9_R_18.png","img/250/randomdotsizeEA/L/1_Ratio_250_L_8_R_2.png","img/500/equaldotanddens/L/7_Ratio_500_L_10_R_5.png","img/750/equaldotsize/L/13_Ratio_750_L_8_R_6.png","img/900/randomdotsizeEA/R/7_Ratio_900_L_9_R_10.png","img/750/randomdotsizeEA/R/7_Ratio_750_L_3_R_4.png","img/250/equaldotanddens/R/4_Ratio_250_L_3_R_12.png","img/900/randomdotsizeEA/L/10_Ratio_900_L_20_R_18.png","img/250/equaldotsize/L/5_Ratio_250_L_24_R_6.png","img/900/equaldotsize/L/1_Ratio_900_L_10_R_9.png","img/500/equaldotsize/L/11_Ratio_500_L_12_R_6.png"],"Rat0":[["12_Ratio_0_L_9_R_0.png","13_Ratio_0_L_6_R_0.png","5_Ratio_0_L_2_R_0.png","6_Ratio_0_L_4_R_0.png","8_Ratio_0_L_6_R_0.png"],["1_Ratio_0_L_0_R_17.png","10_Ratio_0_L_0_R_22.png","11_Ratio_0_L_0_R_1.png","14_Ratio_0_L_0_R_24.png","15_Ratio_0_L_0_R_4.png","2_Ratio_0_L_0_R_5.png","3_Ratio_0_L_0_R_17.png","4_Ratio_0_L_0_R_7.png","7_Ratio_0_L_0_R_19.png","9_Ratio_0_L_0_R_15.png"]],"Rat250":[["1_Ratio_250_L_8_R_2.png","14_Ratio_250_L_12_R_3.png","15_Ratio_250_L_12_R_3.png","2_Ratio_250_L_16_R_4.png","3_Ratio_250_L_8_R_2.png","5_Ratio_250_L_24_R_6.png","7_Ratio_250_L_8_R_2.png"],["10_Ratio_250_L_4_R_16.png","11_Ratio_250_L_3_R_12.png","12_Ratio_250_L_5_R_20.png","13_Ratio_250_L_2_R_8.png","4_Ratio_250_L_3_R_12.png","6_Ratio_250_L_6_R_24.png","8_Ratio_250_L_1_R_4.png","9_Ratio_250_L_3_R_12.png"]],"Rat500":[["10_Ratio_500_L_4_R_2.png","11_Ratio_500_L_12_R_6.png","13_Ratio_500_L_12_R_6.png","4_Ratio_500_L_18_R_9.png","5_Ratio_500_L_4_R_2.png","7_Ratio_500_L_10_R_5.png","8_Ratio_500_L_8_R_4.png"],["1_Ratio_500_L_9_R_18.png","12_Ratio_500_L_1_R_2.png","14_Ratio_500_L_5_R_10.png","15_Ratio_500_L_1_R_2.png","2_Ratio_500_L_3_R_6.png","3_Ratio_500_L_10_R_20.png","6_Ratio_500_L_9_R_18.png","9_Ratio_500_L_2_R_4.png"]],"Rat750":[["1_Ratio_750_L_20_R_15.png","10_Ratio_750_L_4_R_3.png","13_Ratio_750_L_8_R_6.png","14_Ratio_750_L_8_R_6.png","6_Ratio_750_L_24_R_18.png","8_Ratio_750_L_4_R_3.png","9_Ratio_750_L_4_R_3.png"],["11_Ratio_750_L_12_R_16.png","12_Ratio_750_L_3_R_4.png","15_Ratio_750_L_9_R_12.png","2_Ratio_750_L_6_R_8.png","3_Ratio_750_L_15_R_20.png","4_Ratio_750_L_15_R_20.png","5_Ratio_750_L_15_R_20.png","7_Ratio_750_L_3_R_4.png"]],"Rat900":[["1_Ratio_900_L_10_R_9.png","10_Ratio_900_L_20_R_18.png","2_Ratio_900_L_20_R_18.png","4_Ratio_900_L_20_R_18.png","8_Ratio_900_L_20_R_18.png"],["11_Ratio_900_L_18_R_20.png","12_Ratio_900_L_18_R_20.png","13_Ratio_900_L_18_R_20.png","14_Ratio_900_L_18_R_20.png","15_Ratio_900_L_9_R_10.png","3_Ratio_900_L_9_R_10.png","5_Ratio_900_L_9_R_10.png","6_Ratio_900_L_9_R_10.png","7_Ratio_900_L_9_R_10.png","9_Ratio_900_L_18_R_20.png"]],"Rat1000":[["10_Ratio_1000_L_16_R_16.png","11_Ratio_1000_L_6_R_6.png","12_Ratio_1000_L_14_R_14.png","13_Ratio_1000_L_20_R_20.png","15_Ratio_1000_L_15_R_15.png","2_Ratio_1000_L_17_R_17.png","4_Ratio_1000_L_9_R_9.png","5_Ratio_1000_L_6_R_6.png","6_Ratio_1000_L_19_R_19.png","8_Ratio_1000_L_14_R_14.png","9_Ratio_1000_L_25_R_25.png"],["1_Ratio_1000_L_1_R_1.png","14_Ratio_1000_L_17_R_17.png","3_Ratio_1000_L_17_R_17.png","7_Ratio_1000_L_6_R_6.png"]]}},{"start_time":1551887472567,"click_time":1551887473670,"finger_time":1551887473390,"fix_duration":594.94058674659,"trial":1,"RT":823,"MT":280,"sideResp":2,"stimulus":"img/900/randomdotsizeEA/R/13_Ratio_900_L_18_R_20.png","xmouse":[831,831,831,831,831,831,831,831,831,831,831,831,831,831,831,831,831,831,831,831,831,831,831,831,831,831,831,831,831,831,831,831,831,831,831,831,831,831,831,831,831,838,865,901,943,995,1065,1084,1101,1111,1120,1125,1128,1130,1130,1130],"ymouse":[481,481,481,481,481,481,481,481,481,481,481,481,481,481,481,481,481,481,481,481,481,481,481,481,481,481,481,481,481,481,481,481,481,481,481,481,481,481,481,481,481,460,412,355,298,251,188,173,159,149,140,131,123,114,104,94],"timestamp_mouse":[8,23,55,63,84,103,123,143,163,184,203,223,244,264,283,303,323,343,364,385,403,424,445,463,483,503,523,544,564,584,604,623,643,665,684,704,724,744,763,784,805,823,843,863,884,903,923,945,963,983,1005,1023,1043,1063,1083,1103],"xSR":741.5,"ySR":469.95,"xT1":424.9,"yT1":0,"xT2":1058.1,"yT2":0,"toosoon":0,"cond_shown":"randomdotsizeEA","ratio_trial":900,"smaller_num":"18","larger_num":"20","correct_side":2,"subjID":"TomásDíazMontoya","gender":"0","age":"11","school":"6"},{"start_time":1551887475249,"click_time":1551887476192,"finger_time":1551887475891,"fix_duration":737.5383945466074,"trial":2,"RT":642,"MT":301,"sideResp":2,"stimulus":"img/900/equaldotsize/R/3_Ratio_900_L_9_R_10.png","xmouse":[812,812,812,812,812,812,812,812,812,812,812,812,812,812,812,812,812,812,812,812,812,812,812,812,812,812,812,812,812,812,812,812,822,837,854,870,882,910,930,953,980,1023,1118,1142,1154,1156,1156,1154],"ymouse":[552,552,552,552,552,552,552,552,552,552,552,552,552,552,552,552,552,552,552,552,552,552,552,552,552,552,552,552,552,552,552,536,449,402,371,349,333,305,289,272,251,215,141,123,110,104,101,95],"timestamp_mouse":[13,21,41,62,83,102,122,142,163,182,202,221,242,261,282,302,322,341,363,382,402,423,441,463,481,501,523,541,562,583,601,621,642,661,681,701,723,742,761,781,802,821,842,861,882,901,921,942],"xSR":741.5,"ySR":469.95,"xT1":424.9,"yT1":0,"xT2":1058.1,"yT2":0,"toosoon":0,"cond_shown":"equaldotsize","ratio_trial":900,"smaller_num":"9","larger_num":"10","correct_side":2,"subjID":"TomásDíazMontoya","gender":"0","age":"11","school":"6"},{"start_time":1551887478468,"click_time":1551887479211,"finger_time":1551887479130,"fix_duration":1255.5137523910942,"trial":3,"RT":662,"MT":81,"sideResp":1,"stimulus":"img/750/equaldotsize/L/9_Ratio_750_L_4_R_3.png","xmouse":[800,800,800,800,800,800,800,800,800,800,800,800,800,800,800,800,800,800,800,800,800,800,800,800,800,800,800,800,800,800,800,797,759,726,695,649,600,510],"ymouse":[527,527,527,527,527,527,527,527,527,527,527,527,527,527,527,527,527,527,527,527,527,527,527,527,527,527,527,527,527,527,527,523,489,437,360,275,211,97],"timestamp_mouse":[8,40,42,62,82,102,123,144,163,182,203,222,244,262,283,302,324,342,362,384,403,423,443,463,482,503,522,544,562,582,602,622,644,662,682,702,722,742],"xSR":741.5,"ySR":469.95,"xT1":424.9,"yT1":0,"xT2":1058.1,"yT2":0,"toosoon":0,"cond_shown":"equaldotsize","ratio_trial":750,"smaller_num":"3","larger_num":"4","correct_side":1,"subjID":"TomásDíazMontoya","gender":"0","age":"11","school":"6"},{"start_time":1551887480411,"click_time":1551887481110,"finger_time":1551887481010,"fix_duration":298.7388251803661,"trial":4,"RT":599,"MT":100,"sideResp":2,"stimulus":"img/250/equaldotsize/R/8_Ratio_250_L_1_R_4.png","xmouse":[763,763,763,763,763,763,763,763,763,763,763,763,763,763,763,763,763,763,763,763,763,763,763,763,763,763,763,768,778,801,857,890,930,970,1009,1069],"ymouse":[495,495,495,495,495,495,495,495,495,495,495,495,495,495,495,495,495,495,495,495,495,495,495,495,495,495,495,495,490,474,427,378,306,239,177,94],"timestamp_mouse":[1,28,39,59,80,99,119,140,159,179,199,220,240,260,279,300,319,339,360,380,400,419,439,459,480,499,519,539,560,579,599,620,639,659,679,699],"xSR":741.5,"ySR":469.95,"xT1":424.9,"yT1":0,"xT2":1058.1,"yT2":0,"toosoon":0,"cond_shown":"equaldotsize","ratio_trial":250,"smaller_num":"1","larger_num":"4","correct_side":2,"subjID":"TomásDíazMontoya","gender":"0","age":"11","school":"6"},{"start_time":1551887482575,"click_time":1551887485011,"finger_time":1551887483210,"fix_duration":664.0081260647486,"trial":5,"RT":635,"MT":1801,"sideResp":1,"stimulus":"img/250/equaldotanddens/L/7_Ratio_250_L_8_R_2.png","xmouse":[809,809,809,809,809,809,809,809,809,809,809,809,809,809,809,809,809,809,809,809,809,809,809,809,809,809,809,809,809,809,793,719,654,595,557,551,551,551,551,551,551,551,551,551,551,551,551,551,551,551,551,551,551,551,551,551,551,551,551,551,551,551,551,551,551,551,551,551,551,551,551,551,551,551,551,551,551,551,551,551,551,551,551,551,551,551,551,551,551,551,551,551,542,538,532,527,512,510,509,508,508,505,503,500,495,488,478,466,462,461,459,457,456,455,455,455,455,455,455,455,455,455],"ymouse":[497,497,497,497,497,497,497,497,497,497,497,497,497,497,497,497,497,497,497,497,497,497,497,497,497,497,497,497,497,497,494,463,435,410,393,390,390,390,390,390,390,390,390,390,390,390,390,390,390,390,390,390,390,390,390,390,390,390,390,390,390,390,390,390,390,390,390,390,390,390,390,390,390,390,390,390,390,390,390,390,390,390,390,390,390,390,390,390,390,390,390,390,362,351,339,327,298,295,293,292,291,281,265,242,209,186,167,138,130,124,120,114,112,110,109,109,109,109,108,108,107,98],"timestamp_mouse":[17,37,57,75,95,116,135,155,176,196,215,235,257,275,295,315,335,357,375,396,416,436,456,476,496,516,535,557,575,596,615,635,656,676,695,716,736,755,776,795,815,836,856,876,896,915,936,956,975,996,1015,1036,1057,1075,1095,1116,1136,1156,1177,1195,1215,1236,1256,1275,1296,1315,1336,1355,1375,1395,1417,1436,1455,1476,1495,1517,1536,1556,1576,1597,1617,1636,1655,1675,1695,1715,1735,1755,1776,1795,1815,1835,1855,1875,1895,1915,1935,1955,1976,1995,2015,2037,2055,2075,2097,2115,2135,2156,2175,2196,2215,2236,2255,2275,2295,2316,2336,2357,2376,2395,2416,2436],"xSR":741.5,"ySR":469.95,"xT1":424.9,"yT1":0,"xT2":1058.1,"yT2":0,"toosoon":0,"cond_shown":"equaldotanddens","ratio_trial":250,"smaller_num":"2","larger_num":"8","correct_side":1,"subjID":"TomásDíazMontoya","gender":"0","age":"11","school":"6"},{"start_time":1551887486301,"click_time":1551887487612,"finger_time":1551887487210,"fix_duration":528.7397682464942,"trial":6,"RT":909,"MT":402,"sideResp":1,"stimulus":"img/250/randomdotsizeEA/L/3_Ratio_250_L_8_R_2.png","xmouse":[806,806,806,806,806,806,806,806,806,806,806,806,806,806,806,806,806,806,806,806,806,806,806,806,806,806,806,806,806,806,806,806,806,806,806,806,807,807,807,807,807,807,808,808,810,810,810,810,810,805,792,743,705,670,632,599,527,514,486,475,467,459,453,448,442,431],"ymouse":[509,509,509,509,509,509,509,509,509,509,509,509,509,509,509,509,509,509,509,509,509,509,509,509,509,509,509,509,509,509,509,509,509,509,509,509,503,493,491,486,484,480,477,473,470,469,466,465,460,454,441,412,389,366,340,310,231,214,176,161,150,136,128,118,106,83],"timestamp_mouse":[10,41,50,69,89,111,131,149,171,190,210,231,249,271,289,309,330,350,369,390,410,430,451,471,489,509,529,549,569,591,609,629,649,670,689,710,729,750,770,789,809,831,849,869,889,909,929,949,969,989,1009,1030,1049,1070,1091,1109,1129,1149,1169,1189,1209,1229,1250,1270,1290,1311],"xSR":741.5,"ySR":469.95,"xT1":424.9,"yT1":0,"xT2":1058.1,"yT2":0,"toosoon":0,"cond_shown":"randomdotsizeEA","ratio_trial":250,"smaller_num":"2","larger_num":"8","correct_side":1,"subjID":"TomásDíazMontoya","gender":"0","age":"11","school":"6"},{"start_time":1551887491184,"click_time":1551887492250,"finger_time":1551887491930,"fix_duration":1131.3477575640877,"trial":7,"RT":746,"MT":320,"sideResp":1,"stimulus":"img/750/randomdotsizeEA/L/13_Ratio_750_L_8_R_6.png","xmouse":[816,816,816,816,816,816,816,816,816,816,816,816,816,816,816,816,816,816,816,816,816,816,816,816,816,816,816,816,816,816,816,816,816,816,807,800,781,735,706,679,654,619,588,582,578,573,567,547,538,524,512,508,500,499],"ymouse":[548,548,548,548,548,548,548,548,548,548,548,548,548,548,548,548,548,548,548,548,548,548,548,548,548,548,548,548,548,548,548,548,548,548,538,529,509,464,438,417,393,352,303,285,270,253,240,203,184,164,145,127,101,99],"timestamp_mouse":[10,30,48,66,87,106,126,146,166,187,207,226,247,266,288,306,326,347,367,386,408,426,446,466,486,506,526,546,567,586,607,627,647,666,687,707,726,746,767,786,806,826,846,866,886,907,928,946,966,986,1006,1026,1046,1066],"xSR":741.5,"ySR":469.95,"xT1":424.9,"yT1":0,"xT2":1058.1,"yT2":0,"toosoon":0,"cond_shown":"randomdotsizeEA","ratio_trial":750,"smaller_num":"6","larger_num":"8","correct_side":1,"subjID":"TomásDíazMontoya","gender":"0","age":"11","school":"6"},{"start_time":1551887497982,"click_time":1551887499151,"finger_time":1551887498751,"fix_duration":1071.0779144010753,"trial":8,"RT":769,"MT":400,"sideResp":2,"stimulus":"img/250/equaldotanddens/R/10_Ratio_250_L_4_R_16.png","xmouse":[782,782,782,782,782,782,782,782,782,782,782,782,782,782,782,782,782,782,782,782,782,782,782,782,782,782,782,782,782,782,782,782,782,782,782,783,787,797,856,884,910,924,936,956,966,973,978,983,995,1005,1013,1018,1025,1035,1042,1051,1061,1073,1095],"ymouse":[522,522,522,522,522,522,522,522,522,522,522,522,522,522,522,522,522,522,522,522,522,522,522,522,522,522,522,522,522,522,522,522,522,522,522,522,514,491,403,364,328,306,285,248,232,219,208,198,177,160,148,141,133,123,119,113,108,101,87],"timestamp_mouse":[10,32,49,70,88,109,128,150,168,188,209,228,248,270,288,308,329,349,369,390,408,428,449,470,489,509,528,550,570,588,609,630,649,669,688,708,728,750,769,788,808,828,848,868,888,909,928,948,968,990,1008,1028,1049,1068,1089,1109,1128,1148,1169],"xSR":741.5,"ySR":469.95,"xT1":424.9,"yT1":0,"xT2":1058.1,"yT2":0,"toosoon":0,"cond_shown":"equaldotanddens","ratio_trial":250,"smaller_num":"4","larger_num":"16","correct_side":2,"subjID":"TomásDíazMontoya","gender":"0","age":"11","school":"6"},{"start_time":1551887518213,"click_time":1551887519191,"finger_time":1551887518790,"fix_duration":1301.0476354115501,"trial":9,"RT":577,"MT":401,"sideResp":2,"stimulus":"img/250/equaldotanddens/R/10_Ratio_250_L_4_R_16.png","xmouse":[800,800,800,800,800,800,800,800,800,800,800,800,800,800,800,800,800,800,800,800,800,800,800,800,800,800,800,802,820,837,864,897,930,956,986,993,996,998,1008,1012,1017,1023,1029,1048,1058,1067,1076,1083,1098],"ymouse":[490,490,490,490,490,490,490,490,490,490,490,490,490,490,490,490,490,490,490,490,490,490,490,490,490,490,486,475,427,396,355,310,275,249,220,211,206,201,187,183,178,172,165,147,136,124,115,104,79],"timestamp_mouse":[18,39,57,79,97,117,139,157,178,197,219,239,257,277,299,317,337,359,377,399,418,439,457,477,499,517,537,558,577,597,617,637,658,677,697,717,737,758,777,797,817,838,859,878,897,918,937,958,978],"xSR":741.5,"ySR":469.95,"xT1":424.9,"yT1":0,"xT2":1058.1,"yT2":0,"toosoon":0,"cond_shown":"equaldotanddens","ratio_trial":250,"smaller_num":"4","larger_num":"16","correct_side":2,"subjID":"TomásDíazMontoya","gender":"0","age":"11","school":"6"},{"start_time":1551887521112,"click_time":1551887521910,"finger_time":1551887521710,"fix_duration":1300.401778254825,"trial":10,"RT":598,"MT":200,"sideResp":1,"stimulus":"img/900/equaldotanddens/R/6_Ratio_900_L_9_R_10.png","xmouse":[808,808,808,808,808,808,808,808,808,808,808,808,808,808,808,808,808,808,808,808,808,808,808,808,808,808,808,800,793,750,728,708,698,688,654,628,595,563,534,494],"ymouse":[513,513,513,513,513,513,513,513,513,513,513,513,513,513,513,513,513,513,513,513,513,513,513,513,513,513,513,507,501,458,433,402,380,361,293,248,197,150,109,53],"timestamp_mouse":[34,39,58,78,98,119,139,160,178,200,218,238,260,278,298,319,340,358,379,400,419,439,458,480,500,518,538,558,579,598,620,639,659,680,699,718,738,758,778,798],"xSR":741.5,"ySR":469.95,"xT1":424.9,"yT1":0,"xT2":1058.1,"yT2":0,"toosoon":0,"cond_shown":"equaldotanddens","ratio_trial":900,"smaller_num":"9","larger_num":"10","correct_side":2,"subjID":"TomásDíazMontoya","gender":"0","age":"11","school":"6"},{"start_time":1551887525666,"click_time":1551887526712,"finger_time":1551887526211,"fix_duration":1453.5484862296858,"trial":11,"RT":545,"MT":501,"sideResp":2,"stimulus":"img/250/randomdotsizeEA/R/9_Ratio_250_L_3_R_12.png","xmouse":[813,813,813,813,813,813,813,813,813,813,813,813,813,813,813,813,813,813,813,813,813,813,813,813,813,813,814,830,842,858,874,885,921,936,950,962,972,991,996,999,1001,1002,1004,1006,1009,1012,1015,1024,1029,1037,1042,1049,1060],"ymouse":[492,492,492,492,492,492,492,492,492,492,492,492,492,492,492,492,492,492,492,492,492,492,492,492,492,492,489,451,424,396,370,346,263,228,197,168,144,100,89,82,78,74,67,64,60,57,55,53,51,49,48,47,46],"timestamp_mouse":[10,25,46,66,84,106,124,145,165,185,206,225,245,265,285,306,326,345,365,385,406,425,444,465,484,504,525,545,564,585,604,624,644,664,685,705,724,744,765,785,804,824,844,864,885,905,926,944,964,984,1005,1025,1046],"xSR":741.5,"ySR":469.95,"xT1":424.9,"yT1":0,"xT2":1058.1,"yT2":0,"toosoon":0,"cond_shown":"randomdotsizeEA","ratio_trial":250,"smaller_num":"3","larger_num":"12","correct_side":2,"subjID":"TomásDíazMontoya","gender":"0","age":"11","school":"6"},{"start_time":1551887528205,"click_time":1551887529891,"finger_time":1551887528930,"fix_duration":712.508246508407,"trial":12,"RT":725,"MT":961,"sideResp":2,"stimulus":"img/750/equaldotsize/R/11_Ratio_750_L_12_R_16.png","xmouse":[785,785,785,785,785,785,785,785,785,785,785,785,785,785,785,785,785,785,785,785,785,785,785,785,785,785,785,785,785,785,785,785,785,784,783,792,849,886,917,941,968,977,982,987,991,991,993,993,993,994,995,995,995,995,995,996,1010,1022,1036,1049,1058,1058,1058,1058,1058,1058,1058,1058,1058,1058,1058,1045,1032,1020,1007,1003,1003,1003,1003,1003,1003,1021,1035,1054,1064],"ymouse":[513,513,513,513,513,513,513,513,513,513,513,513,513,513,513,513,513,513,513,513,513,513,513,513,513,513,513,513,513,513,513,513,513,513,510,485,379,330,292,263,221,199,176,157,136,127,118,116,114,112,109,109,109,109,109,109,97,85,74,62,54,54,54,54,54,54,54,54,54,58,66,111,147,179,208,219,219,219,219,219,219,176,143,104,90],"timestamp_mouse":[10,39,45,67,86,105,127,146,165,187,206,225,246,266,286,306,326,347,365,385,405,427,446,466,486,506,526,545,566,586,606,626,646,665,687,705,725,746,766,785,806,825,846,866,886,905,925,945,965,985,1006,1025,1045,1065,1086,1105,1125,1147,1166,1186,1207,1225,1245,1267,1286,1307,1326,1346,1365,1387,1406,1426,1445,1465,1487,1507,1526,1546,1566,1586,1606,1625,1646,1665,1686],"xSR":741.5,"ySR":469.95,"xT1":424.9,"yT1":0,"xT2":1058.1,"yT2":0,"toosoon":0,"cond_shown":"equaldotsize","ratio_trial":750,"smaller_num":"12","larger_num":"16","correct_side":2,"subjID":"TomásDíazMontoya","gender":"0","age":"11","school":"6"},{"start_time":1551887530984,"click_time":1551887532230,"finger_time":1551887531570,"fix_duration":250,"trial":13,"RT":586,"MT":660,"sideResp":2,"stimulus":"img/750/equaldotsize/R/7_Ratio_750_L_3_R_4.png","xmouse":[840,840,840,840,840,840,840,840,840,840,840,840,840,840,840,840,840,840,840,840,840,840,840,840,839,834,830,828,828,829,835,843,885,909,936,948,961,978,986,994,1002,1008,1015,1016,1020,1024,1028,1033,1035,1035,1035,1035,1035,1035,1035,1035,1035,1035,1035,1039,1050,1056,1074],"ymouse":[508,508,508,508,508,508,508,508,508,508,508,508,508,508,508,508,508,508,508,508,508,508,508,508,508,502,495,482,476,469,451,424,339,299,247,228,207,176,156,135,116,98,78,71,62,54,46,38,35,35,35,35,35,35,35,35,35,35,35,37,42,45,48],"timestamp_mouse":[9,31,47,67,87,107,126,147,166,187,206,227,248,266,286,306,328,347,366,387,408,426,448,466,486,506,526,546,567,586,608,626,646,668,687,707,726,746,767,788,807,827,847,867,887,906,926,946,966,986,1007,1027,1047,1067,1088,1106,1127,1147,1168,1186,1206,1226,1246],"xSR":741.5,"ySR":469.95,"xT1":424.9,"yT1":0,"xT2":1058.1,"yT2":0,"toosoon":0,"cond_shown":"equaldotsize","ratio_trial":750,"smaller_num":"3","larger_num":"4","correct_side":2,"subjID":"TomásDíazMontoya","gender":"0","age":"11","school":"6"},{"start_time":1551887534485,"click_time":1551887535370,"finger_time":1551887535030,"fix_duration":1354.3030720614859,"trial":14,"RT":545,"MT":340,"sideResp":1,"stimulus":"img/750/randomdotsizeEA/L/10_Ratio_750_L_4_R_3.png","xmouse":[812,812,812,812,812,812,812,812,812,812,812,812,812,812,812,812,812,812,812,812,812,812,812,812,812,810,801,754,737,718,699,686,667,661,655,646,634,621,577,560,541,524,499,484,466],"ymouse":[502,502,502,502,502,502,502,502,502,502,502,502,502,502,502,502,502,502,502,502,502,502,502,502,502,502,497,469,458,444,426,405,364,349,334,314,295,275,224,204,184,166,129,112,97],"timestamp_mouse":[10,33,46,65,85,105,126,146,165,186,207,225,245,265,286,306,326,346,366,385,406,427,446,465,486,505,526,545,566,586,605,625,645,665,685,706,726,746,765,785,806,825,846,865,885],"xSR":741.5,"ySR":469.95,"xT1":424.9,"yT1":0,"xT2":1058.1,"yT2":0,"toosoon":0,"cond_shown":"randomdotsizeEA","ratio_trial":750,"smaller_num":"3","larger_num":"4","correct_side":1,"subjID":"TomásDíazMontoya","gender":"0","age":"11","school":"6"},{"start_time":1551887537512,"click_time":1551887538551,"finger_time":1551887538130,"fix_duration":1379.315466528816,"trial":15,"RT":618,"MT":421,"sideResp":2,"stimulus":"img/500/equaldotanddens/R/12_Ratio_500_L_1_R_2.png","xmouse":[770,770,770,770,770,770,770,770,770,770,770,770,770,770,770,770,770,770,770,770,770,770,770,770,770,770,770,770,770,771,773,792,867,907,939,970,983,1008,1016,1023,1028,1031,1031,1031,1031,1031,1031,1031,1032,1034,1041,1050,1067],"ymouse":[478,478,478,478,478,478,478,478,478,478,478,478,478,478,478,478,478,478,478,478,478,478,478,478,478,478,478,478,478,478,478,444,304,235,182,139,118,74,55,37,25,17,17,17,17,17,17,17,16,17,26,32,41],"timestamp_mouse":[1,18,39,60,80,99,118,139,160,178,199,220,239,259,280,300,319,339,358,380,400,419,438,459,479,500,519,539,559,580,598,618,638,658,678,698,718,738,758,780,798,819,838,858,878,898,918,939,959,978,1000,1020,1039],"xSR":741.5,"ySR":469.95,"xT1":424.9,"yT1":0,"xT2":1058.1,"yT2":0,"toosoon":0,"cond_shown":"equaldotanddens","ratio_trial":500,"smaller_num":"1","larger_num":"2","correct_side":2,"subjID":"TomásDíazMontoya","gender":"0","age":"11","school":"6"},{"start_time":1551887539405,"click_time":1551887540331,"finger_time":1551887540051,"fix_duration":292.0691801352282,"trial":16,"RT":646,"MT":280,"sideResp":2,"stimulus":"img/900/equaldotsize/R/11_Ratio_900_L_18_R_20.png","xmouse":[799,799,799,799,799,799,799,799,799,799,799,799,799,799,799,799,799,799,799,799,799,799,799,799,799,799,799,799,799,799,801,816,885,927,968,992,1009,1028,1034,1040,1044,1048,1054,1057,1058,1059,1061],"ymouse":[533,533,533,533,533,533,533,533,533,533,533,533,533,533,533,533,533,533,533,533,533,533,533,533,533,533,533,533,533,533,529,497,377,321,275,250,229,196,181,165,154,141,117,109,105,102,97],"timestamp_mouse":[7,29,45,65,87,105,126,145,165,187,206,225,246,265,287,306,326,346,365,386,405,425,445,467,487,506,525,546,565,586,606,626,646,665,685,706,726,746,766,785,805,825,845,866,885,905,926],"xSR":741.5,"ySR":469.95,"xT1":424.9,"yT1":0,"xT2":1058.1,"yT2":0,"toosoon":0,"cond_shown":"equaldotsize","ratio_trial":900,"smaller_num":"18","larger_num":"20","correct_side":2,"subjID":"TomásDíazMontoya","gender":"0","age":"11","school":"6"},{"start_time":1551887541882,"click_time":1551887542810,"finger_time":1551887542450,"fix_duration":250,"trial":17,"RT":568,"MT":360,"sideResp":2,"stimulus":"img/750/equaldotanddens/R/12_Ratio_750_L_3_R_4.png","xmouse":[815,815,815,815,815,815,815,815,815,815,815,815,815,815,815,815,815,815,815,815,815,815,815,815,815,815,822,828,870,898,923,950,983,1033,1039,1043,1045,1046,1047,1047,1048,1049,1052,1054,1056,1057,1059],"ymouse":[492,492,492,492,492,492,492,492,492,492,492,492,492,492,492,492,492,492,492,492,492,492,492,492,492,492,480,470,413,380,349,308,250,137,116,102,94,88,79,77,71,63,54,49,48,46,46],"timestamp_mouse":[10,32,48,69,88,108,128,149,168,188,210,228,249,268,288,308,329,348,369,389,408,428,448,468,489,510,528,548,568,588,608,628,649,668,688,708,729,748,768,789,809,828,849,868,890,909,928],"xSR":741.5,"ySR":469.95,"xT1":424.9,"yT1":0,"xT2":1058.1,"yT2":0,"toosoon":0,"cond_shown":"equaldotanddens","ratio_trial":750,"smaller_num":"3","larger_num":"4","correct_side":2,"subjID":"TomásDíazMontoya","gender":"0","age":"11","school":"6"},{"start_time":1551887545157,"click_time":1551887546211,"finger_time":1551887545571,"fix_duration":1385.532233809524,"trial":18,"RT":414,"MT":640,"sideResp":1,"stimulus":"img/900/randomdotsizeEA/R/6_Ratio_900_L_9_R_10.png","xmouse":[818,818,818,818,818,818,818,818,818,818,818,818,818,817,814,814,813,813,813,813,826,834,843,850,860,865,872,875,881,886,886,886,885,884,853,823,787,757,716,677,661,642,616,585,530,513,499,492,490,490,488,483,479],"ymouse":[543,543,543,543,543,543,543,543,543,543,543,543,543,543,542,540,538,525,518,502,469,452,435,420,392,373,356,344,323,296,286,282,280,279,272,269,264,259,252,235,223,208,187,162,126,116,109,106,105,105,103,100,96],"timestamp_mouse":[19,43,54,73,93,114,133,154,175,193,213,235,253,273,294,313,334,354,374,393,414,433,453,473,494,513,534,554,574,594,613,633,654,674,694,713,733,754,775,793,814,833,853,873,895,913,934,954,973,994,1013,1035,1054],"xSR":741.5,"ySR":469.95,"xT1":424.9,"yT1":0,"xT2":1058.1,"yT2":0,"toosoon":0,"cond_shown":"randomdotsizeEA","ratio_trial":900,"smaller_num":"9","larger_num":"10","correct_side":2,"subjID":"TomásDíazMontoya","gender":"0","age":"11","school":"6"},{"start_time":1551887548179,"click_time":1551887548971,"finger_time":1551887548671,"fix_duration":1087.7634866067451,"trial":19,"RT":492,"MT":300,"sideResp":2,"stimulus":"img/250/equaldotanddens/R/12_Ratio_250_L_5_R_20.png","xmouse":[743,743,743,743,743,743,743,743,743,743,743,743,743,743,743,743,743,743,743,743,743,743,743,749,817,886,933,969,998,1032,1042,1048,1051,1052,1053,1055,1055,1056,1057,1060],"ymouse":[484,484,484,484,484,484,484,484,484,484,484,484,484,484,484,484,484,484,484,484,484,484,485,483,427,367,324,283,242,177,152,134,121,112,104,98,96,93,89,81],"timestamp_mouse":[13,34,52,73,93,113,131,151,171,191,213,231,253,273,292,313,331,351,371,391,411,431,453,472,492,512,532,551,571,592,611,631,653,672,692,713,731,751,771,792],"xSR":741.5,"ySR":469.95,"xT1":424.9,"yT1":0,"xT2":1058.1,"yT2":0,"toosoon":0,"cond_shown":"equaldotanddens","ratio_trial":250,"smaller_num":"5","larger_num":"20","correct_side":2,"subjID":"TomásDíazMontoya","gender":"0","age":"11","school":"6"},{"start_time":1551887551171,"click_time":1551887552431,"finger_time":1551887551751,"fix_duration":1358.3672854414185,"trial":20,"RT":580,"MT":680,"sideResp":2,"stimulus":"img/750/equaldotanddens/R/7_Ratio_750_L_3_R_4.png","xmouse":[818,818,818,818,818,818,818,818,818,818,818,818,818,818,818,818,818,818,818,818,818,818,818,818,818,818,818,824,835,849,875,891,906,918,927,938,942,948,960,977,1029,1047,1054,1055,1055,1055,1055,1055,1055,1055,1055,1055,1055,1055,1055,1055,1055,1055,1055,1055,1055,1056,1057,1061],"ymouse":[559,559,559,559,559,559,559,559,559,559,559,559,559,559,559,559,559,559,559,559,559,559,559,559,559,553,540,521,501,480,430,397,359,326,298,259,247,233,212,186,118,94,80,77,77,76,75,73,72,72,72,72,72,72,72,72,72,72,72,72,72,72,72,70],"timestamp_mouse":[1,20,40,64,80,100,120,139,160,180,199,220,240,260,279,300,321,339,360,380,400,419,441,461,480,500,520,539,560,580,599,619,640,661,680,699,720,740,760,781,800,819,839,859,879,899,919,940,959,979,1000,1020,1039,1060,1081,1099,1121,1141,1159,1180,1199,1221,1240,1260],"xSR":741.5,"ySR":469.95,"xT1":424.9,"yT1":0,"xT2":1058.1,"yT2":0,"toosoon":0,"cond_shown":"equaldotanddens","ratio_trial":750,"smaller_num":"3","larger_num":"4","correct_side":2,"subjID":"TomásDíazMontoya","gender":"0","age":"11","school":"6"},{"start_time":1551887553908,"click_time":1551887555072,"finger_time":1551887554510,"fix_duration":515.215584681715,"trial":21,"RT":602,"MT":562,"sideResp":1,"stimulus":"img/750/randomdotsizeEA/L/8_Ratio_750_L_4_R_3.png","xmouse":[810,810,810,810,810,810,810,810,810,810,810,810,810,810,810,810,810,810,810,810,810,810,810,810,810,810,810,808,798,750,716,681,651,621,614,610,606,600,581,569,553,531,507,462,444,431,421,416,413,409,408,408,408,408,408,409,412,423,444],"ymouse":[510,510,510,510,510,510,510,510,510,510,510,510,510,510,510,510,510,510,510,510,510,510,510,510,510,510,510,510,508,485,465,445,419,383,371,363,356,347,317,301,281,253,219,153,129,107,92,76,65,48,42,39,36,33,33,33,37,50,66],"timestamp_mouse":[10,31,43,63,83,103,124,142,164,182,202,223,244,262,282,304,322,342,362,382,403,424,443,463,482,503,524,542,562,583,602,623,644,663,682,702,722,743,764,783,802,822,843,864,882,903,923,942,962,984,1003,1024,1043,1063,1082,1102,1122,1144,1163],"xSR":741.5,"ySR":469.95,"xT1":424.9,"yT1":0,"xT2":1058.1,"yT2":0,"toosoon":0,"cond_shown":"randomdotsizeEA","ratio_trial":750,"smaller_num":"3","larger_num":"4","correct_side":1,"subjID":"TomásDíazMontoya","gender":"0","age":"11","school":"6"},{"start_time":1551887556394,"click_time":1551887557231,"finger_time":1551887556750,"fix_duration":402.23675169615535,"trial":22,"RT":356,"MT":481,"sideResp":1,"stimulus":"img/250/equaldotsize/L/1_Ratio_250_L_8_R_2.png","xmouse":[766,766,766,766,766,766,766,766,766,766,766,766,766,767,767,767,767,762,752,711,684,632,600,558,543,531,521,514,504,500,499,494,493,493,493,493,493,492,491,490,489,487],"ymouse":[535,535,535,535,535,535,535,535,535,535,535,535,535,535,518,491,470,454,437,393,368,327,301,265,254,241,229,216,194,181,176,159,154,151,146,146,145,143,141,131,119,92],"timestamp_mouse":[33,37,57,76,98,117,138,158,177,197,216,237,258,277,298,316,336,356,378,397,416,436,457,478,497,517,536,557,578,597,617,637,656,677,697,717,736,758,776,796,818,837],"xSR":741.5,"ySR":469.95,"xT1":424.9,"yT1":0,"xT2":1058.1,"yT2":0,"toosoon":0,"cond_shown":"equaldotsize","ratio_trial":250,"smaller_num":"2","larger_num":"8","correct_side":1,"subjID":"TomásDíazMontoya","gender":"0","age":"11","school":"6"},{"start_time":1551887558972,"click_time":1551887559650,"finger_time":1551887559391,"fix_duration":659.7873669708641,"trial":23,"RT":419,"MT":259,"sideResp":2,"stimulus":"img/250/randomdotsizeEA/R/12_Ratio_250_L_5_R_20.png","xmouse":[781,781,781,781,781,781,781,781,781,781,781,781,781,781,781,781,781,781,781,784,789,821,841,864,888,911,955,972,985,997,1007,1034,1045,1056,1063],"ymouse":[493,493,493,493,493,493,493,493,493,493,493,493,493,493,493,493,493,493,493,487,476,423,396,365,331,300,239,216,196,180,166,128,113,99,89],"timestamp_mouse":[2,20,39,59,79,99,120,140,159,180,199,219,239,259,280,299,319,339,358,378,400,419,438,459,480,498,518,539,558,579,599,618,638,659,678],"xSR":741.5,"ySR":469.95,"xT1":424.9,"yT1":0,"xT2":1058.1,"yT2":0,"toosoon":0,"cond_shown":"randomdotsizeEA","ratio_trial":250,"smaller_num":"5","larger_num":"20","correct_side":2,"subjID":"TomásDíazMontoya","gender":"0","age":"11","school":"6"},{"start_time":1551887560743,"click_time":1551887561610,"finger_time":1551887561290,"fix_duration":250,"trial":24,"RT":547,"MT":320,"sideResp":1,"stimulus":"img/500/randomdotsizeEA/L/8_Ratio_500_L_8_R_4.png","xmouse":[805,805,805,805,805,805,805,805,805,805,805,805,805,805,805,805,805,805,805,805,804,803,801,799,797,791,780,737,709,683,656,619,572,556,544,534,527,513,506,503,499,494,489,486],"ymouse":[563,563,563,563,563,563,563,563,563,563,563,563,563,563,563,563,563,563,563,563,559,556,551,548,544,538,527,494,473,455,434,402,352,328,310,292,281,253,236,215,190,154,109,87],"timestamp_mouse":[7,30,49,68,89,107,127,149,168,188,208,227,247,267,289,307,327,349,369,388,407,428,448,468,487,509,527,547,568,587,608,628,648,668,687,708,729,748,768,787,807,829,848,867],"xSR":741.5,"ySR":469.95,"xT1":424.9,"yT1":0,"xT2":1058.1,"yT2":0,"toosoon":0,"cond_shown":"randomdotsizeEA","ratio_trial":500,"smaller_num":"4","larger_num":"8","correct_side":1,"subjID":"TomásDíazMontoya","gender":"0","age":"11","school":"6"},{"start_time":1551887563180,"click_time":1551887564231,"finger_time":1551887563831,"fix_duration":967.0663175260825,"trial":25,"RT":651,"MT":400,"sideResp":2,"stimulus":"img/250/randomdotsizeEA/R/8_Ratio_250_L_1_R_4.png","xmouse":[814,814,814,814,814,814,814,814,814,814,814,814,814,814,814,814,814,814,814,814,814,814,814,814,814,814,814,814,814,815,826,835,842,852,865,888,897,908,917,926,934,941,945,948,955,964,997,1015,1027,1036,1048,1055,1062],"ymouse":[525,525,525,525,525,525,525,525,525,525,525,525,525,525,525,525,525,525,525,525,525,525,525,525,525,525,525,525,526,525,500,480,461,437,404,352,330,307,289,264,248,229,221,212,196,178,131,109,93,82,68,61,53],"timestamp_mouse":[10,40,51,72,91,111,130,152,171,191,211,232,252,272,290,311,331,351,370,390,410,431,451,470,490,512,530,551,570,592,611,631,651,672,690,712,730,751,771,790,810,831,851,872,891,932,933,951,971,991,1011,1031,1051],"xSR":741.5,"ySR":469.95,"xT1":424.9,"yT1":0,"xT2":1058.1,"yT2":0,"toosoon":0,"cond_shown":"randomdotsizeEA","ratio_trial":250,"smaller_num":"1","larger_num":"4","correct_side":2,"subjID":"TomásDíazMontoya","gender":"0","age":"11","school":"6"},{"start_time":1551887565893,"click_time":1551887567050,"finger_time":1551887566452,"fix_duration":760.891046630834,"trial":26,"RT":559,"MT":598,"sideResp":2,"stimulus":"img/500/equaldotanddens/R/2_Ratio_500_L_3_R_6.png","xmouse":[799,799,799,799,799,799,799,799,799,799,799,799,799,799,799,799,799,799,799,799,794,789,787,787,787,787,799,815,830,845,871,879,892,899,906,914,914,914,914,916,925,933,939,949,962,983,989,991,997,1006,1027,1037,1042,1046,1049,1054,1057,1060],"ymouse":[530,530,530,530,530,530,530,530,530,530,530,530,530,530,530,530,530,530,530,530,523,514,510,509,509,503,478,452,427,406,371,356,332,315,298,258,236,215,192,172,134,109,97,84,71,58,55,55,52,49,45,44,44,44,45,47,47,49],"timestamp_mouse":[32,38,58,77,98,119,139,158,179,198,218,238,258,277,298,318,337,359,378,399,418,438,457,479,498,517,537,559,578,599,618,637,657,677,697,717,738,759,779,799,817,838,857,879,899,918,938,958,978,997,1017,1037,1057,1078,1097,1117,1137,1157],"xSR":741.5,"ySR":469.95,"xT1":424.9,"yT1":0,"xT2":1058.1,"yT2":0,"toosoon":0,"cond_shown":"equaldotanddens","ratio_trial":500,"smaller_num":"3","larger_num":"6","correct_side":2,"subjID":"TomásDíazMontoya","gender":"0","age":"11","school":"6"},{"start_time":1551887569256,"click_time":1551887570250,"finger_time":1551887569911,"fix_duration":1483.609351718429,"trial":27,"RT":655,"MT":339,"sideResp":1,"stimulus":"img/900/randomdotsizeEA/R/15_Ratio_900_L_9_R_10.png","xmouse":[819,819,819,819,819,819,819,819,819,819,819,819,819,819,819,819,819,819,819,819,819,819,819,819,819,819,819,819,819,810,800,772,723,709,697,681,666,638,625,612,599,587,552,535,516,494,474,447,444,443],"ymouse":[556,556,556,556,556,556,556,556,556,556,556,556,556,556,556,556,556,556,556,556,556,556,556,556,556,556,556,556,556,546,531,499,439,418,391,351,316,267,249,233,218,206,177,163,150,134,122,103,100,97],"timestamp_mouse":[15,36,55,75,95,114,135,155,174,195,214,235,254,275,295,316,335,354,375,394,415,436,454,475,494,515,534,555,574,596,614,634,655,675,695,715,735,754,775,795,815,835,854,874,895,914,935,955,974,994],"xSR":741.5,"ySR":469.95,"xT1":424.9,"yT1":0,"xT2":1058.1,"yT2":0,"toosoon":0,"cond_shown":"randomdotsizeEA","ratio_trial":900,"smaller_num":"9","larger_num":"10","correct_side":2,"subjID":"TomásDíazMontoya","gender":"0","age":"11","school":"6"},{"start_time":1551887572062,"click_time":1551887574030,"finger_time":1551887573731,"fix_duration":250,"trial":28,"RT":1669,"MT":299,"sideResp":2,"stimulus":"img/900/equaldotanddens/L/10_Ratio_900_L_20_R_18.png","xmouse":[759,759,759,759,759,759,759,759,759,763,769,786,786,786,786,786,786,786,786,786,786,786,786,786,786,786,786,786,786,786,786,786,786,786,786,786,786,786,786,786,786,786,786,786,786,786,786,786,786,786,786,786,786,786,786,786,788,788,788,789,790,793,797,798,798,798,798,798,798,798,798,798,799,806,806,807,809,817,821,824,829,832,840,846,851,857,862,870,885,899,920,934,965,980,994,1007,1020,1047,1062],"ymouse":[537,537,537,537,537,537,537,537,537,540,546,566,566,566,566,566,566,566,566,566,566,566,566,566,566,566,566,566,566,566,566,566,566,566,566,566,566,566,566,566,566,566,566,566,566,566,566,566,566,566,566,566,566,566,566,566,568,569,569,569,569,567,562,561,561,561,561,561,561,561,561,561,561,557,556,556,553,531,520,514,506,499,475,460,444,430,416,397,342,305,253,221,162,137,116,98,83,59,50],"timestamp_mouse":[12,41,50,70,88,109,128,149,168,190,208,228,250,268,289,309,328,349,370,389,408,429,450,470,489,508,530,549,569,589,609,628,650,669,688,709,728,750,769,789,809,830,849,868,890,909,930,949,969,989,1009,1028,1050,1068,1088,1109,1128,1148,1169,1190,1209,1228,1249,1269,1289,1309,1330,1348,1369,1389,1409,1429,1448,1468,1489,1509,1528,1550,1568,1589,1609,1628,1650,1669,1688,1710,1730,1748,1768,1788,1808,1829,1850,1868,1889,1909,1929,1950,1968],"xSR":741.5,"ySR":469.95,"xT1":424.9,"yT1":0,"xT2":1058.1,"yT2":0,"toosoon":0,"cond_shown":"equaldotanddens","ratio_trial":900,"smaller_num":"18","larger_num":"20","correct_side":1,"subjID":"TomásDíazMontoya","gender":"0","age":"11","school":"6"},{"start_time":1551887576388,"click_time":1551887578031,"finger_time":1551887576992,"fix_duration":1396.029547667092,"trial":29,"RT":604,"MT":1039,"sideResp":1,"stimulus":"img/250/equaldotsize/L/2_Ratio_250_L_16_R_4.png","xmouse":[765,765,765,765,765,765,765,765,765,765,765,765,765,765,765,765,765,765,765,765,765,765,765,765,765,765,765,765,760,744,703,657,577,541,534,531,531,531,531,534,539,543,545,545,545,545,545,544,543,543,543,544,547,551,563,581,604,634,640,641,641,641,641,635,615,576,514,373,340,331,331,336,364,377,392,402,411,417,421,421,421,421,430],"ymouse":[499,499,499,499,499,499,499,499,499,499,499,499,499,499,499,499,499,499,499,499,499,499,499,499,499,499,499,499,488,472,436,395,294,223,197,180,172,166,164,159,154,151,150,150,148,136,122,94,79,67,61,58,56,56,63,81,117,176,188,191,191,191,191,191,191,182,169,129,116,107,100,89,64,55,44,37,31,29,27,27,27,27,45],"timestamp_mouse":[9,24,44,62,83,104,122,142,163,182,203,223,242,262,282,302,322,342,362,384,402,423,442,463,482,502,522,543,563,582,604,623,642,663,683,704,724,743,762,783,802,824,843,862,883,904,923,942,963,982,1003,1022,1042,1062,1082,1103,1124,1143,1162,1183,1202,1223,1243,1264,1283,1302,1322,1344,1364,1383,1402,1424,1443,1464,1482,1503,1522,1543,1564,1584,1603,1624,1643],"xSR":741.5,"ySR":469.95,"xT1":424.9,"yT1":0,"xT2":1058.1,"yT2":0,"toosoon":0,"cond_shown":"equaldotsize","ratio_trial":250,"smaller_num":"4","larger_num":"16","correct_side":1,"subjID":"TomásDíazMontoya","gender":"0","age":"11","school":"6"},{"start_time":1551887581084,"click_time":1551887582212,"finger_time":1551887581731,"fix_duration":250,"trial":30,"RT":647,"MT":481,"sideResp":2,"stimulus":"img/900/equaldotanddens/R/3_Ratio_900_L_9_R_10.png","xmouse":[778,778,778,778,778,778,778,778,778,778,778,778,778,778,778,778,778,778,778,778,778,778,778,778,778,778,778,778,778,779,782,800,856,890,927,955,988,1010,1021,1033,1044,1052,1061,1080,1094,1104,1111,1112,1112,1113,1115,1116,1116,1103,1094,1086,1078],"ymouse":[548,548,548,548,548,548,548,548,548,548,548,548,548,548,548,548,548,548,548,548,548,548,548,548,548,548,548,548,548,548,548,536,489,462,432,411,381,337,311,288,272,261,251,235,224,217,211,210,210,208,199,186,175,146,129,112,93],"timestamp_mouse":[8,33,47,66,86,108,127,146,168,187,207,228,246,267,287,307,327,348,368,386,407,428,446,468,488,507,528,547,567,586,607,626,647,666,687,707,726,747,767,787,807,828,846,866,887,907,927,947,967,987,1008,1027,1047,1066,1087,1107,1128],"xSR":741.5,"ySR":469.95,"xT1":424.9,"yT1":0,"xT2":1058.1,"yT2":0,"toosoon":0,"cond_shown":"equaldotanddens","ratio_trial":900,"smaller_num":"9","larger_num":"10","correct_side":2,"subjID":"TomásDíazMontoya","gender":"0","age":"11","school":"6"},{"start_time":1551887584690,"click_time":1551887585650,"finger_time":1551887585151,"fix_duration":1038.962213919699,"trial":31,"RT":461,"MT":499,"sideResp":1,"stimulus":"img/500/randomdotsizeEA/L/5_Ratio_500_L_4_R_2.png","xmouse":[786,786,786,786,786,786,786,786,786,786,786,786,786,789,793,794,794,795,795,795,795,793,786,754,731,697,663,632,574,563,553,547,544,541,539,538,537,536,535,533,532,531,529,527,527,527,526,525,522],"ymouse":[512,512,512,512,512,512,512,512,512,512,512,512,512,510,507,505,504,503,500,499,496,489,481,453,432,392,333,272,174,152,134,124,118,111,108,106,103,102,101,99,98,97,94,92,92,92,91,90,87],"timestamp_mouse":[9,22,41,62,81,101,121,140,162,181,202,222,242,260,282,300,321,341,361,380,402,422,441,461,481,502,521,542,560,580,601,620,640,660,680,700,720,741,760,782,802,821,840,860,881,901,921,941,960],"xSR":741.5,"ySR":469.95,"xT1":424.9,"yT1":0,"xT2":1058.1,"yT2":0,"toosoon":0,"cond_shown":"randomdotsizeEA","ratio_trial":500,"smaller_num":"2","larger_num":"4","correct_side":1,"subjID":"TomásDíazMontoya","gender":"0","age":"11","school":"6"},{"start_time":1551887586887,"click_time":1551887587930,"finger_time":1551887587490,"fix_duration":455.9288409294461,"trial":32,"RT":603,"MT":440,"sideResp":1,"stimulus":"img/500/equaldotanddens/L/10_Ratio_500_L_4_R_2.png","xmouse":[822,822,822,822,822,822,822,822,822,822,822,822,822,822,822,822,822,822,822,822,822,822,822,822,822,822,822,822,809,765,708,657,607,548,541,536,535,534,532,531,529,525,521,517,509,507,505,504,501,498,497,496,495],"ymouse":[534,534,534,534,534,534,534,534,534,534,534,534,534,534,534,534,534,534,534,534,534,534,534,534,534,534,534,534,528,499,459,419,380,309,291,275,262,250,231,222,212,202,188,174,145,139,133,127,116,110,106,102,97],"timestamp_mouse":[14,37,43,64,83,103,123,143,164,183,203,223,245,263,283,303,325,343,363,384,403,423,443,465,483,505,523,544,564,583,603,623,644,664,684,704,723,745,765,784,804,824,845,864,884,903,924,944,965,983,1003,1024,1043],"xSR":741.5,"ySR":469.95,"xT1":424.9,"yT1":0,"xT2":1058.1,"yT2":0,"toosoon":0,"cond_shown":"equaldotanddens","ratio_trial":500,"smaller_num":"2","larger_num":"4","correct_side":1,"subjID":"TomásDíazMontoya","gender":"0","age":"11","school":"6"},{"start_time":1551887589276,"click_time":1551887590152,"finger_time":1551887589752,"fix_duration":564.2664335822438,"trial":33,"RT":476,"MT":400,"sideResp":1,"stimulus":"img/500/randomdotsizeEA/L/10_Ratio_500_L_4_R_2.png","xmouse":[749,749,749,749,749,749,749,749,749,749,749,749,749,749,749,749,749,749,749,749,749,749,749,737,729,720,706,691,651,636,623,612,599,591,575,568,561,553,539,532,528,524,523,520],"ymouse":[538,538,538,538,538,538,538,538,538,538,538,538,538,538,538,538,538,538,538,538,538,536,528,488,469,450,432,411,365,346,330,315,295,280,251,235,213,188,153,141,130,113,105,95],"timestamp_mouse":[15,44,55,76,95,115,135,155,175,195,216,234,254,275,295,314,336,355,375,395,416,434,455,476,495,514,535,556,575,594,615,636,654,674,695,715,735,755,775,794,815,834,855,876],"xSR":741.5,"ySR":469.95,"xT1":424.9,"yT1":0,"xT2":1058.1,"yT2":0,"toosoon":0,"cond_shown":"randomdotsizeEA","ratio_trial":500,"smaller_num":"2","larger_num":"4","correct_side":1,"subjID":"TomásDíazMontoya","gender":"0","age":"11","school":"6"},{"start_time":1551887591821,"click_time":1551887592610,"finger_time":1551887592291,"fix_duration":1008.7908815994075,"trial":34,"RT":470,"MT":319,"sideResp":1,"stimulus":"img/250/equaldotsize/L/2_Ratio_250_L_16_R_4.png","xmouse":[795,795,795,795,795,795,795,795,795,795,795,795,795,795,795,795,795,795,795,795,795,795,778,737,662,619,578,518,510,504,502,501,495,490,482,479,478,476,476,476],"ymouse":[540,540,540,540,540,540,540,540,540,540,540,540,540,540,540,540,540,540,540,540,540,540,529,502,446,401,349,255,234,217,203,190,162,150,131,124,116,106,100,95],"timestamp_mouse":[10,34,50,70,89,111,130,150,171,189,209,229,250,270,289,309,330,349,370,390,410,429,449,470,490,510,529,549,570,590,611,631,650,669,689,710,730,750,770,789],"xSR":741.5,"ySR":469.95,"xT1":424.9,"yT1":0,"xT2":1058.1,"yT2":0,"toosoon":0,"cond_shown":"equaldotsize","ratio_trial":250,"smaller_num":"4","larger_num":"16","correct_side":1,"subjID":"TomásDíazMontoya","gender":"0","age":"11","school":"6"},{"start_time":1551887594145,"click_time":1551887595031,"finger_time":1551887594771,"fix_duration":733.8480400041539,"trial":35,"RT":626,"MT":260,"sideResp":1,"stimulus":"img/750/equaldotanddens/L/14_Ratio_750_L_8_R_6.png","xmouse":[785,785,785,785,785,785,785,785,785,785,785,785,785,785,785,785,785,785,785,785,785,785,785,785,785,785,785,785,784,777,752,645,594,562,542,529,515,513,512,510,509,505,503,501,500],"ymouse":[540,540,540,540,540,540,540,540,540,540,540,540,540,540,540,540,540,540,540,540,540,540,540,540,540,540,540,540,535,522,482,329,266,226,200,181,155,147,143,137,132,117,111,102,95],"timestamp_mouse":[9,26,46,66,86,106,127,145,166,187,206,225,246,266,287,306,327,345,365,385,405,427,446,466,485,506,525,547,566,585,605,626,645,665,685,706,726,746,766,785,806,827,846,866,886],"xSR":741.5,"ySR":469.95,"xT1":424.9,"yT1":0,"xT2":1058.1,"yT2":0,"toosoon":0,"cond_shown":"equaldotanddens","ratio_trial":750,"smaller_num":"6","larger_num":"8","correct_side":1,"subjID":"TomásDíazMontoya","gender":"0","age":"11","school":"6"},{"start_time":1551887597007,"click_time":1551887597952,"finger_time":1551887597570,"fix_duration":1414.5131934136402,"trial":36,"RT":563,"MT":382,"sideResp":1,"stimulus":"img/250/equaldotsize/L/14_Ratio_250_L_12_R_3.png","xmouse":[795,795,795,795,795,795,795,795,795,795,795,795,795,795,795,795,795,795,795,795,795,795,795,795,795,795,785,774,737,724,714,705,692,682,656,641,624,611,581,566,554,541,531,510,503,500,497,494],"ymouse":[501,501,501,501,501,501,501,501,501,501,501,501,501,501,501,501,501,501,501,501,501,501,501,501,501,501,485,470,413,396,379,364,342,325,287,269,254,241,207,188,168,151,140,118,111,108,103,98],"timestamp_mouse":[10,33,44,64,84,104,125,144,164,183,204,224,245,265,283,303,324,344,364,384,405,423,444,465,484,505,524,544,563,583,605,624,644,663,683,704,725,745,764,784,803,823,844,865,883,904,923,945],"xSR":741.5,"ySR":469.95,"xT1":424.9,"yT1":0,"xT2":1058.1,"yT2":0,"toosoon":0,"cond_shown":"equaldotsize","ratio_trial":250,"smaller_num":"3","larger_num":"12","correct_side":1,"subjID":"TomásDíazMontoya","gender":"0","age":"11","school":"6"},{"start_time":1551887598893,"click_time":1551887599871,"finger_time":1551887599390,"fix_duration":342.5452193215258,"trial":37,"RT":497,"MT":481,"sideResp":2,"stimulus":"img/500/randomdotsizeEA/R/9_Ratio_500_L_2_R_4.png","xmouse":[816,816,816,816,816,816,816,816,816,816,816,816,816,816,816,816,816,816,816,816,816,817,817,817,825,836,862,888,962,998,1021,1035,1045,1053,1062,1066,1071,1074,1078,1085,1087,1087,1087,1087,1087,1087,1087,1087,1087],"ymouse":[533,533,533,533,533,533,533,533,533,533,533,533,533,533,533,533,533,533,533,533,533,533,526,517,467,443,410,385,328,310,300,294,288,284,276,271,256,245,228,188,168,153,144,133,117,111,102,100,99],"timestamp_mouse":[32,38,59,77,97,119,137,158,178,197,218,237,257,279,297,319,338,359,377,398,419,437,459,477,497,517,538,558,579,597,619,638,659,677,697,719,738,757,777,798,818,839,857,878,898,919,938,959,978],"xSR":741.5,"ySR":469.95,"xT1":424.9,"yT1":0,"xT2":1058.1,"yT2":0,"toosoon":0,"cond_shown":"randomdotsizeEA","ratio_trial":500,"smaller_num":"2","larger_num":"4","correct_side":2,"subjID":"TomásDíazMontoya","gender":"0","age":"11","school":"6"},{"start_time":1551887601150,"click_time":1551887602231,"finger_time":1551887601690,"fix_duration":276.33134569939034,"trial":38,"RT":540,"MT":541,"sideResp":1,"stimulus":"img/750/equaldotanddens/L/13_Ratio_750_L_8_R_6.png","xmouse":[809,809,809,809,809,809,809,809,809,809,809,809,809,809,809,809,809,809,809,809,809,809,809,809,807,794,772,724,702,686,671,657,624,608,600,590,582,556,542,528,518,508,488,474,464,455,447,437,434,432,431,431,430,430,430],"ymouse":[509,509,509,509,509,509,509,509,509,509,509,509,509,509,509,509,509,509,509,509,509,509,509,509,509,503,494,471,458,447,433,417,377,354,340,326,314,281,264,249,234,220,198,183,172,159,147,132,124,119,113,109,102,100,97],"timestamp_mouse":[8,20,40,61,80,101,121,141,160,181,202,220,241,261,282,301,322,342,362,380,401,422,441,460,481,501,520,540,561,581,601,620,640,661,680,700,722,741,761,780,802,821,840,860,880,900,920,941,961,981,1000,1020,1040,1061,1081],"xSR":741.5,"ySR":469.95,"xT1":424.9,"yT1":0,"xT2":1058.1,"yT2":0,"toosoon":0,"cond_shown":"equaldotanddens","ratio_trial":750,"smaller_num":"6","larger_num":"8","correct_side":1,"subjID":"TomásDíazMontoya","gender":"0","age":"11","school":"6"},{"start_time":1551887603102,"click_time":1551887604251,"finger_time":1551887603671,"fix_duration":250,"trial":39,"RT":569,"MT":580,"sideResp":1,"stimulus":"img/250/equaldotsize/L/5_Ratio_250_L_24_R_6.png","xmouse":[800,800,800,800,800,800,800,800,800,800,800,800,800,800,800,800,799,799,799,799,799,799,799,799,797,791,779,757,731,666,642,620,602,586,564,560,559,559,553,531,522,513,505,500,495,494,491,488,486,481,481,481,481,481,481,481,484,493],"ymouse":[568,568,568,568,568,568,568,568,568,568,566,564,563,561,559,558,557,557,557,557,557,557,557,557,555,546,523,484,439,356,332,311,295,281,260,258,258,257,253,229,217,204,192,182,166,160,150,142,133,120,119,117,117,116,111,109,100,86],"timestamp_mouse":[8,36,50,70,89,108,129,150,168,188,208,229,249,269,288,309,328,349,369,388,410,430,449,470,488,508,529,549,569,588,608,629,650,668,689,710,729,750,768,788,809,830,849,868,888,908,929,949,968,989,1009,1028,1049,1070,1090,1109,1128,1148],"xSR":741.5,"ySR":469.95,"xT1":424.9,"yT1":0,"xT2":1058.1,"yT2":0,"toosoon":0,"cond_shown":"equaldotsize","ratio_trial":250,"smaller_num":"6","larger_num":"24","correct_side":1,"subjID":"TomásDíazMontoya","gender":"0","age":"11","school":"6"},{"start_time":1551887605438,"click_time":1551887606511,"finger_time":1551887605790,"fix_duration":446.46897437891255,"trial":40,"RT":352,"MT":721,"sideResp":2,"stimulus":"img/900/equaldotsize/R/6_Ratio_900_L_9_R_10.png","xmouse":[796,796,796,796,796,796,796,796,796,796,796,796,796,793,788,779,773,764,744,729,711,690,665,655,649,644,644,643,643,645,647,648,652,652,652,652,652,667,683,706,742,788,876,916,951,974,1000,1010,1027,1033,1038,1044,1050,1082],"ymouse":[487,487,487,487,487,487,487,487,487,487,487,487,487,486,483,480,475,469,451,438,424,411,394,386,381,371,369,362,352,346,340,335,319,311,305,299,287,233,204,179,155,135,107,97,89,84,79,77,71,68,65,64,60,45],"timestamp_mouse":[13,36,53,74,92,114,132,153,172,193,213,234,253,273,292,313,334,352,372,392,413,434,453,472,492,512,533,553,572,593,614,633,653,673,693,712,733,753,772,793,813,832,853,872,893,913,933,953,973,994,1014,1034,1052,1072],"xSR":741.5,"ySR":469.95,"xT1":424.9,"yT1":0,"xT2":1058.1,"yT2":0,"toosoon":0,"cond_shown":"equaldotsize","ratio_trial":900,"smaller_num":"9","larger_num":"10","correct_side":2,"subjID":"TomásDíazMontoya","gender":"0","age":"11","school":"6"},{"start_time":1551887607562,"click_time":1551887608470,"finger_time":1551887608012,"fix_duration":250,"trial":41,"RT":450,"MT":458,"sideResp":1,"stimulus":"img/750/randomdotsizeEA/L/9_Ratio_750_L_4_R_3.png","xmouse":[790,790,790,790,790,790,790,790,790,790,790,790,790,790,790,790,790,789,789,788,786,779,772,754,728,700,657,647,644,643,643,639,636,632,626,619,610,594,580,570,561,554,545,540,535,524],"ymouse":[514,514,514,514,514,514,514,514,514,514,514,514,514,514,514,514,514,509,502,495,485,472,463,447,432,416,388,372,358,344,333,320,314,307,299,290,276,240,203,178,159,140,121,111,101,86],"timestamp_mouse":[10,32,48,70,88,110,130,150,168,190,210,229,248,268,290,309,330,350,368,388,408,430,450,469,488,508,530,549,569,588,609,630,649,669,688,708,729,749,769,789,809,830,849,868,888,908],"xSR":741.5,"ySR":469.95,"xT1":424.9,"yT1":0,"xT2":1058.1,"yT2":0,"toosoon":0,"cond_shown":"randomdotsizeEA","ratio_trial":750,"smaller_num":"3","larger_num":"4","correct_side":1,"subjID":"TomásDíazMontoya","gender":"0","age":"11","school":"6"},{"start_time":1551887610616,"click_time":1551887611591,"finger_time":1551887611132,"fix_duration":1263.2838810267092,"trial":42,"RT":516,"MT":459,"sideResp":2,"stimulus":"img/750/equaldotanddens/L/8_Ratio_750_L_4_R_3.png","xmouse":[763,763,763,763,763,763,763,763,763,763,763,763,763,763,763,763,763,763,763,763,763,766,771,782,797,802,805,808,808,795,778,753,722,685,617,613,612,614,620,652,686,737,798,861,997,1025,1044,1056,1064],"ymouse":[528,528,528,528,528,528,528,528,528,528,528,528,528,528,528,528,528,528,528,528,528,528,522,508,483,468,455,435,416,373,352,334,317,303,277,274,271,267,261,247,228,206,184,167,98,77,59,46,33],"timestamp_mouse":[20,43,54,74,95,115,134,155,175,196,214,235,254,275,294,314,334,356,375,394,416,435,454,475,494,516,535,555,576,594,615,635,656,675,694,714,734,755,776,794,815,834,855,875,894,915,934,955,975],"xSR":741.5,"ySR":469.95,"xT1":424.9,"yT1":0,"xT2":1058.1,"yT2":0,"toosoon":0,"cond_shown":"equaldotanddens","ratio_trial":750,"smaller_num":"3","larger_num":"4","correct_side":1,"subjID":"TomásDíazMontoya","gender":"0","age":"11","school":"6"},{"start_time":1551887613383,"click_time":1551887614231,"finger_time":1551887613830,"fix_duration":250,"trial":43,"RT":447,"MT":401,"sideResp":1,"stimulus":"img/900/equaldotanddens/L/8_Ratio_900_L_20_R_18.png","xmouse":[779,779,779,779,779,779,779,779,779,779,779,779,779,779,779,779,779,779,779,779,776,766,731,704,680,662,623,612,603,597,590,581,577,572,566,559,540,534,531,530,528,526,518],"ymouse":[530,530,530,530,530,530,530,530,530,530,530,530,530,530,530,530,530,530,530,530,519,499,446,414,387,369,319,298,279,259,240,204,189,172,158,142,112,105,102,100,99,96,90],"timestamp_mouse":[8,28,58,69,88,107,127,149,168,189,208,228,247,267,288,308,328,348,368,387,407,428,447,468,488,508,527,548,567,587,609,629,648,668,688,707,728,747,768,788,808,828,848],"xSR":741.5,"ySR":469.95,"xT1":424.9,"yT1":0,"xT2":1058.1,"yT2":0,"toosoon":0,"cond_shown":"equaldotanddens","ratio_trial":900,"smaller_num":"18","larger_num":"20","correct_side":1,"subjID":"TomásDíazMontoya","gender":"0","age":"11","school":"6"},{"start_time":1551887616150,"click_time":1551887616950,"finger_time":1551887616531,"fix_duration":1217.5519482693073,"trial":44,"RT":381,"MT":419,"sideResp":1,"stimulus":"img/500/randomdotsizeEA/L/10_Ratio_500_L_4_R_2.png","xmouse":[792,792,792,792,792,792,792,792,792,792,792,792,792,792,792,792,792,792,787,785,783,780,778,769,763,754,735,721,698,688,672,652,635,623,601,592,587,574,545,527,512],"ymouse":[502,502,502,502,502,502,502,502,502,502,502,502,502,502,502,502,502,502,483,467,446,427,408,375,363,350,331,318,284,262,234,199,170,148,110,91,85,69,45,28,14],"timestamp_mouse":[8,33,41,60,82,101,120,140,162,181,200,221,241,261,281,301,321,341,362,381,400,420,441,462,480,500,520,541,562,581,601,621,642,662,681,700,721,741,762,780,800],"xSR":741.5,"ySR":469.95,"xT1":424.9,"yT1":0,"xT2":1058.1,"yT2":0,"toosoon":0,"cond_shown":"randomdotsizeEA","ratio_trial":500,"smaller_num":"2","larger_num":"4","correct_side":1,"subjID":"TomásDíazMontoya","gender":"0","age":"11","school":"6"},{"start_time":1551887618626,"click_time":1551887619851,"finger_time":1551887619132,"fix_duration":714.776457422603,"trial":45,"RT":506,"MT":719,"sideResp":2,"stimulus":"img/900/equaldotanddens/R/5_Ratio_900_L_9_R_10.png","xmouse":[787,787,787,787,787,787,787,787,787,787,787,787,787,787,787,787,787,787,787,787,788,789,794,794,786,753,737,725,721,719,732,747,764,777,789,833,877,925,952,966,979,980,980,980,980,980,980,980,980,980,989,1015,1035,1048,1054,1056,1056,1056,1057,1058,1058,1061],"ymouse":[548,548,548,548,548,548,548,548,548,548,548,548,548,548,548,548,548,548,548,548,548,548,532,510,478,389,346,312,282,256,196,177,168,165,165,165,164,161,160,160,160,160,160,160,157,153,153,153,153,153,143,116,93,74,66,62,61,61,59,59,58,55],"timestamp_mouse":[9,34,46,64,85,104,125,145,164,185,205,225,244,264,284,306,324,344,366,386,404,424,445,464,486,506,526,544,564,586,605,625,645,666,684,705,724,746,764,785,804,825,845,865,885,905,924,945,966,986,1004,1025,1044,1065,1086,1104,1124,1146,1165,1185,1205,1225],"xSR":741.5,"ySR":469.95,"xT1":424.9,"yT1":0,"xT2":1058.1,"yT2":0,"toosoon":0,"cond_shown":"equaldotanddens","ratio_trial":900,"smaller_num":"9","larger_num":"10","correct_side":2,"subjID":"TomásDíazMontoya","gender":"0","age":"11","school":"6"},{"start_time":1551887623195,"click_time":1551887624552,"finger_time":1551887623612,"fix_duration":702.3639245242475,"trial":46,"RT":417,"MT":940,"sideResp":2,"stimulus":"img/900/randomdotsizeEA/R/13_Ratio_900_L_18_R_20.png","xmouse":[810,810,810,810,810,810,810,810,810,810,810,810,810,810,810,810,810,810,809,793,734,489,394,362,366,386,420,434,453,471,500,547,584,622,662,692,739,757,791,808,900,986,1147,1207,1234,1247,1251,1251,1253,1257,1261,1261,1255,1248,1242,1236,1221,1216,1212,1208,1200,1189,1184,1176,1170,1165,1160,1156],"ymouse":[523,523,523,523,523,523,523,523,523,523,523,523,523,523,523,523,523,523,523,523,518,469,442,433,433,429,416,409,396,378,354,309,277,244,210,185,153,145,136,133,120,112,105,105,105,105,105,105,104,97,83,40,21,11,7,8,17,21,25,29,33,36,36,39,40,40,40,40],"timestamp_mouse":[16,36,55,76,95,115,136,155,176,195,217,236,257,275,295,315,336,355,375,395,417,436,455,476,495,516,536,555,576,596,616,636,656,677,697,717,736,755,777,796,817,835,856,876,896,917,935,956,975,996,1017,1036,1057,1075,1096,1116,1136,1155,1176,1196,1217,1236,1256,1275,1296,1316,1336,1357],"xSR":741.5,"ySR":469.95,"xT1":424.9,"yT1":0,"xT2":1058.1,"yT2":0,"toosoon":0,"cond_shown":"randomdotsizeEA","ratio_trial":900,"smaller_num":"18","larger_num":"20","correct_side":2,"subjID":"TomásDíazMontoya","gender":"0","age":"11","school":"6"},{"start_time":1551887626382,"click_time":1551887627170,"finger_time":1551887626931,"fix_duration":250,"trial":47,"RT":549,"MT":239,"sideResp":2,"stimulus":"img/750/equaldotanddens/R/4_Ratio_750_L_15_R_20.png","xmouse":[774,774,774,774,774,774,774,774,775,776,785,787,790,792,792,792,792,792,792,792,792,792,792,795,803,810,823,839,878,908,927,947,966,997,1007,1019,1025,1037,1056,1064],"ymouse":[514,514,514,514,514,514,514,514,514,514,511,509,508,506,506,506,506,506,506,506,506,506,506,502,494,488,477,464,430,399,376,348,320,270,245,220,195,159,111,92],"timestamp_mouse":[9,28,49,69,88,108,128,148,168,188,209,228,248,268,289,309,328,350,368,389,408,428,449,468,490,510,528,549,569,589,608,628,650,669,689,709,730,748,768,788],"xSR":741.5,"ySR":469.95,"xT1":424.9,"yT1":0,"xT2":1058.1,"yT2":0,"toosoon":0,"cond_shown":"equaldotanddens","ratio_trial":750,"smaller_num":"15","larger_num":"20","correct_side":2,"subjID":"TomásDíazMontoya","gender":"0","age":"11","school":"6"},{"start_time":1551887628358,"click_time":1551887629312,"finger_time":1551887628850,"fix_duration":326.4706709352212,"trial":48,"RT":492,"MT":462,"sideResp":2,"stimulus":"img/900/equaldotanddens/R/15_Ratio_900_L_9_R_10.png","xmouse":[816,816,816,816,816,816,816,816,816,816,816,816,816,816,816,816,816,816,816,816,816,816,816,819,841,858,878,895,913,946,952,957,961,964,966,967,967,967,967,992,1003,1013,1021,1028,1039,1047,1057,1069],"ymouse":[494,494,494,494,494,494,494,494,494,494,494,494,494,494,494,494,494,494,494,494,494,494,494,489,461,436,404,363,323,213,174,139,107,87,76,75,75,75,75,71,71,71,72,73,73,71,66,62],"timestamp_mouse":[13,34,54,74,92,112,134,152,173,192,212,233,253,272,292,313,333,353,373,392,413,432,454,472,492,513,533,554,573,592,613,632,652,672,692,712,732,752,774,793,814,832,854,874,893,913,932,954],"xSR":741.5,"ySR":469.95,"xT1":424.9,"yT1":0,"xT2":1058.1,"yT2":0,"toosoon":0,"cond_shown":"equaldotanddens","ratio_trial":900,"smaller_num":"9","larger_num":"10","correct_side":2,"subjID":"TomásDíazMontoya","gender":"0","age":"11","school":"6"},{"start_time":1551887630645,"click_time":1551887631532,"finger_time":1551887631251,"fix_duration":532.3118264372222,"trial":49,"RT":606,"MT":281,"sideResp":1,"stimulus":"img/500/randomdotsizeEA/L/4_Ratio_500_L_18_R_9.png","xmouse":[809,809,809,809,809,809,809,809,809,809,809,809,809,809,809,809,809,809,809,809,809,809,809,809,809,809,809,805,800,792,768,753,729,702,677,632,623,615,604,591,579,555,543,526,509],"ymouse":[495,495,495,495,495,495,495,495,495,495,495,495,495,495,495,495,495,495,495,495,495,495,495,495,495,495,495,495,485,470,429,401,368,327,282,204,187,175,163,151,143,122,111,99,89],"timestamp_mouse":[21,36,46,66,85,105,126,147,165,186,205,225,247,265,287,306,325,346,365,387,406,425,446,465,487,505,527,547,567,585,606,626,645,665,686,706,727,745,767,785,806,825,846,866,887],"xSR":741.5,"ySR":469.95,"xT1":424.9,"yT1":0,"xT2":1058.1,"yT2":0,"toosoon":0,"cond_shown":"randomdotsizeEA","ratio_trial":500,"smaller_num":"9","larger_num":"18","correct_side":1,"subjID":"TomásDíazMontoya","gender":"0","age":"11","school":"6"},{"start_time":1551887632561,"click_time":1551887633351,"finger_time":1551887632971,"fix_duration":250,"trial":50,"RT":410,"MT":380,"sideResp":1,"stimulus":"img/500/equaldotsize/L/13_Ratio_500_L_12_R_6.png","xmouse":[815,815,815,815,815,815,815,815,815,815,815,815,815,815,815,815,815,815,815,815,811,807,799,787,772,732,709,675,655,640,616,605,594,585,564,557,550,544,534,516],"ymouse":[481,481,481,481,481,481,481,481,481,481,481,481,481,481,481,481,481,481,481,480,469,464,456,448,437,406,382,342,318,297,257,239,220,206,176,166,154,143,122,90],"timestamp_mouse":[11,40,50,70,90,109,129,149,169,191,209,231,250,269,290,309,330,351,369,390,410,429,451,471,489,509,529,550,570,589,610,630,650,670,690,709,730,750,770,790],"xSR":741.5,"ySR":469.95,"xT1":424.9,"yT1":0,"xT2":1058.1,"yT2":0,"toosoon":0,"cond_shown":"equaldotsize","ratio_trial":500,"smaller_num":"6","larger_num":"12","correct_side":1,"subjID":"TomásDíazMontoya","gender":"0","age":"11","school":"6"},{"start_time":1551887636098,"click_time":1551887637051,"finger_time":1551887636592,"fix_duration":605.0655823506245,"trial":51,"RT":494,"MT":459,"sideResp":2,"stimulus":"img/250/equaldotsize/R/6_Ratio_250_L_6_R_24.png","xmouse":[815,815,815,815,815,815,815,815,815,815,815,815,815,815,815,811,810,805,799,797,795,795,795,804,813,824,835,849,883,902,914,922,931,952,960,967,973,975,990,1000,1009,1015,1023,1038,1045,1051,1056,1062],"ymouse":[526,526,526,526,526,526,526,526,526,526,526,526,526,526,526,526,526,524,522,520,515,506,497,473,459,441,417,385,307,253,220,189,158,110,95,83,75,73,68,68,68,69,71,74,74,74,74,72],"timestamp_mouse":[13,37,52,74,92,114,133,152,173,194,213,232,253,272,294,314,332,353,372,394,412,433,452,472,494,514,533,553,572,592,613,633,652,673,692,713,734,752,772,792,813,834,853,873,893,912,932,953],"xSR":741.5,"ySR":469.95,"xT1":424.9,"yT1":0,"xT2":1058.1,"yT2":0,"toosoon":0,"cond_shown":"equaldotsize","ratio_trial":250,"smaller_num":"6","larger_num":"24","correct_side":2,"subjID":"TomásDíazMontoya","gender":"0","age":"11","school":"6"},{"start_time":1551887639399,"click_time":1551887640252,"finger_time":1551887639792,"fix_duration":1326.2932146072899,"trial":52,"RT":393,"MT":460,"sideResp":2,"stimulus":"img/750/equaldotanddens/R/15_Ratio_750_L_9_R_12.png","xmouse":[784,785,785,785,785,785,785,786,786,786,786,786,786,786,786,786,787,788,793,798,804,811,817,831,839,854,873,899,930,987,1005,1017,1029,1048,1051,1053,1056,1057,1058,1058,1058,1058,1059],"ymouse":[530,529,529,525,524,521,518,515,514,514,514,512,511,508,507,505,501,496,479,465,451,435,420,377,351,316,277,234,190,112,83,63,46,23,18,15,12,11,11,11,11,11,13],"timestamp_mouse":[12,37,51,71,93,111,131,152,172,192,213,231,252,271,292,312,331,353,371,393,412,431,451,472,491,512,533,552,572,593,613,632,653,672,692,713,732,751,772,792,812,833,853],"xSR":741.5,"ySR":469.95,"xT1":424.9,"yT1":0,"xT2":1058.1,"yT2":0,"toosoon":0,"cond_shown":"equaldotanddens","ratio_trial":750,"smaller_num":"9","larger_num":"12","correct_side":2,"subjID":"TomásDíazMontoya","gender":"0","age":"11","school":"6"},{"start_time":1551887643161,"click_time":1551887644050,"finger_time":1551887643750,"fix_duration":749.7221336385073,"trial":53,"RT":589,"MT":300,"sideResp":1,"stimulus":"img/500/equaldotanddens/L/10_Ratio_500_L_4_R_2.png","xmouse":[772,772,772,772,772,772,772,772,772,772,772,772,772,772,772,772,772,772,772,772,772,772,772,772,772,772,772,761,743,724,703,654,628,614,602,591,574,566,558,551,541,528,518,500,491],"ymouse":[527,527,527,527,527,527,527,527,527,527,527,527,527,527,527,527,527,527,527,527,527,527,527,527,527,527,527,526,519,507,493,449,416,396,379,364,336,319,298,273,238,168,137,102,90],"timestamp_mouse":[21,37,51,69,90,110,129,150,170,190,209,231,249,271,289,309,331,349,371,390,409,429,450,469,491,509,529,549,571,589,610,630,650,671,689,709,729,750,771,789,811,830,851,870,889],"xSR":741.5,"ySR":469.95,"xT1":424.9,"yT1":0,"xT2":1058.1,"yT2":0,"toosoon":0,"cond_shown":"equaldotanddens","ratio_trial":500,"smaller_num":"2","larger_num":"4","correct_side":1,"subjID":"TomásDíazMontoya","gender":"0","age":"11","school":"6"},{"start_time":1551887646203,"click_time":1551887647231,"finger_time":1551887646570,"fix_duration":1210.7191337225922,"trial":54,"RT":367,"MT":661,"sideResp":2,"stimulus":"img/500/randomdotsizeEA/R/14_Ratio_500_L_5_R_10.png","xmouse":[818,818,818,818,818,818,818,818,818,818,818,818,818,819,818,814,804,785,763,728,724,720,717,716,715,715,715,717,722,760,786,826,870,918,996,1028,1048,1065,1077,1093,1094,1096,1096,1096,1096,1096,1096,1096,1096,1096,1096,1096],"ymouse":[500,500,500,500,500,500,500,500,500,500,500,500,500,500,496,491,484,474,457,422,413,407,401,395,389,385,381,375,367,339,326,309,290,269,229,210,195,178,165,135,129,124,119,118,116,116,116,116,115,108,103,98],"timestamp_mouse":[8,41,47,67,88,108,129,149,168,188,209,227,248,267,287,307,328,348,367,387,408,428,449,469,488,508,527,547,569,587,609,628,648,669,687,708,727,749,769,787,807,827,848,869,889,908,927,948,967,987,1007,1027],"xSR":741.5,"ySR":469.95,"xT1":424.9,"yT1":0,"xT2":1058.1,"yT2":0,"toosoon":0,"cond_shown":"randomdotsizeEA","ratio_trial":500,"smaller_num":"5","larger_num":"10","correct_side":2,"subjID":"TomásDíazMontoya","gender":"0","age":"11","school":"6"},{"start_time":1551887649772,"click_time":1551887650851,"finger_time":1551887650371,"fix_duration":1301.9539895801993,"trial":55,"RT":599,"MT":480,"sideResp":1,"stimulus":"img/900/equaldotsize/R/15_Ratio_900_L_9_R_10.png","xmouse":[817,817,817,817,817,817,817,817,817,817,817,817,817,817,817,817,817,817,817,816,817,820,821,822,822,822,822,822,817,807,758,711,663,633,614,593,588,586,585,584,575,570,563,558,551,540,535,531,528,527,527,527,525,521],"ymouse":[515,515,515,515,515,515,515,515,515,515,515,515,515,515,515,515,515,515,515,515,510,503,500,498,498,498,498,496,484,469,409,355,306,280,263,242,238,237,237,236,229,224,216,206,194,162,146,130,115,105,102,101,98,91],"timestamp_mouse":[18,39,58,78,98,119,140,159,178,198,219,240,259,279,299,319,338,360,379,400,419,439,458,479,498,518,538,558,578,599,619,638,659,679,698,720,738,759,778,799,820,838,859,880,899,919,938,958,978,999,1020,1038,1058,1079],"xSR":741.5,"ySR":469.95,"xT1":424.9,"yT1":0,"xT2":1058.1,"yT2":0,"toosoon":0,"cond_shown":"equaldotsize","ratio_trial":900,"smaller_num":"9","larger_num":"10","correct_side":2,"subjID":"TomásDíazMontoya","gender":"0","age":"11","school":"6"},{"start_time":1551887652257,"click_time":1551887653230,"finger_time":1551887652811,"fix_duration":304.97005159386237,"trial":56,"RT":554,"MT":419,"sideResp":2,"stimulus":"img/250/randomdotsizeEA/R/11_Ratio_250_L_3_R_12.png","xmouse":[796,796,796,796,796,796,796,796,796,796,796,796,796,796,796,796,796,796,796,796,796,796,797,797,797,800,805,821,834,849,866,882,910,918,929,935,948,954,962,969,979,989,1013,1026,1033,1040,1047,1065,1072],"ymouse":[485,485,485,485,485,485,485,485,485,485,485,485,485,485,485,485,485,485,485,485,485,485,486,486,486,482,475,449,427,400,369,340,289,270,246,233,208,197,186,175,164,155,140,131,126,121,116,101,96],"timestamp_mouse":[14,37,53,74,94,114,133,153,174,195,213,233,253,274,295,313,333,354,373,394,413,434,453,474,493,514,535,554,575,593,614,634,653,674,693,715,735,753,773,793,815,834,853,873,894,915,934,954,973],"xSR":741.5,"ySR":469.95,"xT1":424.9,"yT1":0,"xT2":1058.1,"yT2":0,"toosoon":0,"cond_shown":"randomdotsizeEA","ratio_trial":250,"smaller_num":"3","larger_num":"12","correct_side":2,"subjID":"TomásDíazMontoya","gender":"0","age":"11","school":"6"},{"start_time":1551887654626,"click_time":1551887655610,"finger_time":1551887655270,"fix_duration":534.5978185177836,"trial":57,"RT":644,"MT":340,"sideResp":1,"stimulus":"img/750/randomdotsizeEA/L/6_Ratio_750_L_24_R_18.png","xmouse":[802,802,802,802,802,802,802,802,802,802,802,802,802,802,802,802,802,802,802,802,802,802,802,802,802,802,802,802,801,787,771,752,729,707,664,652,642,631,618,575,552,526,504,488,473,470,465,461,458,455],"ymouse":[498,498,498,498,498,498,498,498,498,498,498,498,498,498,498,498,498,498,498,498,498,498,498,498,498,498,498,498,498,496,489,480,466,451,406,387,370,351,330,275,250,218,194,175,147,139,130,120,111,88],"timestamp_mouse":[8,34,46,65,86,105,124,144,164,185,205,224,244,264,285,304,326,345,365,385,405,426,444,465,485,504,524,544,564,585,604,624,644,666,685,705,725,745,765,785,805,824,845,866,884,906,925,946,965,984],"xSR":741.5,"ySR":469.95,"xT1":424.9,"yT1":0,"xT2":1058.1,"yT2":0,"toosoon":0,"cond_shown":"randomdotsizeEA","ratio_trial":750,"smaller_num":"18","larger_num":"24","correct_side":1,"subjID":"TomásDíazMontoya","gender":"0","age":"11","school":"6"},{"start_time":1551887657377,"click_time":1551887658311,"finger_time":1551887657911,"fix_duration":525.5189918701303,"trial":58,"RT":534,"MT":400,"sideResp":1,"stimulus":"img/500/equaldotsize/L/5_Ratio_500_L_4_R_2.png","xmouse":[780,780,780,780,780,780,780,780,780,780,780,780,780,780,780,780,780,780,780,780,780,780,780,779,767,753,711,679,640,604,578,538,525,517,509,501,478,470,465,462,459,456,455,455,455,455,455],"ymouse":[510,510,510,510,510,510,510,510,510,510,510,510,510,510,510,510,510,510,510,510,510,510,510,505,490,472,427,402,374,348,328,294,283,271,254,237,189,175,163,154,146,132,124,118,112,103,95],"timestamp_mouse":[19,35,54,75,95,114,133,155,173,193,213,234,253,273,293,314,334,353,375,395,413,434,455,473,493,514,534,554,573,595,613,635,653,674,694,713,734,753,773,793,815,834,854,873,893,914,933],"xSR":741.5,"ySR":469.95,"xT1":424.9,"yT1":0,"xT2":1058.1,"yT2":0,"toosoon":0,"cond_shown":"equaldotsize","ratio_trial":500,"smaller_num":"2","larger_num":"4","correct_side":1,"subjID":"TomásDíazMontoya","gender":"0","age":"11","school":"6"},{"start_time":1551887660154,"click_time":1551887660871,"finger_time":1551887660732,"fix_duration":1101.0431750198302,"trial":59,"RT":578,"MT":139,"sideResp":1,"stimulus":"img/750/equaldotsize/L/13_Ratio_750_L_8_R_6.png","xmouse":[774,774,774,774,774,774,774,774,774,774,774,774,774,774,774,774,774,774,774,774,774,774,774,774,774,774,770,765,735,706,664,616,533,507,492,478],"ymouse":[523,523,523,523,523,523,523,523,523,523,523,523,523,523,523,523,523,523,523,523,523,523,523,523,523,523,522,517,485,447,389,321,191,146,114,79],"timestamp_mouse":[17,38,58,76,98,116,138,156,177,198,216,236,256,278,297,318,336,357,378,396,416,436,458,477,497,517,537,556,578,596,616,637,658,676,698,717],"xSR":741.5,"ySR":469.95,"xT1":424.9,"yT1":0,"xT2":1058.1,"yT2":0,"toosoon":0,"cond_shown":"equaldotsize","ratio_trial":750,"smaller_num":"6","larger_num":"8","correct_side":1,"subjID":"TomásDíazMontoya","gender":"0","age":"11","school":"6"},{"start_time":1551887662370,"click_time":1551887663512,"finger_time":1551887662891,"fix_duration":518.9258568824976,"trial":60,"RT":521,"MT":621,"sideResp":2,"stimulus":"img/250/equaldotsize/R/6_Ratio_250_L_6_R_24.png","xmouse":[775,775,775,775,775,775,775,775,775,775,775,775,775,775,775,775,775,775,775,775,775,775,775,775,775,781,799,816,863,882,896,907,916,946,955,964,973,980,990,996,1000,1004,1007,1023,1035,1040,1045,1053,1070,1078,1085,1087,1091,1094,1095,1096,1097,1099],"ymouse":[480,480,480,480,480,480,480,480,480,480,480,480,480,480,480,480,480,480,480,480,480,480,480,480,480,478,469,458,426,410,397,381,365,314,295,275,253,234,200,189,182,177,173,165,162,161,161,158,150,143,137,133,127,115,110,106,102,97],"timestamp_mouse":[8,20,41,61,81,101,121,140,162,181,202,222,242,260,281,301,321,340,360,381,401,420,441,462,480,501,521,540,561,581,600,622,641,660,681,700,720,742,761,781,800,822,841,860,880,901,920,941,960,980,1000,1021,1041,1061,1081,1101,1120,1142],"xSR":741.5,"ySR":469.95,"xT1":424.9,"yT1":0,"xT2":1058.1,"yT2":0,"toosoon":0,"cond_shown":"equaldotsize","ratio_trial":250,"smaller_num":"6","larger_num":"24","correct_side":2,"subjID":"TomásDíazMontoya","gender":"0","age":"11","school":"6"},{"start_time":1551887665839,"click_time":1551887666931,"finger_time":1551887666350,"fix_duration":1307.1910564640966,"trial":61,"RT":511,"MT":581,"sideResp":1,"stimulus":"img/750/equaldotsize/L/9_Ratio_750_L_4_R_3.png","xmouse":[799,799,799,799,799,799,799,799,799,799,799,799,799,799,799,799,799,799,799,799,799,797,793,778,743,719,683,645,607,553,543,535,531,531,531,538,542,546,549,555,556,556,556,555,553,552,551,549,548,547,547,546,544,537,514],"ymouse":[508,508,508,508,508,508,508,508,508,508,508,508,508,508,508,508,508,508,508,508,508,508,505,496,473,453,420,383,342,269,250,234,219,206,197,173,159,134,117,92,85,79,74,70,65,64,62,58,57,57,57,57,56,54,45],"timestamp_mouse":[13,38,51,71,93,111,131,151,172,191,213,231,252,272,292,311,332,352,372,391,412,431,452,471,492,511,531,551,571,592,612,631,652,672,691,711,732,752,772,792,813,833,852,872,892,911,932,951,971,991,1012,1031,1051,1073,1092],"xSR":741.5,"ySR":469.95,"xT1":424.9,"yT1":0,"xT2":1058.1,"yT2":0,"toosoon":0,"cond_shown":"equaldotsize","ratio_trial":750,"smaller_num":"3","larger_num":"4","correct_side":1,"subjID":"TomásDíazMontoya","gender":"0","age":"11","school":"6"},{"start_time":1551887669171,"click_time":1551887669930,"finger_time":1551887669671,"fix_duration":1058.3163856689373,"trial":62,"RT":500,"MT":259,"sideResp":1,"stimulus":"img/750/equaldotsize/L/8_Ratio_750_L_4_R_3.png","xmouse":[792,792,792,792,792,792,792,792,792,792,792,792,792,792,792,792,792,792,792,792,792,792,792,771,743,721,697,675,623,602,572,559,548,539,522,515,508,501,495],"ymouse":[546,546,546,546,546,546,546,546,546,546,546,546,546,546,546,546,546,546,546,546,546,546,544,518,495,477,457,436,374,337,279,252,226,204,163,141,120,102,86],"timestamp_mouse":[8,20,40,61,79,100,121,139,159,181,199,221,239,260,281,299,320,340,359,380,399,421,439,461,479,500,521,541,561,579,600,621,639,659,679,700,721,740,759],"xSR":741.5,"ySR":469.95,"xT1":424.9,"yT1":0,"xT2":1058.1,"yT2":0,"toosoon":0,"cond_shown":"equaldotsize","ratio_trial":750,"smaller_num":"3","larger_num":"4","correct_side":1,"subjID":"TomásDíazMontoya","gender":"0","age":"11","school":"6"},{"start_time":1551887671952,"click_time":1551887672770,"finger_time":1551887672430,"fix_duration":1319.192744770215,"trial":63,"RT":478,"MT":340,"sideResp":2,"stimulus":"img/500/equaldotsize/R/6_Ratio_500_L_9_R_18.png","xmouse":[810,810,810,810,810,810,810,810,810,810,810,810,810,810,810,810,810,810,811,815,821,829,840,851,882,903,921,940,956,987,996,1004,1010,1018,1035,1043,1051,1058,1067,1090,1097],"ymouse":[525,525,525,525,525,525,525,525,525,525,525,525,525,525,525,525,525,525,524,517,509,498,485,472,425,388,352,320,292,238,223,211,203,194,176,164,154,144,134,107,99],"timestamp_mouse":[18,39,60,80,99,120,138,160,178,198,220,239,260,279,303,318,338,359,379,398,419,439,460,478,498,519,538,560,579,599,619,639,658,680,699,719,738,759,780,798,818],"xSR":741.5,"ySR":469.95,"xT1":424.9,"yT1":0,"xT2":1058.1,"yT2":0,"toosoon":0,"cond_shown":"equaldotsize","ratio_trial":500,"smaller_num":"9","larger_num":"18","correct_side":2,"subjID":"TomásDíazMontoya","gender":"0","age":"11","school":"6"},{"start_time":1551887675115,"click_time":1551887675950,"finger_time":1551887675491,"fix_duration":1463.1456742472521,"trial":64,"RT":376,"MT":459,"sideResp":1,"stimulus":"img/900/randomdotsizeEA/L/4_Ratio_900_L_20_R_18.png","xmouse":[788,788,788,788,788,788,788,788,788,788,788,788,788,787,787,787,787,788,788,788,790,790,790,790,789,785,764,743,714,675,614,548,524,509,502,502,501,499,498,495,491,489],"ymouse":[506,506,506,506,506,506,506,506,506,506,506,506,506,506,504,498,481,470,458,443,419,392,382,375,370,363,347,333,305,270,224,180,162,150,143,139,129,121,116,108,100,98],"timestamp_mouse":[16,35,56,75,95,117,135,156,176,195,216,235,257,275,296,317,336,355,376,397,416,436,455,476,496,517,536,556,576,595,616,636,656,677,696,717,736,755,775,797,817,835],"xSR":741.5,"ySR":469.95,"xT1":424.9,"yT1":0,"xT2":1058.1,"yT2":0,"toosoon":0,"cond_shown":"randomdotsizeEA","ratio_trial":900,"smaller_num":"18","larger_num":"20","correct_side":1,"subjID":"TomásDíazMontoya","gender":"0","age":"11","school":"6"},{"start_time":1551887677569,"click_time":1551887678471,"finger_time":1551887678090,"fix_duration":898.6016226476809,"trial":65,"RT":521,"MT":381,"sideResp":2,"stimulus":"img/750/equaldotsize/R/15_Ratio_750_L_9_R_12.png","xmouse":[789,789,789,789,789,789,789,789,789,789,789,789,789,789,789,789,789,789,789,789,789,789,789,790,795,800,812,836,858,906,944,975,1003,1022,1034,1047,1048,1050,1052,1053,1054,1055,1055,1056,1057,1059],"ymouse":[515,515,515,515,515,515,515,515,515,515,515,515,515,515,515,515,515,515,515,515,515,515,515,514,498,480,455,404,367,289,244,210,184,167,155,136,129,114,107,101,91,87,85,82,81,78],"timestamp_mouse":[9,30,40,61,81,101,122,141,161,181,202,221,241,260,281,301,321,341,361,381,402,420,442,460,482,501,521,541,561,582,601,622,642,661,681,701,720,741,762,782,802,821,841,862,882,902],"xSR":741.5,"ySR":469.95,"xT1":424.9,"yT1":0,"xT2":1058.1,"yT2":0,"toosoon":0,"cond_shown":"equaldotsize","ratio_trial":750,"smaller_num":"9","larger_num":"12","correct_side":2,"subjID":"TomásDíazMontoya","gender":"0","age":"11","school":"6"},{"start_time":1551887680466,"click_time":1551887682270,"finger_time":1551887680749,"fix_duration":954.8956915281672,"trial":66,"RT":283,"MT":1521,"sideResp":1,"stimulus":"img/250/equaldotanddens/L/3_Ratio_250_L_8_R_2.png","xmouse":[795,795,795,795,795,795,795,795,795,795,795,795,795,795,794,790,790,786,782,770,743,726,726,697,679,649,642,635,630,628,623,621,620,618,616,616,616,615,613,607,591,584,577,569,565,554,550,544,540,538,537,536,536,535,534,534,534,534,535,544,566,581,592,604,615,623,623,623,623,623,623,615,603,589,575,548,542,537,535,534,534,534,532,529,527,524,519,514,509,503,490],"ymouse":[471,471,471,471,471,471,471,471,471,471,471,471,471,471,469,457,447,437,428,411,382,366,366,331,311,265,240,212,186,168,145,142,139,135,132,131,131,130,129,127,124,123,122,120,119,115,113,109,105,103,100,97,94,91,90,90,90,90,91,103,132,150,167,185,200,214,216,216,216,216,212,199,183,167,152,128,122,117,115,113,113,113,111,109,108,106,106,104,102,100,94],"timestamp_mouse":[8,37,44,64,85,105,125,145,164,184,205,225,244,265,283,304,324,345,365,385,404,424,444,465,483,504,525,545,565,585,604,624,644,665,685,704,725,744,764,785,804,823,844,863,885,904,925,945,964,985,1004,1024,1044,1065,1084,1105,1124,1145,1165,1183,1204,1225,1244,1265,1285,1304,1323,1343,1363,1384,1404,1424,1444,1464,1484,1504,1523,1544,1564,1585,1603,1625,1645,1665,1684,1704,1725,1744,1764,1784,1804],"xSR":741.5,"ySR":469.95,"xT1":424.9,"yT1":0,"xT2":1058.1,"yT2":0,"toosoon":0,"cond_shown":"equaldotanddens","ratio_trial":250,"smaller_num":"2","larger_num":"8","correct_side":1,"subjID":"TomásDíazMontoya","gender":"0","age":"11","school":"6"},{"start_time":1551887683401,"click_time":1551887684330,"finger_time":1551887683831,"fix_duration":250,"trial":67,"RT":430,"MT":499,"sideResp":2,"stimulus":"img/750/randomdotsizeEA/R/3_Ratio_750_L_15_R_20.png","xmouse":[791,791,791,791,791,791,791,791,791,791,791,791,791,791,791,793,795,797,807,818,837,859,900,933,1002,1041,1076,1108,1164,1195,1220,1235,1245,1246,1242,1237,1229,1224,1217,1202,1198,1194,1191,1182,1175,1168,1157],"ymouse":[527,527,527,527,527,527,527,527,527,527,527,527,527,527,527,526,522,517,505,496,482,467,434,410,355,324,293,262,193,152,118,89,59,27,20,14,10,8,6,3,3,3,3,10,17,26,37],"timestamp_mouse":[9,34,49,69,90,108,130,149,169,189,209,229,249,268,289,309,329,349,369,389,410,430,449,468,489,510,529,550,569,589,609,629,650,670,688,708,728,748,769,788,809,829,848,869,889,909,929],"xSR":741.5,"ySR":469.95,"xT1":424.9,"yT1":0,"xT2":1058.1,"yT2":0,"toosoon":0,"cond_shown":"randomdotsizeEA","ratio_trial":750,"smaller_num":"15","larger_num":"20","correct_side":2,"subjID":"TomásDíazMontoya","gender":"0","age":"11","school":"6"},{"start_time":1551887687352,"click_time":1551887702911,"finger_time":1551887687830,"fix_duration":861.5560138216331,"trial":68,"RT":478,"MT":15081,"sideResp":2,"stimulus":"img/250/randomdotsizeEA/R/9_Ratio_250_L_3_R_12.png","xmouse":[812,812,812,812,812,812,812,812,812,812,812,812,812,812,812,812,812,812,812,812,812,812,812,818,827,838,854,856,861,863,863,874,881,887,892,899,921,930,941,951,961,973,973,973,973,973,973,973,973,974,974,975,975,975,975,975,975,975,975,975,975,975,975,975,975,975,975,975,975,975,975,975,975,975,975,975,975,975,975,975,975,975,975,975,975,975,975,975,975,975,975,975,975,975,975,975,975,975,975,975,975,975,975,975,975,975,975,975,975,975,975,975,975,975,975,975,975,975,975,975,975,975,975,975,975,975,975,975,975,975,975,975,975,975,975,975,975,975,975,975,975,975,975,975,975,975,975,975,975,975,975,975,975,975,975,975,975,975,975,975,975,975,975,975,975,975,975,975,975,975,975,975,975,975,975,975,975,975,975,975,975,975,975,975,975,975,975,975,975,975,975,975,975,975,975,975,975,975,975,975,975,975,975,975,975,975,975,975,975,975,975,975,975,975,975,975,975,975,975,975,975,975,975,975,975,975,975,975,975,975,975,975,975,975,975,975,975,975,975,975,975,975,975,975,975,975,975,975,975,975,975,975,975,975,975,975,975,975,975,975,975,975,975,975,975,975,975,975,975,975,975,975,975,975,975,975,975,975,975,975,975,975,975,975,975,975,975,975,975,975,975,975,975,975,975,975,975,975,975,975,975,975,975,975,975,975,975,975,975,975,975,975,975,975,975,975,975,975,975,975,975,975,975,975,975,975,975,975,975,975,975,975,975,975,975,975,975,975,975,975,975,975,975,975,975,975,975,975,975,975,975,975,975,975,975,975,975,975,975,975,975,975,975,975,975,975,975,975,975,975,975,975,975,975,975,975,975,975,975,975,975,975,975,975,975,975,975,975,975,975,975,975,975,975,975,975,975,975,975,975,975,975,975,975,975,975,975,975,975,975,975,975,975,975,975,975,975,975,975,975,975,975,975,975,975,975,975,975,975,975,975,975,975,975,975,975,975,975,975,975,975,975,975,975,975,975,975,975,975,975,975,975,975,975,975,975,975,975,975,975,975,975,975,975,975,975,975,975,975,975,975,975,975,975,975,975,975,975,975,975,975,975,975,975,975,975,975,975,975,975,975,975,975,975,975,975,975,975,975,975,975,975,975,975,975,975,975,975,975,975,975,975,975,975,975,975,975,975,975,975,975,975,975,975,975,975,975,975,975,975,975,975,975,975,975,975,975,975,975,975,975,975,975,975,975,975,975,975,975,975,975,975,975,975,975,975,975,975,975,975,975,975,975,975,975,975,975,975,975,975,975,975,975,975,975,975,975,975,975,975,975,975,975,975,975,975,975,975,975,975,975,975,975,975,975,975,975,975,975,975,975,975,975,975,975,975,975,975,975,975,975,975,975,975,975,975,975,975,975,975,975,975,975,975,975,975,975,975,975,975,975,975,975,975,975,975,975,975,975,975,975,975,975,975,975,975,975,975,975,975,975,975,975,975,975,975,975,975,975,975,975,975,975,975,975,975,975,975,975,975,975,975,975,975,975,975,975,975,975,975,975,975,975,975,975,975,975,975,975,975,975,975,975,975,975,975,975,975,975,975,975,975,975,975,975,975,975,975,975,975,975,975,975,975,975,975,975,975,975,975,975,975,975,975,975,975,975,975,975,975,975,975,975,975,975,975,975,975,975,975,975,975,975,976,1013,1118,1287,1350,1350,1350,1350,1351,1351,1346,1342,1329,1309,1288,1227,1203,1187,1179,1175,1175,1175,1175,1175,1175,1174,1174,1171,1169,1167,1164,1164,1164,1164,1151],"ymouse":[517,517,517,517,517,517,517,517,517,517,517,517,517,517,517,517,517,517,517,517,517,503,487,468,449,431,402,392,374,349,312,252,238,228,220,211,180,165,152,140,129,120,120,120,120,120,120,120,120,120,120,120,120,120,120,120,120,120,120,120,120,120,120,120,120,120,120,120,120,120,120,120,120,120,120,120,120,120,120,120,120,120,120,120,120,120,120,120,120,120,120,120,120,120,120,120,120,120,120,120,120,120,120,120,120,120,120,120,120,120,120,120,120,120,120,120,120,120,120,120,120,120,120,120,120,120,120,120,120,120,120,120,120,120,120,120,120,120,120,120,120,120,120,120,120,120,120,120,120,120,120,120,120,120,120,120,120,120,120,120,120,120,120,120,120,120,120,120,120,120,120,120,120,120,120,120,120,120,120,120,120,120,120,120,120,120,120,120,120,120,120,120,120,120,120,120,120,120,120,120,120,120,120,120,120,120,120,120,120,120,120,120,120,120,120,120,120,120,120,120,120,120,120,120,120,120,120,120,120,120,120,120,120,120,120,120,120,120,120,120,120,120,120,120,120,120,120,120,120,120,120,120,120,120,120,120,120,120,120,120,120,120,120,120,120,120,120,120,120,120,120,120,120,120,120,120,120,120,120,120,120,120,120,120,120,120,120,120,120,120,120,120,120,120,120,120,120,120,120,120,120,120,120,120,120,120,120,120,120,120,120,120,120,120,120,120,120,120,120,120,120,120,120,120,120,120,120,120,120,120,120,120,120,120,120,120,120,120,120,120,120,120,120,120,120,120,120,120,120,120,120,120,120,120,120,120,120,120,120,120,120,120,120,120,120,120,120,120,120,120,120,120,120,120,120,120,120,120,120,120,120,120,120,120,120,120,120,120,120,120,120,120,120,120,120,120,120,120,120,120,120,120,120,120,120,120,120,120,120,120,120,120,120,120,120,120,120,120,120,120,120,120,120,120,120,120,120,120,120,120,120,120,120,120,120,120,120,120,120,120,120,120,120,120,120,120,120,120,120,120,120,120,120,120,120,120,120,120,120,120,120,120,120,120,120,120,120,120,120,120,120,120,120,120,120,120,120,120,120,120,120,120,120,120,120,120,120,120,120,120,120,120,120,120,120,120,120,120,120,120,120,120,120,120,120,120,120,120,120,120,120,120,120,120,120,120,120,120,120,120,120,120,120,120,120,120,120,120,120,120,120,120,120,120,120,120,120,120,120,120,120,120,120,120,120,120,120,120,120,120,120,120,120,120,120,120,120,120,120,120,120,120,120,120,120,120,120,120,120,120,120,120,120,120,120,120,120,120,120,120,120,120,120,120,120,120,120,120,120,120,120,120,120,120,120,120,120,120,120,120,120,120,120,120,120,120,120,120,120,120,120,120,120,120,120,120,120,120,120,120,120,120,120,120,120,120,120,120,120,120,120,120,120,120,120,120,120,120,120,120,120,120,120,120,120,120,120,120,120,120,120,120,120,120,120,120,120,120,120,120,120,120,120,120,120,120,120,120,120,120,120,120,120,120,120,120,120,120,120,120,120,120,120,120,120,120,120,120,120,120,120,120,120,120,120,120,120,120,120,120,120,120,120,120,120,120,120,120,120,120,120,120,120,120,120,120,120,120,120,120,120,120,120,120,120,120,120,120,120,120,120,120,120,120,120,120,120,120,120,120,120,120,120,120,120,120,127,141,141,141,141,141,139,131,127,114,101,90,57,46,36,32,29,29,29,29,29,29,29,29,30,32,34,34,34,34,34,34],"timestamp_mouse":[19,38,58,78,98,118,138,158,179,198,217,239,258,279,299,317,338,359,377,398,419,438,459,478,499,519,538,557,578,599,617,638,658,678,698,718,738,757,779,797,819,838,858,877,898,918,938,958,978,998,1017,1038,1059,1078,1098,1118,1139,1158,1178,1199,1218,1237,1258,1278,1299,1319,1338,1357,1378,1398,1418,1437,1458,1478,1498,1519,1539,1558,1578,1598,1619,1639,1658,1678,1698,1718,1739,1758,1778,1799,1818,1839,1858,1878,1897,1919,1939,1959,1979,1997,2018,2038,2057,2078,2098,2119,2139,2158,2179,2199,2219,2238,2259,2279,2298,2319,2338,2359,2378,2398,2417,2437,2458,2478,2499,2518,2538,2558,2578,2597,2618,2638,2659,2679,2698,2719,2738,2757,2777,2798,2819,2838,2858,2878,2898,2918,2939,2958,2977,2998,3018,3039,3059,3078,3099,3117,3138,3158,3178,3199,3218,3239,3257,3278,3298,3318,3339,3359,3379,3398,3419,3439,3458,3479,3497,3518,3539,3559,3578,3599,3618,3639,3658,3678,3698,3718,3738,3758,3779,3798,3819,3838,3859,3877,3897,3918,3938,3958,3978,3997,4019,4038,4058,4078,4099,4118,4138,4158,4179,4198,4218,4239,4257,4278,4298,4318,4338,4358,4377,4399,4419,4439,4458,4479,4498,4518,4538,4559,4578,4597,4618,4639,4658,4678,4698,4718,4738,4758,4778,4798,4818,4839,4858,4877,4899,4918,4939,4957,4979,4998,5018,5039,5059,5079,5097,5118,5138,5159,5179,5198,5218,5237,5258,5279,5298,5318,5338,5358,5378,5398,5419,5438,5458,5478,5498,5519,5539,5558,5579,5598,5618,5638,5658,5678,5698,5718,5738,5757,5777,5799,5818,5839,5857,5878,5898,5918,5939,5958,5979,5998,6017,6038,6058,6079,6097,6117,6139,6158,6178,6198,6218,6239,6258,6279,6297,6318,6339,6358,6377,6398,6418,6439,6458,6478,6498,6519,6538,6557,6579,6599,6618,6638,6658,6678,6697,6718,6738,6758,6778,6799,6818,6839,6858,6878,6898,6918,6937,6958,6978,6999,7019,7037,7058,7078,7098,7119,7138,7158,7179,7197,7218,7237,7259,7278,7297,7319,7338,7359,7378,7398,7419,7438,7458,7479,7498,7518,7537,7558,7577,7599,7618,7637,7659,7678,7699,7718,7738,7758,7778,7798,7818,7839,7858,7877,7899,7919,7939,7958,7979,7999,8017,8039,8058,8079,8098,8118,8138,8158,8178,8199,8218,8239,8257,8278,8298,8319,8338,8358,8377,8398,8419,8439,8457,8478,8498,8518,8538,8558,8578,8599,8618,8638,8659,8678,8698,8718,8738,8758,8778,8797,8819,8838,8858,8878,8898,8918,8939,8957,8979,8999,9019,9038,9058,9079,9097,9117,9138,9158,9178,9197,9218,9239,9258,9278,9298,9319,9337,9357,9378,9398,9418,9438,9458,9478,9497,9519,9538,9558,9577,9598,9618,9637,9658,9678,9699,9717,9738,9758,9