[{"start_time":1551886925425,"click_time":1551886927229,"finger_time":1551886925437,"fix_duration":773.4407234066542,"trial":0,"RT":12,"MT":1792,"sideResp":1,"stimulus":[],"xmouse":[772,772,772,772,772,772,772,772,772,772,772,772,772,772,772,772,772,772,772,772,772,772,772,772,772,772,772,772,772,772,772,774,785,789,792,792,792,792,792,792,792,792,792,792,792,792,792,792,792,792,792,792,792,792,792,792,792,792,789,787,785,783,779,779,779,779,773,763,750,706,682,660,628,602,550,532,521,516,512,499,495,490,484,483,483,483,491,501,509,516],"ymouse":[532,538,541,542,544,545,546,546,546,546,546,546,546,546,546,546,546,546,546,546,546,546,546,546,546,546,546,546,546,546,548,553,564,569,573,573,573,573,573,573,573,573,573,573,573,573,573,573,573,573,573,573,573,573,573,573,573,573,552,517,501,491,486,486,486,485,485,482,477,454,442,427,401,374,306,286,272,261,249,217,203,193,184,182,182,170,152,129,107,79],"timestamp_mouse":[12,45,63,84,104,124,143,163,183,203,223,243,263,283,303,323,343,365,383,405,425,445,465,485,504,523,543,563,583,604,625,644,664,684,704,724,745,765,783,805,825,844,863,884,903,924,944,965,984,1005,1023,1043,1065,1083,1105,1125,1145,1163,1185,1203,1224,1243,1264,1283,1304,1323,1344,1364,1384,1404,1424,1444,1463,1485,1505,1523,1543,1563,1585,1603,1624,1643,1663,1685,1704,1723,1743,1764,1784,1803],"xSR":741.5,"ySR":500.5,"xT1":424.9,"yT1":0,"xT2":1058.1,"yT2":0,"toosoon":0,"cond_shown":"Incongruent","ratio_trial":300,"L_num":4,"L_den":5,"R_num":6,"R_den":12,"correct_side":1,"subjID":"TomásDíazMntoya26","gender":"male","age":"11","school":"6","test":{"fix_dur":[250,1500],"timestim":1000,"targets_dim":[100,100],"targets_relative_coord":[0.3,0.7],"size_stim":[880,420],"start_dim":[100,100],"size_start":[300,300],"size_fix":60,"samplingrate":20,"img_types":["Congruent","Incongruent"],"ratios":[100,200,300],"rep_conds":19,"nTrials":120,"trials_to_rest":500,"Trials_order":[119,107,94,5,69,15,76,98,42,104,48,103,56,21,23,73,105,75,71,6,17,96,106,58,93,81,22,3,39,118,62,13,27,66,32,102,110,29,77,36,84,117,40,59,65,0,74,9,85,30,43,12,116,26,19,61,25,111,87,95,2,14,99,35,51,57,108,50,24,46,86,78,67,112,101,79,72,68,55,47,88,52,18,4,16,64,1,41,34,82,109,38,83,53,8,91,60,54,89,11,45,97,100,33,44,114,70,49,80,20,90,115,37,28,92,31,7,10,63,113],"cond_shown":["Incongruent","Incongruent","Congruent","Incongruent","Incongruent","Incongruent","Congruent","Congruent","Congruent","Congruent","Congruent","Incongruent","Congruent","Incongruent","Incongruent","Incongruent","Incongruent","Incongruent","Incongruent","Congruent","Incongruent","Congruent","Congruent","Congruent","Incongruent","Incongruent","Congruent","Incongruent","Incongruent","Congruent","Congruent","Incongruent","Incongruent","Congruent","Congruent","Congruent","Congruent","Incongruent","Incongruent","Congruent","Congruent","Incongruent","Congruent","Incongruent","Incongruent","Congruent","Congruent","Incongruent","Incongruent","Congruent","Incongruent","Congruent","Congruent","Congruent","Incongruent","Incongruent","Incongruent","Incongruent","Incongruent","Incongruent","Congruent","Congruent","Incongruent","Incongruent","Incongruent","Incongruent","Congruent","Congruent","Congruent","Congruent","Congruent","Congruent","Incongruent","Congruent","Incongruent","Incongruent","Congruent","Congruent","Incongruent","Incongruent","Congruent","Congruent","Congruent","Congruent","Congruent","Congruent","Incongruent","Incongruent","Congruent","Congruent","Incongruent","Congruent","Incongruent","Incongruent","Congruent","Incongruent","Congruent","Congruent","Incongruent","Incongruent","Incongruent","Incongruent","Congruent","Incongruent","Congruent","Congruent","Congruent","Incongruent","Congruent","Congruent","Congruent","Incongruent","Incongruent","Congruent","Congruent","Incongruent","Incongruent","Congruent","Incongruent","Incongruent"],"ratio_trial":[300,300,300,300,200,200,300,200,100,200,100,100,200,200,300,100,200,200,300,100,300,100,300,300,200,200,300,200,200,300,200,100,200,100,200,100,200,300,300,100,100,200,300,300,300,100,200,200,100,100,100,100,200,200,100,100,100,200,200,300,200,200,200,300,200,200,100,200,100,300,200,100,100,300,300,100,100,200,100,300,300,300,100,300,300,300,100,300,300,300,100,200,300,300,200,100,100,100,300,300,200,100,300,200,200,100,300,100,200,200,100,100,100,300,200,100,100,300,200,300],"left_num":[4,7,20,1,4,1,1,8,2,8,8,9,12,7,4,6,3,1,1,1,8,11,24,1,3,4,20,7,1,2,4,3,1,7,8,7,13,4,1,2,9,14,3,7,4,6,3,14,12,12,9,3,12,7,3,13,9,4,7,13,14,3,7,2,7,1,8,13,4,1,7,2,4,24,13,12,7,3,8,8,8,4,12,11,20,24,1,4,12,18,9,11,8,4,3,3,4,4,3,2,7,3,4,7,6,1,24,12,20,16,2,3,17,1,5,12,11,2,7,2],"right_num":[6,8,8,3,6,3,3,7,11,7,2,14,6,14,2,7,11,2,2,18,9,6,8,11,11,14,5,4,3,12,3,4,3,15,3,15,14,8,3,11,8,12,4,8,6,5,9,12,2,13,14,4,6,18,11,6,20,1,12,12,6,11,12,6,12,3,2,14,15,19,18,6,8,2,12,2,15,9,1,14,1,1,13,4,13,8,8,6,2,9,6,3,9,6,11,4,6,6,4,6,14,11,13,12,11,18,2,2,9,9,6,11,10,3,14,9,9,10,6,6],"left_den":[5,10,25,2,5,2,5,15,5,15,16,15,20,10,20,10,4,3,2,2,10,22,30,5,4,6,25,15,2,10,8,6,2,14,15,14,26,5,2,5,15,30,6,10,5,20,12,30,30,30,15,20,15,15,5,26,10,30,10,26,28,10,10,4,10,2,16,26,10,3,15,5,8,30,26,30,14,12,20,10,16,10,30,22,25,30,2,5,24,20,18,22,10,5,10,6,8,8,6,4,10,5,20,10,20,2,30,30,25,30,5,5,30,5,10,24,22,20,15,4],"right_den":[12,20,16,15,10,10,6,21,22,21,5,28,15,28,4,14,20,15,10,30,18,15,16,22,20,30,10,6,10,24,10,10,10,25,9,25,20,16,15,22,16,18,5,20,12,25,20,18,4,26,28,16,10,27,22,10,25,3,24,15,20,22,24,30,24,10,5,20,30,30,27,12,20,4,15,4,25,20,2,28,5,10,26,20,26,16,20,12,10,15,10,10,18,12,22,10,10,10,20,30,28,22,26,24,22,30,4,4,15,27,12,22,15,6,20,15,15,25,9,30],"correct_side":[1,1,1,1,1,1,2,1,2,1,1,1,1,1,2,1,1,1,1,2,1,1,1,2,1,1,1,2,1,2,1,1,1,2,1,2,2,1,1,2,1,2,2,1,1,1,2,2,2,2,1,2,1,2,1,2,1,2,1,2,1,2,1,1,1,1,1,2,2,2,2,2,1,1,2,2,2,2,2,1,1,1,2,1,1,1,1,1,1,1,2,1,1,1,2,1,2,2,1,1,1,1,2,1,2,2,1,2,1,1,2,1,2,2,2,2,2,2,2,1],"img_shown":["img2/300/Incongruent/L/I_Dist_300_LN_4_LD_5_RN_6_RD_12_0.png","img2/300/Incongruent/L/I_Dist_300_LN_7_LD_10_RN_8_RD_20_0.png","img2/300/Congruent/L/C_Dist_300_LN_20_LD_25_RN_8_RD_16_0.png","img2/300/Incongruent/L/I_Dist_300_LN_1_LD_2_RN_3_RD_15_0.png","img2/200/Incongruent/L/I_Dist_200_LN_4_LD_5_RN_6_RD_10_0.png","img2/200/Incongruent/L/I_Dist_200_LN_1_LD_2_RN_3_RD_10_0.png","img2/300/Congruent/R/C_Dist_300_LN_1_LD_5_RN_3_RD_6_1.png","img2/200/Congruent/L/C_Dist_200_LN_8_LD_15_RN_7_RD_21_0.png","img2/100/Congruent/R/C_Dist_100_LN_2_LD_5_RN_11_RD_22_1.png","img2/200/Congruent/L/C_Dist_200_LN_8_LD_15_RN_7_RD_21_0.png","img2/100/Congruent/L/C_Dist_100_LN_8_LD_16_RN_2_RD_5_0.png","img2/100/Incongruent/L/I_Dist_100_LN_9_LD_15_RN_14_RD_28_0.png","img2/200/Congruent/L/C_Dist_200_LN_12_LD_20_RN_6_RD_15_0.png","img2/200/Incongruent/L/I_Dist_200_LN_7_LD_10_RN_14_RD_28_0.png","img2/300/Incongruent/R/I_Dist_300_LN_4_LD_20_RN_2_RD_4_1.png","img2/100/Incongruent/L/I_Dist_100_LN_6_LD_10_RN_7_RD_14_0.png","img2/200/Incongruent/L/I_Dist_200_LN_3_LD_4_RN_11_RD_20_0.png","img2/200/Incongruent/L/I_Dist_200_LN_1_LD_3_RN_2_RD_15_0.png","img2/300/Incongruent/L/I_Dist_300_LN_1_LD_2_RN_2_RD_10_0.png","img2/100/Congruent/R/C_Dist_100_LN_1_LD_2_RN_18_RD_30_1.png","img2/300/Incongruent/L/I_Dist_300_LN_8_LD_10_RN_9_RD_18_0.png","img2/100/Congruent/L/C_Dist_100_LN_11_LD_22_RN_6_RD_15_0.png","img2/300/Congruent/L/C_Dist_300_LN_24_LD_30_RN_8_RD_16_0.png","img2/300/Congruent/R/C_Dist_300_LN_1_LD_5_RN_11_RD_22_1.png","img2/200/Incongruent/L/I_Dist_200_LN_3_LD_4_RN_11_RD_20_0.png","img2/200/Incongruent/L/I_Dist_200_LN_4_LD_6_RN_14_RD_30_0.png","img2/300/Congruent/L/C_Dist_300_LN_20_LD_25_RN_5_RD_10_0.png","img2/200/Incongruent/R/I_Dist_200_LN_7_LD_15_RN_4_RD_6_1.png","img2/200/Incongruent/L/I_Dist_200_LN_1_LD_2_RN_3_RD_10_0.png","img2/300/Congruent/R/C_Dist_300_LN_2_LD_10_RN_12_RD_24_1.png","img2/200/Congruent/L/C_Dist_200_LN_4_LD_8_RN_3_RD_10_0.png","img2/100/Incongruent/L/I_Dist_100_LN_3_LD_6_RN_4_RD_10_0.png","img2/200/Incongruent/L/I_Dist_200_LN_1_LD_2_RN_3_RD_10_0.png","img2/100/Congruent/R/C_Dist_100_LN_7_LD_14_RN_15_RD_25_1.png","img2/200/Congruent/L/C_Dist_200_LN_8_LD_15_RN_3_RD_9_0.png","img2/100/Congruent/R/C_Dist_100_LN_7_LD_14_RN_15_RD_25_1.png","img2/200/Congruent/R/C_Dist_200_LN_13_LD_26_RN_14_RD_20_1.png","img2/300/Incongruent/L/I_Dist_300_LN_4_LD_5_RN_8_RD_16_0.png","img2/300/Incongruent/L/I_Dist_300_LN_1_LD_2_RN_3_RD_15_0.png","img2/100/Congruent/R/C_Dist_100_LN_2_LD_5_RN_11_RD_22_1.png","img2/100/Congruent/L/C_Dist_100_LN_9_LD_15_RN_8_RD_16_0.png","img2/200/Incongruent/R/I_Dist_200_LN_14_LD_30_RN_12_RD_18_1.png","img2/300/Congruent/R/C_Dist_300_LN_3_LD_6_RN_4_RD_5_1.png","img2/300/Incongruent/L/I_Dist_300_LN_7_LD_10_RN_8_RD_20_0.png","img2/300/Incongruent/L/I_Dist_300_LN_4_LD_5_RN_6_RD_12_0.png","img2/100/Congruent/L/C_Dist_100_LN_6_LD_20_RN_5_RD_25_0.png","img2/200/Congruent/R/C_Dist_200_LN_3_LD_12_RN_9_RD_20_1.png","img2/200/Incongruent/R/I_Dist_200_LN_14_LD_30_RN_12_RD_18_1.png","img2/100/Incongruent/R/I_Dist_100_LN_12_LD_30_RN_2_RD_4_1.png","img2/100/Congruent/R/C_Dist_100_LN_12_LD_30_RN_13_RD_26_1.png","img2/100/Incongruent/L/I_Dist_100_LN_9_LD_15_RN_14_RD_28_0.png","img2/100/Congruent/R/C_Dist_100_LN_3_LD_20_RN_4_RD_16_1.png","img2/200/Congruent/L/C_Dist_200_LN_12_LD_15_RN_6_RD_10_0.png","img2/200/Congruent/R/C_Dist_200_LN_7_LD_15_RN_18_RD_27_1.png","img2/100/Incongruent/L/I_Dist_100_LN_3_LD_5_RN_11_RD_22_0.png","img2/100/Incongruent/R/I_Dist_100_LN_13_LD_26_RN_6_RD_10_1.png","img2/100/Incongruent/L/I_Dist_100_LN_9_LD_10_RN_20_RD_25_0.png","img2/200/Incongruent/R/I_Dist_200_LN_4_LD_30_RN_1_RD_3_1.png","img2/200/Incongruent/L/I_Dist_200_LN_7_LD_10_RN_12_RD_24_0.png","img2/300/Incongruent/R/I_Dist_300_LN_13_LD_26_RN_12_RD_15_1.png","img2/200/Congruent/L/C_Dist_200_LN_14_LD_28_RN_6_RD_20_0.png","img2/200/Congruent/R/C_Dist_200_LN_3_LD_10_RN_11_RD_22_1.png","img2/200/Incongruent/L/I_Dist_200_LN_7_LD_10_RN_12_RD_24_0.png","img2/300/Incongruent/L/I_Dist_300_LN_2_LD_4_RN_6_RD_30_0.png","img2/200/Incongruent/L/I_Dist_200_LN_7_LD_10_RN_12_RD_24_0.png","img2/200/Incongruent/L/I_Dist_200_LN_1_LD_2_RN_3_RD_10_0.png","img2/100/Congruent/L/C_Dist_100_LN_8_LD_16_RN_2_RD_5_0.png","img2/200/Congruent/R/C_Dist_200_LN_13_LD_26_RN_14_RD_20_1.png","img2/100/Congruent/R/C_Dist_100_LN_4_LD_10_RN_15_RD_30_1.png","img2/300/Congruent/R/C_Dist_300_LN_1_LD_3_RN_19_RD_30_1.png","img2/200/Congruent/R/C_Dist_200_LN_7_LD_15_RN_18_RD_27_1.png","img2/100/Congruent/R/C_Dist_100_LN_2_LD_5_RN_6_RD_12_1.png","img2/100/Incongruent/L/I_Dist_100_LN_4_LD_8_RN_8_RD_20_0.png","img2/300/Congruent/L/C_Dist_300_LN_24_LD_30_RN_2_RD_4_0.png","img2/300/Incongruent/R/I_Dist_300_LN_13_LD_26_RN_12_RD_15_1.png","img2/100/Incongruent/R/I_Dist_100_LN_12_LD_30_RN_2_RD_4_1.png","img2/100/Congruent/R/C_Dist_100_LN_7_LD_14_RN_15_RD_25_1.png","img2/200/Congruent/R/C_Dist_200_LN_3_LD_12_RN_9_RD_20_1.png","img2/100/Incongruent/R/I_Dist_100_LN_8_LD_20_RN_1_RD_2_1.png","img2/300/Incongruent/L/I_Dist_300_LN_8_LD_10_RN_14_RD_28_0.png","img2/300/Congruent/L/C_Dist_300_LN_8_LD_16_RN_1_RD_5_0.png","img2/300/Congruent/L/C_Dist_300_LN_4_LD_10_RN_1_RD_10_0.png","img2/100/Congruent/R/C_Dist_100_LN_12_LD_30_RN_13_RD_26_1.png","img2/300/Congruent/L/C_Dist_300_LN_11_LD_22_RN_4_RD_20_0.png","img2/300/Congruent/L/C_Dist_300_LN_20_LD_25_RN_13_RD_26_0.png","img2/300/Congruent/L/C_Dist_300_LN_24_LD_30_RN_8_RD_16_0.png","img2/100/Incongruent/L/I_Dist_100_LN_1_LD_2_RN_8_RD_20_0.png","img2/300/Incongruent/L/I_Dist_300_LN_4_LD_5_RN_6_RD_12_0.png","img2/300/Congruent/L/C_Dist_300_LN_12_LD_24_RN_2_RD_10_0.png","img2/300/Congruent/L/C_Dist_300_LN_18_LD_20_RN_9_RD_15_0.png","img2/100/Incongruent/R/I_Dist_100_LN_9_LD_18_RN_6_RD_10_1.png","img2/200/Congruent/L/C_Dist_200_LN_11_LD_22_RN_3_RD_10_0.png","img2/300/Incongruent/L/I_Dist_300_LN_8_LD_10_RN_9_RD_18_0.png","img2/300/Incongruent/L/I_Dist_300_LN_4_LD_5_RN_6_RD_12_0.png","img2/200/Congruent/R/C_Dist_200_LN_3_LD_10_RN_11_RD_22_1.png","img2/100/Incongruent/L/I_Dist_100_LN_3_LD_6_RN_4_RD_10_0.png","img2/100/Congruent/R/C_Dist_100_LN_4_LD_8_RN_6_RD_10_1.png","img2/100/Congruent/R/C_Dist_100_LN_4_LD_8_RN_6_RD_10_1.png","img2/300/Incongruent/L/I_Dist_300_LN_3_LD_6_RN_4_RD_20_0.png","img2/300/Incongruent/L/I_Dist_300_LN_2_LD_4_RN_6_RD_30_0.png","img2/200/Incongruent/L/I_Dist_200_LN_7_LD_10_RN_14_RD_28_0.png","img2/100/Incongruent/L/I_Dist_100_LN_3_LD_5_RN_11_RD_22_0.png","img2/300/Congruent/R/C_Dist_300_LN_4_LD_20_RN_13_RD_26_1.png","img2/200/Incongruent/L/I_Dist_200_LN_7_LD_10_RN_12_RD_24_0.png","img2/200/Congruent/R/C_Dist_200_LN_6_LD_20_RN_11_RD_22_1.png","img2/100/Congruent/R/C_Dist_100_LN_1_LD_2_RN_18_RD_30_1.png","img2/300/Congruent/L/C_Dist_300_LN_24_LD_30_RN_2_RD_4_0.png","img2/100/Incongruent/R/I_Dist_100_LN_12_LD_30_RN_2_RD_4_1.png","img2/200/Congruent/L/C_Dist_200_LN_20_LD_25_RN_9_RD_15_0.png","img2/200/Congruent/L/C_Dist_200_LN_16_LD_30_RN_9_RD_27_0.png","img2/100/Congruent/R/C_Dist_100_LN_2_LD_5_RN_6_RD_12_1.png","img2/100/Incongruent/L/I_Dist_100_LN_3_LD_5_RN_11_RD_22_0.png","img2/100/Incongruent/R/I_Dist_100_LN_17_LD_30_RN_10_RD_15_1.png","img2/300/Congruent/R/C_Dist_300_LN_1_LD_5_RN_3_RD_6_1.png","img2/200/Congruent/R/C_Dist_200_LN_5_LD_10_RN_14_RD_20_1.png","img2/100/Incongruent/R/I_Dist_100_LN_12_LD_24_RN_9_RD_15_1.png","img2/100/Incongruent/R/I_Dist_100_LN_11_LD_22_RN_9_RD_15_1.png","img2/300/Congruent/R/C_Dist_300_LN_2_LD_20_RN_10_RD_25_1.png","img2/200/Incongruent/R/I_Dist_200_LN_7_LD_15_RN_6_RD_9_1.png","img2/300/Incongruent/L/I_Dist_300_LN_2_LD_4_RN_6_RD_30_0.png"],"dist100_C":[["C_Dist_100_LN_10_LD_25_RN_3_RD_10_0.png","C_Dist_100_LN_11_LD_22_RN_4_RD_10_0.png","C_Dist_100_LN_11_LD_22_RN_6_RD_15_0.png","C_Dist_100_LN_15_LD_25_RN_13_RD_26_0.png","C_Dist_100_LN_3_LD_6_RN_2_RD_5_0.png","C_Dist_100_LN_6_LD_20_RN_5_RD_25_0.png","C_Dist_100_LN_8_LD_16_RN_2_RD_5_0.png","C_Dist_100_LN_9_LD_15_RN_8_RD_16_0.png"],["C_Dist_100_LN_1_LD_2_RN_18_RD_30_1.png","C_Dist_100_LN_1_LD_2_RN_3_RD_5_1.png","C_Dist_100_LN_12_LD_30_RN_13_RD_26_1.png","C_Dist_100_LN_2_LD_5_RN_11_RD_22_1.png","C_Dist_100_LN_2_LD_5_RN_6_RD_12_1.png","C_Dist_100_LN_3_LD_20_RN_4_RD_16_1.png","C_Dist_100_LN_4_LD_10_RN_15_RD_30_1.png","C_Dist_100_LN_4_LD_8_RN_6_RD_10_1.png","C_Dist_100_LN_6_LD_12_RN_15_RD_25_1.png","C_Dist_100_LN_7_LD_14_RN_15_RD_25_1.png","C_Dist_100_LN_7_LD_14_RN_9_RD_15_1.png"]],"dist100_I":[["I_Dist_100_LN_1_LD_2_RN_8_RD_20_0.png","I_Dist_100_LN_2_LD_4_RN_6_RD_15_0.png","I_Dist_100_LN_2_LD_4_RN_8_RD_20_0.png","I_Dist_100_LN_3_LD_5_RN_11_RD_22_0.png","I_Dist_100_LN_3_LD_5_RN_8_RD_16_0.png","I_Dist_100_LN_3_LD_6_RN_4_RD_10_0.png","I_Dist_100_LN_3_LD_9_RN_7_RD_30_0.png","I_Dist_100_LN_4_LD_8_RN_8_RD_20_0.png","I_Dist_100_LN_6_LD_10_RN_11_RD_22_0.png","I_Dist_100_LN_6_LD_10_RN_13_RD_26_0.png","I_Dist_100_LN_6_LD_10_RN_7_RD_14_0.png","I_Dist_100_LN_9_LD_10_RN_20_RD_25_0.png","I_Dist_100_LN_9_LD_15_RN_13_RD_26_0.png","I_Dist_100_LN_9_LD_15_RN_14_RD_28_0.png"],["I_Dist_100_LN_10_LD_25_RN_8_RD_16_1.png","I_Dist_100_LN_10_LD_25_RN_9_RD_18_1.png","I_Dist_100_LN_11_LD_22_RN_9_RD_15_1.png","I_Dist_100_LN_12_LD_24_RN_9_RD_15_1.png","I_Dist_100_LN_12_LD_30_RN_2_RD_4_1.png","I_Dist_100_LN_13_LD_26_RN_12_RD_20_1.png","I_Dist_100_LN_13_LD_26_RN_6_RD_10_1.png","I_Dist_100_LN_17_LD_30_RN_10_RD_15_1.png","I_Dist_100_LN_6_LD_12_RN_3_RD_5_1.png","I_Dist_100_LN_8_LD_16_RN_6_RD_10_1.png","I_Dist_100_LN_8_LD_20_RN_1_RD_2_1.png","I_Dist_100_LN_9_LD_18_RN_6_RD_10_1.png"]],"dist100_S":[["E_Dist_100_LN_2_LD_12_RN_2_RD_30_0.png","E_Dist_100_LN_6_LD_10_RN_6_RD_12_0.png"],["E_Dist_100_LN_6_LD_12_RN_6_RD_10_1.png"]],"dist200_C":[["C_Dist_200_LN_11_LD_22_RN_3_RD_10_0.png","C_Dist_200_LN_12_LD_15_RN_6_RD_10_0.png","C_Dist_200_LN_12_LD_20_RN_6_RD_15_0.png","C_Dist_200_LN_14_LD_28_RN_6_RD_20_0.png","C_Dist_200_LN_15_LD_25_RN_4_RD_10_0.png","C_Dist_200_LN_16_LD_20_RN_12_RD_20_0.png","C_Dist_200_LN_16_LD_30_RN_9_RD_27_0.png","C_Dist_200_LN_20_LD_25_RN_9_RD_15_0.png","C_Dist_200_LN_21_LD_30_RN_2_RD_4_0.png","C_Dist_200_LN_4_LD_10_RN_3_RD_15_0.png","C_Dist_200_LN_4_LD_8_RN_3_RD_10_0.png","C_Dist_200_LN_6_LD_15_RN_3_RD_15_0.png","C_Dist_200_LN_7_LD_21_RN_2_RD_15_0.png","C_Dist_200_LN_8_LD_15_RN_2_RD_6_0.png","C_Dist_200_LN_8_LD_15_RN_3_RD_9_0.png","C_Dist_200_LN_8_LD_15_RN_7_RD_21_0.png","C_Dist_200_LN_9_LD_20_RN_4_RD_16_0.png"],["C_Dist_200_LN_1_LD_2_RN_21_RD_30_1.png","C_Dist_200_LN_13_LD_26_RN_14_RD_20_1.png","C_Dist_200_LN_3_LD_10_RN_11_RD_22_1.png","C_Dist_200_LN_3_LD_10_RN_14_RD_28_1.png","C_Dist_200_LN_3_LD_10_RN_7_RD_14_1.png","C_Dist_200_LN_3_LD_12_RN_9_RD_20_1.png","C_Dist_200_LN_3_LD_6_RN_14_RD_20_1.png","C_Dist_200_LN_5_LD_10_RN_14_RD_20_1.png","C_Dist_200_LN_6_LD_12_RN_7_RD_10_1.png","C_Dist_200_LN_6_LD_20_RN_11_RD_22_1.png","C_Dist_200_LN_7_LD_15_RN_18_RD_27_1.png","C_Dist_200_LN_9_LD_30_RN_13_RD_26_1.png"]],"dist200_I":[["I_Dist_200_LN_1_LD_2_RN_3_RD_10_0.png","I_Dist_200_LN_1_LD_3_RN_2_RD_15_0.png","I_Dist_200_LN_3_LD_4_RN_11_RD_20_0.png","I_Dist_200_LN_4_LD_5_RN_6_RD_10_0.png","I_Dist_200_LN_4_LD_6_RN_14_RD_30_0.png","I_Dist_200_LN_7_LD_10_RN_12_RD_24_0.png","I_Dist_200_LN_7_LD_10_RN_14_RD_28_0.png","I_Dist_200_LN_7_LD_10_RN_8_RD_16_0.png"],["I_Dist_200_LN_11_LD_20_RN_3_RD_4_1.png","I_Dist_200_LN_14_LD_30_RN_12_RD_18_1.png","I_Dist_200_LN_14_LD_30_RN_6_RD_9_1.png","I_Dist_200_LN_3_LD_10_RN_1_RD_2_1.png","I_Dist_200_LN_4_LD_30_RN_1_RD_3_1.png","I_Dist_200_LN_6_LD_20_RN_3_RD_6_1.png","I_Dist_200_LN_7_LD_15_RN_4_RD_6_1.png","I_Dist_200_LN_7_LD_15_RN_6_RD_9_1.png","I_Dist_200_LN_9_LD_15_RN_8_RD_10_1.png"]],"dist200_S":[["E_Dist_200_LN_3_LD_6_RN_3_RD_10_0.png"],["E_Dist_200_LN_3_LD_10_RN_3_RD_6_1.png"]],"dist300_C":[["C_Dist_300_LN_11_LD_22_RN_1_RD_5_0.png","C_Dist_300_LN_11_LD_22_RN_2_RD_10_0.png","C_Dist_300_LN_11_LD_22_RN_4_RD_20_0.png","C_Dist_300_LN_12_LD_24_RN_2_RD_10_0.png","C_Dist_300_LN_18_LD_20_RN_9_RD_15_0.png","C_Dist_300_LN_20_LD_25_RN_13_RD_26_0.png","C_Dist_300_LN_20_LD_25_RN_14_RD_28_0.png","C_Dist_300_LN_20_LD_25_RN_5_RD_10_0.png","C_Dist_300_LN_20_LD_25_RN_8_RD_16_0.png","C_Dist_300_LN_20_LD_25_RN_9_RD_18_0.png","C_Dist_300_LN_24_LD_30_RN_2_RD_4_0.png","C_Dist_300_LN_24_LD_30_RN_8_RD_16_0.png","C_Dist_300_LN_3_LD_6_RN_2_RD_10_0.png","C_Dist_300_LN_4_LD_10_RN_1_RD_10_0.png","C_Dist_300_LN_4_LD_5_RN_2_RD_4_0.png","C_Dist_300_LN_8_LD_16_RN_1_RD_5_0.png","C_Dist_300_LN_9_LD_10_RN_3_RD_5_0.png"],["C_Dist_300_LN_1_LD_20_RN_7_RD_20_1.png","C_Dist_300_LN_1_LD_3_RN_19_RD_30_1.png","C_Dist_300_LN_1_LD_30_RN_8_RD_24_1.png","C_Dist_300_LN_1_LD_5_RN_11_RD_22_1.png","C_Dist_300_LN_1_LD_5_RN_3_RD_6_1.png","C_Dist_300_LN_1_LD_5_RN_6_RD_12_1.png","C_Dist_300_LN_2_LD_10_RN_12_RD_24_1.png","C_Dist_300_LN_2_LD_20_RN_10_RD_25_1.png","C_Dist_300_LN_3_LD_12_RN_11_RD_20_1.png","C_Dist_300_LN_3_LD_6_RN_4_RD_5_1.png","C_Dist_300_LN_4_LD_20_RN_13_RD_26_1.png","C_Dist_300_LN_5_LD_25_RN_6_RD_12_1.png","C_Dist_300_LN_5_LD_25_RN_7_RD_14_1.png","C_Dist_300_LN_7_LD_14_RN_20_RD_25_1.png","C_Dist_300_LN_8_LD_15_RN_10_RD_12_1.png"]],"dist300_I":[["I_Dist_300_LN_1_LD_2_RN_2_RD_10_0.png","I_Dist_300_LN_1_LD_2_RN_3_RD_15_0.png","I_Dist_300_LN_2_LD_4_RN_6_RD_30_0.png","I_Dist_300_LN_3_LD_6_RN_4_RD_20_0.png","I_Dist_300_LN_4_LD_5_RN_6_RD_12_0.png","I_Dist_300_LN_4_LD_5_RN_8_RD_16_0.png","I_Dist_300_LN_7_LD_10_RN_8_RD_20_0.png","I_Dist_300_LN_8_LD_10_RN_14_RD_28_0.png","I_Dist_300_LN_8_LD_10_RN_9_RD_18_0.png"],["I_Dist_300_LN_13_LD_26_RN_12_RD_15_1.png","I_Dist_300_LN_4_LD_20_RN_2_RD_4_1.png"]],"dist300_S":[["E_Dist_300_LN_9_LD_12_RN_9_RD_20_0.png"],["E_Dist_300_LN_18_LD_30_RN_18_RD_20_1.png","E_Dist_300_LN_3_LD_10_RN_3_RD_5_1.png","E_Dist_300_LN_9_LD_20_RN_9_RD_12_1.png"]],"dist500_C":[["C_Dist_500_LN_10_LD_13_RN_7_RD_26_0.png","C_Dist_500_LN_10_LD_15_RN_4_RD_24_0.png","C_Dist_500_LN_12_LD_16_RN_3_RD_12_0.png","C_Dist_500_LN_12_LD_18_RN_4_RD_24_0.png","C_Dist_500_LN_15_LD_18_RN_5_RD_15_0.png","C_Dist_500_LN_15_LD_20_RN_1_RD_4_0.png","C_Dist_500_LN_18_LD_27_RN_1_RD_6_0.png","C_Dist_500_LN_20_LD_24_RN_1_RD_3_0.png","C_Dist_500_LN_20_LD_24_RN_3_RD_9_0.png","C_Dist_500_LN_20_LD_24_RN_7_RD_21_0.png","C_Dist_500_LN_20_LD_28_RN_3_RD_14_0.png","C_Dist_500_LN_21_LD_28_RN_6_RD_24_0.png","C_Dist_500_LN_22_LD_28_RN_2_RD_7_0.png","C_Dist_500_LN_25_LD_30_RN_9_RD_27_0.png","C_Dist_500_LN_4_LD_6_RN_1_RD_6_0.png","C_Dist_500_LN_5_LD_6_RN_2_RD_6_0.png","C_Dist_500_LN_6_LD_9_RN_1_RD_6_0.png","C_Dist_500_LN_7_LD_10_RN_1_RD_5_0.png","C_Dist_500_LN_8_LD_12_RN_1_RD_6_0.png","C_Dist_500_LN_8_LD_12_RN_4_RD_24_0.png"],["C_Dist_500_LN_1_LD_4_RN_12_RD_16_1.png","C_Dist_500_LN_1_LD_4_RN_9_RD_12_1.png","C_Dist_500_LN_1_LD_9_RN_11_RD_18_1.png","C_Dist_500_LN_10_LD_24_RN_22_RD_24_1.png","C_Dist_500_LN_2_LD_12_RN_10_RD_15_1.png","C_Dist_500_LN_2_LD_12_RN_12_RD_18_1.png","C_Dist_500_LN_2_LD_12_RN_4_RD_6_1.png","C_Dist_500_LN_2_LD_24_RN_7_RD_12_1.png","C_Dist_500_LN_2_LD_5_RN_18_RD_20_1.png","C_Dist_500_LN_2_LD_5_RN_9_RD_10_1.png","C_Dist_500_LN_2_LD_8_RN_12_RD_16_1.png","C_Dist_500_LN_2_LD_8_RN_21_RD_28_1.png","C_Dist_500_LN_3_LD_10_RN_4_RD_5_1.png","C_Dist_500_LN_3_LD_12_RN_15_RD_20_1.png","C_Dist_500_LN_3_LD_30_RN_6_RD_10_1.png","C_Dist_500_LN_3_LD_8_RN_14_RD_16_1.png","C_Dist_500_LN_4_LD_16_RN_15_RD_20_1.png","C_Dist_500_LN_4_LD_24_RN_12_RD_18_1.png","C_Dist_500_LN_5_LD_14_RN_6_RD_7_1.png","C_Dist_500_LN_7_LD_21_RN_20_RD_24_1.png","C_Dist_500_LN_7_LD_28_RN_12_RD_16_1.png","C_Dist_500_LN_7_LD_28_RN_9_RD_12_1.png","C_Dist_500_LN_9_LD_27_RN_20_RD_24_1.png"]],"dist500_I":[["I_Dist_500_LN_2_LD_3_RN_4_RD_24_0.png","I_Dist_500_LN_5_LD_6_RN_6_RD_18_0.png","I_Dist_500_LN_7_LD_8_RN_9_RD_24_0.png"],["I_Dist_500_LN_7_LD_21_RN_5_RD_6_1.png"]],"dist500_S":[["E_Dist_500_LN_6_LD_8_RN_6_RD_24_0.png"],["E_Dist_500_LN_2_LD_12_RN_2_RD_3_1.png","E_Dist_500_LN_6_LD_24_RN_6_RD_8_1.png"]]}},{"start_time":1551886929053,"click_time":1551886930969,"finger_time":1551886930529,"fix_duration":503.8188880748646,"trial":1,"RT":1476,"MT":440,"sideResp":2,"stimulus":[],"xmouse":[767,767,767,767,767,767,767,767,767,767,767,767,767,767,767,767,767,767,767,767,767,767,767,767,767,767,767,767,767,767,767,767,767,767,767,767,767,767,767,767,767,767,767,767,767,767,767,767,767,767,767,767,767,767,767,767,767,767,767,767,767,767,767,767,767,767,767,767,767,767,767,777,810,914,966,1015,1045,1065,1092,1097,1102,1105,1107,1110,1114,1116,1116,1116,1116,1115,1114,1114,1112,1109,1107,1103],"ymouse":[625,625,625,625,625,625,625,625,625,625,625,625,625,625,625,625,625,625,625,625,625,625,625,625,625,625,625,625,625,625,625,625,625,625,625,625,625,625,625,625,625,625,625,625,625,625,625,625,625,625,625,625,625,625,625,625,625,625,625,625,625,625,625,625,625,625,625,625,625,625,625,613,566,455,408,365,332,307,272,261,253,248,242,237,224,215,207,198,181,171,163,153,142,120,108,97],"timestamp_mouse":[15,39,56,76,96,115,135,156,176,195,216,235,256,276,295,316,336,355,376,395,415,435,455,475,496,515,535,555,575,595,615,635,656,675,696,716,737,756,775,797,815,837,856,877,896,916,935,955,976,997,1015,1037,1055,1076,1095,1115,1136,1155,1176,1196,1217,1236,1255,1276,1296,1316,1336,1356,1377,1395,1415,1436,1455,1476,1495,1515,1536,1555,1576,1595,1616,1637,1656,1676,1695,1716,1736,1755,1775,1795,1816,1837,1856,1876,1895,1915],"xSR":741.5,"ySR":542.75,"xT1":424.9,"yT1":0,"xT2":1058.1,"yT2":0,"toosoon":0,"cond_shown":"Incongruent","ratio_trial":300,"L_num":7,"L_den":10,"R_num":8,"R_den":20,"correct_side":1,"subjID":"TomásDíazMntoya26","gender":"male","school":"6","age":"11"},{"start_time":1551886932239,"click_time":1551886934288,"finger_time":1551886933108,"fix_duration":250,"trial":2,"RT":869,"MT":1180,"sideResp":1,"stimulus":[],"xmouse":[806,806,806,806,806,806,806,806,806,806,806,806,806,806,806,806,806,806,806,806,806,806,806,806,806,806,806,806,806,806,806,806,806,806,806,806,806,806,806,804,798,773,771,851,851,851,851,851,793,748,785,857,960,1090,1227,1464,1532,1563,1575,1577,1574,1564,1548,1524,1483,1458,1415,1360,1303,1247,1171,1139,1108,1051,979,827,754,678,612,549,509,493,475,463,455,455,455,454,454,454,454,454,454,454,454,454,454,454,454,454,454,455,456],"ymouse":[557,557,557,557,557,557,557,557,557,557,557,557,557,557,557,557,557,557,557,557,557,557,557,557,557,557,557,557,557,557,557,557,557,557,557,557,557,557,557,558,560,572,638,769,773,773,773,773,760,745,749,752,735,698,642,540,508,486,470,435,414,390,366,328,274,252,224,200,175,151,135,133,134,147,167,186,186,186,186,183,172,166,162,157,155,155,155,154,150,137,125,121,117,117,117,117,117,117,116,116,105,101,97],"timestamp_mouse":[12,40,49,70,90,109,130,150,170,189,211,231,249,270,290,309,329,350,369,391,410,429,451,469,490,510,531,549,571,589,611,629,651,669,690,709,731,749,770,790,810,829,849,869,891,909,929,949,970,990,1010,1029,1049,1070,1089,1109,1130,1149,1169,1190,1209,1230,1250,1270,1291,1309,1329,1349,1369,1389,1411,1430,1449,1470,1490,1509,1531,1549,1570,1589,1610,1629,1649,1669,1690,1710,1731,1749,1770,1789,1809,1829,1851,1871,1890,1909,1930,1950,1970,1989,2010,2030,2049],"xSR":741.5,"ySR":542.75,"xT1":424.9,"yT1":0,"xT2":1058.1,"yT2":0,"toosoon":0,"cond_shown":"Congruent","ratio_trial":300,"L_num":20,"L_den":25,"R_num":8,"R_den":16,"correct_side":1,"subjID":"TomásDíazMntoya26","gender":"male","school":"6","age":"11"},{"start_time":1551886935850,"click_time":1551886937988,"finger_time":1551886937429,"fix_duration":560.6825520407095,"trial":3,"RT":1579,"MT":559,"sideResp":1,"stimulus":[],"xmouse":[820,820,820,820,820,820,820,820,820,820,820,820,820,820,820,820,820,820,820,820,820,820,820,820,820,820,820,820,820,820,820,820,820,820,820,820,820,820,820,820,820,820,820,820,820,820,820,820,820,820,820,820,820,820,820,820,820,820,820,820,820,820,820,820,820,820,820,820,820,820,820,820,820,820,820,820,821,806,758,675,661,656,650,644,632,628,626,625,623,616,609,600,588,573,549,538,521,517,515,515,515,515,515,515,515,515,514],"ymouse":[586,586,586,586,586,586,586,586,586,586,586,586,586,586,586,586,586,586,586,586,586,586,586,586,586,586,586,586,586,586,586,586,586,586,586,586,586,586,586,586,586,586,586,586,586,586,586,586,586,586,586,586,586,586,586,586,586,586,586,586,586,586,586,586,586,586,586,586,586,586,586,586,586,586,586,586,586,560,501,411,393,379,361,341,305,293,279,275,268,244,229,209,190,172,142,128,110,104,102,101,101,101,101,101,101,101,96],"timestamp_mouse":[31,39,59,78,99,120,139,158,180,198,219,240,260,279,300,320,338,360,380,398,419,439,459,478,500,518,538,560,579,600,618,639,658,679,698,720,739,758,779,798,818,838,860,878,899,919,939,960,980,998,1019,1039,1059,1079,1099,1119,1138,1159,1180,1198,1218,1240,1258,1279,1300,1319,1338,1358,1379,1398,1419,1439,1460,1479,1498,1519,1538,1559,1579,1599,1618,1639,1658,1679,1698,1719,1738,1759,1778,1798,1818,1838,1859,1879,1899,1918,1938,1960,1979,1998,2019,2038,2058,2079,2099,2119,2138],"xSR":741.5,"ySR":542.75,"xT1":424.9,"yT1":0,"xT2":1058.1,"yT2":0,"toosoon":0,"cond_shown":"Incongruent","ratio_trial":300,"L_num":1,"L_den":2,"R_num":3,"R_den":15,"correct_side":1,"subjID":"TomásDíazMntoya26","gender":"male","school":"6","age":"11"},{"start_time":1551886939538,"click_time":1551886941289,"finger_time":1551886940449,"fix_duration":549.190175052808,"trial":4,"RT":911,"MT":840,"sideResp":1,"stimulus":[],"xmouse":[766,766,766,766,766,766,766,766,766,766,766,766,766,766,766,766,766,766,766,766,766,766,766,766,766,766,766,766,766,766,766,766,766,766,766,766,766,766,766,764,762,758,752,749,748,741,739,736,732,717,672,628,606,590,583,582,579,577,577,577,574,571,568,563,556,524,507,500,499,499,498,498,498,498,498,498,498,498,498,498,498,498,498,498,497,494,492,490],"ymouse":[563,563,563,563,563,563,563,563,563,563,563,563,563,563,563,563,563,563,563,563,563,563,563,563,563,563,563,563,563,563,563,563,563,563,563,563,563,563,563,563,565,566,569,574,585,610,619,624,628,634,628,610,600,591,586,585,579,573,564,552,515,476,441,400,356,267,235,222,219,219,218,218,218,218,218,218,218,218,218,217,217,181,168,149,132,110,105,98],"timestamp_mouse":[10,43,51,72,91,111,130,151,170,190,211,232,250,271,291,310,331,350,370,392,410,430,450,470,490,512,530,551,571,591,612,631,650,671,692,710,730,752,770,791,810,831,850,871,891,911,930,951,970,991,1012,1031,1051,1070,1091,1111,1132,1151,1171,1191,1210,1231,1250,1270,1290,1310,1330,1351,1371,1391,1411,1431,1451,1472,1492,1511,1530,1552,1571,1591,1610,1630,1651,1672,1691,1710,1730,1751],"xSR":741.5,"ySR":542.75,"xT1":424.9,"yT1":0,"xT2":1058.1,"yT2":0,"toosoon":0,"cond_shown":"Incongruent","ratio_trial":200,"L_num":4,"L_den":5,"R_num":6,"R_den":10,"correct_side":1,"subjID":"TomásDíazMntoya26","gender":"male","school":"6","age":"11"},{"start_time":1551886943795,"click_time":1551886945769,"finger_time":1551886945388,"fix_duration":1443.700603511881,"trial":5,"RT":1593,"MT":381,"sideResp":1,"stimulus":[],"xmouse":[790,790,790,790,790,790,790,790,790,790,790,790,790,790,790,790,790,790,790,790,790,790,790,790,790,790,790,790,790,790,790,790,790,790,790,790,790,790,790,790,790,790,790,790,790,790,790,790,790,790,790,790,790,790,790,790,790,790,790,790,790,790,790,790,790,790,790,790,790,790,790,790,790,790,789,786,783,777,763,752,737,705,661,615,606,594,577,564,546,537,532,526,522,517,517,517,517,517,517],"ymouse":[593,593,593,593,593,593,593,593,593,593,593,593,593,593,593,593,593,593,593,593,593,593,593,593,593,593,593,593,593,593,593,593,593,593,593,593,593,593,593,593,593,593,593,593,593,593,593,593,593,593,593,593,593,593,593,593,593,593,593,593,593,593,593,593,593,593,593,593,593,593,593,593,593,593,592,585,582,571,547,530,502,448,390,304,275,250,213,189,157,143,132,124,116,105,103,102,102,101,99],"timestamp_mouse":[14,35,53,74,94,114,135,153,173,194,213,234,254,274,294,315,335,353,374,394,413,433,455,473,494,514,534,553,575,594,613,634,653,674,693,714,733,753,775,794,814,835,853,874,893,913,935,953,973,994,1014,1033,1054,1075,1093,1113,1133,1154,1174,1194,1213,1235,1255,1273,1294,1314,1333,1353,1374,1394,1414,1435,1455,1473,1494,1513,1533,1554,1573,1593,1613,1633,1654,1673,1693,1713,1734,1754,1775,1793,1813,1833,1854,1873,1894,1913,1935,1953,1974],"xSR":741.5,"ySR":542.75,"xT1":424.9,"yT1":0,"xT2":1058.1,"yT2":0,"toosoon":0,"cond_shown":"Incongruent","ratio_trial":200,"L_num":1,"L_den":2,"R_num":3,"R_den":10,"correct_side":1,"subjID":"TomásDíazMntoya26","gender":"male","school":"6","age":"11"},{"start_time":1551886948184,"click_time":1551886950068,"finger_time":1551886949549,"fix_duration":1373.2390265313788,"trial":6,"RT":1365,"MT":519,"sideResp":2,"stimulus":[],"xmouse":[782,782,782,782,782,782,782,782,782,782,782,782,782,782,782,782,782,782,782,782,782,782,782,782,782,782,782,782,782,782,782,782,782,782,782,782,782,782,782,782,782,782,782,782,782,782,782,782,782,782,782,782,782,782,782,782,782,782,782,782,782,782,782,782,782,783,802,827,860,914,939,961,983,1006,1039,1058,1069,1083,1097,1117,1123,1129,1134,1136,1137,1137,1137,1137,1137,1137,1136,1133,1130,1127,1120],"ymouse":[571,571,571,571,571,571,571,571,571,571,571,571,571,571,571,571,571,571,571,571,571,571,571,571,571,571,571,571,571,571,571,571,571,571,571,571,571,571,571,571,571,571,571,571,571,571,571,571,571,571,571,571,571,571,571,571,571,571,571,571,571,571,571,571,571,572,560,544,519,471,441,417,392,370,325,292,267,243,222,187,173,159,146,137,131,131,131,131,131,129,124,119,112,103,84],"timestamp_mouse":[8,35,44,64,86,104,125,146,164,186,206,224,245,266,285,305,324,346,364,385,405,424,445,466,486,505,526,546,564,585,606,625,644,664,684,705,724,745,766,786,805,826,845,865,885,906,925,944,965,985,1005,1025,1045,1064,1086,1105,1125,1145,1164,1184,1205,1224,1244,1266,1285,1304,1324,1345,1365,1384,1404,1425,1445,1464,1484,1506,1524,1545,1565,1584,1604,1625,1646,1665,1684,1705,1725,1744,1765,1784,1804,1824,1845,1865,1884],"xSR":741.5,"ySR":542.75,"xT1":424.9,"yT1":0,"xT2":1058.1,"yT2":0,"toosoon":0,"cond_shown":"Congruent","ratio_trial":300,"L_num":1,"L_den":5,"R_num":3,"R_den":6,"correct_side":2,"subjID":"TomásDíazMntoya26","gender":"male","school":"6","age":"11"},{"start_time":1551886951792,"click_time":1551886953328,"finger_time":1551886953149,"fix_duration":902.6036603831598,"trial":7,"RT":1357,"MT":179,"sideResp":1,"stimulus":[],"xmouse":[809,809,809,809,809,809,809,809,809,809,809,809,809,809,809,809,809,809,809,809,809,809,809,809,809,809,809,809,809,809,809,809,809,809,809,809,809,809,809,809,809,809,809,809,809,809,809,809,809,809,809,809,809,809,809,809,809,809,809,809,809,809,809,809,809,805,781,745,707,621,572,526,490,447,440,437,434],"ymouse":[589,589,589,589,589,589,589,589,589,589,589,589,589,589,589,589,589,589,589,589,589,589,589,589,589,589,589,589,589,589,589,589,589,589,589,589,589,589,589,589,589,589,589,589,589,589,589,589,589,589,589,589,589,589,589,589,589,589,589,589,589,589,589,589,589,588,551,504,454,341,275,209,169,116,106,100,92],"timestamp_mouse":[16,40,56,77,96,116,137,156,177,198,216,237,256,277,297,318,338,358,377,396,417,436,456,476,498,516,537,556,576,596,618,637,656,676,697,716,738,756,778,797,816,837,857,876,897,917,937,957,977,998,1018,1036,1058,1076,1096,1116,1138,1157,1178,1197,1217,1236,1257,1278,1296,1316,1338,1357,1377,1396,1417,1437,1457,1477,1496,1516,1536],"xSR":741.5,"ySR":542.75,"xT1":424.9,"yT1":0,"xT2":1058.1,"yT2":0,"toosoon":0,"cond_shown":"Congruent","ratio_trial":200,"L_num":8,"L_den":15,"R_num":7,"R_den":21,"correct_side":1,"subjID":"TomásDíazMntoya26","gender":"male","school":"6","age":"11"},{"start_time":1551886954326,"click_time":1551886956188,"finger_time":1551886955608,"fix_duration":354.34185819680863,"trial":8,"RT":1282,"MT":580,"sideResp":2,"stimulus":[],"xmouse":[773,773,773,773,773,773,773,773,773,773,773,773,773,773,773,773,773,773,773,773,773,773,773,773,773,773,773,773,773,773,773,773,773,773,773,773,773,773,773,773,773,773,773,773,773,773,773,773,773,773,773,773,773,773,773,773,773,773,773,773,773,773,784,814,836,876,887,921,955,968,976,983,996,1003,1006,1008,1010,1012,1015,1017,1019,1022,1025,1033,1038,1042,1053,1059,1067,1068,1069,1071,1072,1077],"ymouse":[630,630,630,630,630,630,630,630,630,630,630,630,630,630,630,630,630,630,630,630,630,630,630,630,630,630,630,630,630,630,630,630,630,630,630,630,630,630,630,630,630,630,630,630,630,630,630,630,630,630,630,630,630,630,630,630,630,630,630,630,630,630,614,567,538,483,466,417,370,353,340,326,305,289,283,276,271,264,256,251,246,239,231,214,203,189,165,150,127,116,111,106,100,83],"timestamp_mouse":[6,28,44,62,82,103,122,143,162,184,204,223,242,262,284,304,323,343,364,382,403,422,444,462,483,503,522,542,562,583,604,623,642,663,683,702,723,743,762,783,802,823,842,862,883,904,924,943,964,984,1003,1022,1042,1063,1083,1103,1124,1142,1163,1182,1204,1222,1243,1262,1282,1302,1323,1343,1363,1382,1404,1423,1444,1463,1483,1502,1523,1543,1562,1582,1604,1623,1642,1662,1683,1702,1723,1742,1763,1783,1804,1823,1842,1862],"xSR":741.5,"ySR":542.75,"xT1":424.9,"yT1":0,"xT2":1058.1,"yT2":0,"toosoon":0,"cond_shown":"Congruent","ratio_trial":100,"L_num":2,"L_den":5,"R_num":11,"R_den":22,"correct_side":2,"subjID":"TomásDíazMntoya26","gender":"male","school":"6","age":"11"},{"start_time":1551886958446,"click_time":1551886960349,"finger_time":1551886959689,"fix_duration":1415.6748074427699,"trial":9,"RT":1243,"MT":660,"sideResp":1,"stimulus":[],"xmouse":[788,788,788,788,788,788,788,788,788,788,788,788,788,788,788,788,788,788,788,788,788,788,788,788,788,788,788,788,788,788,788,788,788,788,788,788,788,788,788,788,788,788,788,788,788,788,788,788,788,788,788,788,788,788,788,788,788,788,788,785,775,760,717,679,627,571,521,462,448,446,446,446,446,446,452,456,458,461,465,469,474,476,479,480,480,480,480,481,481,483,483,484,486,487,487,488],"ymouse":[602,602,602,602,602,602,602,602,602,602,602,602,602,602,602,602,602,602,602,602,602,602,602,602,602,602,602,602,602,602,602,602,602,602,602,602,602,602,602,602,602,602,602,602,602,602,602,602,602,602,602,602,602,602,602,602,602,602,603,605,606,606,589,566,529,484,434,353,320,305,291,281,259,249,229,213,203,183,168,159,149,143,132,128,125,124,123,121,118,115,111,110,105,103,101,99],"timestamp_mouse":[11,23,43,63,83,103,123,142,163,183,204,222,243,263,282,302,323,346,363,384,403,423,444,462,484,503,522,544,564,584,602,623,643,662,682,703,723,744,762,782,803,822,843,863,882,903,922,942,962,984,1002,1022,1044,1063,1083,1104,1124,1143,1163,1184,1202,1222,1242,1262,1282,1303,1324,1342,1362,1382,1403,1422,1442,1462,1482,1502,1522,1542,1563,1582,1603,1622,1643,1663,1682,1702,1723,1742,1762,1782,1802,1823,1842,1862,1882,1902],"xSR":741.5,"ySR":542.75,"xT1":424.9,"yT1":0,"xT2":1058.1,"yT2":0,"toosoon":0,"cond_shown":"Congruent","ratio_trial":200,"L_num":8,"L_den":15,"R_num":7,"R_den":21,"correct_side":1,"subjID":"TomásDíazMntoya26","gender":"male","school":"6","age":"11"},{"start_time":1551886963061,"click_time":1551886964890,"finger_time":1551886964389,"fix_duration":250,"trial":10,"RT":1328,"MT":501,"sideResp":1,"stimulus":[],"xmouse":[776,776,776,776,776,776,776,776,776,776,776,776,776,776,776,776,776,776,776,776,776,776,776,776,776,776,776,776,776,776,776,776,776,776,776,776,776,776,776,776,776,776,776,776,776,776,776,776,776,776,776,776,776,776,776,776,776,776,776,776,776,776,776,776,776,756,721,720,726,751,772,783,758,738,726,718,710,630,598,598,598,598,598,598,598,598,598,598,598,598,598,425],"ymouse":[603,603,603,603,603,603,603,603,603,603,603,603,603,603,603,603,603,603,603,603,603,603,603,603,603,603,603,603,603,603,603,603,603,603,603,603,603,603,603,603,603,603,603,603,603,603,603,603,603,603,603,603,603,603,603,603,603,603,603,603,603,603,603,603,603,602,570,550,522,466,392,308,163,131,115,103,91,22,4,4,4,4,4,4,4,4,4,4,4,4,4,2],"timestamp_mouse":[9,32,47,67,89,108,127,149,168,189,209,227,247,268,289,307,327,349,368,387,407,427,449,467,489,507,529,549,568,587,609,628,648,668,688,709,727,749,768,788,808,829,848,868,887,909,928,947,967,988,1008,1028,1048,1068,1088,1109,1128,1148,1169,1189,1207,1229,1247,1268,1287,1307,1328,1347,1368,1388,1408,1427,1447,1468,1488,1507,1528,1547,1568,1587,1608,1629,1648,1669,1687,1707,1727,1748,1767,1787,1808,1828],"xSR":741.5,"ySR":542.75,"xT1":424.9,"yT1":0,"xT2":1058.1,"yT2":0,"toosoon":0,"cond_shown":"Congruent","ratio_trial":100,"L_num":8,"L_den":16,"R_num":2,"R_den":5,"correct_side":1,"subjID":"TomásDíazMntoya26","gender":"male","school":"6","age":"11"},{"start_time":1551886967615,"click_time":1551886969929,"finger_time":1551886968669,"fix_duration":1444.3489713273418,"trial":11,"RT":1054,"MT":1260,"sideResp":1,"stimulus":[],"xmouse":[752,752,752,752,752,752,752,752,752,752,752,752,752,752,752,752,752,752,752,752,752,752,752,752,752,752,752,752,752,752,752,752,752,752,752,752,752,752,752,752,752,752,752,752,752,752,758,766,778,792,818,829,836,848,853,860,862,866,867,868,878,885,893,910,930,986,1015,1035,1050,1059,1059,1045,1032,1023,997,935,897,861,834,796,790,789,789,789,789,776,758,734,706,667,606,569,547,535,529,525,525,525,525,525,525,525,525,525,525,525,525,525,525,525,525,525,525,525,525,521],"ymouse":[618,618,618,618,618,618,618,618,618,618,618,618,618,618,618,618,618,618,618,618,618,618,618,618,618,618,618,618,618,618,618,618,618,618,618,618,618,618,618,618,618,618,618,618,618,618,615,603,590,579,556,546,538,527,523,515,512,509,507,506,494,485,471,448,424,349,301,257,222,199,177,165,160,157,150,135,131,126,123,122,122,122,122,122,122,122,122,122,122,122,113,103,98,94,91,89,89,89,89,89,89,89,89,89,89,89,89,89,89,89,89,89,89,87,85,81],"timestamp_mouse":[20,38,53,74,94,113,133,154,174,195,214,233,255,274,295,314,333,354,374,393,414,433,454,474,494,513,533,555,573,593,613,635,655,675,694,714,733,753,773,793,813,833,853,874,894,914,933,955,974,993,1014,1035,1054,1074,1094,1113,1133,1154,1175,1194,1213,1233,1253,1274,1294,1315,1333,1355,1373,1394,1414,1433,1453,1475,1494,1515,1533,1554,1574,1595,1613,1633,1654,1675,1693,1713,1733,1754,1774,1793,1813,1833,1853,1874,1894,1914,1933,1953,1973,1994,2014,2033,2053,2074,2094,2113,2133,2153,2174,2195,2213,2233,2254,2274,2294,2314],"xSR":741.5,"ySR":542.75,"xT1":424.9,"yT1":0,"xT2":1058.1,"yT2":0,"toosoon":0,"cond_shown":"Incongruent","ratio_trial":100,"L_num":9,"L_den":15,"R_num":14,"R_den":28,"correct_side":1,"subjID":"TomásDíazMntoya26","gender":"male","school":"6","age":"11"},{"start_time":1551886972212,"click_time":1551886973948,"finger_time":1551886973410,"fix_duration":1201.6139355304065,"trial":12,"RT":1198,"MT":538,"sideResp":1,"stimulus":[],"xmouse":[776,776,776,776,776,776,776,776,776,776,776,776,776,776,776,776,776,776,776,776,776,776,776,776,776,776,776,776,776,776,776,776,776,776,776,776,776,776,776,776,776,776,776,776,776,776,776,776,776,776,776,776,776,776,776,776,776,768,760,739,693,675,654,634,613,592,592,592,592,591,582,580,578,576,575,567,565,562,560,558,553,552,552,550,546,536,524],"ymouse":[573,573,573,573,573,573,573,573,573,573,573,573,573,573,573,573,573,573,573,573,573,573,573,573,573,573,573,573,573,573,573,573,573,573,573,573,573,573,573,573,573,573,573,573,573,573,573,573,573,573,573,573,573,573,573,573,573,560,550,526,476,451,409,349,275,158,128,105,82,64,33,27,24,22,20,16,16,16,16,17,21,21,22,25,32,49,62],"timestamp_mouse":[34,36,56,77,98,116,138,157,176,196,216,238,256,276,297,317,337,358,377,396,417,437,457,478,498,517,538,556,577,598,617,636,657,678,697,716,737,757,778,798,817,837,857,878,898,917,937,958,977,996,1016,1036,1057,1077,1096,1117,1136,1157,1177,1198,1217,1237,1257,1277,1297,1317,1336,1357,1377,1396,1417,1438,1457,1478,1497,1516,1536,1557,1576,1598,1617,1636,1656,1677,1697,1717,1736],"xSR":741.5,"ySR":542.75,"xT1":424.9,"yT1":0,"xT2":1058.1,"yT2":0,"toosoon":0,"cond_shown":"Congruent","ratio_trial":200,"L_num":12,"L_den":20,"R_num":6,"R_den":15,"correct_side":1,"subjID":"TomásDíazMntoya26","gender":"male","school":"6","age":"11"},{"start_time":1551886975310,"click_time":1551886977050,"finger_time":1551886976629,"fix_duration":379.21383639634485,"trial":13,"RT":1319,"MT":421,"sideResp":2,"stimulus":[],"xmouse":[784,784,784,784,784,784,784,784,784,784,784,784,784,784,784,784,784,784,784,784,784,784,784,784,784,784,784,784,784,784,784,784,784,784,784,784,784,784,784,784,784,784,784,784,784,784,784,784,784,784,784,784,784,784,784,784,784,784,784,784,784,784,784,794,803,830,861,954,987,1014,1038,1069,1078,1085,1088,1089,1092,1093,1094,1094,1094,1094,1094,1094,1094,1094,1094,1094],"ymouse":[555,555,555,555,555,555,555,555,555,555,555,555,555,555,555,555,555,555,555,555,555,555,555,555,555,555,555,555,555,555,555,555,555,555,555,555,555,555,555,555,555,555,555,555,555,555,555,555,555,555,555,555,555,555,555,555,555,555,555,555,555,555,555,553,551,543,526,452,410,364,322,264,246,227,206,185,154,148,143,140,136,132,125,122,119,113,102,95],"timestamp_mouse":[1,18,39,60,78,99,118,139,160,180,199,218,240,258,278,299,318,339,360,378,400,419,439,459,478,499,518,540,559,579,599,620,638,658,680,700,719,739,758,778,798,820,838,860,878,899,920,939,960,979,999,1019,1045,1058,1078,1098,1118,1139,1158,1179,1199,1218,1238,1259,1279,1299,1319,1339,1359,1379,1398,1420,1438,1459,1479,1500,1520,1538,1558,1580,1599,1620,1638,1658,1678,1699,1718,1740],"xSR":741.5,"ySR":542.75,"xT1":424.9,"yT1":0,"xT2":1058.1,"yT2":0,"toosoon":0,"cond_shown":"Incongruent","ratio_trial":200,"L_num":7,"L_den":10,"R_num":14,"R_den":28,"correct_side":1,"subjID":"TomásDíazMntoya26","gender":"male","school":"6","age":"11"},{"start_time":1551886978395,"click_time":1551886979708,"finger_time":1551886979248,"fix_duration":485.2834712765153,"trial":14,"RT":853,"MT":460,"sideResp":2,"stimulus":[],"xmouse":[770,770,770,770,770,770,770,770,770,770,770,770,770,770,770,770,770,770,770,770,770,770,770,770,770,770,770,770,770,770,770,772,775,777,781,784,786,787,789,798,811,824,846,860,876,897,917,946,956,963,975,983,1016,1043,1082,1113,1134,1168,1172,1172,1168,1166,1161,1160,1160,1157],"ymouse":[573,573,573,573,573,573,573,573,573,573,573,573,573,573,573,573,573,573,573,573,573,573,573,573,573,573,573,573,573,573,574,574,574,575,575,576,576,576,577,581,586,589,593,595,597,600,601,602,602,602,602,599,570,520,451,376,300,178,146,106,84,72,57,54,52,48],"timestamp_mouse":[14,34,53,74,95,114,134,155,175,193,213,235,253,275,293,313,334,354,375,395,413,435,453,474,494,513,534,554,575,593,614,634,654,673,693,715,735,753,774,793,813,834,853,873,893,913,935,953,973,994,1013,1034,1053,1073,1094,1114,1133,1154,1175,1195,1214,1234,1254,1274,1294,1313],"xSR":741.5,"ySR":542.75,"xT1":424.9,"yT1":0,"xT2":1058.1,"yT2":0,"toosoon":0,"cond_shown":"Incongruent","ratio_trial":300,"L_num":4,"L_den":20,"R_num":2,"R_den":4,"correct_side":2,"subjID":"TomásDíazMntoya26","gender":"male","school":"6","age":"11"},{"start_time":1551886980581,"click_time":1551886982248,"finger_time":1551886981788,"fix_duration":250,"trial":15,"RT":1207,"MT":460,"sideResp":2,"stimulus":[],"xmouse":[784,784,784,784,784,784,784,784,784,784,784,784,784,784,784,784,784,784,784,784,784,784,784,784,784,784,784,784,784,784,784,784,784,784,784,784,784,784,784,784,784,784,784,784,784,784,784,784,784,784,784,784,784,784,784,784,784,789,810,841,874,908,931,973,994,1009,1018,1026,1037,1043,1044,1044,1044,1044,1044,1045,1048,1050,1052,1052,1053,1054,1057,1060],"ymouse":[608,608,608,608,608,608,608,608,608,608,608,608,608,608,608,608,608,608,608,608,608,608,608,608,608,608,608,608,608,608,608,608,608,608,608,608,608,608,608,608,608,608,608,608,608,608,608,608,608,608,608,608,608,608,608,608,608,602,578,548,519,485,456,386,352,323,303,284,252,230,214,196,180,143,130,122,112,109,105,104,101,98,93,88],"timestamp_mouse":[8,33,49,67,87,108,129,147,168,187,207,229,249,267,288,309,328,348,369,389,408,427,447,469,489,509,527,548,568,588,607,628,647,667,688,708,729,748,768,788,807,829,849,867,887,908,928,949,968,987,1007,1029,1048,1067,1089,1109,1129,1148,1168,1189,1207,1228,1247,1267,1287,1307,1328,1347,1367,1387,1408,1427,1448,1468,1487,1507,1528,1548,1568,1588,1608,1628,1648,1667],"xSR":741.5,"ySR":542.75,"xT1":424.9,"yT1":0,"xT2":1058.1,"yT2":0,"toosoon":0,"cond_shown":"Incongruent","ratio_trial":100,"L_num":6,"L_den":10,"R_num":7,"R_den":14,"correct_side":1,"subjID":"TomásDíazMntoya26","gender":"male","school":"6","age":"11"},{"start_time":1551886984455,"click_time":1551886986371,"finger_time":1551886985730,"fix_duration":1323.9717489471277,"trial":16,"RT":1275,"MT":641,"sideResp":1,"stimulus":[],"xmouse":[759,759,759,759,759,759,759,759,759,759,759,759,759,759,759,759,759,759,759,759,759,759,759,759,759,759,759,759,759,759,759,759,759,759,759,761,761,763,764,765,766,766,766,766,766,766,766,766,766,767,767,772,779,786,795,804,807,808,809,811,819,827,837,847,857,874,876,879,880,880,878,874,866,827,757,554,448,356,283,249,231,231,231,233,235,240,243,251,265,281,327,354,383,422,438,444],"ymouse":[578,578,578,578,578,578,578,578,578,578,578,578,578,578,578,578,578,578,578,578,578,578,578,578,578,578,578,578,578,578,578,578,578,578,578,579,580,580,580,582,583,583,583,583,583,583,583,583,583,583,583,585,586,587,587,587,587,587,587,587,581,572,559,535,510,449,427,404,388,370,346,339,333,327,318,273,241,214,185,165,147,140,136,130,127,120,116,112,108,106,100,100,100,100,100,99],"timestamp_mouse":[16,35,56,77,95,115,135,155,175,195,215,236,255,276,295,316,336,355,375,397,415,435,455,475,495,515,536,555,576,597,615,637,656,675,697,715,735,756,776,796,815,837,856,875,895,915,936,955,976,995,1015,1035,1056,1075,1096,1115,1135,1155,1175,1196,1215,1236,1256,1275,1295,1316,1335,1356,1375,1396,1415,1435,1455,1475,1496,1516,1535,1555,1576,1595,1615,1636,1656,1675,1696,1715,1735,1756,1776,1796,1815,1835,1855,1875,1895,1915],"xSR":741.5,"ySR":542.75,"xT1":424.9,"yT1":0,"xT2":1058.1,"yT2":0,"toosoon":0,"cond_shown":"Incongruent","ratio_trial":200,"L_num":3,"L_den":4,"R_num":11,"R_den":20,"correct_side":1,"subjID":"TomásDíazMntoya26","gender":"male","school":"6","age":"11"},{"start_time":1551886988374,"click_time":1551886990091,"finger_time":1551886989410,"fix_duration":1002.6698687258471,"trial":17,"RT":1036,"MT":681,"sideResp":2,"stimulus":[],"xmouse":[818,816,816,813,813,813,812,812,812,812,812,812,812,812,812,812,812,812,812,812,812,812,812,812,812,812,812,812,812,812,812,812,812,812,812,812,812,812,812,812,812,812,812,812,812,812,812,812,813,828,840,853,864,872,877,879,880,880,883,899,914,932,950,966,1005,1020,1027,1030,1032,1035,1035,1035,1035,1035,1035,1035,1036,1038,1039,1042,1044,1046,1050,1054,1063,1067],"ymouse":[597,598,598,599,599,599,600,600,600,600,600,600,600,600,600,600,600,600,600,600,600,600,600,600,600,600,600,600,600,600,600,600,600,600,600,600,600,600,600,600,600,600,600,600,600,600,600,600,596,569,550,531,519,510,503,500,499,499,495,478,459,439,419,395,329,292,273,254,239,220,215,209,203,196,182,171,163,156,150,139,132,128,121,115,104,97],"timestamp_mouse":[21,44,56,77,97,116,137,156,176,197,217,236,256,277,296,316,336,357,376,398,416,437,457,476,497,516,536,556,577,598,616,637,658,676,696,716,736,757,777,798,817,837,857,878,896,916,937,957,976,996,1016,1036,1056,1077,1096,1117,1136,1156,1176,1196,1216,1237,1257,1276,1296,1316,1336,1356,1377,1397,1416,1436,1456,1476,1496,1516,1536,1557,1576,1596,1616,1637,1657,1676,1696,1717],"xSR":741.5,"ySR":542.75,"xT1":424.9,"yT1":0,"xT2":1058.1,"yT2":0,"toosoon":0,"cond_shown":"Incongruent","ratio_trial":200,"L_num":1,"L_den":3,"R_num":2,"R_den":15,"correct_side":1,"subjID":"TomásDíazMntoya26","gender":"male","school":"6","age":"11"},{"start_time":1551886992114,"click_time":1551886993770,"finger_time":1551886993371,"fix_duration":1142.1850081658076,"trial":18,"RT":1257,"MT":399,"sideResp":1,"stimulus":[],"xmouse":[766,766,766,766,766,766,766,766,766,766,766,766,766,766,766,766,766,766,766,766,766,766,766,766,766,766,766,766,766,766,766,766,766,766,766,766,766,766,766,766,766,766,766,766,766,766,766,766,766,766,766,766,766,766,766,766,766,766,766,766,766,762,722,686,634,572,509,391,391,391,391,391,391,391,391,391,391,391,391,391,398,419,448],"ymouse":[579,579,579,579,579,579,579,579,579,579,579,579,579,579,579,579,579,579,579,579,579,579,579,579,579,579,579,579,579,579,579,579,579,579,579,579,579,579,579,579,579,579,579,579,579,579,579,579,579,579,579,579,579,579,579,579,579,579,579,579,579,577,512,455,359,247,147,4,4,4,4,4,4,4,4,4,4,4,4,4,0,10,17],"timestamp_mouse":[17,38,57,76,97,118,138,157,177,196,216,237,256,276,297,317,337,356,376,396,416,437,457,476,496,517,537,556,576,597,616,637,656,677,697,717,736,756,776,796,817,836,856,876,897,918,936,957,976,996,1016,1037,1057,1077,1098,1116,1136,1157,1176,1196,1217,1236,1257,1276,1297,1317,1336,1356,1376,1396,1417,1437,1457,1476,1496,1517,1536,1556,1577,1597,1617,1637,1656],"xSR":741.5,"ySR":542.75,"xT1":424.9,"yT1":0,"xT2":1058.1,"yT2":0,"toosoon":0,"cond_shown":"Incongruent","ratio_trial":300,"L_num":1,"L_den":2,"R_num":2,"R_den":10,"correct_side":1,"subjID":"TomásDíazMntoya26","gender":"male","school":"6","age":"11"},{"start_time":1551886996023,"click_time":1551886998051,"finger_time":1551886996890,"fix_duration":250,"trial":19,"RT":867,"MT":1161,"sideResp":1,"stimulus":[],"xmouse":[771,771,771,771,771,771,771,771,771,771,771,771,771,771,771,771,771,771,771,771,771,771,771,771,771,771,771,771,771,771,771,771,771,771,771,771,771,771,771,771,771,771,769,767,767,772,776,783,800,810,823,827,830,839,844,849,857,868,907,935,971,987,999,1018,1021,1022,1022,1022,1022,1022,1022,1022,1022,1022,1022,1022,1010,989,898,773,675,590,516,377,345,335,333,333,333,333,333,333,333,333,333,333,333,334,358,388,411,426],"ymouse":[551,551,551,551,551,551,551,551,551,551,551,551,551,551,551,551,551,551,551,551,551,551,551,551,551,551,551,551,551,551,551,551,551,551,551,551,551,551,551,551,551,551,552,540,534,529,522,513,488,475,457,451,447,435,428,422,412,401,367,347,323,311,302,288,285,283,283,283,283,283,283,283,283,283,283,282,283,286,288,288,272,242,201,107,86,78,77,76,76,76,76,76,76,76,76,76,76,75,70,64,62,62],"timestamp_mouse":[10,31,48,67,87,109,127,148,169,187,207,227,249,268,288,307,327,347,367,388,408,427,447,468,487,509,529,548,568,588,608,627,647,691,692,708,727,748,767,789,807,828,847,867,887,908,928,947,967,988,1007,1027,1047,1068,1087,1107,1127,1148,1168,1187,1208,1227,1248,1268,1287,1308,1327,1348,1368,1387,1407,1428,1447,1468,1487,1508,1528,1547,1567,1588,1608,1627,1648,1667,1687,1708,1727,1748,1769,1787,1807,1827,1847,1868,1887,1907,1927,1948,1968,1987,2007,2028],"xSR":741.5,"ySR":542.75,"xT1":424.9,"yT1":0,"xT2":1058.1,"yT2":0,"toosoon":0,"cond_shown":"Congruent","ratio_trial":100,"L_num":1,"L_den":2,"R_num":18,"R_den":30,"correct_side":2,"subjID":"TomásDíazMntoya26","gender":"male","school":"6","age":"11"},{"start_time":1551887000008,"click_time":1551887001611,"finger_time":1551887001030,"fix_duration":756.6657466136317,"trial":20,"RT":1022,"MT":581,"sideResp":1,"stimulus":[],"xmouse":[772,772,772,772,772,772,772,772,772,772,772,772,772,772,772,772,772,772,772,772,772,772,772,772,772,772,772,772,772,772,772,772,772,772,772,772,772,772,772,772,772,772,772,772,772,772,772,772,772,772,766,761,757,749,736,730,722,711,697,683,654,638,621,605,592,576,568,558,550,542,542,542,542,540,538,535,533,531,530,528,522],"ymouse":[593,593,593,593,593,593,593,593,593,593,593,593,593,593,593,593,593,593,593,593,593,593,593,593,593,593,593,593,593,593,593,593,593,593,593,593,593,593,593,593,593,593,593,593,593,593,593,593,593,590,558,542,527,511,482,467,450,431,409,390,353,331,307,284,266,238,228,214,199,165,155,148,140,132,118,112,109,106,104,99,92],"timestamp_mouse":[10,33,42,64,83,102,123,142,162,182,202,222,242,262,282,303,323,343,362,384,402,423,444,462,483,504,523,543,563,583,603,623,643,663,682,703,723,742,763,782,803,822,842,862,884,902,922,943,963,983,1003,1022,1043,1063,1083,1102,1124,1143,1162,1182,1204,1222,1242,1262,1282,1302,1322,1343,1362,1383,1402,1422,1443,1463,1483,1502,1522,1542,1562,1583,1603],"xSR":741.5,"ySR":542.75,"xT1":424.9,"yT1":0,"xT2":1058.1,"yT2":0,"toosoon":0,"cond_shown":"Incongruent","ratio_trial":300,"L_num":8,"L_den":10,"R_num":9,"R_den":18,"correct_side":1,"subjID":"TomásDíazMntoya26","gender":"male","school":"6","age":"11"},{"start_time":1551887002882,"click_time":1551887004510,"finger_time":1551887004030,"fix_duration":250,"trial":21,"RT":1148,"MT":480,"sideResp":1,"stimulus":[],"xmouse":[774,774,774,774,774,774,774,774,774,774,774,774,774,774,774,774,774,774,774,774,774,774,774,774,774,774,774,774,774,774,774,774,774,774,774,774,774,774,774,774,774,774,774,774,774,774,775,775,775,775,775,775,775,775,775,774,747,728,707,686,663,621,609,607,603,601,601,601,601,596,588,581,577,574,566,558,538,527,519,508,499,480],"ymouse":[624,624,624,624,624,624,624,624,624,624,624,624,624,624,624,624,624,624,624,624,624,624,624,624,624,624,624,624,624,624,624,624,624,624,624,624,624,624,624,624,624,624,624,624,624,624,624,624,624,624,624,624,624,624,624,620,588,563,542,520,491,419,391,384,362,347,310,292,272,251,230,204,193,184,169,158,137,127,121,113,106,93],"timestamp_mouse":[10,40,48,69,89,108,128,148,169,188,209,228,249,268,289,308,328,349,368,389,409,429,448,469,488,509,529,548,568,589,609,628,650,669,688,709,728,748,768,788,809,828,849,869,888,908,928,949,969,989,1009,1029,1048,1069,1088,1108,1129,1148,1169,1188,1208,1228,1248,1268,1290,1309,1328,1349,1370,1389,1409,1428,1448,1468,1489,1509,1528,1548,1568,1589,1608,1628],"xSR":741.5,"ySR":542.75,"xT1":424.9,"yT1":0,"xT2":1058.1,"yT2":0,"toosoon":0,"cond_shown":"Congruent","ratio_trial":100,"L_num":11,"L_den":22,"R_num":6,"R_den":15,"correct_side":1,"subjID":"TomásDíazMntoya26","gender":"male","school":"6","age":"11"},{"start_time":1551887006000,"click_time":1551887007810,"finger_time":1551887007211,"fix_duration":549.8492634246234,"trial":22,"RT":1211,"MT":599,"sideResp":1,"stimulus":[],"xmouse":[770,770,770,770,770,770,770,770,770,770,770,770,770,770,770,770,770,770,770,770,770,770,770,770,770,770,770,770,770,770,770,770,770,770,770,770,770,770,770,770,770,770,770,770,770,770,770,770,770,770,767,764,762,761,760,758,756,752,751,748,739,732,722,711,697,666,641,629,619,612,602,595,588,582,576,565,552,549,547,546,544,541,540,537,533,520,508,504,495,481,472],"ymouse":[583,583,583,583,583,583,583,583,583,583,583,583,583,583,583,583,583,583,583,583,583,583,583,583,583,583,583,583,583,583,583,583,583,583,583,583,583,583,583,583,583,583,583,583,583,583,583,583,583,583,582,581,580,579,579,577,576,573,571,565,544,527,507,487,463,414,379,361,347,332,309,296,281,270,254,229,200,191,187,183,177,173,170,164,157,142,130,124,113,100,86],"timestamp_mouse":[11,42,50,70,90,110,131,151,171,190,210,230,251,270,291,310,330,351,370,390,412,430,450,471,490,512,530,551,570,590,610,630,651,670,690,710,732,750,771,791,810,830,851,871,890,910,930,951,972,990,1011,1030,1050,1070,1090,1110,1131,1150,1170,1191,1211,1230,1250,1270,1290,1310,1331,1350,1371,1390,1410,1430,1451,1471,1490,1510,1531,1550,1572,1591,1610,1630,1650,1671,1690,1710,1731,1750,1772,1791,1810],"xSR":741.5,"ySR":542.75,"xT1":424.9,"yT1":0,"xT2":1058.1,"yT2":0,"toosoon":0,"cond_shown":"Congruent","ratio_trial":300,"L_num":24,"L_den":30,"R_num":8,"R_den":16,"correct_side":1,"subjID":"TomásDíazMntoya26","gender":"male","school":"6","age":"11"},{"start_time":1551887009808,"click_time":1551887011510,"finger_time":1551887011010,"fix_duration":1196.4658003568727,"trial":23,"RT":1202,"MT":500,"sideResp":2,"stimulus":[],"xmouse":[790,790,790,790,790,790,790,790,790,790,790,790,790,790,790,790,790,790,790,790,790,790,790,790,790,790,790,790,790,790,790,790,790,790,790,790,790,790,790,790,790,790,790,790,790,790,790,792,795,798,801,803,804,805,806,809,812,814,816,818,826,835,845,856,870,948,980,999,1009,1016,1017,1011,1010,1010,1010,1010,1011,1014,1017,1022,1030,1046,1049,1053,1053,1063],"ymouse":[596,596,596,596,596,596,596,596,596,596,596,596,596,596,596,596,596,596,596,596,596,596,596,596,596,596,596,596,596,596,596,596,596,596,596,596,596,596,596,596,596,596,596,596,596,596,596,591,587,581,574,572,570,569,567,563,559,557,553,548,530,517,502,485,465,358,302,258,227,202,162,140,126,120,115,109,93,87,82,76,74,70,69,68,68,62],"timestamp_mouse":[8,34,43,63,83,102,122,143,162,182,204,222,242,262,282,302,322,342,363,383,402,423,442,462,482,502,522,543,562,582,602,622,642,662,682,702,722,744,762,782,802,822,842,862,882,903,922,942,963,983,1004,1023,1042,1062,1082,1102,1124,1142,1162,1183,1202,1222,1242,1262,1283,1302,1322,1342,1362,1382,1403,1422,1442,1463,1483,1503,1522,1542,1562,1582,1602,1622,1642,1663,1683,1702],"xSR":741.5,"ySR":542.75,"xT1":424.9,"yT1":0,"xT2":1058.1,"yT2":0,"toosoon":0,"cond_shown":"Congruent","ratio_trial":300,"L_num":1,"L_den":5,"R_num":11,"R_den":22,"correct_side":2,"subjID":"TomásDíazMntoya26","gender":"male","school":"6","age":"11"},{"start_time":1551887013850,"click_time":1551887016670,"finger_time":1551887016331,"fix_duration":1477.930145712909,"trial":24,"RT":2481,"MT":339,"sideResp":2,"stimulus":[],"xmouse":[772,772,772,772,772,772,772,772,772,772,772,772,772,772,772,772,772,772,772,772,772,772,772,772,772,772,772,772,772,772,772,772,772,772,772,772,772,772,772,772,772,772,772,772,772,772,772,772,772,772,772,772,772,772,772,772,772,772,772,772,772,772,772,772,772,772,772,772,772,772,772,772,772,772,772,772,772,772,772,772,772,772,772,772,772,772,772,772,772,772,772,772,772,772,772,772,772,772,772,772,761,761,761,761,761,761,761,761,761,761,761,761,761,761,761,761,761,761,763,765,770,774,784,803,884,948,1027,1099,1159,1218,1219,1219,1219,1219,1219,1219,1219,1219,1208,1168,1151,1138],"ymouse":[597,597,597,597,597,597,597,597,597,597,597,597,597,597,597,597,597,597,597,597,597,597,597,597,597,597,597,597,597,597,597,597,597,597,597,597,597,597,597,597,597,597,597,597,597,597,597,597,597,597,597,597,597,597,597,597,597,597,597,597,597,597,597,597,597,597,597,597,597,597,597,597,597,597,597,597,597,597,597,597,597,597,597,597,597,597,597,597,597,597,597,597,597,597,597,597,597,597,597,597,615,615,615,615,615,615,615,615,615,615,615,615,615,615,615,615,615,615,615,614,611,609,600,584,500,429,356,285,229,162,157,157,157,157,157,157,157,157,149,119,102,83],"timestamp_mouse":[9,31,40,61,82,100,120,141,161,181,200,220,241,260,281,300,321,340,361,380,400,421,441,461,481,500,521,540,561,581,600,620,642,660,680,701,720,741,761,780,800,821,840,862,880,901,920,940,960,980,1000,1020,1041,1060,1080,1101,1120,1141,1161,1180,1200,1220,1240,1260,1280,1300,1320,1340,1362,1380,1401,1420,1440,1461,1480,1502,1522,1540,1560,1580,1600,1621,1640,1660,1680,1700,1720,1740,1761,1780,1800,1820,1840,1860,1880,1900,1922,1940,1961,1981,2000,2020,2041,2062,2080,2100,2121,2140,2161,2180,2200,2220,2242,2260,2280,2300,2320,2341,2361,2380,2401,2420,2440,2461,2481,2501,2521,2541,2560,2581,2600,2621,2641,2660,2681,2700,2721,2740,2760,2781,2800,2820],"xSR":741.5,"ySR":542.75,"xT1":424.9,"yT1":0,"xT2":1058.1,"yT2":0,"toosoon":0,"cond_shown":"Incongruent","ratio_trial":200,"L_num":3,"L_den":4,"R_num":11,"R_den":20,"correct_side":1,"subjID":"TomásDíazMntoya26","gender":"male","school":"6","age":"11"},{"start_time":1551887018653,"click_time":1551887019991,"finger_time":1551887019450,"fix_duration":1200.5694487054484,"trial":25,"RT":797,"MT":541,"sideResp":2,"stimulus":[],"xmouse":[775,775,775,775,775,775,775,775,775,775,775,775,775,775,775,775,775,775,775,775,775,775,774,773,772,770,770,770,770,770,770,770,770,770,770,770,768,762,749,712,695,687,684,683,683,683,683,690,713,827,917,998,1060,1113,1125,1133,1141,1143,1148,1157,1159,1161,1161,1160,1140,1130,1123],"ymouse":[590,590,590,590,590,590,590,590,590,590,590,590,590,590,590,590,590,590,590,590,590,590,590,589,588,587,586,586,586,586,586,586,586,586,586,586,583,575,551,488,462,451,446,446,446,446,446,443,437,404,379,355,338,310,297,285,270,265,252,225,214,201,184,162,119,102,90],"timestamp_mouse":[31,38,59,78,98,117,137,157,178,198,217,239,258,277,298,317,337,358,378,399,418,438,457,478,497,517,539,558,577,599,617,638,657,677,697,718,737,758,777,797,817,837,857,879,897,917,937,958,978,998,1017,1038,1057,1078,1097,1118,1138,1157,1177,1197,1217,1239,1259,1278,1298,1318,1338],"xSR":741.5,"ySR":542.75,"xT1":424.9,"yT1":0,"xT2":1058.1,"yT2":0,"toosoon":0,"cond_shown":"Incongruent","ratio_trial":200,"L_num":4,"L_den":6,"R_num":14,"R_den":30,"correct_side":1,"subjID":"TomásDíazMntoya26","gender":"male","school":"6","age":"11"},{"start_time":1551887022099,"click_time":1551887023590,"finger_time":1551887022950,"fix_duration":1367.9728836263591,"trial":26,"RT":851,"MT":640,"sideResp":1,"stimulus":[],"xmouse":[780,780,780,780,780,780,780,780,780,780,780,780,780,780,780,780,780,780,780,780,780,780,780,780,780,780,780,780,780,780,780,780,780,780,780,780,780,780,776,767,759,751,718,696,685,680,677,670,664,655,641,621,582,566,549,542,533,520,514,507,502,497,493,492,492,492,492,492,492,492,493,495,499,500,500],"ymouse":[591,591,591,591,591,591,591,591,591,591,591,591,591,591,591,591,591,591,591,591,591,591,591,591,591,591,591,591,591,591,591,591,591,591,591,591,591,591,591,575,565,556,521,484,455,432,414,379,357,334,302,273,231,217,202,196,185,171,164,157,153,149,145,144,144,144,144,144,142,136,130,121,104,100,97],"timestamp_mouse":[11,44,52,72,92,111,131,152,171,192,211,231,251,271,291,312,331,352,373,392,411,431,451,472,493,512,531,551,571,591,612,631,651,671,691,711,731,752,771,792,811,832,851,872,891,911,932,951,971,991,1011,1031,1051,1072,1091,1112,1131,1152,1171,1192,1213,1232,1251,1271,1291,1312,1332,1351,1371,1392,1412,1432,1452,1472,1491],"xSR":741.5,"ySR":542.75,"xT1":424.9,"yT1":0,"xT2":1058.1,"yT2":0,"toosoon":0,"cond_shown":"Congruent","ratio_trial":300,"L_num":20,"L_den":25,"R_num":5,"R_den":10,"correct_side":1,"subjID":"TomásDíazMntoya26","gender":"male","school":"6","age":"11"},{"start_time":1551887025168,"click_time":1551887028411,"finger_time":1551887026550,"fix_duration":436.3123364006083,"trial":27,"RT":1382,"MT":1861,"sideResp":2,"stimulus":[],"xmouse":[798,798,798,798,798,798,798,798,798,798,798,798,798,798,798,798,798,798,798,798,798,798,798,798,798,798,798,798,798,798,798,798,798,798,798,798,798,798,798,798,798,798,798,798,798,798,798,798,798,798,798,798,798,798,798,798,798,798,798,798,798,798,798,798,798,798,798,798,794,735,713,708,707,707,719,724,726,726,727,727,727,729,733,739,742,743,744,749,755,804,822,834,837,837,838,844,852,862,873,907,932,946,962,976,990,994,996,996,997,1014,1020,1025,1027,1028,1029,1032,1065,1129,1172,1187,1187,1187,1187,1187,1187,1187,1187,1187,1187,1187,1187,1187,1187,1187,1186,1186,1186,1184,1183,1179,1178,1178,1177,1174,1170,1169,1168,1168,1167,1167,1167,1167,1166,1165,1165,1165,1165,1165,1165,1165,1165,1165,1143],"ymouse":[642,642,642,642,642,642,642,642,642,642,642,642,642,642,642,642,642,642,642,642,642,642,642,642,642,642,642,642,642,642,642,642,642,642,642,642,642,642,642,642,642,642,642,642,642,642,642,642,642,642,642,642,642,642,642,642,642,642,642,642,642,642,642,642,642,642,642,642,642,641,634,633,633,631,615,611,610,610,610,609,609,609,604,591,584,584,576,549,498,380,359,346,343,343,341,335,326,318,311,294,284,274,257,242,231,227,222,221,219,174,156,146,139,136,132,130,121,108,102,99,99,99,99,99,99,99,99,99,99,99,99,99,99,99,97,97,96,93,89,80,77,76,74,73,71,70,68,68,67,67,67,66,65,64,64,64,64,64,64,64,64,64,66],"timestamp_mouse":[10,32,42,63,82,103,122,142,163,182,202,222,243,263,283,303,323,344,363,383,403,423,443,463,482,503,522,543,562,583,602,624,643,662,682,702,723,743,762,782,803,823,843,863,882,903,923,942,962,982,1002,1022,1043,1063,1082,1102,1124,1142,1162,1182,1202,1223,1242,1263,1283,1302,1322,1342,1363,1382,1404,1423,1443,1463,1482,1502,1522,1542,1563,1583,1602,1622,1642,1662,1683,1702,1722,1742,1763,1782,1802,1822,1842,1862,1882,1902,1923,1943,1962,1982,2002,2022,2043,2062,2083,2102,2123,2143,2163,2182,2202,2222,2242,2262,2283,2302,2323,2342,2362,2382,2402,2422,2442,2462,2482,2502,2522,2542,2562,2583,2602,2622,2643,2662,2683,2702,2722,2742,2763,2782,2802,2822,2843,2863,2883,2902,2923,2942,2963,2982,3003,3024,3043,3062,3083,3103,3124,3143,3162,3183,3203,3222,3243],"xSR":741.5,"ySR":542.75,"xT1":424.9,"yT1":0,"xT2":1058.1,"yT2":0,"toosoon":0,"cond_shown":"Incongruent","ratio_trial":200,"L_num":7,"L_den":15,"R_num":4,"R_den":6,"correct_side":2,"subjID":"TomásDíazMntoya26","gender":"male","school":"6","age":"11"},{"start_time":1551887030844,"click_time":1551887032470,"finger_time":1551887031970,"fix_duration":250,"trial":28,"RT":1126,"MT":500,"sideResp":1,"stimulus":[],"xmouse":[770,770,770,770,770,770,770,770,770,770,770,770,770,770,770,770,770,770,770,770,770,770,770,770,770,770,770,770,770,770,770,770,770,770,770,770,770,770,770,770,770,770,770,770,770,770,770,770,770,770,770,770,770,770,770,769,744,723,707,696,686,673,665,662,653,646,634,628,620,612,604,588,577,565,559,553,536,524,510,495,480,472],"ymouse":[587,587,587,587,587,587,587,587,587,587,587,587,587,587,587,587,587,587,587,587,587,587,587,587,587,587,587,587,587,587,587,587,587,587,587,587,587,587,587,587,587,587,587,587,587,587,587,587,587,587,587,587,587,587,583,575,518,481,452,428,405,369,346,337,316,299,268,250,230,211,194,154,134,122,118,115,111,108,105,103,101,99],"timestamp_mouse":[11,39,46,67,86,106,127,146,166,186,207,227,246,266,287,307,326,346,367,388,406,427,447,467,487,506,526,546,568,587,606,627,646,667,687,706,726,746,766,787,806,827,846,866,886,906,926,946,967,986,1006,1027,1046,1067,1086,1107,1126,1146,1166,1186,1207,1226,1246,1266,1286,1307,1327,1346,1367,1387,1406,1426,1447,1466,1487,1506,1526,1546,1566,1587,1606,1626],"xSR":741.5,"ySR":542.75,"xT1":424.9,"yT1":0,"xT2":1058.1,"yT2":0,"toosoon":0,"cond_shown":"Incongruent","ratio_trial":200,"L_num":1,"L_den":2,"R_num":3,"R_den":10,"correct_side":1,"subjID":"TomásDíazMntoya26","gender":"male","school":"6","age":"11"},{"start_time":1551887034259,"click_time":1551887035710,"finger_time":1551887035170,"fix_duration":807.3699009568884,"trial":29,"RT":911,"MT":540,"sideResp":2,"stimulus":[],"xmouse":[776,776,776,776,776,776,776,776,776,776,776,776,776,776,776,776,776,776,776,776,776,776,776,776,776,776,776,776,776,776,776,789,801,805,805,805,805,805,805,805,805,805,805,806,812,819,822,825,830,834,845,860,870,878,884,893,896,899,902,914,950,983,1001,1012,1015,1015,1016,1017,1031,1051,1076,1088,1097],"ymouse":[559,559,559,559,559,559,559,559,559,559,559,559,559,559,559,559,559,559,559,559,559,559,559,559,559,559,559,559,559,559,559,559,560,560,560,560,560,560,560,560,560,560,560,560,550,527,518,505,490,476,438,401,381,361,342,307,292,277,262,245,202,179,168,162,161,161,161,159,146,134,115,102,92],"timestamp_mouse":[12,42,51,72,91,111,131,151,172,192,212,231,251,271,291,311,331,351,371,392,411,431,451,471,492,511,532,551,572,591,611,632,651,671,691,712,731,751,772,791,811,831,852,871,892,911,931,951,971,992,1012,1031,1051,1071,1092,1111,1131,1152,1171,1191,1211,1231,1251,1271,1291,1312,1332,1352,1372,1392,1411,1431,1451],"xSR":741.5,"ySR":542.75,"xT1":424.9,"yT1":0,"xT2":1058.1,"yT2":0,"toosoon":0,"cond_shown":"Congruent","ratio_trial":300,"L_num":2,"L_den":10,"R_num":12,"R_den":24,"correct_side":2,"subjID":"TomásDíazMntoya26","gender":"male","school":"6","age":"11"},{"start_time":1551887037627,"click_time":1551887039070,"finger_time":1551887038371,"fix_duration":655.7104997786192,"trial":30,"RT":744,"MT":699,"sideResp":1,"stimulus":[],"xmouse":[773,773,773,773,773,773,773,773,773,773,773,773,773,773,773,773,773,773,773,773,773,773,773,773,773,773,773,773,773,773,773,773,773,773,773,767,763,734,717,705,696,691,675,672,666,659,651,634,623,612,602,592,583,583,583,583,583,583,582,579,577,572,571,566,563,561,558,547,538,525,511,496,470],"ymouse":[623,623,623,623,623,623,623,623,623,623,623,623,623,623,623,623,623,623,623,623,623,623,623,623,623,623,623,623,623,623,623,623,623,623,623,624,624,624,623,621,619,618,613,612,610,605,601,590,581,570,553,530,422,373,327,288,259,233,191,176,162,147,145,137,134,133,132,127,124,119,111,105,91],"timestamp_mouse":[11,23,43,63,84,104,124,144,163,183,204,224,243,263,284,304,323,345,363,385,403,424,444,464,485,503,523,544,564,583,603,623,644,663,683,704,723,744,763,784,803,824,843,863,883,905,923,944,963,985,1003,1024,1044,1063,1083,1103,1123,1143,1164,1184,1203,1223,1243,1264,1284,1304,1324,1344,1363,1384,1404,1425,1443],"xSR":741.5,"ySR":542.75,"xT1":424.9,"yT1":0,"xT2":1058.1,"yT2":0,"toosoon":0,"cond_shown":"Congruent","ratio_trial":200,"L_num":4,"L_den":8,"R_num":3,"R_den":10,"correct_side":1,"subjID":"TomásDíazMntoya26","gender":"male","school":"6","age":"11"},{"start_time":1551887040495,"click_time":1551887042271,"finger_time":1551887041510,"fix_duration":523.9178086288598,"trial":31,"RT":1015,"MT":761,"sideResp":1,"stimulus":[],"xmouse":[782,782,782,782,782,782,782,782,782,782,782,782,782,782,782,782,782,782,782,782,782,782,782,782,782,782,782,782,782,782,782,782,782,782,782,782,782,782,782,782,782,782,782,782,782,772,767,762,758,754,744,734,725,709,673,644,622,603,589,564,556,547,540,533,520,512,508,503,502,498,497,496,495,494,494,494,493,493,493,493,493,493,493,493,493,493,493,493,493],"ymouse":[559,559,559,559,559,559,559,559,559,559,559,559,559,559,559,559,559,559,559,559,559,559,559,559,559,559,559,559,559,559,559,559,559,559,559,559,559,559,559,559,559,559,559,559,559,556,555,553,551,550,542,532,518,497,442,396,367,345,329,301,290,275,262,246,219,199,190,180,173,159,152,146,139,134,129,125,123,122,120,117,114,112,110,107,101,100,100,100,99],"timestamp_mouse":[16,35,55,76,95,115,136,157,176,196,216,236,256,277,295,315,335,355,375,395,416,437,456,476,496,517,536,555,576,595,616,636,656,676,696,716,736,755,776,796,816,835,855,875,895,915,935,955,975,995,1015,1035,1055,1076,1095,1115,1135,1156,1176,1195,1215,1236,1255,1277,1295,1315,1335,1355,1376,1395,1415,1435,1455,1476,1495,1515,1535,1556,1575,1595,1615,1635,1655,1676,1696,1717,1735,1755,1775],"xSR":741.5,"ySR":542.75,"xT1":424.9,"yT1":0,"xT2":1058.1,"yT2":0,"toosoon":0,"cond_shown":"Incongruent","ratio_trial":100,"L_num":3,"L_den":6,"R_num":4,"R_den":10,"correct_side":1,"subjID":"TomásDíazMntoya26","gender":"male","school":"6","age":"11"},{"start_time":1551887044451,"click_time":1551887045612,"finger_time":1551887045151,"fix_duration":398.6163939279272,"trial":32,"RT":700,"MT":461,"sideResp":1,"stimulus":[],"xmouse":[769,769,769,769,769,769,769,769,769,769,769,769,769,769,769,769,769,769,769,769,769,769,769,769,769,769,769,769,761,758,755,753,748,746,744,741,725,718,680,670,660,651,636,612,584,567,565,564,552,545,540,537,535,532,531,531,531,527,521],"ymouse":[604,604,604,604,604,604,604,604,604,604,604,604,604,604,604,604,604,604,604,604,604,604,604,604,604,604,604,602,587,582,578,574,560,551,543,524,469,447,356,332,310,291,251,192,127,94,86,81,63,55,49,45,42,41,40,40,40,41,49],"timestamp_mouse":[1,19,40,60,80,99,119,140,160,180,199,220,239,260,281,301,321,340,361,380,401,420,440,460,481,501,520,540,561,579,600,620,641,660,680,700,720,740,761,780,800,820,840,859,881,900,921,940,960,980,999,1019,1040,1059,1080,1099,1119,1140,1161],"xSR":741.5,"ySR":542.75,"xT1":424.9,"yT1":0,"xT2":1058.1,"yT2":0,"toosoon":0,"cond_shown":"Incongruent","ratio_trial":200,"L_num":1,"L_den":2,"R_num":3,"R_den":10,"correct_side":1,"subjID":"TomásDíazMntoya26","gender":"male","school":"6","age":"11"},{"start_time":1551887047909,"click_time":1551887049131,"finger_time":1551887048710,"fix_duration":1357.121046821818,"trial":33,"RT":801,"MT":421,"sideResp":2,"stimulus":[],"xmouse":[799,799,799,799,799,799,799,799,799,799,799,799,799,799,799,799,799,799,799,799,799,799,799,799,799,799,799,799,800,804,811,814,816,819,820,823,824,827,830,832,848,856,859,860,860,864,885,923,974,1034,1140,1180,1216,1231,1242,1254,1257,1257,1249,1232,1183,1155],"ymouse":[599,599,599,599,599,599,599,599,599,599,599,599,599,599,599,599,600,600,600,600,600,600,600,600,600,600,600,599,597,592,579,577,576,576,575,575,575,576,577,578,581,581,581,578,571,543,512,471,429,388,325,301,270,255,238,211,197,178,155,128,85,65],"timestamp_mouse":[8,23,42,74,81,103,121,141,161,182,202,221,243,261,282,301,322,341,362,381,401,421,443,461,482,502,521,543,562,582,601,622,641,663,682,702,721,743,762,782,801,822,841,862,881,902,921,942,962,981,1001,1023,1041,1061,1082,1102,1121,1142,1162,1182,1201,1222],"xSR":741.5,"ySR":542.75,"xT1":424.9,"yT1":0,"xT2":1058.1,"yT2":0,"toosoon":0,"cond_shown":"Congruent","ratio_trial":100,"L_num":7,"L_den":14,"R_num":15,"R_den":25,"correct_side":2,"subjID":"TomásDíazMntoya26","gender":"male","school":"6","age":"11"},{"start_time":1551887051376,"click_time":1551887053330,"finger_time":1551887052350,"fix_duration":1364.0485336096522,"trial":34,"RT":974,"MT":980,"sideResp":1,"stimulus":[],"xmouse":[825,825,825,822,820,819,815,815,815,815,815,815,815,815,815,815,815,815,815,815,815,815,815,815,815,815,815,815,815,815,815,815,815,815,815,815,815,815,815,815,815,811,809,808,807,807,803,797,788,772,755,692,649,610,581,566,553,553,553,553,553,550,548,547,547,547,547,547,546,544,543,540,536,531,528,526,526,526,526,526,525,525,525,525,525,525,525,525,525,525,525,525,525,525,525,525,525,523],"ymouse":[554,554,554,561,567,575,585,585,585,585,585,585,585,585,585,585,585,585,585,585,585,585,585,585,585,585,585,585,585,585,585,585,585,585,585,585,585,585,585,585,585,583,578,575,574,572,564,554,539,522,502,440,393,348,309,281,229,214,203,190,176,150,141,134,129,127,125,124,120,115,110,99,91,83,79,77,76,76,76,76,76,76,76,75,75,75,75,75,75,75,75,75,75,75,75,74,74,73],"timestamp_mouse":[14,34,55,76,94,114,135,155,175,195,216,236,255,276,296,316,334,356,375,395,416,435,456,475,495,515,536,554,575,596,614,635,655,675,695,716,734,755,776,796,814,835,854,874,895,914,934,956,974,994,1015,1035,1055,1074,1095,1115,1135,1154,1175,1195,1215,1234,1254,1276,1296,1316,1335,1354,1375,1395,1415,1435,1455,1475,1495,1515,1536,1555,1574,1594,1615,1635,1655,1676,1695,1714,1734,1755,1774,1795,1815,1835,1855,1875,1896,1914,1935,1954],"xSR":741.5,"ySR":542.75,"xT1":424.9,"yT1":0,"xT2":1058.1,"yT2":0,"toosoon":0,"cond_shown":"Congruent","ratio_trial":200,"L_num":8,"L_den":15,"R_num":3,"R_den":9,"correct_side":1,"subjID":"TomásDíazMntoya26","gender":"male","school":"6","age":"11"},{"start_time":1551887054383,"click_time":1551887056251,"finger_time":1551887055131,"fix_duration":250,"trial":35,"RT":748,"MT":1120,"sideResp":2,"stimulus":[],"xmouse":[782,782,782,782,782,782,782,782,782,782,782,782,782,782,782,782,782,782,782,782,782,782,782,782,782,782,782,782,782,787,789,791,791,791,791,791,799,808,822,830,840,852,876,888,899,913,926,937,941,946,955,969,991,998,1006,1021,1032,1043,1044,1044,1044,1046,1046,1047,1047,1047,1047,1047,1047,1048,1048,1048,1048,1048,1048,1048,1048,1048,1049,1049,1049,1050,1052,1053,1054,1055,1056,1058,1058,1059,1059,1059,1059,1060],"ymouse":[569,569,569,569,569,569,569,569,569,569,569,569,569,569,569,569,569,569,569,569,569,569,569,569,569,569,569,569,569,566,564,562,562,562,562,562,548,524,487,455,423,394,350,329,310,294,281,272,268,263,257,247,235,228,222,209,199,188,186,186,186,181,178,177,176,175,175,175,175,166,154,154,154,154,153,147,141,138,136,134,132,128,118,113,110,109,106,103,103,102,102,101,101,98],"timestamp_mouse":[10,32,49,67,87,107,128,148,167,188,208,228,248,269,287,307,327,348,367,389,407,428,448,468,488,508,527,548,567,589,609,628,648,668,688,708,728,748,767,788,807,829,848,868,888,909,928,947,967,989,1007,1029,1048,1067,1088,1107,1128,1149,1167,1187,1208,1229,1247,1269,1287,1307,1328,1348,1367,1389,1408,1428,1448,1467,1487,1508,1529,1548,1567,1587,1608,1627,1648,1667,1688,1707,1728,1748,1778,1789,1808,1828,1848,1868],"xSR":741.5,"ySR":542.75,"xT1":424.9,"yT1":0,"xT2":1058.1,"yT2":0,"toosoon":0,"cond_shown":"Congruent","ratio_trial":100,"L_num":7,"L_den":14,"R_num":15,"R_den":25,"correct_side":2,"subjID":"TomásDíazMntoya26","gender":"male","school":"6","age":"11"},{"start_time":1551887058653,"click_time":1551887060370,"finger_time":1551887059611,"fix_duration":1101.7122143592626,"trial":36,"RT":958,"MT":759,"sideResp":2,"stimulus":[],"xmouse":[793,793,793,793,793,793,793,793,793,793,793,793,793,793,793,793,793,793,793,793,793,793,793,793,793,793,793,793,793,793,793,793,793,793,793,793,793,793,793,793,793,793,793,793,792,778,747,716,678,665,653,647,644,649,664,698,758,820,959,1025,1041,1047,1053,1060,1060,1060,1060,1054,1037,1020,1013,1010,1010,1010,1012,1016,1020,1024,1031,1039,1046,1049,1050,1053,1057,1060],"ymouse":[613,613,613,613,613,613,613,613,613,613,613,613,613,613,613,613,613,613,613,613,613,613,613,613,613,613,613,613,613,613,613,613,613,613,613,613,613,613,613,613,613,613,613,613,612,601,578,556,528,516,496,485,471,448,435,421,404,387,349,330,321,313,302,276,263,246,226,208,156,118,103,97,96,88,83,78,73,70,68,66,66,66,66,66,66,66],"timestamp_mouse":[18,43,58,79,97,119,138,158,178,197,218,238,259,278,297,318,337,359,378,398,418,438,457,478,498,517,538,558,579,599,619,638,659,677,697,718,738,757,777,798,818,838,857,877,897,917,938,958,977,999,1017,1038,1058,1078,1097,1118,1138,1157,1177,1198,1217,1238,1259,1278,1299,1319,1338,1359,1378,1398,1418,1437,1458,1478,1498,1517,1537,1558,1577,1597,1618,1639,1658,1678,1699,1717],"xSR":741.5,"ySR":542.75,"xT1":424.9,"yT1":0,"xT2":1058.1,"yT2":0,"toosoon":0,"cond_shown":"Congruent","ratio_trial":200,"L_num":13,"L_den":26,"R_num":14,"R_den":20,"correct_side":2,"subjID":"TomásDíazMntoya26","gender":"male","school":"6","age":"11"},{"start_time":1551887061582,"click_time":1551887062951,"finger_time":1551887062370,"fix_duration":250,"trial":37,"RT":788,"MT":581,"sideResp":1,"stimulus":[],"xmouse":[811,811,811,811,811,811,811,811,811,811,811,811,811,811,811,811,811,811,811,811,811,811,811,811,811,811,811,811,811,811,811,811,811,811,810,803,787,762,750,739,728,718,673,649,629,611,597,572,560,549,536,521,502,498,498,498,498,501,503,504,505,506,506,506,506,506,506,506,506],"ymouse":[598,598,598,598,598,598,598,598,598,598,598,598,598,598,598,598,598,598,598,598,598,598,598,598,598,598,598,598,598,598,598,598,598,598,598,593,583,564,557,551,541,531,485,463,446,428,416,385,364,343,320,299,247,207,177,160,149,130,124,118,116,114,107,106,105,105,104,101,99],"timestamp_mouse":[11,31,49,69,89,108,129,149,169,190,208,230,249,270,288,309,329,348,370,388,409,428,449,469,488,510,529,548,569,589,609,629,648,669,688,709,729,749,768,788,809,829,849,868,888,909,929,948,968,990,1009,1029,1049,1070,1089,1109,1129,1150,1169,1189,1208,1229,1248,1269,1290,1309,1330,1349,1369],"xSR":741.5,"ySR":542.75,"xT1":424.9,"yT1":0,"xT2":1058.1,"yT2":0,"toosoon":0,"cond_shown":"Incongruent","ratio_trial":300,"L_num":4,"L_den":5,"R_num":8,"R_den":16,"correct_side":1,"subjID":"TomásDíazMntoya26","gender":"male","school":"6","age":"11"},{"start_time":1551887064063,"click_time":1551887065252,"finger_time":1551887064850,"fix_duration":250,"trial":38,"RT":787,"MT":402,"sideResp":1,"stimulus":[],"xmouse":[756,756,756,756,756,756,756,756,756,756,756,756,756,756,756,756,756,756,756,756,756,756,756,756,756,756,756,756,756,756,756,756,756,756,756,756,756,756,745,738,726,713,697,677,630,600,584,577,567,563,560,558,554,545,539,533,528,524,520,512],"ymouse":[622,622,622,622,622,622,622,622,622,622,622,622,622,622,622,622,622,622,622,622,622,622,622,622,622,622,622,622,622,622,622,622,622,622,622,622,623,622,608,598,582,563,533,496,400,350,312,291,255,242,233,223,210,180,161,143,128,115,101,69],"timestamp_mouse":[10,33,47,69,87,108,127,147,168,188,209,227,247,267,288,308,328,348,368,388,408,428,447,468,488,507,527,548,569,587,607,628,647,668,688,709,727,748,768,787,807,828,848,867,888,907,928,948,968,988,1008,1028,1047,1068,1088,1108,1128,1147,1168,1189],"xSR":741.5,"ySR":542.75,"xT1":424.9,"yT1":0,"xT2":1058.1,"yT2":0,"toosoon":0,"cond_shown":"Incongruent","ratio_trial":300,"L_num":1,"L_den":2,"R_num":3,"R_den":15,"correct_side":1,"subjID":"TomásDíazMntoya26","gender":"male","school":"6","age":"11"},{"start_time":1551887066366,"click_time":1551887067571,"finger_time":1551887067091,"fix_duration":454.4599514395673,"trial":39,"RT":725,"MT":480,"sideResp":2,"stimulus":[],"xmouse":[758,758,758,758,758,758,758,758,758,758,758,758,758,758,758,758,758,758,758,758,758,758,758,758,758,758,758,758,758,758,758,758,758,759,800,829,862,894,933,945,952,959,966,976,981,981,981,985,994,1001,1010,1016,1029,1036,1048,1051,1053,1054,1054,1058,1062],"ymouse":[598,598,598,598,598,598,598,598,598,598,598,598,598,598,598,598,598,598,598,598,598,598,598,598,598,598,598,598,598,598,598,598,598,598,604,608,613,615,610,602,587,560,515,427,293,244,211,179,136,123,109,100,85,78,69,68,68,68,68,67,66],"timestamp_mouse":[9,30,45,64,85,105,124,146,164,184,205,226,244,266,286,305,325,346,366,386,406,425,445,466,484,506,525,546,564,586,604,626,644,665,685,704,724,745,766,784,804,824,844,865,885,905,925,945,966,984,1005,1025,1044,1065,1086,1106,1125,1145,1165,1185,1205],"xSR":741.5,"ySR":542.75,"xT1":424.9,"yT1":0,"xT2":1058.1,"yT2":0,"toosoon":0,"cond_shown":"Congruent","ratio_trial":100,"L_num":2,"L_den":5,"R_num":11,"R_den":22,"correct_side":2,"subjID":"TomásDíazMntoya26","gender":"male","school":"6","age":"11"},{"start_time":1551887068623,"click_time":1551887069892,"finger_time":1551887069350,"fix_duration":250,"trial":40,"RT":727,"MT":542,"sideResp":1,"stimulus":[],"xmouse":[813,811,811,811,811,811,811,811,811,811,811,811,811,811,811,811,811,811,811,811,811,811,811,811,811,811,811,811,811,811,811,811,806,793,777,755,701,673,642,623,608,581,569,561,553,547,535,531,526,524,523,523,522,519,516,512,505,504,504,504,504,503,501,494],"ymouse":[604,604,604,604,604,604,604,604,604,604,604,604,604,604,604,604,604,604,604,604,604,604,604,604,604,604,604,604,604,604,604,604,600,593,584,574,546,525,497,475,455,412,389,369,348,326,288,271,245,227,207,174,156,144,132,121,109,108,108,108,108,107,103,95],"timestamp_mouse":[8,32,47,67,88,107,128,149,168,189,208,229,248,267,287,307,328,348,367,389,407,427,448,467,487,508,528,547,569,588,607,628,647,669,688,708,727,748,767,788,808,827,848,867,888,909,928,949,968,988,1008,1028,1048,1068,1088,1108,1128,1147,1167,1188,1208,1228,1247,1269],"xSR":741.5,"ySR":542.75,"xT1":424.9,"yT1":0,"xT2":1058.1,"yT2":0,"toosoon":0,"cond_shown":"Congruent","ratio_trial":100,"L_num":9,"L_den":15,"R_num":8,"R_den":16,"correct_side":1,"subjID":"TomásDíazMntoya26","gender":"male","school":"6","age":"11"},{"start_time":1551887073626,"click_time":1551887075211,"finger_time":1551887074372,"fix_duration":1174.217914416319,"trial":41,"RT":746,"MT":839,"sideResp":2,"stimulus":[],"xmouse":[792,792,792,792,792,792,792,792,792,792,792,792,792,792,792,792,792,792,792,792,792,792,792,792,792,792,792,792,792,792,792,792,792,792,792,792,806,818,834,849,861,879,893,912,931,948,966,974,983,988,994,1003,1008,1012,1018,1024,1042,1051,1058,1064,1071,1079,1082,1083,1085,1085,1085,1085,1085,1085,1085,1085,1085,1085,1085,1085,1085,1085,1085,1085],"ymouse":[562,562,562,562,562,562,562,562,562,562,562,562,562,562,562,562,562,562,562,562,562,562,562,562,562,562,562,562,562,562,562,562,562,562,562,562,546,535,518,502,486,452,427,392,361,328,286,273,259,251,241,220,209,200,189,182,165,159,154,149,146,140,137,135,135,134,132,130,127,126,125,125,125,125,124,123,113,109,105,99],"timestamp_mouse":[11,40,45,65,85,106,124,145,165,185,206,224,245,264,285,306,324,345,365,385,404,426,446,465,486,504,526,546,565,585,604,625,646,666,686,705,724,746,765,786,805,825,845,865,885,905,925,944,965,984,1005,1025,1045,1064,1085,1106,1125,1146,1164,1185,1206,1225,1245,1265,1285,1305,1324,1345,1364,1385,1405,1426,1446,1465,1485,1506,1525,1544,1564,1585],"xSR":741.5,"ySR":542.75,"xT1":424.9,"yT1":0,"xT2":1058.1,"yT2":0,"toosoon":0,"cond_shown":"Incongruent","ratio_trial":200,"L_num":14,"L_den":30,"R_num":12,"R_den":18,"correct_side":2,"subjID":"TomásDíazMntoya26","gender":"male","school":"6","age":"11"},{"start_time":1551887076649,"click_time":1551887077911,"finger_time":1551887077551,"fix_duration":317.7233388666173,"trial":42,"RT":902,"MT":360,"sideResp":2,"stimulus":[],"xmouse":[786,786,786,786,786,786,786,786,786,786,786,786,786,786,786,786,786,786,786,786,786,786,786,786,786,786,786,786,786,786,786,786,786,786,786,787,789,791,793,795,799,810,815,819,828,839,859,868,878,886,893,909,916,924,934,941,958,969,981,993,1008,1039,1058,1063],"ymouse":[588,588,588,588,588,588,588,588,588,588,588,588,588,588,588,588,588,588,588,588,588,588,588,588,588,588,588,588,588,588,588,588,588,588,589,589,587,586,586,584,582,573,569,565,555,537,485,455,420,391,370,315,289,265,228,202,159,136,117,100,83,57,49,47],"timestamp_mouse":[10,36,42,61,83,101,122,142,163,183,202,223,242,263,282,301,322,343,361,382,401,422,442,463,483,503,521,542,561,582,601,622,642,663,682,701,722,742,762,782,802,821,841,862,882,902,922,942,962,982,1002,1023,1043,1062,1082,1102,1122,1142,1162,1182,1201,1222,1243,1262],"xSR":741.5,"ySR":542.75,"xT1":424.9,"yT1":0,"xT2":1058.1,"yT2":0,"toosoon":0,"cond_shown":"Congruent","ratio_trial":300,"L_num":3,"L_den":6,"R_num":4,"R_den":5,"correct_side":2,"subjID":"TomásDíazMntoya26","gender":"male","school":"6","age":"11"},{"start_time":1551887080117,"click_time":1551887081431,"finger_time":1551887081011,"fix_duration":1244.9809607214181,"trial":43,"RT":894,"MT":420,"sideResp":1,"stimulus":[],"xmouse":[799,799,799,799,799,799,799,799,799,799,799,799,799,799,799,799,799,799,799,799,799,799,799,799,799,799,799,799,799,799,799,799,799,799,799,799,799,799,799,799,799,799,790,782,774,761,747,715,690,675,662,649,622,611,602,596,592,586,578,566,550,535,503,492,482,475],"ymouse":[599,599,599,599,599,599,599,599,599,599,599,599,599,599,599,599,599,599,599,599,599,599,599,599,599,599,599,599,599,599,599,599,599,599,599,599,599,599,599,599,599,599,578,561,541,517,490,426,375,342,321,304,272,259,247,238,231,222,210,192,172,150,122,111,101,92],"timestamp_mouse":[15,33,54,74,93,115,134,153,175,194,213,234,253,273,294,313,333,354,375,393,414,434,453,473,493,514,534,554,574,594,614,633,654,674,694,713,733,755,774,794,813,833,854,873,894,914,933,953,974,993,1013,1034,1054,1073,1094,1113,1135,1153,1174,1194,1215,1233,1253,1274,1295,1314],"xSR":741.5,"ySR":542.75,"xT1":424.9,"yT1":0,"xT2":1058.1,"yT2":0,"toosoon":0,"cond_shown":"Incongruent","ratio_trial":300,"L_num":7,"L_den":10,"R_num":8,"R_den":20,"correct_side":1,"subjID":"TomásDíazMntoya26","gender":"male","school":"6","age":"11"},{"start_time":1551887084350,"click_time":1551887085692,"finger_time":1551887085151,"fix_duration":857.027522782373,"trial":44,"RT":801,"MT":541,"sideResp":1,"stimulus":[],"xmouse":[809,809,809,808,808,808,808,808,808,808,808,808,808,808,808,808,808,808,808,808,808,808,808,808,808,808,808,808,808,808,808,808,808,808,808,805,787,775,765,754,741,710,696,691,687,683,675,671,666,661,655,639,636,630,623,617,604,599,591,586,578,561,552,544,538,526,510,477],"ymouse":[625,625,624,623,623,623,623,623,623,623,623,623,623,623,623,623,623,623,623,623,623,623,623,623,623,623,623,623,623,623,623,623,623,623,623,620,601,585,566,544,508,419,372,331,301,277,220,205,195,187,179,168,166,164,162,160,156,155,152,151,147,140,134,130,127,119,110,92],"timestamp_mouse":[9,36,41,61,81,101,122,142,160,181,201,221,241,261,281,302,320,340,362,381,400,421,441,460,481,502,520,541,561,580,602,620,640,661,680,700,721,740,760,781,801,821,841,861,882,901,921,941,961,980,1000,1021,1040,1062,1082,1101,1121,1142,1161,1181,1201,1220,1242,1261,1281,1301,1320,1342],"xSR":741.5,"ySR":542.75,"xT1":424.9,"yT1":0,"xT2":1058.1,"yT2":0,"toosoon":0,"cond_shown":"Incongruent","ratio_trial":300,"L_num":4,"L_den":5,"R_num":6,"R_den":12,"correct_side":1,"subjID":"TomásDíazMntoya26","gender":"male","school":"6","age":"11"},{"start_time":1551887088025,"click_time":1551887088991,"finger_time":1551887088551,"fix_duration":1452.0114206800922,"trial":45,"RT":526,"MT":440,"sideResp":2,"stimulus":[],"xmouse":[791,791,791,791,791,791,791,791,791,791,791,791,791,791,791,791,791,790,788,788,788,788,788,794,801,806,814,826,855,871,884,906,921,940,948,957,963,968,982,992,1008,1018,1024,1040,1047,1052,1057,1061,1061],"ymouse":[633,633,633,633,633,633,633,633,633,633,633,633,633,633,633,635,630,612,601,599,594,588,583,569,558,550,539,524,493,478,465,437,410,375,358,342,329,316,289,274,253,240,228,181,158,139,126,105,95],"timestamp_mouse":[11,32,46,66,87,105,126,146,167,187,207,225,246,267,286,307,325,347,365,387,406,425,446,466,486,507,526,546,565,586,606,625,646,667,686,706,726,746,765,785,806,826,846,866,887,906,926,947,965],"xSR":741.5,"ySR":542.75,"xT1":424.9,"yT1":0,"xT2":1058.1,"yT2":0,"toosoon":0,"cond_shown":"Congruent","ratio_trial":100,"L_num":6,"L_den":20,"R_num":5,"R_den":25,"correct_side":1,"subjID":"TomásDíazMntoya26","gender":"male","school":"6","age":"11"},{"start_time":1551887090797,"click_time":1551887093172,"finger_time":1551887091391,"fix_duration":825.2795776273637,"trial":46,"RT":594,"MT":1781,"sideResp":2,"stimulus":[],"xmouse":[774,774,774,774,774,774,774,774,774,774,774,774,774,774,774,774,774,774,774,774,774,774,774,774,774,774,774,774,778,802,817,836,855,873,903,917,929,938,945,955,957,959,960,961,962,964,965,968,971,976,980,988,997,1006,1022,1029,1040,1047,1052,1054,1054,1054,1054,1054,1054,1054,1054,1054,1054,1054,1054,1054,1054,1054,1054,1054,1054,1054,1054,1054,1054,1054,1054,1054,1054,1054,1054,1054,1054,1054,1054,1054,1054,1054,1054,1054,1056,1074,1100,1138,1147,1147,1147,1147,1149,1151,1152,1153,1153,1153,1153,1153,1153,1153,1153,1153,1153,1132,1096],"ymouse":[584,584,584,584,584,584,584,584,584,584,584,584,584,584,584,584,584,584,584,584,584,584,584,584,584,584,584,575,567,525,501,467,433,399,345,322,299,274,251,208,194,181,175,170,165,162,160,157,155,153,152,147,143,137,127,123,118,116,115,115,115,115,115,115,115,115,115,115,115,115,115,115,115,115,115,115,115,115,115,115,115,115,115,115,115,115,115,115,115,115,115,115,115,115,115,115,115,113,112,109,109,109,109,109,107,105,105,104,104,104,104,104,104,104,104,104,104,102,95],"timestamp_mouse":[14,43,54,73,93,114,133,154,173,195,215,234,253,274,293,314,333,355,374,394,413,435,454,473,494,514,535,554,575,594,613,634,653,673,694,714,734,753,775,793,814,834,854,873,894,915,934,954,974,993,1013,1033,1054,1075,1094,1114,1133,1154,1173,1195,1214,1234,1254,1275,1293,1314,1333,1353,1373,1394,1415,1435,1454,1474,1493,1514,1535,1554,1575,1594,1614,1635,1654,1674,1694,1714,1734,1754,1774,1794,1814,1833,1854,1875,1894,1913,1933,1954,1974,1994,2014,2034,2053,2074,2093,2115,2134,2154,2175,2194,2214,2233,2254,2274,2294,2314,2333,2353,2374],"xSR":741.5,"ySR":542.75,"xT1":424.9,"yT1":0,"xT2":1058.1,"yT2":0,"toosoon":0,"cond_shown":"Congruent","ratio_trial":200,"L_num":3,"L_den":12,"R_num":9,"R_den":20,"correct_side":2,"subjID":"TomásDíazMntoya26","gender":"male","school":"6","age":"11"},{"start_time":1551887097063,"click_time":1551887099472,"finger_time":1551887097710,"fix_duration":1291.7008377111601,"trial":47,"RT":647,"MT":1762,"sideResp":2,"stimulus":[],"xmouse":[757,757,757,757,757,757,757,757,757,757,757,757,757,757,757,757,757,757,757,757,757,757,757,757,757,757,758,765,767,769,770,773,775,778,786,808,829,888,912,935,955,997,1011,1022,1029,1042,1048,1049,1050,1054,1058,1065,1071,1071,1071,1071,1070,1066,1065,1065,1065,1065,1071,1077,1087,1108,1178,1224,1247,1270,1270,1270,1270,1270,1270,1270,1270,1270,1270,1270,1270,1270,1270,1270,1270,1270,1270,1270,1270,1270,1270,1270,1270,1270,1270,1270,1270,1270,1270,1270,1270,1270,1270,1270,1270,1270,1270,1270,1270,1218,1212,1207,1203,1194,1192,1190,1188,1186,1169,1167,1155],"ymouse":[586,586,586,586,586,586,586,586,586,586,586,586,586,586,586,586,586,586,586,586,586,586,586,586,586,586,585,570,562,558,552,546,542,537,530,512,496,445,425,407,391,366,357,351,349,345,343,343,342,338,331,324,306,300,297,295,293,285,281,279,276,273,263,252,235,203,102,50,27,1,1,1,1,1,1,1,1,1,1,1,1,1,1,1,1,1,1,1,1,1,1,1,1,1,1,1,1,1,1,1,1,1,1,1,1,1,1,1,1,4,16,27,34,54,60,63,64,67,77,77,78],"timestamp_mouse":[10,31,47,69,87,109,128,148,167,188,207,227,249,267,288,308,329,348,369,388,407,428,448,468,487,507,528,548,568,587,608,629,647,669,688,709,728,749,769,789,808,829,848,867,888,908,929,947,967,989,1008,1028,1047,1068,1088,1108,1128,1149,1167,1188,1208,1228,1249,1268,1288,1307,1329,1347,1368,1388,1408,1428,1448,1469,1488,1508,1527,1548,1569,1588,1608,1628,1648,1667,1688,1709,1729,1748,1769,1788,1808,1829,1849,1869,1888,1909,1928,1948,1968,1988,2008,2029,2049,2068,2088,2107,2128,2148,2169,2188,2208,2228,2249,2268,2288,2308,2329,2348,2368,2388,2409],"xSR":741.5,"ySR":542.75,"xT1":424.9,"yT1":0,"xT2":1058.1,"yT2":0,"toosoon":0,"cond_shown":"Incongruent","ratio_trial":200,"L_num":14,"L_den":30,"R_num":12,"R_den":18,"correct_side":2,"subjID":"TomásDíazMntoya26","gender":"male","school":"6","age":"11"},{"start_time":1551887103527,"click_time":1551887105791,"finger_time":1551887105151,"fix_duration":374.1066603561344,"trial":48,"RT":1624,"MT":640,"sideResp":2,"stimulus":[],"xmouse":[795,795,795,795,795,795,795,795,795,795,795,795,795,795,795,795,795,795,795,795,795,795,795,795,795,795,795,795,795,795,795,795,795,795,795,795,795,795,795,795,795,795,795,795,795,795,795,795,795,795,795,795,795,795,795,795,795,795,795,795,795,795,795,795,795,795,795,795,795,795,795,795,795,795,795,795,795,795,795,795,817,865,954,1071,1197,1350,1375,1399,1411,1411,1411,1411,1411,1411,1411,1394,1350,1309,1275,1242,1215,1192,1192,1192,1192,1192,1192,1192,1192,1192,1190,1177,1165,1152],"ymouse":[623,623,623,623,623,623,623,623,623,623,623,623,623,623,623,623,623,623,623,623,623,623,623,623,623,623,623,623,623,623,623,623,623,623,623,623,623,623,623,623,623,623,623,623,623,623,623,623,623,623,623,623,623,623,623,623,623,623,623,623,623,623,623,623,623,623,623,623,623,623,623,623,623,623,623,623,623,623,623,623,614,585,521,438,359,212,138,54,11,11,11,11,11,11,11,47,98,151,196,233,257,274,274,274,274,274,251,232,210,186,163,125,107,92],"timestamp_mouse":[10,37,44,64,85,103,124,144,165,185,204,223,244,265,283,304,324,343,364,383,404,424,444,465,485,504,524,544,565,585,603,624,645,664,684,704,723,745,764,783,805,825,845,865,884,904,925,944,965,983,1004,1025,1044,1063,1085,1104,1123,1145,1164,1184,1205,1224,1245,1265,1284,1304,1324,1343,1365,1385,1404,1425,1445,1464,1485,1504,1525,1544,1564,1584,1604,1624,1644,1664,1684,1704,1723,1744,1765,1784,1805,1825,1844,1864,1885,1905,1924,1943,1964,1984,2004,2024,2044,2063,2085,2104,2124,2144,2164,2184,2205,2225,2244,2264],"xSR":741.5,"ySR":542.75,"xT1":424.9,"yT1":0,"xT2":1058.1,"yT2":0,"toosoon":0,"cond_shown":"Incongruent","ratio_trial":100,"L_num":12,"L_den":30,"R_num":2,"R_den":4,"correct_side":2,"subjID":"TomásDíazMntoya26","gender":"male","school":"6","age":"11"},{"start_time":1551887110224,"click_time":1551887111991,"finger_time":1551887111671,"fix_duration":250,"trial":49,"RT":1447,"MT":320,"sideResp":2,"stimulus":[],"xmouse":[791,791,791,791,791,791,791,791,791,791,791,791,791,791,791,791,791,791,791,791,791,791,791,791,791,791,791,791,791,791,791,791,791,791,791,791,791,791,791,791,791,791,791,791,791,791,791,791,791,791,791,791,791,791,791,791,791,791,791,791,791,791,791,791,791,791,791,791,787,785,784,784,784,788,802,823,858,878,890,900,913,950,972,993,1016,1035,1053,1090,1099],"ymouse":[616,616,616,616,616,616,616,616,616,616,616,616,616,616,616,616,616,616,616,616,616,616,616,616,616,616,616,616,616,616,616,616,616,616,616,616,616,616,616,616,616,616,616,616,616,616,616,616,616,616,616,616,616,616,616,616,616,616,616,616,616,616,616,616,616,616,616,614,603,594,589,556,528,499,464,423,368,337,317,297,274,220,195,177,161,146,129,101,94],"timestamp_mouse":[9,40,48,67,88,108,128,146,168,188,207,227,247,268,287,307,328,347,368,387,407,426,447,468,486,507,527,547,567,587,608,627,648,666,688,708,728,748,767,787,808,827,848,868,887,908,927,948,968,988,1007,1026,1047,1066,1088,1107,1127,1147,1166,1187,1206,1227,1247,1266,1286,1307,1327,1347,1367,1387,1406,1427,1447,1467,1487,1506,1527,1547,1567,1586,1607,1627,1647,1667,1687,1708,1727,1747,1767],"xSR":741.5,"ySR":542.75,"xT1":424.9,"yT1":0,"xT2":1058.1,"yT2":0,"toosoon":0,"cond_shown":"Congruent","ratio_trial":100,"L_num":12,"L_den":30,"R_num":13,"R_den":26,"correct_side":2,"subjID":"TomásDíazMntoya26","gender":"male","school":"6","age":"11"},{"start_time":1551887115871,"click_time":1551887118092,"finger_time":1551887117531,"fix_duration":1498.7973624822669,"trial":50,"RT":1660,"MT":561,"sideResp":2,"stimulus":[],"xmouse":[781,781,781,781,781,781,781,781,781,781,781,781,781,781,781,781,781,781,781,781,781,781,781,781,781,781,781,781,781,781,781,781,781,781,781,781,781,781,781,781,781,781,781,781,781,781,781,781,781,781,781,781,781,781,781,781,781,781,781,781,781,781,781,781,781,781,781,781,781,781,781,781,781,781,781,781,781,781,781,781,785,792,814,836,859,898,916,931,944,956,958,959,959,960,962,966,969,971,974,978,989,997,1004,1011,1019,1036,1041,1045,1047,1050,1057,1062],"ymouse":[610,610,610,610,610,610,610,610,610,610,610,610,610,610,610,610,610,610,610,610,610,610,610,610,610,610,610,610,610,610,610,610,610,610,610,610,610,610,610,610,610,610,610,610,610,610,610,610,610,610,610,610,610,610,610,610,610,610,610,610,610,610,610,610,610,610,610,610,610,610,610,610,610,610,610,610,610,610,610,610,597,588,553,522,485,422,393,365,335,293,276,264,249,240,229,209,200,195,188,181,168,160,155,152,146,132,127,121,117,114,105,99],"timestamp_mouse":[2,35,41,60,80,101,120,140,160,180,200,219,240,261,279,301,319,341,360,379,400,421,440,459,480,500,520,541,560,580,600,620,641,660,680,701,720,740,760,781,801,820,840,860,880,900,921,939,959,981,1001,1019,1040,1059,1079,1101,1119,1140,1161,1181,1199,1220,1240,1259,1280,1300,1320,1340,1359,1381,1399,1420,1441,1459,1479,1500,1520,1539,1561,1580,1600,1621,1640,1660,1680,1701,1719,1740,1760,1781,1800,1821,1840,1860,1880,1900,1920,1941,1960,1980,1999,2020,2040,2060,2080,2100,2120,2140,2160,2180,2200,2220],"xSR":741.5,"ySR":542.75,"xT1":424.9,"yT1":0,"xT2":1058.1,"yT2":0,"toosoon":0,"cond_shown":"Incongruent","ratio_trial":100,"L_num":9,"L_den":15,"R_num":14,"R_den":28,"correct_side":1,"subjID":"TomásDíazMntoya26","gender":"male","school":"6","age":"11"},{"start_time":1551887120592,"click_time":1551887122871,"finger_time":1551887122051,"fix_duration":1499.035247888858,"trial":51,"RT":1459,"MT":820,"sideResp":2,"stimulus":[],"xmouse":[814,814,814,814,814,814,814,814,814,814,814,814,814,814,814,814,814,814,814,814,814,814,814,814,814,814,814,814,814,814,814,814,814,814,814,814,814,814,814,814,814,814,814,814,814,814,814,814,814,814,814,814,814,814,814,814,814,814,814,814,814,814,814,814,814,814,814,814,814,814,817,822,827,839,846,859,879,904,941,946,949,952,955,965,981,988,994,1000,1017,1026,1031,1037,1038,1038,1038,1038,1038,1038,1038,1038,1038,1038,1038,1038,1038,1038,1041,1042,1047,1050,1051,1054,10