[{"start_time":1551887827248,"click_time":1551887833843,"finger_time":1551887829842,"fix_duration":1060.0712576300455,"trial":0,"RT":2594,"MT":4001,"sideResp":2,"stimulus":"img/500/randomdotsizeEA/R/2_Ratio_500_L_3_R_6.png","xmouse":[795,795,795,795,795,795,795,795,795,795,795,795,795,795,795,795,795,795,795,795,795,795,795,795,795,795,795,795,795,795,795,795,795,795,795,795,795,795,795,795,795,795,795,795,795,795,795,795,795,795,795,795,795,795,795,795,795,795,795,795,795,795,795,795,795,795,795,795,795,795,795,795,795,795,795,795,795,795,795,795,795,795,795,795,795,795,795,795,795,795,795,795,795,795,795,794,788,777,767,758,752,751,751,750,749,747,746,746,746,746,746,746,746,746,746,746,746,746,746,747,752,757,758,760,765,771,777,790,795,798,802,802,802,802,801,800,797,796,796,796,796,795,795,795,795,797,802,803,804,804,804,804,804,803,801,800,800,800,800,800,800,800,800,800,800,800,800,800,800,800,800,800,800,800,800,800,800,800,800,800,800,800,800,800,800,800,800,800,800,800,800,800,800,800,800,800,800,800,800,800,800,802,810,818,825,831,834,836,836,836,836,836,836,836,836,837,838,838,838,837,836,836,836,834,834,834,834,832,826,820,813,788,777,770,764,759,754,754,755,757,758,761,765,768,770,773,781,783,783,783,783,783,783,783,783,783,783,783,783,783,783,783,783,783,783,783,783,783,783,783,783,783,783,783,783,783,783,783,783,783,783,783,783,783,783,783,783,783,783,783,783,783,783,783,783,783,783,783,783,783,783,783,783,783,783,783,786,824,863,904,937,983,1002,1013,1021,1026,1022,1016,1015,1012,1011,1011,1011,1011,1011,1011,1012,1019,1045,1065],"ymouse":[529,529,529,529,529,529,529,529,529,529,529,529,529,529,529,529,529,529,529,529,529,529,529,529,529,529,529,529,529,529,529,529,529,529,529,529,529,529,529,529,529,529,529,529,529,529,529,529,529,529,529,529,529,529,529,529,529,529,529,529,529,529,529,529,529,529,529,529,529,529,529,529,529,529,529,529,529,529,529,529,529,529,529,529,529,529,529,529,529,529,529,529,529,529,529,529,529,537,544,550,555,556,556,556,556,556,556,556,556,556,556,556,556,556,556,556,556,556,556,556,548,533,529,524,518,511,504,482,470,458,441,411,407,402,399,396,394,394,394,394,394,394,406,418,430,447,468,473,474,474,474,479,483,488,492,495,496,496,496,496,496,496,496,496,496,496,496,496,496,496,496,496,496,496,496,496,496,496,496,496,496,496,496,496,496,496,496,496,496,496,496,496,496,496,496,496,496,496,496,496,496,496,483,465,449,438,432,429,429,429,429,429,429,429,430,434,439,443,448,459,475,503,513,520,521,521,521,521,517,514,510,499,497,497,499,502,510,511,517,519,519,519,519,519,518,517,514,513,513,513,513,513,513,513,513,513,513,513,513,513,513,513,513,513,513,513,513,513,513,513,513,513,513,513,513,513,513,513,513,513,513,513,513,513,513,513,513,513,513,513,513,513,513,513,513,513,513,513,513,513,513,513,513,513,513,513,513,491,461,425,387,298,250,210,173,146,104,82,74,67,63,63,63,63,63,63,63,61,56,53],"timestamp_mouse":[14,35,54,75,94,114,135,155,175,195,214,235,254,274,295,314,334,356,374,395,415,436,454,474,495,514,535,554,575,595,615,635,654,674,695,714,735,754,774,794,814,835,855,874,895,914,934,955,974,994,1016,1034,1054,1075,1095,1114,1135,1154,1174,1194,1214,1234,1254,1275,1294,1314,1336,1354,1375,1394,1415,1434,1455,1474,1494,1514,1535,1554,1575,1594,1615,1635,1655,1674,1695,1714,1734,1754,1774,1795,1814,1834,1854,1875,1894,1914,1934,1954,1974,1994,2014,2035,2054,2075,2095,2114,2134,2154,2175,2194,2214,2234,2255,2274,2295,2316,2334,2354,2374,2395,2415,2434,2455,2475,2494,2514,2534,2554,2574,2594,2614,2634,2654,2674,2695,2714,2735,2754,2775,2796,2815,2834,2854,2874,2895,2915,2934,2954,2974,2994,3015,3034,3054,3075,3095,3116,3134,3154,3175,3195,3215,3234,3254,3275,3294,3314,3335,3354,3375,3396,3414,3435,3454,3476,3495,3515,3534,3554,3575,3595,3615,3634,3654,3674,3695,3715,3734,3755,3776,3795,3815,3836,3855,3875,3895,3915,3935,3954,3974,3995,4015,4035,4054,4075,4095,4114,4134,4154,4174,4195,4214,4234,4254,4274,4294,4314,4335,4355,4374,4395,4414,4434,4454,4474,4494,4514,4535,4555,4574,4595,4615,4634,4654,4675,4695,4714,4735,4755,4774,4794,4814,4834,4854,4874,4894,4915,4934,4955,4975,4994,5014,5034,5054,5075,5095,5114,5134,5155,5175,5194,5215,5234,5254,5275,5295,5314,5335,5354,5374,5395,5416,5436,5454,5475,5495,5514,5534,5555,5574,5594,5614,5634,5654,5674,5694,5714,5734,5754,5774,5794,5815,5834,5855,5876,5894,5914,5935,5954,5975,5995,6014,6034,6055,6074,6095,6115,6134,6154,6174,6194,6215,6235,6254,6275,6294,6315,6334,6355,6374,6394,6414,6435,6455,6475,6495,6514,6535,6556,6574,6595],"xSR":741.5,"ySR":469.95,"xT1":424.9,"yT1":0,"xT2":1058.1,"yT2":0,"toosoon":0,"cond_shown":"randomdotsizeEA","ratio_trial":500,"smaller_num":"3","larger_num":"6","correct_side":2,"subjID":"Tomas_Felipe_Contreras_Duarte_39","gender":"0","age":"11","school":"sexto","test":{"fix_dur":[250,1500],"timestim":300,"targets_dim":[100,100],"targets_relative_coord":[0.3,0.7],"size_stim":[880,420],"start_dim":[100,100],"size_start":[300,300],"size_fix":60,"samplingrate":20,"img_types":["equaldotsize","equaldotanddens","randomdotsizeEA"],"ratios":[250,500,750,900],"rep_conds":9,"nTrials":120,"trials_to_rest":500,"Trials_order":[5,112,88,34,67,82,1,44,12,89,56,58,49,103,78,109,47,48,92,102,70,19,71,96,117,64,53,73,100,40,87,61,94,107,50,110,108,114,77,26,115,11,60,65,76,74,95,38,25,4,2,75,72,17,39,66,63,86,81,91,68,14,59,33,80,8,119,36,98,93,0,27,106,46,90,9,85,41,57,104,15,118,43,105,3,69,84,23,16,20,97,22,7,24,13,35,21,99,32,28,101,45,29,83,111,79,62,113,54,37,18,6,42,116,51,30,10,55,52,31],"cond_shown":["randomdotsizeEA","equaldotanddens","equaldotanddens","equaldotanddens","equaldotanddens","equaldotanddens","equaldotanddens","randomdotsizeEA","equaldotsize","randomdotsizeEA","randomdotsizeEA","equaldotanddens","equaldotanddens","equaldotanddens","equaldotsize","equaldotanddens","randomdotsizeEA","equaldotsize","randomdotsizeEA","equaldotsize","equaldotanddens","equaldotanddens","randomdotsizeEA","equaldotsize","equaldotsize","equaldotanddens","randomdotsizeEA","equaldotanddens","equaldotanddens","equaldotanddens","equaldotsize","equaldotanddens","equaldotanddens","randomdotsizeEA","randomdotsizeEA","randomdotsizeEA","equaldotsize","equaldotsize","randomdotsizeEA","randomdotsizeEA","equaldotanddens","randomdotsizeEA","equaldotsize","randomdotsizeEA","equaldotanddens","randomdotsizeEA","randomdotsizeEA","randomdotsizeEA","equaldotanddens","equaldotanddens","randomdotsizeEA","equaldotsize","equaldotsize","randomdotsizeEA","equaldotsize","equaldotsize","equaldotsize","randomdotsizeEA","equaldotsize","equaldotanddens","randomdotsizeEA","randomdotsizeEA","randomdotsizeEA","equaldotsize","randomdotsizeEA","randomdotsizeEA","randomdotsizeEA","equaldotsize","randomdotsizeEA","equaldotsize","equaldotsize","equaldotsize","equaldotanddens","equaldotanddens","equaldotsize","equaldotsize","equaldotanddens","randomdotsizeEA","equaldotsize","randomdotsizeEA","equaldotsize","equaldotanddens","equaldotanddens","equaldotsize","equaldotsize","equaldotsize","equaldotsize","randomdotsizeEA","equaldotanddens","randomdotsizeEA","equaldotanddens","equaldotanddens","equaldotanddens","equaldotsize","equaldotanddens","randomdotsizeEA","equaldotsize","equaldotsize","randomdotsizeEA","equaldotanddens","randomdotsizeEA","equaldotsize","randomdotsizeEA","randomdotsizeEA","equaldotsize","equaldotanddens","randomdotsizeEA","randomdotsizeEA","equaldotsize","equaldotanddens","equaldotsize","equaldotsize","equaldotsize","randomdotsizeEA","equaldotsize","equaldotsize","equaldotanddens","equaldotanddens","equaldotanddens","equaldotanddens"],"ratio_trial":[500,500,500,900,750,900,250,750,250,500,750,900,250,750,750,250,900,250,750,750,900,750,900,250,900,500,500,250,500,500,500,250,900,900,250,250,250,750,500,250,750,900,250,500,500,250,900,250,250,500,250,500,250,500,500,750,500,250,900,750,750,250,900,900,750,750,900,250,250,900,250,500,900,900,750,900,250,500,900,750,500,900,750,900,500,900,250,900,500,750,250,900,750,250,250,900,900,500,750,500,500,900,500,900,500,750,250,500,750,250,750,750,750,750,500,750,900,750,500,750],"smaller_num":["3","9","1","18","6","18","2","3","3","5","6","18","4","3","6","6","9","4","15","3","18","3","18","3","18","5","5","2","9","9","9","2","9","18","6","6","2","12","4","2","3","18","4","2","2","3","9","4","2","5","2","5","2","2","2","18","9","2","9","18","6","3","18","18","3","15","18","3","3","9","3","1","18","18","3","18","6","1","18","15","2","18","3","9","9","18","3","9","9","3","3","18","15","1","5","18","18","6","6","6","9","18","1","18","6","3","4","1","6","2","3","6","6","6","10","3","9","6","9","9"],"larger_num":["6","18","2","20","8","20","8","4","12","10","8","20","16","4","8","24","10","16","20","4","20","4","20","12","20","10","10","8","18","18","18","8","10","20","24","24","8","16","8","8","4","20","16","4","4","12","10","16","8","10","8","10","8","4","4","24","18","8","10","24","8","12","20","20","4","20","20","12","12","10","12","2","20","20","4","20","24","2","20","20","4","20","4","10","18","20","12","10","18","4","12","20","20","4","20","20","20","12","8","12","18","20","2","20","12","4","16","2","8","8","4","8","8","8","20","4","10","8","18","12"],"correct_side":[2,1,2,1,1,1,1,1,2,2,1,1,1,2,1,1,2,2,2,1,1,2,2,2,1,1,1,1,1,1,2,1,2,2,2,1,1,2,1,2,1,2,1,1,1,2,2,1,1,1,1,2,1,1,2,1,1,1,1,1,2,2,1,1,1,2,2,1,1,2,1,2,1,1,2,1,1,2,2,2,1,1,1,2,2,1,1,1,2,1,1,1,1,2,2,2,2,1,1,1,1,1,2,1,1,1,2,2,1,1,1,1,1,1,2,2,2,2,2,2],"img_shown":["img/500/randomdotsizeEA/R/2_Ratio_500_L_3_R_6.png","img/500/equaldotanddens/L/4_Ratio_500_L_18_R_9.png","img/500/equaldotanddens/R/15_Ratio_500_L_1_R_2.png","img/900/equaldotanddens/L/4_Ratio_900_L_20_R_18.png","img/750/equaldotanddens/L/13_Ratio_750_L_8_R_6.png","img/900/equaldotanddens/L/8_Ratio_900_L_20_R_18.png","img/250/equaldotanddens/L/3_Ratio_250_L_8_R_2.png","img/750/randomdotsizeEA/L/10_Ratio_750_L_4_R_3.png","img/250/equaldotsize/R/4_Ratio_250_L_3_R_12.png","img/500/randomdotsizeEA/R/14_Ratio_500_L_5_R_10.png","img/750/randomdotsizeEA/L/14_Ratio_750_L_8_R_6.png","img/900/equaldotanddens/L/10_Ratio_900_L_20_R_18.png","img/250/equaldotanddens/L/2_Ratio_250_L_16_R_4.png","img/750/equaldotanddens/R/12_Ratio_750_L_3_R_4.png","img/750/equaldotsize/L/13_Ratio_750_L_8_R_6.png","img/250/equaldotanddens/L/5_Ratio_250_L_24_R_6.png","img/900/randomdotsizeEA/R/6_Ratio_900_L_9_R_10.png","img/250/equaldotsize/R/10_Ratio_250_L_4_R_16.png","img/750/randomdotsizeEA/R/5_Ratio_750_L_15_R_20.png","img/750/equaldotsize/L/10_Ratio_750_L_4_R_3.png","img/900/equaldotanddens/L/2_Ratio_900_L_20_R_18.png","img/750/equaldotanddens/R/7_Ratio_750_L_3_R_4.png","img/900/randomdotsizeEA/R/9_Ratio_900_L_18_R_20.png","img/250/equaldotsize/R/9_Ratio_250_L_3_R_12.png","img/900/equaldotsize/L/8_Ratio_900_L_20_R_18.png","img/500/equaldotanddens/L/7_Ratio_500_L_10_R_5.png","img/500/randomdotsizeEA/L/7_Ratio_500_L_10_R_5.png","img/250/equaldotanddens/L/7_Ratio_250_L_8_R_2.png","img/500/equaldotanddens/L/4_Ratio_500_L_18_R_9.png","img/500/equaldotanddens/L/4_Ratio_500_L_18_R_9.png","img/500/equaldotsize/R/1_Ratio_500_L_9_R_18.png","img/250/equaldotanddens/L/3_Ratio_250_L_8_R_2.png","img/900/equaldotanddens/R/5_Ratio_900_L_9_R_10.png","img/900/randomdotsizeEA/R/11_Ratio_900_L_18_R_20.png","img/250/randomdotsizeEA/R/6_Ratio_250_L_6_R_24.png","img/250/randomdotsizeEA/L/5_Ratio_250_L_24_R_6.png","img/250/equaldotsize/L/1_Ratio_250_L_8_R_2.png","img/750/equaldotsize/R/11_Ratio_750_L_12_R_16.png","img/500/randomdotsizeEA/L/8_Ratio_500_L_8_R_4.png","img/250/randomdotsizeEA/R/13_Ratio_250_L_2_R_8.png","img/750/equaldotanddens/L/9_Ratio_750_L_4_R_3.png","img/900/randomdotsizeEA/R/14_Ratio_900_L_18_R_20.png","img/250/equaldotsize/L/2_Ratio_250_L_16_R_4.png","img/500/randomdotsizeEA/L/10_Ratio_500_L_4_R_2.png","img/500/equaldotanddens/L/10_Ratio_500_L_4_R_2.png","img/250/randomdotsizeEA/R/11_Ratio_250_L_3_R_12.png","img/900/randomdotsizeEA/R/7_Ratio_900_L_9_R_10.png","img/250/randomdotsizeEA/L/2_Ratio_250_L_16_R_4.png","img/250/equaldotanddens/L/7_Ratio_250_L_8_R_2.png","img/500/equaldotanddens/L/7_Ratio_500_L_10_R_5.png","img/250/randomdotsizeEA/L/1_Ratio_250_L_8_R_2.png","img/500/equaldotsize/R/14_Ratio_500_L_5_R_10.png","img/250/equaldotsize/L/3_Ratio_250_L_8_R_2.png","img/500/randomdotsizeEA/L/5_Ratio_500_L_4_R_2.png","img/500/equaldotsize/R/9_Ratio_500_L_2_R_4.png","img/750/equaldotsize/L/6_Ratio_750_L_24_R_18.png","img/500/equaldotsize/L/4_Ratio_500_L_18_R_9.png","img/250/randomdotsizeEA/L/7_Ratio_250_L_8_R_2.png","img/900/equaldotsize/L/1_Ratio_900_L_10_R_9.png","img/750/equaldotanddens/L/6_Ratio_750_L_24_R_18.png","img/750/randomdotsizeEA/R/2_Ratio_750_L_6_R_8.png","img/250/randomdotsizeEA/R/4_Ratio_250_L_3_R_12.png","img/900/randomdotsizeEA/L/2_Ratio_900_L_20_R_18.png","img/900/equaldotsize/L/4_Ratio_900_L_20_R_18.png","img/750/randomdotsizeEA/L/8_Ratio_750_L_4_R_3.png","img/750/randomdotsizeEA/R/5_Ratio_750_L_15_R_20.png","img/900/randomdotsizeEA/R/12_Ratio_900_L_18_R_20.png","img/250/equaldotsize/L/14_Ratio_250_L_12_R_3.png","img/250/randomdotsizeEA/L/14_Ratio_250_L_12_R_3.png","img/900/equaldotsize/R/7_Ratio_900_L_9_R_10.png","img/250/equaldotsize/L/14_Ratio_250_L_12_R_3.png","img/500/equaldotsize/R/15_Ratio_500_L_1_R_2.png","img/900/equaldotanddens/L/10_Ratio_900_L_20_R_18.png","img/900/equaldotanddens/L/2_Ratio_900_L_20_R_18.png","img/750/equaldotsize/R/7_Ratio_750_L_3_R_4.png","img/900/equaldotsize/L/2_Ratio_900_L_20_R_18.png","img/250/equaldotanddens/L/5_Ratio_250_L_24_R_6.png","img/500/randomdotsizeEA/R/15_Ratio_500_L_1_R_2.png","img/900/equaldotsize/R/13_Ratio_900_L_18_R_20.png","img/750/randomdotsizeEA/R/4_Ratio_750_L_15_R_20.png","img/500/equaldotsize/L/10_Ratio_500_L_4_R_2.png","img/900/equaldotanddens/L/10_Ratio_900_L_20_R_18.png","img/750/equaldotanddens/L/9_Ratio_750_L_4_R_3.png","img/900/equaldotsize/R/5_Ratio_900_L_9_R_10.png","img/500/equaldotsize/R/1_Ratio_500_L_9_R_18.png","img/900/equaldotsize/L/8_Ratio_900_L_20_R_18.png","img/250/equaldotsize/L/15_Ratio_250_L_12_R_3.png","img/900/randomdotsizeEA/L/1_Ratio_900_L_10_R_9.png","img/500/equaldotanddens/R/1_Ratio_500_L_9_R_18.png","img/750/randomdotsizeEA/L/10_Ratio_750_L_4_R_3.png","img/250/equaldotanddens/L/15_Ratio_250_L_12_R_3.png","img/900/equaldotanddens/L/2_Ratio_900_L_20_R_18.png","img/750/equaldotanddens/L/1_Ratio_750_L_20_R_15.png","img/250/equaldotsize/R/8_Ratio_250_L_1_R_4.png","img/250/equaldotanddens/R/12_Ratio_250_L_5_R_20.png","img/900/randomdotsizeEA/R/12_Ratio_900_L_18_R_20.png","img/900/equaldotsize/R/12_Ratio_900_L_18_R_20.png","img/500/equaldotsize/L/11_Ratio_500_L_12_R_6.png","img/750/randomdotsizeEA/L/14_Ratio_750_L_8_R_6.png","img/500/equaldotanddens/L/11_Ratio_500_L_12_R_6.png","img/500/randomdotsizeEA/L/4_Ratio_500_L_18_R_9.png","img/900/equaldotsize/L/10_Ratio_900_L_20_R_18.png","img/500/randomdotsizeEA/R/15_Ratio_500_L_1_R_2.png","img/900/randomdotsizeEA/L/2_Ratio_900_L_20_R_18.png","img/500/equaldotsize/L/11_Ratio_500_L_12_R_6.png","img/750/equaldotanddens/L/9_Ratio_750_L_4_R_3.png","img/250/randomdotsizeEA/R/10_Ratio_250_L_4_R_16.png","img/500/randomdotsizeEA/R/15_Ratio_500_L_1_R_2.png","img/750/equaldotsize/L/13_Ratio_750_L_8_R_6.png","img/250/equaldotanddens/L/3_Ratio_250_L_8_R_2.png","img/750/equaldotsize/L/8_Ratio_750_L_4_R_3.png","img/750/equaldotsize/L/13_Ratio_750_L_8_R_6.png","img/750/equaldotsize/L/14_Ratio_750_L_8_R_6.png","img/750/randomdotsizeEA/L/14_Ratio_750_L_8_R_6.png","img/500/equaldotsize/R/3_Ratio_500_L_10_R_20.png","img/750/equaldotsize/R/12_Ratio_750_L_3_R_4.png","img/900/equaldotanddens/R/7_Ratio_900_L_9_R_10.png","img/750/equaldotanddens/R/2_Ratio_750_L_6_R_8.png","img/500/equaldotanddens/R/1_Ratio_500_L_9_R_18.png","img/750/equaldotanddens/R/15_Ratio_750_L_9_R_12.png"],"Rat0":[["12_Ratio_0_L_9_R_0.png","13_Ratio_0_L_6_R_0.png","5_Ratio_0_L_2_R_0.png","6_Ratio_0_L_4_R_0.png","8_Ratio_0_L_6_R_0.png"],["1_Ratio_0_L_0_R_17.png","10_Ratio_0_L_0_R_22.png","11_Ratio_0_L_0_R_1.png","14_Ratio_0_L_0_R_24.png","15_Ratio_0_L_0_R_4.png","2_Ratio_0_L_0_R_5.png","3_Ratio_0_L_0_R_17.png","4_Ratio_0_L_0_R_7.png","7_Ratio_0_L_0_R_19.png","9_Ratio_0_L_0_R_15.png"]],"Rat250":[["1_Ratio_250_L_8_R_2.png","14_Ratio_250_L_12_R_3.png","15_Ratio_250_L_12_R_3.png","2_Ratio_250_L_16_R_4.png","3_Ratio_250_L_8_R_2.png","5_Ratio_250_L_24_R_6.png","7_Ratio_250_L_8_R_2.png"],["10_Ratio_250_L_4_R_16.png","11_Ratio_250_L_3_R_12.png","12_Ratio_250_L_5_R_20.png","13_Ratio_250_L_2_R_8.png","4_Ratio_250_L_3_R_12.png","6_Ratio_250_L_6_R_24.png","8_Ratio_250_L_1_R_4.png","9_Ratio_250_L_3_R_12.png"]],"Rat500":[["10_Ratio_500_L_4_R_2.png","11_Ratio_500_L_12_R_6.png","13_Ratio_500_L_12_R_6.png","4_Ratio_500_L_18_R_9.png","5_Ratio_500_L_4_R_2.png","7_Ratio_500_L_10_R_5.png","8_Ratio_500_L_8_R_4.png"],["1_Ratio_500_L_9_R_18.png","12_Ratio_500_L_1_R_2.png","14_Ratio_500_L_5_R_10.png","15_Ratio_500_L_1_R_2.png","2_Ratio_500_L_3_R_6.png","3_Ratio_500_L_10_R_20.png","6_Ratio_500_L_9_R_18.png","9_Ratio_500_L_2_R_4.png"]],"Rat750":[["1_Ratio_750_L_20_R_15.png","10_Ratio_750_L_4_R_3.png","13_Ratio_750_L_8_R_6.png","14_Ratio_750_L_8_R_6.png","6_Ratio_750_L_24_R_18.png","8_Ratio_750_L_4_R_3.png","9_Ratio_750_L_4_R_3.png"],["11_Ratio_750_L_12_R_16.png","12_Ratio_750_L_3_R_4.png","15_Ratio_750_L_9_R_12.png","2_Ratio_750_L_6_R_8.png","3_Ratio_750_L_15_R_20.png","4_Ratio_750_L_15_R_20.png","5_Ratio_750_L_15_R_20.png","7_Ratio_750_L_3_R_4.png"]],"Rat900":[["1_Ratio_900_L_10_R_9.png","10_Ratio_900_L_20_R_18.png","2_Ratio_900_L_20_R_18.png","4_Ratio_900_L_20_R_18.png","8_Ratio_900_L_20_R_18.png"],["11_Ratio_900_L_18_R_20.png","12_Ratio_900_L_18_R_20.png","13_Ratio_900_L_18_R_20.png","14_Ratio_900_L_18_R_20.png","15_Ratio_900_L_9_R_10.png","3_Ratio_900_L_9_R_10.png","5_Ratio_900_L_9_R_10.png","6_Ratio_900_L_9_R_10.png","7_Ratio_900_L_9_R_10.png","9_Ratio_900_L_18_R_20.png"]],"Rat1000":[["10_Ratio_1000_L_16_R_16.png","11_Ratio_1000_L_6_R_6.png","12_Ratio_1000_L_14_R_14.png","13_Ratio_1000_L_20_R_20.png","15_Ratio_1000_L_15_R_15.png","2_Ratio_1000_L_17_R_17.png","4_Ratio_1000_L_9_R_9.png","5_Ratio_1000_L_6_R_6.png","6_Ratio_1000_L_19_R_19.png","8_Ratio_1000_L_14_R_14.png","9_Ratio_1000_L_25_R_25.png"],["1_Ratio_1000_L_1_R_1.png","14_Ratio_1000_L_17_R_17.png","3_Ratio_1000_L_17_R_17.png","7_Ratio_1000_L_6_R_6.png"]]}},{"start_time":1551887835605,"click_time":1551887836843,"finger_time":1551887836502,"fix_duration":620.3535641336175,"trial":1,"RT":897,"MT":341,"sideResp":1,"stimulus":"img/500/equaldotanddens/L/4_Ratio_500_L_18_R_9.png","xmouse":[814,814,814,814,814,814,814,814,814,814,814,814,814,814,814,814,814,814,814,814,814,814,814,814,814,814,814,814,814,814,814,814,814,814,814,814,814,814,814,814,814,809,797,746,710,677,648,623,575,551,543,540,538,535,535,533,531,528,521,517,512,505],"ymouse":[524,524,524,524,524,524,524,524,524,524,524,524,524,524,524,524,524,524,524,524,524,524,524,524,524,524,524,524,524,524,524,524,524,524,524,524,524,524,524,524,524,523,519,485,459,430,395,350,274,240,227,221,215,205,199,185,168,152,127,119,109,98],"timestamp_mouse":[18,43,57,77,98,117,139,158,177,197,217,237,259,278,298,319,338,357,377,398,417,438,457,478,497,517,537,558,577,597,618,638,658,677,697,717,737,757,778,797,817,837,857,877,897,917,937,957,977,997,1017,1037,1057,1077,1097,1117,1138,1158,1178,1198,1217,1238],"xSR":741.5,"ySR":469.95,"xT1":424.9,"yT1":0,"xT2":1058.1,"yT2":0,"toosoon":0,"cond_shown":"equaldotanddens","ratio_trial":500,"smaller_num":"9","larger_num":"18","correct_side":1,"subjID":"Tomas_Felipe_Contreras_Duarte_39","gender":"0","age":"11","school":"sexto"},{"start_time":1551887838067,"click_time":1551887839062,"finger_time":1551887838762,"fix_duration":283.312069321911,"trial":2,"RT":695,"MT":300,"sideResp":2,"stimulus":"img/500/equaldotanddens/R/15_Ratio_500_L_1_R_2.png","xmouse":[758,758,758,758,758,758,758,758,758,758,758,758,758,758,758,758,758,758,758,758,758,758,758,758,758,758,758,758,758,758,758,758,769,794,842,892,917,935,955,976,1013,1022,1025,1027,1027,1043,1058,1064,1068,1073],"ymouse":[502,502,502,502,502,502,502,502,502,502,502,502,502,502,502,502,502,502,502,502,502,502,502,502,502,502,502,502,502,502,502,502,499,476,410,311,244,201,180,163,140,137,135,134,134,119,107,104,101,95],"timestamp_mouse":[34,35,56,77,95,116,135,156,176,196,215,236,256,276,296,316,336,356,376,395,416,436,456,477,495,517,535,555,576,595,615,635,656,675,695,715,735,755,775,796,816,835,855,877,895,915,935,955,975,995],"xSR":741.5,"ySR":469.95,"xT1":424.9,"yT1":0,"xT2":1058.1,"yT2":0,"toosoon":0,"cond_shown":"equaldotanddens","ratio_trial":500,"smaller_num":"1","larger_num":"2","correct_side":2,"subjID":"Tomas_Felipe_Contreras_Duarte_39","gender":"0","age":"11","school":"sexto"},{"start_time":1551887841261,"click_time":1551887842462,"finger_time":1551887841982,"fix_duration":1356.071188287955,"trial":3,"RT":721,"MT":480,"sideResp":2,"stimulus":"img/900/equaldotanddens/L/4_Ratio_900_L_20_R_18.png","xmouse":[819,819,819,819,819,819,819,819,819,819,819,819,819,819,819,819,819,819,819,819,819,819,819,819,819,819,819,819,819,819,819,819,819,818,812,775,748,721,718,718,718,728,746,766,796,838,927,976,997,1011,1023,1042,1042,1042,1042,1042,1042,1042,1042,1042,1068],"ymouse":[511,511,511,511,511,511,511,511,511,511,511,511,511,511,511,511,511,511,511,511,511,511,511,511,511,511,511,511,511,511,511,511,511,510,504,472,445,424,421,421,421,412,393,371,334,281,179,119,84,60,39,1,1,1,1,1,1,1,1,1,4],"timestamp_mouse":[8,22,43,62,81,101,121,142,161,181,202,221,241,262,281,301,322,341,362,382,401,421,442,462,481,501,521,541,562,581,601,622,641,661,682,701,721,741,762,781,801,821,841,861,881,902,922,941,961,981,1002,1021,1041,1062,1082,1102,1122,1142,1161,1182,1201],"xSR":741.5,"ySR":469.95,"xT1":424.9,"yT1":0,"xT2":1058.1,"yT2":0,"toosoon":0,"cond_shown":"equaldotanddens","ratio_trial":900,"smaller_num":"18","larger_num":"20","correct_side":1,"subjID":"Tomas_Felipe_Contreras_Duarte_39","gender":"0","age":"11","school":"sexto"},{"start_time":1551887848475,"click_time":1551887849682,"finger_time":1551887849462,"fix_duration":250,"trial":4,"RT":987,"MT":220,"sideResp":1,"stimulus":"img/750/equaldotanddens/L/13_Ratio_750_L_8_R_6.png","xmouse":[802,802,802,802,802,802,802,802,802,802,802,802,802,802,802,802,802,802,802,802,802,802,802,802,802,802,802,802,802,802,802,802,802,802,802,802,802,802,802,802,802,802,802,802,802,802,802,799,783,736,598,558,538,522,509,475,457,448,444,443,451],"ymouse":[503,503,503,503,503,503,503,503,503,503,503,503,503,503,503,503,503,503,503,503,503,503,503,503,503,503,503,503,503,503,503,503,503,503,503,503,503,503,503,503,503,503,503,503,503,503,503,503,503,491,464,447,410,358,314,233,178,147,125,104,74],"timestamp_mouse":[8,37,47,67,88,107,127,148,167,187,207,227,247,268,288,308,327,349,368,388,408,428,448,468,487,508,528,547,567,587,607,627,647,669,687,707,727,747,767,788,808,827,848,869,888,907,927,947,967,987,1007,1027,1047,1068,1087,1107,1128,1147,1167,1187,1207],"xSR":741.5,"ySR":469.95,"xT1":424.9,"yT1":0,"xT2":1058.1,"yT2":0,"toosoon":0,"cond_shown":"equaldotanddens","ratio_trial":750,"smaller_num":"6","larger_num":"8","correct_side":1,"subjID":"Tomas_Felipe_Contreras_Duarte_39","gender":"0","age":"11","school":"sexto"},{"start_time":1551887851442,"click_time":1551887854183,"finger_time":1551887853323,"fix_duration":737.7341699390004,"trial":5,"RT":1881,"MT":860,"sideResp":1,"stimulus":"img/900/equaldotanddens/L/8_Ratio_900_L_20_R_18.png","xmouse":[785,785,785,785,785,785,785,785,785,785,785,785,785,785,785,785,785,785,785,785,785,785,785,785,785,785,785,785,785,785,785,785,785,785,785,785,785,785,785,785,785,785,785,785,785,785,785,785,785,785,785,785,785,785,785,785,785,785,785,785,785,785,785,785,785,785,785,785,785,785,785,785,785,785,785,785,785,785,785,785,785,785,785,785,785,785,785,785,785,785,785,785,786,769,715,654,600,513,487,468,463,462,449,441,435,430,427,425,424,424,424,424,423,423,423,422,422,422,422,422,422,422,422,422,422,422,422,422,422,422,422,422,422,422,422,422,422,427],"ymouse":[520,520,520,520,520,520,520,520,520,520,520,520,520,520,520,520,520,520,520,520,520,520,520,520,520,520,520,520,520,520,520,520,520,520,520,520,520,520,520,520,520,520,520,520,520,520,520,520,520,520,520,520,520,520,520,520,520,520,520,520,520,520,520,520,520,520,520,520,520,520,520,520,520,520,520,520,520,520,520,520,520,520,520,520,520,520,520,520,520,520,520,520,519,507,484,458,437,397,381,354,334,308,244,222,203,185,175,160,154,152,148,143,134,133,131,130,130,127,125,124,122,121,119,118,117,116,116,116,116,116,116,116,116,116,114,105,96,73],"timestamp_mouse":[8,20,40,60,81,100,120,140,160,180,201,220,241,261,280,301,321,340,360,381,400,421,440,461,481,501,520,542,561,580,601,620,641,661,680,701,721,740,760,781,800,821,841,860,881,900,920,940,960,980,1000,1020,1040,1060,1080,1100,1121,1140,1161,1180,1200,1220,1241,1261,1281,1301,1322,1340,1360,1381,1400,1420,1441,1461,1481,1500,1520,1540,1560,1581,1600,1621,1640,1660,1681,1700,1721,1740,1761,1781,1800,1820,1840,1860,1881,1901,1920,1940,1961,1980,2001,2021,2041,2060,2080,2100,2121,2140,2160,2180,2200,2220,2240,2260,2281,2300,2321,2340,2361,2380,2400,2420,2440,2461,2480,2500,2521,2541,2561,2581,2600,2620,2640,2661,2680,2700,2721,2740],"xSR":741.5,"ySR":469.95,"xT1":424.9,"yT1":0,"xT2":1058.1,"yT2":0,"toosoon":0,"cond_shown":"equaldotanddens","ratio_trial":900,"smaller_num":"18","larger_num":"20","correct_side":1,"subjID":"Tomas_Felipe_Contreras_Duarte_39","gender":"0","age":"11","school":"sexto"},{"start_time":1551887855534,"click_time":1551887856363,"finger_time":1551887856282,"fix_duration":250,"trial":6,"RT":748,"MT":81,"sideResp":1,"stimulus":"img/250/equaldotanddens/L/3_Ratio_250_L_8_R_2.png","xmouse":[783,783,783,783,783,783,783,783,783,783,783,783,783,783,783,783,783,783,783,783,783,783,783,783,783,783,783,783,783,783,783,783,783,783,783,783,778,764,673,596,512,449],"ymouse":[515,515,515,515,515,515,515,515,515,515,515,515,515,515,515,515,515,515,515,515,515,515,515,515,515,515,515,515,515,515,515,515,515,515,515,514,497,468,308,219,127,55],"timestamp_mouse":[12,36,48,69,88,109,128,148,168,188,208,228,248,269,289,310,329,349,368,388,410,429,450,468,488,509,528,548,568,590,609,629,649,668,689,708,728,748,768,788,808,829],"xSR":741.5,"ySR":469.95,"xT1":424.9,"yT1":0,"xT2":1058.1,"yT2":0,"toosoon":0,"cond_shown":"equaldotanddens","ratio_trial":250,"smaller_num":"2","larger_num":"8","correct_side":1,"subjID":"Tomas_Felipe_Contreras_Duarte_39","gender":"0","age":"11","school":"sexto"},{"start_time":1551887857833,"click_time":1551887859222,"finger_time":1551887858762,"fix_duration":709.4078075202522,"trial":7,"RT":929,"MT":460,"sideResp":2,"stimulus":"img/750/randomdotsizeEA/L/10_Ratio_750_L_4_R_3.png","xmouse":[805,805,805,805,805,805,805,805,805,805,805,805,805,805,805,805,805,805,805,805,805,805,805,805,805,805,805,805,805,805,805,805,805,805,805,805,805,805,805,805,805,805,805,805,814,824,835,859,919,957,972,982,987,987,987,987,987,991,998,999,1007,1014,1029,1029,1029,1029,1029,1033,1058,1090],"ymouse":[516,516,516,516,516,516,516,516,516,516,516,516,516,516,516,516,516,516,516,516,516,516,516,516,516,516,516,516,516,516,516,516,516,516,516,516,516,516,516,516,516,516,516,514,496,473,452,415,323,240,204,184,166,165,165,165,165,155,142,138,126,119,114,114,114,114,114,112,107,99],"timestamp_mouse":[9,32,49,69,90,109,130,149,170,190,210,230,249,270,289,309,329,349,370,391,410,430,449,469,489,510,529,549,570,589,610,629,649,669,689,709,729,749,770,790,811,829,849,869,890,910,929,949,970,989,1009,1030,1049,1069,1089,1110,1130,1149,1170,1190,1210,1229,1249,1269,1289,1309,1329,1349,1369,1389],"xSR":741.5,"ySR":469.95,"xT1":424.9,"yT1":0,"xT2":1058.1,"yT2":0,"toosoon":0,"cond_shown":"randomdotsizeEA","ratio_trial":750,"smaller_num":"3","larger_num":"4","correct_side":1,"subjID":"Tomas_Felipe_Contreras_Duarte_39","gender":"0","age":"11","school":"sexto"},{"start_time":1551887860254,"click_time":1551887861122,"finger_time":1551887861042,"fix_duration":250,"trial":8,"RT":788,"MT":80,"sideResp":2,"stimulus":"img/250/equaldotsize/R/4_Ratio_250_L_3_R_12.png","xmouse":[797,797,797,797,797,797,797,797,797,797,797,797,797,797,797,797,797,797,797,797,797,797,797,797,797,797,797,797,797,797,797,797,797,797,797,797,797,797,800,841,892,992,1041,1078],"ymouse":[501,501,501,501,501,501,501,501,501,501,501,501,501,501,501,501,501,501,501,501,501,501,501,501,501,501,501,501,501,501,501,501,501,501,501,501,501,498,492,445,390,243,151,62],"timestamp_mouse":[8,37,48,68,88,108,128,150,168,189,209,230,248,268,288,309,330,348,368,388,408,428,448,469,488,509,529,550,568,588,608,628,649,669,689,708,728,748,768,788,809,829,848,868],"xSR":741.5,"ySR":469.95,"xT1":424.9,"yT1":0,"xT2":1058.1,"yT2":0,"toosoon":0,"cond_shown":"equaldotsize","ratio_trial":250,"smaller_num":"3","larger_num":"12","correct_side":2,"subjID":"Tomas_Felipe_Contreras_Duarte_39","gender":"0","age":"11","school":"sexto"},{"start_time":1551887862600,"click_time":1551887864222,"finger_time":1551887863822,"fix_duration":375.578305352678,"trial":9,"RT":1222,"MT":400,"sideResp":2,"stimulus":"img/500/randomdotsizeEA/R/14_Ratio_500_L_5_R_10.png","xmouse":[795,795,795,795,795,795,795,795,795,795,795,795,795,795,795,795,795,795,795,795,795,795,795,795,795,795,795,795,795,795,795,795,795,795,795,795,795,795,795,795,795,795,795,795,795,795,795,795,795,795,795,795,795,795,795,795,795,795,795,795,813,889,960,1031,1105,1118,1119,1117,1110,1089,1063,1058,1056,1054,1054,1054,1054,1054,1054,1060,1066,1078],"ymouse":[499,499,499,499,499,499,499,499,499,499,499,499,499,499,499,499,499,499,499,499,499,499,499,499,499,499,499,499,499,499,499,499,499,499,499,499,499,499,499,499,499,499,499,499,499,499,499,499,499,499,499,499,499,499,499,499,499,499,499,499,481,409,340,271,171,142,135,131,128,127,127,127,127,127,127,127,127,127,119,109,101,77],"timestamp_mouse":[8,33,42,62,82,102,122,143,163,183,203,223,243,262,284,302,323,342,364,383,403,423,442,462,483,502,522,544,562,582,602,622,643,662,683,703,722,743,764,783,802,822,842,863,882,903,924,942,962,982,1002,1023,1043,1062,1082,1103,1122,1143,1163,1182,1202,1222,1243,1262,1282,1302,1322,1343,1363,1382,1402,1422,1443,1462,1483,1502,1522,1542,1562,1583,1602,1622],"xSR":741.5,"ySR":469.95,"xT1":424.9,"yT1":0,"xT2":1058.1,"yT2":0,"toosoon":0,"cond_shown":"randomdotsizeEA","ratio_trial":500,"smaller_num":"5","larger_num":"10","correct_side":2,"subjID":"Tomas_Felipe_Contreras_Duarte_39","gender":"0","age":"11","school":"sexto"},{"start_time":1551887865353,"click_time":1551887866604,"finger_time":1551887866182,"fix_duration":250,"trial":10,"RT":829,"MT":422,"sideResp":1,"stimulus":"img/750/randomdotsizeEA/L/14_Ratio_750_L_8_R_6.png","xmouse":[792,792,792,792,792,792,792,792,792,792,792,792,792,792,792,792,792,792,792,792,792,792,792,792,792,792,792,792,792,792,792,792,792,792,792,792,792,792,792,783,748,713,648,632,623,613,599,592,586,577,571,563,563,563,563,563,563,563,563,560,554,535,485],"ymouse":[519,519,519,519,519,519,519,519,519,519,519,519,519,519,519,519,519,519,519,519,519,519,519,519,519,519,519,519,519,519,519,519,519,519,519,519,519,519,518,513,494,459,326,281,249,216,161,137,117,99,88,80,80,80,80,80,80,80,80,79,78,76,73],"timestamp_mouse":[9,33,50,70,89,110,130,151,170,189,209,229,249,270,291,309,329,351,369,390,410,430,449,469,491,509,529,549,571,589,610,629,650,671,689,710,729,749,770,789,810,829,849,869,889,909,930,949,969,990,1010,1030,1049,1070,1090,1109,1129,1150,1169,1190,1210,1229,1250],"xSR":741.5,"ySR":469.95,"xT1":424.9,"yT1":0,"xT2":1058.1,"yT2":0,"toosoon":0,"cond_shown":"randomdotsizeEA","ratio_trial":750,"smaller_num":"6","larger_num":"8","correct_side":1,"subjID":"Tomas_Felipe_Contreras_Duarte_39","gender":"0","age":"11","school":"sexto"},{"start_time":1551887867733,"click_time":1551887880422,"finger_time":1551887879343,"fix_duration":250,"trial":11,"RT":11610,"MT":1079,"sideResp":1,"stimulus":"img/900/equaldotanddens/L/10_Ratio_900_L_20_R_18.png","xmouse":[803,803,802,799,798,797,797,797,797,797,797,797,797,797,797,797,797,797,797,797,797,797,797,797,797,797,797,797,797,797,797,797,797,797,797,797,797,797,797,797,797,797,797,797,797,797,797,797,797,797,797,797,797,797,797,797,797,797,797,797,797,797,797,797,797,797,797,797,797,797,797,797,797,797,797,797,797,797,797,797,797,797,797,797,797,797,797,797,797,797,797,797,797,797,797,797,797,797,797,797,797,797,797,797,797,797,797,797,797,797,797,797,797,797,797,797,797,797,797,797,797,797,797,797,797,797,797,797,797,797,797,797,797,797,797,797,797,797,797,797,797,797,797,797,797,797,797,797,797,797,797,797,797,797,797,797,797,797,797,797,797,797,797,797,797,797,797,797,797,797,797,797,797,797,797,797,797,797,797,797,797,797,797,797,797,797,797,797,797,797,797,797,797,797,797,797,797,797,797,797,797,797,797,797,797,797,797,797,797,797,797,797,797,797,797,797,797,797,797,797,797,797,797,797,797,797,797,797,797,797,797,797,797,797,797,797,797,797,797,797,797,797,797,797,797,797,797,797,797,797,797,797,797,797,797,797,797,797,797,797,797,797,797,797,797,797,797,797,797,797,797,797,797,797,797,797,797,797,797,797,797,797,797,797,797,797,797,797,797,797,797,797,797,797,797,797,797,797,797,797,797,797,797,797,797,797,797,797,797,797,797,797,797,797,797,797,797,797,797,797,797,797,797,797,797,797,797,797,797,797,797,797,797,797,797,797,797,797,797,797,797,797,797,797,797,797,797,797,797,797,797,797,797,797,797,797,797,797,797,797,797,797,797,797,797,797,797,797,797,797,797,797,797,797,797,797,797,797,797,797,797,797,797,797,797,797,797,797,797,797,797,797,797,797,797,797,797,797,797,797,797,797,797,797,797,797,797,797,797,797,797,797,797,797,797,797,797,797,791,788,788,788,788,788,788,788,788,788,788,788,788,788,788,788,788,788,788,788,788,788,788,788,788,788,788,788,788,788,788,788,788,788,788,788,788,788,788,788,788,788,788,788,788,788,788,788,788,788,788,788,788,788,788,788,788,788,788,788,788,788,788,788,788,788,788,788,788,788,788,788,788,788,788,788,788,788,788,788,788,788,788,788,788,788,788,788,788,788,788,788,788,788,788,788,788,788,788,788,783,781,781,781,781,781,781,781,781,781,781,781,781,780,778,771,768,766,764,760,760,760,760,766,770,771,773,775,776,776,776,776,776,776,776,776,776,776,776,775,775,775,775,775,775,775,775,775,775,775,775,772,771,769,762,761,761,761,761,755,751,745,738,717,673,653,612,586,559,527,514,502,491,482,475,474,474,474,471,465,464,462,461,461,460,460,459,458,456,443,427,405,384,369,361,361,361,361,361,361,361,361,361,361,361,367,373,379,385,393,393,394,396,400,413,420,425],"ymouse":[525,525,524,524,522,521,521,521,521,521,521,521,521,521,521,521,521,521,521,521,521,521,521,521,521,521,521,521,521,521,521,521,521,521,521,521,521,521,521,521,521,521,521,521,521,521,521,521,521,521,521,521,521,521,521,521,521,521,521,521,521,521,521,521,521,521,521,521,521,521,521,521,521,521,521,521,521,521,521,521,521,521,521,521,521,521,521,521,521,521,521,521,521,521,521,521,521,521,521,521,521,521,521,521,521,521,521,521,521,521,521,521,521,521,521,521,521,521,521,521,521,521,521,521,521,521,521,521,521,521,521,521,521,521,521,521,521,521,521,521,521,521,521,521,521,521,521,521,521,521,521,521,521,521,521,521,521,521,521,521,521,521,521,521,521,521,521,521,521,521,521,521,521,521,521,521,521,521,521,521,521,521,521,521,521,521,521,521,521,521,521,521,521,521,521,521,521,521,521,521,521,521,521,521,521,521,521,521,521,521,521,521,521,521,521,521,521,521,521,521,521,521,521,521,521,521,521,521,521,521,521,521,521,521,521,521,521,521,521,521,521,521,521,521,521,521,521,521,521,521,521,521,521,521,521,521,521,521,521,521,521,521,521,521,521,521,521,521,521,521,521,521,521,521,521,521,521,521,521,521,521,521,521,521,521,521,521,521,521,521,521,521,521,521,521,521,521,521,521,521,521,521,521,521,521,521,521,521,521,521,521,521,521,521,521,521,521,521,521,521,521,521,521,521,521,521,521,521,521,521,521,521,521,521,521,521,521,521,521,521,521,521,521,521,521,521,521,521,521,521,521,521,521,521,521,521,521,521,521,521,521,521,521,521,521,521,521,521,521,521,521,521,521,521,521,521,521,521,521,521,521,521,521,521,521,521,521,521,521,521,521,521,521,521,521,521,521,521,521,521,521,521,521,521,521,521,521,521,521,521,521,521,521,521,521,521,521,521,521,521,521,522,522,522,522,522,522,522,522,522,522,522,522,522,522,522,522,522,522,522,522,522,522,522,522,522,522,522,522,522,522,522,522,522,522,522,522,522,522,522,522,522,522,522,522,522,522,522,522,522,522,522,522,522,522,522,522,522,522,522,522,522,522,522,522,522,522,522,522,522,522,522,522,522,522,522,522,522,522,522,522,522,522,522,522,522,522,522,522,522,522,522,522,522,522,522,522,522,522,522,522,522,522,522,522,522,522,522,522,522,522,522,521,511,508,507,504,493,492,492,492,491,499,506,516,522,527,528,528,528,528,528,529,529,531,531,531,532,532,532,532,532,532,532,532,532,532,532,532,530,530,528,520,516,515,515,514,503,496,489,481,464,438,422,393,370,347,307,285,264,243,229,206,196,184,174,168,152,146,142,140,138,137,137,136,134,131,122,113,106,99,95,93,93,93,93,93,93,93,93,93,93,95,103,107,111,112,113,113,113,113,114,108,102,91],"timestamp_mouse":[11,29,49,69,90,109,129,150,171,195,210,230,249,271,290,310,330,350,370,391,409,431,449,470,490,509,530,550,571,590,609,629,651,669,689,709,731,749,769,789,810,829,850,869,889,909,931,950,969,991,1011,1031,1050,1070,1090,1109,1129,1149,1169,1189,1209,1230,1249,1270,1289,1309,1330,1350,1370,1390,1410,1430,1450,1469,1489,1509,1530,1549,1570,1590,1610,1630,1649,1670,1689,1709,1730,1749,1770,1791,1810,1830,1849,1870,1891,1910,1930,1950,1970,1990,2010,2031,2049,2071,2090,2109,2130,2150,2169,2189,2209,2230,2250,2270,2290,2309,2331,2350,2370,2390,2410,2429,2449,2470,2490,2509,2529,2550,2570,2590,2609,2631,2649,2669,2689,2709,2730,2751,2770,2789,2810,2830,2850,2871,2889,2909,2931,2951,2969,2990,3010,3030,3050,3070,3091,3109,3130,3150,3169,3189,3210,3230,3250,3270,3289,3309,3329,3349,3370,3389,3411,3431,3449,3470,3490,3511,3530,3550,3569,3589,3610,3631,3649,3669,3689,3709,3729,3749,3770,3790,3810,3830,3849,3869,3890,3909,3929,3950,3969,3989,4010,4029,4049,4069,4090,4110,4131,4149,4169,4189,4209,4230,4249,4270,4289,4310,4329,4349,4370,4389,4409,4430,4449,4470,4489,4509,4531,4550,4570,4589,4609,4629,4649,4670,4690,4710,4730,4749,4770,4790,4810,4830,4849,4869,4890,4911,4929,4949,4970,4991,5011,5031,5049,5069,5090,5111,5129,5149,5171,5191,5210,5230,5250,5270,5289,5309,5330,5351,5370,5390,5409,5429,5450,5469,5490,5511,5530,5550,5570,5590,5610,5630,5650,5670,5690,5709,5730,5750,5769,5790,5811,5829,5850,5869,5890,5910,5930,5950,5970,5990,6009,6030,6049,6070,6089,6110,6129,6150,6170,6190,6210,6230,6250,6269,6290,6309,6330,6350,6369,6390,6410,6430,6450,6469,6490,6509,6530,6550,6569,6589,6610,6630,6649,6669,6691,6710,6730,6750,6769,6789,6809,6829,6849,6871,6889,6909,6930,6949,6970,6990,7009,7029,7050,7069,7089,7109,7129,7150,7169,7190,7209,7230,7249,7269,7290,7310,7329,7349,7369,7390,7409,7431,7450,7469,7490,7509,7529,7549,7570,7589,7609,7629,7649,7669,7690,7709,7729,7749,7769,7789,7810,7829,7850,7869,7889,7909,7930,7950,7970,7990,8009,8029,8050,8069,8089,8109,8129,8149,8170,8189,8209,8229,8250,8269,8289,8310,8330,8349,8369,8389,8409,8429,8449,8471,8490,8510,8529,8549,8570,8589,8610,8631,8649,8670,8689,8709,8729,8751,8769,8790,8809,8830,8850,8871,8889,8911,8929,8949,8970,8989,9009,9029,9049,9071,9090,9109,9129,9150,9170,9189,9210,9229,9250,9269,9289,9311,9329,9350,9369,9390,9409,9431,9449,9471,9489,9510,9530,9549,9569,9589,9609,9630,9649,9670,9690,9709,9730,9749,9769,9790,9810,9829,9849,9869,9891,9909,9931,9949,9970,9991,10010,10031,10050,10070,10089,10109,10129,10150,10170,10189,10209,10229,10250,10269,10289,10310,10330,10349,10369,10390,10411,10431,10449,10470,10491,10511,10530,10549,10569,10590,10611,10630,10649,10669,10690,10710,10729,10749,10771,10790,10809,10829,10849,10870,10889,10909,10930,10950,10970,10989,11009,11029,11050,11070,11090,11111,11129,11150,11169,11190,11210,11229,11250,11270,11306,11310,11330,11349,11369,11389,11410,11429,11449,11470,11490,11509,11529,11549,11569,11589,11610,11629,11649,11669,11689,11709,11730,11749,11769,11789,11809,11829,11850,11870,11889,11909,11929,11949,11969,11989,12009,12029,12050,12070,12089,12109,12129,12149,12169,12189,12209,12229,12249,12270,12289,12309,12329,12350,12370,12389,12410,12431,12449,12469,12489,12509,12529,12550,12570,12589,12609,12629,12649,12669,12689],"xSR":741.5,"ySR":469.95,"xT1":424.9,"yT1":0,"xT2":1058.1,"yT2":0,"toosoon":0,"cond_shown":"equaldotanddens","ratio_trial":900,"smaller_num":"18","larger_num":"20","correct_side":1,"subjID":"Tomas_Felipe_Contreras_Duarte_39","gender":"0","age":"11","school":"sexto"},{"start_time":1551887884433,"click_time":1551887885622,"finger_time":1551887885342,"fix_duration":250,"trial":12,"RT":909,"MT":280,"sideResp":1,"stimulus":"img/250/equaldotanddens/L/2_Ratio_250_L_16_R_4.png","xmouse":[777,777,777,777,777,777,777,777,777,777,777,777,777,777,777,777,777,777,777,777,777,777,777,777,777,777,777,777,777,777,777,777,777,777,777,777,777,777,777,777,777,775,769,761,749,728,708,663,622,594,576,564,546,538,529,523,515,501,493,489],"ymouse":[538,538,538,538,538,538,538,538,538,538,538,538,538,538,538,538,538,538,538,538,538,538,538,538,538,538,538,538,538,538,538,538,538,538,538,538,538,538,538,538,538,539,538,528,515,497,473,403,331,292,268,249,214,195,174,158,141,113,100,94],"timestamp_mouse":[9,32,48,69,90,110,130,148,169,189,210,229,250,269,290,309,329,350,369,389,409,430,450,470,489,510,529,550,569,590,609,630,649,669,690,709,730,749,769,789,810,829,849,868,889,909,929,949,969,989,1011,1029,1049,1069,1089,1108,1129,1149,1170,1189],"xSR":741.5,"ySR":469.95,"xT1":424.9,"yT1":0,"xT2":1058.1,"yT2":0,"toosoon":0,"cond_shown":"equaldotanddens","ratio_trial":250,"smaller_num":"4","larger_num":"16","correct_side":1,"subjID":"Tomas_Felipe_Contreras_Duarte_39","gender":"0","age":"11","school":"sexto"},{"start_time":1551887895467,"click_time":1551887896682,"finger_time":1551887896382,"fix_duration":1363.5018338989235,"trial":13,"RT":915,"MT":300,"sideResp":2,"stimulus":"img/750/equaldotanddens/R/12_Ratio_750_L_3_R_4.png","xmouse":[793,793,793,793,793,793,793,793,793,793,793,793,793,793,793,793,793,793,793,793,793,793,793,793,793,793,793,793,793,793,793,793,793,793,793,793,793,793,793,793,793,793,793,793,794,802,804,812,820,840,858,858,858,858,858,858,858,858,858,858,1076],"ymouse":[508,508,508,508,508,508,508,508,508,508,508,508,508,508,508,508,508,508,508,508,508,508,508,508,508,508,508,508,508,508,508,508,508,508,508,508,508,508,508,508,508,508,508,508,509,455,359,253,154,76,16,16,16,16,16,16,16,16,16,16,25],"timestamp_mouse":[16,35,64,75,95,114,135,155,175,196,215,234,255,275,295,316,335,356,375,395,415,436,455,475,495,515,535,555,576,595,615,635,656,675,695,715,734,755,775,796,815,834,856,875,895,915,936,955,975,995,1015,1035,1055,1074,1095,1115,1135,1155,1176,1195,1215],"xSR":741.5,"ySR":469.95,"xT1":424.9,"yT1":0,"xT2":1058.1,"yT2":0,"toosoon":0,"cond_shown":"equaldotanddens","ratio_trial":750,"smaller_num":"3","larger_num":"4","correct_side":2,"subjID":"Tomas_Felipe_Contreras_Duarte_39","gender":"0","age":"11","school":"sexto"},{"start_time":1551887902643,"click_time":1551887903743,"finger_time":1551887903602,"fix_duration":738.0293838670223,"trial":14,"RT":959,"MT":141,"sideResp":1,"stimulus":"img/750/equaldotsize/L/13_Ratio_750_L_8_R_6.png","xmouse":[813,813,813,813,813,813,813,813,813,813,813,813,813,813,813,813,813,813,813,813,813,813,813,813,813,813,813,813,813,813,813,813,813,813,813,813,813,813,813,813,813,813,813,813,813,812,807,793,767,748,717,680,599,563,539,524],"ymouse":[520,520,520,520,520,520,520,520,520,520,520,520,520,520,520,520,520,520,520,520,520,520,520,520,520,520,520,520,520,520,520,520,520,520,520,520,520,520,520,520,520,520,520,520,520,520,510,479,440,423,396,360,213,157,114,87],"timestamp_mouse":[1,19,39,59,79,99,120,138,159,180,198,220,240,259,279,300,320,339,360,379,399,420,439,458,480,499,520,540,559,579,599,619,639,660,680,699,720,739,759,779,799,819,839,860,878,899,920,939,959,979,1000,1019,1039,1059,1078,1100],"xSR":741.5,"ySR":469.95,"xT1":424.9,"yT1":0,"xT2":1058.1,"yT2":0,"toosoon":0,"cond_shown":"equaldotsize","ratio_trial":750,"smaller_num":"6","larger_num":"8","correct_side":1,"subjID":"Tomas_Felipe_Contreras_Duarte_39","gender":"0","age":"11","school":"sexto"},{"start_time":1551887906413,"click_time":1551887907682,"finger_time":1551887907142,"fix_duration":250,"trial":15,"RT":729,"MT":540,"sideResp":1,"stimulus":"img/250/equaldotanddens/L/5_Ratio_250_L_24_R_6.png","xmouse":[782,782,782,782,782,782,782,782,782,782,782,782,782,782,782,782,782,782,782,782,782,782,782,782,782,782,782,782,782,782,782,782,782,782,782,770,756,722,666,645,629,622,618,607,605,605,605,605,605,605,605,605,578,557,547,539,535,533,533,533,533,530,527,523],"ymouse":[511,511,511,511,511,511,511,511,511,511,511,511,511,511,511,511,511,511,511,511,511,511,511,511,511,511,511,511,511,511,511,511,511,511,511,474,441,355,198,130,80,59,42,7,0,0,0,0,0,0,0,0,13,56,72,83,86,87,87,87,87,87,82,77],"timestamp_mouse":[9,34,50,69,89,109,130,149,169,190,210,229,250,270,289,309,329,350,369,389,409,430,450,470,489,510,528,549,569,589,609,630,649,669,688,709,729,748,769,789,809,829,849,869,889,910,929,950,969,989,1010,1029,1049,1069,1088,1109,1128,1150,1169,1189,1208,1229,1250,1269],"xSR":741.5,"ySR":469.95,"xT1":424.9,"yT1":0,"xT2":1058.1,"yT2":0,"toosoon":0,"cond_shown":"equaldotanddens","ratio_trial":250,"smaller_num":"6","larger_num":"24","correct_side":1,"subjID":"Tomas_Felipe_Contreras_Duarte_39","gender":"0","age":"11","school":"sexto"},{"start_time":1551887909797,"click_time":1551887911542,"finger_time":1551887911282,"fix_duration":1252.6355993249076,"trial":16,"RT":1485,"MT":260,"sideResp":2,"stimulus":"img/900/randomdotsizeEA/R/6_Ratio_900_L_9_R_10.png","xmouse":[772,772,772,772,772,772,772,772,772,772,772,772,772,772,772,772,772,772,772,772,772,772,772,772,772,772,772,772,772,772,772,772,772,772,772,772,772,772,772,772,772,772,772,772,772,772,772,772,772,772,772,772,772,772,772,772,772,772,772,772,772,772,772,772,772,772,772,772,772,772,772,772,772,784,872,977,1088,1182,1247,1295,1297,1297,1297,1296,1255,1215,1179,1156],"ymouse":[508,508,508,508,508,508,508,508,508,508,508,508,508,508,508,508,508,508,508,508,508,508,508,508,508,508,508,508,508,508,508,508,508,508,508,508,508,508,508,508,508,508,508,508,508,508,508,508,508,508,508,508,508,508,508,508,508,508,508,508,508,508,508,508,508,508,508,508,508,508,508,508,508,496,441,379,299,222,162,111,105,105,105,104,94,90,85,82],"timestamp_mouse":[8,34,45,65,86,105,124,146,166,186,206,226,246,266,284,305,325,344,364,385,405,426,446,464,486,506,524,545,564,586,604,626,645,664,686,706,726,745,765,785,805,826,845,865,885,906,925,945,966,985,1005,1025,1046,1066,1084,1105,1125,1145,1165,1185,1206,1225,1245,1265,1286,1305,1326,1345,1366,1386,1406,1424,1445,1464,1485,1505,1525,1545,1565,1585,1605,1625,1645,1665,1684,1704,1724,1745],"xSR":741.5,"ySR":469.95,"xT1":424.9,"yT1":0,"xT2":1058.1,"yT2":0,"toosoon":0,"cond_shown":"randomdotsizeEA","ratio_trial":900,"smaller_num":"9","larger_num":"10","correct_side":2,"subjID":"Tomas_Felipe_Contreras_Duarte_39","gender":"0","age":"11","school":"sexto"},{"start_time":1551887912834,"click_time":1551887913782,"finger_time":1551887913462,"fix_duration":250,"trial":17,"RT":628,"MT":320,"sideResp":2,"stimulus":"img/250/equaldotsize/R/10_Ratio_250_L_4_R_16.png","xmouse":[803,803,803,803,803,803,803,803,803,803,803,803,803,803,803,803,803,803,803,803,803,803,803,803,803,803,803,803,803,803,808,836,904,940,954,954,954,954,954,954,954,954,954,954,954,954,954,1083],"ymouse":[521,521,521,521,521,521,521,521,521,521,521,521,521,521,521,521,521,521,521,521,521,521,521,521,521,521,521,521,521,521,488,386,163,65,31,31,31,31,31,31,31,31,31,31,31,31,31,11],"timestamp_mouse":[8,38,48,67,89,109,129,149,169,189,208,228,249,267,289,309,329,348,368,388,408,428,448,468,488,509,529,548,569,588,609,628,648,668,688,708,729,748,769,788,808,828,849,868,888,908,927,948],"xSR":741.5,"ySR":469.95,"xT1":424.9,"yT1":0,"xT2":1058.1,"yT2":0,"toosoon":0,"cond_shown":"equaldotsize","ratio_trial":250,"smaller_num":"4","larger_num":"16","correct_side":2,"subjID":"Tomas_Felipe_Contreras_Duarte_39","gender":"0","age":"11","school":"sexto"},{"start_time":1551887915090,"click_time":1551887916182,"finger_time":1551887915462,"fix_duration":507.7208470230006,"trial":18,"RT":372,"MT":720,"sideResp":1,"stimulus":"img/750/randomdotsizeEA/R/5_Ratio_750_L_15_R_20.png","xmouse":[816,816,816,816,816,816,816,816,816,816,816,816,816,816,816,816,816,822,844,889,900,901,901,901,901,901,901,901,901,901,901,901,901,901,901,901,901,900,898,881,871,858,845,835,827,824,822,817,805,747,699,637,571,513,454],"ymouse":[504,504,504,504,504,504,504,504,504,504,504,504,504,504,504,504,504,470,399,277,262,260,260,260,260,260,260,260,260,260,260,260,260,260,260,260,260,264,272,316,340,371,393,409,429,432,433,433,431,384,325,255,180,115,30],"timestamp_mouse":[12,38,52,72,92,112,132,151,173,192,212,232,252,272,292,313,332,353,372,392,411,432,451,472,492,512,532,552,572,592,613,632,652,672,692,712,732,752,773,792,811,832,852,873,892,912,932,952,973,993,1011,1032,1052,1071,1092],"xSR":741.5,"ySR":469.95,"xT1":424.9,"yT1":0,"xT2":1058.1,"yT2":0,"toosoon":0,"cond_shown":"randomdotsizeEA","ratio_trial":750,"smaller_num":"15","larger_num":"20","correct_side":2,"subjID":"Tomas_Felipe_Contreras_Duarte_39","gender":"0","age":"11","school":"sexto"},{"start_time":1551887918626,"click_time":1551887919542,"finger_time":1551887919422,"fix_duration":303.542846537745,"trial":19,"RT":796,"MT":120,"sideResp":1,"stimulus":"img/750/equaldotsize/L/10_Ratio_750_L_4_R_3.png","xmouse":[788,788,788,788,788,788,788,788,788,788,788,788,788,788,788,788,788,788,788,788,788,788,788,788,788,788,788,788,788,788,788,788,788,788,788,788,788,788,784,755,707,654,566,538,525,517],"ymouse":[542,542,542,542,542,542,542,542,542,542,542,542,542,542,542,542,542,542,542,542,542,542,542,542,542,542,542,542,542,542,542,542,542,542,542,542,542,542,533,466,378,290,155,118,98,85],"timestamp_mouse":[16,41,57,77,96,117,136,156,176,196,216,237,256,277,297,317,337,356,376,397,417,437,456,476,497,515,536,557,576,596,616,636,656,675,696,716,737,755,776,796,816,836,856,875,896,915],"xSR":741.5,"ySR":469.95,"xT1":424.9,"yT1":0,"xT2":1058.1,"yT2":0,"toosoon":0,"cond_shown":"equaldotsize","ratio_trial":750,"smaller_num":"3","larger_num":"4","correct_side":1,"subjID":"Tomas_Felipe_Contreras_Duarte_39","gender":"0","age":"11","school":"sexto"},{"start_time":1551887922875,"click_time":1551887923883,"finger_time":1551887923782,"fix_duration":851.3220689749127,"trial":20,"RT":907,"MT":101,"sideResp":1,"stimulus":"img/900/equaldotanddens/L/2_Ratio_900_L_20_R_18.png","xmouse":[782,782,782,782,782,782,782,782,782,782,782,782,782,782,782,782,782,782,782,782,782,782,782,782,782,782,782,782,782,782,782,782,782,782,782,782,782,782,782,782,782,782,782,781,774,720,664,626,589,561,515],"ymouse":[500,500,500,500,500,500,500,500,500,500,500,500,500,500,500,500,500,500,500,500,500,500,500,500,500,500,500,500,500,500,500,500,500,500,500,500,500,500,500,500,500,500,500,494,476,349,236,174,125,88,34],"timestamp_mouse":[10,27,47,67,87,107,127,148,167,187,207,226,247,268,288,308,328,347,367,388,407,427,446,468,488,507,528,548,567,587,607,626,648,667,687,707,728,748,768,788,807,826,848,867,888,907,928,947,967,987,1008],"xSR":741.5,"ySR":469.95,"xT1":424.9,"yT1":0,"xT2":1058.1,"yT2":0,"toosoon":0,"cond_shown":"equaldotanddens","ratio_trial":900,"smaller_num":"18","larger_num":"20","correct_side":1,"subjID":"Tomas_Felipe_Contreras_Duarte_39","gender":"0","age":"11","school":"sexto"},{"start_time":1551887925206,"click_time":1551887926403,"finger_time":1551887926043,"fix_duration":563.3406545012198,"trial":21,"RT":837,"MT":360,"sideResp":2,"stimulus":"img/750/equaldotanddens/R/7_Ratio_750_L_3_R_4.png","xmouse":[796,796,796,796,796,796,796,796,796,796,796,796,796,796,796,796,796,796,796,796,796,796,796,796,796,796,796,796,796,796,796,796,796,796,796,796,796,796,796,803,832,871,917,1010,1030,1046,1055,1058,1056,1054,1054,1054,1054,1054,1055,1057,1060,1066,1086,1104],"ymouse":[549,549,549,549,549,549,549,549,549,549,549,549,549,549,549,549,549,549,549,549,549,549,549,549,549,549,549,549,549,549,549,549,549,549,549,549,549,549,549,535,496,442,376,255,226,203,182,168,158,154,154,153,149,141,137,135,130,124,101,76],"timestamp_mouse":[17,42,56,77,96,117,137,157,175,196,216,236,257,277,295,316,336,355,377,396,417,436,456,477,497,515,536,556,575,597,616,637,657,676,696,717,737,757,776,796,816,837,856,876,896,916,936,956,975,995,1016,1036,1056,1076,1097,1116,1136,1157,1176,1196],"xSR":741.5,"ySR":469.95,"xT1":424.9,"yT1":0,"xT2":1058.1,"yT2":0,"toosoon":0,"cond_shown":"equaldotanddens","ratio_trial":750,"smaller_num":"3","larger_num":"4","correct_side":2,"subjID":"Tomas_Felipe_Contreras_Duarte_39","gender":"0","age":"11","school":"sexto"},{"start_time":1551887929838,"click_time":1551887930803,"finger_time":1551887930743,"fix_duration":753.0423234396909,"trial":22,"RT":905,"MT":60,"sideResp":2,"stimulus":"img/900/randomdotsizeEA/R/9_Ratio_900_L_18_R_20.png","xmouse":[784,784,784,784,784,784,784,784,784,784,784,784,784,784,784,784,784,784,784,784,784,784,784,784,784,784,784,784,784,784,784,784,784,784,784,784,784,784,784,784,784,784,784,784,789,810,851,913,1103],"ymouse":[529,529,529,529,529,528,528,528,528,528,528,528,528,528,528,528,528,528,528,528,528,528,528,528,528,528,528,528,528,528,528,528,528,528,528,528,528,528,528,528,528,528,528,528,511,443,352,242,22],"timestamp_mouse":[11,25,44,64,83,104,124,144,165,185,203,224,244,264,284,304,325,344,364,384,404,424,444,464,483,504,523,545,564,583,604,625,645,665,685,705,724,744,765,785,805,824,845,864,885,905,925,944,965],"xSR":741.5,"ySR":469.95,"xT1":424.9,"yT1":0,"xT2":1058.1,"yT2":0,"toosoon":0,"cond_shown":"randomdotsizeEA","ratio_trial":900,"smaller_num":"18","larger_num":"20","correct_side":2,"subjID":"Tomas_Felipe_Contreras_Duarte_39","gender":"0","age":"11","school":"sexto"},{"start_time":1551887933608,"click_time":1551887934682,"finger_time":1551887934282,"fix_duration":404.8789252989464,"trial":23,"RT":674,"MT":400,"sideResp":2,"stimulus":"img/250/equaldotsize/R/9_Ratio_250_L_3_R_12.png","xmouse":[817,817,817,817,817,817,817,817,817,817,817,817,817,817,817,817,817,817,817,817,817,817,817,817,817,817,817,817,817,817,817,817,817,836,852,865,880,896,923,935,957,968,974,975,975,975,975,975,975,975,975,992,1027,1093],"ymouse":[491,491,491,491,491,491,491,491,491,491,491,491,491,491,491,491,491,491,491,491,491,491,491,491,491,491,491,491,491,491,491,491,484,420,368,321,279,241,179,150,103,79,65,62,62,62,62,62,62,62,62,62,62,62],"timestamp_mouse":[13,39,55,74,94,114,135,155,175,195,213,234,254,274,294,315,335,355,375,395,413,434,454,475,495,514,534,555,575,595,614,634,654,674,694,715,734,753,774,795,814,834,854,875,894,914,934,955,975,994,1013,1034,1054,1074],"xSR":741.5,"ySR":469.95,"xT1":424.9,"yT1":0,"xT2":1058.1,"yT2":0,"toosoon":0,"cond_shown":"equaldotsize","ratio_trial":250,"smaller_num":"3","larger_num":"12","correct_side":2,"subjID":"Tomas_Felipe_Contreras_Duarte_39","gender":"0","age":"11","school":"sexto"},{"start_time":1551887935734,"click_time":1551887937003,"finger_time":1551887936642,"fix_duration":250,"trial":24,"RT":908,"MT":361,"sideResp":2,"stimulus":"img/900/equaldotsize/L/8_Ratio_900_L_20_R_18.png","xmouse":[757,757,757,757,757,757,757,757,757,757,757,757,757,757,757,757,757,757,757,757,757,757,757,757,757,757,757,757,757,757,757,757,757,757,757,757,757,757,757,757,757,757,757,757,763,790,832,938,979,1009,1031,1040,1042,1042,1042,1042,1042,1044,1046,1047,1048,1051,1054,1063],"ymouse":[496,496,496,496,496,496,496,496,496,496,496,496,496,496,496,496,496,496,496,496,496,496,496,496,496,496,496,496,496,496,496,496,496,496,496,496,496,496,496,496,496,496,496,496,493,462,418,294,254,228,210,201,197,197,197,195,185,156,144,138,131,123,115,95],"timestamp_mouse":[10,28,48,69,89,108,127,149,169,187,207,228,249,273,288,308,328,348,369,388,409,428,449,467,488,508,528,549,568,588,609,629,648,669,688,708,727,749,768,789,807,829,849,868,887,908,928,948,968,988,1009,1028,1048,1068,1087,1108,1128,1148,1168,1188,1208,1227,1248,1269],"xSR":741.5,"ySR":469.95,"xT1":424.9,"yT1":0,"xT2":1058.1,"yT2":0,"toosoon":0,"cond_shown":"equaldotsize","ratio_trial":900,"smaller_num":"18","larger_num":"20","correct_side":1,"subjID":"Tomas_Felipe_Contreras_Duarte_39","gender":"0","age":"11","school":"sexto"},{"start_time":1551887938533,"click_time":1551887939722,"finger_time":1551887939281,"fix_duration":250,"trial":25,"RT":748,"MT":441,"sideResp":1,"stimulus":"img/500/equaldotanddens/L/7_Ratio_500_L_10_R_5.png","xmouse":[783,785,787,787,787,787,787,787,787,787,787,787,787,787,787,787,787,787,787,787,787,787,787,787,787,787,787,787,787,787,787,787,787,787,787,787,788,776,756,725,694,667,626,621,618,618,618,618,618,618,618,617,602,582,569,555,544,519,511,506],"ymouse":[490,490,492,492,492,492,492,492,492,492,492,492,492,492,492,492,492,492,492,492,492,492,492,492,492,492,492,492,492,492,492,492,492,492,492,492,491,412,334,261,210,178,143,139,138,137,137,137,137,137,137,137,131,124,120,117,114,105,102,99],"timestamp_mouse":[9,28,49,70,89,109,129,150,168,189,210,229,250,270,289,309,329,349,369,390,408,429,449,470,489,509,528,549,569,590,609,628,649,668,689,709,728,748,769,789,809,830,849,869,889,909,929,949,970,989,1010,1029,1049,1070,1088,1109,1128,1149,1168,1189],"xSR":741.5,"ySR":469.95,"xT1":424.9,"yT1":0,"xT2":1058.1,"yT2":0,"toosoon":0,"cond_shown":"equaldotanddens","ratio_trial":500,"smaller_num":"5","larger_num":"10","correct_side":1,"subjID":"Tomas_Felipe_Contreras_Duarte_39","gender":"0","age":"11","school":"sexto"},{"start_time":1551887940763,"click_time":1551887942342,"finger_time":1551887942022,"fix_duration":399.14673051047856,"trial":26,"RT":1259,"MT":320,"sideResp":1,"stimulus":"img/500/randomdotsizeEA/L/7_Ratio_500_L_10_R_5.png","xmouse":[777,777,777,777,777,777,777,777,777,777,777,777,777,777,777,777,777,777,777,777,777,777,777,777,777,777,777,777,777,777,777,777,777,777,777,777,777,777,777,777,777,777,777,777,777,777,777,777,777,777,777,777,777,777,777,777,777,777,777,777,777,777,765,723,666,599,599,599,599,599,599,599,599,599,599,599,599,599,522],"ymouse":[542,542,542,542,542,542,542,542,542,542,542,542,542,542,542,542,542,542,542,542,542,542,542,542,542,542,542,542,542,542,542,542,542,542,542,542,542,542,542,542,542,542,542,542,542,542,542,542,542,542,542,542,542,542,542,542,542,542,542,542,542,535,446,287,127,24,24,24,24,24,24,24,24,24,24,24,24,24,4],"timestamp_mouse":[23,39,59,79,100,119,139,159,179,199,219,239,259,279,298,319,340,359,379,400,419,439,459,479,499,519,539,560,579,599,619,639,660,679,700,719,739,758,779,799,820,838,860,880,899,919,939,959,980,999,1019,1039,1059,1079,1099,1120,1140,1160,1179,1200,1219,1240,1258,1279,1298,1320,1340,1359,1379,1399,1420,1439,1459,1479,1499,1520,1540,1559,1579],"xSR":741.5,"ySR":469.95,"xT1":424.9,"yT1":0,"xT2":1058.1,"yT2":0,"toosoon":0,"cond_shown":"randomdotsizeEA","ratio_trial":500,"smaller_num":"5","larger_num":"10","correct_side":1,"subjID":"Tomas_Felipe_Contreras_Duarte_39","gender":"0","age":"11","school":"sexto"},{"start_time":1551887943913,"click_time":1551887944944,"finger_time":1551887944523,"fix_duration":489.36170483256956,"trial":27,"RT":610,"MT":421,"sideResp":1,"stimulus":"img/250/equaldotanddens/L/7_Ratio_250_L_8_R_2.png","xmouse":[810,810,810,810,810,810,810,810,810,810,810,810,810,810,810,810,810,810,810,810,810,810,810,810,810,810,810,810,810,803,749,668,581,424,362,285,260,260,260,260,260,260,260,260,260,260,260,260,324,375,421,458],"ymouse":[527,527,527,527,527,527,527,527,527,527,527,527,527,527,527,527,527,527,527,527,527,527,527,527,527,527,527,527,527,515,466,391,308,167,110,32,3,3,3,3,3,3,3,3,3,3,3,3,19,48,69,83],"timestamp_mouse":[9,37,49,70,89,109,130,149,169,189,210,229,250,270,289,309,329,350,369,389,409,430,450,470,490,510,529,550,569,589,610,630,649,670,689,709,730,749,770,789,810,830,849,870,890,909,929,950,970,990,1009,1031],"xSR":741.5,"ySR":469.95,"xT1":424.9,"yT1":0,"xT2":1058.1,"yT2":0,"toosoon":0,"cond_shown":"equaldotanddens","ratio_trial":250,"smaller_num":"2","larger_num":"8","correct_side":1,"subjID":"Tomas_Felipe_Contreras_Duarte_39","gender":"0","age":"11","school":"sexto"},{"start_time":1551887946510,"click_time":1551887947462,"finger_time":1551887947083,"fix_duration":485.15354469826144,"trial":28,"RT":573,"MT":379,"sideResp":1,"stimulus":"img/500/equaldotanddens/L/4_Ratio_500_L_18_R_9.png","xmouse":[757,757,757,757,757,757,757,757,757,757,757,757,757,757,757,757,757,757,757,757,757,757,757,757,757,757,757,757,741,718,678,616,550,413,332,298,289,289,289,289,289,289,289,289,350,377,408,432],"ymouse":[521,521,521,521,521,521,521,521,521,521,521,521,521,521,521,521,521,521,521,521,521,521,521,521,521,521,521,521,511,488,440,363,270,112,35,8,1,1,1,1,1,1,1,1,4,28,50,65],"timestamp_mouse":[12,35,54,72,92,113,133,154,172,193,212,233,254,273,292,313,332,352,372,393,414,432,452,472,494,512,532,552,573,593,613,633,652,673,693,712,733,753,773,792,812,832,852,873,892,913,932,952],"xSR":741.5,"ySR":469.95,"xT1":424.9,"yT1":0,"xT2":1058.1,"yT2":0,"toosoon":0,"cond_shown":"equaldotanddens","ratio_trial":500,"smaller_num":"9","larger_num":"18","correct_side":1,"subjID":"Tomas_Felipe_Contreras_Duarte_39","gender":"0","age":"11","school":"sexto"},{"start_time":1551887949524,"click_time":1551887950484,"finger_time":1551887950182,"fix_duration":1099.107515203101,"trial":29,"RT":658,"MT":302,"sideResp":1,"stimulus":"img/500/equaldotanddens/L/4_Ratio_500_L_18_R_9.png","xmouse":[816,816,816,816,816,816,816,816,816,816,816,816,816,816,816,816,816,816,816,816,816,816,816,816,816,816,816,816,816,816,816,816,809,733,657,559,542,536,528,528,528,528,528,527,518,514,508,503,489],"ymouse":[526,526,526,526,526,526,526,526,526,526,526,526,526,526,526,526,526,526,526,526,526,526,526,526,526,526,526,526,526,526,526,526,510,420,334,244,231,228,222,222,222,222,222,213,191,179,161,141,98],"timestamp_mouse":[1,20,38,59,79,98,119,140,158,179,199,219,239,260,279,299,318,339,358,378,399,419,438,458,479,499,520,538,559,578,598,618,640,658,679,698,719,739,758,779,798,820,840,858,879,898,918,938,960],"xSR":741.5,"ySR":469.95,"xT1":424.9,"yT1":0,"xT2":1058.1,"yT2":0,"toosoon":0,"cond_shown":"equaldotanddens","ratio_trial":500,"smaller_num":"9","larger_num":"18","correct_side":1,"subjID":"Tomas_Felipe_Contreras_Duarte_39","gender":"0","age":"11","school":"sexto"},{"start_time":1551887952905,"click_time":1551887953982,"finger_time":1551887953564,"fix_duration":721.8622991934149,"trial":30,"RT":659,"MT":418,"sideResp":2,"stimulus":"img/500/equaldotsize/R/1_Ratio_500_L_9_R_18.png","xmouse":[817,817,817,817,817,817,817,817,817,817,817,817,817,817,817,817,817,817,817,817,817,817,817,817,817,817,817,817,817,817,819,816,815,818,828,838,852,867,899,922,958,1014,1072,1152,1182,1187,1189,1189,1189,1189,1189,1185,1178,1151],"ymouse":[543,543,543,543,543,543,543,543,543,543,543,543,543,543,543,543,543,543,543,543,543,543,543,543,543,543,543,543,543,543,538,489,404,215,187,172,157,147,134,126,121,116,116,116,116,116,116,116,116,114,105,91,80,56],"timestamp_mouse":[18,43,57,77,97,117,138,159,178,197,219,237,257,277,297,317,338,357,379,398,417,438,458,478,497,518,538,558,578,597,619,638,659,678,699,717,739,759,779,798,817,838,858,878,899,917,938,957,978,997,1018,1038,1059,1077],"xSR":741.5,"ySR":469.95,"xT1":424.9,"yT1":0,"xT2":1058.1,"yT2":0,"toosoon":0,"cond_shown":"equaldotsize","ratio_trial":500,"smaller_num":"9","larger_num":"18","correct_side":2,"subjID":"Tomas_Felipe_Contreras_Duarte_39","gender":"0","age":"11","school":"sexto"},{"start_time":1551887955550,"click_time":1551887956303,"finger_time":1551887955942,"fix_duration":787.918617159767,"trial":31,"RT":392,"MT":361,"sideResp":1,"stimulus":"img/250/equaldotanddens/L/3_Ratio_250_L_8_R_2.png","xmouse":[791,791,791,791,791,791,791,791,791,791,791,791,791,791,791,791,777,763,743,716,686,648,623,613,602,590,561,551,547,545,544,537,532,530,529,527,525,523],"ymouse":[541,541,541,541,541,541,541,541,541,541,541,541,541,541,541,541,529,510,486,448,420,388,364,347,326,301,205,173,155,138,115,72,53,50,47,45,41,39],"timestamp_mouse":[14,33,53,73,92,114,133,152,172,192,213,232,253,272,292,314,333,352,372,392,413,432,453,472,492,513,534,552,572,592,614,632,653,672,692,713,732,753],"xSR":741.5,"ySR":469.95,"xT1":424.9,"yT1":0,"xT2":1058.1,"yT2":0,"toosoon":0,"cond_shown":"equaldotanddens","ratio_trial":250,"smaller_num":"2","larger_num":"8","correct_side":1,"subjID":"Tomas_Felipe_Contreras_Duarte_39","gender":"0","age":"11","school":"sexto"},{"start_time":1551887958264,"click_time":1551887959764,"finger_time":1551887958942,"fix_duration":1119.8441253495978,"trial":32,"RT":678,"MT":822,"sideResp":2,"stimulus":"img/900/equaldotanddens/R/5_Ratio_900_L_9_R_10.png","xmouse":[823,823,823,823,823,823,823,823,823,823,823,823,823,823,823,823,823,823,823,823,823,823,823,823,823,822,814,813,813,813,813,813,826,917,1048,1258,1299,1333,1343,1345,1347,1347,1341,1331,1320,1290,1252,1217,1181,1135,1070,1049,1036,1027,1022,1019,1018,1017,1017,1017,1028,1037,1044,1047,1047,1048,1051,1054,1056,1058,1058,1058,1058,1058,1059],"ymouse":[520,520,520,520,520,520,520,520,520,520,520,520,520,520,520,520,520,520,520,520,520,520,520,520,520,520,519,518,518,518,518,518,500,442,372,241,203,162,148,138,126,121,113,102,94,90,94,99,104,110,112,107,98,82,59,39,34,32,32,32,41,50,55,58,59,60,64,68,71,74,74,74,74,74,75],"timestamp_mouse":[18,38,59,78,100,118,138,159,180,198,219,238,259,280,298,318,339,360,378,399,419,439,458,479,498,518,540,558,579,600,618,638,659,678,699,719,739,758,780,799,818,838,859,879,898,919,938,958,979,998,1020,1038,1058,1079,1100,1118,1138,1158,1178,1198,1218,1238,1260,1279,1298,1319,1338,1358,1379,1398,1419,1438,1458,1479,1500],"xSR":741.5,"ySR":469.95,"xT1":424.9,"yT1":0,"xT2":1058.1,"yT2":0,"toosoon":0,"cond_shown":"equaldotanddens","ratio_trial":900,"smaller_num":"9","larger_num":"10","correct_side":2,"subjID":"Tomas_Felipe_Contreras_Duarte_39","gender":"0","age":"11","school":"sexto"},{"start_time":1551887964401,"click_time":1551887965342,"finger_time":1551887965202,"fix_duration":917.7243676802275,"trial":33,"RT":801,"MT":140,"sideResp":1,"stimulus":"img/900/randomdotsizeEA/R/11_Ratio_900_L_18_R_20.png","xmouse":[776,776,776,776,776,776,776,776,776,776,776,776,776,776,776,776,776,776,776,776,776,776,776,776,776,776,776,776,776,776,776,776,776,776,776,776,776,776,773,758,715,680,643,607,528,500,474,458],"ymouse":[518,518,518,518,518,518,518,518,518,518,518,518,518,518,518,518,518,518,518,518,518,518,518,518,518,518,518,518,518,518,518,518,518,518,518,518,518,518,514,498,463,439,410,365,255,197,138,93],"timestamp_mouse":[8,28,43,62,81,101,121,141,161,181,201,223,241,261,282,302,321,341,361,383,401,421,442,462,481,502,521,543,562,582,601,622,641,661,681,702,721,741,762,781,801,821,842,862,882,901,921,941],"xSR":741.5,"ySR":469.95,"xT1":424.9,"yT1":0,"xT2":1058.1,"yT2":0,"toosoon":0,"cond_shown":"randomdotsizeEA","ratio_trial":900,"smaller_num":"18","larger_num":"20","correct_side":2,"subjID":"Tomas_Felipe_Contreras_Duarte_39","gender":"0","age":"11","school":"sexto"},{"start_time":1551887968542,"click_time":1551887970082,"finger_time":1551887969722,"fix_duration":1138.3294848102983,"trial":34,"RT":1180,"MT":360,"sideResp":2,"stimulus":"img/250/randomdotsizeEA/R/6_Ratio_250_L_6_R_24.png","xmouse":[783,783,783,783,783,783,783,783,783,783,783,783,783,783,783,783,783,783,783,783,783,783,783,783,783,783,783,783,783,783,783,783,783,783,783,783,783,783,783,783,783,783,783,783,783,783,783,783,783,783,783,783,783,783,783,783,783,783,783,799,825,885,967,984,995,997,999,1001,1002,1005,1012,1018,1027,1027,1027,1027,1032,1065],"ymouse":[471,471,471,471,471,471,471,471,471,471,471,471,471,471,471,471,471,471,471,471,471,471,471,471,471,471,471,471,471,471,471,471,471,471,471,471,471,471,471,471,471,471,471,471,471,471,471,471,471,471,471,471,471,471,471,471,471,471,471,448,415,348,258,224,171,147,136,130,128,123,116,109,99,98,98,98,95,85],"timestamp_mouse":[8,20,40,60,80,100,120,142,161,180,202,221,242,261,280,301,321,340,361,381,400,421,440,461,480,500,520,540,562,580,600,621,640,662,680,700,720,740,760,781,800,820,841,860,880,901,920,941,961,980,1002,1020,1040,1062,1082,1100,1121,1141,1160,1180,1201,1221,1241,1260,1280,1300,1320,1340,1361,1380,1400,1422,1440,1461,1480,1500,1520,1540],"xSR":741.5,"ySR":469.95,"xT1":424.9,"yT1":0,"xT2":1058.1,"yT2":0,"toosoon":0,"cond_shown":"randomdotsizeEA","ratio_trial":250,"smaller_num":"6","larger_num":"24","correct_side":2,"subjID":"Tomas_Felipe_Contreras_Duarte_39","gender":"0","age":"11","school":"sexto"},{"start_time":1551887975506,"click_time":1551887976963,"finger_time":1551887976582,"fix_duration":1162.3506231790789,"trial":35,"RT":1076,"MT":381,"sideResp":1,"stimulus":"img/250/randomdotsizeEA/L/5_Ratio_250_L_24_R_6.png","xmouse":[773,773,773,773,773,773,773,773,773,773,773,773,773,773,773,773,773,773,773,773,773,773,773,773,773,773,773,773,773,773,773,773,773,773,773,773,773,773,773,773,773,773,773,773,773,773,773,773,773,773,773,760,750,729,718,703,683,662,633,629,629,629,629,628,626,622,620,613,590,572,551,536,524],"ymouse":[499,499,499,499,499,499,499,499,499,499,499,499,499,499,499,499,499,499,499,499,499,499,499,499,499,499,499,499,499,499,499,499,499,499,499,499,499,499,499,499,499,499,499,499,499,499,499,499,499,499,499,492,484,438,382,335,277,218,141,123,113,107,102,87,75,67,63,57,46,44,44,44,44],"timestamp_mouse":[16,39,58,76,96,117,136,156,176,197,216,237,256,277,296,316,338,356,376,397,416,437,457,478,497,518,537,557,576,598,616,636,658,676,697,717,736,756,777,798,816,836,857,876,897,917,938,956,976,997,1016,1036,1057,1076,1096,1117,1137,1156,1178,1197,1217,1236,1256,1276,1298,1316,1336,1356,1378,1397,1417,1437,1457],"xSR":741.5,"ySR":469.95,"xT1":424.9,"yT1":0,"xT2":1058.1,"yT2":0,"toosoon":0,"cond_shown":"randomdotsizeEA","ratio_trial":250,"smaller_num":"6","larger_num":"24","correct_side":1,"subjID":"Tomas_Felipe_Contreras_Duarte_39","gender":"0","age":"11","school":"sexto"},{"start_time":1551887979908,"click_time":1551887981062,"finger_time":1551887980724,"fix_duration":1124.295058642589,"trial":36,"RT":816,"MT":338,"sideResp":1,"stimulus":"img/250/equaldotsize/L/1_Ratio_250_L_8_R_2.png","xmouse":[773,773,773,773,773,773,773,773,773,773,773,773,773,773,773,773,773,773,773,773,773,773,773,773,773,775,780,784,784,784,784,784,784,784,785,784,783,779,762,748,731,712,688,657,649,648,648,646,646,643,639,630,620,596,574,553,530,508],"ymouse":[504,504,504,504,504,504,504,504,504,504,504,504,504,504,504,504,504,504,504,504,504,504,504,504,504,505,507,509,510,510,510,510,510,510,506,504,503,501,486,472,450,412,356,255,209,185,160,137,106,90,71,54,43,27,20,17,17,23],"timestamp_mouse":[14,39,54,74,95,116,134,154,174,196,215,236,255,274,295,315,334,354,375,396,414,435,454,474,496,514,535,554,575,595,615,636,654,674,696,715,734,755,775,794,816,835,856,874,894,914,935,954,976,994,1015,1035,1056,1074,1096,1115,1135,1154],"xSR":741.5,"ySR":469.95,"xT1":424.9,"yT1":0,"xT2":1058.1,"yT2":0,"toosoon":0,"cond_shown":"equaldotsize","ratio_trial":250,"smaller_num":"2","larger_num":"8","correct_side":1,"subjID":"Tomas_Felipe_Contreras_Duarte_39","gender":"0","age":"11","school":"sexto"},{"start_time":1551887982815,"click_time":1551887984082,"finger_time":1551887983702,"fix_duration":711.836278968683,"trial":37,"RT":887,"MT":380,"sideResp":2,"stimulus":"img/750/equaldotsize/R/11_Ratio_750_L_12_R_16.png","xmouse":[764,764,764,764,764,764,764,764,764,764,764,764,764,764,764,764,764,764,764,764,764,764,764,764,764,764,764,764,764,764,764,764,764,764,764,764,764,764,764,764,763,758,757,767,804,868,946,1030,1183,1231,1243,1245,1245,1245,1248,1251,1257,1260,1257,1245,1225,1201,1176,1150],"ymouse":[512,512,512,512,512,512,512,512,512,512,512,512,512,512,512,512,512,512,512,512,512,512,512,512,512,512,512,512,512,512,512,512,512,512,512,512,512,512,512,512,512,511,510,492,455,389,314,236,108,84,82,81,81,81,79,74,64,57,41,36,33,33,36,45],"timestamp_mouse":[8,35,47,68,89,107,127,147,167,188,207,227,248,267,289,308,327,348,368,387,408,429,448,468,488,508,528,547,567,588,607,627,648,667,688,708,727,748,767,789,808,827,848,868,887,907,927,948,967,987,1007,1028,1049,1068,1087,1108,1128,1148,1167,1188,1207,1227,1247,1267],"xSR":741.5,"ySR":469.95,"xT1":424.9,"yT1":0,"xT2":1058.1,"yT2":0,"toosoon":0,"cond_shown":"equaldotsize","ratio_trial":750,"smaller_num":"12","larger_num":"16","correct_side":2,"subjID":"Tomas_Felipe_Contreras_Duarte_39","gender":"0","age":"11","school":"sexto"},{"start_time":1551887985491,"click_time":1551887986643,"finger_time":1551887986582,"fix_duration":507.7147299189643,"trial":38,"RT":1091,"MT":61,"sideResp":2,"stimulus":"img/500/randomdotsizeEA/L/8_Ratio_500_L_8_R_4.png","xmouse":[805,805,805,805,805,805,805,805,805,805,805,805,805,805,805,805,805,805,805,805,805,805,805,805,805,805,805,805,805,805,805,805,805,805,805,805,805,805,805,805,805,805,805,805,805,805,805,805,805,805,805,805,817,834,891,1060,1106,1130],"ymouse":[522,522,522,522,522,522,522,522,522,522,522,522,522,522,522,522,522,522,522,522,522,522,522,522,522,522,522,522,522,522,522,522,522,522,522,522,522,522,522,522,522,522,522,522,522,522,522,522,522,522,522,522,507,478,397,177,121,92],"timestamp_mouse":[13,40,51,71,92,113,133,151,173,192,213,231,253,271,292,311,331,351,371,391,411,431,451,471,491,512,531,552,571,591,611,633,652,671,691,712,731,751,772,792,811,832,852,872,892,911,933,952,973,991,1012,1032,1051,1071,1091,1111,1131,1152],"xSR":741.5,"ySR":469.95,"xT1":424.9,"yT1":0,"xT2":1058.1,"yT2":0,"toosoon":0,"cond_shown":"randomdotsizeEA","ratio_trial":500,"smaller_num":"4","larger_num":"8","correct_side":1,"subjID":"Tomas_Felipe_Contreras_Duarte_39","gender":"0","age":"11","school":"sexto"},{"start_time":1551887988986,"click_time":1551887990004,"finger_time":1551887989863,"fix_duration":982.1941017718221,"trial":39,"RT":877,"MT":141,"sideResp":2,"stimulus":"img/250/randomdotsizeEA/R/13_Ratio_250_L_2_R_8.png","xmouse":[751,751,751,751,751,751,751,751,751,751,751,751,751,751,751,751,751,751,751,751,751,751,751,751,751,751,751,751,751,751,751,751,751,751,751,751,751,751,751,751,752,761,775,791,851,896,943,990,1025,1068,1100],"ymouse":[502,502,502,502,502,502,502,502,502,502,502,502,502,502,502,502,502,502,502,502,502,502,502,502,502,502,502,502,502,502,502,502,502,502,502,502,502,502,502,502,498,492,480,465,406,354,291,226,174,123,96],"timestamp_mouse":[17,39,56,76,97,116,136,158,176,197,217,237,256,276,297,317,337,356,378,397,416,436,459,477,497,517,537,558,576,597,616,637,657,676,696,717,737,757,777,796,816,836,857,876,898,918,936,956,977,996,1018],"xSR":741.5,"ySR":469.95,"xT1":424.9,"yT1":0,"xT2":1058.1,"yT2":0,"toosoon":0,"cond_shown":"randomdotsizeEA","ratio_trial":250,"smaller_num":"2","larger_num":"8","correct_side":2,"subjID":"Tomas_Felipe_Contreras_Duarte_39","gender":"0","age":"11","school":"sexto"},{"start_time":1551887992598,"click_time":1551887994382,"finger_time":1551887993502,"fix_duration":1454.1129533977312,"trial":40,"RT":904,"MT":880,"sideResp":1,"stimulus":"img/750/equaldotanddens/L/9_Ratio_750_L_4_R_3.png","xmouse":[794,794,794,794,794,794,794,794,794,794,794,794,794,794,794,794,794,794,794,794,794,794,794,794,794,794,794,794,794,794,794,794,794,794,794,794,794,794,794,794,794,794,794,792,761,728,692,656,610,548,528,516,497,473,412,397,390,388,388,398,431,490,566,596,596,596,596,596,596,596,596,596,596,596,596,596,596,620,596,563,556,555,555,555,555,552,544,535,525,504],"ymouse":[502,502,502,502,502,502,502,502,502,502,502,502,502,502,502,502,502,502,502,502,502,502,502,502,502,502,502,502,502,502,502,502,502,502,502,502,502,502,502,502,502,502,502,502,502,502,502,502,496,478,456,433,392,342,252,238,231,224,216,194,159,105,38,14,14,14,14,14,14,14,14,14,14,14,14,14,14,9,29,56,60,60,60,60,60,60,59,57,57,57],"timestamp_mouse":[11,36,44,65,84,106,124,145,165,186,205,225,244,265,286,304,324,346,364,386,404,426,445,466,485,504,525,545,566,584,606,624,646,665,684,705,725,746,765,785,806,824,845,865,884,904,925,945,964,984,1004,1024,1044,1064,1084,1106,1125,1145,1164,1184,1204,1224,1244,1264,1284,1305,1324,1344,1365,1385,1405,1426,1445,1464,1484,1504,1524,1544,1564,1584,1604,1624,1645,1664,1685,1706,1725,1746,1765,1784],"xSR":741.5,"ySR":469.95,"xT1":424.9,"yT1":0,"xT2":1058.1,"yT2":0,"toosoon":0,"cond_shown":"equaldotanddens","ratio_trial":750,"smaller_num":"3","larger_num":"4","correct_side":1,"subjID":"Tomas_Felipe_Contreras_Duarte_39","gender":"0","age":"11","school":"sexto"},{"start_time":1551887999054,"click_time":1551888000302,"finger_time":1551888000002,"fix_duration":250,"trial":41,"RT":948,"MT":300,"sideResp":2,"stimulus":"img/900/randomdotsizeEA/R/14_Ratio_900_L_18_R_20.png","xmouse":[769,769,769,769,769,769,769,769,769,769,769,769,769,769,769,769,769,769,769,769,769,769,769,769,769,769,769,769,769,769,769,769,769,769,769,769,769,769,769,769,769,769,769,769,769,768,777,863,887,906,922,950,973,996,1027,1054,1082,1090,1090,1089,1086,1082,1072],"ymouse":[523,523,523,523,523,523,523,523,523,523,523,523,523,523,523,523,523,523,523,523,523,523,523,523,523,523,523,523,523,523,523,523,523,523,523,523,523,523,523,523,523,523,523,523,523,523,512,420,399,383,365,324,293,262,224,192,152,131,125,121,116,112,98],"timestamp_mouse":[8,28,58,69,89,109,128,148,169,188,209,230,248,269,288,308,328,348,368,388,409,428,449,470,489,510,528,548,568,589,608,628,649,668,690,710,728,748,770,789,808,829,848,868,890,910,928,948,968,989,1009,1028,1049,1068,1088,1110,1128,1148,1169,1188,1208,1228,1248],"xSR":741.5,"ySR":469.95,"xT1":424.9,"yT1":0,"xT2":1058.1,"yT2":0,"toosoon":0,"cond_shown":"randomdotsizeEA","ratio_trial":900,"smaller_num":"18","larger_num":"20","correct_side":2,"subjID":"Tomas_Felipe_Contreras_Duarte_39","gender":"0","age":"11","school":"sexto"},{"start_time":1551888005341,"click_time":1551888006422,"finger_time":1551888006302,"fix_duration":578.3138277414741,"trial":42,"RT":961,"MT":120,"sideResp":1,"stimulus":"img/250/equaldotsize/L/2_Ratio_250_L_16_R_4.png","xmouse":[777,777,777,777,777,777,777,777,777,777,777,777,777,777,777,777,777,777,777,777,777,777,777,777,777,777,777,777,777,777,777,777,777,777,777,777,777,777,784,791,805,809,809,809,809,809,809,806,775,730,685,635,563,533,518],"ymouse":[512,512,512,512,512,512,512,512,512,512,512,512,512,512,512,512,512,512,512,512,512,512,512,512,512,512,512,512,512,512,512,512,512,512,512,512,512,512,518,522,529,531,531,531,531,531,531,523,468,393,318,247,145,104,81],"timestamp_mouse":[9,21,41,62,82,101,122,141,161,182,201,221,242,261,282,302,323,342,361,381,401,421,441,461,481,503,521,541,561,581,601,621,641,661,681,701,721,742,761,781,801,822,842,862,881,903,921,941,961,981,1001,1022,1041,1062,1081],"xSR":741.5,"ySR":469.95,"xT1":424.9,"yT1":0,"xT2":1058.1,"yT2":0,"toosoon":0,"cond_shown":"equaldotsize","ratio_trial":250,"smaller_num":"4","larger_num":"16","correct_side":1,"subjID":"Tomas_Felipe_Contreras_Duarte_39","gender":"0","age":"11","school":"sexto"},{"start_time":1551888012230,"click_time":1551888013523,"finger_time":1551888013122,"fix_duration":927.0790742429956,"trial":43,"RT":892,"MT":401,"sideResp":1,"stimulus":"img/500/randomdotsizeEA/L/10_Ratio_500_L_4_R_2.png","xmouse":[787,787,787,787,787,787,787,787,787,787,787,787,787,787,787,787,787,787,787,787,787,787,787,787,787,787,787,787,787,787,787,787,787,787,787,787,787,787,787,787,787,787,787,774,719,649,591,520,508,507,504,498,488,481,472,457,444,431,431,431,436,440,457,464,469],"ymouse":[526,526,526,526,526,526,526,526,526,526,526,526,526,526,526,526,526,526,526,526,526,526,526,526,526,526,526,526,526,526,526,526,526,526,526,526,526,526,526,526,526,526,525,501,452,405,373,329,320,317,305,286,258,241,221,195,175,148,146,143,138,134,115,101,84],"timestamp_mouse":[12,41,52,72,94,112,133,152,172,193,212,232,252,273,293,312,332,352,373,394,413,432,452,472,492,512,533,552,572,593,612,633,652,672,692,712,733,752,772,792,812,834,853,872,892,912,932,952,973,993,1013,1032,1052,1073,1092,1112,1132,1152,1172,1193,1212,1233,1253,1272,1292],"xSR":741.5,"ySR":469.95,"xT1":424.9,"yT1":0,"xT2":1058.1,"yT2":0,"toosoon":0,"cond_shown":"randomdotsizeEA","ratio_trial":500,"smaller_num":"2","larger_num":"4","correct_side":1,"subjID":"Tomas_Felipe_Contreras_Duarte_39","gender":"0","age":"11","school":"sexto"},{"start_time":1551888016611,"click_time":1551888017883,"finger_time":1551888017523,"fix_duration":768.80749098408,"trial":44,"RT":912,"MT":360,"sideResp":1,"stimulus":"img/500/equaldotanddens/L/10_Ratio_500_L_4_R_2.png","xmouse":[791,791,791,791,791,791,791,791,791,791,791,791,791,791,791,791,791,791,791,791,791,791,791,791,791,791,791,791,791,791,791,791,791,791,791,791,791,791,791,791,791,791,791,791,791,780,758,729,668,642,642,642,642,642,642,642,642,642,642,642,642,642,642,462],"ymouse":[530,530,530,530,530,530,530,530,530,530,530,530,530,530,530,530,530,530,530,530,530,530,530,530,530,530,530,530,530,530,530,530,530,530,530,530,530,530,530,530,530,530,530,530,503,406,302,204,64,0,0,0,0,0,0,0,0,0,0,0,0,0,0,5],"timestamp_mouse":[11,47,53,72,92,112,131,152,172,192,212,232,251,271,292,312,331,352,372,391,413,432,452,471,492,513,533,551,573,592,613,631,651,672,691,711,732,751,771,791,811,831,852,872,891,912,931,953,971,992,1012,1032,1051,1072,1091,1111,1131,1151,1171,1191,1212,1233,1251,1272],"xSR":741.5,"ySR":469.95,"xT1":424.9,"yT1":0,"xT2":1058.1,"yT2":0,"toosoon":0,"cond_shown":"equaldotanddens","ratio_trial":500,"smaller_num":"2","larger_num":"4","correct_side":1,"subjID":"Tomas_Felipe_Contreras_Duarte_39","gender":"0","age":"11","school":"sexto"},{"start_time":1551888021339,"click_time":1551888022804,"finger_time":1551888022203,"fix_duration":794.002943919517,"trial":45,"RT":864,"MT":601,"sideResp":2,"stimulus":"img/250/randomdotsizeEA/R/11_Ratio_250_L_3_R_12.png","xmouse":[801,801,801,801,801,801,801,801,801,801,801,801,801,801,801,801,801,801,801,801,801,801,801,801,801,801,801,801,801,801,801,801,801,801,801,801,801,801,801,801,801,801,767,735,731,740,782,962,1090,1202,1279,1331,1372,1379,1379,1378,1378,1378,1376,1370,1352,1298,1144,1049,1018,991,973,968,968,968,968,972,1001,1108],"ymouse":[517,517,517,517,517,517,517,517,517,517,517,517,517,517,517,517,517,517,517,517,517,517,517,517,517,517,517,517,517,517,517,517,517,517,517,517,517,517,517,517,517,517,489,470,460,441,408,316,274,246,232,216,186,172,167,164,164,164,163,160,155,141,100,72,63,55,47,46,46,46,46,48,56,79],"timestamp_mouse":[9,23,44,64,83,105,123,144,164,183,203,224,243,263,283,303,325,343,363,383,404,423,444,463,485,504,524,543,564,583,603,623,643,663,683,703,723,744,763,783,804,824,843,864,884,903,923,943,964,983,1003,1023,1043,1063,1084,1105,1123,1144,1163,1183,1203,1223,1243,1264,1284,1303,1323,1344,1364,1383,1405,1423,1443,1464],"xSR":741.5,"ySR":469.95,"xT1":424.9,"yT1":0,"xT2":1058.1,"yT2":0,"toosoon":0,"cond_shown":"randomdotsizeEA","ratio_trial":250,"smaller_num":"3","larger_num":"12","correct_side":2,"subjID":"Tomas_Felipe_Contreras_Duarte_39","gender":"0","age":"11","school":"sexto"},{"start_time":1551888025174,"click_time":1551888026782,"finger_time":1551888026142,"fix_duration":1270.3528569295986,"trial":46,"RT":968,"MT":640,"sideResp":1,"stimulus":"img/900/randomdotsizeEA/R/7_Ratio_900_L_9_R_10.png","xmouse":[777,777,777,777,777,777,777,777,777,777,777,777,777,777,777,777,777,777,777,777,777,777,777,777,777,777,777,777,777,777,777,777,777,777,777,777,777,777,777,777,777,777,777,777,777,777,777,777,795,794,494,309,258,260,261,222,222,222,222,222,222,222,222,222,222,222,222,222,193,198,217,239,255,272,282,293,303,322,348,379,445],"ymouse":[511,511,511,511,511,511,511,511,511,511,511,511,511,511,511,511,511,511,511,511,511,511,511,511,511,511,511,511,511,511,511,511,511,511,511,511,511,511,511,511,511,511,511,511,511,511,511,511,458,417,242,193,165,158,127,22,22,22,22,22,22,22,22,22,22,22,22,22,23,37,69,94,108,121,124,125,121,108,93,82,69],"timestamp_mouse":[9,40,49,69,88,108,128,148,168,189,208,229,248,268,288,308,328,349,368,388,409,429,449,470,489,510,529,549,568,589,608,629,648,670,688,708,728,748,768,788,808,828,849,868,888,908,928,949,968,989,1009,1029,1048,1068,1089,1109,1128,1148,1168,1188,1208,1230,1249,1268,1288,1308,1329,1348,1369,1388,1409,1428,1449,1469,1488,1508,1529,1548,1569,1588,1608],"xSR":741.5,"ySR":469.95,"xT1":424.9,"yT1":0,"xT2":1058.1,"yT2":0,"toosoon":0,"cond_shown":"randomdotsizeEA","ratio_trial":900,"smaller_num":"9","larger_num":"10","correct_side":2,"subjID":"Tomas_Felipe_Contreras_Duarte_39","gender":"0","age":"11","school":"sexto"},{"start_time":1551888029574,"click_time":1551888030423,"finger_time":1551888030343,"fix_duration":250,"trial":47,"RT":769,"MT":80,"sideResp":1,"stimulus":"img/250/randomdotsizeEA/L/2_Ratio_250_L_16_R_4.png","xmouse":[816,818,819,819,819,819,819,819,819,819,819,819,819,819,819,819,819,819,819,819,819,819,819,819,819,819,819,819,819,819,819,819,819,819,819,820,822,806,754,678,534,491,479],"ymouse":[530,529,528,528,528,528,528,528,528,528,528,528,528,528,528,528,528,528,528,528,528,528,528,528,528,528,528,528,528,528,528,528,528,528,528,527,510,476,419,344,185,101,73],"timestamp_mouse":[16,38,49,68,88,109,128,148,169,188,208,229,249,268,288,308,328,348,369,388,408,428,450,468,489,509,528,548,569,588,609,629,650,668,688,709,728,748,769,788,808,829,848],"xSR":741.5,"ySR":469.95,"xT1":424.9,"yT1":0,"xT2":1058.1,"yT2":0,"toosoon":0,"cond_shown":"randomdotsizeEA","ratio_trial":250,"smaller_num":"4","larger_num":"16","correct_side":1,"subjID":"Tomas_Felipe_Contreras_Duarte_39","gender":"0","age":"11","school":"sexto"},{"start_time":1551888031773,"click_time":1551888032803,"finger_time":1551888032364,"fix_duration":250,"trial":48,"RT":591,"MT":439,"sideResp":1,"stimulus":"img/250/equaldotanddens/L/7_Ratio_250_L_8_R_2.png","xmouse":[804,804,804,804,804,804,804,804,804,804,804,804,804,804,804,804,804,804,804,804,804,804,804,804,804,804,795,791,781,766,719,697,691,691,691,689,686,680,668,656,628,597,572,545,525,511,510,509,509,509,509,509],"ymouse":[521,521,521,521,521,521,521,521,521,521,521,521,521,521,521,521,521,521,521,521,521,521,521,521,521,521,512,504,482,446,337,285,265,254,247,228,219,202,185,173,160,156,153,152,148,143,142,140,134,125,107,94],"timestamp_mouse":[10,41,49,70,89,109,130,149,170,189,209,229,249,269,289,310,330,350,369,389,409,429,450,471,490,511,529,549,569,591,609,629,650,669,689,709,730,749,769,790,809,830,850,870,889,909,930,949,969,989,1009,1030],"xSR":741.5,"ySR":469.95,"xT1":424.9,"yT1":0,"xT2":1058.1,"yT2":0,"toosoon":0,"cond_shown":"equaldotanddens","ratio_trial":250,"smaller_num":"2","larger_num":"8","correct_side":1,"subjID":"Tomas_Felipe_Contreras_Duarte_39","gender":"0","age":"11","school":"sexto"},{"start_time":1551888036475,"click_time":1551888036982,"finger_time":1551888036862,"fix_duration":250,"trial":49,"RT":387,"MT":120,"sideResp":1,"stimulus":"img/500/equaldotanddens/L/7_Ratio_500_L_10_R_5.png","xmouse":[771,771,771,771,771,771,771,771,771,771,771,771,771,771,771,771,765,761,758,753,737,720,698,655,599,488],"ymouse":[527,527,527,527,527,527,527,528,528,528,528,528,528,528,528,522,502,487,474,460,425,390,339,267,200,75],"timestamp_mouse":[10,36,47,68,88,108,129,147,168,189,207,228,248,268,287,308,328,348,367,387,408,428,447,467,488,507],"xSR":741.5,"ySR":469.95,"xT1":424.9,"yT1":0,"xT2":1058.1,"yT2":0,"toosoon":0,"cond_shown":"equaldotanddens","ratio_trial":500,"smaller_num":"5","larger_num":"10","correct_side":1,"subjID":"Tomas_Felipe_Contreras_Duarte_39","gender":"0","age":"11","school":"sexto"},{"start_time":1551888040012,"click_time":1551888041142,"finger_time":1551888041062,"fix_duration":687.898523289744,"trial":50,"RT":1050,"MT":80,"sideResp":1,"stimulus":"img/250/randomdotsizeEA/L/1_Ratio_250_L_8_R_2.png","xmouse":[795,795,795,795,795,795,795,795,795,795,795,795,795,795,795,795,795,795,795,795,795,795,795,795,795,795,795,795,795,795,795,795,795,795,795,795,795,795,795,795,795,795,795,795,795,795,795,795,795,795,797,797,783,684,613,538,485],"ymouse":[522,522,522,522,522,522,522,522,522,522,522,522,522,522,522,522,522,522,522,522,522,522,522,522,522,522,522,522,522,522,522,522,522,522,522,522,522,522,522,522,522,522,522,522,522,522,522,522,522,522,513,493,414,210,129,68,36],"timestamp_mouse":[11,39,51,70,90,110,132,150,170,191,211,230,251,271,292,310,330,351,370,392,411,431,450,470,491,511,530,550,571,590,611,630,650,671,691,710,730,751,770,790,810,831,850,871,891,910,930,951,970,991,1011,1030,1050,1071,1091,1110,1130],"xSR":741.5,"ySR":469.95,"xT1":424.9,"yT1":0,"xT2":1058.1,"yT2":0,"toosoon":0,"cond_shown":"randomdotsizeEA","ratio_trial":250,"smaller_num":"2","larger_num":"8","correct_side":1,"subjID":"Tomas_Felipe_Contreras_Duarte_39","gender":"0","age":"11","school":"sexto"},{"start_time":1551888043194,"click_time":1551888044403,"finger_time":1551888044002,"fix_duration":1050.1913672144249,"trial":51,"RT":808,"MT":401,"sideResp":2,"stimulus":"img/500/equaldotsize/R/14_Ratio_500_L_5_R_10.png","xmouse":[781,781,781,781,781,781,781,781,781,781,781,781,781,781,781,781,781,781,781,781,781,781,781,781,781,781,781,781,781,781,781,781,781,781,781,781,781,781,784,799,839,898,948,989,1026,1030,1031,1032,1032,1033,1033,1033,1032,1031,1030,1030,1034,1039,1044,1054,1059],"ymouse":[535,535,535,535,535,535,535,535,535,535,535,535,535,535,535,533,533,533,533,533,533,533,533,533,533,533,533,533,533,533,533,533,533,533,533,533,533,527,520,498,436,364,318,282,250,243,238,233,226,201,184,174,164,154,141,135,128,119,112,100,93],"timestamp_mouse":[9,36,49,69,88,109,130,148,170,189,208,228,248,268,288,308,329,349,369,388,409,429,449,468,489,509,528,549,569,588,609,629,648,668,688,708,728,749,769,788,808,828,849,868,888,909,928,948,969,988,1009,1029,1048,1068,1089,1108,1129,1148,1170,1188,1209],"xSR":741.5,"ySR":469.95,"xT1":424.9,"yT1":0,"xT2":1058.1,"yT2":0,"toosoon":0,"cond_shown":"equaldotsize","ratio_trial":500,"smaller_num":"5","larger_num":"10","correct_side":2,"subjID":"Tomas_Felipe_Contreras_Duarte_39","gender":"0","age":"11","school":"sexto"},{"start_time":1551888046054,"click_time":1551888047063,"finger_time":1551888046962,"fix_duration":870.4664689632349,"trial":52,"RT":908,"MT":101,"sideResp":1,"stimulus":"img/250/equaldotsize/L/3_Ratio_250_L_8_R_2.png","xmouse":[796,796,796,796,796,796,796,796,796,796,796,796,796,796,796,796,796,796,796,796,796,796,796,796,796,796,796,796,796,796,796,796,796,796,796,796,796,796,796,796,796,796,796,796,792,775,664,632,544,503,481],"ymouse":[513,513,513,513,513,513,513,513,513,513,513,513,513,513,513,513,513,513,513,513,513,513,513,513,513,513,513,513,513,513,513,513,513,513,513,513,513,513,513,513,513,513,513,507,492,440,277,245,154,114,95],"timestamp_mouse":[8,32,49,69,89,109,128,150,169,190,209,229,248,268,289,308,328,348,368,389,409,428,448,468,488,510,529,548,568,589,608,628,648,668,688,709,729,748,769,788,808,828,848,869,888,908,929,949,969,988,1009],"xSR":741.5,"ySR":469.95,"xT1":424.9,"yT1":0,"xT2":1058.1,"yT2":0,"toosoon":0,"cond_shown":"equaldotsize","ratio_trial":250,"smaller_num":"2","larger_num":"8","correct_side":1,"subjID":"Tomas_Felipe_Contreras_Duarte_39","gender":"0","age":"11","school":"sexto"},{"start_time":1551888048913,"click_time":1551888049943,"finger_time":1551888049582,"fix_duration":948.1886968009311,"trial":53,"RT":669,"MT":361,"sideResp":2,"stimulus":"img/500/randomdotsizeEA/L/5_Ratio_500_L_4_R_2.png","xmouse":[792,792,792,792,792,792,792,792,792,792,792,792,792,792,792,792,792,792,792,792,792,792,792,792,792,792,792,792,792,792,792,792,802,860,940,985,1019,1047,1068,1069,1070,1070,1070,1075,1078,1078,1078,1079,1082,1084,1085,1088],"ymouse":[550,550,550,550,550,550,550,550,550,550,550,550,550,550,550,550,550,550,550,550,550,550,550,550,550,550,550,550,550,550,544,534,514,443,338,284,244,212,186,182,180,178,172,153,138,132,128,125,117,111,106,99],"timestamp_mouse":[11,31,49,69,90,109,129,150,169,189,211,230,250,270,290,310,330,349,369,389,409,430,449,469,489,509,529,551,569,589,609,629,650,669,689,709,729,749,769,789,809,829,850,869,889,909,929,949,969,989,1009,1030],"xSR":741.5,"ySR":469.95,"xT1":424.9,"yT1":0,"xT2":1058.1,"yT2":0,"toosoon":0,"cond_shown":"randomdotsizeEA","ratio_trial":500,"smaller_num":"2","larger_num":"4","correct_side":1,"subjID":"Tomas_Felipe_Contreras_Duarte_39","gender":"0","age":"11","school":"sexto"},{"start_time":1551888053415,"click_time":1551888054382,"finger_time":1551888054062,"fix_duration":250,"trial":54,"RT":647,"MT":320,"sideResp":2,"stimulus":"img/500/equaldotsize/R/9_Ratio_500_L_2_R_4.png","xmouse":[762,762,762,757,751,750,748,747,747,747,747,747,747,747,747,747,747,747,747,747,747,747,747,747,747,747,747,747,747,747,748,770,811,911,947,966,981,990,1003,1017,1033,1054,1074,1083,1085,1085,1085,1085,1087],"ymouse":[529,529,529,529,528,527,527,527,527,527,527,527,527,527,527,527,527,527,527,527,527,527,527,527,527,527,527,527,527,527,517,477,412,297,254,224,207,194,171,152,139,127,115,104,101,100,100,100,98],"timestamp_mouse":[10,33,47,67,88,108,127,147,167,189,207,227,247,268,287,307,328,348,368,389,408,427,448,467,488,508,527,548,567,587,607,627,647,668,687,708,728,747,767,788,807,828,847,867,887,907,928,947,967],"xSR":741.5,"ySR":469.95,"xT1":424.9,"yT1":0,"xT2":1058.1,"yT2":0,"toosoon":0,"cond_shown":"equaldotsize","ratio_trial":500,"smaller_num":"2","larger_num":"4","correct_side":2,"subjID":"Tomas_Felipe_Contreras_Duarte_39","gender":"0","age":"11","school":"sexto"},{"start_time":1551888056684,"click_time":1551888057762,"finger_time":1551888057442,"fix_duration":1300.039127865398,"trial":55,"RT":758,"MT":320,"sideResp":1,"stimulus":"img/750/equaldotsize/L/6_Ratio_750_L_24_R_18.png","xmouse":[786,786,786,786,786,786,786,786,786,786,786,786,786,786,786,786,786,786,786,785,782,781,781,781,780,780,779,779,778,778,778,778,778,777,769,762,743,721,688,585,533,487,443,414,393,390,390,390,390,395,401,410,420,429],"ymouse":[526,526,526,526,526,526,526,526,526,526,526,526,526,526,526,526,526,526,526,526,526,526,526,526,530,530,530,531,531,531,531,531,531,531,522,512,485,449,390,258,208,169,138,116,92,85,80,76,74,66,61,56,49,45],"timestamp_mouse":[19,41,58,79,98,119,139,158,179,199,219,238,258,278,298,319,339,359,379,399,418,440,459,478,498,518,540,558,579,598,618,638,658,679,698,718,738,758,778,799,819,839,859,878,898,919,938,960,978,999,1019,1038,1058,1078],"xSR":741.5,"ySR":469.95,"xT1":424.9,"yT1":0,"xT2":1058.1,"yT2":0,"toosoon":0,"cond_shown":"equaldotsize","ratio_trial":750,"smaller_num":"18","larger_num":"24","correct_side":1,"subjID":"Tomas_Felipe_Contreras_Duarte_39","gender":"0","age":"11","school":"sexto"},{"start_time":1551888060355,"click_time":1551888061443,"finger_time":1551888061082,"fix_duration":250,"trial":56,"RT":727,"MT":361,"sideResp":1,"stimulus":"img/500/equaldotsize/L/4_Ratio_500_L_18_R_9.png","xmouse":[830,830,830,830,830,830,830,830,830,830,830,830,830,830,830,830,830,830,830,830,830,830,830,830,830,830,830,830,830,830,830,830,830,829,820,799,699,628,559,506,484,471,471,473,476,478,481,482,484,484,484,484,484,488,492],"ymouse":[527,527,527,527,527,527,527,527,527,527,527,527,527,527,527,527,527,527,527,527,527,527,527,527,527,527,527,527,527,527,527,527,527,526,510,482,367,302,248,216,199,177,162,149,138,127,116,113,111,111,111,111,108,102,96],"timestamp_mouse":[8,42,47,68,87,107,127,148,167,187,207,227,247,268,287,308,327,347,367,387,407,428,448,468,488,507,527,549,569,588,609,627,648,667,687,707,727,747,768,787,808,827,847,867,887,907,927,948,968,987,1008,1028,1048,1067,1088],"xSR":741.5,"ySR":469.95,"xT1":424.9,"yT1":0,"xT2":1058.1,"yT2":0,"toosoon":0,"cond_shown":"equaldotsize","ratio_trial":500,"smaller_num":"9","larger_num":"18","correct_side":1,"subjID":"Tomas_Felipe_Contreras_Duarte_39","gender":"0","age":"11","school":"sexto"},{"start_time":1551888062576,"click_time":1551888063443,"finger_time":1551888063343,"fix_duration":292.55776597100333,"trial":57,"RT":767,"MT":100,"sideResp":1,"stimulus":"img/250/randomdotsizeEA/L/7_Ratio_250_L_8_R_2.png","xmouse":[777,777,777,777,777,777,777,777,777,777,777,777,777,777,777,777,777,777,777,777,777,777,777,777,777,777,777,777,777,777,777,777,777,777,777,777,777,756,740,712,672,546,515,494],"ymouse":[521,521,521,521,521,521,521,521,521,521,521,521,521,521,521,521,521,521,521,521,521,521,521,521,521,521,521,521,521,521,521,521,521,521,521,521,521,492,467,412,345,173,124,87],"timestamp_mouse":[8,35,47,67,88,106,126,147,167,186,207,226,247,267,288,307,326,346,367,386,406,426,446,467,486,506,526,547,568,587,606,626,646,666,687,706,727,746,767,786,806,826,846,867],"xSR":741.5,"ySR":469.95,"xT1":424.9,"yT1":0,"xT2":1058.1,"yT2":0,"toosoon":0,"cond_shown":"randomdotsizeEA","ratio_trial":250,"smaller_num":"2","larger_num":"8","correct_side":1,"subjID":"Tomas_Felipe_Contreras_Duarte_39","gender":"0","age":"11","school":"sexto"},{"start_time":1551888064495,"click_time":1551888065822,"finger_time":1551888065742,"fix_duration":250,"trial":58,"RT":1247,"MT":80,"sideResp":2,"stimulus":"img/900/equaldotsize/L/1_Ratio_900_L_10_R_9.png","xmouse":[821,821,821,821,821,821,821,819,816,813,812,810,809,809,809,809,809,809,809,809,809,809,809,809,809,809,809,809,809,809,809,809,809,809,809,809,809,809,809,809,809,809,809,809,809,809,809,809,809,809,809,809,809,809,809,809,809,809,809,809,814,820,843,894,1007,1048,1062],"ymouse":[515,515,515,515,515,515,515,515,515,515,516,516,516,516,516,516,516,516,516,516,516,516,516,516,516,516,516,516,516,516,516,516,516,516,516,516,516,516,516,516,516,516,516,516,516,516,516,516,516,516,516,516,516,516,516,516,516,516,516,516,495,476,405,314,166,110,89],"timestamp_mouse":[8,40,47,69,87,108,128,148,167,187,207,227,247,267,287,307,328,347,367,387,407,428,447,467,487,508,528,547,567,587,608,628,649,667,687,707,728,747,767,787,807,828,846,867,887,907,927,947,967,986,1008,1028,1047,1067,1086,1107,1126,1148,1167,1187,1207,1227,1247,1268,1286,1307,1327],"xSR":741.5,"ySR":469.95,"xT1":424.9,"yT1":0,"xT2":1058.1,"yT2":0,"toosoon":0,"cond_shown":"equaldotsize","ratio_trial":900,"smaller_num":"9","larger_num":"10","correct_side":1,"subjID":"Tomas_Felipe_Contreras_Duarte_39","gender":"0","age":"11","school":"sexto"},{"start_time":1551888067379,"click_time":1551888068562,"finger_time":1551888068062,"fix_duration":836.2533446855837,"trial":59,"RT":683,"MT":500,"sideResp":1,"stimulus":"img/750/equaldotanddens/L/6_Ratio_750_L_24_R_18.png","xmouse":[789,789,789,789,789,789,789,789,789,789,789,789,789,789,789,789,789,789,789,789,789,789,789,789,789,789,789,789,789,789,789,789,789,778,727,500,374,374,374,374,374,374,374,374,374,374,393,400,410,415,424,427,427,427,427,430,437,445,456,467],"ymouse":[522,522,522,522,522,522,522,522,522,522,522,522,522,522,522,522,522,522,522,522,522,522,522,522,522,522,522,522,522,522,522,522,512,486,381,112,5,5,5,5,5,5,5,5,5,5,2,31,71,115,162,174,175,175,175,166,147,127,105,83],"timestamp_mouse":[11,37,43,63,83,104,123,144,163,183,204,223,243,264,282,302,323,344,364,383,403,423,443,463,483,502,524,543,563,582,604,624,643,662,683,703,722,744,763,783,804,824,843,863,883,904,923,943,963,984,1003,1022,1043,1063,1084,1102,1123,1144,1164,1183],"xSR":741.5,"ySR":469.95,"xT1":424.9,"yT1":0,"xT2":1058.1,"yT2":0,"toosoon":0,"cond_shown":"equaldotanddens","ratio_trial":750,"smaller_num":"18","larger_num":"24","correct_side":1,"subjID":"Tomas_Felipe_Contreras_Duarte_39","gender":"0","age":"11","school":"sexto"},{"start_time":1551888071094,"click_time":1551888072363,"finger_time":1551888072002,"fix_duration":491.41517494572184,"trial":60,"RT":908,"MT":361,"sideResp":2,"stimulus":"img/750/randomdotsizeEA/R/2_Ratio_750_L_6_R_8.png","xmouse":[788,788,788,788,788,788,788,788,788,788,788,788,788,788,788,788,788,788,788,788,788,788,788,788,788,788,788,788,788,788,788,788,788,788,788,788,788,788,788,788,788,788,788,788,788,802,829,864,895,925,932,938,946,955,968,973,975,978,984,1011,1031,1043,1058,1072],"ymouse":[513,513,513,513,513,513,513,513,513,513,513,513,513,513,513,513,513,513,513,513,513,513,513,513,513,513,513,513,513,51