[{"start_time":1551886994191,"click_time":1551887020814,"finger_time":1551886994200,"fix_duration":834.520542200926,"trial":0,"RT":9,"MT":26614,"sideResp":2,"stimulus":[],"xmouse":[794,794,794,794,794,794,794,794,794,794,794,794,794,794,794,794,794,794,794,794,794,794,794,794,794,794,794,794,794,794,795,795,797,797,797,797,797,797,797,797,797,797,797,797,797,797,797,797,796,796,796,796,794,794,794,794,794,793,792,792,792,792,792,792,792,792,792,792,792,792,793,795,797,797,797,797,797,797,797,797,797,797,797,797,797,797,797,797,797,797,797,797,797,797,797,797,797,797,797,797,797,797,797,797,797,797,797,797,797,797,797,797,797,797,797,797,797,797,797,797,797,797,797,797,797,797,797,797,797,797,797,797,797,797,797,797,797,797,797,797,797,797,797,797,797,797,797,797,797,797,797,797,797,797,797,797,797,797,797,797,797,797,797,797,797,797,797,797,797,797,797,797,797,797,797,797,797,797,797,797,797,797,797,797,797,797,797,797,797,797,797,797,797,797,797,797,797,797,797,797,797,797,797,797,797,797,797,797,797,797,797,797,797,797,797,797,797,797,797,797,797,797,797,797,797,797,797,797,797,797,797,797,797,797,797,797,797,797,797,797,797,797,797,797,797,797,797,797,797,797,797,797,797,797,797,797,797,797,797,797,797,797,797,797,797,797,797,797,797,797,797,797,797,797,797,797,797,797,797,797,797,797,797,797,797,797,797,797,797,797,797,797,797,797,797,797,797,797,797,797,797,797,797,797,797,797,797,797,797,797,797,797,797,797,797,797,797,797,797,797,797,797,797,797,797,797,797,797,797,797,797,797,797,797,797,797,797,797,797,797,797,797,797,797,797,797,797,797,797,797,797,797,797,797,797,797,797,797,797,797,797,797,797,797,797,797,797,797,797,797,797,797,797,797,797,797,797,797,797,797,797,797,797,797,797,797,797,797,797,797,797,797,797,797,797,797,797,797,797,797,797,797,797,797,797,797,797,797,797,797,797,797,796,794,793,792,791,787,773,772,772,772,771,770,768,768,768,767,767,767,767,767,769,771,773,774,774,774,774,774,774,774,774,774,774,774,775,777,779,784,793,805,828,833,833,833,834,833,831,823,815,791,743,726,720,720,720,720,720,720,719,719,722,726,728,732,735,743,747,752,761,778,789,806,813,816,816,816,816,816,816,814,806,801,795,789,784,779,777,775,774,774,773,773,773,773,773,773,773,773,773,773,774,775,778,780,782,784,785,787,788,789,790,790,790,790,790,790,790,790,790,790,790,790,790,790,789,789,788,788,788,788,788,788,788,788,788,788,788,788,788,788,788,788,788,788,788,788,788,788,788,788,788,788,788,788,788,788,788,788,788,788,788,788,788,788,788,788,788,788,788,788,788,788,788,788,788,788,788,788,788,788,788,788,788,788,788,788,788,788,788,788,788,788,788,788,788,788,788,788,788,788,788,788,788,788,788,788,788,788,788,788,788,788,788,788,788,788,788,788,788,788,788,788,788,788,788,788,788,788,788,788,788,788,788,788,788,788,788,788,788,788,788,788,788,788,788,788,788,788,788,788,788,788,788,788,788,788,788,788,788,788,788,788,788,788,788,788,788,788,788,788,788,788,788,788,788,788,788,788,788,788,788,788,788,788,788,788,788,788,788,788,788,788,788,788,788,788,788,788,788,788,788,788,788,788,788,788,788,788,788,788,788,788,788,788,788,788,788,788,788,788,788,788,788,788,788,788,788,788,788,788,788,788,788,788,788,788,788,788,788,788,788,788,788,788,788,788,788,788,788,788,788,788,788,788,788,788,788,788,788,788,788,788,788,788,788,788,788,788,788,788,788,788,788,788,788,788,788,788,788,788,788,788,788,788,788,788,788,788,788,788,788,788,788,788,788,788,788,788,788,788,788,788,788,788,788,788,788,788,788,788,788,788,788,788,788,788,788,788,788,788,788,788,788,788,788,788,788,788,788,788,788,788,788,788,788,788,788,788,788,788,788,788,788,788,788,788,788,788,788,788,788,788,788,788,788,788,788,788,788,788,788,788,788,788,788,788,788,788,788,788,788,788,788,788,788,788,788,788,788,788,788,788,788,788,788,788,788,788,788,788,788,788,788,788,788,788,788,788,788,788,788,788,788,788,788,788,788,788,788,788,788,788,788,788,788,788,788,788,788,788,788,788,788,788,788,788,788,788,788,788,788,788,788,788,788,788,788,788,788,788,788,788,788,788,788,788,788,788,788,788,788,788,788,788,788,788,788,788,788,788,788,788,788,788,788,788,788,788,788,788,788,788,788,788,788,788,788,788,788,788,788,788,788,788,788,788,788,788,788,788,788,788,788,788,788,788,788,788,788,788,788,788,788,788,788,788,788,788,788,788,788,788,788,788,788,788,788,788,788,788,788,788,788,788,788,788,788,788,788,788,788,788,788,788,788,788,788,788,788,788,788,788,788,788,788,788,788,788,788,788,788,788,788,788,788,788,788,788,788,788,788,788,788,788,788,788,788,788,788,788,788,788,788,788,788,788,788,788,788,788,788,788,788,788,788,788,788,788,788,788,788,788,788,788,788,788,788,788,788,788,788,788,788,788,788,788,788,788,788,788,788,788,788,788,788,788,788,788,788,788,788,788,788,788,788,788,788,788,788,788,788,788,788,788,788,788,788,788,788,788,788,788,788,788,788,788,788,788,788,788,788,788,788,788,788,788,788,788,788,788,788,788,788,788,788,788,788,788,788,788,788,788,788,788,788,788,788,788,788,788,788,788,788,788,788,788,788,788,788,788,788,788,788,788,788,788,788,788,788,788,788,788,788,788,788,788,788,788,788,788,788,788,788,788,788,788,788,788,788,788,788,788,788,788,788,788,788,788,788,788,788,788,788,788,788,788,788,788,788,788,788,788,788,788,788,788,788,788,788,788,788,788,788,788,788,788,788,788,788,788,788,788,788,788,788,788,788,788,788,788,788,788,788,788,788,788,788,788,788,788,788,788,788,788,788,788,788,788,788,792,837,898,940,970,992,998,997,994,993,991,990,992,995,1005,1019,1053,1067,1077,1081,1083,1083,1081,1077,1073,1071,1071,1071,1072,1073,1075],"ymouse":[528,528,528,528,528,528,528,528,528,528,528,528,528,528,528,528,528,528,528,528,528,528,528,528,528,528,528,528,528,530,535,541,563,573,578,584,587,588,588,588,588,588,590,591,592,592,592,592,593,593,593,595,603,604,605,607,610,613,615,617,620,621,623,623,623,623,623,623,623,623,622,621,616,615,615,615,614,614,614,614,614,614,614,614,614,614,614,614,614,614,614,614,614,614,614,614,614,614,614,614,614,614,614,614,614,614,614,614,614,614,614,614,614,614,614,614,614,614,614,614,614,614,614,614,614,614,614,614,614,614,614,614,614,614,614,614,614,614,614,614,614,614,614,614,614,614,614,614,614,614,614,614,614,614,614,614,614,614,614,614,614,614,614,614,614,614,614,614,614,614,614,614,614,614,614,614,614,614,614,614,614,614,614,614,614,614,614,614,614,614,614,614,614,614,614,614,614,614,614,614,614,614,614,614,614,614,614,614,614,614,614,614,614,614,614,614,614,614,614,614,614,614,614,614,614,614,614,614,614,614,614,614,614,614,614,614,614,614,614,614,614,614,614,614,614,614,614,614,614,614,614,614,614,614,614,614,614,614,614,614,614,614,614,614,614,614,614,614,614,614,614,614,614,614,614,614,614,614,614,614,614,614,614,614,614,614,614,614,614,614,614,614,614,614,614,614,614,614,614,614,614,614,614,614,614,614,614,614,614,614,614,614,614,614,614,614,614,614,614,614,614,614,614,614,614,614,614,614,614,614,614,614,614,614,614,614,614,614,614,614,614,614,614,614,614,614,614,614,614,614,614,614,614,614,614,614,614,614,614,614,614,614,614,614,614,614,614,614,614,614,614,614,614,614,614,614,614,614,614,614,614,614,614,614,614,614,614,614,614,614,614,614,614,614,614,614,614,614,614,614,614,614,614,614,614,614,614,614,613,613,613,613,613,612,612,612,612,614,617,617,617,617,617,617,617,617,617,616,616,616,616,616,616,616,617,618,618,618,618,618,618,618,618,618,618,618,619,620,621,621,622,626,630,630,630,630,630,625,623,621,621,620,620,620,620,620,620,620,620,620,621,621,624,625,625,625,625,625,625,625,619,609,603,598,597,597,597,597,597,598,600,601,603,604,605,605,606,607,608,609,610,611,611,611,611,612,612,612,612,612,612,612,614,615,616,617,618,619,619,620,620,621,621,621,621,621,621,621,621,621,621,621,621,621,621,621,621,621,621,621,621,621,621,621,621,621,621,621,621,621,621,621,621,621,621,621,621,621,618,616,615,615,615,615,615,615,615,615,615,615,615,615,615,615,615,615,615,615,615,615,615,615,615,615,615,615,615,615,615,615,615,615,615,615,615,615,615,615,615,615,615,615,615,615,615,615,615,615,615,615,615,615,615,615,615,615,615,615,615,615,615,615,615,615,615,615,615,615,615,615,615,615,615,615,615,615,615,615,615,615,615,615,615,615,615,615,615,615,615,615,615,615,615,615,615,615,615,615,615,615,615,615,615,615,615,615,615,615,615,615,615,615,615,615,615,615,615,615,615,615,615,615,615,615,615,615,615,615,615,615,615,615,615,615,615,615,615,615,615,615,615,615,615,615,615,615,615,615,615,615,615,615,615,615,615,615,615,615,615,615,615,615,615,615,615,615,615,615,615,615,615,615,615,615,615,615,615,615,615,615,615,615,615,615,615,615,615,615,615,615,615,615,615,615,615,615,615,615,615,615,615,615,615,615,615,615,615,615,615,615,615,615,615,615,615,615,615,615,615,615,615,615,615,615,615,615,615,615,615,615,615,615,615,615,615,615,615,615,615,615,615,615,615,615,615,615,615,615,615,615,615,615,615,615,615,615,615,615,615,615,615,615,615,615,615,615,615,615,615,615,615,615,615,615,615,615,615,615,615,615,615,615,615,615,615,615,615,615,615,615,615,615,615,615,615,615,615,615,615,615,615,615,615,615,615,615,615,615,615,615,615,615,615,615,615,615,615,615,615,615,615,615,615,615,615,615,615,615,615,615,615,615,615,615,615,615,615,615,615,615,615,615,615,615,615,615,615,615,615,615,615,615,615,615,615,615,615,615,615,615,615,615,615,615,615,615,615,615,615,615,615,615,615,615,615,615,615,615,615,615,615,615,615,615,615,615,615,615,615,615,615,615,615,615,615,615,615,615,615,615,615,615,615,615,615,615,615,615,615,615,615,615,615,615,615,615,615,615,615,615,615,615,615,615,615,615,615,615,615,615,615,615,615,615,615,615,615,615,615,615,615,615,615,615,615,615,615,615,615,615,615,615,615,615,615,615,615,615,615,615,615,615,615,615,615,615,615,615,615,615,615,615,615,615,615,615,615,615,615,615,615,615,615,615,615,615,615,615,615,615,615,615,615,615,615,615,615,615,615,615,615,615,615,615,615,615,615,615,615,615,615,615,615,615,615,615,615,615,615,615,615,615,615,615,615,615,615,615,615,615,615,615,615,615,615,615,615,615,615,615,615,615,615,615,615,615,615,615,615,615,615,615,615,615,615,615,615,615,615,615,615,615,615,615,615,615,615,615,615,615,615,615,615,615,615,615,615,615,615,615,615,615,615,615,615,615,615,615,615,615,615,615,615,615,615,615,615,615,615,615,615,615,615,615,615,615,615,615,615,615,615,615,615,615,615,615,615,615,615,615,615,615,615,615,615,615,615,615,615,615,615,615,615,615,615,615,615,615,615,615,615,615,615,615,615,615,615,615,615,615,615,615,615,615,615,615,615,615,615,615,615,615,615,615,615,615,615,615,615,615,615,615,615,615,615,615,615,615,615,615,615,615,615,615,615,615,615,615,615,615,615,615,615,615,615,615,615,615,615,615,615,615,615,615,615,615,615,615,615,615,615,615,615,615,615,615,615,615,615,615,615,615,615,615,615,615,615,615,615,615,615,615,615,615,615,615,615,615,615,615,615,613,533,424,345,265,176,114,103,97,97,97,97,98,99,102,104,112,115,116,117,117,118,118,118,118,118,116,116,112,105,95],"timestamp_mouse":[9,23,43,61,82,101,122,142,162,182,201,221,241,262,281,302,321,341,361,382,402,423,442,461,481,501,522,542,562,581,601,623,642,662,681,701,721,743,763,781,801,822,842,862,881,902,921,942,961,981,1001,1021,1041,1062,1081,1102,1122,1142,1161,1182,1201,1222,1243,1263,1281,1301,1322,1342,1361,1383,1401,1421,1441,1461,1481,1501,1521,1543,1561,1582,1601,1621,1642,1661,1681,1703,1721,1742,1762,1781,1801,1822,1843,1863,1881,1903,1921,1941,1962,1981,2002,2021,2042,2063,2081,2102,2122,2141,2161,2182,2201,2221,2242,2263,2281,2301,2322,2342,2361,2381,2402,2422,2442,2461,2483,2501,2521,2542,2562,2581,2601,2623,2641,2662,2681,2701,2721,2743,2762,2781,2801,2821,2843,2861,2881,2902,2921,2942,2963,2981,3001,3021,3041,3061,3081,3101,3123,3142,3162,3183,3202,3223,3241,3262,3283,3301,3321,3341,3361,3381,3401,3421,3441,3462,3482,3501,3523,3541,3562,3581,3603,3622,3642,3662,3682,3703,3723,3741,3762,3783,3802,3823,3842,3861,3882,3903,3922,3941,3961,3982,4001,4022,4041,4063,4082,4101,4122,4141,4162,4182,4201,4222,4241,4263,4281,4301,4321,4341,4361,4382,4401,4423,4441,4461,4481,4502,4521,4542,4562,4581,4601,4622,4641,4661,4681,4703,4721,4741,4761,4782,4802,4823,4841,4862,4883,4901,4922,4941,4961,4981,5001,5022,5041,5061,5081,5102,5121,5142,5162,5182,5201,5222,5241,5261,5282,5303,5321,5342,5362,5381,5401,5421,5441,5463,5481,5501,5523,5541,5561,5581,5602,5621,5641,5661,5682,5703,5721,5741,5761,5782,5803,5821,5842,5863,5882,5902,5922,5941,5962,5981,6002,6021,6041,6062,6081,6102,6121,6141,6162,6181,6201,6221,6243,6261,6281,6302,6321,6343,6362,6381,6401,6421,6443,6461,6481,6502,6522,6541,6562,6581,6601,6623,6641,6663,6682,6702,6722,6741,6763,6781,6801,6822,6843,6861,6881,6902,6922,6941,6961,6983,7001,7022,7041,7063,7082,7101,7122,7142,7163,7181,7201,7223,7242,7263,7282,7303,7321,7341,7361,7381,7401,7421,7442,7461,7482,7502,7522,7541,7561,7582,7601,7622,7641,7662,7681,7702,7723,7741,7761,7783,7802,7823,7842,7861,7882,7903,7921,7941,7961,7981,8001,8023,8041,8062,8082,8101,8121,8141,8162,8181,8202,8221,8241,8262,8281,8301,8321,8342,8361,8381,8401,8421,8442,8463,8481,8501,8521,8543,8563,8582,8603,8622,8641,8661,8682,8702,8721,8742,8762,8783,8801,8821,8843,8861,8883,8902,8922,8941,8962,8983,9002,9023,9041,9061,9081,9101,9121,9141,9162,9181,9201,9222,9242,9262,9281,9301,9323,9342,9363,9381,9401,9421,9442,9462,9481,9502,9521,9541,9561,9583,9602,9622,9641,9661,9681,9703,9722,9741,9761,9782,9801,9821,9841,9862,9881,9901,9921,9943,9962,9981,10002,10022,10042,10062,10083,10101,10122,10142,10161,10183,10202,10223,10241,10261,10281,10301,10321,10342,10361,10382,10403,10421,10442,10463,10481,10503,10521,10543,10561,10583,10601,10623,10641,10662,10683,10703,10722,10743,10761,10782,10803,10822,10842,10862,10882,10903,10922,10941,10961,10983,11003,11021,11042,11062,11083,11102,11122,11142,11162,11182,11202,11221,11241,11263,11281,11301,11322,11341,11361,11381,11402,11422,11442,11461,11481,11502,11522,11542,11562,11582,11603,11622,11641,11662,11682,11701,11721,11742,11761,11783,11802,11821,11842,11861,11882,11901,11922,11942,11962,11981,12003,12021,12041,12063,12081,12101,12123,12143,12161,12183,12201,12221,12241,12261,12281,12302,12322,12341,12362,12383,12402,12422,12442,12461,12482,12503,12522,12542,12562,12582,12602,12622,12642,12663,12683,12701,12722,12742,12762,12781,12802,12822,12841,12861,12883,12902,12921,12942,12963,12981,13003,13022,13042,13061,13082,13102,13123,13141,13161,13182,13201,13222,13241,13261,13281,13302,13322,13343,13361,13382,13401,13422,13442,13462,13481,13501,13523,13542,13562,13582,13603,13622,13642,13661,13682,13702,13723,13742,13761,13783,13801,13822,13841,13861,13883,13903,13923,13941,13963,13982,14001,14022,14041,14063,14082,14101,14122,14141,14161,14181,14201,14221,14243,14261,14282,14301,14323,14341,14361,14381,14402,14422,14442,14461,14481,14503,14521,14541,14561,14581,14601,14622,14641,14662,14683,14702,14722,14741,14762,14781,14802,14821,14841,14862,14882,14901,14922,14942,14963,14982,15001,15021,15042,15062,15083,15101,15122,15142,15161,15181,15201,15221,15241,15261,15283,15302,15323,15341,15361,15382,15401,15421,15442,15461,15482,15502,15521,15542,15561,15583,15601,15621,15641,15662,15681,15701,15723,15742,15763,15781,15801,15821,15843,15861,15882,15903,15921,15942,15961,15983,16001,16021,16041,16061,16081,16101,16122,16142,16161,16182,16201,16222,16243,16261,16281,16303,16323,16342,16361,16383,16402,16421,16443,16464,16483,16503,16523,16543,16564,16583,16602,16624,16643,16663,16683,16702,16723,16742,16762,16782,16804,16822,16842,16863,16883,16904,16924,16942,16962,16982,17004,17022,17043,17063,17084,17102,17124,17143,17164,17183,17204,17223,17243,17263,17282,17302,17324,17343,17363,17383,17402,17424,17443,17463,17483,17504,17523,17542,17564,17582,17604,17622,17644,17662,17682,17703,17724,17743,17762,17783,17802,17823,17842,17863,17883,17903,17924,17944,17962,17982,18004,18022,18044,18062,18083,18102,18124,18143,18162,18182,18204,18224,18243,18264,18282,18303,18322,18343,18362,18383,18404,18422,18442,18463,18483,18502,18523,18543,18562,18583,18603,18623,18644,18662,18683,18704,18723,18743,18764,18783,18803,18823,18843,18863,18882,18904,18923,18943,18964,18982,19002,19024,19044,19063,19083,19103,19123,19142,19164,19183,19204,19222,19242,19262,19283,19304,19323,19342,19364,19383,19403,19422,19444,19464,19483,19503,19522,19543,19562,19583,19602,19622,19642,19663,19683,19702,19724,19743,19764,19782,19802,19822,19844,19862,19882,19903,19922,19944,19964,19983,20003,20022,20042,20064,20082,20102,20124,20142,20164,20183,20203,20223,20242,20263,20282,20303,20322,20343,20363,20383,20403,20423,20443,20463,20482,20504,20523,20543,20563,20582,20603,20624,20642,20662,20684,20703,20722,20743,20763,20784,20803,20822,20842,20863,20883,20904,20923,20943,20962,20984,21003,21023,21044,21064,21083,21104,21122,21142,21164,21183,21202,21223,21244,21262,21283,21303,21324,21344,21363,21383,21403,21424,21444,21464,21482,21503,21524,21542,21562,21584,21604,21623,21643,21664,21683,21702,21723,21744,21762,21782,21803,21823,21842,21864,21883,21903,21923,21944,21964,21984,22003,22022,22043,22064,22084,22102,22122,22142,22162,22183,22203,22222,22243,22262,22283,22302,22324,22342,22362,22383,22404,22422,22443,22464,22484,22502,22522,22543,22562,22583,22604,22624,22642,22664,22684,22702,22722,22744,22764,22784,22803,22823,22842,22864,22883,22902,22923,22944,22964,22982,23004,23024,23042,23064,23084,23103,23122,23143,23162,23182,23203,23224,23243,23262,23283,23303,23323,23342,23363,23384,23403,23423,23443,23464,23482,23503,23523,23543,23564,23583,23603,23623,23643,23663,23682,23703,23724,23744,23762,23783,23803,23824,23843,23864,23882,23903,23924,23944,23963,23983,24003,24024,24043,24063,24084,24103,24123,24142,24164,24184,24202,24223,24244,24263,24284,24303,24322,24343,24364,24383,24403,24422,24443,24463,24484,24502,24523,24542,24562,24583,24604,24623,24644,24662,24683,24702,24722,24742,24762,24783,24802,24823,24843,24862,24883,24903,24922,24942,24962,24983,25004,25023,25042,25063,25082,25102,25123,25142,25164,25182,25203,25222,25243,25263,25282,25304,25324,25342,25363,25384,25402,25423,25443,25464,25483,25502,25523,25543,25563,25583,25603,25624,25643,25662,25682,25704,25723,25743,25763,25783,25803,25822,25843,25862,25884,25902,25923,25942,25962,25984,26002,26023,26043,26063,26082,26102,26123,26143,26162,26182,26202,26223,26243,26263,26284,26302,26322,26342,26363,26383,26403,26424,26442,26463,26483,26502,26523,26542,26563,26584,26603,26623],"xSR":741.5,"ySR":501.8,"xT1":424.9,"yT1":0,"xT2":1058.1,"yT2":0,"toosoon":0,"cond_shown":"Congruent","ratio_trial":100,"L_num":1,"L_den":2,"R_num":3,"R_den":5,"correct_side":2,"subjID":"Tomas_Contreras_Duarte_39","gender":"0","age":"11","school":"sexto","test":{"fix_dur":[250,1500],"timestim":1000,"targets_dim":[100,100],"targets_relative_coord":[0.3,0.7],"size_stim":[880,420],"start_dim":[100,100],"size_start":[300,300],"size_fix":60,"samplingrate":20,"img_types":["Congruent","Incongruent"],"ratios":[100,200,300],"rep_conds":19,"nTrials":120,"trials_to_rest":500,"Trials_order":[48,109,49,31,72,2,106,44,63,79,95,89,90,56,41,11,43,100,70,103,16,92,45,84,10,93,35,97,7,36,52,81,57,71,94,85,32,17,83,114,54,66,26,104,6,101,96,15,14,30,50,29,40,116,28,55,47,102,112,37,21,111,74,65,8,86,4,18,67,39,75,5,113,20,69,118,1,19,91,25,59,115,108,27,58,88,53,110,42,68,62,13,73,98,76,46,23,22,24,78,9,60,12,87,51,34,0,119,77,3,105,38,117,61,99,82,33,80,107,64],"cond_shown":["Congruent","Incongruent","Incongruent","Incongruent","Congruent","Congruent","Congruent","Congruent","Incongruent","Incongruent","Incongruent","Incongruent","Congruent","Congruent","Incongruent","Incongruent","Incongruent","Congruent","Congruent","Incongruent","Congruent","Congruent","Incongruent","Congruent","Congruent","Incongruent","Incongruent","Incongruent","Incongruent","Congruent","Congruent","Incongruent","Incongruent","Incongruent","Congruent","Incongruent","Congruent","Incongruent","Incongruent","Congruent","Congruent","Congruent","Congruent","Congruent","Congruent","Incongruent","Congruent","Incongruent","Congruent","Congruent","Congruent","Incongruent","Congruent","Congruent","Congruent","Incongruent","Incongruent","Congruent","Congruent","Incongruent","Incongruent","Incongruent","Congruent","Incongruent","Congruent","Congruent","Congruent","Congruent","Incongruent","Incongruent","Incongruent","Incongruent","Incongruent","Congruent","Incongruent","Congruent","Incongruent","Incongruent","Incongruent","Incongruent","Incongruent","Incongruent","Congruent","Incongruent","Congruent","Congruent","Incongruent","Congruent","Congruent","Congruent","Congruent","Incongruent","Incongruent","Congruent","Congruent","Congruent","Incongruent","Congruent","Congruent","Congruent","Incongruent","Congruent","Congruent","Incongruent","Incongruent","Congruent","Congruent","Incongruent","Incongruent","Incongruent","Incongruent","Congruent","Incongruent","Incongruent","Incongruent","Congruent","Incongruent","Congruent","Incongruent","Congruent"],"ratio_trial":[100,100,100,100,100,200,300,200,200,100,300,300,100,200,300,300,100,300,300,100,300,200,200,100,300,200,300,100,100,100,300,200,200,300,300,100,200,300,300,100,100,100,200,200,100,300,100,200,200,100,200,300,300,200,300,100,300,100,300,100,200,200,200,300,200,200,300,100,100,200,200,300,300,200,200,300,100,100,100,100,300,100,100,200,300,300,300,200,100,200,200,100,100,200,300,300,300,300,100,100,200,100,100,200,200,300,100,300,300,200,200,200,200,100,200,300,200,200,300,300],"left_num":[1,2,13,6,15,3,3,6,1,6,1,3,7,7,7,13,6,1,18,12,1,6,7,11,5,7,13,2,1,4,11,9,14,3,4,6,3,13,13,4,1,9,13,11,3,8,1,3,3,7,14,13,24,3,5,6,13,3,1,8,4,9,16,4,16,3,7,4,6,7,7,4,1,16,1,11,8,8,3,2,8,6,1,4,5,1,4,3,6,7,3,4,12,12,20,12,13,1,11,10,9,7,10,6,4,3,10,4,8,11,6,3,7,3,7,8,4,8,13,2],"right_num":[3,8,12,13,13,7,2,11,2,3,2,4,15,2,8,12,13,19,9,9,3,7,8,6,7,12,12,6,8,6,4,8,6,4,1,11,9,12,12,15,3,8,14,3,2,14,18,1,14,9,6,12,2,7,7,11,12,4,19,1,1,8,12,2,9,11,20,6,11,6,4,2,2,9,2,1,1,6,7,6,9,7,18,14,7,8,8,7,15,18,14,8,2,6,5,2,12,11,4,3,8,9,3,3,14,2,3,8,14,3,3,14,12,4,4,1,14,3,12,10],"left_den":[2,4,26,10,25,10,6,20,3,12,2,6,14,21,10,26,10,3,20,24,5,12,10,22,25,10,26,4,2,8,22,15,30,6,10,10,12,26,26,10,2,15,26,22,6,10,2,10,6,14,28,26,30,10,25,10,26,20,3,20,30,15,20,20,30,10,14,8,10,15,15,20,2,30,3,22,20,16,9,4,10,10,2,6,25,30,5,10,12,15,10,8,30,15,25,24,26,5,22,25,15,14,25,20,6,6,25,5,10,20,20,6,10,6,15,16,6,15,26,20],"right_den":[5,20,20,26,26,14,10,22,15,5,10,20,25,15,20,15,26,30,15,15,6,10,16,15,14,24,15,15,20,10,20,10,9,20,10,22,20,15,15,30,5,16,20,10,5,28,30,2,20,15,20,15,4,14,14,22,15,16,30,2,3,10,20,4,27,22,25,10,22,9,6,4,10,27,15,5,2,10,30,15,18,14,30,30,14,24,16,14,25,27,28,20,4,10,10,10,15,22,10,10,10,15,10,6,30,10,10,16,28,4,6,20,24,10,6,5,30,9,15,25],"correct_side":[2,1,2,1,1,2,1,2,1,2,1,1,2,1,1,2,1,2,1,2,2,2,1,1,2,1,2,1,1,2,1,2,2,1,1,1,2,2,2,2,2,1,2,1,1,1,2,2,2,2,1,2,1,2,2,1,2,2,2,2,2,2,1,2,1,2,2,2,1,2,2,2,1,1,1,1,2,2,1,1,1,1,2,1,2,2,1,2,2,2,2,1,2,1,1,1,2,2,1,1,2,2,1,2,1,1,1,1,1,2,2,2,1,1,2,1,1,1,2,2],"img_shown":["img2/100/Congruent/R/C_Dist_100_LN_1_LD_2_RN_3_RD_5_1.png","img2/100/Incongruent/L/I_Dist_100_LN_2_LD_4_RN_8_RD_20_0.png","img2/100/Incongruent/R/I_Dist_100_LN_13_LD_26_RN_12_RD_20_1.png","img2/100/Incongruent/L/I_Dist_100_LN_6_LD_10_RN_13_RD_26_0.png","img2/100/Congruent/L/C_Dist_100_LN_15_LD_25_RN_13_RD_26_0.png","img2/200/Congruent/R/C_Dist_200_LN_3_LD_10_RN_7_RD_14_1.png","img2/300/Congruent/L/C_Dist_300_LN_3_LD_6_RN_2_RD_10_0.png","img2/200/Congruent/R/C_Dist_200_LN_6_LD_20_RN_11_RD_22_1.png","img2/200/Incongruent/L/I_Dist_200_LN_1_LD_3_RN_2_RD_15_0.png","img2/100/Incongruent/R/I_Dist_100_LN_6_LD_12_RN_3_RD_5_1.png","img2/300/Incongruent/L/I_Dist_300_LN_1_LD_2_RN_2_RD_10_0.png","img2/300/Incongruent/L/I_Dist_300_LN_3_LD_6_RN_4_RD_20_0.png","img2/100/Congruent/R/C_Dist_100_LN_7_LD_14_RN_15_RD_25_1.png","img2/200/Congruent/L/C_Dist_200_LN_7_LD_21_RN_2_RD_15_0.png","img2/300/Incongruent/L/I_Dist_300_LN_7_LD_10_RN_8_RD_20_0.png","img2/300/Incongruent/R/I_Dist_300_LN_13_LD_26_RN_12_RD_15_1.png","img2/100/Incongruent/L/I_Dist_100_LN_6_LD_10_RN_13_RD_26_0.png","img2/300/Congruent/R/C_Dist_300_LN_1_LD_3_RN_19_RD_30_1.png","img2/300/Congruent/L/C_Dist_300_LN_18_LD_20_RN_9_RD_15_0.png","img2/100/Incongruent/R/I_Dist_100_LN_12_LD_24_RN_9_RD_15_1.png","img2/300/Congruent/R/C_Dist_300_LN_1_LD_5_RN_3_RD_6_1.png","img2/200/Congruent/R/C_Dist_200_LN_6_LD_12_RN_7_RD_10_1.png","img2/200/Incongruent/L/I_Dist_200_LN_7_LD_10_RN_8_RD_16_0.png","img2/100/Congruent/L/C_Dist_100_LN_11_LD_22_RN_6_RD_15_0.png","img2/300/Congruent/R/C_Dist_300_LN_5_LD_25_RN_7_RD_14_1.png","img2/200/Incongruent/L/I_Dist_200_LN_7_LD_10_RN_12_RD_24_0.png","img2/300/Incongruent/R/I_Dist_300_LN_13_LD_26_RN_12_RD_15_1.png","img2/100/Incongruent/L/I_Dist_100_LN_2_LD_4_RN_6_RD_15_0.png","img2/100/Incongruent/L/I_Dist_100_LN_1_LD_2_RN_8_RD_20_0.png","img2/100/Congruent/R/C_Dist_100_LN_4_LD_8_RN_6_RD_10_1.png","img2/300/Congruent/L/C_Dist_300_LN_11_LD_22_RN_4_RD_20_0.png","img2/200/Incongruent/R/I_Dist_200_LN_9_LD_15_RN_8_RD_10_1.png","img2/200/Incongruent/R/I_Dist_200_LN_14_LD_30_RN_6_RD_9_1.png","img2/300/Incongruent/L/I_Dist_300_LN_3_LD_6_RN_4_RD_20_0.png","img2/300/Congruent/L/C_Dist_300_LN_4_LD_10_RN_1_RD_10_0.png","img2/100/Incongruent/L/I_Dist_100_LN_6_LD_10_RN_11_RD_22_0.png","img2/200/Congruent/R/C_Dist_200_LN_3_LD_12_RN_9_RD_20_1.png","img2/300/Incongruent/R/I_Dist_300_LN_13_LD_26_RN_12_RD_15_1.png","img2/300/Incongruent/R/I_Dist_300_LN_13_LD_26_RN_12_RD_15_1.png","img2/100/Congruent/R/C_Dist_100_LN_4_LD_10_RN_15_RD_30_1.png","img2/100/Congruent/R/C_Dist_100_LN_1_LD_2_RN_3_RD_5_1.png","img2/100/Congruent/L/C_Dist_100_LN_9_LD_15_RN_8_RD_16_0.png","img2/200/Congruent/R/C_Dist_200_LN_13_LD_26_RN_14_RD_20_1.png","img2/200/Congruent/L/C_Dist_200_LN_11_LD_22_RN_3_RD_10_0.png","img2/100/Congruent/L/C_Dist_100_LN_3_LD_6_RN_2_RD_5_0.png","img2/300/Incongruent/L/I_Dist_300_LN_8_LD_10_RN_14_RD_28_0.png","img2/100/Congruent/R/C_Dist_100_LN_1_LD_2_RN_18_RD_30_1.png","img2/200/Incongruent/R/I_Dist_200_LN_3_LD_10_RN_1_RD_2_1.png","img2/200/Congruent/R/C_Dist_200_LN_3_LD_6_RN_14_RD_20_1.png","img2/100/Congruent/R/C_Dist_100_LN_7_LD_14_RN_9_RD_15_1.png","img2/200/Congruent/L/C_Dist_200_LN_14_LD_28_RN_6_RD_20_0.png","img2/300/Incongruent/R/I_Dist_300_LN_13_LD_26_RN_12_RD_15_1.png","img2/300/Congruent/L/C_Dist_300_LN_24_LD_30_RN_2_RD_4_0.png","img2/200/Congruent/R/C_Dist_200_LN_3_LD_10_RN_7_RD_14_1.png","img2/300/Congruent/R/C_Dist_300_LN_5_LD_25_RN_7_RD_14_1.png","img2/100/Incongruent/L/I_Dist_100_LN_6_LD_10_RN_11_RD_22_0.png","img2/300/Incongruent/R/I_Dist_300_LN_13_LD_26_RN_12_RD_15_1.png","img2/100/Congruent/R/C_Dist_100_LN_3_LD_20_RN_4_RD_16_1.png","img2/300/Congruent/R/C_Dist_300_LN_1_LD_3_RN_19_RD_30_1.png","img2/100/Incongruent/R/I_Dist_100_LN_8_LD_20_RN_1_RD_2_1.png","img2/200/Incongruent/R/I_Dist_200_LN_4_LD_30_RN_1_RD_3_1.png","img2/200/Incongruent/R/I_Dist_200_LN_9_LD_15_RN_8_RD_10_1.png","img2/200/Congruent/L/C_Dist_200_LN_16_LD_20_RN_12_RD_20_0.png","img2/300/Incongruent/R/I_Dist_300_LN_4_LD_20_RN_2_RD_4_1.png","img2/200/Congruent/L/C_Dist_200_LN_16_LD_30_RN_9_RD_27_0.png","img2/200/Congruent/R/C_Dist_200_LN_3_LD_10_RN_11_RD_22_1.png","img2/300/Congruent/R/C_Dist_300_LN_7_LD_14_RN_20_RD_25_1.png","img2/100/Congruent/R/C_Dist_100_LN_4_LD_8_RN_6_RD_10_1.png","img2/100/Incongruent/L/I_Dist_100_LN_6_LD_10_RN_11_RD_22_0.png","img2/200/Incongruent/R/I_Dist_200_LN_7_LD_15_RN_6_RD_9_1.png","img2/200/Incongruent/R/I_Dist_200_LN_7_LD_15_RN_4_RD_6_1.png","img2/300/Incongruent/R/I_Dist_300_LN_4_LD_20_RN_2_RD_4_1.png","img2/300/Incongruent/L/I_Dist_300_LN_1_LD_2_RN_2_RD_10_0.png","img2/200/Congruent/L/C_Dist_200_LN_16_LD_30_RN_9_RD_27_0.png","img2/200/Incongruent/L/I_Dist_200_LN_1_LD_3_RN_2_RD_15_0.png","img2/300/Congruent/L/C_Dist_300_LN_11_LD_22_RN_1_RD_5_0.png","img2/100/Incongruent/R/I_Dist_100_LN_8_LD_20_RN_1_RD_2_1.png","img2/100/Incongruent/R/I_Dist_100_LN_8_LD_16_RN_6_RD_10_1.png","img2/100/Incongruent/L/I_Dist_100_LN_3_LD_9_RN_7_RD_30_0.png","img2/100/Incongruent/L/I_Dist_100_LN_2_LD_4_RN_6_RD_15_0.png","img2/300/Incongruent/L/I_Dist_300_LN_8_LD_10_RN_9_RD_18_0.png","img2/100/Incongruent/L/I_Dist_100_LN_6_LD_10_RN_7_RD_14_0.png","img2/100/Congruent/R/C_Dist_100_LN_1_LD_2_RN_18_RD_30_1.png","img2/200/Incongruent/L/I_Dist_200_LN_4_LD_6_RN_14_RD_30_0.png","img2/300/Congruent/R/C_Dist_300_LN_5_LD_25_RN_7_RD_14_1.png","img2/300/Congruent/R/C_Dist_300_LN_1_LD_30_RN_8_RD_24_1.png","img2/300/Incongruent/L/I_Dist_300_LN_4_LD_5_RN_8_RD_16_0.png","img2/200/Congruent/R/C_Dist_200_LN_3_LD_10_RN_7_RD_14_1.png","img2/100/Congruent/R/C_Dist_100_LN_6_LD_12_RN_15_RD_25_1.png","img2/200/Congruent/R/C_Dist_200_LN_7_LD_15_RN_18_RD_27_1.png","img2/200/Congruent/R/C_Dist_200_LN_3_LD_10_RN_14_RD_28_1.png","img2/100/Incongruent/L/I_Dist_100_LN_4_LD_8_RN_8_RD_20_0.png","img2/100/Incongruent/R/I_Dist_100_LN_12_LD_30_RN_2_RD_4_1.png","img2/200/Congruent/L/C_Dist_200_LN_12_LD_15_RN_6_RD_10_0.png","img2/300/Congruent/L/C_Dist_300_LN_20_LD_25_RN_5_RD_10_0.png","img2/300/Congruent/L/C_Dist_300_LN_12_LD_24_RN_2_RD_10_0.png","img2/300/Incongruent/R/I_Dist_300_LN_13_LD_26_RN_12_RD_15_1.png","img2/300/Congruent/R/C_Dist_300_LN_1_LD_5_RN_11_RD_22_1.png","img2/100/Congruent/L/C_Dist_100_LN_11_LD_22_RN_4_RD_10_0.png","img2/100/Congruent/L/C_Dist_100_LN_10_LD_25_RN_3_RD_10_0.png","img2/200/Incongruent/R/I_Dist_200_LN_9_LD_15_RN_8_RD_10_1.png","img2/100/Congruent/R/C_Dist_100_LN_7_LD_14_RN_9_RD_15_1.png","img2/100/Congruent/L/C_Dist_100_LN_10_LD_25_RN_3_RD_10_0.png","img2/200/Incongruent/R/I_Dist_200_LN_6_LD_20_RN_3_RD_6_1.png","img2/200/Incongruent/L/I_Dist_200_LN_4_LD_6_RN_14_RD_30_0.png","img2/300/Congruent/L/C_Dist_300_LN_3_LD_6_RN_2_RD_10_0.png","img2/100/Congruent/L/C_Dist_100_LN_10_LD_25_RN_3_RD_10_0.png","img2/300/Incongruent/L/I_Dist_300_LN_4_LD_5_RN_8_RD_16_0.png","img2/300/Incongruent/L/I_Dist_300_LN_8_LD_10_RN_14_RD_28_0.png","img2/200/Incongruent/R/I_Dist_200_LN_11_LD_20_RN_3_RD_4_1.png","img2/200/Incongruent/R/I_Dist_200_LN_6_LD_20_RN_3_RD_6_1.png","img2/200/Congruent/R/C_Dist_200_LN_3_LD_6_RN_14_RD_20_1.png","img2/200/Incongruent/L/I_Dist_200_LN_7_LD_10_RN_12_RD_24_0.png","img2/100/Incongruent/L/I_Dist_100_LN_3_LD_6_RN_4_RD_10_0.png","img2/200/Incongruent/R/I_Dist_200_LN_7_LD_15_RN_4_RD_6_1.png","img2/300/Congruent/L/C_Dist_300_LN_8_LD_16_RN_1_RD_5_0.png","img2/200/Incongruent/L/I_Dist_200_LN_4_LD_6_RN_14_RD_30_0.png","img2/200/Congruent/L/C_Dist_200_LN_8_LD_15_RN_3_RD_9_0.png","img2/300/Incongruent/R/I_Dist_300_LN_13_LD_26_RN_12_RD_15_1.png","img2/300/Congruent/R/C_Dist_300_LN_2_LD_20_RN_10_RD_25_1.png"],"dist100_C":[["C_Dist_100_LN_10_LD_25_RN_3_RD_10_0.png","C_Dist_100_LN_11_LD_22_RN_4_RD_10_0.png","C_Dist_100_LN_11_LD_22_RN_6_RD_15_0.png","C_Dist_100_LN_15_LD_25_RN_13_RD_26_0.png","C_Dist_100_LN_3_LD_6_RN_2_RD_5_0.png","C_Dist_100_LN_6_LD_20_RN_5_RD_25_0.png","C_Dist_100_LN_8_LD_16_RN_2_RD_5_0.png","C_Dist_100_LN_9_LD_15_RN_8_RD_16_0.png"],["C_Dist_100_LN_1_LD_2_RN_18_RD_30_1.png","C_Dist_100_LN_1_LD_2_RN_3_RD_5_1.png","C_Dist_100_LN_12_LD_30_RN_13_RD_26_1.png","C_Dist_100_LN_2_LD_5_RN_11_RD_22_1.png","C_Dist_100_LN_2_LD_5_RN_6_RD_12_1.png","C_Dist_100_LN_3_LD_20_RN_4_RD_16_1.png","C_Dist_100_LN_4_LD_10_RN_15_RD_30_1.png","C_Dist_100_LN_4_LD_8_RN_6_RD_10_1.png","C_Dist_100_LN_6_LD_12_RN_15_RD_25_1.png","C_Dist_100_LN_7_LD_14_RN_15_RD_25_1.png","C_Dist_100_LN_7_LD_14_RN_9_RD_15_1.png"]],"dist100_I":[["I_Dist_100_LN_1_LD_2_RN_8_RD_20_0.png","I_Dist_100_LN_2_LD_4_RN_6_RD_15_0.png","I_Dist_100_LN_2_LD_4_RN_8_RD_20_0.png","I_Dist_100_LN_3_LD_5_RN_11_RD_22_0.png","I_Dist_100_LN_3_LD_5_RN_8_RD_16_0.png","I_Dist_100_LN_3_LD_6_RN_4_RD_10_0.png","I_Dist_100_LN_3_LD_9_RN_7_RD_30_0.png","I_Dist_100_LN_4_LD_8_RN_8_RD_20_0.png","I_Dist_100_LN_6_LD_10_RN_11_RD_22_0.png","I_Dist_100_LN_6_LD_10_RN_13_RD_26_0.png","I_Dist_100_LN_6_LD_10_RN_7_RD_14_0.png","I_Dist_100_LN_9_LD_10_RN_20_RD_25_0.png","I_Dist_100_LN_9_LD_15_RN_13_RD_26_0.png","I_Dist_100_LN_9_LD_15_RN_14_RD_28_0.png"],["I_Dist_100_LN_10_LD_25_RN_8_RD_16_1.png","I_Dist_100_LN_10_LD_25_RN_9_RD_18_1.png","I_Dist_100_LN_11_LD_22_RN_9_RD_15_1.png","I_Dist_100_LN_12_LD_24_RN_9_RD_15_1.png","I_Dist_100_LN_12_LD_30_RN_2_RD_4_1.png","I_Dist_100_LN_13_LD_26_RN_12_RD_20_1.png","I_Dist_100_LN_13_LD_26_RN_6_RD_10_1.png","I_Dist_100_LN_17_LD_30_RN_10_RD_15_1.png","I_Dist_100_LN_6_LD_12_RN_3_RD_5_1.png","I_Dist_100_LN_8_LD_16_RN_6_RD_10_1.png","I_Dist_100_LN_8_LD_20_RN_1_RD_2_1.png","I_Dist_100_LN_9_LD_18_RN_6_RD_10_1.png"]],"dist100_S":[["E_Dist_100_LN_2_LD_12_RN_2_RD_30_0.png","E_Dist_100_LN_6_LD_10_RN_6_RD_12_0.png"],["E_Dist_100_LN_6_LD_12_RN_6_RD_10_1.png"]],"dist200_C":[["C_Dist_200_LN_11_LD_22_RN_3_RD_10_0.png","C_Dist_200_LN_12_LD_15_RN_6_RD_10_0.png","C_Dist_200_LN_12_LD_20_RN_6_RD_15_0.png","C_Dist_200_LN_14_LD_28_RN_6_RD_20_0.png","C_Dist_200_LN_15_LD_25_RN_4_RD_10_0.png","C_Dist_200_LN_16_LD_20_RN_12_RD_20_0.png","C_Dist_200_LN_16_LD_30_RN_9_RD_27_0.png","C_Dist_200_LN_20_LD_25_RN_9_RD_15_0.png","C_Dist_200_LN_21_LD_30_RN_2_RD_4_0.png","C_Dist_200_LN_4_LD_10_RN_3_RD_15_0.png","C_Dist_200_LN_4_LD_8_RN_3_RD_10_0.png","C_Dist_200_LN_6_LD_15_RN_3_RD_15_0.png","C_Dist_200_LN_7_LD_21_RN_2_RD_15_0.png","C_Dist_200_LN_8_LD_15_RN_2_RD_6_0.png","C_Dist_200_LN_8_LD_15_RN_3_RD_9_0.png","C_Dist_200_LN_8_LD_15_RN_7_RD_21_0.png","C_Dist_200_LN_9_LD_20_RN_4_RD_16_0.png"],["C_Dist_200_LN_1_LD_2_RN_21_RD_30_1.png","C_Dist_200_LN_13_LD_26_RN_14_RD_20_1.png","C_Dist_200_LN_3_LD_10_RN_11_RD_22_1.png","C_Dist_200_LN_3_LD_10_RN_14_RD_28_1.png","C_Dist_200_LN_3_LD_10_RN_7_RD_14_1.png","C_Dist_200_LN_3_LD_12_RN_9_RD_20_1.png","C_Dist_200_LN_3_LD_6_RN_14_RD_20_1.png","C_Dist_200_LN_5_LD_10_RN_14_RD_20_1.png","C_Dist_200_LN_6_LD_12_RN_7_RD_10_1.png","C_Dist_200_LN_6_LD_20_RN_11_RD_22_1.png","C_Dist_200_LN_7_LD_15_RN_18_RD_27_1.png","C_Dist_200_LN_9_LD_30_RN_13_RD_26_1.png"]],"dist200_I":[["I_Dist_200_LN_1_LD_2_RN_3_RD_10_0.png","I_Dist_200_LN_1_LD_3_RN_2_RD_15_0.png","I_Dist_200_LN_3_LD_4_RN_11_RD_20_0.png","I_Dist_200_LN_4_LD_5_RN_6_RD_10_0.png","I_Dist_200_LN_4_LD_6_RN_14_RD_30_0.png","I_Dist_200_LN_7_LD_10_RN_12_RD_24_0.png","I_Dist_200_LN_7_LD_10_RN_14_RD_28_0.png","I_Dist_200_LN_7_LD_10_RN_8_RD_16_0.png"],["I_Dist_200_LN_11_LD_20_RN_3_RD_4_1.png","I_Dist_200_LN_14_LD_30_RN_12_RD_18_1.png","I_Dist_200_LN_14_LD_30_RN_6_RD_9_1.png","I_Dist_200_LN_3_LD_10_RN_1_RD_2_1.png","I_Dist_200_LN_4_LD_30_RN_1_RD_3_1.png","I_Dist_200_LN_6_LD_20_RN_3_RD_6_1.png","I_Dist_200_LN_7_LD_15_RN_4_RD_6_1.png","I_Dist_200_LN_7_LD_15_RN_6_RD_9_1.png","I_Dist_200_LN_9_LD_15_RN_8_RD_10_1.png"]],"dist200_S":[["E_Dist_200_LN_3_LD_6_RN_3_RD_10_0.png"],["E_Dist_200_LN_3_LD_10_RN_3_RD_6_1.png"]],"dist300_C":[["C_Dist_300_LN_11_LD_22_RN_1_RD_5_0.png","C_Dist_300_LN_11_LD_22_RN_2_RD_10_0.png","C_Dist_300_LN_11_LD_22_RN_4_RD_20_0.png","C_Dist_300_LN_12_LD_24_RN_2_RD_10_0.png","C_Dist_300_LN_18_LD_20_RN_9_RD_15_0.png","C_Dist_300_LN_20_LD_25_RN_13_RD_26_0.png","C_Dist_300_LN_20_LD_25_RN_14_RD_28_0.png","C_Dist_300_LN_20_LD_25_RN_5_RD_10_0.png","C_Dist_300_LN_20_LD_25_RN_8_RD_16_0.png","C_Dist_300_LN_20_LD_25_RN_9_RD_18_0.png","C_Dist_300_LN_24_LD_30_RN_2_RD_4_0.png","C_Dist_300_LN_24_LD_30_RN_8_RD_16_0.png","C_Dist_300_LN_3_LD_6_RN_2_RD_10_0.png","C_Dist_300_LN_4_LD_10_RN_1_RD_10_0.png","C_Dist_300_LN_4_LD_5_RN_2_RD_4_0.png","C_Dist_300_LN_8_LD_16_RN_1_RD_5_0.png","C_Dist_300_LN_9_LD_10_RN_3_RD_5_0.png"],["C_Dist_300_LN_1_LD_20_RN_7_RD_20_1.png","C_Dist_300_LN_1_LD_3_RN_19_RD_30_1.png","C_Dist_300_LN_1_LD_30_RN_8_RD_24_1.png","C_Dist_300_LN_1_LD_5_RN_11_RD_22_1.png","C_Dist_300_LN_1_LD_5_RN_3_RD_6_1.png","C_Dist_300_LN_1_LD_5_RN_6_RD_12_1.png","C_Dist_300_LN_2_LD_10_RN_12_RD_24_1.png","C_Dist_300_LN_2_LD_20_RN_10_RD_25_1.png","C_Dist_300_LN_3_LD_12_RN_11_RD_20_1.png","C_Dist_300_LN_3_LD_6_RN_4_RD_5_1.png","C_Dist_300_LN_4_LD_20_RN_13_RD_26_1.png","C_Dist_300_LN_5_LD_25_RN_6_RD_12_1.png","C_Dist_300_LN_5_LD_25_RN_7_RD_14_1.png","C_Dist_300_LN_7_LD_14_RN_20_RD_25_1.png","C_Dist_300_LN_8_LD_15_RN_10_RD_12_1.png"]],"dist300_I":[["I_Dist_300_LN_1_LD_2_RN_2_RD_10_0.png","I_Dist_300_LN_1_LD_2_RN_3_RD_15_0.png","I_Dist_300_LN_2_LD_4_RN_6_RD_30_0.png","I_Dist_300_LN_3_LD_6_RN_4_RD_20_0.png","I_Dist_300_LN_4_LD_5_RN_6_RD_12_0.png","I_Dist_300_LN_4_LD_5_RN_8_RD_16_0.png","I_Dist_300_LN_7_LD_10_RN_8_RD_20_0.png","I_Dist_300_LN_8_LD_10_RN_14_RD_28_0.png","I_Dist_300_LN_8_LD_10_RN_9_RD_18_0.png"],["I_Dist_300_LN_13_LD_26_RN_12_RD_15_1.png","I_Dist_300_LN_4_LD_20_RN_2_RD_4_1.png"]],"dist300_S":[["E_Dist_300_LN_9_LD_12_RN_9_RD_20_0.png"],["E_Dist_300_LN_18_LD_30_RN_18_RD_20_1.png","E_Dist_300_LN_3_LD_10_RN_3_RD_5_1.png","E_Dist_300_LN_9_LD_20_RN_9_RD_12_1.png"]],"dist500_C":[["C_Dist_500_LN_10_LD_13_RN_7_RD_26_0.png","C_Dist_500_LN_10_LD_15_RN_4_RD_24_0.png","C_Dist_500_LN_12_LD_16_RN_3_RD_12_0.png","C_Dist_500_LN_12_LD_18_RN_4_RD_24_0.png","C_Dist_500_LN_15_LD_18_RN_5_RD_15_0.png","C_Dist_500_LN_15_LD_20_RN_1_RD_4_0.png","C_Dist_500_LN_18_LD_27_RN_1_RD_6_0.png","C_Dist_500_LN_20_LD_24_RN_1_RD_3_0.png","C_Dist_500_LN_20_LD_24_RN_3_RD_9_0.png","C_Dist_500_LN_20_LD_24_RN_7_RD_21_0.png","C_Dist_500_LN_20_LD_28_RN_3_RD_14_0.png","C_Dist_500_LN_21_LD_28_RN_6_RD_24_0.png","C_Dist_500_LN_22_LD_28_RN_2_RD_7_0.png","C_Dist_500_LN_25_LD_30_RN_9_RD_27_0.png","C_Dist_500_LN_4_LD_6_RN_1_RD_6_0.png","C_Dist_500_LN_5_LD_6_RN_2_RD_6_0.png","C_Dist_500_LN_6_LD_9_RN_1_RD_6_0.png","C_Dist_500_LN_7_LD_10_RN_1_RD_5_0.png","C_Dist_500_LN_8_LD_12_RN_1_RD_6_0.png","C_Dist_500_LN_8_LD_12_RN_4_RD_24_0.png"],["C_Dist_500_LN_1_LD_4_RN_12_RD_16_1.png","C_Dist_500_LN_1_LD_4_RN_9_RD_12_1.png","C_Dist_500_LN_1_LD_9_RN_11_RD_18_1.png","C_Dist_500_LN_10_LD_24_RN_22_RD_24_1.png","C_Dist_500_LN_2_LD_12_RN_10_RD_15_1.png","C_Dist_500_LN_2_LD_12_RN_12_RD_18_1.png","C_Dist_500_LN_2_LD_12_RN_4_RD_6_1.png","C_Dist_500_LN_2_LD_24_RN_7_RD_12_1.png","C_Dist_500_LN_2_LD_5_RN_18_RD_20_1.png","C_Dist_500_LN_2_LD_5_RN_9_RD_10_1.png","C_Dist_500_LN_2_LD_8_RN_12_RD_16_1.png","C_Dist_500_LN_2_LD_8_RN_21_RD_28_1.png","C_Dist_500_LN_3_LD_10_RN_4_RD_5_1.png","C_Dist_500_LN_3_LD_12_RN_15_RD_20_1.png","C_Dist_500_LN_3_LD_30_RN_6_RD_10_1.png","C_Dist_500_LN_3_LD_8_RN_14_RD_16_1.png","C_Dist_500_LN_4_LD_16_RN_15_RD_20_1.png","C_Dist_500_LN_4_LD_24_RN_12_RD_18_1.png","C_Dist_500_LN_5_LD_14_RN_6_RD_7_1.png","C_Dist_500_LN_7_LD_21_RN_20_RD_24_1.png","C_Dist_500_LN_7_LD_28_RN_12_RD_16_1.png","C_Dist_500_LN_7_LD_28_RN_9_RD_12_1.png","C_Dist_500_LN_9_LD_27_RN_20_RD_24_1.png"]],"dist500_I":[["I_Dist_500_LN_2_LD_3_RN_4_RD_24_0.png","I_Dist_500_LN_5_LD_6_RN_6_RD_18_0.png","I_Dist_500_LN_7_LD_8_RN_9_RD_24_0.png"],["I_Dist_500_LN_7_LD_21_RN_5_RD_6_1.png"]],"dist500_S":[["E_Dist_500_LN_6_LD_8_RN_6_RD_24_0.png"],["E_Dist_500_LN_2_LD_12_RN_2_RD_3_1.png","E_Dist_500_LN_6_LD_24_RN_6_RD_8_1.png"]]}},{"start_time":1551887023571,"click_time":1551887025695,"finger_time":1551887025033,"fix_duration":1155.1460065352378,"trial":1,"RT":1462,"MT":662,"sideResp":2,"stimulus":[],"xmouse":[808,808,808,808,808,808,808,808,808,808,808,808,808,808,808,808,808,808,808,808,808,808,808,808,808,808,808,808,808,808,808,808,808,808,808,808,808,808,808,808,808,808,808,808,808,808,808,808,808,808,808,808,808,808,808,808,808,808,808,808,808,808,808,808,808,809,809,809,811,813,815,819,822,827,825,826,840,857,909,936,953,970,982,1003,1013,1019,1021,1024,1035,1038,1042,1044,1044,1050,1053,1055,1058,1059,1061,1062,1063,1064,1065,1070,1074,1075,1076],"ymouse":[620,620,620,620,620,620,620,620,620,620,620,620,620,620,620,620,620,620,620,620,620,620,620,620,620,620,620,620,620,620,620,620,620,620,620,620,620,620,620,620,620,620,620,620,620,620,620,620,620,620,620,620,620,620,620,620,620,620,620,620,620,620,620,620,620,620,620,620,620,619,616,608,597,565,540,519,501,474,355,310,280,262,252,235,228,224,221,218,203,189,175,168,164,151,144,135,128,125,118,117,115,113,111,106,102,100,99],"timestamp_mouse":[9,34,42,63,83,103,122,143,164,182,202,224,242,264,283,303,322,343,363,383,402,424,442,464,483,502,522,542,563,583,604,622,642,663,682,702,722,744,763,782,804,822,842,862,882,904,923,943,963,984,1002,1022,1044,1064,1082,1103,1122,1142,1163,1182,1204,1223,1243,1264,1284,1303,1322,1343,1362,1382,1403,1422,1443,1462,1482,1502,1523,1542,1562,1583,1603,1622,1643,1662,1682,1702,1722,1742,1762,1782,1802,1822,1842,1862,1882,1902,1924,1943,1962,1983,2003,2022,2042,2063,2083,2103,2123],"xSR":741.5,"ySR":573.95,"xT1":424.9,"yT1":0,"xT2":1058.1,"yT2":0,"toosoon":0,"cond_shown":"Incongruent","ratio_trial":100,"L_num":2,"L_den":4,"R_num":8,"R_den":20,"correct_side":1,"subjID":"Tomas_Contreras_Duarte_39","gender":"0","school":"sexto","age":"11"},{"start_time":1551887027606,"click_time":1551887029354,"finger_time":1551887029074,"fix_duration":250,"trial":2,"RT":1468,"MT":280,"sideResp":1,"stimulus":[],"xmouse":[796,796,796,796,796,796,796,796,796,795,795,795,795,795,795,795,795,795,795,795,795,795,795,795,795,795,795,795,795,795,795,795,795,795,795,795,795,795,795,795,795,795,795,795,795,795,795,795,795,795,795,795,795,795,795,795,795,795,795,795,795,795,795,795,795,795,795,795,795,795,794,787,770,735,682,621,531,502,480,467,462,463,469,470,472,476,490,502],"ymouse":[617,617,617,617,617,617,617,617,617,618,618,618,618,618,618,618,618,618,618,618,618,618,618,618,618,618,618,618,618,618,618,618,618,618,618,618,618,618,618,618,618,618,618,618,618,618,618,618,618,618,618,618,618,618,618,618,618,618,618,618,618,618,618,618,618,618,618,618,618,618,619,616,597,564,500,441,331,286,244,212,192,166,147,137,127,118,101,91],"timestamp_mouse":[7,27,50,69,87,109,129,148,169,187,208,229,248,268,288,307,329,348,368,389,408,427,449,467,487,508,527,548,567,588,607,627,648,667,689,709,728,747,767,789,809,827,848,869,888,908,928,947,968,987,1009,1028,1047,1067,1089,1107,1127,1147,1167,1188,1209,1228,1247,1269,1287,1308,1327,1348,1367,1387,1408,1427,1449,1468,1488,1508,1528,1547,1567,1588,1607,1628,1649,1668,1688,1708,1727,1747],"xSR":741.5,"ySR":573.95,"xT1":424.9,"yT1":0,"xT2":1058.1,"yT2":0,"toosoon":0,"cond_shown":"Incongruent","ratio_trial":100,"L_num":13,"L_den":26,"R_num":12,"R_den":20,"correct_side":2,"subjID":"Tomas_Contreras_Duarte_39","gender":"0","school":"sexto","age":"11"},{"start_time":1551887031206,"click_time":1551887031635,"finger_time":1551887031374,"fix_duration":469.3398602646186,"trial":3,"RT":168,"MT":261,"sideResp":2,"stimulus":[],"xmouse":[787,787,787,787,787,787,787,787,789,796,817,915,979,979,1070,1070,1112,1112,1113,1113,1113,1109],"ymouse":[604,604,604,604,604,604,599,590,573,532,384,117,7,7,0,0,0,0,0,0,0,27],"timestamp_mouse":[8,32,48,68,88,107,127,148,168,187,208,227,248,269,288,309,327,347,368,388,408,428],"xSR":741.5,"ySR":573.95,"xT1":424.9,"yT1":0,"xT2":1058.1,"yT2":0,"toosoon":0,"cond_shown":"Incongruent","ratio_trial":100,"L_num":6,"L_den":10,"R_num":13,"R_den":26,"correct_side":1,"subjID":"Tomas_Contreras_Duarte_39","gender":"0","school":"sexto","age":"11"},{"start_time":1551887033232,"click_time":1551887036414,"finger_time":1551887035253,"fix_duration":356.77157700404484,"trial":4,"RT":2021,"MT":1161,"sideResp":1,"stimulus":[],"xmouse":[780,780,780,780,780,780,780,780,780,780,780,780,780,780,780,780,780,780,780,780,780,780,780,780,780,780,780,780,780,780,780,780,780,780,780,780,780,780,780,780,780,780,780,780,780,780,780,780,780,780,780,780,780,780,780,780,780,780,780,780,780,780,780,780,780,780,780,780,780,780,780,780,780,780,780,780,780,780,780,780,780,780,780,780,780,780,780,780,780,780,780,780,780,780,780,780,780,780,780,781,787,848,882,913,942,979,990,1000,1011,1022,1032,1034,1036,1036,1036,1025,1001,986,983,981,965,957,953,949,942,923,917,915,921,932,998,1035,1071,1103,1119,1105,1092,1089,1086,1080,1067,1044,1017,958,877,781,570,488,434,412,402,402,402,402,408,433,447,456,460,462],"ymouse":[619,621,623,623,623,623,623,623,623,621,620,619,619,619,619,619,619,619,619,619,619,619,619,619,619,619,619,619,619,619,619,619,619,619,619,619,619,619,619,619,619,619,619,619,619,619,619,619,619,619,619,619,619,619,619,619,619,619,619,619,619,619,619,619,619,619,619,619,619,619,619,619,619,619,619,619,619,619,619,619,619,619,619,619,619,619,619,619,619,619,619,619,619,619,619,619,619,619,619,621,626,634,634,629,618,592,577,564,554,544,533,527,519,507,491,423,354,329,312,296,269,267,268,271,283,335,364,385,398,402,375,339,289,224,152,0,0,0,0,0,0,2,15,47,85,122,166,168,168,167,162,161,159,158,153,133,120,111,103,97],"timestamp_mouse":[9,23,41,68,82,102,121,143,163,182,201,223,242,262,282,302,322,341,361,381,401,422,442,462,482,501,521,541,563,583,602,623,642,661,681,701,722,743,761,781,801,822,842,861,883,901,922,941,962,981,1001,1023,1042,1062,1083,1102,1121,1143,1162,1183,1201,1223,1241,1262,1281,1302,1321,1341,1362,1382,1401,1421,1441,1461,1482,1502,1523,1541,1561,1581,1603,1622,1641,1662,1681,1703,1721,1741,1763,1781,1802,1821,1843,1861,1881,1902,1921,1942,1961,1981,2002,2021,2041,2062,2081,2101,2121,2142,2162,2182,2201,2221,2241,2262,2282,2302,2321,2342,2362,2382,2401,2422,2441,2461,2481,2502,2521,2541,2561,2583,2601,2622,2641,2661,2683,2702,2721,2741,2762,2782,2801,2822,2841,2862,2882,2901,2921,2942,2961,2982,3003,3021,3041,3061,3081,3102,3122,3143,3162,3182],"xSR":741.5,"ySR":573.95,"xT1":424.9,"yT1":0,"xT2":1058.1,"yT2":0,"toosoon":0,"cond_shown":"Congruent","ratio_trial":100,"L_num":15,"L_den":25,"R_num":13,"R_den":26,"correct_side":1,"subjID":"Tomas_Contreras_Duarte_39","gender":"0","school":"sexto","age":"11"},{"start_time":1551887037958,"click_time":1551887039353,"finger_time":1551887039253,"fix_duration":383.1641396650679,"trial":5,"RT":1295,"MT":100,"sideResp":2,"stimulus":[],"xmouse":[756,756,756,756,756,756,756,756,756,756,757,757,757,757,757,757,757,757,757,757,757,757,757,757,757,757,757,757,757,757,757,757,757,757,757,757,757,757,757,757,757,757,757,757,757,757,757,757,757,757,757,757,757,757,757,757,757,757,757,757,757,757,757,765,787,831,903,983,1126,1157],"ymouse":[602,602,602,602,602,602,602,602,602,602,602,602,602,602,602,602,602,602,602,602,602,602,602,602,602,602,602,602,602,602,602,602,602,602,602,602,602,602,602,602,602,602,602,602,602,602,602,602,602,602,602,602,602,602,602,602,602,602,602,600,599,597,596,576,547,496,410,314,133,55],"timestamp_mouse":[17,35,56,75,97,115,136,155,175,195,215,236,256,277,296,316,337,355,376,395,415,436,455,475,497,515,536,556,576,596,617,635,657,675,695,716,735,756,775,795,815,835,857,875,896,916,935,957,975,997,1016,1035,1055,1075,1095,1116,1136,1155,1175,1195,1215,1236,1256,1276,1295,1315,1335,1356,1376,1395],"xSR":741.5,"ySR":573.95,"xT1":424.9,"yT1":0,"xT2":1058.1,"yT2":0,"toosoon":0,"cond_shown":"Congruent","ratio_trial":200,"L_num":3,"L_den":10,"R_num":7,"R_den":14,"correct_side":2,"subjID":"Tomas_Contreras_Duarte_39","gender":"0","school":"sexto","age":"11"},{"start_time":1551887041706,"click_time":1551887042254,"finger_time":1551887042153,"fix_duration":250,"trial":6,"RT":447,"MT":101,"sideResp":2,"stimulus":[],"xmouse":[780,780,780,780,780,780,780,780,781,781,781,781,781,781,781,781,781,782,783,785,792,804,873,939,1015,1085,1155,1155],"ymouse":[633,633,633,633,633,633,633,632,632,632,632,632,632,632,632,632,632,630,629,626,618,603,525,448,364,285,120,83],"timestamp_mouse":[8,42,47,68,89,108,127,147,167,187,207,228,248,269,287,308,328,348,367,388,407,427,447,468,487,508,528,548],"xSR":741.5,"ySR":573.95,"xT1":424.9,"yT1":0,"xT2":1058.1,"yT2":0,"toosoon":0,"cond_shown":"Congruent","ratio_trial":300,"L_num":3,"L_den":6,"R_num":2,"R_den":10,"correct_side":1,"subjID":"Tomas_Contreras_Duarte_39","gender":"0","school":"sexto","age":"11"},{"start_time":1551887044241,"click_time":1551887046194,"finger_time":1551887045594,"fix_duration":506.1972307107436,"trial":7,"RT":1353,"MT":600,"sideResp":2,"stimulus":[],"xmouse":[815,815,815,815,815,815,815,815,815,815,815,815,815,815,815,815,815,815,815,815,815,815,815,815,815,815,815,815,815,815,815,815,815,815,815,815,815,815,815,815,815,815,815,815,815,815,815,815,815,815,815,815,815,815,815,815,815,815,815,815,815,815,815,815,815,814,812,794,767,718,700,699,699,699,699,704,714,733,766,906,968,1005,1021,1027,1028,1043,1058,1073,1083,1089,1089,1090,1090,1092,1095,1100,1105,1113],"ymouse":[631,631,631,631,631,631,631,631,631,631,631,631,631,631,631,631,631,631,631,631,631,631,631,631,631,631,631,631,631,631,631,631,631,631,631,631,631,631,631,631,631,631,631,631,631,631,631,631,631,631,631,631,631,631,631,631,631,631,631,631,631,631,631,631,631,624,613,567,510,429,405,403,403,401,393,384,364,337,276,183,157,145,140,139,139,139,139,139,137,133,132,130,129,127,124,113,105,94],"timestamp_mouse":[13,40,52,72,92,113,134,153,174,192,212,234,253,273,293,313,333,354,372,394,413,432,453,472,494,513,532,553,572,592,613,632,653,674,693,714,733,753,772,793,812,832,853,872,894,913,933,953,972,993,1014,1033,1053,1072,1094,1113,1132,1153,1174,1194,1213,1233,1254,1273,1294,1312,1333,1353,1374,1393,1413,1433,1453,1472,1492,1512,1532,1553,1573,1593,1613,1632,1652,1672,1692,1712,1732,1753,1773,1793,1812,1832,1853,1872,1892,1912,1933,1953],"xSR":741.5,"ySR":573.95,"xT1":424.9,"yT1":0,"xT2":1058.1,"yT2":0,"toosoon":0,"cond_shown":"Congruent","ratio_trial":200,"L_num":6,"L_den":20,"R_num":11,"R_den":22,"correct_side":2,"subjID":"Tomas_Contreras_Duarte_39","gender":"0","school":"sexto","age":"11"},{"start_time":1551887055150,"click_time":1551887056175,"finger_time":1551887055834,"fix_duration":333.9319115052588,"trial":8,"RT":684,"MT":341,"sideResp":2,"stimulus":[],"xmouse":[801,801,800,798,798,798,798,798,798,798,798,798,798,798,798,798,798,798,798,798,798,798,798,798,798,798,798,798,798,798,798,798,798,799,802,803,804,806,808,825,842,866,900,960,1056,1086,1112,1132,1147,1153,1154,1156],"ymouse":[615,615,615,615,615,615,615,615,615,615,615,615,615,615,615,615,615,615,615,615,615,615,615,615,615,615,615,615,615,615,615,613,609,592,569,561,553,542,522,436,371,292,204,70,0,0,0,0,0,0,0,1],"timestamp_mouse":[8,24,44,65,83,104,123,143,164,183,203,223,245,263,283,305,325,345,365,383,404,423,444,464,484,505,523,544,564,584,603,625,643,664,684,705,723,744,764,783,803,824,843,863,884,904,923,943,964,984,1003,1025],"xSR":741.5,"ySR":573.95,"xT1":424.9,"yT1":0,"xT2":1058.1,"yT2":0,"toosoon":0,"cond_shown":"Incongruent","ratio_trial":200,"L_num":1,"L_den":3,"R_num":2,"R_den":15,"correct_side":1,"subjID":"Tomas_Contreras_Duarte_39","gender":"0","school":"sexto","age":"11"},{"start_time":1551887060929,"click_time":1551887062954,"finger_time":1551887062273,"fix_duration":1414.604591341182,"trial":9,"RT":1344,"MT":681,"sideResp":1,"stimulus":[],"xmouse":[797,797,797,797,797,797,797,797,797,797,797,797,797,797,797,797,797,797,797,797,797,797,797,797,797,797,797,797,797,797,797,797,797,797,797,797,797,797,797,797,797,797,797,797,797,797,797,797,797,797,797,797,797,797,797,797,797,797,797,797,797,797,797,797,797,797,794,784,788,809,793,765,749,747,747,747,746,741,730,713,695,640,599,569,549,543,542,542,542,540,538,538,538,538,538,538,538,538,538,538,528,523],"ymouse":[596,596,596,596,596,596,596,596,596,596,596,596,596,596,596,596,596,596,596,596,596,596,596,596,596,596,596,596,596,596,596,596,596,596,596,596,596,596,596,596,596,596,596,596,596,596,596,596,596,596,596,596,596,596,596,596,596,596,596,596,596,596,596,596,596,596,594,566,523,469,269,182,143,125,122,122,121,122,123,125,128,130,130,130,129,126,121,113,107,99,92,92,92,92,92,91,91,91,91,90,88,85],"timestamp_mouse":[10,24,44,66,84,105,125,145,164,186,204,226,245,264,286,306,325,344,366,385,405,425,445,464,486,505,525,545,564,586,606,624,644,665,684,706,726,744,764,784,806,825,844,865,885,906,924,944,965,985,1004,1025,1046,1064,1085,1105,1125,1146,1164,1185,1206,1226,1245,1264,1284,1305,1324,1344,1365,1384,1404,1425,1445,1465,1485,1504,1526,1544,1564,1585,1604,1624,1645,1664,1686,1705,1725,1744,1764,1784,1804,1826,1844,1865,1885,1904,1925,1944,1964,1985,2005,2025],"xSR":741.5,"ySR":573.95,"xT1":424.9,"yT1":0,"xT2":1058.1,"yT2":0,"toosoon":0,"cond_shown":"Incongruent","ratio_trial":100,"L_num":6,"L_den":12,"R_num":3,"R_den":5,"correct_side":2,"subjID":"Tomas_Contreras_Duarte_39","gender":"0","school":"sexto","age":"11"},{"start_time":1551887065782,"click_time":1551887067714,"finger_time":1551887067494,"fix_duration":446.7654010194971,"trial":10,"RT":1712,"MT":220,"sideResp":2,"stimulus":[],"xmouse":[786,786,786,786,786,786,786,786,786,786,786,786,786,786,786,786,786,786,786,786,786,786,786,786,786,786,786,786,786,786,786,786,786,786,786,786,786,786,786,786,786,786,786,786,786,786,786,786,786,786,786,786,786,786,786,786,786,786,786,786,786,786,786,786,786,786,786,786,786,786,786,786,786,786,786,786,786,786,786,786,786,786,786,786,816,912,957,954,960,987,1014,1029,1048,1052,1055,1058,1060],"ymouse":[631,631,631,631,631,631,631,631,631,631,631,631,631,631,631,631,631,631,631,631,631,631,631,631,631,631,631,631,631,631,631,631,631,631,631,631,631,631,631,631,631,631,631,631,631,631,631,631,631,631,631,631,631,631,631,631,631,631,631,631,631,631,631,631,631,631,631,631,631,631,631,631,631,631,631,631,631,631,631,631,631,631,631,631,624,575,530,390,323,266,220,187,136,122,112,102,97],"timestamp_mouse":[11,34,51,73,91,113,132,151,171,191,212,233,251,273,292,313,333,352,372,392,411,432,451,471,491,512,531,551,571,592,613,633,652,672,691,713,731,752,772,793,811,831,853,873,892,911,933,952,973,991,1012,1032,1051,1072,1093,1112,1131,1152,1171,1193,1213,1232,1252,1271,1293,1312,1331,1351,1371,1391,1413,1431,1452,1471,1491,1511,1531,1551,1571,1592,1613,1632,1651,1672,1691,1712,1731,1751,1771,1792,1811,1831,1851,1872,1892,1912,1932],"xSR":741.5,"ySR":573.95,"xT1":424.9,"yT1":0,"xT2":1058.1,"yT2":0,"toosoon":0,"cond_shown":"Incongruent","ratio_trial":300,"L_num":1,"L_den":2,"R_num":2,"R_den":10,"correct_side":1,"subjID":"Tomas_Contreras_Duarte_39","gender":"0","school":"sexto","age":"11"},{"start_time":1551887073110,"click_time":1551887074877,"finger_time":1551887074437,"fix_duration":492.629996119085,"trial":11,"RT":1327,"MT":440,"sideResp":2,"stimulus":[],"xmouse":[798,798,798,798,798,798,798,798,798,798,798,798,798,798,798,798,798,798,798,798,798,798,798,798,798,798,798,798,798,798,798,798,798,798,798,798,798,798,798,798,798,798,798,798,798,798,798,798,798,798,798,798,798,798,798,798,798,798,798,798,798,798,798,798,802,821,1015,1101,1128,1150,1173,1204,1209,1209,1206,1201,1194,1182,1181,1181,1181,1178,1177,1174,1174,1171,1162,1159,1156],"ymouse":[620,620,620,620,620,620,620,620,620,620,620,620,620,620,620,620,620,620,620,620,620,620,620,620,620,620,620,620,620,620,620,620,620,620,620,620,620,620,620,620,620,620,620,620,620,620,620,620,620,620,620,620,620,620,620,620,620,620,620,620,620,620,620,620,618,606,459,361,294,213,134,51,30,17,11,7,4,0,0,0,0,4,10,15,17,22,33,39,44],"timestamp_mouse":[8,26,46,67,88,108,126,147,168,187,208,227,246,268,288,307,326,347,366,387,407,427,446,467,487,506,527,546,566,587,606,626,646,667,687,706,726,747,768,786,806,827,848,866,887,907,926,947,968,987,1006,1026,1048,1066,1088,1108,1127,1148,1167,1187,1208,1228,1248,1266,1286,1306,1327,1347,1366,1386,1406,1426,1447,1466,1486,1508,1527,1546,1566,1587,1607,1627,1647,1667,1688,1708,1727,1748,1767],"xSR":741.5,"ySR":573.95,"xT1":424.9,"yT1":0,"xT2":1058.1,"yT2":0,"toosoon":0,"cond_shown":"Incongruent","ratio_trial":300,"L_num":3,"L_den":6,"R_num":4,"R_den":20,"correct_side":1,"subjID":"Tomas_Contreras_Duarte_39","gender":"0","school":"sexto","age":"11"},{"start_time":1551887081373,"click_time":1551887082377,"finger_time":1551887082297,"fix_duration":514.7408586724174,"trial":12,"RT":924,"MT":80,"sideResp":2,"stimulus":[],"xmouse":[824,824,824,824,824,824,824,824,824,824,824,824,824,824,824,824,824,824,824,824,824,824,824,824,824,824,824,824,824,824,824,824,824,824,824,824,824,824,824,824,824,824,824,824,825,840,866,897,980,1032,1079],"ymouse":[651,651,651,651,651,651,651,651,651,651,651,651,651,651,651,651,651,651,651,651,651,651,651,651,651,651,651,651,651,651,651,651,651,651,651,651,651,651,651,651,651,651,651,649,633,596,532,445,266,173,85],"timestamp_mouse":[9,25,43,64,84,103,124,145,163,185,205,224,244,263,284,305,323,343,363,383,404,423,445,464,484,504,524,544,565,584,605,624,645,663,684,704,725,745,764,784,805,824,844,864,883,904,924,945,963,983,1004],"xSR":741.5,"ySR":573.95,"xT1":424.9,"yT1":0,"xT2":1058.1,"yT2":0,"toosoon":0,"cond_shown":"Congruent","ratio_trial":100,"L_num":7,"L_den":14,"R_num":15,"R_den":25,"correct_side":2,"subjID":"Tomas_Contreras_Duarte_39","gender":"0","school":"sexto","age":"11"},{"start_time":1551887084260,"click_time":1551887086077,"finger_time":1551887085937,"fix_duration":502.36636479176235,"trial":13,"RT":1677,"MT":140,"sideResp":1,"stimulus":[],"xmouse":[782,782,782,782,782,782,782,782,782,782,782,782,782,782,782,782,782,782,782,782,782,782,782,782,782,782,782,782,782,782,782,782,782,782,782,782,782,782,782,782,782,782,782,782,782,782,782,782,782,782,782,782,782,782,782,782,782,782,782,782,782,782,782,782,782,782,782,782,782,782,782,782,782,782,782,782,782,782,782,782,782,777,770,711,675,635,593,564,499,475,463],"ymouse":[672,670,666,658,657,657,657,657,657,657,657,657,657,657,657,657,657,657,657,657,657,657,657,657,657,657,657,657,657,657,657,657,657,657,657,657,657,657,657,657,657,657,657,657,657,657,657,657,657,657,657,657,657,657,657,657,657,657,657,657,657,657,657,657,657,657,657,657,657,657,657,657,657,657,657,657,657,657,657,657,657,652,647,597,526,421,342,265,129,101,85],"timestamp_mouse":[16,41,57,76,97,118,136,156,178,197,216,237,256,277,297,317,338,357,377,398,418,437,457,478,498,516,536,557,577,596,617,637,658,678,696,716,737,756,777,797,817,837,856,876,898,917,936,957,977,998,1018,1038,1058,1077,1098,1117,1136,1157,1177,1196,1218,1236,1256,1277,1297,1317,1336,1357,1377,1398,1416,1437,1456,1477,1496,1517,1538,1557,1577,1597,1616,1637,1656,1677,1696,1716,1738,1756,1777,1796,1816],"xSR":741.5,"ySR":573.95,"xT1":424.9,"yT1":0,"xT2":1058.1,"yT2":0,"toosoon":0,"cond_shown":"Congruent","ratio_trial":200,"L_num":7,"L_den":21,"R_num":2,"R_den":15,"correct_side":1,"subjID":"Tomas_Contreras_Duarte_39","gender":"0","school":"sexto","age":"11"},{"start_time":1551887088972,"click_time":1551887089797,"finger_time":1551887089678,"fix_duration":1215.4585363473605,"trial":14,"RT":706,"MT":119,"sideResp":2,"stimulus":[],"xmouse":[768,768,768,768,768,768,768,768,768,768,768,768,768,768,768,768,768,768,768,768,768,768,768,768,768,768,768,768,768,768,768,768,768,768,772,786,830,888,990,1030,1059,1073],"ymouse":[613,613,613,613,613,613,613,613,613,613,613,613,613,613,613,613,613,613,613,613,613,613,613,613,613,613,613,613,613,613,613,613,613,611,599,571,501,422,241,174,126,97],"timestamp_mouse":[9,34,45,66,84,106,126,144,164,185,205,224,245,266,285,305,324,345,364,384,404,426,445,465,485,504,525,544,564,584,606,624,644,664,686,706,724,744,764,786,805,824],"xSR":741.5,"ySR":573.95,"xT1":424.9,"yT1":0,"xT2":1058.1,"yT2":0,"toosoon":0,"cond_shown":"Incongruent","ratio_trial":300,"L_num":7,"L_den":10,"R_num":8,"R_den":20,"correct_side":1,"subjID":"Tomas_Contreras_Duarte_39","gender":"0","school":"sexto","age":"11"},{"start_time":1551887093648,"click_time":1551887094697,"finger_time":1551887094257,"fix_duration":989.0476782790928,"trial":15,"RT":609,"MT":440,"sideResp":1,"stimulus":[],"xmouse":[761,761,761,761,761,761,761,761,761,761,761,761,761,761,761,761,761,761,761,761,761,761,761,761,761,761,761,761,761,759,730,685,640,602,547,527,515,509,508,508,508,508,508,508,508,508,508,508,508,508,502,493,487],"ymouse":[606,606,606,606,606,606,606,606,606,606,606,606,606,606,606,606,606,606,606,606,606,606,606,606,606,606,606,606,606,588,549,488,421,354,232,186,150,131,122,120,120,120,120,120,120,120,120,120,120,120,113,106,99],"timestamp_mouse":[15,36,48,68,89,109,128,149,169,190,208,228,250,269,289,308,329,348,369,388,410,429,448,470,488,508,528,548,570,589,609,628,649,669,689,709,728,748,768,790,809,830,848,870,889,908,928,948,970,989,1010,1028,1049],"xSR":741.5,"ySR":573.95,"xT1":424.9,"yT1":0,"xT2":1058.1,"yT2":0,"toosoon":0,"cond_shown":"Incongruent","ratio_trial":300,"L_num":13,"L_den":26,"R_num":12,"R_den":15,"correct_side":2,"subjID":"Tomas_Contreras_Duarte_39","gender":"0","school":"sexto","age":"11"},{"start_time":1551887096819,"click_time":1551887097697,"finger_time":1551887097396,"fix_duration":761.3124486433722,"trial":16,"RT":577,"MT":301,"sideResp":2,"stimulus":[],"xmouse":[814,814,814,814,814,814,814,814,814,814,814,814,814,814,814,814,814,814,814,814,814,814,814,814,814,814,814,816,823,843,931,973,996,1071,1099,1116,1116,1116,1116,1116,1116,1116,1117,1117],"ymouse":[607,607,607,607,607,607,607,607,607,607,607,607,607,607,607,607,607,607,607,607,607,607,607,607,607,607,607,582,556,483,237,107,52,0,0,0,0,0,0,0,0,0,0,1],"timestamp_mouse":[33,39,58,77,97,118,137,157,178,199,218,237,257,278,299,317,338,358,377,398,417,437,459,478,498,517,537,559,577,597,617,638,659,678,697,718,738,757,777,799,819,839,858,878],"xSR":741.5,"ySR":573.95,"xT1":424.9,"yT1":0,"xT2":1058.1,"yT2":0,"toosoon":0,"cond_shown":"Incongruent","ratio_trial":100,"L_num":6,"L_den":10,"R_num":13,"R_den":26,"correct_side":1,"subjID":"Tomas_Contreras_Duarte_39","gender":"0","school":"sexto","age":"11"},{"start_time":1551887099469,"click_time":1551887100277,"finger_time":1551887100196,"fix_duration":250,"trial":17,"RT":727,"MT":81,"sideResp":2,"stimulus":[],"xmouse":[766,766,766,766,766,766,766,766,766,766,766,766,766,766,766,766,766,766,766,766,766,766,766,766,766,766,766,766,766,766,766,766,766,766,768,770,789,822,979,1056,1135],"ymouse":[622,622,622,622,622,622,622,622,622,622,622,622,622,622,622,622,622,622,622,622,622,622,621,621,621,621,621,621,621,621,621,621,621,621,611,591,543,468,233,151,76],"timestamp_mouse":[11,27,47,67,87,108,127,148,167,188,208,227,248,268,288,308,327,349,367,388,409,428,447,468,488,507,528,549,568,588,609,628,647,668,687,709,727,749,768,787,808],"xSR":741.5,"ySR":573.95,"xT1":424.9,"yT1":0,"xT2":1058.1,"yT2":0,"toosoon":0,"cond_shown":"Congruent","ratio_trial":300,"L_num":1,"L_den":3,"R_num":19,"R_den":30,"correct_side":2,"subjID":"Tomas_Contreras_Duarte_39","gender":"0","school":"sexto","age":"11"},{"start_time":1551887101736,"click_time":1551887102776,"finger_time":1551887102496,"fix_duration":318.7842431202029,"trial":18,"RT":760,"MT":280,"sideResp":1,"stimulus":[],"xmouse":[806,806,806,806,806,806,806,806,806,806,806,806,806,806,806,806,806,806,806,806,806,806,806,806,806,806,806,806,806,806,806,806,806,806,806,806,799,764,683,562,445,380,379,379,379,381,381,381,383,387,407,420,431],"ymouse":[619,619,619,619,619,619,619,619,619,619,619,619,619,619,619,619,619,619,619,619,619,619,619,619,619,619,619,619,619,619,619,619,619,619,619,619,616,583,493,318,135,0,0,0,0,0,0,0,0,2,13,19,23],"timestamp_mouse":[8,20,50,62,82,101,120,142,161,182,201,220,241,262,280,301,320,340,361,381,400,422,441,460,481,502,522,540,560,581,601,621,641,661,681,700,721,741,760,781,800,820,841,861,882,903,921,941,961,982,1000,1020,1040],"xSR":741.5,"ySR":573.95,"xT1":424.9,"yT1":0,"xT2":1058.1,"yT2":0,"toosoon":0,"cond_shown":"Congruent","ratio_trial":300,"L_num":18,"L_den":20,"R_num":9,"R_den":15,"correct_side":1,"subjID":"Tomas_Contreras_Duarte_39","gender":"0","school":"sexto","age":"11"},{"start_time":1551887106023,"click_time":1551887107977,"finger_time":1551887107437,"fix_duration":662.1711109762168,"trial":19,"RT":1414,"MT":540,"sideResp":1,"stimulus":[],"xmouse":[772,772,772,772,772,772,772,772,772,772,772,772,772,772,772,772,772,772,772,772,772,772,772,772,772,772,772,772,772,772,772,772,772,772,772,772,772,772,772,772,772,772,772,772,772,772,772,772,772,772,772,772,772,772,772,772,772,772,772,772,772,772,772,772,772,772,772,761,755,743,709,686,659,629,607,591,588,588,587,586,577,574,570,563,556,529,509,488,470,457,450,449,449,449,451,455,459,468],"ymouse":[636,636,636,636,636,636,636,636,636,636,636,636,636,636,636,636,636,636,636,636,636,636,636,636,636,636,636,636,636,636,636,636,636,636,636,636,636,636,636,636,636,636,636,636,636,636,636,636,636,636,636,636,636,636,636,636,636,636,636,636,636,636,636,636,636,636,636,628,624,614,574,541,481,411,356,271,247,227,211,199,177,172,170,167,165,162,158,154,149,144,133,125,118,114,110,104,102,99],"timestamp_mouse":[15,44,54,74,93,113,134,154,173,195,215,234,254,273,295,315,333,354,374,394,414,433,454,474,495,514,533,555,574,593,613,635,653,673,694,713,734,753,775,795,814,834,854,875,893,915,933,955,973,993,1014,1033,1054,1073,1094,1113,1135,1154,1174,1194,1215,1234,1254,1274,1294,1315,1335,1353,1373,1394,1414,1434,1453,1475,1495,1514,1533,1555,1573,1593,1615,1635,1654,1675,1694,1714,1733,1754,1774,1795,1814,1835,1853,1873,1893,1913,1933,1953],"xSR":741.5,"ySR":573.95,"xT1":424.9,"yT1":0,"xT2":1058.1,"yT2":0,"toosoon":0,"cond_shown":"Incongruent","ratio_trial":100,"L_num":12,"L_den":24,"R_num":9,"R_den":15,"correct_side":2,"subjID":"Tomas_Contreras_Duarte_39","gender":"0","school":"sexto","age":"11"},{"start_time":1551887109766,"click_time":1551887111397,"finger_time":1551887111037,"fix_duration":588.3824359539775,"trial":20,"RT":1271,"MT":360,"sideResp":2,"stimulus":[],"xmouse":[783,783,783,783,783,783,783,783,783,784,784,784,784,784,784,784,784,784,784,784,784,784,785,785,785,785,785,785,785,785,785,785,785,785,785,785,785,785,785,785,785,785,785,785,785,785,785,785,785,785,785,785,785,785,785,785,785,785,785,785,787,791,803,817,915,966,1022,1078,1159,1176,1185,1189,1189,1189,1189,1187,1184,1182,1172,1166,1159,1154],"ymouse":[611,611,611,611,611,611,611,611,611,611,611,611,611,611,611,611,611,611,611,611,610,609,609,608,608,608,608,608,608,608,608,608,608,608,608,608,608,608,608,608,608,608,608,608,608,608,608,608,608,608,608,608,608,608,608,608,608,608,608,608,606,601,587,570,443,370,286,207,88,56,37,26,26,26,25,25,25,25,25,27,29,30],"timestamp_mouse":[11,41,50,72,90,111,132,151,172,192,210,232,251,271,291,312,330,351,370,391,412,431,450,471,491,510,532,550,570,590,611,631,652,670,691,711,730,752,771,791,812,831,851,870,890,911,930,950,971,990,1010,1031,1051,1071,1090,1110,1130,1152,1171,1191,1210,1230,1250,1271,1292,1311,1331,1350,1370,1391,1411,1430,1450,1471,1491,1512,1531,1551,1570,1590,1611,1631],"xSR":741.5,"ySR":573.95,"xT1":424.9,"yT1":0,"xT2":1058.1,"yT2":0,"toosoon":0,"cond_shown":"Congruent","ratio_trial":300,"L_num":1,"L_den":5,"R_num":3,"R_den":6,"correct_side":2,"subjID":"Tomas_Contreras_Duarte_39","gender":"0","school":"sexto","age":"11"},{"start_time":1551887113103,"click_time":1551887116396,"finger_time":1551887115937,"fix_duration":584.3159194227163,"trial":21,"RT":2834,"MT":459,"sideResp":1,"stimulus":[],"xmouse":[774,774,774,774,774,774,774,774,774,774,774,774,774,774,774,774,774,774,774,774,774,774,774,774,774,774,774,774,774,774,774,774,774,774,774,774,774,774,774,774,774,774,774,774,774,774,774,774,774,774,774,774,774,774,774,774,774,774,774,774,774,774,774,774,774,774,774,774,774,774,774,774,774,774,774,774,774,774,774,774,774,774,774,774,774,774,774,774,775,776,776,776,777,777,777,777,777,777,777,777,777,777,777,777,777,777,777,777,777,777,777,777,777,777,777,777,777,777,777,777,777,777,777,777,777,777,777,777,777,777,777,777,777,777,777,776,774,772,769,765,754,720,701,678,652,622,602,583,580,580,580,576,575,575,575,576,578,579,579,579,571,548,536,527,521],"ymouse":[613,613,613,613,613,613,613,613,613,613,613,613,613,613,613,613,613,613,613,613,613,613,613,613,613,613,613,613,613,613,613,613,613,613,613,613,613,613,613,613,613,613,613,613,613,613,613,613,613,613,613,613,613,613,613,613,613,613,613,613,613,613,613,613,613,613,613,613,613,613,613,613,613,613,613,613,613,613,613,613,613,613,613,613,613,613,613,613,612,612,612,612,613,613,613,613,613,613,613,613,613,613,613,613,613,613,613,613,613,613,613,613,613,613,613,613,613,613,613,613,613,613,613,613,613,613,613,613,613,613,613,613,613,613,613,613,613,613,612,610,601,574,561,548,511,461,422,361,328,301,278,242,234,230,227,224,214,205,192,178,163,128,113,99,88],"timestamp_mouse":[14,33,55,75,95,114,134,155,175,194,215,235,253,275,293,313,335,353,373,394,415,434,453,475,494,515,534,554,574,593,614,634,653,675,693,714,734,754,773,793,813,834,854,874,895,913,933,953,975,995,1013,1033,1053,1073,1093,1113,1133,1154,1173,1193,1215,1233,1254,1274,1293,1315,1334,1355,1374,1394,1413,1435,1454,1473,1493,1513,1533,1553,1574,1594,1614,1635,1654,1674,1695,1715,1734,1753,1773,1794,1813,1834,1855,1873,1895,1913,1935,1954,1975,1994,2013,2034,2055,2074,2093,2114,2135,2153,2174,2194,2215,2235,2255,2273,2293,2314,2334,2353,2375,2394,2415,2434,2455,2475,2493,2514,2534,2555,2574,2594,2613,2634,2655,2673,2693,2714,2734,2754,2773,2794,2815,2833,2854,2874,2894,2913,2933,2953,2973,2993,3014,3034,3053,3074,3093,3113,3134,3154,3174,3193,3213,3233,3254,3274,3293],"xSR":741.5,"ySR":573.95,"xT1":424.9,"yT1":0,"xT2":1058.1,"yT2":0,"toosoon":0,"cond_shown":"Congruent","ratio_trial":200,"L_num":6,"L_den":12,"R_num":7,"R_den":10,"correct_side":2,"subjID":"Tomas_Contreras_Duarte_39","gender":"0","school":"sexto","age":"11"},{"start_time":1551887118941,"click_time":1551887120756,"finger_time":1551887120336,"fix_duration":622.0969729842367,"trial":22,"RT":1395,"MT":420,"sideResp":2,"stimulus":[],"xmouse":[794,794,794,794,794,794,794,794,794,794,794,794,794,794,794,794,794,794,794,795,795,795,795,796,797,797,797,797,797,797,797,797,797,797,797,797,797,797,797,797,797,797,797,797,797,797,797,797,797,797,797,797,797,797,797,797,797,797,797,797,797,797,797,797,797,797,797,797,797,810,823,846,869,897,946,987,1004,1016,1026,1035,1038,1040,1043,1046,1049,1050,1051,1051,1052,1058,1060],"ymouse":[616,616,616,616,616,616,616,616,616,616,616,616,616,616,616,616,616,616,616,617,617,617,617,617,618,618,618,618,618,618,618,618,618,618,616,615,614,614,614,614,614,614,614,614,614,614,614,614,614,614,614,614,614,614,614,614,614,614,614,614,614,614,614,614,614,614,614,612,604,567,543,512,481,416,308,217,185,163,145,128,121,112,100,93,83,80,80,79,77,75,73],"timestamp_mouse":[16,36,56,76,95,115,136,157,176,196,216,235,255,276,297,315,336,355,377,395,415,435,455,476,496,515,537,557,580,595,616,636,657,676,695,716,736,756,777,795,815,836,857,877,896,917,936,956,976,996,1016,1036,1055,1077,1096,1115,1136,1156,1176,1195,1217,1235,1256,1276,1296,1317,1335,1356,1377,1395,1416,1436,1455,1475,1495,1515,1536,1555,1575,1597,1616,1636,1655,1676,1696,1716,1736,1756,1777,1795,1815],"xSR":741.5,"ySR":573.95,"xT1":424.9,"yT1":0,"xT2":1058.1,"yT2":0,"toosoon":0,"cond_shown":"Incongruent","ratio_trial":200,"L_num":7,"L_den":10,"R_num":8,"R_den":16,"correct_side":1,"subjID":"Tomas_Contreras_Duarte_39","gender":"0","school":"sexto","age":"11"},{"start_time":1551887122008,"click_time":1551887123237,"finger_time":1551887122878,"fix_duration":250,"trial":23,"RT":870,"MT":359,"sideResp":1,"stimulus":[],"xmouse":[837,837,837,837,837,837,837,837,837,837,837,837,837,837,837,837,837,837,837,837,837,837,837,837,837,837,837,837,837,837,837,837,837,837,837,837,837,837,837,837,837,837,832,790,696,576,384,326,285,258,242,234,234,234,235,251,317,344,364,382,399,428],"ymouse":[623,623,623,623,623,623,623,623,623,623,623,623,623,623,623,623,623,623,623,623,623,623,623,623,623,623,623,623,623,623,623,623,623,623,623,623,623,623,623,623,623,623,618,565,479,357,129,15,0,0,0,0,0,0,1,11,31,36,38,39,41,44],"timestamp_mouse":[8,36,48,69,90,109,129,149,170,189,208,228,249,268,289,310,328,350,369,389,409,430,450,469,488,508,529,548,569,589,609,630,649,668,688,710,728,748,769,788,810,830,849,870,888,908,928,948,969,988,1009,1028,1049,1069,1088,1108,1129,1150,1169,1189,1209,1229],"xSR":741.5,"ySR":573.95,"xT1":424.9,"yT1":0,"xT2":1058.1,"yT2":0,"toosoon":0,"cond_shown":"Congruent","ratio_trial":100,"L_num":11,"L_den":22,"R_num":6,"R_den":15,"correct_side":1,"subjID":"Tomas_Contreras_Duarte_39","gender":"0","school":"sexto","age":"11"},{"start_time":1551887126310,"click_time":1551887127876,"finger_time":1551887127658,"fix_duration":492.02600583966483,"trial":24,"RT":1348,"MT":218,"sideResp":2,"stimulus":[],"xmouse":[819,819,819,819,819,819,819,819,819,819,819,819,819,819,819,819,819,819,819,819,819,819,819,819,819,819,819,819,819,819,819,819,819,819,819,819,819,819,819,819,819,819,819,819,819,819,819,819,819,819,819,819,819,819,819,819,819,819,819,819,819,819,819,819,819,819,819,840,858,884,910,960,972,982,995,1012,1044,1053,1059],"ymouse":[635,635,635,635,635,635,635,635,635,635,635,635,635,635,635,635,635,635,635,635,635,635,635,635,635,635,635,635,635,635,635,635,635,635,635,635,635,635,635,635,635,635,635,635,635,635,635,635,635,635,635,635,635,635,635,635,635,635,635,635,635,635,635,635,635,633,623,471,367,262,170,75,62,59,58,58,52,47,45],"timestamp_mouse":[8,43,47,66,86,106,128,147,166,187,208,227,246,266,286,306,327,348,368,387,406,427,446,467,487,506,528,546,568,587,606,627,646,666,686,707,727,748,767,787,808,826,847,867,886,908,928,946,967,988,1006,1026,1047,1067,1087,1107,1127,1146,1167,1186,1207,1226,1246,1266,1287,1307,1326,1348,1367,1387,1406,1426,1447,1468,1487,1508,1527,1546,1566],"xSR":741.5,"ySR":573.95,"xT1":424.9,"yT1":0,"xT2":1058.1,"yT2":0,"toosoon":0,"cond_shown":"Congruent","ratio_trial":300,"L_num":5,"L_den":25,"R_num":7,"R_den":14,"correct_side":2,"subjID":"Tomas_Contreras_Duarte_39","gender":"0","school":"sexto","age":"11"},{"start_time":1551887129528,"click_time":1551887130878,"finger_time":1551887130798,"fix_duration":250,"trial":25,"RT":1270,"MT":80,"sideResp":2,"stimulus":[],"xmouse":[786,784,784,784,784,784,784,784,784,784,784,784,784,784,784,784,784,784,784,784,784,784,784,784,784,784,784,784,784,784,784,784,784,784,784,784,784,784,784,784,784,784,784,784,784,784,784,784,784,784,784,784,784,784,784,784,784,784,784,784,784,784,795,821,859,983,1027,1061],"ymouse":[622,619,619,619,619,619,619,619,619,619,619,619,619,619,619,619,619,619,619,619,619,619,619,619,619,619,619,619,619,619,619,619,619,619,619,619,619,619,619,619,619,619,619,619,619,619,619,619,619,619,619,619,619,619,619,619,619,619,619,619,619,604,578,532,466,212,112,26],"timestamp_mouse":[16,30,56,70,88,110,128,149,169,189,209,228,249,269,290,309,329,350,368,388,410,430,449,469,488,510,529,550,568,589,609,628,649,669,690,709,729,750,768,788,809,830,848,868,890,908,928,950,968,989,1009,1029,1049,1068,1088,1109,1129,1150,1170,1189,1209,1230,1249,1270,1289,1308,1330,1350],"xSR":741.5,"ySR":573.95,"xT1":424.9,"yT1":0,"xT2":1058.1,"yT2":0,"toosoon":0,"cond_shown":"Incongruent","ratio_trial":200,"L_num":7,"L_den":10,"R_num":12,"R_den":24,"correct_side":1,"subjID":"Tomas_Contreras_Duarte_39","gender":"0","school":"sexto","age":"11"},{"start_time":1551887132049,"click_time":1551887133036,"finger_time":1551887132597,"fix_duration":250,"trial":26,"RT":548,"MT":439,"sideResp":1,"stimulus":[],"xmouse":[788,787,787,787,785,785,785,785,785,785,785,784,784,784,784,784,784,784,783,782,782,781,780,777,774,762,751,738,725,653,600,533,467,408,346,343,343,343,347,351,358,358,359,359,364,370,380,396,405,427],"ymouse":[628,629,629,631,635,637,638,638,638,638,638,638,638,638,637,634,633,632,628,625,625,624,623,623,621,600,583,566,543,414,325,233,138,51,0,0,0,0,0,0,0,0,0,0,0,0,0,4,8,18],"timestamp_mouse":[12,38,48,68,88,107,127,147,168,188,208,228,248,269,288,308,327,349,367,388,409,428,448,467,487,507,527,548,568,588,608,629,647,669,687,707,728,749,768,788,809,828,848,869,888,907,928,948,967,987],"xSR":741.5,"ySR":573.95,"xT1":424.9,"yT1":0,"xT2":1058.1,"yT2":0,"toosoon":0,"cond_shown":"Incongruent","ratio_trial":300,"L_num":13,"L_den":26,"R_num":12,"R_den":15,"correct_side":2,"subjID":"Tomas_Contreras_Duarte_39","gender":"0","school":"sexto","age":"11"},{"start_time":1551887139134,"click_time":1551887140458,"finger_time":1551887140236,"fix_duration":1095.399750624616,"trial":27,"RT":1102,"MT":222,"sideResp":2,"stimulus":[],"xmouse":[782,782,782,782,782,782,782,782,782,782,782,782,782,782,782,782,782,782,782,782,782,782,782,782,782,782,782,782,782,782,782,782,782,782,782,782,782,782,782,782,782,782,782,782,782,782,782,782,782,782,782,782,782,782,782,782,808,818,828,838,860,879,908,947,986,1058,1069],"ymouse":[607,607,607,609,609,609,609,609,609,609,609,609,609,609,609,609,609,609,609,609,609,609,609,609,609,609,609,609,609,609,609,609,609,609,609,609,609,609,609,609,609,609,609,609,609,609,609,609,609,609,609,609,605,600,585,566,505,481,458,438,392,357,318,266,214,109,85],"timestamp_mouse":[9,23,42,62,84,103,122,143,162,182,203,222,242,263,283,302,323,343,362,383,403,422,442,464,485,503,523,543,563,582,604,622,643,663,682,702,723,744,763,782,803,822,842,862,882,903,922,942,963,984,1002,1024,1042,1064,1083,1102,1123,1143,1164,1184,1203,1222,1242,1262,1284,1304,1324],"xSR":741.5,"ySR":573.95,"xT1":424.9,"yT1":0,"xT2":1058.1,"yT2":0,"toosoon":0,"cond_shown":"Incongruent","ratio_trial":100,"L_num":2,"L_den":4,"R_num":6,"R_den":15,"correct_side":1,"subjID":"Tomas_Contreras_Duarte_39","gender":"0","school":"sexto","age":"11"},{"start_time":1551887146331,"click_time":1551887147917,"finger_time":1551887147777,"fix_duration":1293.1089528785333,"trial":28,"RT":1446,"MT":140,"sideResp":2,"stimulus":[],"xmouse":[757,757,757,757,757,757,757,757,757,757,757,757,757,757,757,757,757,757,757,757,757,757,757,757,757,757,757,757,757,757,757,757,757,757,757,757,757,757,757,757,757,757,757,757,757,757,757,757,757,757,757,757,757,757,757,757,757,757,757,757,757,757,757,757,757,757,757,757,757,757,762,769,782,814,857,992,1033,1058,1076,1088],"ymouse":[612,612,612,612,612,612,612,612,612,612,612,612,612,612,612,612,612,612,612,612,612,612,612,612,612,612,612,612,612,612,612,612,612,612,612,612,612,612,612,612,612,612,612,612,612,612,612,612,612,612,612,612,612,612,612,612,612,612,612,612,612,612,612,612,612,612,612,612,612,612,604,587,557,498,438,250,183,140,109,88],"timestamp_mouse":[9,26,46,65,87,105,125,146,165,187,206,226,246,265,286,306,326,346,367,386,406,427,445,465,487,505,525,546,566,586,606,627,645,665,687,705,726,745,766,787,805,826,846,865,886,905,925,945,967,986,1005,1026,1047,1067,1086,1105,1125,1146,1167,1186,1205,1225,1247,1266,1285,1305,1327,1347,1365,1385,1405,1425,1446,1466,1485,1505,1527,1545,1566,1586],"xSR":741.5,"ySR":573.95,"xT1":424.9,"yT1":0,"xT2":1058.1,"yT2":0,"toosoon":0,"cond_shown":"Incongruent","ratio_trial":100,"L_num":1,"L_den":2,"R_num":8,"R_den":20,"correct_side":1,"subjID":"Tomas_Contreras_Duarte_39","gender":"0","school":"sexto","age":"11"},{"start_time":1551887149665,"click_time":1551887150777,"finger_time":1551887150697,"fix_duration":686.469493645224,"trial":29,"RT":1032,"MT":80,"sideResp":2,"stimulus":[],"xmouse":[812,812,812,812,812,812,812,812,812,812,812,812,812,812,812,812,812,812,812,812,812,812,812,812,812,811,809,809,809,808,808,808,808,808,808,808,808,808,808,808,808,808,808,808,808,808,808,808,808,808,824,853,897,1012,1050,1081],"ymouse":[611,611,611,611,611,611,611,611,611,611,611,611,611,611,611,611,611,611,611,611,611,611,611,611,611,611,612,612,612,613,613,613,613,613,613,613,613,613,613,613,613,613,613,613,613,613,613,613,613,613,589,528,451,231,147,72],"timestamp_mouse":[12,35,53,73,91,112,133,151,171,193,212,231,252,273,291,312,333,351,371,391,413,433,451,471,492,513,531,552,573,593,611,632,652,672,691,713,732,751,773,791,811,833,852,873,891,911,932,953,973,991,1012,1032,1053,1072,1091,1111],"xSR":741.5,"ySR":573.95,"xT1":424.9,"yT1":0,"xT2":1058.1,"yT2":0,"toosoon":0,"cond_shown":"Congruent","ratio_trial":100,"L_num":4,"L_den":8,"R_num":6,"R_den":10,"correct_side":2,"subjID":"Tomas_Contreras_Duarte_39","gender":"0","school":"sexto","age":"11"},{"start_time":1551887152752,"click_time":1551887154036,"finger_time":1551887153497,"fix_duration":574.9348631568784,"trial":30,"RT":745,"MT":539,"sideResp":1,"stimulus":[],"xmouse":[781,781,781,781,781,781,781,781,781,781,781,781,781,781,781,781,781,781,781,781,781,781,781,781,781,781,781,781,781,781,781,781,781,781,779,773,759,722,670,589,575,566,557,547,534,533,533,533,533,534,535,535,535,535,535,535,535,535,535,535,535,535,535,535,521],"ymouse":[623,623,623,623,623,623,623,623,623,623,623,623,623,623,623,623,623,623,623,623,623,623,623,623,623,623,623,623,623,623,623,623,623,623,620,613,594,542,470,315,240,175,117,65,18,17,17,17,17,20,21,21,21,21,21,21,21,21,21,21,21,21,21,23,36],"timestamp_mouse":[8,25,45,64,86,105,126,145,166,184,204,226,244,266,286,305,325,344,366,384,406,425,444,465,484,504,525,545,566,585,605,625,645,665,685,705,726,745,764,785,805,824,845,864,884,904,924,945,966,984,1004,1024,1045,1064,1085,1105,1125,1145,1166,1184,1205,1225,1245,1265,1284],"xSR":741.5,"ySR":573.95,"xT1":424.9,"yT1":0,"xT2":1058.1,"yT2":0,"toosoon":0,"cond_shown":"Congruent","ratio_trial":300,"L_num":11,"L_den":22,"R_num":4,"R_den":20,"correct_side":1,"subjID":"Tomas_Contreras_Duarte_39","gender":"0","school":"sexto","age":"11"},{"start_time":1551887162774,"click_time":1551887165576,"finger_time":1551887162777,"fix_duration":296.4037919621599,"trial":31,"RT":3,"MT":2799,"sideResp":2,"stimulus":[],"xmouse":[808,808,808,808,808,808,808,808,808,808,808,808,808,808,808,808,808,808,808,808,808,808,808,808,808,808,808,808,808,807,805,805,803,794,792,789,783,773,765,764,763,761,760,760,760,760,760,760,760,760,760,760,760,760,763,765,765,765,765,765,765,765,765,765,765,765,765,765,765,765,765,765,765,765,765,765,765,765,765,765,765,765,765,765,765,765,765,765,765,765,765,772,780,881,959,1049,1128,1198,1282,1282,1282,1282,1282,1282,1282,1282,1282,1282,1282,1282,1282,1282,1282,1282,1282,1282,1282,1282,1191,1185,1178,1169,1159,1128,1118,1114,1114,1114,1114,1114,1111,1111,1110,1110,1110,1110,1110,1110,1109,1109,1108],"ymouse":[617,617,617,617,617,617,617,617,617,617,617,617,617,617,617,617,617,617,617,617,617,617,617,617,617,617,617,617,617,617,617,617,615,601,597,593,582,569,557,556,554,552,551,551,551,551,551,551,551,551,551,551,551,548,548,547,547,547,547,547,547,547,547,547,547,547,547,547,547,547,547,547,547,547,547,547,547,547,547,547,547,547,547,547,547,547,547,547,547,547,547,539,529,388,304,219,144,81,9,9,9,9,9,9,9,9,9,9,9,9,9,9,9,9,9,9,9,9,11,24,39,59,84,125,134,136,136,136,136,136,135,131,126,113,109,108,107,106,103,100,98],"timestamp_mouse":[3,23,44,63,83,103,122,142,162,182,202,224,243,263,283,303,323,342,363,383,404,424,444,463,482,502,523,544,564,584,602,622,643,663,683,704,722,742,763,783,804,823,843,863,883,902,924,943,962,983,1003,1023,1044,1063,1083,1103,1122,1143,1162,1183,1202,1224,1243,1263,1282,1302,1323,1343,1362,1382,1404,1424,1442,1462,1484,1502,1523,1542,1563,1582,1604,1622,1642,1663,1682,1703,1722,1743,1762,1783,1802,1822,1843,1863,1882,1903,1923,1943,1963,1983,2003,2024,2043,2062,2083,2103,2124,2143,2164,2183,2204,2223,2242,2263,2282,2302,2323,2342,2362,2382,2402,2424,2443,2463,2483,2503,2523,2543,2563,2583,2603,2624,2644,2662,2684,2703,2724,2744,2763,2784,2802],"xSR":741.5,"ySR":573.95,"xT1":424.9,"yT1":0,"xT2":1058.1,"yT2":0,"toosoon":0,"cond_shown":"Incongruent","ratio_trial":200,"L_num":9,"L_den":15,"R_num":8,"R_den":10,"correct_side":2,"subjID":"Tomas_Contreras_Duarte_39","gender":"0","school":"sexto","age":"11"},{"start_time":1551887171879,"click_time":1551887173537,"finger_time":1551887173056,"fix_duration":619.872228274558,"trial":32,"RT":1177,"MT":481,"sideResp":1,"stimulus":[],"xmouse":[781,781,781,781,781,781,781,781,781,781,781,781,781,781,781,781,781,781,781,781,781,781,781,781,781,781,781,781,781,781,781,781,781,781,781,781,781,781,781,781,781,781,781,781,781,781,781,781,781,781,781,781,781,781,781,781,781,750,714,696,683,659,604,599,598,600,611,640,642,642,642,642,639,632,618,601,583,549,543,537,534,529,519],"ymouse":[547,547,547,547,547,547,547,547,547,547,547,547,547,547,547,547,547,547,547,547,547,547,547,547,547,547,547,547,547,547,547,547,547,547,547,547,547,547,547,547,547,547,547,547,547,547,547,547,547,547,547,547,547,547,547,547,547,535,515,500,478,443,361,332,307,275,237,156,132,114,109,109,108,108,108,106,102,94,91,88,86,83,76],"timestamp_mouse":[19,43,57,79,98,119,137,159,177,198,218,237,257,278,298,317,338,357,378,399,417,437,458,478,498,519,538,557,579,597,618,639,658,679,698,719,738,758,777,798,818,838,857,879,899,917,939,957,978,998,1017,1038,1058,1078,1097,1119,1137,1158,1177,1198,1218,1237,1258,1277,1298,1319,1338,1358,1377,1397,1418,1438,1457,1478,1498,1517,1539,1558,1578,1597,1619,1639,1657],"xSR":741.5,"ySR":501.8,"xT1":424.9,"yT1":0,"xT2":1058.1,"yT2":0,"toosoon":0,"cond_shown":"Incongruent","ratio_trial":200,"L_num":14,"L_den":30,"R_num":6,"R_den":9,"correct_side":2,"subjID":"Tomas_Contreras_Duarte_39","gender":"0","school":"sexto","age":"11"},{"start_time":1551887175530,"click_time":1551887176136,"finger_time":1551887175837,"fix_duration":291.6808090131499,"trial":33,"RT":307,"MT":299,"sideResp":2,"stimulus":[],"xmouse":[771,771,771,771,771,771,771,771,771,771,771,771,775,777,783,799,814,817,817,818,818,818,818,820,820,845,879,924,971,1016,1108],"ymouse":[557,557,557,557,557,557,557,557,557,557,557,557,557,556,539,472,410,384,373,368,363,363,361,359,356,325,285,222,156,95,1],"timestamp_mouse":[11,39,48,67,86,106,127,146,168,188,206,226,248,267,286,307,326,347,366,387,406,427,446,466,488,507,527,548,567,587,606],"xSR":741.5,"ySR":501.8,"xT1":424.9,"yT1":0,"xT2":1058.1,"yT2":0,"toosoon":0,"cond_shown":"Incongruent","ratio_trial":300,"L_num":3,"L_den":6,"R_num":4,"R_den":20,"correct_side":1,"subjID":"Tomas_Contreras_Duarte_39","gender":"0","school":"sexto","age":"11"},{"start_time":1551887180977,"click_time":1551887182376,"finger_time":1551887181997,"fix_duration":819.403379108117,"trial":34,"RT":1020,"MT":379,"sideResp":1,"stimulus":[],"xmouse":[800,800,800,800,800,800,800,800,800,800,800,800,800,800,800,800,800,800,800,800,800,800,800,800,800,800,800,800,800,800,800,800,800,800,800,800,800,800,800,800,800,800,800,800,800,800,800,800,791,773,750,721,642,610,572,544,519,477,460,453,451,451,455,461,464,468,471,478,481,481],"ymouse":[533,533,533,533,533,533,533,533,533,533,533,533,533,533,533,533,533,533,533,533,533,533,533,533,533,533,533,533,533,533,533,533,533,533,533,533,533,533,533,533,533,533,533,533,533,533,533,533,522,502,477,443,370,340,307,286,268,240,232,224,221,216,205,199,197,191,178,134,102,71],"timestamp_mouse":[19,40,60,81,100,120,141,159,179,200,219,239,259,280,301,320,340,360,379,401,419,439,460,480,501,521,539,560,581,600,620,640,660,680,701,719,739,760,779,800,821,840,861,880,899,919,940,959,979,999,1020,1041,1059,1079,1100,1119,1140,1159,1179,1200,1220,1239,1259,1279,1299,1321,1341,1359,1379,1399],"xSR":741.5,"ySR":501.8,"xT1":424.9,"yT1":0,"xT2":1058.1,"yT2":0,"toosoon":0,"cond_shown":"Congruent","ratio_trial":300,"L_num":4,"L_den":10,"R_num":1,"R_den":10,"correct_side":1,"subjID":"Tomas_Contreras_Duarte_39","gender":"0","school":"sexto","age":"11"},{"start_time":1551887186029,"click_time":1551887187057,"finger_time":1551887186737,"fix_duration":250,"trial":35,"RT":708,"MT":320,"sideResp":2,"stimulus":[],"xmouse":[766,766,766,766,766,766,766,766,766,766,766,766,766,766,766,766,766,766,766,766,766,766,766,766,766,766,766,766,766,766,766,766,766,766,777,862,944,1005,1054,1089,1107,1103,1097,1095,1092,1092,1092,1090,1087,1079,1065,1065],"ymouse":[545,545,545,545,545,545,545,545,545,545,545,545,545,545,545,545,545,545,545,545,545,545,545,545,545,545,545,545,545,545,545,545,545,545,529,455,397,338,284,230,162,151,144,142,142,142,142,141,139,131,103,83],"timestamp_mouse":[10,41,48,67,88,107,128,148,168,189,208,229,248,268,289,308,327,348,369,388,409,427,447,467,487,507,527,549,569,589,608,628,647,667,687,708,727,747,768,788,808,829,847,867,888,908,927,947,968,987,1009,1028],"xSR":741.5,"ySR":501.8,"xT1":424.9,"yT1":0,"xT2":1058.1,"yT2":0,"toosoon":0,"cond_shown":"Incongruent","ratio_trial":100,"L_num":6,"L_den":10,"R_num":11,"R_den":22,"correct_side":1,"subjID":"Tomas_Contreras_Duarte_39","gender":"0","school":"sexto","age":"11"},{"start_time":1551887190750,"click_time":1551887192117,"finger_time":1551887191716,"fix_duration":793.6193242244092,"trial":36,"RT":966,"MT":401,"sideResp":2,"stimulus":[],"xmouse":[791,791,791,791,791,791,791,791,791,791,791,791,791,791,791,791,791,791,791,791,791,791,791,791,791,791,791,791,791,791,791,791,791,791,791,791,791,791,791,791,791,791,791,791,791,791,796,801,820,872,898,910,919,928,952,958,962,970,977,1000,1012,1024,1027,1028,1033,1037,1045,1057,1072],"ymouse":[557,557,557,557,557,557,557,557,557,557,557,557,557,557,557,557,557,557,557,557,557,557,557,557,557,557,557,557,557,557,557,557,557,557,557,557,557,557,557,557,557,557,557,557,557,557,542,532,501,408,356,324,287,255,165,134,110,85,65,31,24,22,22,22,24,27,31,36,43],"timestamp_mouse":[9,41,47,68,86,107,127,146,167,186,206,226,247,267,287,306,326,346,367,386,407,427,447,468,487,506,526,546,567,586,607,626,648,666,687,707,726,748,766,786,807,826,847,868,886,908,927,948,966,986,1006,1026,1046,1067,1087,1106,1126,1147,1167,1187,1208,1226,1247,1266,1287,1308,1328,1348,1367],"xSR":741.5,"ySR":501.8,"xT1":424.9,"yT1":0,"xT2":1058.1,"yT2":0,"toosoon":0,"cond_shown":"Congruent","ratio_trial":200,"L_num":3,"L_den":12,"R_num":9,"R_den":20,"correct_side":2,"subjID":"Tomas_Contreras_Duarte_39","gender":"0","school":"sexto","age":"11"},{"start_time":1551887196090,"click_time":1551887202238,"finger_time":1551887198638,"fix_duration":1311.3065436439822,"trial":37,"RT":2548,"MT":3600,"sideResp":1,"stimulus":[],"xmouse":[771,771,771,771,771,771,771,771,771,771,771,771,771,771,771,771,771,771,771,771,771,771,771,771,771,771,771,771,771,771,771,771,771,771,771,771,771,771,771,771,771,771,771,771,771,771,771,771,771,771,771,771,771,771,771,771,771,771,771,771,771,771,771,771,771,771,771,771,771,771,771,771,771,771,771,771,771,771,771,771,771,771,771,771,771,771,771,771,771,771,771,771,771,771,771,771,771,771,771,771,771,771,771,771,771,771,771,771,771,771,771,771,771,771,771,771,771,771,771,771,771,771,771,771,771,764,744,553,407,241,87,0,0,0,0,0,0,0,0,0,0,0,0,0,0,0,0,0,0,15,49,117,333,462,574,667,727,773,780,784,785,785,785,785,785,785,785,785,785,785,785,785,785,785,785,785,785,785,785,785,785,785,785,785,785,785,785,785,785,785,785,785,785,785,785,785,785,785,785,785,785,785,785,785,785,785,785,785,785,785,785,785,785,785,785,785,785,785,785,785,785,785,785,785,785,785,785,785,785,785,785,785,785,785,785,785,785,785,785,785,785,785,785,785,785,785,785,785,785,785,785,785,785,785,785,785,785,785,785,785,785,785,785,785,785,785,785,785,785,785,785,785,785,768,743,672,599,422,358,297,249,249,249,249,249,249,249,249,249,249,249,249,249,249,263,277,316,424,441,448,450,450,455,463,471,481,492,499],"ymouse":[585,585,585,585,585,585,585,585,585,585,585,585,585,585,585,585,585,585,585,585,585,585,585,585,585,585,585,585,585,585,585,585,585,585,585,585,585,585,585,585,585,585,585,585,585,585,585,585,585,585,585,585,585,585,585,585,585,585,585,585,585,585,585,585,585,585,585,585,585,585,585,585,585,585,585,585,585,585,585,585,585,585,585,585,585,585,585,585,585,585,585,585,585,585,585,585,585,585,585,585,585,585,585,585,585,585,585,585,585,585,585,585,585,585,585,585,585,585,585,585,585,585,585,585,585,586,591,641,682,717,738,757,759,759,759,759,759,759,759,759,759,759,759,759,759,759,759,759,759,751,737,709,649,613,589,574,564,561,561,561,561,561,561,561,561,561,561,561,561,561,561,561,561,561,561,561,561,561,561,561,561,561,561,561,561,561,561,561,561,561,561,561,561,561,561,561,561,561,561,561,561,561,561,561,561,561,561,561,561,561,561,561,561,561,561,561,561,561,561,561,561,561,561,561,561,561,561,561,561,561,561,561,561,561,561,561,561,561,561,561,561,561,561,561,561,561,561,561,561,561,561,561,561,561,561,561,561,561,561,561,561,561,561,561,561,561,561,561,561,561,561,561,561,524,496,425,346,160,94,41,6,6,6,6,6,6,6,6,6,6,6,6,6,6,5,18,48,134,149,154,154,154,152,144,134,123,108,85],"timestamp_mouse":[9,38,48,68,88,107,127,148,168,187,209,228,248,268,288,308,329,348,367,389,407,428,447,469,489,508,528,549,567,587,608,628,648,668,688,709,727,749,768,787,808,829,848,868,887,908,928,948,969,988,1007,1029,1049,1068,1089,1109,1127,1148,1168,1188,1208,1229,1248,1268,1287,1307,1329,1347,1367,1389,1407,1428,1448,1467,1487,1507,1528,1548,1567,1587,1609,1628,1647,1669,1687,1709,1728,1748,1767,1787,1808,1828,1847,1867,1887,1909,1927,1948,1968,1988,2008,2027,2048,2068,2088,2108,2129,2148,2168,2188,2209,2228,2248,2269,2287,2307,2328,2347,2368,2389,2408,2428,2447,2468,2488,2507,2528,2548,2568,2588,2607,2628,2648,2668,2688,2709,2728,2747,2767,2787,2807,2828,2849,2868,2888,2908,2927,2949,2968,2989,3009,3028,3048,3067,3087,3108,3128,3148,3168,3189,3208,3228,3248,3267,3289,3308,3327,3347,3369,3387,3408,3429,3448,3468,3489,3509,3527,3548,3568,3589,3608,3628,3649,3668,3688,3708,3728,3747,3767,3789,3808,3827,3849,3869,3887,3908,3929,3948,3968,3989,4008,4029,4048,4068,4089,4109,4127,4148,4168,4189,4207,4229,4249,4268,4288,4308,4329,4348,4367,4387,4408,4429,4447,4469,4489,4508,4527,4549,4569,4587,4608,4629,4648,4667,4689,4709,4729,4748,4768,4787,4809,4828,4848,4868,4888,4909,4927,4948,4968,4988,5008,5028,5049,5069,5088,5109,5129,5148,5168,5189,5208,5228,5248,5267,5288,5308,5329,5348,5368,5387,5408,5429,5448,5468,5489,5507,5528,5548,5568,5588,5609,5627,5648,5667,5688,5707,5728,5748,5768,5789,5809,5829,5849,5868,5888,5908,5928,5947,5968,5987,6009,6028,6047,6069,6088,6108,6129,6148],"xSR":741.5,"ySR":501.8,"xT1":424.9,"yT1":0,"xT2":1058.1,"yT2":0,"toosoon":0,"cond_shown":"Incongruent","ratio_trial":300,"L_num":13,"L_den":26,"R_num":12,"R_den":15,"correct_side":2,"subjID":"Tomas_Contreras_Duarte_39","gender":"0","school":"sexto","age":"11"},{"start_time":1551887204008,"click_time":1551887205438,"finger_time":1551887205217,"fix_duration":968.4424265737132,"trial":38,"RT":1209,"MT":221,"sideResp":1,"stimulus":[],"xmouse":[816,816,816,816,816,816,816,816,816,816,816,816,816,816,816,816,816,816,816,816,817,822,824,825,825,825,825,825,825,825,825,825,825,825,825,825,825,824,823,820,817,814,814,814,814,814,814,814,814,814,814,814,814,814,814,813,808,803,794,786,773,743,727,710,696,680,638,616,583,558,532,472],"ymouse":[560,560,560,560,560,560,560,560,560,560,560,560,560,560,560,560,560,560,560,559,556,549,547,546,546,546,546,546,546,546,546,546,546,546,546,546,546,547,548,551,555,558,558,558,558,558,558,558,558,558,558,558,558,558,558,558,545,537,521,507,487,443,422,400,380,358,300,269,234,200,166,91],"timestamp_mouse":[11,30,49,71,89,109,129,149,170,190,210,230,249,269,290,310,330,349,371,389,410,430,450,471,489,510,529,549,569,590,609,629,650,670,689,709,729,749,770,791,810,829,851,870,891,909,929,950,969,991,1009,1030,1049,1069,1090,1109,1130,1151,1170,1190,1209,1230,1250,1270,1291,1310,1329,1350,1370,1390,1409,1430],"xSR":741.5,"ySR":501.8,"xT1":424.9,"yT1":0,"xT2":1058.1,"yT2":0,"toosoon":0,"cond_shown":"Incongruent","ratio_trial":300,"L_num":13,"L_den":26,"R_num":12,"R_den":15,"correct_side":2,"subjID":"Tomas_Contreras_Duarte_39","gender":"0","school":"sexto","age":"11"},{"start_time":1551887207172,"click_time":1551887207838,"finger_time":1551887207538,"fix_duration":872.2341533152644,"trial":39,"RT":366,"MT":300,"sideResp":2,"stimulus":[],"xmouse":[771,771,771,771,771,771,771,771,771,771,771,771,771,771,771,771,771,777,882,962,1044,1110,1177,1198,1198,1198,1194,1183,1173,1170,1165,1158,1150,1130],"ymouse":[582,582,582,582,582,582,582,582,582,582,582,582,582,582,582,582,583,577,453,371,286,221,144,123,123,123,124,127,127,127,118,109,100,86],"timestamp_mouse":[11,26,45,66,86,106,125,146,166,186,205,225,245,266,285,305,327,346,366,387,405,426,446,465,486,506,526,547,566,585,606,625,646,666],"xSR":741.5,"ySR":501.8,"xT1":424.9,"yT1":0,"xT2":1058.1,"yT2":0,"toosoon":0,"cond_shown":"Congruent","ratio_trial":100,"L_num":4,"L_den":10,"R_num":15,"R_den":30,"correct_side":2,"subjID":"Tomas_Contreras_Duarte_39","gender":"0","school":"sexto","age":"11"},{"start_time":1551887209342,"click_time":1551887210877,"finger_time":1551887210497,"fix_duration":462.8901775408303,"trial":40,"RT":1155,"MT":380,"sideResp":2,"stimulus":[],"xmouse":[769,769,769,769,769,769,769,769,769,769,769,769,769,769,769,769,769,769,769,769,769,769,769,769,769,769,769,769,769,769,769,769,769,769,769,769,769,769,768,767,767,767,767,767,767,767,767,767,767,767,767,767,767,767,767,773,799,850,935,1111,1173,1220,1243,1243,1243,1243,1243,1243,1243,1243,1243,1243,1243,1243,1243,1181,1153],"ymouse":[560,560,560,560,560,560,560,560,560,560,560,560,560,560,560,560,560,560,560,560,560,560,560,560,560,560,560,560,560,560,560,560,560,560,560,560,560,560,560,561,562,563,563,563,563,563,563,563,563,563,563,563,563,563,563,554,521,460,375,197,115,45,0,0,0,0,0,0,0,0,0,0,0,0,0,0,18],"timestamp_mouse":[35,35,55,77,95,115,137,156,177,195,216,237,256,275,296,316,336,355,376,395,417,435,456,477,496,516,536,555,576,596,617,635,656,675,696,715,736,757,775,796,816,836,856,876,896,916,936,957,975,995,1016,1035,1057,1077,1095,1115,1137,1155,1175,1196,1217,1237,1256,1276,1296,1315,1337,1356,1376,1396,1415,1436,1456,1477,1496,1517,1535],"xSR":741.5,"ySR":501.8,"xT1":424.9,"yT1":0,"xT2":1058.1,"yT2":0,"toosoon":0,"cond_shown":"Congruent","ratio_trial":100,"L_num":1,"L_den":2,"R_num":3,"R_den":5,"correct_side":2,"subjID":"Tomas_Contreras_Duarte_39","gender":"0","school":"sexto","age":"11"},{"start_time":1551887212371,"click_time":1551887213978,"finger_time":1551887213498,"fix_duration":611.7290311518451,"trial":41,"RT":1127,"MT":480,"sideResp":1,"stimulus":[],"xmouse":[816,816,816,816,816,816,816,816,816,816,816,816,816,816,816,816,816,816,816,816,816,816,816,816,816,816,816,816,816,816,816,816,816,816,816,816,816,816,816,816,816,816,816,816,816,816,816,816,816,816,816,816,816,816,815,799,770,733,661,610,538,416,416,416,416,416,416,416,416,416,416,416,416,416,416,416,416,338,392,424,445],"ymouse":[555,555,555,555,555,555,555,555,555,555,555,555,555,555,555,555,555,555,555,555,555,555,555,555,555,555,555,555,555,555,555,555,555,555,555,555,555,555,555,555,555,555,555,555,555,555,555,555,555,555,555,555,555,555,556,534,499,451,289,201,110,8,8,8,8,8,8,8,8,8,8,8,8,8,8,8,8,2,53,78,93],"timestamp_mouse":[8,26,46,66,88,107,128,147,167,187,207,227,247,267,288,306,328,346,368,386,408,427,448,466,486,507,526,547,567,588,606,628,647,667,687,708,726,746,766,786,808,826,846,867,887,907,927,948,966,987,1008,1027,1047,1066,1087,1108,1127,1146,1166,1187,1207,1227,1246,1266,1286,1306,1326,1347,1366,1386,1408,1428,1448,1467,1486,1506,1527,1546,1567,1586,1606],"xSR":741.5,"ySR":501.8,"xT1":424.9,"yT1":0,"xT2":1058.1,"yT2":0,"toosoon":0,"cond_shown":"Congruent","ratio_trial":100,"L_num":9,"L_den":15,"R_num":8,"R_den":16,"correct_side":1,"subjID":"Tomas_Contreras_Duarte_39","gender":"0","school":"sexto","age":"11"},{"start_time":1551887216189,"click_time":1551887217658,"finger_time":1551887217418,"fix_duration":929.5879697293868,"trial":42,"RT":1229,"MT":240,"sideResp":2,"stimulus":[],"xmouse":[797,797,797,797,797,797,797,797,797,797,797,797,797,797,797,797,797,797,797,797,797,797,797,797,797,797,797,797,797,797,797,797,797,797,797,797,797,797,797,797,797,797,797,797,797,797,797,797,797,797,797,797,797,797,797,797,797,797,797,798,800,808,880,918,951,967,977,986,990,996,1005,1013,1038,1059],"ymouse":[526,526,526,526,526,526,526,526,526,526,526,526,526,526,526,526,526,526,526,526,526,526,526,526,526,526,526,526,526,526,526,526,526,526,526,526,526,526,526,526,526,526,526,526,526,526,526,526,526,526,526,526,526,526,526,526,526,526,526,521,512,487,338,272,214,176,150,123,116,110,105,100,81,69],"timestamp_mouse":[8,45,50,70,90,108,129,149,168,190,208,228,250,268,288,309,329,348,369,390,410,429,448,469,488,510,529,548,569,590,608,630,649,668,689,708,729,748,768,790,808,828,849,868,889,909,929,949,970,990,1009,1029,1049,1070,1088,1108,1129,1148,1170,1188,1209,1229,1248,1269,1289,1308,1330,1349,1369,1388,1408,1430,1449,1469],"xSR":741.5,"ySR":501.8,"xT1":424.9,"yT1":0,"xT2":1058.1,"yT2":0,"toosoon":0,"cond_shown":"Congruent","ratio_trial":200,"L_num":13,"L_den":26,"R_num":14,"R_den":20,"correct_side":2,"subjID":"Tomas_Contreras_Duarte_39","gender":"0","school":"sexto","age":"11"},{"start_time":1551887219313,"click_time":1551887220338,"finger_time":1551887220137,"fix_duration":473.4420148053157,"trial":43,"RT":824,"MT":201,"sideResp":1,"stimulus":[],"xmouse":[783,783,783,783,783,783,783,783,783,783,783,783,783,783,783,783,783,783,783,783,783,783,783,783,783,783,783,783,783,783,783,783,783,783,783,783,783,783,783,778,757,698,671,641,611,582,539,523,519,516,516,516],"ymouse":[551,551,551,551,551,551,551,551,551,551,551,551,551,551,551,551,551,551,551,551,551,551,551,551,551,551,551,