[{"start_time":1551900349045,"click_time":1551900352066,"finger_time":1551900351446,"fix_duration":375.9754850879222,"trial":0,"RT":2401,"MT":620,"sideResp":1,"stimulus":"img/900/equaldotanddens/L/2_Ratio_900_L_20_R_18.png","xmouse":[800,800,800,800,800,800,800,800,800,800,800,800,800,800,800,800,800,800,800,800,800,800,800,800,800,800,800,800,800,800,800,800,800,800,800,800,800,800,800,800,800,800,800,800,800,800,800,800,800,800,800,800,800,800,800,800,800,800,800,800,800,800,800,800,800,800,800,800,800,800,800,800,800,800,800,800,800,800,800,800,800,800,800,800,800,800,800,800,800,800,800,800,800,800,800,800,800,800,800,800,800,800,800,800,800,800,800,799,799,799,799,799,799,799,799,799,799,799,799,799,801,810,810,810,806,782,745,745,745,745,745,745,745,745,745,745,745,745,745,745,745,588,584,581,577,576,576,576,563,551,534,509],"ymouse":[515,515,515,515,515,515,515,515,515,515,515,515,515,515,515,515,515,515,515,515,515,515,515,515,515,515,515,515,515,515,515,515,515,515,515,515,515,515,515,515,515,515,515,515,515,515,515,515,515,515,515,515,515,515,515,515,515,515,515,515,515,515,515,515,515,515,515,515,515,515,515,515,515,515,515,515,515,515,515,515,515,515,515,515,515,515,515,515,515,515,515,515,515,515,515,515,515,515,515,515,515,515,515,515,515,515,515,510,508,506,504,503,503,503,503,503,503,503,502,485,457,382,333,271,199,120,18,18,18,18,18,18,18,18,18,18,18,18,18,18,18,7,13,17,22,23,23,23,23,24,27,33],"timestamp_mouse":[8,36,41,61,80,100,122,140,162,181,200,221,241,260,280,300,321,341,360,382,401,420,441,460,482,500,522,541,561,581,601,621,640,660,681,700,720,741,760,780,801,820,840,861,881,901,920,940,962,981,1001,1021,1042,1061,1081,1102,1121,1141,1161,1181,1200,1221,1242,1260,1280,1301,1320,1341,1362,1381,1400,1421,1442,1460,1481,1501,1521,1541,1562,1582,1601,1620,1642,1661,1681,1701,1721,1742,1760,1781,1802,1821,1841,1862,1882,1900,1922,1942,1960,1980,2001,2022,2041,2061,2081,2101,2122,2141,2160,2180,2202,2220,2240,2261,2281,2300,2320,2340,2360,2381,2401,2421,2440,2461,2480,2500,2521,2541,2560,2580,2601,2621,2640,2660,2681,2701,2720,2740,2760,2781,2802,2822,2841,2861,2880,2900,2921,2941,2960,2981,3001,3021],"xSR":741.5,"ySR":469.95,"xT1":424.9,"yT1":0,"xT2":1058.1,"yT2":0,"toosoon":0,"cond_shown":"equaldotanddens","ratio_trial":900,"smaller_num":"18","larger_num":"20","correct_side":1,"subjID":"TomasJimenez34","gender":"0","age":"11","school":"6","test":{"fix_dur":[250,1500],"timestim":300,"targets_dim":[100,100],"targets_relative_coord":[0.3,0.7],"size_stim":[880,420],"start_dim":[100,100],"size_start":[300,300],"size_fix":60,"samplingrate":20,"img_types":["equaldotsize","equaldotanddens","randomdotsizeEA"],"ratios":[250,500,750,900],"rep_conds":9,"nTrials":120,"trials_to_rest":500,"Trials_order":[58,110,40,10,21,32,39,54,117,14,71,44,41,24,113,25,15,11,108,84,116,2,79,6,66,83,81,64,88,26,59,82,107,43,93,22,55,28,112,102,63,111,49,95,65,1,8,106,68,51,4,74,69,109,38,104,99,33,0,101,91,27,48,16,30,23,80,119,75,31,46,9,67,103,19,53,36,17,98,85,86,13,47,35,52,100,3,115,73,5,70,94,60,96,78,20,37,97,34,72,77,118,12,18,62,7,45,42,92,89,114,29,56,61,105,87,50,76,90,57],"cond_shown":["equaldotanddens","randomdotsizeEA","equaldotanddens","equaldotanddens","equaldotsize","randomdotsizeEA","equaldotsize","equaldotsize","equaldotsize","randomdotsizeEA","randomdotsizeEA","randomdotsizeEA","randomdotsizeEA","equaldotsize","randomdotsizeEA","equaldotanddens","equaldotsize","randomdotsizeEA","equaldotsize","equaldotsize","randomdotsizeEA","randomdotsizeEA","equaldotanddens","equaldotsize","equaldotsize","randomdotsizeEA","equaldotsize","equaldotanddens","equaldotanddens","randomdotsizeEA","randomdotsizeEA","equaldotanddens","randomdotsizeEA","equaldotanddens","equaldotsize","equaldotanddens","equaldotanddens","equaldotanddens","equaldotanddens","equaldotsize","equaldotsize","equaldotsize","equaldotanddens","randomdotsizeEA","randomdotsizeEA","equaldotanddens","randomdotsizeEA","equaldotanddens","randomdotsizeEA","equaldotsize","equaldotanddens","randomdotsizeEA","equaldotsize","equaldotanddens","randomdotsizeEA","randomdotsizeEA","equaldotsize","equaldotsize","equaldotsize","randomdotsizeEA","equaldotanddens","equaldotsize","equaldotsize","equaldotanddens","equaldotsize","randomdotsizeEA","randomdotsizeEA","randomdotsizeEA","equaldotsize","equaldotanddens","equaldotanddens","equaldotsize","equaldotanddens","equaldotanddens","equaldotanddens","randomdotsizeEA","equaldotsize","randomdotsizeEA","randomdotsizeEA","equaldotanddens","randomdotsizeEA","equaldotanddens","randomdotsizeEA","randomdotsizeEA","equaldotanddens","equaldotanddens","equaldotsize","equaldotanddens","equaldotanddens","randomdotsizeEA","equaldotanddens","equaldotanddens","equaldotsize","equaldotsize","equaldotsize","randomdotsizeEA","equaldotanddens","equaldotanddens","equaldotanddens","equaldotsize","randomdotsizeEA","equaldotanddens","equaldotsize","equaldotsize","randomdotsizeEA","equaldotanddens","equaldotsize","equaldotsize","randomdotsizeEA","randomdotsizeEA","equaldotsize","randomdotsizeEA","randomdotsizeEA","equaldotanddens","equaldotsize","equaldotsize","randomdotsizeEA","equaldotanddens","equaldotsize","equaldotsize"],"ratio_trial":[900,250,500,900,900,750,500,750,900,250,900,750,500,250,500,250,500,900,250,250,750,250,750,750,750,900,900,500,500,250,900,900,900,750,900,900,750,500,500,750,500,500,250,900,500,250,750,900,750,500,500,250,900,250,250,750,500,900,250,500,750,500,250,500,750,900,750,900,500,750,900,900,750,750,750,500,250,500,250,250,250,250,900,900,500,500,500,750,250,500,900,900,250,250,750,750,250,250,900,250,500,900,250,750,250,750,900,750,750,500,750,500,750,250,900,500,250,500,750,900],"smaller_num":["18","3","5","18","18","3","3","6","9","3","9","3","9","2","3","6","9","9","3","2","6","3","15","3","18","18","18","5","2","3","9","18","18","6","18","9","15","9","9","3","3","9","5","9","5","6","3","18","12","9","6","6","9","1","3","3","9","9","3","2","6","1","1","5","18","9","15","18","6","3","18","9","9","3","15","9","2","4","3","2","4","3","9","18","5","9","2","15","4","5","18","9","3","2","15","15","2","2","18","2","2","18","3","9","3","3","9","6","6","2","15","9","3","2","18","9","3","5","9","9"],"larger_num":["20","12","10","20","20","4","6","8","10","12","10","4","18","8","6","24","18","10","12","8","8","12","20","4","24","20","20","10","4","12","10","20","20","8","20","10","20","18","18","4","6","18","20","10","10","24","4","20","16","18","12","24","10","4","12","4","18","10","12","4","8","2","4","10","24","10","20","20","12","4","20","10","12","4","20","18","8","8","12","8","16","12","10","20","10","18","4","20","16","10","20","10","12","8","20","20","8","8","20","8","4","20","12","12","12","4","10","8","8","4","20","18","4","8","20","18","12","10","12","10"],"correct_side":[1,2,2,1,2,2,2,2,2,1,2,1,2,1,2,1,2,1,2,1,1,2,1,2,1,1,1,1,1,1,2,2,1,2,1,1,2,1,2,1,2,2,2,2,2,1,2,1,2,2,1,1,2,2,2,1,1,2,2,1,1,2,2,2,1,2,1,2,1,2,2,1,2,2,2,2,1,1,2,1,2,1,2,2,1,2,1,2,2,1,1,2,1,1,2,2,1,2,2,1,1,1,1,2,2,1,2,1,1,1,2,2,1,2,1,2,2,1,2,2],"img_shown":["img/900/equaldotanddens/L/2_Ratio_900_L_20_R_18.png","img/250/randomdotsizeEA/R/4_Ratio_250_L_3_R_12.png","img/500/equaldotanddens/R/14_Ratio_500_L_5_R_10.png","img/900/equaldotanddens/L/10_Ratio_900_L_20_R_18.png","img/900/equaldotsize/R/11_Ratio_900_L_18_R_20.png","img/750/randomdotsizeEA/R/12_Ratio_750_L_3_R_4.png","img/500/equaldotsize/R/2_Ratio_500_L_3_R_6.png","img/750/equaldotsize/R/2_Ratio_750_L_6_R_8.png","img/900/equaldotsize/R/3_Ratio_900_L_9_R_10.png","img/250/randomdotsizeEA/L/14_Ratio_250_L_12_R_3.png","img/900/randomdotsizeEA/R/6_Ratio_900_L_9_R_10.png","img/750/randomdotsizeEA/L/9_Ratio_750_L_4_R_3.png","img/500/randomdotsizeEA/R/1_Ratio_500_L_9_R_18.png","img/250/equaldotsize/L/3_Ratio_250_L_8_R_2.png","img/500/randomdotsizeEA/R/2_Ratio_500_L_3_R_6.png","img/250/equaldotanddens/L/5_Ratio_250_L_24_R_6.png","img/500/equaldotsize/R/6_Ratio_500_L_9_R_18.png","img/900/randomdotsizeEA/L/1_Ratio_900_L_10_R_9.png","img/250/equaldotsize/R/9_Ratio_250_L_3_R_12.png","img/250/equaldotsize/L/7_Ratio_250_L_8_R_2.png","img/750/randomdotsizeEA/L/13_Ratio_750_L_8_R_6.png","img/250/randomdotsizeEA/R/4_Ratio_250_L_3_R_12.png","img/750/equaldotanddens/L/1_Ratio_750_L_20_R_15.png","img/750/equaldotsize/R/12_Ratio_750_L_3_R_4.png","img/750/equaldotsize/L/6_Ratio_750_L_24_R_18.png","img/900/randomdotsizeEA/L/8_Ratio_900_L_20_R_18.png","img/900/equaldotsize/L/8_Ratio_900_L_20_R_18.png","img/500/equaldotanddens/L/7_Ratio_500_L_10_R_5.png","img/500/equaldotanddens/L/10_Ratio_500_L_4_R_2.png","img/250/randomdotsizeEA/L/14_Ratio_250_L_12_R_3.png","img/900/randomdotsizeEA/R/5_Ratio_900_L_9_R_10.png","img/900/equaldotanddens/R/13_Ratio_900_L_18_R_20.png","img/900/randomdotsizeEA/L/4_Ratio_900_L_20_R_18.png","img/750/equaldotanddens/R/2_Ratio_750_L_6_R_8.png","img/900/equaldotsize/L/10_Ratio_900_L_20_R_18.png","img/900/equaldotanddens/L/1_Ratio_900_L_10_R_9.png","img/750/equaldotanddens/R/3_Ratio_750_L_15_R_20.png","img/500/equaldotanddens/L/4_Ratio_500_L_18_R_9.png","img/500/equaldotanddens/R/6_Ratio_500_L_9_R_18.png","img/750/equaldotsize/L/10_Ratio_750_L_4_R_3.png","img/500/equaldotsize/R/2_Ratio_500_L_3_R_6.png","img/500/equaldotsize/R/6_Ratio_500_L_9_R_18.png","img/250/equaldotanddens/R/12_Ratio_250_L_5_R_20.png","img/900/randomdotsizeEA/R/15_Ratio_900_L_9_R_10.png","img/500/randomdotsizeEA/R/14_Ratio_500_L_5_R_10.png","img/250/equaldotanddens/L/5_Ratio_250_L_24_R_6.png","img/750/randomdotsizeEA/R/12_Ratio_750_L_3_R_4.png","img/900/equaldotanddens/L/8_Ratio_900_L_20_R_18.png","img/750/randomdotsizeEA/R/11_Ratio_750_L_12_R_16.png","img/500/equaldotsize/R/1_Ratio_500_L_9_R_18.png","img/500/equaldotanddens/L/13_Ratio_500_L_12_R_6.png","img/250/randomdotsizeEA/L/5_Ratio_250_L_24_R_6.png","img/900/equaldotsize/R/7_Ratio_900_L_9_R_10.png","img/250/equaldotanddens/R/8_Ratio_250_L_1_R_4.png","img/250/randomdotsizeEA/R/9_Ratio_250_L_3_R_12.png","img/750/randomdotsizeEA/L/10_Ratio_750_L_4_R_3.png","img/500/equaldotsize/L/4_Ratio_500_L_18_R_9.png","img/900/equaldotsize/R/7_Ratio_900_L_9_R_10.png","img/250/equaldotsize/R/11_Ratio_250_L_3_R_12.png","img/500/randomdotsizeEA/L/10_Ratio_500_L_4_R_2.png","img/750/equaldotanddens/L/14_Ratio_750_L_8_R_6.png","img/500/equaldotsize/R/12_Ratio_500_L_1_R_2.png","img/250/equaldotsize/R/8_Ratio_250_L_1_R_4.png","img/500/equaldotanddens/R/14_Ratio_500_L_5_R_10.png","img/750/equaldotsize/L/6_Ratio_750_L_24_R_18.png","img/900/randomdotsizeEA/R/15_Ratio_900_L_9_R_10.png","img/750/randomdotsizeEA/L/1_Ratio_750_L_20_R_15.png","img/900/randomdotsizeEA/R/12_Ratio_900_L_18_R_20.png","img/500/equaldotsize/L/13_Ratio_500_L_12_R_6.png","img/750/equaldotanddens/R/12_Ratio_750_L_3_R_4.png","img/900/equaldotanddens/R/14_Ratio_900_L_18_R_20.png","img/900/equaldotsize/L/1_Ratio_900_L_10_R_9.png","img/750/equaldotanddens/R/15_Ratio_750_L_9_R_12.png","img/750/equaldotanddens/R/12_Ratio_750_L_3_R_4.png","img/750/equaldotanddens/R/5_Ratio_750_L_15_R_20.png","img/500/randomdotsizeEA/R/6_Ratio_500_L_9_R_18.png","img/250/equaldotsize/L/3_Ratio_250_L_8_R_2.png","img/500/randomdotsizeEA/L/8_Ratio_500_L_8_R_4.png","img/250/randomdotsizeEA/R/9_Ratio_250_L_3_R_12.png","img/250/equaldotanddens/L/1_Ratio_250_L_8_R_2.png","img/250/randomdotsizeEA/R/10_Ratio_250_L_4_R_16.png","img/250/equaldotanddens/L/14_Ratio_250_L_12_R_3.png","img/900/randomdotsizeEA/R/3_Ratio_900_L_9_R_10.png","img/900/randomdotsizeEA/R/12_Ratio_900_L_18_R_20.png","img/500/equaldotanddens/L/7_Ratio_500_L_10_R_5.png","img/500/equaldotanddens/R/1_Ratio_500_L_9_R_18.png","img/500/equaldotsize/L/10_Ratio_500_L_4_R_2.png","img/750/equaldotanddens/R/5_Ratio_750_L_15_R_20.png","img/250/equaldotanddens/R/10_Ratio_250_L_4_R_16.png","img/500/randomdotsizeEA/L/7_Ratio_500_L_10_R_5.png","img/900/equaldotanddens/L/8_Ratio_900_L_20_R_18.png","img/900/equaldotanddens/R/5_Ratio_900_L_9_R_10.png","img/250/equaldotsize/L/15_Ratio_250_L_12_R_3.png","img/250/equaldotsize/L/3_Ratio_250_L_8_R_2.png","img/750/equaldotsize/R/5_Ratio_750_L_15_R_20.png","img/750/randomdotsizeEA/R/5_Ratio_750_L_15_R_20.png","img/250/equaldotanddens/L/1_Ratio_250_L_8_R_2.png","img/250/equaldotanddens/R/13_Ratio_250_L_2_R_8.png","img/900/equaldotanddens/R/14_Ratio_900_L_18_R_20.png","img/250/equaldotsize/L/1_Ratio_250_L_8_R_2.png","img/500/randomdotsizeEA/L/10_Ratio_500_L_4_R_2.png","img/900/equaldotanddens/L/10_Ratio_900_L_20_R_18.png","img/250/equaldotsize/L/15_Ratio_250_L_12_R_3.png","img/750/equaldotsize/R/15_Ratio_750_L_9_R_12.png","img/250/randomdotsizeEA/R/11_Ratio_250_L_3_R_12.png","img/750/equaldotanddens/L/10_Ratio_750_L_4_R_3.png","img/900/equaldotsize/R/7_Ratio_900_L_9_R_10.png","img/750/equaldotsize/L/13_Ratio_750_L_8_R_6.png","img/750/randomdotsizeEA/L/14_Ratio_750_L_8_R_6.png","img/500/randomdotsizeEA/L/10_Ratio_500_L_4_R_2.png","img/750/equaldotsize/R/3_Ratio_750_L_15_R_20.png","img/500/randomdotsizeEA/R/6_Ratio_500_L_9_R_18.png","img/750/randomdotsizeEA/L/9_Ratio_750_L_4_R_3.png","img/250/equaldotanddens/R/13_Ratio_250_L_2_R_8.png","img/900/equaldotsize/L/2_Ratio_900_L_20_R_18.png","img/500/equaldotsize/R/1_Ratio_500_L_9_R_18.png","img/250/randomdotsizeEA/R/11_Ratio_250_L_3_R_12.png","img/500/equaldotanddens/L/7_Ratio_500_L_10_R_5.png","img/750/equaldotsize/R/15_Ratio_750_L_9_R_12.png","img/900/equaldotsize/R/5_Ratio_900_L_9_R_10.png"],"Rat0":[["12_Ratio_0_L_9_R_0.png","13_Ratio_0_L_6_R_0.png","5_Ratio_0_L_2_R_0.png","6_Ratio_0_L_4_R_0.png","8_Ratio_0_L_6_R_0.png"],["1_Ratio_0_L_0_R_17.png","10_Ratio_0_L_0_R_22.png","11_Ratio_0_L_0_R_1.png","14_Ratio_0_L_0_R_24.png","15_Ratio_0_L_0_R_4.png","2_Ratio_0_L_0_R_5.png","3_Ratio_0_L_0_R_17.png","4_Ratio_0_L_0_R_7.png","7_Ratio_0_L_0_R_19.png","9_Ratio_0_L_0_R_15.png"]],"Rat250":[["1_Ratio_250_L_8_R_2.png","14_Ratio_250_L_12_R_3.png","15_Ratio_250_L_12_R_3.png","2_Ratio_250_L_16_R_4.png","3_Ratio_250_L_8_R_2.png","5_Ratio_250_L_24_R_6.png","7_Ratio_250_L_8_R_2.png"],["10_Ratio_250_L_4_R_16.png","11_Ratio_250_L_3_R_12.png","12_Ratio_250_L_5_R_20.png","13_Ratio_250_L_2_R_8.png","4_Ratio_250_L_3_R_12.png","6_Ratio_250_L_6_R_24.png","8_Ratio_250_L_1_R_4.png","9_Ratio_250_L_3_R_12.png"]],"Rat500":[["10_Ratio_500_L_4_R_2.png","11_Ratio_500_L_12_R_6.png","13_Ratio_500_L_12_R_6.png","4_Ratio_500_L_18_R_9.png","5_Ratio_500_L_4_R_2.png","7_Ratio_500_L_10_R_5.png","8_Ratio_500_L_8_R_4.png"],["1_Ratio_500_L_9_R_18.png","12_Ratio_500_L_1_R_2.png","14_Ratio_500_L_5_R_10.png","15_Ratio_500_L_1_R_2.png","2_Ratio_500_L_3_R_6.png","3_Ratio_500_L_10_R_20.png","6_Ratio_500_L_9_R_18.png","9_Ratio_500_L_2_R_4.png"]],"Rat750":[["1_Ratio_750_L_20_R_15.png","10_Ratio_750_L_4_R_3.png","13_Ratio_750_L_8_R_6.png","14_Ratio_750_L_8_R_6.png","6_Ratio_750_L_24_R_18.png","8_Ratio_750_L_4_R_3.png","9_Ratio_750_L_4_R_3.png"],["11_Ratio_750_L_12_R_16.png","12_Ratio_750_L_3_R_4.png","15_Ratio_750_L_9_R_12.png","2_Ratio_750_L_6_R_8.png","3_Ratio_750_L_15_R_20.png","4_Ratio_750_L_15_R_20.png","5_Ratio_750_L_15_R_20.png","7_Ratio_750_L_3_R_4.png"]],"Rat900":[["1_Ratio_900_L_10_R_9.png","10_Ratio_900_L_20_R_18.png","2_Ratio_900_L_20_R_18.png","4_Ratio_900_L_20_R_18.png","8_Ratio_900_L_20_R_18.png"],["11_Ratio_900_L_18_R_20.png","12_Ratio_900_L_18_R_20.png","13_Ratio_900_L_18_R_20.png","14_Ratio_900_L_18_R_20.png","15_Ratio_900_L_9_R_10.png","3_Ratio_900_L_9_R_10.png","5_Ratio_900_L_9_R_10.png","6_Ratio_900_L_9_R_10.png","7_Ratio_900_L_9_R_10.png","9_Ratio_900_L_18_R_20.png"]],"Rat1000":[["10_Ratio_1000_L_16_R_16.png","11_Ratio_1000_L_6_R_6.png","12_Ratio_1000_L_14_R_14.png","13_Ratio_1000_L_20_R_20.png","15_Ratio_1000_L_15_R_15.png","2_Ratio_1000_L_17_R_17.png","4_Ratio_1000_L_9_R_9.png","5_Ratio_1000_L_6_R_6.png","6_Ratio_1000_L_19_R_19.png","8_Ratio_1000_L_14_R_14.png","9_Ratio_1000_L_25_R_25.png"],["1_Ratio_1000_L_1_R_1.png","14_Ratio_1000_L_17_R_17.png","3_Ratio_1000_L_17_R_17.png","7_Ratio_1000_L_6_R_6.png"]]}},{"start_time":1551900356029,"click_time":1551900357266,"finger_time":1551900356045,"fix_duration":1082.8961852071743,"trial":1,"RT":16,"MT":1221,"sideResp":1,"stimulus":"img/250/randomdotsizeEA/R/4_Ratio_250_L_3_R_12.png","xmouse":[802,802,802,802,802,802,802,802,802,802,802,802,802,802,802,802,802,802,802,802,802,802,802,802,802,802,802,802,802,802,800,778,754,720,679,620,594,573,561,552,549,543,540,537,535,535,532,528,522,520,518,516,515,514,512,506,504,501,498,498,497,496],"ymouse":[493,493,493,493,493,493,493,493,493,493,493,493,493,493,493,493,493,493,493,493,493,493,493,493,493,493,493,493,493,493,493,492,484,468,439,361,329,302,286,274,269,257,248,237,225,216,193,182,166,160,155,146,143,138,133,121,117,111,106,104,100,97],"timestamp_mouse":[16,49,57,76,96,118,138,156,178,197,217,236,257,277,297,318,338,358,378,396,416,437,457,476,497,518,536,556,577,598,617,638,657,678,697,718,736,757,777,796,817,836,856,878,897,918,936,956,976,997,1016,1036,1057,1077,1097,1118,1137,1157,1176,1198,1218,1237],"xSR":741.5,"ySR":469.95,"xT1":424.9,"yT1":0,"xT2":1058.1,"yT2":0,"toosoon":0,"cond_shown":"randomdotsizeEA","ratio_trial":250,"smaller_num":"3","larger_num":"12","correct_side":2,"subjID":"TomasJimenez34","gender":"0","age":"11","school":"6"},{"start_time":1551900359654,"click_time":1551900360765,"finger_time":1551900360326,"fix_duration":1387.6038334594812,"trial":2,"RT":672,"MT":439,"sideResp":2,"stimulus":"img/500/equaldotanddens/R/14_Ratio_500_L_5_R_10.png","xmouse":[763,763,763,763,763,763,763,763,763,763,763,763,763,763,763,763,763,763,763,763,763,763,763,763,763,763,763,763,763,763,763,779,818,862,955,990,1006,1018,1035,1047,1072,1083,1091,1100,1113,1118,1124,1131,1133,1134,1134,1133,1131,1131,1129,1121],"ymouse":[617,617,617,617,617,617,617,617,617,617,617,617,617,617,617,617,617,617,617,617,617,617,617,617,617,617,617,617,617,617,617,609,580,549,482,455,435,413,379,356,314,295,275,256,217,198,178,153,142,135,128,124,122,117,112,91],"timestamp_mouse":[21,42,52,72,92,112,133,153,173,192,213,231,252,272,292,312,332,351,372,391,413,432,453,471,492,511,533,551,571,592,612,631,651,672,693,711,732,752,772,791,812,831,851,872,893,911,932,951,973,992,1012,1032,1051,1071,1093,1111],"xSR":741.5,"ySR":573.95,"xT1":424.9,"yT1":0,"xT2":1058.1,"yT2":0,"toosoon":0,"cond_shown":"equaldotanddens","ratio_trial":500,"smaller_num":"5","larger_num":"10","correct_side":2,"subjID":"TomasJimenez34","gender":"0","age":"11","school":"6"},{"start_time":1551900365062,"click_time":1551900366186,"finger_time":1551900365765,"fix_duration":934.1234585608975,"trial":3,"RT":703,"MT":421,"sideResp":1,"stimulus":"img/900/equaldotanddens/L/10_Ratio_900_L_20_R_18.png","xmouse":[764,764,764,764,764,764,764,764,764,764,764,764,764,764,764,764,764,764,764,764,764,764,764,764,764,764,764,764,764,764,764,764,764,764,761,729,696,658,611,539,466,437,412,394,381,372,373,374,378,380,386,390,395,404,416,422,425],"ymouse":[614,614,614,614,614,614,614,614,614,614,614,614,614,614,614,614,614,614,614,614,614,614,614,614,614,614,614,614,614,614,614,614,614,614,611,584,556,506,449,358,268,233,203,179,158,130,110,106,94,87,75,68,62,55,44,41,39],"timestamp_mouse":[10,33,43,64,84,105,124,144,163,184,204,225,244,264,283,303,323,343,365,384,404,424,444,464,483,504,524,545,564,584,604,624,644,665,684,703,724,744,764,784,804,824,844,864,883,903,924,944,965,984,1004,1023,1043,1064,1085,1103,1124],"xSR":741.5,"ySR":573.95,"xT1":424.9,"yT1":0,"xT2":1058.1,"yT2":0,"toosoon":0,"cond_shown":"equaldotanddens","ratio_trial":900,"smaller_num":"18","larger_num":"20","correct_side":1,"subjID":"TomasJimenez34","gender":"0","age":"11","school":"6"},{"start_time":1551900368068,"click_time":1551900369205,"finger_time":1551900368765,"fix_duration":501.97912438846294,"trial":4,"RT":697,"MT":440,"sideResp":1,"stimulus":"img/900/equaldotsize/R/11_Ratio_900_L_18_R_20.png","xmouse":[780,780,780,780,780,780,780,780,780,780,780,780,780,780,780,780,780,780,780,780,780,780,780,780,780,780,780,780,780,780,780,780,778,776,775,773,771,758,739,690,672,655,639,608,598,591,587,583,571,568,565,562,559,555,541,534,522],"ymouse":[603,603,603,603,603,603,603,603,603,603,603,603,603,603,603,603,603,603,603,603,603,603,603,603,603,603,603,603,603,603,602,593,585,579,568,559,544,504,469,406,385,363,345,307,295,280,266,248,207,193,181,167,156,143,113,98,76],"timestamp_mouse":[36,38,57,77,99,117,139,157,177,198,219,238,259,277,298,319,338,358,378,398,419,438,459,477,498,518,538,559,579,597,617,638,658,677,697,718,738,758,778,798,817,839,858,879,898,917,938,957,979,997,1018,1037,1059,1078,1099,1118,1137],"xSR":741.5,"ySR":573.95,"xT1":424.9,"yT1":0,"xT2":1058.1,"yT2":0,"toosoon":0,"cond_shown":"equaldotsize","ratio_trial":900,"smaller_num":"18","larger_num":"20","correct_side":2,"subjID":"TomasJimenez34","gender":"0","age":"11","school":"6"},{"start_time":1551900371505,"click_time":1551900373025,"finger_time":1551900372266,"fix_duration":1197.8766965108252,"trial":5,"RT":761,"MT":759,"sideResp":1,"stimulus":"img/750/randomdotsizeEA/R/12_Ratio_750_L_3_R_4.png","xmouse":[814,814,814,814,814,814,814,814,814,814,814,814,814,814,814,814,814,814,814,814,814,814,814,814,814,814,814,814,814,814,814,814,812,801,797,796,795,791,791,797,806,818,846,860,867,872,877,880,893,901,911,920,927,940,947,953,953,947,863,781,694,622,564,468,435,419,415,402,392,383,381,381,381,391,397,408,430],"ymouse":[627,627,627,627,627,627,627,627,627,627,627,627,627,627,627,627,627,627,627,627,627,627,627,627,627,627,627,627,627,627,627,627,626,603,597,596,590,580,560,545,529,515,489,477,471,465,457,450,428,415,406,394,382,358,345,327,319,307,261,235,211,195,185,170,163,156,151,129,119,111,107,104,99,84,77,68,56],"timestamp_mouse":[8,22,41,60,82,102,122,142,162,181,200,222,240,262,280,301,321,342,361,381,401,421,441,462,481,501,520,541,562,580,601,621,641,660,680,701,722,741,761,781,800,821,842,860,881,901,921,941,960,981,1001,1020,1041,1060,1082,1100,1121,1141,1161,1180,1202,1221,1241,1261,1281,1301,1321,1342,1361,1380,1402,1421,1440,1460,1481,1501,1520],"xSR":741.5,"ySR":573.95,"xT1":424.9,"yT1":0,"xT2":1058.1,"yT2":0,"toosoon":0,"cond_shown":"randomdotsizeEA","ratio_trial":750,"smaller_num":"3","larger_num":"4","correct_side":2,"subjID":"TomasJimenez34","gender":"0","age":"11","school":"6"},{"start_time":1551900374506,"click_time":1551900375466,"finger_time":1551900375105,"fix_duration":539.5261238876134,"trial":6,"RT":599,"MT":361,"sideResp":2,"stimulus":"img/500/equaldotsize/R/2_Ratio_500_L_3_R_6.png","xmouse":[802,802,802,802,802,802,802,802,802,802,802,802,802,802,802,802,802,802,802,802,802,802,802,802,802,805,809,813,821,825,830,838,877,899,917,928,941,948,968,981,993,1004,1012,1026,1030,1035,1041,1051,1066],"ymouse":[616,616,616,616,616,616,616,616,616,616,616,616,616,616,616,616,616,616,616,616,616,616,616,616,616,611,605,600,585,575,560,537,447,401,365,340,303,281,212,174,140,119,98,73,64,55,46,36,26],"timestamp_mouse":[1,19,40,60,80,100,119,140,161,179,201,220,241,259,279,299,319,339,359,379,401,420,440,459,479,499,520,539,560,580,599,620,640,661,680,700,720,740,759,779,801,820,841,860,880,900,921,940,960],"xSR":741.5,"ySR":573.95,"xT1":424.9,"yT1":0,"xT2":1058.1,"yT2":0,"toosoon":0,"cond_shown":"equaldotsize","ratio_trial":500,"smaller_num":"3","larger_num":"6","correct_side":2,"subjID":"TomasJimenez34","gender":"0","age":"11","school":"6"},{"start_time":1551900376714,"click_time":1551900377765,"finger_time":1551900377387,"fix_duration":307.67899348947736,"trial":7,"RT":673,"MT":378,"sideResp":2,"stimulus":"img/750/equaldotsize/R/2_Ratio_750_L_6_R_8.png","xmouse":[805,805,805,805,805,805,805,805,805,805,805,805,805,805,805,805,805,805,805,805,805,805,805,805,805,805,805,805,805,805,805,810,822,832,849,867,902,956,982,1009,1030,1046,1048,1048,1048,1048,1048,1048,1048,1050,1052,1058,1061],"ymouse":[624,624,624,624,624,624,624,624,624,624,624,624,624,624,624,624,624,624,624,624,624,624,624,624,624,624,624,624,624,624,624,610,584,564,531,495,420,327,270,222,181,131,114,105,99,98,97,97,97,92,87,76,72],"timestamp_mouse":[12,31,52,73,92,111,132,153,173,191,213,232,253,272,292,313,331,352,373,393,413,431,452,472,491,512,531,553,571,592,611,633,651,673,692,712,732,752,771,793,812,833,851,872,891,912,932,953,971,991,1011,1033,1051],"xSR":741.5,"ySR":573.95,"xT1":424.9,"yT1":0,"xT2":1058.1,"yT2":0,"toosoon":0,"cond_shown":"equaldotsize","ratio_trial":750,"smaller_num":"6","larger_num":"8","correct_side":2,"subjID":"TomasJimenez34","gender":"0","age":"11","school":"6"},{"start_time":1551900380001,"click_time":1551900380886,"finger_time":1551900380707,"fix_duration":1492.1274638585692,"trial":8,"RT":706,"MT":179,"sideResp":1,"stimulus":"img/900/equaldotsize/R/3_Ratio_900_L_9_R_10.png","xmouse":[782,782,782,782,782,782,782,782,782,782,782,782,782,782,782,782,782,782,782,782,782,782,782,782,782,782,782,782,782,782,782,782,782,782,781,762,739,703,619,587,558,536,509,482,471],"ymouse":[607,607,607,607,607,607,607,607,607,607,607,607,607,607,607,607,607,607,607,607,607,607,607,607,607,607,607,607,607,607,607,607,607,607,597,551,509,466,374,334,288,234,171,104,81],"timestamp_mouse":[10,33,45,66,85,105,126,144,166,185,205,225,244,264,285,305,325,345,365,385,405,425,444,466,486,505,524,545,565,585,606,626,644,665,684,706,725,746,765,785,804,825,845,865,885],"xSR":741.5,"ySR":573.95,"xT1":424.9,"yT1":0,"xT2":1058.1,"yT2":0,"toosoon":0,"cond_shown":"equaldotsize","ratio_trial":900,"smaller_num":"9","larger_num":"10","correct_side":2,"subjID":"TomasJimenez34","gender":"0","age":"11","school":"6"},{"start_time":1551900382876,"click_time":1551900384686,"finger_time":1551900383746,"fix_duration":849.3905702107793,"trial":9,"RT":870,"MT":940,"sideResp":1,"stimulus":"img/250/randomdotsizeEA/L/14_Ratio_250_L_12_R_3.png","xmouse":[784,784,784,784,784,784,784,784,784,784,784,784,784,784,784,784,784,784,784,784,784,784,784,784,784,784,784,784,784,784,784,784,784,784,784,784,784,784,785,787,787,787,787,786,785,785,785,785,785,788,793,798,804,810,819,821,822,822,818,781,749,688,611,546,493,491,490,490,490,490,490,490,490,490,490,490,490,490,490,490,488,487,486,484,484,484,487,493,501,509,511],"ymouse":[620,620,620,620,620,620,620,620,620,620,620,620,620,620,620,620,620,620,620,620,620,620,620,620,620,620,620,620,620,620,620,620,620,620,620,620,620,618,609,601,596,591,581,567,539,529,523,513,504,487,479,472,465,459,450,447,445,439,432,406,392,368,345,326,301,297,295,290,283,274,268,261,249,225,215,207,199,195,192,182,177,172,168,164,159,154,145,135,117,100,96],"timestamp_mouse":[10,34,50,70,91,110,129,150,171,189,210,231,250,270,291,310,329,350,371,390,409,429,450,471,490,510,530,551,570,590,610,631,650,670,690,711,731,751,770,790,809,830,850,870,889,910,930,949,970,989,1010,1029,1050,1070,1089,1110,1130,1149,1170,1191,1210,1230,1250,1270,1290,1310,1329,1350,1370,1390,1409,1431,1450,1471,1489,1510,1529,1549,1570,1590,1609,1629,1649,1670,1689,1710,1729,1750,1770,1791,1810],"xSR":741.5,"ySR":573.95,"xT1":424.9,"yT1":0,"xT2":1058.1,"yT2":0,"toosoon":0,"cond_shown":"randomdotsizeEA","ratio_trial":250,"smaller_num":"3","larger_num":"12","correct_side":1,"subjID":"TomasJimenez34","gender":"0","age":"11","school":"6"},{"start_time":1551900394828,"click_time":1551900395667,"finger_time":1551900395325,"fix_duration":420.7880864812248,"trial":10,"RT":497,"MT":342,"sideResp":1,"stimulus":"img/900/randomdotsizeEA/R/6_Ratio_900_L_9_R_10.png","xmouse":[756,756,756,756,756,756,756,756,756,756,756,756,756,756,756,756,756,756,756,756,756,756,755,752,749,740,737,732,728,721,712,692,682,664,641,611,576,567,559,545,536,521],"ymouse":[604,604,604,604,604,604,604,604,604,604,604,604,604,604,604,604,604,604,604,604,604,603,597,583,569,541,530,517,504,490,462,415,392,355,306,255,188,162,131,87,63,29],"timestamp_mouse":[18,38,58,78,99,118,139,158,177,197,218,238,258,277,298,318,337,357,379,398,419,439,457,477,497,519,537,558,577,598,618,639,658,678,698,718,737,759,778,798,818,839],"xSR":741.5,"ySR":573.95,"xT1":424.9,"yT1":0,"xT2":1058.1,"yT2":0,"toosoon":0,"cond_shown":"randomdotsizeEA","ratio_trial":900,"smaller_num":"9","larger_num":"10","correct_side":2,"subjID":"TomasJimenez34","gender":"0","age":"11","school":"6"},{"start_time":1551900396978,"click_time":1551900398026,"finger_time":1551900397785,"fix_duration":250,"trial":11,"RT":807,"MT":241,"sideResp":1,"stimulus":"img/750/randomdotsizeEA/L/9_Ratio_750_L_4_R_3.png","xmouse":[768,768,768,768,768,768,768,768,768,768,768,768,768,768,768,768,768,768,768,768,768,768,768,768,768,768,768,768,768,768,768,768,768,768,768,768,768,767,767,761,755,745,711,681,615,589,563,536,500,456,450,447,443],"ymouse":[613,613,613,613,613,613,613,613,613,613,613,613,613,613,613,613,613,613,613,613,613,613,613,613,613,613,613,613,613,613,613,613,613,613,613,613,613,609,602,574,555,530,484,444,351,315,279,238,190,138,127,117,95],"timestamp_mouse":[10,33,47,69,88,109,128,149,169,188,208,227,248,268,288,309,328,348,369,387,408,427,447,469,488,508,527,547,569,589,607,627,649,668,687,708,727,747,768,787,807,827,848,867,888,907,928,948,968,987,1008,1028,1047],"xSR":741.5,"ySR":573.95,"xT1":424.9,"yT1":0,"xT2":1058.1,"yT2":0,"toosoon":0,"cond_shown":"randomdotsizeEA","ratio_trial":750,"smaller_num":"3","larger_num":"4","correct_side":1,"subjID":"TomasJimenez34","gender":"0","age":"11","school":"6"},{"start_time":1551900405776,"click_time":1551900407126,"finger_time":1551900406527,"fix_duration":1387.7922016846176,"trial":12,"RT":751,"MT":599,"sideResp":1,"stimulus":"img/500/randomdotsizeEA/R/1_Ratio_500_L_9_R_18.png","xmouse":[804,804,804,804,804,804,804,804,804,804,804,804,804,804,804,804,804,804,804,804,804,804,802,799,797,797,796,795,794,791,791,791,791,791,791,792,796,800,807,808,806,791,771,760,759,758,758,758,759,766,768,770,770,770,765,762,754,744,682,623,570,536,521,520,513,507,502,498],"ymouse":[635,635,635,635,635,635,635,635,635,635,635,635,635,635,635,635,635,635,635,635,635,635,635,632,630,628,627,626,623,621,620,619,619,618,606,595,581,567,529,508,481,442,399,357,345,331,316,299,280,243,231,215,208,201,192,188,185,181,165,150,141,129,124,122,115,108,101,95],"timestamp_mouse":[10,37,51,71,91,109,131,151,170,191,211,229,249,270,290,311,330,349,377,390,409,430,450,471,489,509,529,550,570,589,610,629,650,670,691,709,729,751,771,790,810,830,851,871,889,909,929,949,971,989,1009,1029,1049,1070,1089,1110,1131,1150,1171,1189,1211,1230,1251,1270,1290,1310,1330,1350],"xSR":741.5,"ySR":573.95,"xT1":424.9,"yT1":0,"xT2":1058.1,"yT2":0,"toosoon":0,"cond_shown":"randomdotsizeEA","ratio_trial":500,"smaller_num":"9","larger_num":"18","correct_side":2,"subjID":"TomasJimenez34","gender":"0","age":"11","school":"6"},{"start_time":1551900409350,"click_time":1551900410547,"finger_time":1551900410046,"fix_duration":1003.3590371983424,"trial":13,"RT":696,"MT":501,"sideResp":1,"stimulus":"img/250/equaldotsize/L/3_Ratio_250_L_8_R_2.png","xmouse":[803,803,803,803,803,803,803,803,803,803,803,803,803,803,803,803,803,803,803,803,803,803,803,803,803,803,803,803,803,803,803,803,796,783,726,638,612,594,574,556,536,524,518,507,504,500,498,497,494,491,484,481,480,476,474,473,473,473,471,468],"ymouse":[624,624,624,624,624,624,624,624,624,624,624,624,624,624,624,624,624,624,624,624,624,624,624,624,624,624,624,624,624,624,624,624,614,599,538,454,425,403,377,352,319,292,280,246,231,201,187,176,166,159,144,138,134,126,122,118,116,112,104,86],"timestamp_mouse":[15,37,56,76,96,117,137,155,176,195,216,237,256,276,296,316,336,356,377,396,415,437,457,475,497,516,536,556,577,596,617,635,655,677,696,715,736,756,776,796,815,836,856,877,896,916,936,955,975,995,1015,1035,1056,1075,1096,1117,1136,1155,1175,1197],"xSR":741.5,"ySR":573.95,"xT1":424.9,"yT1":0,"xT2":1058.1,"yT2":0,"toosoon":0,"cond_shown":"equaldotsize","ratio_trial":250,"smaller_num":"2","larger_num":"8","correct_side":1,"subjID":"TomasJimenez34","gender":"0","age":"11","school":"6"},{"start_time":1551900412223,"click_time":1551900413406,"finger_time":1551900412866,"fix_duration":894.8716293307625,"trial":14,"RT":643,"MT":540,"sideResp":2,"stimulus":"img/500/randomdotsizeEA/R/2_Ratio_500_L_3_R_6.png","xmouse":[792,792,792,792,792,792,792,790,788,786,782,780,780,780,780,780,780,780,780,780,780,780,780,780,780,780,780,779,779,783,788,795,821,838,851,856,867,887,899,904,919,932,956,963,971,976,979,982,985,992,1009,1024,1044,1049,1054,1057,1058,1063,1068,1073],"ymouse":[649,649,649,649,649,649,649,649,649,649,649,649,649,649,649,649,649,649,649,649,649,649,649,649,649,649,649,649,647,640,631,617,562,515,468,434,406,359,332,324,297,278,244,232,221,215,211,206,200,191,172,157,129,119,110,106,105,102,101,97],"timestamp_mouse":[11,23,44,64,84,104,124,143,162,183,203,223,243,264,283,303,324,344,363,383,403,423,443,463,482,503,524,542,563,582,602,623,643,663,682,703,724,742,764,783,802,823,844,862,883,903,924,943,963,983,1004,1022,1044,1063,1082,1103,1122,1142,1162,1182],"xSR":741.5,"ySR":573.95,"xT1":424.9,"yT1":0,"xT2":1058.1,"yT2":0,"toosoon":0,"cond_shown":"randomdotsizeEA","ratio_trial":500,"smaller_num":"3","larger_num":"6","correct_side":2,"subjID":"TomasJimenez34","gender":"0","age":"11","school":"6"},{"start_time":1551900415133,"click_time":1551900415867,"finger_time":1551900415706,"fix_duration":605.9557792715412,"trial":15,"RT":573,"MT":161,"sideResp":1,"stimulus":"img/250/equaldotanddens/L/5_Ratio_250_L_24_R_6.png","xmouse":[814,814,814,814,814,814,814,814,814,814,814,814,814,814,814,814,814,814,814,814,814,814,814,814,814,814,814,813,783,734,683,593,559,526,503,475,455],"ymouse":[605,605,605,605,605,605,605,605,605,605,605,605,605,605,605,605,605,605,605,605,605,605,605,605,605,605,605,604,563,497,433,326,285,243,201,145,84],"timestamp_mouse":[13,33,53,73,94,112,133,154,172,194,214,234,254,272,293,313,333,354,372,393,413,432,452,474,492,513,533,552,573,593,612,632,653,672,693,713,734],"xSR":741.5,"ySR":573.95,"xT1":424.9,"yT1":0,"xT2":1058.1,"yT2":0,"toosoon":0,"cond_shown":"equaldotanddens","ratio_trial":250,"smaller_num":"6","larger_num":"24","correct_side":1,"subjID":"TomasJimenez34","gender":"0","age":"11","school":"6"},{"start_time":1551900417621,"click_time":1551900419006,"finger_time":1551900418266,"fix_duration":655.0418548950789,"trial":16,"RT":645,"MT":740,"sideResp":2,"stimulus":"img/500/equaldotsize/R/6_Ratio_500_L_9_R_18.png","xmouse":[764,764,764,764,764,764,764,764,764,764,764,764,764,764,764,764,764,764,764,764,764,764,764,764,764,764,764,764,767,779,793,811,849,868,880,892,914,927,938,951,960,968,995,1011,1023,1033,1040,1049,1051,1054,1057,1058,1063,1066,1068,1070,1072,1077,1079,1079,1079,1080,1082,1083,1083,1085,1086,1088,1089,1090],"ymouse":[658,658,658,658,658,658,658,658,658,658,658,658,658,658,658,658,658,658,658,658,658,658,658,658,658,658,658,658,653,643,633,620,594,578,566,550,521,506,495,480,467,454,417,394,372,355,341,321,316,310,304,298,282,272,262,249,237,214,202,191,181,169,154,146,138,130,120,108,103,98],"timestamp_mouse":[10,26,44,65,84,106,125,144,164,184,205,224,244,265,285,306,326,346,366,384,405,424,446,465,485,504,525,544,565,584,606,625,645,664,684,705,726,744,765,784,804,825,845,864,885,905,924,944,965,985,1006,1025,1045,1064,1086,1105,1125,1144,1165,1185,1206,1225,1244,1264,1286,1305,1324,1345,1364,1384],"xSR":741.5,"ySR":573.95,"xT1":424.9,"yT1":0,"xT2":1058.1,"yT2":0,"toosoon":0,"cond_shown":"equaldotsize","ratio_trial":500,"smaller_num":"9","larger_num":"18","correct_side":2,"subjID":"TomasJimenez34","gender":"0","age":"11","school":"6"},{"start_time":1551900420328,"click_time":1551900421586,"finger_time":1551900421065,"fix_duration":320.2175335222931,"trial":17,"RT":737,"MT":521,"sideResp":1,"stimulus":"img/900/randomdotsizeEA/L/1_Ratio_900_L_10_R_9.png","xmouse":[801,801,801,801,801,801,801,801,801,801,801,801,801,801,801,801,801,801,801,801,801,801,801,801,801,801,801,801,801,801,801,801,801,801,801,784,728,697,671,654,646,634,631,625,621,620,616,613,610,606,600,593,591,589,584,579,568,562,555,550,542,530,524],"ymouse":[629,629,629,629,629,629,629,629,629,629,629,629,629,629,629,629,629,629,629,629,629,629,629,629,629,629,629,629,629,629,629,629,629,629,623,603,535,493,453,425,409,384,374,355,345,339,319,306,295,283,271,260,256,251,241,233,213,202,188,173,153,109,88],"timestamp_mouse":[18,38,58,78,99,117,137,158,178,198,218,239,258,279,297,317,339,359,377,397,419,438,458,479,498,518,537,558,578,597,619,637,657,678,697,718,737,757,777,797,819,838,858,877,899,918,937,958,979,998,1017,1037,1059,1078,1098,1118,1138,1158,1178,1198,1218,1237,1258],"xSR":741.5,"ySR":573.95,"xT1":424.9,"yT1":0,"xT2":1058.1,"yT2":0,"toosoon":0,"cond_shown":"randomdotsizeEA","ratio_trial":900,"smaller_num":"9","larger_num":"10","correct_side":1,"subjID":"TomasJimenez34","gender":"0","age":"11","school":"6"},{"start_time":1551900422813,"click_time":1551900423747,"finger_time":1551900423366,"fix_duration":345.193932426914,"trial":18,"RT":553,"MT":381,"sideResp":2,"stimulus":"img/250/equaldotsize/R/9_Ratio_250_L_3_R_12.png","xmouse":[833,833,833,833,833,833,833,833,833,833,833,833,833,833,833,833,833,833,833,833,833,833,833,833,833,832,836,883,911,942,976,1015,1066,1087,1105,1117,1123,1139,1145,1149,1151,1152,1152,1152,1152,1152,1151],"ymouse":[597,597,597,597,597,597,597,597,597,597,597,597,597,597,597,597,597,597,597,597,597,597,597,597,597,595,586,517,481,446,406,357,289,255,227,206,191,154,136,121,110,108,108,108,106,102,97],"timestamp_mouse":[17,34,54,74,94,113,133,153,173,193,214,233,252,272,293,314,333,353,373,393,413,433,453,473,494,512,534,553,573,593,614,633,654,673,694,713,732,752,773,793,813,834,854,872,893,913,934],"xSR":741.5,"ySR":573.95,"xT1":424.9,"yT1":0,"xT2":1058.1,"yT2":0,"toosoon":0,"cond_shown":"equaldotsize","ratio_trial":250,"smaller_num":"3","larger_num":"12","correct_side":2,"subjID":"TomasJimenez34","gender":"0","age":"11","school":"6"},{"start_time":1551900425357,"click_time":1551900426307,"finger_time":1551900425905,"fix_duration":408.7066568169746,"trial":19,"RT":548,"MT":402,"sideResp":1,"stimulus":"img/250/equaldotsize/L/7_Ratio_250_L_8_R_2.png","xmouse":[786,786,786,786,786,786,786,786,786,786,786,786,786,786,786,786,786,786,786,786,786,786,786,786,786,780,768,753,731,698,641,627,622,618,615,595,586,583,580,578,565,556,548,543,537,529,525,519],"ymouse":[614,614,614,614,614,614,614,614,614,614,614,614,614,614,614,614,614,614,614,614,614,614,614,614,614,613,593,567,525,464,357,305,267,221,194,147,131,123,117,112,96,86,76,70,64,58,56,52],"timestamp_mouse":[10,37,50,69,88,109,128,149,169,189,209,229,248,270,289,310,328,350,368,389,409,428,448,470,489,509,528,548,569,589,608,630,649,670,690,709,728,750,769,789,808,829,849,869,889,909,929,949],"xSR":741.5,"ySR":573.95,"xT1":424.9,"yT1":0,"xT2":1058.1,"yT2":0,"toosoon":0,"cond_shown":"equaldotsize","ratio_trial":250,"smaller_num":"2","larger_num":"8","correct_side":1,"subjID":"TomasJimenez34","gender":"0","age":"11","school":"6"},{"start_time":1551900428336,"click_time":1551900429446,"finger_time":1551900429186,"fix_duration":889.9558620494261,"trial":20,"RT":850,"MT":260,"sideResp":1,"stimulus":"img/750/randomdotsizeEA/L/13_Ratio_750_L_8_R_6.png","xmouse":[789,789,789,789,789,789,789,789,789,789,789,789,789,789,789,789,789,789,789,789,789,789,789,789,789,789,789,789,789,789,789,789,789,789,789,789,789,789,789,789,787,775,759,740,703,681,646,627,609,595,584,567,555,544,528,521],"ymouse":[602,602,602,602,602,602,602,602,602,602,602,602,602,602,602,602,602,602,602,602,602,602,602,602,602,602,602,602,602,602,602,602,602,602,602,602,602,602,602,602,596,576,550,517,461,421,338,294,249,219,197,165,148,132,105,92],"timestamp_mouse":[11,37,49,71,91,111,131,151,171,190,211,230,251,282,291,310,331,350,369,391,410,431,450,469,491,510,530,550,570,591,610,630,651,670,690,711,731,750,769,790,810,829,850,870,890,911,930,949,969,989,1010,1030,1050,1070,1089,1109],"xSR":741.5,"ySR":573.95,"xT1":424.9,"yT1":0,"xT2":1058.1,"yT2":0,"toosoon":0,"cond_shown":"randomdotsizeEA","ratio_trial":750,"smaller_num":"6","larger_num":"8","correct_side":1,"subjID":"TomasJimenez34","gender":"0","age":"11","school":"6"},{"start_time":1551900430840,"click_time":1551900432067,"finger_time":1551900431806,"fix_duration":333.07873677491426,"trial":21,"RT":966,"MT":261,"sideResp":2,"stimulus":"img/250/randomdotsizeEA/R/4_Ratio_250_L_3_R_12.png","xmouse":[777,777,777,777,777,777,777,777,777,777,777,777,777,777,777,777,777,777,777,777,777,777,777,777,777,777,777,777,777,777,777,777,777,777,777,777,777,777,776,775,770,770,770,770,770,772,800,823,856,915,955,1024,1047,1066,1078,1085,1091,1092,1095,1100,1108,1109],"ymouse":[653,653,653,653,653,653,653,653,653,653,653,653,653,653,653,653,653,653,653,653,653,653,653,653,653,653,653,653,653,653,653,653,653,653,653,653,653,653,650,649,643,639,638,636,634,630,606,588,560,504,456,364,327,292,266,244,205,187,174,157,127,97],"timestamp_mouse":[9,37,46,67,86,105,126,147,166,186,206,227,246,265,285,305,327,345,367,385,407,427,445,466,486,507,525,547,565,587,607,626,645,667,685,706,725,745,765,787,806,826,845,867,886,906,925,945,966,987,1006,1026,1046,1066,1086,1106,1125,1147,1165,1187,1206,1226],"xSR":741.5,"ySR":573.95,"xT1":424.9,"yT1":0,"xT2":1058.1,"yT2":0,"toosoon":0,"cond_shown":"randomdotsizeEA","ratio_trial":250,"smaller_num":"3","larger_num":"12","correct_side":2,"subjID":"TomasJimenez34","gender":"0","age":"11","school":"6"},{"start_time":1551900433596,"click_time":1551900434446,"finger_time":1551900434267,"fix_duration":309.77172640342087,"trial":22,"RT":671,"MT":179,"sideResp":1,"stimulus":"img/750/equaldotanddens/L/1_Ratio_750_L_20_R_15.png","xmouse":[798,798,798,798,798,798,798,798,798,798,798,798,798,798,798,798,798,798,798,798,798,798,798,798,798,798,798,798,798,798,792,786,759,697,655,625,597,567,491,464,449,438,430],"ymouse":[645,645,645,645,645,645,645,645,645,645,645,645,645,645,645,645,645,645,645,645,645,645,645,645,645,645,645,645,645,645,642,639,619,564,522,483,444,393,277,231,196,153,99],"timestamp_mouse":[13,38,50,70,90,109,130,151,170,191,211,230,251,271,290,310,329,350,370,390,410,430,449,469,490,511,529,549,571,590,609,630,650,671,689,710,730,750,770,789,809,831,850],"xSR":741.5,"ySR":573.95,"xT1":424.9,"yT1":0,"xT2":1058.1,"yT2":0,"toosoon":0,"cond_shown":"equaldotanddens","ratio_trial":750,"smaller_num":"15","larger_num":"20","correct_side":1,"subjID":"TomasJimenez34","gender":"0","age":"11","school":"6"},{"start_time":1551900436043,"click_time":1551900437106,"finger_time":1551900436786,"fix_duration":634.7425060724022,"trial":23,"RT":743,"MT":320,"sideResp":2,"stimulus":"img/750/equaldotsize/R/12_Ratio_750_L_3_R_4.png","xmouse":[763,763,763,763,763,763,763,763,763,763,763,763,763,763,763,763,763,763,763,763,763,763,763,763,763,763,763,763,763,764,766,770,776,780,787,799,830,858,913,930,966,1014,1036,1057,1072,1079,1085,1090,1092,1095,1096,1096,1096,1096],"ymouse":[621,621,621,621,621,621,621,621,621,621,621,621,621,621,621,621,621,621,621,621,621,621,621,621,621,621,621,621,621,621,621,621,619,617,614,609,593,579,543,530,492,430,391,347,305,275,217,194,177,157,144,123,109,94],"timestamp_mouse":[8,36,42,63,84,102,122,144,162,183,203,224,243,263,282,302,323,344,363,383,403,423,442,463,482,502,524,542,563,584,602,624,642,663,682,703,723,743,763,783,802,822,842,864,883,903,923,943,963,982,1002,1024,1042,1063],"xSR":741.5,"ySR":573.95,"xT1":424.9,"yT1":0,"xT2":1058.1,"yT2":0,"toosoon":0,"cond_shown":"equaldotsize","ratio_trial":750,"smaller_num":"3","larger_num":"4","correct_side":2,"subjID":"TomasJimenez34","gender":"0","age":"11","school":"6"},{"start_time":1551900438830,"click_time":1551900439787,"finger_time":1551900439467,"fix_duration":782.4212664350783,"trial":24,"RT":637,"MT":320,"sideResp":1,"stimulus":"img/750/equaldotsize/L/6_Ratio_750_L_24_R_18.png","xmouse":[798,798,798,798,798,798,798,798,798,798,798,798,798,798,798,798,798,798,798,798,798,798,798,798,798,798,797,797,794,790,777,770,761,747,730,694,681,662,647,631,605,593,582,569,553,527,518],"ymouse":[596,596,596,596,596,596,596,596,596,596,596,596,596,596,596,596,596,596,596,596,596,596,596,596,596,596,594,592,586,577,549,535,515,490,459,395,368,328,302,276,231,208,191,170,147,111,99],"timestamp_mouse":[37,56,77,95,117,135,155,176,196,215,235,256,275,297,316,336,356,375,396,416,435,456,477,496,515,536,556,575,596,616,637,656,675,695,716,736,756,775,796,816,837,855,875,896,916,935,957],"xSR":741.5,"ySR":573.95,"xT1":424.9,"yT1":0,"xT2":1058.1,"yT2":0,"toosoon":0,"cond_shown":"equaldotsize","ratio_trial":750,"smaller_num":"18","larger_num":"24","correct_side":1,"subjID":"TomasJimenez34","gender":"0","age":"11","school":"6"},{"start_time":1551900441037,"click_time":1551900442104,"finger_time":1551900441765,"fix_duration":250,"trial":25,"RT":728,"MT":339,"sideResp":2,"stimulus":"img/900/randomdotsizeEA/L/8_Ratio_900_L_20_R_18.png","xmouse":[818,818,818,818,818,818,818,818,818,816,816,816,816,816,816,816,816,816,816,816,816,816,816,816,816,816,816,816,816,816,816,819,820,822,825,832,859,874,910,924,958,1003,1020,1037,1051,1063,1074,1074,1074,1074,1074,1074,1074,1074],"ymouse":[624,624,624,624,624,624,624,624,624,624,624,624,624,624,624,624,624,624,624,624,624,623,619,615,613,611,610,610,610,610,609,602,599,594,588,576,539,515,460,439,378,299,267,240,215,189,151,135,124,118,112,104,101,97],"timestamp_mouse":[10,40,48,68,87,107,128,148,168,188,208,228,248,267,289,308,327,347,368,389,408,428,447,468,488,508,527,549,569,589,608,629,648,667,687,709,728,747,768,789,808,829,847,867,888,907,927,948,968,988,1007,1028,1047,1067],"xSR":741.5,"ySR":573.95,"xT1":424.9,"yT1":0,"xT2":1058.1,"yT2":0,"toosoon":0,"cond_shown":"randomdotsizeEA","ratio_trial":900,"smaller_num":"18","larger_num":"20","correct_side":1,"subjID":"TomasJimenez34","gender":"0","age":"11","school":"6"},{"start_time":1551900444779,"click_time":1551900446084,"finger_time":1551900445464,"fix_duration":392.3153826160221,"trial":26,"RT":685,"MT":620,"sideResp":1,"stimulus":"img/900/equaldotsize/L/8_Ratio_900_L_20_R_18.png","xmouse":[800,800,800,800,800,800,800,800,800,800,800,800,800,800,800,800,800,800,800,800,800,800,800,800,800,800,800,800,800,800,800,800,796,786,738,707,681,669,657,636,626,618,608,583,561,534,519,503,478,470,463,456,453,452,452,452,452,452,452,452,452,452,452,452,454,457],"ymouse":[614,614,614,614,614,614,614,614,614,614,614,614,614,614,614,614,614,614,614,614,614,614,614,614,614,614,614,614,614,614,614,614,614,613,582,546,517,501,481,443,427,415,400,359,322,281,255,227,173,155,138,122,111,107,107,107,107,107,107,107,107,107,107,107,100,93],"timestamp_mouse":[9,35,47,66,86,107,126,145,167,187,206,225,247,265,287,306,327,346,365,387,407,425,447,466,486,506,526,546,565,586,606,626,647,666,685,706,727,746,766,785,807,826,845,867,885,906,927,946,967,986,1005,1026,1046,1067,1087,1107,1125,1147,1167,1186,1207,1226,1246,1266,1286,1305],"xSR":741.5,"ySR":573.95,"xT1":424.9,"yT1":0,"xT2":1058.1,"yT2":0,"toosoon":0,"cond_shown":"equaldotsize","ratio_trial":900,"smaller_num":"18","larger_num":"20","correct_side":1,"subjID":"TomasJimenez34","gender":"0","age":"11","school":"6"},{"start_time":1551900447294,"click_time":1551900448545,"finger_time":1551900448045,"fix_duration":346.58981441667936,"trial":27,"RT":751,"MT":500,"sideResp":1,"stimulus":"img/500/equaldotanddens/L/7_Ratio_500_L_10_R_5.png","xmouse":[777,777,777,777,777,777,777,777,777,777,777,777,777,777,777,777,777,777,777,777,777,777,777,777,777,777,777,777,777,777,777,777,777,777,777,773,771,765,747,737,725,713,699,677,665,654,629,608,577,563,551,538,525,496,489,487,485,483,482,481,479,479,479],"ymouse":[606,606,606,606,606,606,606,606,606,606,606,606,606,606,606,606,606,606,606,606,606,606,606,606,606,606,606,606,606,606,606,606,606,606,603,591,585,571,540,523,502,480,457,412,394,375,341,311,260,236,215,194,173,136,126,121,116,110,107,103,102,101,99],"timestamp_mouse":[12,32,51,71,92,110,132,151,170,192,211,231,252,270,291,311,331,351,372,391,411,431,451,472,491,512,530,551,572,590,611,631,650,671,692,710,732,751,771,790,811,831,852,870,891,911,932,951,972,990,1010,1030,1051,1070,1090,1110,1131,1151,1171,1191,1211,1231,1251],"xSR":741.5,"ySR":573.95,"xT1":424.9,"yT1":0,"xT2":1058.1,"yT2":0,"toosoon":0,"cond_shown":"equaldotanddens","ratio_trial":500,"smaller_num":"5","larger_num":"10","correct_side":1,"subjID":"TomasJimenez34","gender":"0","age":"11","school":"6"},{"start_time":1551900449816,"click_time":1551900451126,"finger_time":1551900450745,"fix_duration":250,"trial":28,"RT":929,"MT":381,"sideResp":1,"stimulus":"img/500/equaldotanddens/L/10_Ratio_500_L_4_R_2.png","xmouse":[804,804,804,804,804,804,804,804,804,804,804,804,804,804,804,804,804,804,804,804,804,804,804,804,804,804,804,804,804,804,804,804,804,804,804,804,804,804,804,804,804,804,804,804,803,799,790,772,764,755,741,733,719,710,703,694,671,661,649,634,610,591,557,539,523,512],"ymouse":[592,592,592,592,592,592,592,592,592,592,592,592,592,592,592,592,592,592,592,592,592,592,592,592,592,592,592,592,592,592,592,592,592,592,592,592,592,592,592,592,592,592,592,592,589,578,558,524,507,487,453,437,406,391,374,354,316,301,289,271,237,209,147,119,100,89],"timestamp_mouse":[9,34,48,69,89,109,129,150,170,189,208,229,249,268,288,309,330,348,369,389,409,430,450,468,488,509,528,550,568,590,608,628,649,668,690,708,729,749,770,789,809,829,849,870,889,910,929,949,969,989,1009,1028,1048,1068,1089,1110,1130,1149,1168,1188,1208,1229,1249,1269,1288,1309],"xSR":741.5,"ySR":573.95,"xT1":424.9,"yT1":0,"xT2":1058.1,"yT2":0,"toosoon":0,"cond_shown":"equaldotanddens","ratio_trial":500,"smaller_num":"2","larger_num":"4","correct_side":1,"subjID":"TomasJimenez34","gender":"0","age":"11","school":"6"},{"start_time":1551900452830,"click_time":1551900454105,"finger_time":1551900453546,"fix_duration":584.3599034173774,"trial":29,"RT":716,"MT":559,"sideResp":1,"stimulus":"img/250/randomdotsizeEA/L/14_Ratio_250_L_12_R_3.png","xmouse":[836,836,836,836,836,836,836,836,836,836,836,836,836,836,836,836,836,836,836,836,836,836,836,836,836,836,836,836,836,836,836,836,834,834,834,843,850,858,864,870,873,887,893,900,909,917,920,920,916,909,901,886,870,845,810,738,711,691,673,669,655,613,566,515],"ymouse":[637,637,637,637,637,637,637,637,637,637,637,637,637,637,637,637,637,637,637,637,637,637,637,637,637,637,637,637,637,637,637,637,625,613,601,571,555,539,525,512,501,469,454,436,415,398,377,372,367,364,361,357,353,349,344,322,310,299,285,282,262,200,143,89],"timestamp_mouse":[14,34,56,75,96,115,135,154,175,194,215,234,256,276,294,315,335,356,375,396,415,436,455,475,496,516,536,554,576,596,615,636,655,675,695,716,734,754,775,795,815,834,855,874,895,915,934,955,974,995,1014,1035,1054,1075,1095,1116,1135,1155,1174,1195,1215,1236,1255,1275],"xSR":741.5,"ySR":573.95,"xT1":424.9,"yT1":0,"xT2":1058.1,"yT2":0,"toosoon":0,"cond_shown":"randomdotsizeEA","ratio_trial":250,"smaller_num":"3","larger_num":"12","correct_side":1,"subjID":"TomasJimenez34","gender":"0","age":"11","school":"6"},{"start_time":1551900456377,"click_time":1551900457646,"finger_time":1551900457164,"fix_duration":1411.2776633617177,"trial":30,"RT":787,"MT":482,"sideResp":2,"stimulus":"img/900/randomdotsizeEA/R/5_Ratio_900_L_9_R_10.png","xmouse":[767,767,767,767,767,767,767,767,767,767,767,767,767,767,767,767,767,767,767,767,767,767,767,767,767,767,767,767,767,767,767,767,767,767,767,767,774,782,792,836,873,907,957,973,990,997,1002,1009,1014,1026,1031,1035,1037,1040,1045,1049,1052,1054,1054,1054,1054,1055,1057,1059],"ymouse":[626,626,626,626,626,626,626,626,626,626,626,626,626,626,626,626,626,626,626,626,626,626,626,626,626,626,626,626,626,626,626,626,626,626,626,626,620,608,594,542,490,419,310,252,190,168,152,137,125,103,97,90,87,83,78,74,72,70,70,70,70,69,68,67],"timestamp_mouse":[10,35,48,69,87,108,129,148,168,188,208,227,248,267,287,309,328,348,368,388,408,429,448,467,489,508,527,547,567,588,608,628,648,669,688,707,728,747,768,787,807,827,848,868,888,908,927,948,968,988,1007,1028,1049,1068,1088,1108,1127,1148,1168,1188,1208,1228,1248,1269],"xSR":741.5,"ySR":573.95,"xT1":424.9,"yT1":0,"xT2":1058.1,"yT2":0,"toosoon":0,"cond_shown":"randomdotsizeEA","ratio_trial":900,"smaller_num":"9","larger_num":"10","correct_side":2,"subjID":"TomasJimenez34","gender":"0","age":"11","school":"6"},{"start_time":1551900459036,"click_time":1551900459965,"finger_time":1551900459724,"fix_duration":470.5003671166522,"trial":31,"RT":688,"MT":241,"sideResp":2,"stimulus":"img/900/equaldotanddens/R/13_Ratio_900_L_18_R_20.png","xmouse":[759,759,759,759,759,759,759,759,759,759,759,759,759,759,759,759,759,759,759,759,759,759,759,759,759,759,759,759,759,759,759,759,763,775,792,811,857,892,907,948,976,1029,1043,1051,1055,1059,1071],"ymouse":[605,605,605,605,605,605,605,605,605,605,605,605,605,605,605,605,605,605,605,605,605,605,605,605,605,605,605,605,605,605,605,605,604,591,572,550,494,447,428,374,335,247,215,185,159,135,94],"timestamp_mouse":[8,42,49,69,89,110,129,149,170,190,208,229,249,268,289,309,328,350,370,389,409,428,450,470,489,509,528,548,569,589,610,630,649,668,688,710,729,749,769,788,808,829,848,869,889,909,929],"xSR":741.5,"ySR":573.95,"xT1":424.9,"yT1":0,"xT2":1058.1,"yT2":0,"toosoon":0,"cond_shown":"equaldotanddens","ratio_trial":900,"smaller_num":"18","larger_num":"20","correct_side":2,"subjID":"TomasJimenez34","gender":"0","age":"11","school":"6"},{"start_time":1551900467850,"click_time":1551900468865,"finger_time":1551900468544,"fix_duration":283.2646189331761,"trial":32,"RT":694,"MT":321,"sideResp":2,"stimulus":"img/900/randomdotsizeEA/L/4_Ratio_900_L_20_R_18.png","xmouse":[790,790,790,790,790,790,790,790,790,790,790,790,790,790,790,790,790,790,790,790,790,790,790,790,790,790,790,790,790,790,790,793,799,810,822,849,864,880,909,923,957,978,994,1009,1024,1053,1065,1077,1101,1111,1125],"ymouse":[627,627,627,627,627,627,627,627,627,627,627,627,627,627,627,627,627,627,627,627,627,627,627,627,627,627,627,627,627,627,627,623,610,590,572,532,509,485,446,424,373,342,316,292,268,217,195,175,143,125,99],"timestamp_mouse":[16,35,54,74,96,115,135,154,176,195,215,234,256,275,295,316,334,356,375,395,416,435,455,476,496,516,535,556,575,596,615,634,655,675,694,715,734,755,776,795,815,835,854,874,894,914,936,955,974,995,1015],"xSR":741.5,"ySR":573.95,"xT1":424.9,"yT1":0,"xT2":1058.1,"yT2":0,"toosoon":0,"cond_shown":"randomdotsizeEA","ratio_trial":900,"smaller_num":"18","larger_num":"20","correct_side":1,"subjID":"TomasJimenez34","gender":"0","age":"11","school":"6"},{"start_time":1551900470189,"click_time":1551900471185,"finger_time":1551900470824,"fix_duration":503.88715457138863,"trial":33,"RT":635,"MT":361,"sideResp":2,"stimulus":"img/750/equaldotanddens/R/2_Ratio_750_L_6_R_8.png","xmouse":[752,752,752,752,752,752,752,752,752,752,752,752,752,752,752,752,752,752,752,752,752,751,751,751,751,751,751,751,751,751,752,763,803,910,967,1019,1059,1086,1126,1149,1162,1167,1175,1176,1176,1175,1173,1171,1159,1149],"ymouse":[586,586,586,586,586,586,586,586,586,586,586,586,586,586,586,586,586,586,586,586,585,584,584,584,584,584,584,584,583,581,579,570,547,472,416,366,324,297,233,193,172,164,144,137,134,131,128,122,106,96],"timestamp_mouse":[17,38,55,76,96,116,136,156,177,197,215,236,255,276,295,316,337,357,375,397,416,436,455,476,497,515,536,555,575,597,616,635,656,675,696,716,736,756,775,797,815,835,855,876,896,917,936,955,975,996],"xSR":741.5,"ySR":573.95,"xT1":424.9,"yT1":0,"xT2":1058.1,"yT2":0,"toosoon":0,"cond_shown":"equaldotanddens","ratio_trial":750,"smaller_num":"6","larger_num":"8","correct_side":2,"subjID":"TomasJimenez34","gender":"0","age":"11","school":"6"},{"start_time":1551900489691,"click_time":1551900490725,"finger_time":1551900490384,"fix_duration":1444.4746209786013,"trial":34,"RT":693,"MT":341,"sideResp":1,"stimulus":"img/900/equaldotsize/L/10_Ratio_900_L_20_R_18.png","xmouse":[793,793,793,793,793,793,793,793,793,793,793,793,793,793,793,793,793,793,793,793,793,793,793,793,793,793,793,793,793,793,794,794,798,805,806,806,803,796,783,773,762,745,720,675,652,633,614,607,589,573,544,515],"ymouse":[637,637,637,637,637,637,637,637,637,637,637,637,637,637,637,637,637,637,637,637,637,637,637,637,637,637,637,637,637,637,630,626,612,577,559,541,517,502,478,465,450,430,402,335,300,270,242,229,197,166,118,70],"timestamp_mouse":[13,38,54,75,95,115,134,155,175,195,213,235,255,274,293,313,335,354,375,394,413,434,454,475,493,514,533,555,574,593,615,634,653,674,693,713,734,754,773,794,813,834,855,874,894,913,934,953,973,993,1013,1034],"xSR":741.5,"ySR":573.95,"xT1":424.9,"yT1":0,"xT2":1058.1,"yT2":0,"toosoon":0,"cond_shown":"equaldotsize","ratio_trial":900,"smaller_num":"18","larger_num":"20","correct_side":1,"subjID":"TomasJimenez34","gender":"0","age":"11","school":"6"},{"start_time":1551900492981,"click_time":1551900494026,"finger_time":1551900493605,"fix_duration":975.830264710709,"trial":35,"RT":624,"MT":421,"sideResp":2,"stimulus":"img/900/equaldotanddens/L/1_Ratio_900_L_10_R_9.png","xmouse":[770,770,770,770,770,770,770,770,770,770,770,770,770,770,770,770,770,770,770,770,770,770,770,770,770,770,770,770,771,781,798,835,857,872,889,895,902,910,917,939,950,961,973,997,1024,1036,1049,1059,1075,1082,1093,1096,1104],"ymouse":[595,595,595,595,595,595,595,595,595,595,595,595,595,595,595,595,595,595,595,595,595,595,595,595,595,595,595,595,595,593,579,546,518,494,456,442,426,409,390,350,332,312,294,261,223,207,192,177,153,140,118,111,89],"timestamp_mouse":[9,30,43,64,84,104,123,144,163,185,205,225,245,265,285,304,324,344,365,385,404,425,444,465,484,505,525,544,565,584,604,624,644,663,683,704,723,745,764,783,804,824,844,864,884,904,924,944,965,984,1004,1023,1045],"xSR":741.5,"ySR":573.95,"xT1":424.9,"yT1":0,"xT2":1058.1,"yT2":0,"toosoon":0,"cond_shown":"equaldotanddens","ratio_trial":900,"smaller_num":"9","larger_num":"10","correct_side":1,"subjID":"TomasJimenez34","gender":"0","age":"11","school":"6"},{"start_time":1551900496090,"click_time":1551900497185,"finger_time":1551900496765,"fix_duration":1183.6963179765223,"trial":36,"RT":675,"MT":420,"sideResp":2,"stimulus":"img/750/equaldotanddens/R/3_Ratio_750_L_15_R_20.png","xmouse":[763,763,763,763,763,763,763,763,763,763,763,763,763,763,763,763,763,763,763,763,763,763,763,763,763,763,763,763,763,763,763,768,777,813,835,859,894,919,967,990,1007,1021,1029,1035,1038,1039,1040,1042,1047,1050,1053,1055,1056,1058,1060],"ymouse":[615,615,615,615,615,615,615,615,615,615,615,615,615,615,615,615,615,615,615,615,615,615,615,615,615,615,615,615,615,615,615,609,599,558,532,496,437,383,267,219,178,146,126,107,102,97,94,90,85,82,79,77,75,73,72],"timestamp_mouse":[16,39,56,74,95,116,136,155,175,196,216,235,256,275,295,314,335,356,375,396,416,435,456,476,495,515,535,556,576,596,615,634,655,675,695,715,735,756,775,794,816,834,855,874,895,915,935,955,974,994,1015,1035,1055,1075,1095],"xSR":741.5,"ySR":573.95,"xT1":424.9,"yT1":0,"xT2":1058.1,"yT2":0,"toosoon":0,"cond_shown":"equaldotanddens","ratio_trial":750,"smaller_num":"15","larger_num":"20","correct_side":2,"subjID":"TomasJimenez34","gender":"0","age":"11","school":"6"},{"start_time":1551900500750,"click_time":1551900501565,"finger_time":1551900501425,"fix_duration":1002.9596953441066,"trial":37,"RT":675,"MT":140,"sideResp":1,"stimulus":"img/500/equaldotanddens/L/4_Ratio_500_L_18_R_9.png","xmouse":[795,795,795,795,795,795,795,795,795,795,795,795,795,795,795,795,795,795,795,795,795,795,795,795,795,795,795,795,795,795,789,772,750,718,684,594,554,531,515,498,486],"ymouse":[626,626,626,626,626,626,626,626,626,626,626,626,626,626,626,626,626,626,626,626,626,626,626,626,626,626,626,626,626,626,625,609,590,543,480,330,260,214,167,112,93],"timestamp_mouse":[33,35,56,74,94,116,135,155,175,195,215,236,256,275,296,316,335,357,377,395,415,435,456,476,495,517,535,555,577,595,615,636,655,675,695,716,736,755,775,797,815],"xSR":741.5,"ySR":573.95,"xT1":424.9,"yT1":0,"xT2":1058.1,"yT2":0,"toosoon":0,"cond_shown":"equaldotanddens","ratio_trial":500,"smaller_num":"9","larger_num":"18","correct_side":1,"subjID":"TomasJimenez34","gender":"0","age":"11","school":"6"},{"start_time":1551900503679,"click_time":1551900504786,"finger_time":1551900504325,"fix_duration":1231.5752939554973,"trial":38,"RT":646,"MT":461,"sideResp":2,"stimulus":"img/500/equaldotanddens/R/6_Ratio_500_L_9_R_18.png","xmouse":[771,771,771,771,771,771,771,771,771,771,771,771,771,771,771,771,771,771,771,771,771,771,771,771,771,771,771,771,771,778,795,811,833,853,891,908,923,939,957,980,995,1012,1026,1036,1048,1050,1053,1054,1057,1067,1072,1077,1083,1090,1102,1107],"ymouse":[617,617,617,617,617,617,617,617,617,617,617,617,617,617,617,617,617,617,617,617,617,617,617,617,617,617,617,617,617,617,604,590,570,552,512,492,474,457,432,390,354,313,281,259,231,223,214,210,204,189,177,166,152,138,109,95],"timestamp_mouse":[9,32,46,67,88,106,127,147,168,187,208,226,248,267,286,306,327,347,366,388,406,426,448,467,487,507,528,547,567,586,606,628,646,666,686,706,726,747,767,788,806,826,847,867,886,906,926,946,967,987,1007,1027,1047,1066,1086,1106],"xSR":741.5,"ySR":573.95,"xT1":424.9,"yT1":0,"xT2":1058.1,"yT2":0,"toosoon":0,"cond_shown":"equaldotanddens","ratio_trial":500,"smaller_num":"9","larger_num":"18","correct_side":2,"subjID":"TomasJimenez34","gender":"0","age":"11","school":"6"},{"start_time":1551900506268,"click_time":1551900507306,"finger_time":1551900507065,"fix_duration":640.3802775200229,"trial":39,"RT":797,"MT":241,"sideResp":1,"stimulus":"img/750/equaldotsize/L/10_Ratio_750_L_4_R_3.png","xmouse":[812,812,812,812,812,812,812,812,812,812,812,812,812,812,812,812,812,812,812,812,812,812,812,812,812,812,812,812,812,812,812,812,812,812,812,812,811,810,802,769,754,740,727,712,684,672,657,634,616,532,490,459],"ymouse":[616,616,616,616,616,616,616,616,616,616,616,616,616,616,616,616,616,616,616,616,616,616,616,616,616,616,616,616,616,616,616,616,616,616,616,616,616,616,604,557,535,514,496,475,432,410,384,344,308,164,104,60],"timestamp_mouse":[36,37,59,78,98,119,138,158,179,197,218,239,258,277,299,318,337,357,379,397,418,437,457,478,499,517,537,558,579,597,618,637,658,679,698,717,738,758,778,797,817,837,858,877,897,917,937,957,978,998,1017,1037],"xSR":741.5,"ySR":573.95,"xT1":424.9,"yT1":0,"xT2":1058.1,"yT2":0,"toosoon":0,"cond_shown":"equaldotsize","ratio_trial":750,"smaller_num":"3","larger_num":"4","correct_side":1,"subjID":"TomasJimenez34","gender":"0","age":"11","school":"6"},{"start_time":1551900508317,"click_time":1551900509446,"finger_time":1551900509065,"fix_duration":250,"trial":40,"RT":748,"MT":381,"sideResp":2,"stimulus":"img/500/equaldotsize/R/2_Ratio_500_L_3_R_6.png","xmouse":[787,787,787,787,787,787,787,787,787,787,787,787,787,787,787,787,787,787,787,787,787,787,787,787,787,787,787,787,787,787,787,787,787,789,792,810,831,909,955,1001,1048,1084,1133,1146,1154,1157,1158,1159,1159,1159,1159,1156,1153,1151,1148,1145,1141],"ymouse":[609,609,609,609,609,609,609,609,609,609,609,609,609,609,609,609,609,609,609,609,609,609,609,609,609,609,609,609,609,609,609,609,609,610,610,608,591,523,480,431,365,316,231,202,180,161,154,147,141,136,129,123,113,110,105,100,90],"timestamp_mouse":[9,29,49,69,89,108,130,149,168,189,210,229,249,268,290,308,328,350,368,390,409,429,448,470,490,509,529,550,569,590,609,629,648,669,689,709,729,748,768,788,809,829,848,869,889,909,928,948,968,989,1008,1029,1048,1069,1089,1108,1128],"xSR":741.5,"ySR":573.95,"xT1":424.9,"yT1":0,"xT2":1058.1,"yT2":0,"toosoon":0,"cond_shown":"equaldotsize","ratio_trial":500,"smaller_num":"3","larger_num":"6","correct_side":2,"subjID":"TomasJimenez34","gender":"0","age":"11","school":"6"},{"start_time":1551900511447,"click_time":1551900512446,"finger_time":1551900512026,"fix_duration":840.1089520559079,"trial":41,"RT":579,"MT":420,"sideResp":2,"stimulus":"img/500/equaldotsize/R/6_Ratio_500_L_9_R_18.png","xmouse":[822,822,822,822,822,822,822,822,822,822,822,822,822,822,822,822,822,822,822,822,822,822,822,822,822,822,832,841,864,884,933,946,957,965,976,997,1003,1012,1019,1031,1043,1046,1049,1052,1056,1058,1058,1058,1058,1059],"ymouse":[605,605,605,605,605,605,605,605,605,605,605,605,605,605,605,605,605,605,605,605,605,605,605,605,605,605,591,581,548,514,427,368,308,256,217,165,146,127,116,100,87,83,80,77,74,72,72,72,72,70],"timestamp_mouse":[34,40,58,79,98,119,138,158,178,198,219,239,259,278,299,319,338,358,378,399,418,440,458,478,498,518,539,558,579,598,618,638,658,679,699,719,739,759,778,798,818,838,859,878,898,919,939,959,978,998],"xSR":741.5,"ySR":573.95,"xT1":424.9,"yT1":0,"xT2":1058.1,"yT2":0,"toosoon":0,"cond_shown":"equaldotsize","ratio_trial":500,"smaller_num":"9","larger_num":"18","correct_side":2,"subjID":"TomasJimenez34","gender":"0","age":"11","school":"6"},{"start_time":1551900515237,"click_time":1551900516265,"finger_time":1551900515825,"fix_duration":250,"trial":42,"RT":588,"MT":440,"sideResp":2,"stimulus":"img/250/equaldotanddens/R/12_Ratio_250_L_5_R_20.png","xmouse":[802,802,802,802,802,802,802,802,802,802,802,802,802,802,802,802,802,802,802,802,802,802,802,802,802,802,804,818,826,871,916,1030,1100,1169,1223,1257,1267,1267,1267,1267,1267,1264,1260,1256,1253,1251,1244,1232,1216,1190,1166,1130],"ymouse":[629,629,629,629,629,629,629,629,629,629,629,629,629,629,629,629,629,629,629,629,629,629,629,629,629,629,628,599,586,527,476,356,280,202,140,100,72,69,65,60,54,40,36,34,33,33,33,33,36,44,51,56],"timestamp_mouse":[10,41,49,68,89,110,129,148,169,189,209,230,249,269,289,309,329,349,370,390,409,430,448,468,489,510,528,549,569,588,608,628,648,668,688,708,728,748,769,788,808,828,848,868,888,908,929,948,968,988,1008,1028],"xSR":741.5,"ySR":573.95,"xT1":424.9,"yT1":0,"xT2":1058.1,"yT2":0,"toosoon":0,"cond_shown":"equaldotanddens","ratio_trial":250,"smaller_num":"5","larger_num":"20","correct_side":2,"subjID":"TomasJimenez34","gender":"0","age":"11","school":"6"},{"start_time":1551900518272,"click_time":1551900519465,"finger_time":1551900518846,"fix_duration":925.3427000032107,"trial":43,"RT":574,"MT":619,"sideResp":1,"stimulus":"img/900/randomdotsizeEA/R/15_Ratio_900_L_9_R_10.png","xmouse":[810,810,810,810,810,810,810,810,810,810,810,810,810,810,810,810,810,810,810,810,810,810,810,809,803,798,791,782,772,753,748,744,740,735,723,713,693,673,642,569,550,539,528,520,511,510,508,501,496,486,481,476,469,461,453,453,452,451,450,450],"ymouse":[636,636,636,636,636,636,636,636,636,636,636,636,636,636,636,636,636,636,636,636,636,636,636,634,621,610,598,583,567,537,524,515,506,496,475,459,433,411,387,339,325,313,299,291,283,282,280,272,265,247,231,211,186,161,129,121,112,109,103,98],"timestamp_mouse":[14,38,54,73,93,113,134,155,174,194,214,234,253,274,293,314,333,355,375,393,414,435,453,474,493,514,533,554,574,595,613,633,653,674,694,714,733,753,773,793,814,833,853,874,893,913,934,954,973,993,1013,1033,1053,1073,1093,1115,1134,1153,1173,1193],"xSR":741.5,"ySR":573.95,"xT1":424.9,"yT1":0,"xT2":1058.1,"yT2":0,"toosoon":0,"cond_shown":"randomdotsizeEA","ratio_trial":900,"smaller_num":"9","larger_num":"10","correct_side":2,"subjID":"TomasJimenez34","gender":"0","age":"11","school":"6"},{"start_time":1551900520730,"click_time":1551900521846,"finger_time":1551900521427,"fix_duration":363.16872435258205,"trial":44,"RT":697,"MT":419,"sideResp":2,"stimulus":"img/500/randomdotsizeEA/R/14_Ratio_500_L_5_R_10.png","xmouse":[824,824,824,824,824,824,824,824,824,824,824,824,824,824,824,824,824,824,824,824,824,824,824,824,824,824,824,824,824,823,823,823,824,831,846,856,876,886,896,906,917,943,955,973,980,983,988,991,992,994,998,1016,1032,1051,1077,1090],"ymouse":[642,642,642,642,642,642,642,642,642,642,642,642,642,642,642,642,642,642,642,642,642,642,642,642,642,642,642,642,642,642,641,635,628,615,590,573,535,516,493,467,438,371,330,260,228,206,186,181,180,178,175,162,148,132,110,97],"timestamp_mouse":[16,35,56,75,97,116,136,157,176,196,217,235,256,277,296,315,336,356,375,395,415,435,456,476,495,515,537,556,576,595,615,635,655,675,697,716,735,755,775,797,817,836,855,875,896,915,936,956,975,995,1016,1036,1056,1076,1095,1116],"xSR":741.5,"ySR":573.95,"xT1":424.9,"yT1":0,"xT2":1058.1,"yT2":0,"toosoon":0,"cond_shown":"randomdotsizeEA","ratio_trial":500,"smaller_num":"5","larger_num":"10","correct_side":2,"subjID":"TomasJimenez34","gender":"0","age":"11","school":"6"},{"start_time":1551900523367,"click_time":1551900524866,"finger_time":1551900523965,"fix_duration":520.9384511682749,"trial":45,"RT":598,"MT":901,"sideResp":1,"stimulus":"img/250/equaldotanddens/L/5_Ratio_250_L_24_R_6.png","xmouse":[803,803,803,803,803,803,803,803,803,803,803,803,803,803,803,803,803,803,803,803,803,803,803,803,803,803,801,791,776,735,715,692,617,576,538,533,523,517,516,515,515,513,507,501,486,479,466,452,441,427,424,422,420,419,419,419,419,420,423,426,428,428,428,428,428,428,428,428,427,427,427,427,427,427,427],"ymouse":[625,625,625,625,625,625,625,625,625,625,625,625,625,625,625,625,625,625,625,625,625,625,625,625,625,625,625,620,608,571,549,527,466,439,415,410,404,398,397,397,395,391,377,365,328,308,287,269,255,227,213,194,188,183,179,178,176,172,166,154,149,142,136,127,118,117,115,112,109,105,105,105,105,103,99],"timestamp_mouse":[30,39,58,78,99,118,138,158,179,199,220,239,259,279,300,320,338,359,378,399,418,439,459,479,500,518,539,558,578,598,619,638,659,678,699,719,740,759,779,798,818,838,858,879,899,919,938,959,978,998,1020,1038,1059,1078,1100,1118,1139,1158,1179,1198,1219,1239,1258,1278,1299,1319,1338,1358,1379,1398,1418,1439,1460,1478,1499],"xSR":741.5,"ySR":573.95,"xT1":424.9,"yT1":0,"xT2":1058.1,"yT2":0,"toosoon":0,"cond_shown":"equaldotanddens","ratio_trial":250,"smaller_num":"6","larger_num":"24","correct_side":1,"subjID":"TomasJimenez34","gender":"0","age":"11","school":"6"},{"start_time":1551900528555,"click_time":1551900530086,"finger_time":1551900528605,"fix_duration":1226.8251563538172,"trial":46,"RT":50,"MT":1481,"sideResp":2,"stimulus":"img/750/randomdotsizeEA/R/12_Ratio_750_L_3_R_4.png","xmouse":[834,837,843,856,863,871,871,871,871,871,871,871,871,868,863,853,850,847,845,843,841,840,839,837,833,829,828,826,824,823,823,823,823,823,823,823,823,823,823,823,822,819,815,814,821,850,860,868,872,878,888,890,893,899,908,937,949,960,976,993,1016,1023,1027,1033,1037,1039,1040,1040,1040,1041,1042,1043,1044,1044,1046,1056,1065],"ymouse":[606,610,616,626,631,636,636,636,636,636,636,636,636,636,635,630,629,628,627,626,626,626,626,626,625,625,625,624,624,624,624,624,624,624,624,624,624,624,624,624,623,607,583,560,524,462,439,417,398,377,347,337,326,313,292,256,239,224,208,189,153,137,126,107,96,85,83,83,83,82,79,77,77,75,73,68,62],"timestamp_mouse":[18,36,50,70,91,110,131,152,170,190,210,230,250,271,290,310,330,352,371,392,410,432,451,470,490,510,530,552,570,591,611,630,650,671,690,711,730,750,770,790,811,830,852,871,890,910,930,952,970,991,1010,1031,1051,1071,1092,1111,1130,1150,1171,1190,1210,1232,1250,1270,1291,1311,1330,1351,1370,1392,1410,1432,1451,1470,1491,1510,1531],"xSR":741.5,"ySR":573.95,"xT1":424.9,"yT1":0,"xT2":1058.1,"yT2":0,"toosoon":0,"cond_shown":"randomdotsizeEA","ratio_trial":750,"smaller_num":"3","larger_num":"4","correct_side":2,"subjID":"TomasJimenez34","gender":"0","age":"11","school":"6"},{"start_time":1551900531853,"click_time":1551900533065,"finger_time":1551900532466,"fix_duration":805.4348885088684,"trial":47,"RT":613,"MT":599,"sideResp":1,"stimulus":"img/900/equaldotanddens/L/8_Ratio_900_L_20_R_18.png","xmouse":[775,775,775,775,775,775,775,775,775,775,775,775,775,775,775,775,775,775,775,775,775,777,778,778,778,778,778,778,779,779,780,781,781,781,778,763,753,741,728,704,634,597,570,549,537,528,525,524,520,519,515,512,510,506,504,499,497,494,493,492,488],"ymouse":[584,584,584,584,584,584,584,584,584,584,584,584,584,584,584,584,584,584,584,584,584,586,587,587,587,587,587,587,586,583,571,562,553,541,531,513,503,492,480,454,383,338,297,265,245,226,218,215,204,196,179,170,163,156,149,137,132,124,113,101,80],"timestamp_mouse":[13,33,52,73,93,113,132,152,172,193,214,232,253,272,292,312,332,354,373,393,412,432,453,472,494,512,532,552,572,592,613,633,652,673,692,713,732,753,773,792,813,833,852,873,892,912,933,952,972,993,1012,1032,1052,1073,1093,1112,1133,1152,1173,1192,1212],"xSR":741.5,"ySR":573.95,"xT1":424.9,"yT1":0,"xT2":1058.1,"yT2":0,"toosoon":0,"cond_shown":"equaldotanddens","ratio_trial":900,"smaller_num":"18","larger_num":"20","correct_side":1,"subjID":"TomasJimenez34","gender":"0","age":"11","school":"6"},{"start_time":1551900535605,"click_time":1551900539405,"finger_time":1551900535606,"fix_duration":396.485609220395,"trial":48,"RT":1,"MT":3799,"sideResp":2,"stimulus":"img/750/randomdotsizeEA/R/11_Ratio_750_L_12_R_16.png","xmouse":[830,844,844,864,866,866,866,866,865,859,854,841,836,829,825,822,820,818,818,818,818,818,818,818,818,818,818,816,806,800,791,784,780,776,774,773,771,771,770,770,770,770,770,770,770,770,770,770,770,770,770,770,770,769,768,768,767,766,766,766,766,766,766,766,766,766,766,770,780,787,796,804,807,807,807,807,807,808,808,807,807,805,804,804,804,806,806,806,802,801,801,801,814,850,872,892,906,914,937,957,990,999,1016,1022,1022,1022,1023,1024,1033,1039,1045,1051,1059,1084,1100,1113,1124,1132,1141,1143,1145,1146,1147,1147,1147,1147,1147,1144,1129,1126,1125,1124,1121,1115,1110,1104,1100,1099,1099,1100,1104,1107,1115,1122,1124,1130,1140,1154,1185,1200,1209,1210,1210,1210,1210,1210,1210,1210,1210,1210,1210,1210,1210,1210,1210,1210,1210,1211,1224,1264,1291,1314,1334,1342,1345,1345,1345,1345,1345,1345,1345,1345,1344,1339,1333,1318,1293,1260,1198,1163,1147],"ymouse":[684,705,705,731,734,734,734,734,732,725,717,702,696,689,686,684,682,682,681,681,681,681,681,681,681,681,681,679,665,655,639,621,613,604,599,596,593,591,590,590,590,590,590,586,584,580,579,578,578,578,578,578,577,575,573,571,568,565,561,561,560,560,560,560,560,560,560,560,568,572,580,586,588,588,588,588,588,588,586,583,580,570,564,546,530,506,489,473,445,435,416,410,383,340,324,315,310,307,301,295,282,279,273,270,270,270,269,266,250,234,217,199,174,150,145,145,146,148,150,150,150,150,150,150,150,150,149,148,143,143,142,142,142,140,138,137,135,135,135,135,135,135,135,137,138,140,144,150,166,176,192,195,195,195,195,195,195,195,195,195,195,195,195,195,195,195,195,195,165,86,24,0,0,0,0,0,0,0,0,0,0,0,1,7,11,19,28,42,59,62,62],"timestamp_mouse":[1,29,40,60,80,101,121,140,160,180,201,220,240,262,281,300,321,340,362,381,400,421,440,460,481,500,520,542,560,581,600,622,641,660,680,701,722,740,760,782,800,820,840,860,880,901,921,942,960,980,1001,1020,1041,1061,1080,1101,1120,1141,1160,1180,1201,1221,1240,1261,1280,1300,1320,1341,1360,1380,1401,1420,1441,1461,1480,1500,1520,1540,1560,1580,1601,1621,1641,1662,1681,1700,1720,1740,1760,1781,1801,1821,1841,1861,1880,1900,1921,1940,1961,1980,2000,2021,2040,2060,2081,2100,2120,2141,2160,2181,2201,2220,2240,2261,2280,2301,2320,2341,2360,2380,2400,2422,2440,2461,2481,2501,2520,2540,2561,2581,2600,2620,2640,2660,2681,2700,2720,2741,2761,2780,2800,2821,2840,2860,2880,2900,2921,2940,2960,2981,3001,3020,3040,3060,3080,3101,3120,3141,3161,3181,3201,3221,3241,3260,3281,3301,3321,3341,3360,3380,3400,3421,3440,3461,3482,3502,3522,3541,3562,3581,3602,3621,3640,3660,3680,3701,3720,3741,3760,3780,3800],"xSR":741.5,"ySR":573.95,"xT1":424.9,"yT1":0,"xT2":1058.1,"yT2":0,"toosoon":0,"cond_shown":"randomdotsizeEA","ratio_trial":750,"smaller_num":"12","larger_num":"16","correct_side":2,"subjID":"TomasJimenez34","gender":"0","age":"11","school":"6"},{"start_time":1551900541680,"click_time":1551900542926,"finger_time":1551900542165,"fix_duration":1013.6808326190475,"trial":49,"RT":485,"MT":761,"sideResp":2,"stimulus":"img/500/equaldotsize/R/1_Ratio_500_L_9_R_18.png","xmouse":[784,784,784,784,784,784,784,784,784,784,784,784,784,784,784,784,784,784,784,784,784,783,783,783,788,792,801,824,853,924,961,987,1010,1033,1079,1102,1128,1150,1174,1203,1210,1211,1211,1211,1211,1211,1211,1211,1211,1209,1204,1196,1188,1183,1170,1165,1164,1164,1164,1163,1162,1160,1155],"ymouse":[590,590,590,590,590,590,590,590,590,590,590,590,590,590,590,590,590,590,590,590,590,587,585,581,554,540,520,482,441,353,310,278,254,230,191,172,151,133,109,69,56,52,51,50,50,50,50,49,49,49,48,47,46,45,43,40,39,39,39,38,38,38,38],"timestamp_mouse":[10,31,45,67,85,105,126,147,165,186,205,227,245,266,287,306,325,345,366,387,405,425,446,465,485,505,527,545,566,587,606,626,647,667,685,705,726,745,766,786,806,825,846,866,886,906,926,945,966,985,1005,1025,1046,1066,1085,1105,1126,1147,1166,1185,1205,1227,1246],"xSR":741.5,"ySR":573.95,"xT1":424.9,"yT1":0,"xT2":1058.1,"yT2":0,"toosoon":0,"cond_shown":"equaldotsize","ratio_trial":500,"smaller_num":"9","larger_num":"18","correct_side":2,"subjID":"TomasJimenez34","gender":"0","age":"11","school":"6"},{"start_time":1551900546086,"click_time":1551900547206,"finger_time":1551900546626,"fix_duration":257.6471942335764,"trial":50,"RT":540,"MT":580,"sideResp":1,"stimulus":"img/500/equaldotanddens/L/13_Ratio_500_L_12_R_6.png","xmouse":[783,783,783,783,783,783,783,783,783,783,783,783,783,783,783,783,783,783,783,783,783,783,783,783,783,776,764,750,723,693,686,682,676,675,674,673,673,668,663,657,653,651,645,641,630,624,614,610,596,573,566,561,556,550,535,528,521],"ymouse":[618,618,618,618,618,618,618,618,618,618,618,618,618,618,618,618,618,618,618,618,618,618,618,618,618,611,594,566,501,407,381,357,338,331,329,329,327,319,311,301,295,290,283,276,262,254,242,237,221,188,177,169,160,149,122,107,89],"timestamp_mouse":[8,33,41,60,80,101,121,139,159,180,201,219,240,259,281,299,320,339,360,379,401,421,440,461,479,499,520,540,560,579,599,619,639,661,680,699,720,740,759,780,799,819,840,859,879,900,919,939,960,979,999,1021,1040,1060,1079,1099,1120],"xSR":741.5,"ySR":573.95,"xT1":424.9,"yT1":0,"xT2":1058.1,"yT2":0,"toosoon":0,"cond_shown":"equaldotanddens","ratio_trial":500,"smaller_num":"6","larger_num":"12","correct_side":1,"subjID":"TomasJimenez34","gender":"0","age":"11","school":"6"},{"start_time":1551900548966,"click_time":1551900549966,"finger_time":1551900549465,"fix_duration":720.0326376445436,"trial":51,"RT":499,"MT":501,"sideResp":1,"stimulus":"img/250/randomdotsizeEA/L/5_Ratio_250_L_24_R_6.png","xmouse":[810,810,810,810,809,809,809,809,809,809,809,809,809,809,809,809,809,809,809,808,807,805,794,782,753,731,704,681,665,633,616,605,595,592,591,593,601,603,603,603,603,603,602,602,601,600,593,577,553,501],"ymouse":[605,605,605,605,604,604,604,604,604,604,604,604,604,604,604,604,604,604,604,603,602,600,591,580,547,522,487,461,442,396,370,350,326,311,247,178,123,103,92,83,82,82,81,81,80,79,76,69,63,48],"timestamp_mouse":[31,39,59,79,100,121,139,160,181,199,220,240,259,280,299,320,339,359,381,400,419,439,460,479,499,520,539,560,579,600,620,639,659,679,699,719,739,759,781,800,819,840,859,879,899,919,939,959,979,999],"xSR":741.5,"ySR":573.95,"xT1":424.9,"yT1":0,"xT2":1058.1,"yT2":0,"toosoon":0,"cond_shown":"randomdotsizeEA","ratio_trial":250,"smaller_num":"6","larger_num":"24","correct_side":1,"subjID":"TomasJimenez34","gender":"0","age":"11","school":"6"},{"start_time":1551900552317,"click_time":1551900553585,"finger_time":1551900552965,"fix_duration":1409.358614321375,"trial":52,"RT":648,"MT":620,"sideResp":1,"stimulus":"img/900/equaldotsize/R/7_Ratio_900_L_9_R_10.png","xmouse":[788,788,788,788,788,788,788,788,788,788,788,788,788,788,788,788,788,788,788,788,788,788,788,788,788,788,789,793,795,797,800,803,813,816,819,824,826,827,827,826,823,817,793,775,756,726,702,661,650,644,641,638,635,633,630,626,620,611,607,601,591,575,530,509],"ymouse":[617,617,617,617,617,617,617,617,617,617,617,617,617,617,617,617,617,617,617,617,617,617,617,617,617,617,617,611,606,600,593,583,565,557,550,539,534,523,518,511,506,497,464,439,409,352,303,206,181,167,159,152,142,136,129,121,112,102,98,94,89,82,68,60],"timestamp_mouse":[10,32,48,69,88,109,130,150,168,190,209,228,249,269,290,310,330,350,368,390,409,429,448,470,489,509,528,550,568,588,609,628,648,668,688,709,730,750,768,788,809,828,848,869,889,908,929,949,969,988,1009,1028,1049,1069,1089,1108,1129,1148,1168,1189,1209,1230,1249,1268],"xSR":741.5,"ySR":573.95,"xT1":424.9,"yT1":0,"xT2":1058.1,"yT2":0,"toosoon":0,"cond_shown":"equaldotsize","ratio_trial":900,"smaller_num":"9","larger_num":"10","correct_side":2,"subjID":"TomasJimenez34","gender":"0","age":"11","school":"6"},{"start_time":1551900555744,"click_time":1551900556765,"finger_time":1551900556246,"fix_duration":1335.6938503433696,"trial":53,"RT":502,"MT":519,"sideResp":2,"stimulus":"img/250/equaldotanddens/R/8_Ratio_250_L_1_R_4.png","xmouse":[806,806,806,806,806,806,806,806,806,806,806,806,806,806,806,806,806,806,806,806,806,806,807,811,822,850,876,886,900,913,929,981,1005,1021,1044,1063,1107,1116,1126,1138,1152,1164,1164,1164,1163,1162,1158,1155,1148,1142,1137,1123],"ymouse":[643,643,643,643,643,643,643,643,643,643,643,643,643,643,643,643,643,643,643,643,643,643,641,636,624,593,563,551,537,524,507,458,427,407,373,344,265,243,221,198,176,149,143,137,134,131,124,121,116,111,106,87],"timestamp_mouse":[8,33,42,62,81,103,122,141,161,181,202,222,241,262,282,301,323,341,361,382,402,423,441,461,482,502,521,541,562,582,602,621,642,662,682,702,723,741,762,782,802,821,842,862,881,902,921,941,962,981,1001,1021],"xSR":741.5,"ySR":573.95,"xT1":424.9,"yT1":0,"xT2":1058.1,"yT2":0,"toosoon":0,"cond_shown":"equaldotanddens","ratio_trial":250,"smaller_num":"1","larger_num":"4","correct_side":2,"subjID":"TomasJimenez34","gender":"0","age":"11","school":"6"},{"start_time":1551900558689,"click_time":1551900559626,"finger_time":1551900559365,"fix_duration":1022.0344195546368,"trial":54,"RT":676,"MT":261,"sideResp":2,"stimulus":"img/250/randomdotsizeEA/R/9_Ratio_250_L_3_R_12.png","xmouse":[762,762,762,762,762,762,762,762,762,762,762,762,762,762,762,762,762,762,762,762,762,762,762,762,762,762,762,762,762,762,769,782,800,857,882,906,940,983,1024,1033,1040,1046,1054,1072,1081,1092,1100],"ymouse":[652,652,652,652,652,652,652,652,652,652,652,652,652,652,652,652,652,652,652,652,652,652,652,652,652,652,652,652,652,646,630,612,593,542,512,479,439,369,295,273,250,226,198,152,132,106,88],"timestamp_mouse":[16,41,56,77,96,116,136,158,178,197,217,236,256,277,297,317,337,357,376,396,417,436,457,477,496,516,536,556,578,596,617,636,657,676,696,716,738,756,776,797,817,837,857,876,897,917,937],"xSR":741.5,"ySR":573.95,"xT1":424.9,"yT1":0,"xT2":1058.1,"yT2":0,"toosoon":0,"cond_shown":"randomdotsizeEA","ratio_trial":250,"smaller_num":"3","larger_num":"12","correct_side":2,"subjID":"TomasJimenez34","gender":"0","age":"11","school":"6"},{"start_time":1551900561260,"click_time":1551900562485,"finger_time":1551900562066,"fix_duration":431.18441388273163,"trial":55,"RT":806,"MT":419,"sideResp":1,"stimulus":"img/750/randomdotsizeEA/L/10_Ratio_750_L_4_R_3.png","xmouse":[785,785,785,785,785,785,785,785,785,785,785,785,785,785,785,785,785,785,785,785,785,785,785,785,785,785,785,785,785,785,785,785,785,785,785,785,785,785,782,773,701,665,641,620,598,566,558,552,547,544,540,540,540,539,537,537,537,537,537,532,512,499],"ymouse":[621,621,621,621,621,621,621,621,621,621,621,621,621,621,621,621,621,621,621,621,621,621,621,621,621,621,621,621,621,621,621,621,621,621,621,621,621,621,621,612,526,471,429,392,352,297,282,272,263,242,196,174,154,141,130,128,128,128,127,125,106,93],"timestamp_mouse":[9,33,45,65,85,107,126,146,167,185,205,225,246,265,287,306,326,346,366,387,405,425,447,466,487,506,526,545,567,585,607,625,646,666,686,706,725,745,767,787,806,825,847,867,885,906,926,946,965,985,1005,1026,1046,1066,1085,1105,1126,1146,1165,1186,1206,1225],"xSR":741.5,"ySR":573.95,"xT1":424.9,"yT1":0,"xT2":1058.1,"yT2":0,"toosoon":0,"cond_shown":"randomdotsizeEA","ratio_trial":750,"smaller_num":"3","larger_num":"4","correct_side":1,"subjID":"TomasJimenez34","gender":"0","age":"11","school":"6"},{"start_time":1551900564780,"click_time":1551900565625,"finger_time":1551900565445,"fix_duration":1212.7332973833245,"trial":56,"RT":665,"MT":180,"sideResp":1,"stimulus":"img/500/equaldotsize/L/4_Ratio_500_L_18_R_9.png","xmouse":[799,799,799,799,799,799,799,799,799,799,799,799,799,799,799,799,799,799,799,799,799,799,799,799,799,799,799,799,799,799,797,787,783,763,739,724,709,691,662,605,580,533,507],"ymouse":[616,616,616,616,616,616,616,616,616,616,616,616,616,616,616,616,616,616,616,616,616,616,616,616,616,616,616,616,616,616,616,606,596,561,516,495,474,445,397,262,205,99,48],"timestamp_mouse":[10,34,46,65,85,105,126,146,166,187,206,227,246,266,286,307,325,347,365,387,405,425,446,467,486,506,527,545,565,585,606,626,646,665,686,706,726,746,766,786,806,825,845],"xSR":741.5,"ySR":573.95,"xT1":424.9,"yT1":0,"xT2":1058.1,"yT2":0,"toosoon":0,"cond_shown":"equaldotsize","ratio_trial":500,"smaller_num":"9","larger_num":"18","correct_side":1,"subjID":"TomasJimenez34","gender":"0","age":"11","school":"6"},{"start_time":1551900569962,"click_time":1551900571406,"finger_time":1551900570586,"fix_duration":1275.990033458283,"trial":57,"RT":624,"MT":820,"sideResp":2,"stimulus":"img/900/equaldotsize/R/7_Ratio_900_L_9_R_10.png","xmouse":[806,806,806,806,806,806,806,806,806,806,806,806,806,806,806,806,806,806,806,806,806,806,806,806,806,806,806,805,805,807,820,835,868,916,940,964,970,973,976,979,989,999,1000,1005,1006,1010,1016,1022,1027,1027,1028,1028,1028,1028,1028,1028,1028,1028,1028,1028,1029,1029,1029,1030,1030,1030,1031,1034,1037,1039,1045,1057,1072],"ymouse":[625,625,625,625,625,625,625,625,625,625,625,625,625,625,625,625,625,625,625,625,625,625,625,625,625,625,625,623,621,614,575,533,460,368,328,274,259,251,243,230,195,166,159,142,132,107,93,82,74,73,72,72,72,72,71,71,71,71,70,70,69,69,69,69,69,69,68,65,65,63,63,60,55],"timestamp_mouse":[10,32,45,64,84,103,125,143,163,184,204,224,245,264,284,303,325,345,363,383,403,424,443,463,483,505,523,543,563,585,604,624,643,664,684,703,724,743,764,784,804,823,843,863,885,905,923,945,964,984,1004,1025,1043,1064,1084,1104,1125,1145,1165,1184,1204,1223,1243,1265,1284,1304,1323,1343,1364,1385,1403,1423,1444],"xSR":741.5,"ySR":573.95,"xT1":424.9,"yT1":0,"xT2":1058.1,"yT2":0,"toosoon":0,"cond_shown":"equaldotsize","ratio_trial":900,"smaller_num":"9","larger_num":"10","correct_side":2,"subjID":"TomasJimenez34","gender":"0","age":"11","school":"6"},{"start_time":1551900572863,"click_time":1551900573605,"finger_time":1551900573366,"fix_duration":274.24435494042166,"trial":58,"RT":503,"MT":239,"sideResp":2,"stimulus":"img/250/equaldotsize/R/11_Ratio_250_L_3_R_12.png","xmouse":[767,767,767,767,767,767,767,767,767,767,767,767,767,767,767,767,767,767,767,767,767,769,773,778,789,844,894,947,996,1051,1081,1088,1093,1097,1100,1104,1107,1108],"ymouse":[620,620,620,620,620,620,620,620,620,620,620,620,620,620,620,620,620,620,620,620,620,620,620,619,610,550,491,427,365,295,239,218,202,184,167,124,109,97],"timestamp_mouse":[19,36,42,62,83,104,122,144,163,183,203,223,243,262,284,303,322,343,363,383,402,422,442,462,482,503,523,543,563,583,602,623,642,663,683,702,723,742],"xSR":741.5,"ySR":573.95,"xT1":424.9,"yT1":0,"xT2":1058.1,"yT2":0,"toosoon":0,"cond_shown":"equaldotsize","ratio_trial":250,"smaller_num":"3","larger_num":"12","correct_side":2,"subjID":"TomasJimenez34","gender":"0","age":"11","school":"6"},{"start_time":1551900577517,"click_time":1551900578566,"finger_time":1551900577906,"fix_duration":250,"trial":59,"RT":389,"MT":660,"sideResp":1,"stimulus":"img/500/randomdotsizeEA/L/10_Ratio_500_L_4_R_2.png","xmouse":[798,798,798,798,798,798,798,798,798,798,798,798,798,798,798,798,797,797,796,793,793,793,793,794,801,806,813,826,831,835,842,846,851,852,852,852,847,830,812,791,760,730,666,642,627,604,584,548,541,533,529,525,518],"ymouse":[615,615,615,615,615,615,615,615,615,615,615,615,615,615,615,615,615,597,575,546,519,492,446,423,383,359,338,293,275,258,239,222,200,191,183,176,162,138,117,95,72,52,19,9,5,2,2,2,2,4,5,7,10],"timestamp_mouse":[9,30,50,68,88,109,130,149,169,189,210,230,249,268,288,309,329,348,368,389,409,429,449,468,489,510,529,550,568,588,609,630,649,669,689,708,729,748,769,788,809,830,849,868,889,910,929,949,968,989,1009,1029,1049],"xSR":741.5,"ySR":573.95,"xT1":424.9,"yT1":0,"xT2":1058.1,"yT2":0,"toosoon":0,"cond_shown":"randomdotsizeEA","ratio_trial":500,"smaller_num":"2","larger_num":"4","correct_side":1,"subjID":"TomasJimenez34","gender":"0","age":"11","school":"6"},{"start_time":1551900579656,"click_time":1551900580786,"finger_time":1551900580226,"fix_duration":250,"trial":60,"RT":570,"MT":560,"sideResp":1,"stimulus":"img/750/equaldotanddens/L/14_Ratio_750_L_8_R_6.png","xmouse":[765,765,765,765,765,765,765,765,765,765,765,765,765,765,765,765,765,765,765,765,765,765,765,765,765,764,755,751,735,715,639,598,560,529,497,457,438,412,399,394,389,389,389,388,388,387,387,387,389,396,407,409,409,410,412,424,428],"ymouse":[637,637,637,637,637,637,637,637,637,637,637,637,637,637,637,637,637,637,637,637,637,637,637,637,637,633,621,616,593,562,427,365,317,279,246,208,191,167,156,148,141,140,139,137,131,116,104,91,75,49,25,22,22,22,22,29,33],"timestamp_mouse":[10,41,49,70,90,109,129,149,169,190,210,229,249,269,289,311,330,349,369,389,411,431,450,470,489,509,530,549,570,590,610,629,650,669,690,709,730,750,770,790,810,830,849,870,889,909,930,949,969,990,1009,1030,1049,1069,1089,1110,1130],"xSR":741.5,"ySR":573.95,"xT1":424.9,"yT1":0,"xT2":1058.1,"yT2":0,"toosoon":0,"cond_shown":"equaldotanddens","ratio_trial":750,"smaller_num":"6","larger_num":"8","correct_side":1,"subjID":"TomasJimenez34","gender":"0","age":"11","school":"6"},{"start_time":1551900583663,"click_time":1551900585266,"finger_time":1551900584285,"fix_duration":274.4843828820269,"trial":61,"RT":622,"MT":981,"sideResp":2,"stimulus":"img/500/equaldotsize/R/12_Ratio_500_L_1_R_2.png","xmouse":[769,769,769,769,769,769,769,769,769,769,769,769,769,769,769,769,769,769,769,769,769,769,769,769,769,769,769,769,770,774,785,789,795,797,797,789,780,768,741,715,677,664,648,637,634,633,634,638,665,696,768,790,809,825,835,859,871,881,895,902,914,922,930,952,978,1006,1010,1015,1020,1023,1027,1029,1032,1036,1037,1042,1043,1045,1048,1053,1065],"ymouse":[623,623,623,623,623,623,623,623,623,623,623,623,623,623,623,623,623,623,623,623,623,623,623,623,623,623,623,623,622,615,588,569,541,519,499,461,437,414,380,352,303,275,232,199,179,160,154,150,145,145,145,145,146,146,146,139,134,128,120,116,109,106,104,104,107,110,110,110,110,110,110,109,108,107,106,104,103,101,98,92,80],"timestamp_mouse":[18,30,43,63,82,104,122,142,162,182,204,223,242,263,283,302,323,342,362,384,403,423,442,463,484,503,522,542,562,583,603,622,643,662,683,703,722,743,763,783,803,822,842,864,882,903,924,943,962,983,1003,1023,1042,1064,1083,1103,1122,1142,1164,1184,1202,1222,1242,1264,1284,1303,1322,1343,1362,1382,1403,1423,1443,1462,1483,1503,1524,1542,1562,1583,1603],"xSR":741.5,"ySR":573.95,"xT1":424.9,"yT1":0,"xT2":1058.1,"yT2":0,"toosoon":0,"cond_shown":"equaldotsize","ratio_trial":500,"smaller_num":"1","larger_num":"2","correct_side":2,"subjID":"TomasJimenez34","gender":"0","age":"11","school":"6"},{"start_time":1551900587412,"click_time":1551900588626,"finger_time":1551900588165,"fix_duration":1146.3539947624681,"trial":62,"RT":753,"MT":461,"sideResp":2,"stimulus":"img/250/equaldotsize/R/8_Ratio_250_L_1_R_4.png","xmouse":[816,816,816,816,816,816,816,816,816,816,816,816,816,816,816,816,816,816,816,816,818,823,826,826,826,826,826,826,827,827,827,827,827,827,827,827,827,838,848,867,884,907,943,951,957,962,968,987,1000,1013,1026,1038,1043,1043,1044,1044,1045,1047,1050,1055,1070],"ymouse":[619,619,619,619,619,619,619,619,619,619,619,619,619,619,619,619,619,619,619,619,619,619,620,620,620,620,620,620,620,620,620,620,620,616,609,597,577,525,489,423,376,319,224,197,179,164,150,116,95,74,57,41,37,36,36,36,36,36,36,39,47],"timestamp_mouse":[13,44,53,74,95,114,133,155,173,195,215,233,253,275,293,313,334,353,373,393,414,434,454,475,494,513,535,553,575,593,614,633,655,674,693,713,733,753,774,793,814,834,853,874,894,914,934,954,974,994,1014,1035,1053,1074,1094,1114,1133,1154,1173,1193,1213],"xSR":741.5,"ySR":573.95,"xT1":424.9,"yT1":0,"xT2":1058.1,"yT2":0,"toosoon":0,"cond_shown":"equaldotsize","ratio_trial":250,"smaller_num":"1","larger_num":"4","correct_side":2,"subjID":"TomasJimenez34","gender":"0","age":"11","school":"6"},{"start_time":1551900591537,"click_time":1551900592587,"finger_time":1551900592005,"fix_duration":470.6075435472233,"trial":63,"RT":468,"MT":582,"sideResp":2,"stimulus":"img/500/equaldotanddens/R/14_Ratio_500_L_5_R_10.png","xmouse":[790,790,790,790,790,790,790,790,790,790,790,790,790,790,790,790,790,790,790,790,791,795,806,818,840,854,884,899,910,920,930,945,958,980,998,1021,1050,1055,1057,1059,1061,1066,1068,1072,1075,1077,1085,1088,1094,1099,1103,1108,1111],"ymouse":[620,620,620,620,620,620,620,620,620,620,620,620,620,620,620,620,620,620,620,620,618,607,589,569,534,510,463,440,422,405,390,361,345,324,309,289,252,241,234,230,227,220,215,206,197,186,160,149,136,124,116,104,99],"timestamp_mouse":[10,40,48,69,89,108,130,149,168,188,208,230,248,268,288,309,329,349,369,388,409,429,448,468,489,510,529,548,568,588,609,628,649,669,689,710,730,749,769,788,809,829,849,868,889,909,928,948,969,989,1009,1029,1050],"xSR":741.5,"ySR":573.95,"xT1":424.9,"yT1":0,"xT2":1058.1,"yT2":0,"toosoon":0,"cond_shown":"equaldotanddens","ratio_trial":500,"smaller_num":"5","larger_num":"10","correct_side":2,"subjID":"TomasJimenez34","gender":"0","age":"11","school":"6"},{"start_time":1551900594923,"click_time":1551900595847,"finger_time":1551900595566,"fix_duration":1157.2957891907051,"trial":64,"RT":643,"MT":281,"sideResp":1,"stimulus":"img/750/equaldotsize/L/6_Ratio_750_L_24_R_18.png","xmouse":[793,793,793,793,793,793,793,793,793,793,793,793,793,793,793,793,793,793,793,793,793,793,793,794,794,794,794,794,794,794,794,794,784,768,743,711,667,632,619,600,581,556,514,500,489,473,470],"ymouse":[622,622,622,622,622,622,622,622,622,622,622,622,622,622,622,622,622,622,622,622,622,622,622,621,621,621,621,621,621,620,617,605,564,525,466,403,326,259,236,212,194,177,148,134,122,100,94],"timestamp_mouse":[10,23,42,64,82,103,123,143,162,184,203,222,244,262,284,302,323,344,363,383,402,423,442,462,484,502,523,542,563,583,602,623,643,663,683,702,723,743,763,784,803,822,842,864,883,902,924],"xSR":741.5,"ySR":573.95,"xT1":424.9,"yT1":0,"xT2":1058.1,"yT2":0,"toosoon":0,"cond_shown":"equaldotsize","ratio_trial":750,"smaller_num":"18","larger_num":"24","correct_side":1,"subjID":"TomasJimenez34","gender":"0","age":"11","school":"6"},{"start_time":1551900598154,"click_time":1551900599466,"finger_time":1551900598847,"fix_duration":1387.5395309502437,"trial":65,"RT":693,"MT":619,"sideResp":2,"stimulus":"img/900/randomdotsizeEA/R/15_Ratio_900_L_9_R_10.png","xmouse":[781,781,781,781,781,781,781,781,781,781,781,781,781,781,781,781,781,781,781,781,781,781,781,781,781,781,781,781,781,781,783,789,797,819,834,859,871,883,893,902,927,953,1013,1121,1163,1198,1203,1203,1203,1203,1203,1201,1199,1197,1197,1197,1197,1197,1197,1197,1197,1196,1196,1193,1182,1156],"ymouse":[661,661,661,661,661,661,661,661,661,661,661,661,661,661,661,661,661,661,661,661,661,661,661,661,661,661,661,661,661,661,651,629,608,574,554,520,502,486,472,453,414,398,378,323,292,267,261,256,246,238,221,211,198,181,168,147,138,131,124,117,110,109,109,107,104,96],"timestamp_mouse":[13,40,53,71,92,112,132,152,172,193,212,232,251,271,291,312,332,353,372,393,412,432,452,472,492,511,532,551,572,592,611,632,652,672,692,712,731,751,772,792,812,832,851,871,891,911,931,951,971,993,1012,1032,1052,1071,1092,1112,1131,1152,1173,1191,1211,1232,1252,1272,1292,1312],"xSR":741.5,"ySR":573.95,"xT1":424.9,"yT1":0,"xT2":1058.1,"yT2":0,"toosoon":0,"cond_shown":"randomdotsizeEA","ratio_trial":900,"smaller_num":"9","larger_num":"10","correct_side":2,"subjID":"TomasJimenez34","gender":"0","age":"11","school":"6"},{"start_time":1551900601403,"click_time":1551900602906,"finger_time":1551900602046,"fix_duration":836.7999770793241,"trial":66,"RT":643,"MT":860,"sideResp":1,"stimulus":"img/750/randomdotsizeEA/L/1_Ratio_750_L_20_R_15.png","xmouse":[802,802,802,802,802,802,802,802,802,802,802,802,802,802,802,802,802,802,802,802,802,802,802,802,802,802,802,802,802,802,798,785,767,706,681,650,611,567,521,510,499,486,467,423,405,389,382,381,381,381,381,388,403,444,462,480,495,504,509,510,510,510,510,510,510,510,510,509,507,506,505,504,504,504,505,507],"ymouse":[602,602,602,602,602,602,602,602,602,602,602,602,602,602,602,602,602,602,602,602,602,602,602,602,602,602,602,602,602,602,601,582,556,468,421,372,322,271,209,194,174,159,142,119,110,106,103,103,103,103,103,107,113,125,129,134,136,137,137,137,137,137,137,137,137,135,134,133,129,128,126,124,117,109,101,95],"timestamp_mouse":[10,33,43,63,82,102,122,143,163,183,203,223,243,264,282,302,322,344,362,384,403,423,443,463,482,503,523,543,563,583,603,622,643,662,682,702,722,742,763,783,803,823,842,863,883,903,923,943,964,984,1003,1023,1043,1062,1082,1103,1123,1143,1162,1182,1202,1224,1244,1264,1283,1302,1323,1344,1362,1383,1403,1422,1442,1463,1482,1503],"xSR":741.5,"ySR":573.95,"xT1":424.9,"yT1":0,"xT2":1058.1,"yT2":0,"toosoon":0,"cond_shown":"randomdotsizeEA","ratio_trial":750,"smaller_num":"15","larger_num":"20","correct_side":1,"subjID":"TomasJimenez34","gender":"0","age":"11","school":"6"},{"start_time":1551900605018,"click_time":1551900606266,"finger_time":1551900605626,"fix_duration":250,"trial":67,"RT":608,"MT":640,"sideResp":2,"stimulus":"img/900/randomdotsizeEA/R/12_Ratio_900_L_18_R_20.png","xmouse":[821,821,818,815,814,814,814,814,814,814,814,814,814,814,814,814,814,814,814,814,814,814,814,814,814,814,814,812,821,837,853,896,995,1038,1079,1135,1196,1295,1336,1343,1349,1352,1353,1353,1343,1328,1317,1290,1269,1246,1226,1192,1177,1177,1177,1177,1177,1177,1176,1175,1171,1167,1158],"ymouse":[627,627,619,617,615,615,615,615,615,615,615,615,615,615,615,615,615,615,615,615,615,615,615,615,615,615,615,613,606,593,576,517,397,348,295,226,169,116,89,82,72,64,62,58,53,46,41,31,26,19,14,7,6,6,6,6,6,6,9,13,23,28,36],"timestamp_mouse":[10,31,47,68,88,108,128,148,167,188,208,228,248,268,287,307,328,349,369,387,408,427,449,468,487,509,529,548,568,589,608,628,647,668,688,709,728,748,767,788,807,828,848,868,889,909,928,948,968,989,1007,1027,1047,1068,1088,1108,1128,1148,1167,1189,1208,1228,1248],"xSR":741.5,"ySR":573.95,"xT1":424.9,"yT1":0,"xT2":1058.1,"yT2":0,"toosoon":0,"cond_shown":"randomdotsizeEA","ratio_trial":900,"smaller_num":"18","larger_num":"20","correct_side":2,"subjID":"TomasJimenez34","gender":"0","age":"11","school":"6"},{"start_time":1551900607721,"click_time":1551900608465,"finger_time":1551900608226,"fix_duration":412.34741990735967,"trial":68,"RT":505,"MT":239,"sideResp":1,"stimulus":"img/500/equaldotsize/L/13_Ratio_500_L_12_R_6.png","xmouse":[771,771,771,771,771,771,771,771,771,771,771,771,771,771,771,771,771,771,771,771,769,768,763,760,754,749,741,713,681,647,612,580,539,527,516,500,488,480],"ymouse":[608,608,608,608,608,608,608,608,608,608,608,608,608,608,608,608,608,608,608,608,602,599,591,587,577,566,549,483,430,376,324,278,212,194,179,151,132,92],"timestamp_mouse":[5,28,45,64,84,106,125,145,165,184,204,225,245,264,284,305,325,345,365,384,405,424,445,466,485,505,525,546,564,584,604,625,645,665,684,705,724,744],"xSR":741.5,"ySR":573.95,"xT1":424.9,"yT1":0,"xT2":1058.1,"yT2":0,"toosoon":0,"cond_shown":"equaldotsize","ratio_trial":500,"smaller_num":"6","larger_num":"12","correct_side":1,"subjID":"TomasJimenez34","gender":"0","age":"11","school":"6"},{"start_time":1551900610509,"click_time":1551900611486,"finger_time":1551900611086,"fix_duration":1041.6499679455064,"trial":69,"RT":577,"MT":400,"sideResp":2,"stimulus":"img/750/equaldotanddens/R/12_Ratio_750_L_3_R_4.png","xmouse":[767,767,767,767,767,767,767,767,767,767,767,767,767,767,767,767,767,767,767,767,767,767,767,767,768,774,783,812,833,858,897,953,1073,1115,1136,1152,1167,1181,1187,1190,1191,1191,1184,1175,1164,1155,1145,1139,1137],"ymouse":[602,602,602,602,602,602,602,602,602,602,602,602,602,602,602,602,602,602,602,602,602,602,602,602,602,599,594,577,567,553,535,512,454,425,406,390,364,331,311,292,272,254,214,193,175,158,134,106,92],"timestamp_mouse":[16,37,57,78,97,118,136,156,176,197,217,236,256,276,297,318,337,356,377,398,416,436,457,477,497,517,538,556,577,597,617,636,657,677,697,717,737,756,776,797,818,837,856,877,897,916,937,956,976],"xSR":741.5,"ySR":573.95,"xT1":424.9,"yT1":0,"xT2":1058.1,"yT2":0,"toosoon":0,"cond_shown":"equaldotanddens","ratio_trial":750,"smaller_num":"3","larger_num":"4","correct_side":2,"su