[{"start_time":1551899757456,"click_time":1551899766060,"finger_time":1551899757488,"fix_duration":1232.3162408303094,"trial":0,"RT":32,"MT":8572,"sideResp":1,"stimulus":[],"xmouse":[443,443,426,420,414,401,394,387,382,377,372,372,372,372,372,372,372,372,372,372,372,370,369,369,369,369,369,368,366,354,343,341,340,340,340,340,340,340,340,340,340,340,340,340,340,340,340,340,340,340,340,340,340,340,340,340,340,340,341,342,345,346,347,348,348,349,349,349,350,351,352,353,353,353,354,354,354,354,354,354,354,354,354,354,354,354,354,354,354,354,354,354,354,354,354,354,354,354,354,354,354,354,354,354,354,354,354,354,354,355,377,403,439,473,495,539,559,574,586,598,610,619,630,650,671,705,722,740,745,765,771,776,780,783,784,784,785,785,785,785,782,781,781,781,781,781,781,781,781,781,782,782,782,782,782,782,783,783,783,783,783,783,783,783,783,783,783,783,783,783,783,783,783,783,783,783,783,783,783,783,783,783,783,783,783,783,778,770,766,747,722,714,705,701,696,686,684,681,675,670,654,650,645,644,644,644,644,644,644,644,644,644,644,644,644,644,644,644,644,644,644,644,644,644,644,644,644,644,644,644,656,669,680,687,692,693,693,693,693,693,693,693,694,695,695,696,696,696,696,696,696,696,696,696,696,696,696,696,696,696,696,696,696,696,696,696,696,696,696,696,696,696,696,696,696,696,696,696,696,696,696,696,696,697,697,697,697,701,704,706,711,712,714,715,717,718,719,719,719,719,719,719,719,719,719,719,719,719,719,719,719,719,719,719,719,719,719,719,719,719,719,719,721,721,722,722,722,721,720,720,720,720,720,720,718,717,717,716,716,716,716,717,719,722,726,733,735,737,740,740,739,738,737,736,736,731,726,720,714,710,703,700,697,693,688,676,671,667,662,659,653,653,652,652,652,652,650,645,634,628,616,609,602,597,591,579,577,575,575,574,563,554,547,545,542,533,526,518,513,510,508,508,508,508,508,508,508,506,501,497,490,488,487,487,485,482,482,479,476,474,473,473,473,473,473,473,473,474,478,481],"ymouse":[170,170,190,197,204,218,224,229,232,235,237,237,237,237,237,237,237,237,237,237,237,235,234,234,234,234,234,234,234,248,262,265,266,266,266,266,266,266,266,266,266,266,266,266,266,266,266,266,266,266,266,266,266,266,266,266,266,266,266,266,264,263,261,260,258,257,257,257,254,253,248,246,246,244,244,244,244,244,244,244,244,244,244,244,244,244,244,244,244,244,244,244,244,244,244,244,244,244,243,243,243,243,243,243,243,243,243,243,243,246,277,305,338,365,380,392,393,393,393,396,400,403,409,417,426,444,457,472,475,498,506,517,526,536,541,547,551,556,561,563,572,578,583,588,592,595,595,595,595,597,600,602,604,606,607,610,611,611,611,611,611,611,611,611,611,611,611,611,611,611,611,611,611,611,611,611,611,611,611,611,611,611,611,611,611,612,611,609,607,602,595,592,588,585,582,575,574,573,569,567,559,556,553,552,552,552,552,552,552,552,552,552,552,552,552,552,552,552,552,552,552,552,552,552,552,552,552,552,552,553,568,576,582,586,587,588,588,588,588,588,588,588,588,588,588,585,583,583,583,583,583,583,583,583,583,583,583,583,583,583,583,583,583,583,582,574,569,562,559,557,557,557,557,557,557,557,554,536,516,482,435,416,402,396,394,394,396,407,416,429,447,452,457,463,468,475,476,477,477,477,477,477,477,477,477,477,477,477,477,477,477,477,477,477,477,477,477,477,477,477,477,478,478,478,478,481,483,485,486,487,487,487,487,487,488,488,488,488,489,491,496,499,501,502,504,507,508,509,511,514,522,526,528,530,531,539,543,549,555,560,569,571,574,577,580,588,592,596,603,608,622,625,627,627,627,627,624,600,542,519,478,460,444,430,416,382,365,332,311,291,249,232,217,209,199,186,182,179,178,177,177,177,177,177,177,177,176,175,170,167,160,157,156,154,152,147,142,135,122,116,111,110,110,109,109,109,108,107,102,97],"timestamp_mouse":[32,44,64,85,104,124,145,164,184,204,224,245,264,285,303,325,345,365,384,405,424,444,464,483,505,524,544,564,584,604,623,644,665,685,704,724,744,764,785,804,825,844,864,884,904,924,944,965,984,1004,1025,1045,1065,1083,1105,1125,1145,1164,1185,1204,1223,1244,1264,1285,1305,1325,1344,1364,1383,1404,1424,1444,1464,1484,1505,1524,1544,1564,1585,1605,1624,1645,1665,1684,1705,1724,1745,1764,1784,1805,1824,1844,1864,1885,1904,1923,1944,1964,1985,2003,2025,2045,2064,2084,2104,2124,2143,2164,2185,2205,2224,2244,2264,2285,2304,2324,2344,2364,2384,2404,2425,2444,2465,2485,2504,2524,2544,2564,2585,2605,2624,2644,2664,2685,2705,2724,2744,2764,2784,2805,2824,2844,2865,2884,2904,2924,2944,2964,2985,3004,3025,3044,3065,3084,3104,3124,3144,3164,3185,3203,3224,3245,3265,3284,3304,3324,3345,3364,3384,3404,3424,3444,3465,3485,3504,3524,3544,3564,3584,3604,3624,3644,3665,3684,3704,3724,3744,3764,3784,3804,3824,3844,3864,3884,3905,3924,3945,3964,3985,4004,4024,4044,4065,4083,4103,4125,4145,4164,4185,4205,4224,4244,4265,4284,4304,4324,4345,4364,4384,4405,4425,4444,4464,4484,4505,4524,4545,4564,4585,4604,4624,4644,4664,4684,4704,4724,4744,4765,4784,4805,4824,4845,4865,4885,4904,4924,4944,4965,4984,5004,5025,5045,5065,5084,5104,5124,5145,5164,5184,5205,5225,5244,5265,5283,5304,5324,5344,5364,5384,5404,5425,5444,5465,5485,5505,5524,5544,5565,5585,5604,5623,5644,5664,5685,5705,5724,5744,5765,5784,5804,5823,5844,5864,5884,5904,5923,5944,5965,5985,6004,6025,6044,6064,6084,6104,6124,6144,6165,6185,6205,6224,6244,6264,6284,6305,6324,6344,6365,6385,6405,6424,6444,6464,6484,6504,6524,6545,6564,6584,6604,6625,6644,6664,6684,6705,6725,6745,6764,6785,6805,6824,6844,6864,6885,6904,6924,6944,6964,6985,7004,7024,7044,7064,7084,7104,7123,7144,7164,7185,7204,7224,7244,7264,7284,7304,7324,7344,7365,7384,7404,7424,7444,7464,7485,7505,7524,7544,7564,7585,7605,7625,7644,7663,7684,7704,7724,7745,7764,7785,7805,7824,7844,7865,7885,7905,7924,7944,7965,7984,8004,8025,8044,8064,8084,8104,8124,8145,8164,8184,8205,8224,8244,8264,8284,8305,8324,8345,8363,8385,8404,8424,8445,8464,8484,8504,8524,8544,8565,8584,8604],"xSR":741.5,"ySR":469.95,"xT1":424.9,"yT1":0,"xT2":1058.1,"yT2":0,"toosoon":0,"cond_shown":"Congruent","ratio_trial":200,"L_num":7,"L_den":15,"R_num":18,"R_den":27,"correct_side":2,"subjID":"TomasJimenezMartinez34","gender":"0","age":"11","school":"6","test":{"fix_dur":[250,1500],"timestim":1000,"targets_dim":[100,100],"targets_relative_coord":[0.3,0.7],"size_stim":[880,420],"start_dim":[100,100],"size_start":[300,300],"size_fix":60,"samplingrate":20,"img_types":["Congruent","Incongruent"],"ratios":[100,200,300],"rep_conds":19,"nTrials":120,"trials_to_rest":500,"Trials_order":[8,39,50,99,105,91,27,24,112,92,40,3,115,12,31,54,59,55,4,83,108,75,96,97,34,42,22,38,76,80,103,69,67,100,46,79,68,7,15,77,36,78,107,110,84,66,43,86,20,30,113,53,47,63,90,114,32,74,18,28,65,25,5,89,64,88,51,93,56,23,37,16,98,60,10,17,49,14,57,85,104,13,73,118,81,9,29,71,94,70,19,109,87,101,119,45,52,61,95,35,48,62,82,11,117,21,26,6,1,44,2,41,106,58,116,0,102,72,111,33],"cond_shown":["Congruent","Incongruent","Congruent","Incongruent","Incongruent","Incongruent","Incongruent","Congruent","Congruent","Congruent","Congruent","Incongruent","Incongruent","Congruent","Incongruent","Congruent","Incongruent","Incongruent","Congruent","Incongruent","Congruent","Incongruent","Congruent","Incongruent","Congruent","Congruent","Congruent","Congruent","Congruent","Congruent","Incongruent","Incongruent","Incongruent","Congruent","Congruent","Incongruent","Congruent","Incongruent","Incongruent","Incongruent","Congruent","Congruent","Incongruent","Congruent","Congruent","Congruent","Incongruent","Congruent","Congruent","Congruent","Incongruent","Incongruent","Incongruent","Incongruent","Congruent","Congruent","Congruent","Congruent","Congruent","Congruent","Incongruent","Incongruent","Incongruent","Incongruent","Congruent","Congruent","Incongruent","Incongruent","Congruent","Incongruent","Incongruent","Congruent","Congruent","Congruent","Congruent","Incongruent","Incongruent","Congruent","Incongruent","Incongruent","Congruent","Incongruent","Incongruent","Congruent","Incongruent","Incongruent","Incongruent","Incongruent","Congruent","Congruent","Incongruent","Incongruent","Incongruent","Incongruent","Incongruent","Incongruent","Congruent","Incongruent","Incongruent","Incongruent","Congruent","Congruent","Congruent","Incongruent","Incongruent","Incongruent","Congruent","Congruent","Incongruent","Congruent","Congruent","Incongruent","Congruent","Congruent","Congruent","Congruent","Congruent","Congruent","Incongruent","Incongruent"],"ratio_trial":[200,200,200,200,200,100,200,100,300,200,300,200,100,100,100,100,300,100,300,300,100,200,100,100,300,100,300,200,300,200,100,200,100,300,300,100,200,100,200,300,100,100,300,200,100,100,100,200,200,100,300,300,300,200,100,100,200,200,100,300,300,100,300,300,300,300,200,200,200,300,100,300,200,100,300,300,100,200,200,100,200,100,100,300,200,200,300,300,300,300,100,100,200,300,300,200,300,100,300,300,100,200,300,300,200,200,200,100,100,200,200,300,300,300,200,100,100,100,200,200],"left_num":[7,4,3,3,7,9,7,11,8,16,11,3,12,1,9,2,4,17,1,4,9,4,12,3,18,1,2,3,24,3,12,7,12,20,4,13,6,1,3,3,8,12,4,4,1,1,4,14,8,12,4,8,4,4,7,4,16,3,15,1,1,13,4,2,3,5,9,1,9,13,11,11,4,12,1,7,8,3,7,12,6,6,6,7,7,1,13,13,20,8,6,6,4,2,13,6,1,3,13,13,1,11,7,13,3,14,13,2,8,3,7,4,11,1,4,4,10,4,11,9],"right_num":[18,6,11,1,8,6,14,4,10,9,4,11,2,18,6,6,8,10,7,2,8,14,13,8,9,18,10,9,8,14,2,8,9,13,2,6,11,8,11,4,2,13,6,3,3,18,8,6,7,13,2,14,8,6,9,6,9,9,13,3,2,6,2,6,4,7,8,2,4,12,9,4,3,13,19,8,1,14,12,9,7,3,3,20,12,2,12,12,13,10,3,3,6,6,12,3,3,4,12,12,3,3,20,12,11,12,14,6,1,7,2,6,2,7,3,6,3,6,3,8],"left_den":[15,5,10,10,10,18,10,22,15,30,22,4,30,2,18,5,5,30,20,20,15,6,30,5,20,2,20,12,30,10,30,10,24,25,5,26,20,2,4,6,16,30,5,8,2,2,8,28,15,30,20,10,5,5,14,8,30,12,25,5,2,26,20,4,6,25,15,3,20,26,22,22,10,30,3,10,20,6,10,24,12,12,12,14,10,3,26,26,25,15,12,12,5,4,26,20,5,6,26,26,2,22,14,26,4,30,26,5,20,10,21,5,22,20,8,8,25,8,20,15],"right_den":[27,10,22,2,16,10,28,10,12,27,20,20,4,30,10,12,16,15,20,4,16,30,26,16,15,30,25,20,16,28,4,16,15,26,4,10,22,20,20,20,5,26,12,10,5,30,20,20,21,26,4,28,16,10,15,10,27,20,26,6,10,10,4,30,5,14,10,15,16,15,15,20,15,26,30,20,2,20,24,15,10,5,5,25,24,15,15,15,26,12,5,5,10,30,15,6,6,10,15,15,5,10,25,15,20,18,20,12,2,14,15,12,10,20,10,10,10,10,4,10],"correct_side":[2,1,2,2,1,2,1,1,2,1,1,1,2,2,2,2,1,2,2,2,1,1,2,1,1,2,2,2,1,2,2,1,2,1,1,2,2,1,1,1,1,2,1,1,2,2,1,1,1,2,2,1,1,1,2,2,1,2,1,2,1,2,2,1,2,2,2,1,1,2,2,1,1,2,2,1,2,2,1,2,2,2,2,2,1,1,2,2,1,2,2,2,1,1,2,2,2,1,2,2,2,1,2,2,1,2,2,2,2,2,1,1,1,2,1,2,1,2,2,2],"img_shown":["img2/200/Congruent/R/C_Dist_200_LN_7_LD_15_RN_18_RD_27_1.png","img2/200/Incongruent/L/I_Dist_200_LN_4_LD_5_RN_6_RD_10_0.png","img2/200/Congruent/R/C_Dist_200_LN_3_LD_10_RN_11_RD_22_1.png","img2/200/Incongruent/R/I_Dist_200_LN_3_LD_10_RN_1_RD_2_1.png","img2/200/Incongruent/L/I_Dist_200_LN_7_LD_10_RN_8_RD_16_0.png","img2/100/Incongruent/R/I_Dist_100_LN_9_LD_18_RN_6_RD_10_1.png","img2/200/Incongruent/L/I_Dist_200_LN_7_LD_10_RN_14_RD_28_0.png","img2/100/Congruent/L/C_Dist_100_LN_11_LD_22_RN_4_RD_10_0.png","img2/300/Congruent/R/C_Dist_300_LN_8_LD_15_RN_10_RD_12_1.png","img2/200/Congruent/L/C_Dist_200_LN_16_LD_30_RN_9_RD_27_0.png","img2/300/Congruent/L/C_Dist_300_LN_11_LD_22_RN_4_RD_20_0.png","img2/200/Incongruent/L/I_Dist_200_LN_3_LD_4_RN_11_RD_20_0.png","img2/100/Incongruent/R/I_Dist_100_LN_12_LD_30_RN_2_RD_4_1.png","img2/100/Congruent/R/C_Dist_100_LN_1_LD_2_RN_18_RD_30_1.png","img2/100/Incongruent/R/I_Dist_100_LN_9_LD_18_RN_6_RD_10_1.png","img2/100/Congruent/R/C_Dist_100_LN_2_LD_5_RN_6_RD_12_1.png","img2/300/Incongruent/L/I_Dist_300_LN_4_LD_5_RN_8_RD_16_0.png","img2/100/Incongruent/R/I_Dist_100_LN_17_LD_30_RN_10_RD_15_1.png","img2/300/Congruent/R/C_Dist_300_LN_1_LD_20_RN_7_RD_20_1.png","img2/300/Incongruent/R/I_Dist_300_LN_4_LD_20_RN_2_RD_4_1.png","img2/100/Congruent/L/C_Dist_100_LN_9_LD_15_RN_8_RD_16_0.png","img2/200/Incongruent/L/I_Dist_200_LN_4_LD_6_RN_14_RD_30_0.png","img2/100/Congruent/R/C_Dist_100_LN_12_LD_30_RN_13_RD_26_1.png","img2/100/Incongruent/L/I_Dist_100_LN_3_LD_5_RN_8_RD_16_0.png","img2/300/Congruent/L/C_Dist_300_LN_18_LD_20_RN_9_RD_15_0.png","img2/100/Congruent/R/C_Dist_100_LN_1_LD_2_RN_18_RD_30_1.png","img2/300/Congruent/R/C_Dist_300_LN_2_LD_20_RN_10_RD_25_1.png","img2/200/Congruent/R/C_Dist_200_LN_3_LD_12_RN_9_RD_20_1.png","img2/300/Congruent/L/C_Dist_300_LN_24_LD_30_RN_8_RD_16_0.png","img2/200/Congruent/R/C_Dist_200_LN_3_LD_10_RN_14_RD_28_1.png","img2/100/Incongruent/R/I_Dist_100_LN_12_LD_30_RN_2_RD_4_1.png","img2/200/Incongruent/L/I_Dist_200_LN_7_LD_10_RN_8_RD_16_0.png","img2/100/Incongruent/R/I_Dist_100_LN_12_LD_24_RN_9_RD_15_1.png","img2/300/Congruent/L/C_Dist_300_LN_20_LD_25_RN_13_RD_26_0.png","img2/300/Congruent/L/C_Dist_300_LN_4_LD_5_RN_2_RD_4_0.png","img2/100/Incongruent/R/I_Dist_100_LN_13_LD_26_RN_6_RD_10_1.png","img2/200/Congruent/R/C_Dist_200_LN_6_LD_20_RN_11_RD_22_1.png","img2/100/Incongruent/L/I_Dist_100_LN_1_LD_2_RN_8_RD_20_0.png","img2/200/Incongruent/L/I_Dist_200_LN_3_LD_4_RN_11_RD_20_0.png","img2/300/Incongruent/L/I_Dist_300_LN_3_LD_6_RN_4_RD_20_0.png","img2/100/Congruent/L/C_Dist_100_LN_8_LD_16_RN_2_RD_5_0.png","img2/100/Congruent/R/C_Dist_100_LN_12_LD_30_RN_13_RD_26_1.png","img2/300/Incongruent/L/I_Dist_300_LN_4_LD_5_RN_6_RD_12_0.png","img2/200/Congruent/L/C_Dist_200_LN_4_LD_8_RN_3_RD_10_0.png","img2/100/Congruent/R/C_Dist_100_LN_1_LD_2_RN_3_RD_5_1.png","img2/100/Congruent/R/C_Dist_100_LN_1_LD_2_RN_18_RD_30_1.png","img2/100/Incongruent/L/I_Dist_100_LN_4_LD_8_RN_8_RD_20_0.png","img2/200/Congruent/L/C_Dist_200_LN_14_LD_28_RN_6_RD_20_0.png","img2/200/Congruent/L/C_Dist_200_LN_8_LD_15_RN_7_RD_21_0.png","img2/100/Congruent/R/C_Dist_100_LN_12_LD_30_RN_13_RD_26_1.png","img2/300/Incongruent/R/I_Dist_300_LN_4_LD_20_RN_2_RD_4_1.png","img2/300/Incongruent/L/I_Dist_300_LN_8_LD_10_RN_14_RD_28_0.png","img2/300/Incongruent/L/I_Dist_300_LN_4_LD_5_RN_8_RD_16_0.png","img2/200/Incongruent/L/I_Dist_200_LN_4_LD_5_RN_6_RD_10_0.png","img2/100/Congruent/R/C_Dist_100_LN_7_LD_14_RN_9_RD_15_1.png","img2/100/Congruent/R/C_Dist_100_LN_4_LD_8_RN_6_RD_10_1.png","img2/200/Congruent/L/C_Dist_200_LN_16_LD_30_RN_9_RD_27_0.png","img2/200/Congruent/R/C_Dist_200_LN_3_LD_12_RN_9_RD_20_1.png","img2/100/Congruent/L/C_Dist_100_LN_15_LD_25_RN_13_RD_26_0.png","img2/300/Congruent/R/C_Dist_300_LN_1_LD_5_RN_3_RD_6_1.png","img2/300/Incongruent/L/I_Dist_300_LN_1_LD_2_RN_2_RD_10_0.png","img2/100/Incongruent/R/I_Dist_100_LN_13_LD_26_RN_6_RD_10_1.png","img2/300/Incongruent/R/I_Dist_300_LN_4_LD_20_RN_2_RD_4_1.png","img2/300/Incongruent/L/I_Dist_300_LN_2_LD_4_RN_6_RD_30_0.png","img2/300/Congruent/R/C_Dist_300_LN_3_LD_6_RN_4_RD_5_1.png","img2/300/Congruent/R/C_Dist_300_LN_5_LD_25_RN_7_RD_14_1.png","img2/200/Incongruent/R/I_Dist_200_LN_9_LD_15_RN_8_RD_10_1.png","img2/200/Incongruent/L/I_Dist_200_LN_1_LD_3_RN_2_RD_15_0.png","img2/200/Congruent/L/C_Dist_200_LN_9_LD_20_RN_4_RD_16_0.png","img2/300/Incongruent/R/I_Dist_300_LN_13_LD_26_RN_12_RD_15_1.png","img2/100/Incongruent/R/I_Dist_100_LN_11_LD_22_RN_9_RD_15_1.png","img2/300/Congruent/L/C_Dist_300_LN_11_LD_22_RN_4_RD_20_0.png","img2/200/Congruent/L/C_Dist_200_LN_4_LD_10_RN_3_RD_15_0.png","img2/100/Congruent/R/C_Dist_100_LN_12_LD_30_RN_13_RD_26_1.png","img2/300/Congruent/R/C_Dist_300_LN_1_LD_3_RN_19_RD_30_1.png","img2/300/Incongruent/L/I_Dist_300_LN_7_LD_10_RN_8_RD_20_0.png","img2/100/Incongruent/R/I_Dist_100_LN_8_LD_20_RN_1_RD_2_1.png","img2/200/Congruent/R/C_Dist_200_LN_3_LD_6_RN_14_RD_20_1.png","img2/200/Incongruent/L/I_Dist_200_LN_7_LD_10_RN_12_RD_24_0.png","img2/100/Incongruent/R/I_Dist_100_LN_12_LD_24_RN_9_RD_15_1.png","img2/200/Congruent/R/C_Dist_200_LN_6_LD_12_RN_7_RD_10_1.png","img2/100/Incongruent/R/I_Dist_100_LN_6_LD_12_RN_3_RD_5_1.png","img2/100/Incongruent/R/I_Dist_100_LN_6_LD_12_RN_3_RD_5_1.png","img2/300/Congruent/R/C_Dist_300_LN_7_LD_14_RN_20_RD_25_1.png","img2/200/Incongruent/L/I_Dist_200_LN_7_LD_10_RN_12_RD_24_0.png","img2/200/Incongruent/L/I_Dist_200_LN_1_LD_3_RN_2_RD_15_0.png","img2/300/Incongruent/R/I_Dist_300_LN_13_LD_26_RN_12_RD_15_1.png","img2/300/Incongruent/R/I_Dist_300_LN_13_LD_26_RN_12_RD_15_1.png","img2/300/Congruent/L/C_Dist_300_LN_20_LD_25_RN_13_RD_26_0.png","img2/300/Congruent/R/C_Dist_300_LN_8_LD_15_RN_10_RD_12_1.png","img2/100/Incongruent/R/I_Dist_100_LN_6_LD_12_RN_3_RD_5_1.png","img2/100/Incongruent/R/I_Dist_100_LN_6_LD_12_RN_3_RD_5_1.png","img2/200/Incongruent/L/I_Dist_200_LN_4_LD_5_RN_6_RD_10_0.png","img2/300/Incongruent/L/I_Dist_300_LN_2_LD_4_RN_6_RD_30_0.png","img2/300/Incongruent/R/I_Dist_300_LN_13_LD_26_RN_12_RD_15_1.png","img2/200/Incongruent/R/I_Dist_200_LN_6_LD_20_RN_3_RD_6_1.png","img2/300/Congruent/R/C_Dist_300_LN_1_LD_5_RN_3_RD_6_1.png","img2/100/Incongruent/L/I_Dist_100_LN_3_LD_6_RN_4_RD_10_0.png","img2/300/Incongruent/R/I_Dist_300_LN_13_LD_26_RN_12_RD_15_1.png","img2/300/Incongruent/R/I_Dist_300_LN_13_LD_26_RN_12_RD_15_1.png","img2/100/Congruent/R/C_Dist_100_LN_1_LD_2_RN_3_RD_5_1.png","img2/200/Congruent/L/C_Dist_200_LN_11_LD_22_RN_3_RD_10_0.png","img2/300/Congruent/R/C_Dist_300_LN_7_LD_14_RN_20_RD_25_1.png","img2/300/Incongruent/R/I_Dist_300_LN_13_LD_26_RN_12_RD_15_1.png","img2/200/Incongruent/L/I_Dist_200_LN_3_LD_4_RN_11_RD_20_0.png","img2/200/Incongruent/R/I_Dist_200_LN_14_LD_30_RN_12_RD_18_1.png","img2/200/Congruent/R/C_Dist_200_LN_13_LD_26_RN_14_RD_20_1.png","img2/100/Congruent/R/C_Dist_100_LN_2_LD_5_RN_6_RD_12_1.png","img2/100/Incongruent/R/I_Dist_100_LN_8_LD_20_RN_1_RD_2_1.png","img2/200/Congruent/R/C_Dist_200_LN_3_LD_10_RN_7_RD_14_1.png","img2/200/Congruent/L/C_Dist_200_LN_7_LD_21_RN_2_RD_15_0.png","img2/300/Incongruent/L/I_Dist_300_LN_4_LD_5_RN_6_RD_12_0.png","img2/300/Congruent/L/C_Dist_300_LN_11_LD_22_RN_2_RD_10_0.png","img2/300/Congruent/R/C_Dist_300_LN_1_LD_20_RN_7_RD_20_1.png","img2/200/Congruent/L/C_Dist_200_LN_4_LD_8_RN_3_RD_10_0.png","img2/100/Congruent/R/C_Dist_100_LN_4_LD_8_RN_6_RD_10_1.png","img2/100/Congruent/L/C_Dist_100_LN_10_LD_25_RN_3_RD_10_0.png","img2/100/Congruent/R/C_Dist_100_LN_4_LD_8_RN_6_RD_10_1.png","img2/200/Incongruent/R/I_Dist_200_LN_11_LD_20_RN_3_RD_4_1.png","img2/200/Incongruent/R/I_Dist_200_LN_9_LD_15_RN_8_RD_10_1.png"],"dist100_C":[["C_Dist_100_LN_10_LD_25_RN_3_RD_10_0.png","C_Dist_100_LN_11_LD_22_RN_4_RD_10_0.png","C_Dist_100_LN_11_LD_22_RN_6_RD_15_0.png","C_Dist_100_LN_15_LD_25_RN_13_RD_26_0.png","C_Dist_100_LN_3_LD_6_RN_2_RD_5_0.png","C_Dist_100_LN_6_LD_20_RN_5_RD_25_0.png","C_Dist_100_LN_8_LD_16_RN_2_RD_5_0.png","C_Dist_100_LN_9_LD_15_RN_8_RD_16_0.png"],["C_Dist_100_LN_1_LD_2_RN_18_RD_30_1.png","C_Dist_100_LN_1_LD_2_RN_3_RD_5_1.png","C_Dist_100_LN_12_LD_30_RN_13_RD_26_1.png","C_Dist_100_LN_2_LD_5_RN_11_RD_22_1.png","C_Dist_100_LN_2_LD_5_RN_6_RD_12_1.png","C_Dist_100_LN_3_LD_20_RN_4_RD_16_1.png","C_Dist_100_LN_4_LD_10_RN_15_RD_30_1.png","C_Dist_100_LN_4_LD_8_RN_6_RD_10_1.png","C_Dist_100_LN_6_LD_12_RN_15_RD_25_1.png","C_Dist_100_LN_7_LD_14_RN_15_RD_25_1.png","C_Dist_100_LN_7_LD_14_RN_9_RD_15_1.png"]],"dist100_I":[["I_Dist_100_LN_1_LD_2_RN_8_RD_20_0.png","I_Dist_100_LN_2_LD_4_RN_6_RD_15_0.png","I_Dist_100_LN_2_LD_4_RN_8_RD_20_0.png","I_Dist_100_LN_3_LD_5_RN_11_RD_22_0.png","I_Dist_100_LN_3_LD_5_RN_8_RD_16_0.png","I_Dist_100_LN_3_LD_6_RN_4_RD_10_0.png","I_Dist_100_LN_3_LD_9_RN_7_RD_30_0.png","I_Dist_100_LN_4_LD_8_RN_8_RD_20_0.png","I_Dist_100_LN_6_LD_10_RN_11_RD_22_0.png","I_Dist_100_LN_6_LD_10_RN_13_RD_26_0.png","I_Dist_100_LN_6_LD_10_RN_7_RD_14_0.png","I_Dist_100_LN_9_LD_10_RN_20_RD_25_0.png","I_Dist_100_LN_9_LD_15_RN_13_RD_26_0.png","I_Dist_100_LN_9_LD_15_RN_14_RD_28_0.png"],["I_Dist_100_LN_10_LD_25_RN_8_RD_16_1.png","I_Dist_100_LN_10_LD_25_RN_9_RD_18_1.png","I_Dist_100_LN_11_LD_22_RN_9_RD_15_1.png","I_Dist_100_LN_12_LD_24_RN_9_RD_15_1.png","I_Dist_100_LN_12_LD_30_RN_2_RD_4_1.png","I_Dist_100_LN_13_LD_26_RN_12_RD_20_1.png","I_Dist_100_LN_13_LD_26_RN_6_RD_10_1.png","I_Dist_100_LN_17_LD_30_RN_10_RD_15_1.png","I_Dist_100_LN_6_LD_12_RN_3_RD_5_1.png","I_Dist_100_LN_8_LD_16_RN_6_RD_10_1.png","I_Dist_100_LN_8_LD_20_RN_1_RD_2_1.png","I_Dist_100_LN_9_LD_18_RN_6_RD_10_1.png"]],"dist100_S":[["E_Dist_100_LN_2_LD_12_RN_2_RD_30_0.png","E_Dist_100_LN_6_LD_10_RN_6_RD_12_0.png"],["E_Dist_100_LN_6_LD_12_RN_6_RD_10_1.png"]],"dist200_C":[["C_Dist_200_LN_11_LD_22_RN_3_RD_10_0.png","C_Dist_200_LN_12_LD_15_RN_6_RD_10_0.png","C_Dist_200_LN_12_LD_20_RN_6_RD_15_0.png","C_Dist_200_LN_14_LD_28_RN_6_RD_20_0.png","C_Dist_200_LN_15_LD_25_RN_4_RD_10_0.png","C_Dist_200_LN_16_LD_20_RN_12_RD_20_0.png","C_Dist_200_LN_16_LD_30_RN_9_RD_27_0.png","C_Dist_200_LN_20_LD_25_RN_9_RD_15_0.png","C_Dist_200_LN_21_LD_30_RN_2_RD_4_0.png","C_Dist_200_LN_4_LD_10_RN_3_RD_15_0.png","C_Dist_200_LN_4_LD_8_RN_3_RD_10_0.png","C_Dist_200_LN_6_LD_15_RN_3_RD_15_0.png","C_Dist_200_LN_7_LD_21_RN_2_RD_15_0.png","C_Dist_200_LN_8_LD_15_RN_2_RD_6_0.png","C_Dist_200_LN_8_LD_15_RN_3_RD_9_0.png","C_Dist_200_LN_8_LD_15_RN_7_RD_21_0.png","C_Dist_200_LN_9_LD_20_RN_4_RD_16_0.png"],["C_Dist_200_LN_1_LD_2_RN_21_RD_30_1.png","C_Dist_200_LN_13_LD_26_RN_14_RD_20_1.png","C_Dist_200_LN_3_LD_10_RN_11_RD_22_1.png","C_Dist_200_LN_3_LD_10_RN_14_RD_28_1.png","C_Dist_200_LN_3_LD_10_RN_7_RD_14_1.png","C_Dist_200_LN_3_LD_12_RN_9_RD_20_1.png","C_Dist_200_LN_3_LD_6_RN_14_RD_20_1.png","C_Dist_200_LN_5_LD_10_RN_14_RD_20_1.png","C_Dist_200_LN_6_LD_12_RN_7_RD_10_1.png","C_Dist_200_LN_6_LD_20_RN_11_RD_22_1.png","C_Dist_200_LN_7_LD_15_RN_18_RD_27_1.png","C_Dist_200_LN_9_LD_30_RN_13_RD_26_1.png"]],"dist200_I":[["I_Dist_200_LN_1_LD_2_RN_3_RD_10_0.png","I_Dist_200_LN_1_LD_3_RN_2_RD_15_0.png","I_Dist_200_LN_3_LD_4_RN_11_RD_20_0.png","I_Dist_200_LN_4_LD_5_RN_6_RD_10_0.png","I_Dist_200_LN_4_LD_6_RN_14_RD_30_0.png","I_Dist_200_LN_7_LD_10_RN_12_RD_24_0.png","I_Dist_200_LN_7_LD_10_RN_14_RD_28_0.png","I_Dist_200_LN_7_LD_10_RN_8_RD_16_0.png"],["I_Dist_200_LN_11_LD_20_RN_3_RD_4_1.png","I_Dist_200_LN_14_LD_30_RN_12_RD_18_1.png","I_Dist_200_LN_14_LD_30_RN_6_RD_9_1.png","I_Dist_200_LN_3_LD_10_RN_1_RD_2_1.png","I_Dist_200_LN_4_LD_30_RN_1_RD_3_1.png","I_Dist_200_LN_6_LD_20_RN_3_RD_6_1.png","I_Dist_200_LN_7_LD_15_RN_4_RD_6_1.png","I_Dist_200_LN_7_LD_15_RN_6_RD_9_1.png","I_Dist_200_LN_9_LD_15_RN_8_RD_10_1.png"]],"dist200_S":[["E_Dist_200_LN_3_LD_6_RN_3_RD_10_0.png"],["E_Dist_200_LN_3_LD_10_RN_3_RD_6_1.png"]],"dist300_C":[["C_Dist_300_LN_11_LD_22_RN_1_RD_5_0.png","C_Dist_300_LN_11_LD_22_RN_2_RD_10_0.png","C_Dist_300_LN_11_LD_22_RN_4_RD_20_0.png","C_Dist_300_LN_12_LD_24_RN_2_RD_10_0.png","C_Dist_300_LN_18_LD_20_RN_9_RD_15_0.png","C_Dist_300_LN_20_LD_25_RN_13_RD_26_0.png","C_Dist_300_LN_20_LD_25_RN_14_RD_28_0.png","C_Dist_300_LN_20_LD_25_RN_5_RD_10_0.png","C_Dist_300_LN_20_LD_25_RN_8_RD_16_0.png","C_Dist_300_LN_20_LD_25_RN_9_RD_18_0.png","C_Dist_300_LN_24_LD_30_RN_2_RD_4_0.png","C_Dist_300_LN_24_LD_30_RN_8_RD_16_0.png","C_Dist_300_LN_3_LD_6_RN_2_RD_10_0.png","C_Dist_300_LN_4_LD_10_RN_1_RD_10_0.png","C_Dist_300_LN_4_LD_5_RN_2_RD_4_0.png","C_Dist_300_LN_8_LD_16_RN_1_RD_5_0.png","C_Dist_300_LN_9_LD_10_RN_3_RD_5_0.png"],["C_Dist_300_LN_1_LD_20_RN_7_RD_20_1.png","C_Dist_300_LN_1_LD_3_RN_19_RD_30_1.png","C_Dist_300_LN_1_LD_30_RN_8_RD_24_1.png","C_Dist_300_LN_1_LD_5_RN_11_RD_22_1.png","C_Dist_300_LN_1_LD_5_RN_3_RD_6_1.png","C_Dist_300_LN_1_LD_5_RN_6_RD_12_1.png","C_Dist_300_LN_2_LD_10_RN_12_RD_24_1.png","C_Dist_300_LN_2_LD_20_RN_10_RD_25_1.png","C_Dist_300_LN_3_LD_12_RN_11_RD_20_1.png","C_Dist_300_LN_3_LD_6_RN_4_RD_5_1.png","C_Dist_300_LN_4_LD_20_RN_13_RD_26_1.png","C_Dist_300_LN_5_LD_25_RN_6_RD_12_1.png","C_Dist_300_LN_5_LD_25_RN_7_RD_14_1.png","C_Dist_300_LN_7_LD_14_RN_20_RD_25_1.png","C_Dist_300_LN_8_LD_15_RN_10_RD_12_1.png"]],"dist300_I":[["I_Dist_300_LN_1_LD_2_RN_2_RD_10_0.png","I_Dist_300_LN_1_LD_2_RN_3_RD_15_0.png","I_Dist_300_LN_2_LD_4_RN_6_RD_30_0.png","I_Dist_300_LN_3_LD_6_RN_4_RD_20_0.png","I_Dist_300_LN_4_LD_5_RN_6_RD_12_0.png","I_Dist_300_LN_4_LD_5_RN_8_RD_16_0.png","I_Dist_300_LN_7_LD_10_RN_8_RD_20_0.png","I_Dist_300_LN_8_LD_10_RN_14_RD_28_0.png","I_Dist_300_LN_8_LD_10_RN_9_RD_18_0.png"],["I_Dist_300_LN_13_LD_26_RN_12_RD_15_1.png","I_Dist_300_LN_4_LD_20_RN_2_RD_4_1.png"]],"dist300_S":[["E_Dist_300_LN_9_LD_12_RN_9_RD_20_0.png"],["E_Dist_300_LN_18_LD_30_RN_18_RD_20_1.png","E_Dist_300_LN_3_LD_10_RN_3_RD_5_1.png","E_Dist_300_LN_9_LD_20_RN_9_RD_12_1.png"]],"dist500_C":[["C_Dist_500_LN_10_LD_13_RN_7_RD_26_0.png","C_Dist_500_LN_10_LD_15_RN_4_RD_24_0.png","C_Dist_500_LN_12_LD_16_RN_3_RD_12_0.png","C_Dist_500_LN_12_LD_18_RN_4_RD_24_0.png","C_Dist_500_LN_15_LD_18_RN_5_RD_15_0.png","C_Dist_500_LN_15_LD_20_RN_1_RD_4_0.png","C_Dist_500_LN_18_LD_27_RN_1_RD_6_0.png","C_Dist_500_LN_20_LD_24_RN_1_RD_3_0.png","C_Dist_500_LN_20_LD_24_RN_3_RD_9_0.png","C_Dist_500_LN_20_LD_24_RN_7_RD_21_0.png","C_Dist_500_LN_20_LD_28_RN_3_RD_14_0.png","C_Dist_500_LN_21_LD_28_RN_6_RD_24_0.png","C_Dist_500_LN_22_LD_28_RN_2_RD_7_0.png","C_Dist_500_LN_25_LD_30_RN_9_RD_27_0.png","C_Dist_500_LN_4_LD_6_RN_1_RD_6_0.png","C_Dist_500_LN_5_LD_6_RN_2_RD_6_0.png","C_Dist_500_LN_6_LD_9_RN_1_RD_6_0.png","C_Dist_500_LN_7_LD_10_RN_1_RD_5_0.png","C_Dist_500_LN_8_LD_12_RN_1_RD_6_0.png","C_Dist_500_LN_8_LD_12_RN_4_RD_24_0.png"],["C_Dist_500_LN_1_LD_4_RN_12_RD_16_1.png","C_Dist_500_LN_1_LD_4_RN_9_RD_12_1.png","C_Dist_500_LN_1_LD_9_RN_11_RD_18_1.png","C_Dist_500_LN_10_LD_24_RN_22_RD_24_1.png","C_Dist_500_LN_2_LD_12_RN_10_RD_15_1.png","C_Dist_500_LN_2_LD_12_RN_12_RD_18_1.png","C_Dist_500_LN_2_LD_12_RN_4_RD_6_1.png","C_Dist_500_LN_2_LD_24_RN_7_RD_12_1.png","C_Dist_500_LN_2_LD_5_RN_18_RD_20_1.png","C_Dist_500_LN_2_LD_5_RN_9_RD_10_1.png","C_Dist_500_LN_2_LD_8_RN_12_RD_16_1.png","C_Dist_500_LN_2_LD_8_RN_21_RD_28_1.png","C_Dist_500_LN_3_LD_10_RN_4_RD_5_1.png","C_Dist_500_LN_3_LD_12_RN_15_RD_20_1.png","C_Dist_500_LN_3_LD_30_RN_6_RD_10_1.png","C_Dist_500_LN_3_LD_8_RN_14_RD_16_1.png","C_Dist_500_LN_4_LD_16_RN_15_RD_20_1.png","C_Dist_500_LN_4_LD_24_RN_12_RD_18_1.png","C_Dist_500_LN_5_LD_14_RN_6_RD_7_1.png","C_Dist_500_LN_7_LD_21_RN_20_RD_24_1.png","C_Dist_500_LN_7_LD_28_RN_12_RD_16_1.png","C_Dist_500_LN_7_LD_28_RN_9_RD_12_1.png","C_Dist_500_LN_9_LD_27_RN_20_RD_24_1.png"]],"dist500_I":[["I_Dist_500_LN_2_LD_3_RN_4_RD_24_0.png","I_Dist_500_LN_5_LD_6_RN_6_RD_18_0.png","I_Dist_500_LN_7_LD_8_RN_9_RD_24_0.png"],["I_Dist_500_LN_7_LD_21_RN_5_RD_6_1.png"]],"dist500_S":[["E_Dist_500_LN_6_LD_8_RN_6_RD_24_0.png"],["E_Dist_500_LN_2_LD_12_RN_2_RD_3_1.png","E_Dist_500_LN_6_LD_24_RN_6_RD_8_1.png"]]}},{"start_time":1551899773780,"click_time":1551899776181,"finger_time":1551899775980,"fix_duration":278.83570508522104,"trial":1,"RT":2200,"MT":201,"sideResp":2,"stimulus":[],"xmouse":[779,779,779,779,779,779,779,779,779,779,779,779,779,779,779,779,779,779,779,779,779,779,779,779,779,779,779,779,779,779,779,779,779,779,779,779,779,779,779,779,779,779,779,779,779,779,779,779,781,785,795,797,800,801,801,801,801,801,801,801,801,801,801,801,801,801,801,801,801,796,787,777,764,759,756,754,754,754,754,754,754,754,754,754,754,762,771,778,782,784,787,790,791,793,793,794,794,794,794,794,795,796,797,797,799,803,807,810,817,826,844,854,867,892,911,946,969,993,1016,1040,1084],"ymouse":[648,648,648,648,648,648,648,648,648,648,648,648,648,648,648,648,648,648,648,648,648,648,648,648,648,648,648,648,648,648,648,648,648,648,648,648,648,648,648,648,648,648,648,648,648,648,648,643,638,630,612,606,600,599,599,599,599,599,599,599,599,599,599,599,599,599,599,599,599,604,613,625,639,648,654,657,657,657,657,657,657,657,657,657,657,652,648,643,640,638,636,634,632,631,630,630,630,630,630,630,628,627,626,624,621,614,607,602,591,578,545,521,498,450,409,323,267,210,154,100,2],"timestamp_mouse":[8,31,40,61,80,100,121,141,160,180,201,221,240,261,281,300,321,340,361,381,400,421,441,461,480,501,520,541,561,581,601,621,640,660,679,700,720,741,761,780,800,820,840,861,880,901,920,941,960,981,1000,1020,1040,1061,1079,1100,1121,1141,1161,1180,1201,1221,1239,1260,1280,1299,1321,1339,1360,1381,1400,1420,1440,1460,1480,1500,1519,1541,1560,1580,1600,1621,1641,1660,1680,1700,1720,1740,1760,1781,1800,1820,1840,1860,1880,1900,1921,1940,1961,1979,2000,2020,2041,2061,2081,2101,2120,2140,2160,2179,2200,2220,2240,2260,2280,2300,2320,2340,2361,2381,2400],"xSR":741.5,"ySR":573.95,"xT1":424.9,"yT1":0,"xT2":1058.1,"yT2":0,"toosoon":0,"cond_shown":"Incongruent","ratio_trial":200,"L_num":4,"L_den":5,"R_num":6,"R_den":10,"correct_side":1,"subjID":"TomasJimenezMartinez34","gender":"0","school":"6","age":"11"},{"start_time":1551899778307,"click_time":1551899779620,"finger_time":1551899779380,"fix_duration":904.2869933691766,"trial":2,"RT":1073,"MT":240,"sideResp":2,"stimulus":[],"xmouse":[786,786,786,786,786,786,786,786,786,786,786,786,786,786,786,786,786,786,786,786,786,786,787,787,787,787,787,787,787,787,787,787,787,787,787,787,787,787,787,787,787,787,787,788,789,789,791,792,796,798,800,802,804,815,826,841,877,908,975,1010,1044,1071,1092,1120,1132,1143],"ymouse":[637,637,637,637,637,637,637,637,637,637,637,637,637,637,637,637,637,637,637,637,637,637,635,635,634,633,633,633,633,633,633,633,633,633,633,633,632,631,631,631,631,631,631,630,627,626,623,619,609,605,600,595,590,570,552,530,475,427,326,274,237,202,176,130,104,77],"timestamp_mouse":[14,38,53,73,94,113,133,153,173,193,214,233,253,273,294,314,334,353,374,393,414,433,454,474,493,514,534,553,573,593,613,634,653,674,693,714,734,753,772,793,813,833,853,873,893,914,934,954,973,993,1013,1034,1054,1073,1093,1113,1133,1154,1173,1193,1213,1234,1253,1273,1294,1313],"xSR":741.5,"ySR":573.95,"xT1":424.9,"yT1":0,"xT2":1058.1,"yT2":0,"toosoon":0,"cond_shown":"Congruent","ratio_trial":200,"L_num":3,"L_den":10,"R_num":11,"R_den":22,"correct_side":2,"subjID":"TomasJimenezMartinez34","gender":"0","school":"6","age":"11"},{"start_time":1551899781809,"click_time":1551899784380,"finger_time":1551899783861,"fix_duration":986.1304370384682,"trial":3,"RT":2052,"MT":519,"sideResp":1,"stimulus":[],"xmouse":[802,802,802,802,802,802,802,802,802,802,802,802,802,802,802,802,802,802,802,802,802,802,802,802,802,802,802,802,802,802,802,802,802,802,802,802,802,802,802,802,802,802,802,802,802,802,802,802,802,802,802,802,802,802,802,802,802,802,802,802,802,802,802,802,802,802,802,802,802,802,802,802,802,802,802,802,802,802,802,802,802,802,802,802,802,802,802,802,802,802,802,802,802,802,801,801,801,801,801,801,800,798,791,766,751,740,728,713,686,671,661,658,651,641,632,625,617,607,601,594,586,569,563,559,557,552,546,538,523],"ymouse":[637,637,637,637,637,637,637,637,637,637,637,637,637,637,637,637,637,637,637,637,637,637,637,637,637,637,637,637,637,637,637,637,637,637,637,637,637,637,637,637,637,637,637,637,637,637,637,637,637,637,637,637,637,637,637,637,637,637,637,637,637,637,637,637,637,637,637,637,637,637,637,637,637,637,637,637,637,637,637,637,637,637,637,637,637,637,637,637,637,637,637,637,637,632,628,625,621,620,615,609,601,589,561,501,466,438,411,382,333,311,289,282,268,250,239,231,223,213,205,193,180,154,140,122,117,110,102,89,62],"timestamp_mouse":[11,33,51,71,91,112,132,152,170,191,212,231,252,272,292,311,332,352,371,391,411,431,451,471,491,511,531,551,572,592,611,631,651,671,692,712,732,751,771,791,812,831,850,872,892,911,931,951,971,991,1011,1031,1052,1071,1092,1112,1132,1152,1172,1191,1211,1232,1251,1271,1291,1311,1332,1351,1371,1392,1411,1431,1451,1471,1491,1511,1531,1551,1572,1591,1611,1632,1651,1672,1690,1710,1731,1751,1772,1791,1811,1831,1852,1871,1891,1912,1931,1951,1971,1992,2011,2031,2052,2071,2091,2111,2132,2152,2171,2191,2212,2230,2252,2271,2291,2311,2332,2352,2370,2392,2411,2432,2452,2471,2492,2511,2531,2552,2571],"xSR":741.5,"ySR":573.95,"xT1":424.9,"yT1":0,"xT2":1058.1,"yT2":0,"toosoon":0,"cond_shown":"Incongruent","ratio_trial":200,"L_num":3,"L_den":10,"R_num":1,"R_den":2,"correct_side":2,"subjID":"TomasJimenezMartinez34","gender":"0","school":"6","age":"11"},{"start_time":1551899787499,"click_time":1551899790060,"finger_time":1551899789440,"fix_duration":598.2342824777877,"trial":4,"RT":1941,"MT":620,"sideResp":2,"stimulus":[],"xmouse":[822,822,822,822,822,822,822,822,822,822,822,822,822,822,822,822,822,822,822,822,822,822,822,822,822,822,822,822,822,822,822,822,822,822,822,822,822,822,822,822,822,822,822,822,822,822,822,822,822,822,822,822,822,822,822,822,822,822,822,822,822,822,822,822,822,822,822,822,822,822,822,822,822,822,822,822,822,822,822,822,822,822,822,822,822,822,822,822,822,822,822,822,822,822,824,830,840,853,862,882,892,902,913,929,965,981,994,1011,1028,1036,1043,1049,1056,1063,1071,1072,1072,1072,1072,1073,1073,1075,1076,1078,1081,1081,1082,1083,1084],"ymouse":[645,645,645,645,645,645,645,645,645,645,645,645,645,645,645,645,645,645,645,645,645,645,645,645,645,645,645,645,645,645,645,645,645,645,645,645,645,645,645,645,645,645,645,645,645,645,645,645,645,645,645,645,645,645,645,645,645,645,645,645,645,645,645,645,645,645,645,645,645,645,645,645,645,645,645,645,645,645,645,645,645,645,645,645,645,645,645,645,645,645,645,645,645,641,626,611,593,564,544,497,474,450,425,397,343,316,294,261,220,202,189,173,160,150,136,133,133,132,132,130,127,123,119,114,108,105,103,101,99],"timestamp_mouse":[8,33,41,60,81,100,121,141,161,182,201,221,241,262,282,301,321,341,362,381,401,421,440,461,481,500,522,541,561,581,601,622,642,662,681,701,722,741,762,782,801,822,841,861,882,901,922,942,961,982,1001,1021,1042,1062,1081,1102,1122,1141,1162,1182,1201,1222,1241,1262,1280,1302,1322,1341,1361,1381,1402,1422,1441,1462,1481,1500,1522,1542,1561,1581,1601,1622,1641,1661,1681,1701,1722,1741,1761,1781,1802,1822,1841,1861,1881,1901,1921,1941,1961,1981,2001,2021,2042,2061,2081,2102,2121,2141,2162,2180,2201,2221,2242,2262,2281,2302,2321,2341,2362,2382,2401,2421,2442,2462,2481,2501,2520,2541,2561],"xSR":741.5,"ySR":573.95,"xT1":424.9,"yT1":0,"xT2":1058.1,"yT2":0,"toosoon":0,"cond_shown":"Incongruent","ratio_trial":200,"L_num":7,"L_den":10,"R_num":8,"R_den":16,"correct_side":1,"subjID":"TomasJimenezMartinez34","gender":"0","school":"6","age":"11"},{"start_time":1551899792431,"click_time":1551899794441,"finger_time":1551899793760,"fix_duration":1068.563378590899,"trial":5,"RT":1329,"MT":681,"sideResp":1,"stimulus":[],"xmouse":[823,823,823,823,823,823,823,823,823,823,823,823,823,823,823,823,823,823,823,823,823,823,823,823,823,823,823,823,823,823,823,823,823,823,823,823,823,823,823,823,823,823,823,823,823,823,823,823,823,823,823,823,823,823,823,823,823,823,823,823,823,823,823,819,811,797,778,737,719,703,674,656,632,626,624,622,619,605,594,581,574,562,552,549,547,545,543,543,543,542,539,536,535,535,534,533,530,527,526,525,523],"ymouse":[642,642,642,642,642,642,642,642,642,642,642,642,642,642,642,642,642,642,642,642,642,642,642,642,642,642,642,642,642,642,642,642,642,642,642,642,642,642,642,642,642,642,642,642,642,642,642,642,642,642,642,642,642,642,642,642,642,642,642,642,642,642,642,639,624,600,566,483,440,395,338,307,264,248,239,229,217,177,150,119,92,56,27,20,17,15,14,14,14,14,14,14,14,14,14,14,14,15,15,17,18],"timestamp_mouse":[14,36,49,69,89,109,130,149,169,190,209,229,249,268,290,310,329,349,369,390,409,430,450,469,489,509,529,549,569,589,610,629,649,669,690,709,729,749,769,789,809,829,849,869,889,910,929,950,969,990,1009,1029,1049,1070,1090,1109,1130,1149,1170,1190,1209,1229,1249,1269,1289,1310,1329,1349,1369,1388,1409,1429,1449,1469,1489,1510,1530,1549,1569,1589,1609,1629,1649,1670,1689,1710,1730,1749,1770,1789,1810,1829,1849,1870,1889,1909,1930,1950,1969,1989,2009],"xSR":741.5,"ySR":573.95,"xT1":424.9,"yT1":0,"xT2":1058.1,"yT2":0,"toosoon":0,"cond_shown":"Incongruent","ratio_trial":100,"L_num":9,"L_den":18,"R_num":6,"R_den":10,"correct_side":2,"subjID":"TomasJimenezMartinez34","gender":"0","school":"6","age":"11"},{"start_time":1551899796555,"click_time":1551899798922,"finger_time":1551899798220,"fix_duration":713.5383478649975,"trial":6,"RT":1665,"MT":702,"sideResp":1,"stimulus":[],"xmouse":[806,806,806,806,806,806,806,806,806,806,806,806,806,806,806,806,806,806,806,806,806,806,806,806,806,806,806,806,806,806,806,806,806,806,806,806,806,806,806,806,806,806,806,806,806,806,806,806,806,806,806,806,806,806,806,806,806,806,806,806,806,806,806,806,806,806,806,806,806,806,806,806,806,806,806,806,806,809,813,816,818,824,825,826,829,831,837,842,844,849,851,853,853,852,846,839,810,788,750,703,663,605,583,575,552,539,525,521,518,516,516,516,516,516,516,514,512,510,508],"ymouse":[625,625,625,625,625,625,625,625,625,625,625,625,625,625,625,625,625,625,625,625,625,625,625,625,625,625,625,625,625,625,625,625,625,625,625,625,625,625,625,625,625,625,625,625,625,625,625,625,625,625,625,625,625,625,625,625,625,625,625,625,625,625,625,625,625,625,625,625,625,625,625,625,625,625,625,625,625,618,610,606,599,581,574,571,562,557,542,534,525,516,509,498,493,488,482,475,446,424,390,352,320,259,221,208,177,162,142,133,125,121,120,119,119,119,118,114,106,100,95],"timestamp_mouse":[8,40,45,65,85,106,125,145,166,185,206,225,245,265,284,305,325,344,366,385,405,425,444,466,485,505,525,546,565,585,604,625,645,665,685,706,725,745,765,785,805,826,846,865,886,905,926,945,964,986,1005,1025,1046,1066,1085,1106,1125,1145,1166,1185,1206,1226,1246,1266,1286,1305,1326,1344,1366,1385,1404,1426,1445,1465,1486,1505,1525,1545,1566,1585,1605,1625,1646,1665,1685,1705,1725,1745,1766,1786,1805,1825,1846,1865,1885,1906,1925,1945,1964,1986,2005,2025,2046,2065,2085,2105,2125,2145,2165,2185,2205,2225,2245,2265,2285,2305,2325,2345,2366],"xSR":741.5,"ySR":573.95,"xT1":424.9,"yT1":0,"xT2":1058.1,"yT2":0,"toosoon":0,"cond_shown":"Incongruent","ratio_trial":200,"L_num":7,"L_den":10,"R_num":14,"R_den":28,"correct_side":1,"subjID":"TomasJimenezMartinez34","gender":"0","school":"6","age":"11"},{"start_time":1551899801532,"click_time":1551899803380,"finger_time":1551899802980,"fix_duration":250,"trial":7,"RT":1448,"MT":400,"sideResp":1,"stimulus":[],"xmouse":[778,778,778,778,778,778,778,778,778,778,778,778,778,778,778,778,778,778,778,778,778,778,778,778,778,778,778,778,778,778,778,778,778,778,778,778,778,778,778,778,778,778,778,778,778,778,778,778,778,778,778,778,778,778,778,778,778,778,778,778,778,778,778,778,778,778,778,778,778,778,778,778,772,759,740,718,691,656,640,624,610,598,573,565,557,551,548,542,540,538,535,531,523],"ymouse":[599,599,599,599,599,599,599,599,599,599,599,599,599,599,599,599,599,599,599,599,599,599,599,599,599,599,599,599,599,599,599,599,599,599,599,599,599,599,599,599,599,599,599,599,599,599,599,599,599,599,599,599,599,599,599,599,599,599,599,599,599,599,599,599,599,599,599,599,599,598,593,584,543,511,468,429,372,301,272,243,222,201,162,147,132,119,112,105,102,98,94,87,78],"timestamp_mouse":[10,32,48,68,87,109,128,148,168,188,209,228,248,268,289,308,328,348,369,389,408,428,448,468,488,509,527,549,568,588,608,628,648,669,688,709,729,748,769,788,808,828,848,868,888,909,929,949,969,989,1008,1028,1049,1069,1089,1108,1128,1149,1169,1189,1209,1229,1248,1268,1288,1308,1329,1348,1368,1388,1408,1427,1447,1468,1488,1508,1529,1549,1568,1588,1609,1629,1648,1668,1688,1708,1728,1748,1768,1788,1808,1828,1848],"xSR":741.5,"ySR":573.95,"xT1":424.9,"yT1":0,"xT2":1058.1,"yT2":0,"toosoon":0,"cond_shown":"Congruent","ratio_trial":100,"L_num":11,"L_den":22,"R_num":4,"R_den":10,"correct_side":1,"subjID":"TomasJimenezMartinez34","gender":"0","school":"6","age":"11"},{"start_time":1551899805987,"click_time":1551899807680,"finger_time":1551899807241,"fix_duration":1166.4726229661665,"trial":8,"RT":1254,"MT":439,"sideResp":2,"stimulus":[],"xmouse":[811,811,811,811,811,811,811,811,811,811,811,811,811,810,810,810,810,810,810,810,810,810,810,810,810,810,810,810,810,810,810,810,810,810,810,810,810,810,810,810,810,810,810,810,810,810,810,810,810,810,810,810,810,810,810,810,810,810,815,824,831,840,848,865,896,914,930,949,962,982,990,998,1005,1009,1020,1024,1027,1031,1037,1048,1054,1060,1066,1075,1082],"ymouse":[622,622,622,622,622,622,622,622,622,622,622,622,622,623,623,623,623,623,623,623,623,623,623,623,623,623,623,623,623,623,623,623,623,623,623,623,623,623,623,623,623,623,623,623,623,623,623,623,623,623,623,623,623,623,623,623,623,623,619,610,601,589,576,556,516,493,473,444,416,373,354,336,318,301,266,253,238,224,207,175,158,144,129,109,88],"timestamp_mouse":[14,41,54,73,93,112,133,153,173,194,213,233,254,273,294,313,333,353,373,394,413,434,454,474,493,513,533,554,574,594,614,634,653,674,693,713,733,754,774,793,814,833,853,872,893,913,934,953,974,993,1013,1033,1053,1074,1094,1113,1133,1153,1174,1193,1214,1234,1254,1274,1293,1313,1333,1354,1373,1393,1414,1433,1454,1473,1493,1513,1533,1554,1573,1593,1613,1633,1653,1673,1693],"xSR":741.5,"ySR":573.95,"xT1":424.9,"yT1":0,"xT2":1058.1,"yT2":0,"toosoon":0,"cond_shown":"Congruent","ratio_trial":300,"L_num":8,"L_den":15,"R_num":10,"R_den":12,"correct_side":2,"subjID":"TomasJimenezMartinez34","gender":"0","school":"6","age":"11"},{"start_time":1551899810532,"click_time":1551899812380,"finger_time":1551899811861,"fix_duration":1389.5207292981436,"trial":9,"RT":1329,"MT":519,"sideResp":1,"stimulus":[],"xmouse":[789,789,789,789,789,789,789,789,789,789,789,789,789,789,789,789,789,789,789,789,789,789,789,789,789,789,789,789,789,789,789,789,789,789,789,789,789,789,789,789,789,789,789,789,789,789,789,789,789,789,789,789,789,789,789,789,789,789,789,789,789,789,789,789,789,789,769,720,692,671,656,639,614,603,594,590,583,580,579,578,576,573,563,555,546,532,527,521,516,508,499,492,487],"ymouse":[629,629,629,629,629,629,629,629,629,629,629,629,629,629,629,629,629,629,629,629,629,629,629,629,629,629,629,629,629,629,629,629,629,629,629,629,629,629,629,629,629,629,629,629,629,629,629,629,629,629,629,629,629,629,629,629,629,629,629,629,629,629,629,629,628,622,571,497,456,426,403,383,347,327,304,296,279,264,256,242,227,212,181,167,153,140,135,127,121,115,107,101,91],"timestamp_mouse":[9,32,48,68,88,108,128,148,168,188,207,228,248,268,288,308,328,348,368,389,408,428,448,468,489,509,528,549,568,588,609,629,648,668,688,709,728,748,768,788,807,828,848,867,889,908,928,948,968,989,1008,1029,1049,1069,1089,1108,1128,1148,1168,1189,1208,1228,1248,1268,1288,1309,1329,1348,1368,1388,1409,1428,1448,1469,1488,1508,1529,1548,1568,1589,1609,1629,1648,1668,1688,1708,1729,1748,1768,1788,1808,1828,1848],"xSR":741.5,"ySR":573.95,"xT1":424.9,"yT1":0,"xT2":1058.1,"yT2":0,"toosoon":0,"cond_shown":"Congruent","ratio_trial":200,"L_num":16,"L_den":30,"R_num":9,"R_den":27,"correct_side":1,"subjID":"TomasJimenezMartinez34","gender":"0","school":"6","age":"11"},{"start_time":1551899816052,"click_time":1551899817801,"finger_time":1551899817321,"fix_duration":1150.2137450501568,"trial":10,"RT":1269,"MT":480,"sideResp":1,"stimulus":[],"xmouse":[780,780,780,780,780,780,780,780,780,780,780,780,780,780,780,780,780,780,780,780,780,780,780,780,780,780,780,780,780,780,780,780,780,780,780,780,780,780,780,780,780,780,780,780,780,780,780,780,780,780,780,780,780,780,780,780,780,780,780,780,780,775,767,758,746,729,685,663,648,633,625,609,602,596,593,591,588,587,586,582,576,565,560,555,548,542,527,521],"ymouse":[630,630,630,630,630,630,630,630,630,630,630,630,630,630,630,630,630,630,630,630,630,630,630,630,630,630,630,630,630,630,630,630,630,630,630,630,630,630,630,630,630,630,630,630,630,630,630,630,630,630,630,630,630,630,630,630,630,630,630,630,626,605,588,569,545,514,439,400,367,320,290,244,226,210,199,191,182,179,175,170,157,139,130,119,104,89,54,39],"timestamp_mouse":[10,44,49,69,88,109,128,148,168,189,208,229,248,267,287,308,328,348,368,388,408,429,447,469,489,508,528,548,569,589,607,629,648,668,689,709,728,747,768,788,808,829,847,867,888,907,928,947,969,989,1008,1027,1048,1069,1088,1108,1127,1149,1168,1189,1209,1228,1248,1269,1288,1309,1328,1348,1369,1388,1408,1429,1448,1468,1488,1509,1527,1548,1568,1588,1609,1629,1648,1669,1687,1708,1728,1749],"xSR":741.5,"ySR":573.95,"xT1":424.9,"yT1":0,"xT2":1058.1,"yT2":0,"toosoon":0,"cond_shown":"Congruent","ratio_trial":300,"L_num":11,"L_den":22,"R_num":4,"R_den":20,"correct_side":1,"subjID":"TomasJimenezMartinez34","gender":"0","school":"6","age":"11"},{"start_time":1551899820722,"click_time":1551899822360,"finger_time":1551899821480,"fix_duration":1479.1525151613148,"trial":11,"RT":758,"MT":880,"sideResp":2,"stimulus":[],"xmouse":[789,789,789,789,789,789,789,789,789,789,789,789,789,789,789,789,789,789,789,789,789,789,789,789,789,789,789,789,789,789,789,789,792,795,803,810,819,839,852,864,874,884,906,917,927,942,949,961,969,976,983,990,1002,1008,1014,1015,1016,1016,1016,1017,1017,1020,1028,1035,1042,1049,1053,1055,1055,1056,1057,1059,1062,1065,1065,1067,1067,1067,1067,1067,1067,1067],"ymouse":[624,624,624,624,624,624,624,624,624,624,624,624,624,624,624,624,624,624,624,624,624,624,624,624,624,624,624,624,624,624,624,624,622,618,602,591,575,542,525,506,491,473,435,417,398,370,352,324,307,290,273,256,224,210,198,195,193,193,193,192,191,189,181,175,168,156,150,140,139,138,138,135,125,119,113,106,106,106,105,104,102,98],"timestamp_mouse":[17,37,58,77,98,117,138,159,177,197,218,238,257,279,297,317,338,358,377,399,418,437,458,478,498,517,537,558,578,598,617,638,658,678,698,719,738,758,778,798,819,838,858,878,898,918,938,958,978,998,1019,1038,1058,1079,1097,1117,1138,1158,1178,1198,1217,1238,1258,1278,1298,1318,1338,1359,1377,1397,1418,1438,1458,1478,1498,1519,1538,1559,1577,1599,1618,1638],"xSR":741.5,"ySR":573.95,"xT1":424.9,"yT1":0,"xT2":1058.1,"yT2":0,"toosoon":0,"cond_shown":"Incongruent","ratio_trial":200,"L_num":3,"L_den":4,"R_num":11,"R_den":20,"correct_side":1,"subjID":"TomasJimenezMartinez34","gender":"0","school":"6","age":"11"},{"start_time":1551899824779,"click_time":1551899826879,"finger_time":1551899826221,"fix_duration":1177.823235220727,"trial":12,"RT":1442,"MT":658,"sideResp":1,"stimulus":[],"xmouse":[773,773,773,773,773,773,773,773,773,773,773,773,773,773,773,773,773,773,773,773,773,773,773,773,773,773,773,773,773,773,773,773,773,773,773,773,773,773,773,773,773,773,773,773,773,773,773,773,773,773,773,773,773,773,773,773,773,773,773,773,773,773,773,773,773,773,773,773,773,773,773,768,750,720,660,598,570,546,528,516,504,500,499,499,499,499,498,497,497,497,497,497,497,496,496,496,496,496,496,496,496,496,496,496,496,496],"ymouse":[626,626,626,626,626,625,625,625,625,625,625,625,625,625,625,625,625,625,625,625,625,625,625,625,625,625,625,625,625,625,625,625,625,625,625,625,625,625,625,625,625,625,625,625,625,625,625,625,625,625,625,625,625,625,625,625,625,625,625,625,625,625,625,625,625,625,625,625,625,625,610,582,522,445,329,184,119,65,22,0,0,0,0,0,0,0,0,0,0,0,0,0,0,0,0,0,0,0,0,0,0,0,0,0,0,2],"timestamp_mouse":[12,34,40,61,81,101,121,142,160,181,201,221,242,260,280,301,321,341,361,381,401,421,440,462,480,500,521,541,561,582,602,620,642,661,681,701,721,742,761,782,801,821,842,860,880,902,920,941,962,982,1000,1020,1042,1060,1081,1101,1121,1142,1160,1180,1202,1220,1241,1261,1281,1302,1320,1340,1362,1380,1401,1422,1442,1461,1480,1501,1521,1541,1561,1581,1601,1621,1642,1661,1681,1701,1721,1740,1761,1780,1800,1821,1841,1861,1881,1902,1922,1942,1962,1980,2001,2022,2041,2061,2081,2100],"xSR":741.5,"ySR":573.95,"xT1":424.9,"yT1":0,"xT2":1058.1,"yT2":0,"toosoon":0,"cond_shown":"Incongruent","ratio_trial":100,"L_num":12,"L_den":30,"R_num":2,"R_den":4,"correct_side":2,"subjID":"TomasJimenezMartinez34","gender":"0","school":"6","age":"11"},{"start_time":1551899829491,"click_time":1551899831280,"finger_time":1551899831141,"fix_duration":388.7927172408394,"trial":13,"RT":1650,"MT":139,"sideResp":1,"stimulus":[],"xmouse":[810,810,810,810,810,810,810,810,810,810,810,810,810,810,810,810,810,810,810,810,810,810,810,810,810,810,810,810,810,810,810,810,810,810,810,810,810,810,810,810,810,810,810,810,810,810,810,810,810,810,810,810,810,810,810,810,810,810,810,810,810,810,810,810,810,810,810,810,810,810,810,810,810,810,810,810,810,810,810,808,798,777,741,698,605,566,533,487,462,444],"ymouse":[652,652,652,652,652,652,652,652,652,652,652,652,652,652,652,652,652,652,652,652,652,652,652,652,652,652,652,652,652,652,652,652,652,652,652,652,652,652,652,652,652,652,652,652,652,652,652,652,652,652,652,652,652,652,652,652,652,652,652,652,652,652,652,652,652,652,652,652,652,652,652,652,652,652,652,652,652,652,652,647,626,589,533,470,342,287,226,148,106,68],"timestamp_mouse":[13,34,49,69,90,110,128,149,170,189,208,230,248,268,288,309,330,349,369,390,409,429,449,469,490,508,528,548,570,589,609,630,648,670,688,708,729,749,768,789,809,829,849,869,890,909,929,949,969,990,1008,1028,1048,1070,1089,1109,1130,1148,1170,1189,1210,1230,1250,1269,1290,1310,1329,1350,1370,1390,1408,1430,1448,1470,1488,1510,1529,1549,1569,1589,1609,1629,1650,1669,1689,1709,1729,1749,1768,1789],"xSR":741.5,"ySR":573.95,"xT1":424.9,"yT1":0,"xT2":1058.1,"yT2":0,"toosoon":0,"cond_shown":"Congruent","ratio_trial":100,"L_num":1,"L_den":2,"R_num":18,"R_den":30,"correct_side":2,"subjID":"TomasJimenezMartinez34","gender":"0","school":"6","age":"11"},{"start_time":1551899833299,"click_time":1551899835301,"finger_time":1551899834580,"fix_duration":377.18649978727603,"trial":14,"RT":1281,"MT":721,"sideResp":1,"stimulus":[],"xmouse":[786,786,786,786,786,786,787,788,788,788,788,788,788,788,788,788,788,788,788,788,788,788,788,788,788,788,788,788,788,788,788,788,788,788,788,788,788,788,788,788,788,788,788,788,788,788,788,788,788,788,788,788,788,788,788,788,788,788,788,788,788,786,783,776,750,738,726,712,696,676,669,662,656,648,627,620,612,604,594,581,573,567,561,559,556,554,553,553,553,553,552,551,549,547,540,536,532,529,529,526,522],"ymouse":[612,612,612,612,612,612,612,612,612,612,612,612,612,612,612,612,612,612,612,612,612,612,612,612,612,612,612,612,612,612,612,612,612,612,612,612,612,612,612,612,612,612,612,612,612,612,612,612,612,612,612,612,612,612,612,612,612,612,612,612,612,608,602,591,558,542,526,510,488,461,449,437,423,404,366,347,324,302,265,217,191,169,148,129,104,99,97,96,96,96,95,94,93,92,88,84,81,78,77,72,69],"timestamp_mouse":[8,33,41,61,81,101,121,142,161,180,200,227,241,260,281,300,322,342,361,382,401,422,442,460,482,501,522,542,562,582,600,622,640,661,681,702,722,740,760,781,801,820,841,860,882,902,922,942,962,980,1002,1022,1042,1062,1082,1101,1122,1141,1162,1181,1201,1221,1241,1262,1281,1301,1321,1341,1361,1380,1401,1421,1440,1460,1481,1501,1521,1541,1561,1580,1601,1621,1642,1662,1681,1701,1721,1741,1762,1781,1801,1821,1841,1861,1881,1901,1921,1942,1961,1982,2001],"xSR":741.5,"ySR":573.95,"xT1":424.9,"yT1":0,"xT2":1058.1,"yT2":0,"toosoon":0,"cond_shown":"Incongruent","ratio_trial":100,"L_num":9,"L_den":18,"R_num":6,"R_den":10,"correct_side":2,"subjID":"TomasJimenezMartinez34","gender":"0","school":"6","age":"11"},{"start_time":1551899836940,"click_time":1551899838280,"finger_time":1551899837640,"fix_duration":259.7523059135318,"trial":15,"RT":700,"MT":640,"sideResp":2,"stimulus":[],"xmouse":[772,772,772,772,772,772,772,772,774,775,777,777,777,777,777,777,777,777,777,777,777,777,777,777,777,777,777,777,777,777,777,777,777,780,784,803,815,847,864,877,890,900,910,914,919,923,928,935,940,945,953,962,985,998,1007,1021,1029,1042,1048,1054,1060,1064,1074,1081,1087,1097,1102,1111],"ymouse":[589,589,589,589,589,589,589,589,590,591,591,592,592,592,592,592,592,592,592,592,592,592,592,592,592,592,592,592,592,592,592,592,592,592,588,570,555,517,498,480,465,454,438,432,425,420,414,404,398,389,379,364,333,317,303,280,265,239,226,211,198,186,157,143,131,115,105,91],"timestamp_mouse":[9,20,41,61,80,100,120,141,160,180,200,220,241,259,280,300,319,341,359,381,399,419,440,460,480,500,520,540,561,581,599,620,640,659,681,700,721,740,760,781,800,819,840,860,880,901,919,939,960,980,1000,1021,1040,1059,1081,1100,1120,1140,1160,1179,1200,1221,1240,1260,1279,1301,1321,1339],"xSR":741.5,"ySR":573.95,"xT1":424.9,"yT1":0,"xT2":1058.1,"yT2":0,"toosoon":0,"cond_shown":"Congruent","ratio_trial":100,"L_num":2,"L_den":5,"R_num":6,"R_den":12,"correct_side":2,"subjID":"TomasJimenezMartinez34","gender":"0","school":"6","age":"11"},{"start_time":1551899842029,"click_time":1551899844680,"finger_time":1551899843741,"fix_duration":305.8491842034613,"trial":16,"RT":1712,"MT":939,"sideResp":1,"stimulus":[],"xmouse":[786,786,786,786,786,786,786,786,786,786,786,786,786,786,786,786,786,786,786,786,786,786,786,786,786,786,786,786,786,786,786,786,786,786,786,786,786,786,786,786,786,786,786,786,786,786,786,786,786,786,786,786,786,786,786,786,786,786,786,786,786,786,786,786,786,786,786,786,786,786,786,786,786,786,786,786,786,786,786,786,784,779,771,766,760,754,745,733,731,728,726,722,718,715,711,706,699,682,674,665,654,646,639,636,634,631,628,619,615,612,610,608,602,595,589,585,582,574,570,562,557,552,545,545,545,545,545,543,541,541,539,534,520],"ymouse":[655,655,655,655,655,655,655,655,655,655,655,655,655,655,655,655,655,655,655,655,655,655,655,655,655,655,655,655,655,655,655,655,655,655,655,655,655,655,655,655,655,655,655,655,655,655,655,655,655,655,655,655,655,655,655,655,655,655,655,655,655,655,655,655,655,655,655,655,655,655,655,655,655,655,655,655,655,655,652,649,642,632,609,596,580,566,548,518,505,491,485,476,466,458,452,443,433,410,399,386,370,359,340,330,320,306,291,261,249,237,226,209,184,171,155,141,130,104,94,81,74,69,66,66,66,66,66,65,65,65,65,65,65],"timestamp_mouse":[12,33,52,71,91,111,131,152,170,192,210,231,251,271,292,312,332,351,371,391,411,431,450,472,490,511,531,551,571,590,612,631,651,672,692,711,730,752,771,791,811,831,852,870,892,911,931,950,970,991,1010,1032,1051,1072,1090,1111,1131,1151,1171,1192,1212,1232,1251,1270,1292,1311,1332,1352,1370,1392,1411,1432,1451,1471,1491,1512,1531,1551,1571,1590,1611,1631,1651,1671,1691,1712,1732,1751,1771,1790,1811,1831,1851,1871,1891,1911,1932,1950,1970,1991,2011,2032,2051,2071,2091,2110,2132,2151,2171,2191,2210,2232,2250,2271,2291,2312,2331,2350,2370,2391,2411,2430,2451,2471,2490,2511,2531,2551,2572,2590,2611,2631,2651],"xSR":741.5,"ySR":573.95,"xT1":424.9,"yT1":0,"xT2":1058.1,"yT2":0,"toosoon":0,"cond_shown":"Incongruent","ratio_trial":300,"L_num":4,"L_den":5,"R_num":8,"R_den":16,"correct_side":1,"subjID":"TomasJimenezMartinez34","gender":"0","school":"6","age":"11"},{"start_time":1551899847652,"click_time":1551899849500,"finger_time":1551899849100,"fix_duration":449.9895541112634,"trial":17,"RT":1448,"MT":400,"sideResp":1,"stimulus":[],"xmouse":[797,797,797,797,797,797,797,797,797,797,797,797,797,797,797,797,797,797,797,797,797,797,797,797,797,797,797,797,797,797,797,797,797,797,797,797,797,797,797,797,797,797,797,797,797,797,797,797,797,797,797,797,797,797,797,797,797,797,797,797,797,797,797,797,797,797,797,797,797,796,791,758,740,721,693,659,569,518,475,450,445,439,438,435,435,435,433,432,432,432,431,431,431],"ymouse":[599,599,599,599,599,599,599,599,599,599,599,599,599,599,599,599,599,599,599,599,599,599,599,599,599,599,599,599,599,599,599,599,599,599,599,599,599,599,599,599,599,599,599,599,599,599,599,599,599,599,599,599,599,599,599,599,599,599,599,599,599,599,599,599,599,599,599,599,599,599,599,578,561,530,486,437,348,303,265,232,215,188,177,168,162,156,142,134,125,121,112,101,95],"timestamp_mouse":[10,40,48,67,89,107,127,149,169,187,209,229,247,269,288,307,328,348,368,389,409,427,449,469,487,508,529,547,569,589,609,628,648,668,688,709,727,747,768,788,809,828,848,869,889,908,928,948,968,988,1008,1028,1049,1069,1088,1108,1128,1149,1167,1188,1209,1229,1248,1268,1288,1308,1328,1349,1367,1388,1409,1428,1448,1467,1488,1507,1527,1549,1568,1588,1608,1628,1648,1668,1689,1708,1728,1748,1768,1788,1808,1828,1848],"xSR":741.5,"ySR":573.95,"xT1":424.9,"yT1":0,"xT2":1058.1,"yT2":0,"toosoon":0,"cond_shown":"Incongruent","ratio_trial":100,"L_num":17,"L_den":30,"R_num":10,"R_den":15,"correct_side":2,"subjID":"TomasJimenezMartinez34","gender":"0","school":"6","age":"11"},{"start_time":1551899852395,"click_time":1551899854020,"finger_time":1551899853360,"fix_duration":1394.3148657884528,"trial":18,"RT":965,"MT":660,"sideResp":2,"stimulus":[],"xmouse":[780,780,780,780,780,780,780,780,780,780,780,780,780,780,780,780,780,780,780,780,780,780,780,780,780,780,780,780,780,780,780,780,780,780,780,780,780,780,780,780,780,780,780,780,780,789,812,841,873,947,983,998,1008,1014,1018,1018,1019,1019,1019,1019,1020,1020,1021,1023,1028,1032,1038,1044,1051,1066,1068,1068,1073,1075,1075,1075,1078,1083,1085,1085,1085,1085],"ymouse":[600,600,600,600,600,600,600,600,600,600,600,600,600,600,600,600,600,600,600,600,600,600,600,600,600,600,600,600,600,600,600,600,600,600,600,600,600,600,600,600,600,600,600,600,600,600,599,594,587,555,536,525,518,512,506,505,502,502,502,499,497,496,493,482,467,454,436,412,387,332,307,284,255,237,202,185,168,154,141,114,104,98],"timestamp_mouse":[12,36,46,66,84,106,126,144,166,184,204,226,245,265,286,304,324,346,366,384,406,425,446,465,485,505,525,545,565,586,604,625,645,665,685,705,724,745,765,784,805,826,845,865,884,905,925,946,965,985,1004,1024,1045,1066,1085,1105,1125,1145,1165,1184,1206,1226,1245,1266,1286,1305,1324,1345,1365,1384,1405,1426,1446,1464,1484,1505,1525,1544,1566,1585,1606,1625],"xSR":741.5,"ySR":573.95,"xT1":424.9,"yT1":0,"xT2":1058.1,"yT2":0,"toosoon":0,"cond_shown":"Congruent","ratio_trial":300,"L_num":1,"L_den":20,"R_num":7,"R_den":20,"correct_side":2,"subjID":"TomasJimenezMartinez34","gender":"0","school":"6","age":"11"},{"start_time":1551899856672,"click_time":1551899858439,"finger_time":1551899857759,"fix_duration":250,"trial":19,"RT":1087,"MT":680,"sideResp":2,"stimulus":[],"xmouse":[792,790,790,790,790,790,790,790,790,790,790,790,790,790,790,790,790,790,790,790,790,790,790,790,790,790,790,790,790,790,790,790,790,790,790,790,790,790,790,790,790,790,790,790,790,790,790,790,790,789,798,805,812,817,826,830,836,843,846,849,850,852,854,858,874,883,892,905,916,932,934,937,939,942,944,948,953,969,980,1000,1009,1018,1030,1040,1063,1073,1083,1096],"ymouse":[608,607,607,607,607,607,607,607,607,607,607,607,607,607,607,607,607,607,607,607,607,607,607,607,607,607,607,607,607,607,607,607,607,607,607,607,607,607,607,607,607,607,607,607,607,607,607,607,607,606,597,588,576,563,531,516,499,476,464,453,450,448,444,439,417,401,382,351,331,300,291,281,277,273,270,266,263,253,244,224,214,204,190,176,144,127,111,92],"timestamp_mouse":[29,48,68,87,107,128,149,167,188,209,228,247,269,288,309,328,348,368,387,407,428,449,468,488,509,528,547,568,587,608,628,648,668,689,709,728,748,768,788,807,829,849,867,888,908,928,948,968,987,1008,1028,1048,1068,1087,1108,1128,1149,1168,1188,1208,1228,1249,1269,1289,1308,1329,1349,1368,1388,1408,1429,1448,1468,1489,1508,1528,1548,1568,1587,1608,1628,1648,1669,1689,1708,1729,1749,1767],"xSR":741.5,"ySR":573.95,"xT1":424.9,"yT1":0,"xT2":1058.1,"yT2":0,"toosoon":0,"cond_shown":"Incongruent","ratio_trial":300,"L_num":4,"L_den":20,"R_num":2,"R_den":4,"correct_side":2,"subjID":"TomasJimenezMartinez34","gender":"0","school":"6","age":"11"},{"start_time":1551899860726,"click_time":1551899862380,"finger_time":1551899861979,"fix_duration":845.0824165465856,"trial":20,"RT":1253,"MT":401,"sideResp":1,"stimulus":[],"xmouse":[800,800,800,800,800,800,800,800,800,800,800,800,800,800,800,800,800,800,800,800,800,800,800,800,800,800,800,800,800,800,800,800,800,800,800,800,800,800,800,800,800,800,800,800,800,800,800,800,800,800,800,800,800,800,800,800,800,800,800,800,795,792,769,756,742,723,712,692,680,661,634,605,560,547,540,536,535,531,530,524,517,509,491],"ymouse":[613,613,613,613,613,613,613,613,613,613,613,613,613,613,613,613,613,613,613,613,613,613,613,613,613,613,613,613,613,613,613,613,613,613,613,613,613,613,613,613,613,613,613,613,613,613,613,613,613,613,613,613,613,613,613,613,613,613,613,613,599,587,534,511,491,462,442,394,367,333,294,257,204,189,177,169,167,157,150,139,126,112,82],"timestamp_mouse":[14,35,53,75,94,114,135,153,174,193,214,234,253,274,295,313,335,353,374,394,413,433,455,475,495,513,534,553,574,594,614,634,655,673,695,714,734,753,775,793,814,834,853,874,893,915,934,954,973,995,1014,1034,1054,1075,1094,1115,1134,1154,1174,1193,1213,1235,1253,1275,1294,1315,1334,1354,1374,1394,1415,1435,1454,1474,1495,1514,1534,1554,1574,1595,1613,1635,1654],"xSR":741.5,"ySR":573.95,"xT1":424.9,"yT1":0,"xT2":1058.1,"yT2":0,"toosoon":0,"cond_shown":"Congruent","ratio_trial":100,"L_num":9,"L_den":15,"R_num":8,"R_den":16,"correct_side":1,"subjID":"TomasJimenezMartinez34","gender":"0","school":"6","age":"11"},{"start_time":1551899864772,"click_time":1551899866221,"finger_time":1551899865700,"fix_duration":1330.9180970466782,"trial":21,"RT":928,"MT":521,"sideResp":1,"stimulus":[],"xmouse":[792,792,792,792,792,792,792,792,792,792,792,792,792,792,792,792,792,792,792,792,792,792,792,792,792,792,792,792,792,792,792,792,792,792,792,789,786,786,786,786,786,786,785,782,776,754,739,722,704,689,665,656,651,648,644,641,640,640,637,634,620,614,608,600,594,582,578,568,560,546,493,458,439],"ymouse":[624,624,624,624,624,624,624,624,624,624,624,624,624,624,624,624,624,624,624,624,624,624,624,624,624,624,624,624,624,624,624,624,624,624,624,624,622,622,622,622,622,622,621,618,613,593,578,560,538,515,473,456,445,438,432,427,425,423,419,411,387,374,362,342,324,293,283,267,250,228,152,109,83],"timestamp_mouse":[10,36,49,68,88,107,127,148,167,188,208,227,247,269,287,307,328,349,369,389,409,428,449,468,488,509,529,548,569,588,608,629,647,669,689,708,727,749,769,788,809,829,848,868,888,908,928,948,968,988,1007,1027,1048,1068,1088,1109,1128,1148,1169,1188,1208,1227,1249,1268,1288,1308,1328,1348,1369,1388,1408,1428,1449],"xSR":741.5,"ySR":573.95,"xT1":424.9,"yT1":0,"xT2":1058.1,"yT2":0,"toosoon":0,"cond_shown":"Incongruent","ratio_trial":200,"L_num":4,"L_den":6,"R_num":14,"R_den":30,"correct_side":1,"subjID":"TomasJimenezMartinez34","gender":"0","school":"6","age":"11"},{"start_time":1551899867431,"click_time":1551899869580,"finger_time":1551899868979,"fix_duration":250,"trial":22,"RT":1548,"MT":601,"sideResp":2,"stimulus":[],"xmouse":[770,770,770,770,770,770,770,770,770,770,770,770,770,770,770,770,770,770,770,770,770,770,770,770,770,770,770,770,770,770,770,770,770,770,770,770,770,770,770,770,770,770,770,770,770,770,770,770,770,770,770,770,770,770,770,770,770,770,770,770,770,770,770,770,770,770,770,770,770,770,770,770,770,770,777,789,805,833,849,865,887,926,973,991,1004,1016,1027,1033,1034,1035,1036,1038,1044,1047,1052,1054,1057,1060,1064,1068,1072,1077,1088,1091,1095,1099,1101,1104],"ymouse":[651,651,651,651,651,651,651,651,651,651,651,651,651,651,651,651,651,651,651,651,651,651,651,651,651,651,651,651,651,651,651,651,651,651,651,651,651,651,651,651,651,651,651,651,651,651,651,651,651,651,651,651,651,651,651,651,651,651,651,651,651,651,651,651,651,651,651,651,651,651,651,651,651,651,643,626,606,567,549,531,515,491,459,440,417,396,375,352,348,346,344,336,321,312,300,291,280,259,247,236,222,198,156,138,123,111,104,95],"timestamp_mouse":[9,35,48,70,89,110,128,149,169,188,208,230,249,269,288,310,329,348,370,389,410,428,449,469,489,509,530,548,569,590,609,628,650,668,690,710,728,748,768,790,808,829,848,869,889,910,929,949,969,990,1008,1028,1050,1069,1090,1110,1130,1149,1169,1189,1209,1228,1250,1270,1289,1310,1328,1348,1370,1390,1408,1430,1450,1469,1490,1509,1528,1548,1569,1589,1609,1628,1649,1669,1688,1709,1730,1749,1769,1789,1808,1829,1848,1870,1889,1910,1929,1949,1969,1989,2008,2030,2049,2069,2090,2110,2128,2149],"xSR":741.5,"ySR":573.95,"xT1":424.9,"yT1":0,"xT2":1058.1,"yT2":0,"toosoon":0,"cond_shown":"Congruent","ratio_trial":100,"L_num":12,"L_den":30,"R_num":13,"R_den":26,"correct_side":2,"subjID":"TomasJimenezMartinez34","gender":"0","school":"6","age":"11"},{"start_time":1551899871235,"click_time":1551899873080,"finger_time":1551899872721,"fix_duration":412.0417888931615,"trial":23,"RT":1486,"MT":359,"sideResp":1,"stimulus":[],"xmouse":[806,806,806,806,806,806,806,806,806,806,806,806,806,806,806,806,806,806,806,806,806,805,802,798,797,795,795,795,795,795,795,795,795,795,795,795,795,795,795,795,795,795,795,795,795,795,795,795,795,795,795,795,795,795,795,795,795,795,795,795,795,795,795,795,795,795,795,795,793,792,786,784,777,764,743,706,669,617,585,550,506,486,464,458,454,453,453,453,453,453,453,453,453],"ymouse":[615,615,615,615,615,615,615,615,615,615,615,615,615,615,615,615,615,615,615,615,615,615,614,612,610,610,610,610,610,610,610,610,610,610,610,610,610,610,610,610,610,610,610,610,610,610,610,610,610,610,610,610,610,610,610,610,610,610,610,610,610,610,610,610,610,610,610,610,609,609,607,606,600,587,571,545,524,489,461,432,377,336,277,259,241,226,213,186,171,154,126,109,79],"timestamp_mouse":[8,24,44,65,85,106,125,145,166,186,205,224,245,266,284,305,326,346,364,385,406,425,444,465,486,505,524,546,564,585,605,625,645,665,684,705,725,744,765,786,806,825,845,865,885,906,926,945,965,984,1005,1025,1046,1064,1085,1105,1125,1145,1166,1184,1205,1224,1246,1266,1285,1305,1325,1345,1365,1385,1406,1424,1445,1465,1486,1506,1525,1544,1565,1585,1605,1625,1644,1665,1685,1706,1725,1744,1764,1785,1806,1825,1845],"xSR":741.5,"ySR":573.95,"xT1":424.9,"yT1":0,"xT2":1058.1,"yT2":0,"toosoon":0,"cond_shown":"Incongruent","ratio_trial":100,"L_num":3,"L_den":5,"R_num":8,"R_den":16,"correct_side":1,"subjID":"TomasJimenezMartinez34","gender":"0","school":"6","age":"11"},{"start_time":1551899874471,"click_time":1551899876342,"finger_time":1551899875741,"fix_duration":250,"trial":24,"RT":1270,"MT":601,"sideResp":1,"stimulus":[],"xmouse":[772,772,772,772,773,773,773,773,773,773,773,773,774,774,774,774,775,775,775,775,775,775,775,775,775,775,775,775,775,775,775,775,775,775,775,775,775,775,775,775,775,775,775,775,775,775,776,777,778,779,779,779,779,779,779,779,779,778,777,774,768,765,761,755,743,704,685,661,622,604,583,571,556,539,530,518,511,507,504,503,503,503,502,499,497,497,497,497,496,495,495,495,495,495],"ymouse":[628,628,628,628,628,628,628,628,628,628,628,628,628,628,628,628,628,628,628,628,628,628,628,628,628,628,628,628,628,628,628,628,628,628,628,628,628,628,628,628,628,628,628,628,628,628,628,626,625,622,614,610,608,604,603,601,599,597,596,593,584,581,577,571,562,538,527,513,488,475,444,424,396,363,333,278,257,241,226,210,195,187,181,175,168,157,150,143,132,123,111,106,101,97],"timestamp_mouse":[10,41,49,69,89,108,129,148,170,189,208,229,250,270,290,309,329,348,368,389,408,430,448,469,490,510,528,550,569,588,609,628,650,668,689,710,729,749,769,790,808,828,849,870,888,910,929,949,970,989,1010,1029,1049,1069,1089,1109,1129,1149,1170,1189,1209,1229,1249,1270,1290,1309,1329,1349,1369,1389,1409,1429,1449,1469,1489,1509,1529,1548,1570,1591,1610,1630,1649,1670,1689,1709,1729,1749,1771,1790,1809,1829,1849,1871],"xSR":741.5,"ySR":573.95,"xT1":424.9,"yT1":0,"xT2":1058.1,"yT2":0,"toosoon":0,"cond_shown":"Congruent","ratio_trial":300,"L_num":18,"L_den":20,"R_num":9,"R_den":15,"correct_side":1,"subjID":"TomasJimenezMartinez34","gender":"0","school":"6","age":"11"},{"start_time":1551899877712,"click_time":1551899880061,"finger_time":1551899879461,"fix_duration":250,"trial":25,"RT":1749,"MT":600,"sideResp":2,"stimulus":[],"xmouse":[808,808,808,808,808,808,808,808,808,808,808,808,808,808,808,808,808,808,808,808,808,808,808,808,808,808,808,808,808,808,808,808,808,808,808,808,808,808,808,808,808,808,808,808,808,808,808,808,808,808,808,808,808,808,808,808,808,808,808,808,808,808,808,808,808,808,808,808,808,808,808,808,808,808,808,808,808,808,808,808,808,807,807,812,814,817,821,822,831,839,848,858,869,890,898,908,917,929,942,950,958,969,978,993,1000,1007,1014,1025,1041,1048,1053,1059,1064,1071,1074,1078,1080,1083],"ymouse":[623,623,623,623,623,623,623,624,624,624,624,624,624,624,624,624,624,624,624,624,624,624,624,624,624,624,624,624,624,624,624,624,624,624,624,624,624,624,624,624,624,624,624,624,624,624,624,624,624,624,624,624,624,624,624,624,624,624,624,624,624,624,624,624,624,624,624,624,624,624,624,624,624,624,624,624,624,624,624,624,624,624,620,606,598,589,576,566,541,526,510,493,472,438,425,411,400,380,349,332,317,301,287,263,251,238,224,205,180,167,156,146,138,122,118,108,101,96],"timestamp_mouse":[10,31,49,68,89,109,129,148,170,189,208,229,248,269,289,308,330,348,368,389,409,428,449,469,488,509,528,550,568,589,608,629,649,669,688,710,728,750,768,789,809,828,848,868,889,910,930,950,968,989,1009,1028,1050,1068,1090,1108,1130,1148,1169,1188,1210,1229,1248,1270,1289,1308,1329,1348,1370,1389,1410,1429,1450,1469,1488,1509,1530,1548,1568,1590,1608,1628,1650,1669,1688,1709,1730,1749,1768,1788,1809,1829,1848,1869,1889,1909,1929,1949,1968,1988,2008,2029,2049,2069,2090,2109,2129,2149,2168,2188,2208,2228,2249,2269,2289,2309,2328,2349],"xSR":741.5,"ySR":573.95,"xT1":424.9,"yT1":0,"xT2":1058.1,"yT2":0,"toosoon":0,"cond_shown":"Congruent","ratio_trial":100,"L_num":1,"L_den":2,"R_num":18,"R_den":30,"correct_side":2,"subjID":"TomasJimenezMartinez34","gender":"0","school":"6","age":"11"},{"start_time":1551899881875,"click_time":1551899884000,"finger_time":1551899883381,"fix_duration":354.05428839760935,"trial":26,"RT":1506,"MT":619,"sideResp":2,"stimulus":[],"xmouse":[807,807,807,807,807,807,807,807,807,807,807,807,807,807,807,807,807,807,807,807,807,807,807,807,807,807,807,807,807,807,807,807,807,807,807,807,807,807,807,807,807,807,807,807,807,807,807,807,807,807,807,807,807,807,807,807,807,807,807,807,807,807,807,807,807,807,807,807,807,807,807,807,806,806,808,827,837,845,849,851,854,857,862,870,877,889,895,902,914,925,945,956,967,979,988,1011,1024,1029,1034,1035,1038,1040,1044,1046,1050,1055,1061],"ymouse":[600,600,600,600,600,600,600,600,600,600,600,600,600,600,600,600,600,600,600,600,600,600,600,600,600,600,600,600,600,600,600,600,600,600,600,600,600,600,600,600,600,600,600,600,600,600,600,600,600,600,600,600,600,600,600,600,600,600,600,600,600,600,600,600,600,600,600,600,600,600,600,600,600,597,591,561,546,530,521,514,506,501,490,477,461,430,415,397,371,353,317,298,278,258,240,201,178,169,156,150,142,138,130,125,117,103,88],"timestamp_mouse":[10,38,46,65,85,105,126,146,166,185,206,225,247,265,286,307,326,347,366,385,407,426,445,466,487,505,525,546,565,586,607,625,645,666,685,706,727,746,765,785,805,825,847,865,885,906,925,946,966,987,1005,1026,1045,1066,1085,1107,1125,1145,1167,1185,1205,1225,1247,1265,1285,1306,1325,1346,1367,1385,1405,1426,1445,1466,1486,1506,1525,1546,1566,1585,1605,1626,1646,1666,1686,1706,1726,1745,1765,1785,1805,1825,1846,1865,1886,1905,1926,1946,1966,1986,2005,2026,2045,2066,2085,2105,2125],"xSR":741.5,"ySR":573.95,"xT1":424.9,"yT1":0,"xT2":1058.1,"yT2":0,"toosoon":0,"cond_shown":"Congruent","ratio_trial":300,"L_num":2,"L_den":20,"R_num":10,"R_den":25,"correct_side":2,"subjID":"TomasJimenezMartinez34","gender":"0","school":"6","age":"11"},{"start_time":1551899885553,"click_time":1551899887441,"finger_time":1551899887041,"fix_duration":250,"trial":27,"RT":1488,"MT":400,"sideResp":1,"stimulus":[],"xmouse":[784,784,784,784,784,784,784,784,784,784,784,784,784,784,784,784,784,784,784,784,784,784,784,784,784,784,784,784,784,784,784,784,784,784,784,784,784,784,784,784,784,784,784,784,784,784,784,784,784,784,784,784,784,784,784,784,784,784,784,784,784,784,784,784,784,784,784,784,784,784,784,784,774,765,703,636,515,492,478,466,462,461,465,468,468,468,473,478,481,482,483,483,483,483,482],"ymouse":[617,617,617,617,617,617,617,617,617,617,617,617,617,617,617,617,617,617,617,617,617,617,617,617,617,617,617,617,617,617,617,617,617,617,617,617,617,617,617,617,617,617,617,617,617,617,617,617,617,617,617,617,617,617,617,617,617,617,617,617,617,617,617,617,617,617,617,617,617,617,617,617,604,593,528,470,368,341,321,304,295,274,261,240,228,217,199,189,177,165,151,127,116,107,98],"timestamp_mouse":[9,41,48,67,87,109,127,148,167,187,208,228,247,269,287,307,329,348,367,388,408,427,447,468,487,509,528,547,569,587,608,629,648,668,688,707,728,748,768,788,809,829,848,868,887,909,929,947,969,987,1007,1029,1049,1067,1087,1108,1128,1147,1167,1189,1207,1228,1247,1268,1287,1308,1328,1348,1368,1387,1407,1427,1448,1467,1488,1508,1527,1547,1567,1588,1609,1627,1647,1667,1688,1708,1727,1748,1768,1789,1809,1828,1848,1868,1888],"xSR":741.5,"ySR":573.95,"xT1":424.9,"yT1":0,"xT2":1058.1,"yT2":0,"toosoon":0,"cond_shown":"Congruent","ratio_trial":200,"L_num":3,"L_den":12,"R_num":9,"R_den":20,"correct_side":2,"subjID":"TomasJimenezMartinez34","gender":"0","school":"6","age":"11"},{"start_time":1551899889811,"click_time":1551899891200,"finger_time":1551899890701,"fix_duration":809.4661190648814,"trial":28,"RT":890,"MT":499,"sideResp":1,"stimulus":[],"xmouse":[794,794,794,794,794,794,792,792,790,789,789,789,788,788,788,788,788,788,788,788,788,788,788,788,788,788,788,788,788,788,788,788,788,788,788,788,788,788,788,788,786,774,766,747,736,722,704,678,626,606,580,564,543,506,499,498,497,496,496,496,498,501,505,516,522,524,524,524,511,502],"ymouse":[636,636,636,636,636,636,640,641,647,648,650,652,653,653,653,653,653,653,653,653,653,653,653,653,653,653,653,653,653,653,653,653,653,653,653,653,653,653,653,654,653,636,624,587,568,547,523,493,433,407,378,360,338,299,288,282,277,270,256,250,246,235,223,194,179,166,151,139,112,98],"timestamp_mouse":[10,35,50,70,89,109,129,149,170,189,210,230,250,270,289,310,329,350,371,390,410,429,449,469,490,509,531,549,569,590,610,629,650,669,689,711,729,749,770,789,810,829,850,870,890,910,930,949,969,989,1009,1031,1050,1071,1090,1109,1130,1149,1170,1189,1211,1230,1249,1269,1290,1310,1331,1350,1369,1389],"xSR":741.5,"ySR":573.95,"xT1":424.9,"yT1":0,"xT2":1058.1,"yT2":0,"toosoon":0,"cond_shown":"Congruent","ratio_trial":300,"L_num":24,"L_den":30,"R_num":8,"R_den":16,"correct_side":1,"subjID":"TomasJimenezMartinez34","gender":"0","school":"6","age":"11"},{"start_time":1551899893293,"click_time":1551899895041,"finger_time":1551899894440,"fix_duration":1089.7583004351077,"trial":29,"RT":1147,"MT":601,"sideResp":1,"stimulus":[],"xmouse":[804,804,804,804,804,804,804,804,804,804,804,804,804,804,804,804,804,804,804,804,804,804,804,804,804,804,804,804,804,804,804,804,804,804,804,804,804,804,804,804,804,804,804,804,804,804,804,804,804,801,796,788,782,779,773,770,766,763,758,748,742,736,726,716,690,672,667,653,643,618,606,591,577,567,553,547,544,542,540,535,534,532,531,530,525,522,519,514],"ymouse":[628,628,628,628,628,628,628,628,628,628,628,628,628,628,628,628,628,628,628,628,628,628,628,628,628,628,628,628,628,628,628,628,628,628,628,628,628,628,628,628,628,628,628,628,628,628,628,628,628,624,616,608,599,594,586,581,576,572,565,549,541,531,520,508,478,452,446,425,408,367,343,319,297,281,254,244,238,233,227,217,212,206,199,189,158,136,116,99],"timestamp_mouse":[9,36,47,69,89,107,128,148,168,187,207,227,249,268,287,307,327,348,367,388,408,427,448,467,488,507,529,547,567,587,608,627,647,669,687,707,729,747,767,788,807,827,849,868,887,907,927,947,967,987,1008,1029,1048,1067,1088,1107,1129,1147,1168,1187,1208,1228,1248,1267,1288,1307,1327,1348,1368,1387,1407,1428,1447,1468,1487,1508,1527,1547,1567,1587,1607,1627,1648,1667,1687,1709,1728,1748],"xSR":741.5,"ySR":573.95,"xT1":424.9,"yT1":0,"xT2":1058.1,"yT2":0,"toosoon":0,"cond_shown":"Congruent","ratio_trial":200,"L_num":3,"L_den":10,"R_num":14,"R_den":28,"correct_side":2,"subjID":"TomasJimenezMartinez34","gender":"0","school":"6","age":"11"},{"start_time":1551899897325,"click_time":1551899899101,"finger_time":1551899898261,"fix_duration":1003.2515997672388,"trial":30,"RT":936,"MT":840,"sideResp":2,"stimulus":[],"xmouse":[821,821,821,821,821,821,821,821,821,821,821,821,821,821,821,821,821,821,821,821,821,821,821,821,821,821,821,821,821,821,821,821,821,821,821,821,821,821,821,821,821,821,823,831,836,840,845,850,855,861,869,877,891,900,907,911,913,915,915,917,919,923,933,940,951,968,979,999,1007,1013,1019,1025,1031,1033,1034,1035,1035,1037,1038,1041,1042,1045,1048,1052,1057,1064,1069,1080,1087],"ymouse":[618,618,618,618,618,618,618,618,618,618,618,618,618,618,618,618,618,618,618,618,618,618,618,618,618,618,618,618,618,618,618,618,618,618,618,618,618,618,618,618,618,618,618,614,610,606,601,594,587,579,568,555,529,516,508,501,497,494,494,490,487,481,462,447,430,398,374,335,318,302,288,275,254,246,242,241,241,233,227,220,214,206,186,175,162,144,133,105,89],"timestamp_mouse":[16,37,57,75,97,115,136,156,177,195,216,237,256,275,296,315,335,355,376,395,416,437,457,476,496,515,536,557,576,595,615,635,657,676,696,716,735,755,777,795,815,837,855,875,897,916,936,955,975,995,1017,1036,1056,1077,1096,1115,1136,1156,1176,1196,1216,1236,1255,1276,1295,1316,1337,1356,1376,1395,1415,1436,1455,1475,1495,1517,1536,1555,1576,1597,1615,1635,1655,1676,1696,1715,1736,1756,1776],"xSR":741.5,"ySR":573.95,"xT1":424.9,"yT1":0,"xT2":1058.1,"yT2":0,"toosoon":0,"cond_shown":"Incongruent","ratio_trial":100,"L_num":12,"L_den":30,"R_num":2,"R_den":4,"correct_side":2,"subjID":"TomasJimenezMartinez34","gender":"0","school":"6","age":"11"},{"start_time":1551899901368,"click_time":1551899903361,"finger_time":1551899902881,"fix_duration":986.3392225701867,"trial":31,"RT":1513,"MT":480,"sideResp":1,"stimulus":[],"xmouse":[801,801,801,801,801,801,801,801,801,801,801,801,801,801,801,801,801,801,801,801,801,801,801,801,801,801,801,801,801,801,801,801,801,801,801,801,801,801,801,801,801,801,801,801,801,801,801,800,800,800,800,800,800,800,799,799,799,799,799,799,799,799,799,799,799,799,799,798,797,794,783,778,771,761,748,713,686,662,644,629,600,579,575,564,558,544,539,537,536,532,525,522,520,517,514,503,496,487,480,474],"ymouse":[619,619,619,619,619,619,619,619,619,619,619,619,619,619,619,619,619,619,619,619,619,619,619,619,619,619,619,619,619,619,619,619,619,619,619,619,619,619,619,619,619,619,619,619,619,619,619,619,619,619,619,619,619,619,619,619,619,619,619,619,619,619,619,619,619,619,619,619,619,619,614,611,605,595,579,533,503,478,456,436,392,364,356,334,319,287,274,264,255,245,228,222,212,205,197,175,158,138,118,97],"timestamp_mouse":[13,32,52,73,93,113,132,152,174,192,212,233,252,273,292,312,332,352,374,393,412,433,452,472,494,514,532,553,573,593,613,633,653,672,692,714,733,752,772,793,812,834,852,873,892,913,932,953,974,992,1013,1033,1054,1073,1093,1112,1133,1152,1174,1192,1212,1233,1253,1272,1292,1313,1333,1352,1374,1392,1413,1433,1453,1472,1493,1513,1533,1553,1573,1592,1612,1632,1653,1672,1693,1713,1733,1753,1773,1793,1813,1832,1852,1873,1893,1913,1933,1952,1972,1992],"xSR":741.5,"ySR":573.95,"xT1":424.9,"yT1":0,"xT2":1058.1,"yT2":0,"toosoon":0,"cond_shown":"Incongruent","ratio_trial":200,"L_num":7,"L_den":10,"R_num":8,"R_den":16,"correct_side":1,"subjID":"TomasJimenezMartinez34","gender":"0","school":"6","age":"11"},{"start_time":1551899905727,"click_time":1551899907680,"finger_time":1551899907021,"fix_duration":1005.9695826550467,"trial":32,"RT":1294,"MT":659,"sideResp":2,"stimulus":[],"xmouse":[778,778,778,778,778,778,778,778,778,778,778,778,778,778,778,778,778,778,778,778,778,778,778,778,778,778,778,778,778,778,778,778,778,778,778,778,778,778,778,778,778,778,778,778,778,778,778,778,778,778,778,778,778,779,783,784,788,795,797,800,804,808,820,830,847,857,869,894,906,918,929,940,960,967,974,975,977,981,984,987,992,996,1005,1009,1017,1018,1026,1037,1042,1049,1056,1062,1074,1080,1086,1096,1104,1116],"ymouse":[634,634,634,634,634,634,634,634,634,634,634,634,634,634,634,634,634,634,634,634,634,634,634,634,634,634,634,634,634,634,634,634,634,634,634,634,634,634,634,634,634,634,634,634,634,634,634,634,634,634,634,634,634,634,632,631,627,622,620,617,612,607,592,578,557,543,527,492,475,460,444,428,395,383,372,369,366,359,351,344,336,328,312,304,292,287,276,257,247,235,220,207,179,166,151,126,110,77],"timestamp_mouse":[14,36,53,75,93,114,135,153,173,195,213,235,253,273,293,313,335,353,373,394,414,434,453,473,495,514,534,553,573,594,613,635,655,674,693,714,734,753,774,793,815,834,854,873,893,913,933,954,974,993,1014,1033,1054,1074,1094,1113,1134,1154,1174,1194,1214,1233,1254,1273,1294,1314,1335,1354,1374,1393,1413,1433,1453,1475,1499,1513,1533,1554,1574,1593,1613,1635,1653,1674,1693,1714,1734,1753,1773,1794,1814,1835,1854,1874,1895,1915,1933,1953],"xSR":741.5,"ySR":573.95,"xT1":424.9,"yT1":0,"xT2":1058.1,"yT2":0,"toosoon":0,"cond_shown":"Incongruent","ratio_trial":100,"L_num":12,"L_den":24,"R_num":9,"R_den":15,"correct_side":2,"subjID":"TomasJimenezMartinez34","gender":"0","school":"6","age":"11"},{"start_time":1551899910996,"click_time":1551899912880,"finger_time":1551899911961,"fix_duration":1213.1724001125592,"trial":33,"RT":965,"MT":919,"sideResp":1,"stimulus":[],"xmouse":[797,797,797,797,797,797,797,797,797,797,797,797,797,797,797,797,797,797,797,797,797,797,797,797,797,797,797,797,797,797,797,797,797,797,797,797,797,797,797,797,797,797,797,797,792,778,765,751,740,725,721,717,715,708,699,695,692,687,683,680,678,676,673,668,659,653,647,643,639,632,630,627,619,612,600,596,591,587,584,577,572,567,563,560,553,546,540,534,528,518,515,511,510,505,497],"ymouse":[619,619,619,619,619,619,619,619,619,619,619,619,619,619,619,619,619,619,619,619,619,619,619,619,619,619,619,619,619,619,619,619,619,619,619,619,619,619,619,619,619,619,619,619,619,608,598,587,577,562,556,548,545,534,522,516,512,506,500,494,491,485,479,466,446,434,423,415,409,396,389,377,357,343,312,295,279,262,249,233,225,215,210,205,195,186,178,167,153,131,123,115,114,108,99],"timestamp_mouse":[10,31,44,64,86,104,125,146,166,185,205,225,244,266,284,305,326,345,364,384,405,424,445,464,486,504,526,544,564,586,605,625,645,665,684,704,726,744,764,785,805,824,844,864,884,905,924,945,965,985,1005,1025,1045,1065,1085,1105,1125,1145,1164,1184,1204,1225,1245,1264,1285,1305,1326,1346,1365,1384,1405,1425,1445,1465,1485,1505,1524,1545,1564,1584,1605,1626,1645,1664,1684,1704,1725,1744,1765,1784,1805,1824,1844,1865,1884],"xSR":741.5,"ySR":573.95,"xT1":424.9,"yT1":0,"xT2":1058.1,"yT2":0,"toosoon":0,"cond_shown":"Congruent","ratio_trial":300,"L_num":20,"L_den":25,"R_num":13,"R_den":26,"correct_side":1,"subjID":"TomasJimenezMartinez34","gender":"0","school":"6","age":"11"},{"start_time":1551899915782,"click_time":1551899917621,"finger_time":1551899917022,"fix_duration":1479.6653856590424,"trial":34,"RT":1240,"MT":599,"sideResp":1,"stimulus":[],"xmouse":[823,823,823,823,823,823,823,823,823,823,823,823,823,823,823,823,823,823,823,823,823,823,823,823,823,823,823,823,823,823,823,823,823,823,823,823,822,816,810,802,800,799,799,799,799,799,799,799,799,799,799,795,790,782,769,764,762,760,757,750,745,738,714,697,682,675,666,654,643,627,619,601,594,572,546,534,526,515,505,485,476,468,459,455,453,453,453,453,453,453,453,454],"ymouse":[637,637,637,637,637,637,637,637,637,637,637,637,637,637,637,637,637,637,637,637,637,637,637,637,637,637,637,637,637,637,637,637,637,637,637,637,638,635,632,628,628,627,627,627,627,627,627,627,627,627,627,625,621,615,608,605,604,602,598,584,576,568,545,528,506,495,482,467,451,416,394,360,350,322,294,278,263,240,218,183,166,150,129,118,111,109,109,108,106,104,101,97],"timestamp_mouse":[33,38,58,80,98,118,138,158,180,199,218,238,258,279,298,319,338,358,378,399,419,439,458,479,500,518,539,559,579,599,620,638,659,679,698,719,739,759,779,799,819,839,859,879,899,920,938,959,978,999,1019,1039,1059,1080,1098,1119,1139,1160,1179,1198,1218,1240,1259,1279,1298,1318,1338,1359,1380,1398,1419,1438,1458,1480,1498,1518,1539,1560,1579,1599,1620,1640,1659,1680,1698,1720,1739,1760,1778,1798,1818,1839],"xSR":741.5,"ySR":573.95,"xT1":424.9,"yT1":0,"xT2":1058.1,"yT2":0,"toosoon":0,"cond_shown":"Congruent","ratio_trial":300,"L_num":4,"L_den":5,"R_num":2,"R_den":4,"correct_side":1,"subjID":"TomasJimenezMartinez34","gender":"0","school":"6","age":"11"},{"start_time":1551899920432,"click_time":1551899922860,"finger_time":1551899922041,"fix_duration":250,"trial":35,"RT":1609,"MT":819,"sideResp":1,"stimulus":[],"xmouse":[759,759,759,759,759,759,759,759,759,759,759,759,759,759,759,759,759,759,759,759,759,759,759,759,759,759,759,759,759,759,759,759,759,759,759,759,759,759,759,759,759,759,759,759,759,759,759,759,759,759,759,759,759,759,759,759,759,759,759,759,759,759,759,759,759,759,759,759,759,759,759,759,759,759,759,759,759,759,755,747,738,734,723,712,699,686,672,636,623,600,573,553,541,534,529,525,523,521,520,518,508,501,477,460,438,419,406,398,405,412,412,412,412,412,412,412,414,417,420,423,426,429],"ymouse":[647,647,647,647,647,647,647,647,647,647,647,647,647,647,647,647,647,647,647,647,647,647,647,647,647,647,647,647,647,647,647,647,647,647,647,647,647,647,647,647,647,647,647,647,647,647,647,647,647,647,647,647,647,647,647,647,647,647,647,647,647,647,647,647,647,647,647,647,647,647,647,647,647,647,647,647,646,646,646,646,646,645,638,634,625,620,612,585,572,542,501,464,413,374,339,316,302,281,271,261,240,224,188,164,133,99,69,25,4,0,0,0,0,0,0,0,0,0,0,0,0,1],"timestamp_mouse":[8,34,48,70,89,108,128,148,169,188,209,228,248,269,289,309,328,348,370,389,409,429,449,468,488,509,528,549,568,589,608,630,649,669,689,708,730,748,768,790,808,828,848,869,888,909,928,949,968,989,1008,1030,1048,1068,1090,1109,1130,1148,1168,1188,1208,1229,1248,1270,1289,1310,1328,1348,1368,1389,1408,1428,1450,1469,1489,1508,1529,1549,1569,1588,1609,1629,1649,1668,1688,1710,1730,1748,1769,1789,1808,1828,1848,1869,1889,1910,1929,1949,1968,1989,2009,2030,2049,2069,2088,2109,2129,2148,2168,2189,2208,2229,2248,2269,2289,2308,2328,2348,2368,2389,2409,2428],"xSR":741.5,"ySR":573.95,"xT1":424.9,"yT1":0,"xT2":1058.1,"yT2":0,"toosoon":0,"cond_shown":"Incongruent","ratio_trial":100,"L_num":13,"L_den":26,"R_num":6,"R_den":10,"correct_side":2,"subjID":"TomasJimenezMartinez34","gender":"0","school":"6","age":"11"},{"start_time":1551899927245,"click_time":1551899929162,"finger_time":1551899928722,"fix_duration":1283.727156900488,"trial":36,"RT":1477,"MT":440,"sideResp":2,"stimulus":[],"xmouse":[788,788,788,788,788,788,788,788,788,788,788,788,788,788,788,788,788,788,788,788,788,788,788,788,788,788,788,788,788,788,788,788,788,788,788,788,788,788,788,788,788,788,788,788,788,788,788,788,788,788,788,788,788,788,788,788,788,788,788,788,788,788,788,788,788,788,788,788,789,790,792,796,799,801,802,806,812,819,829,833,844,860,867,875,882,889,906,914,928,939,951,982,1003,1028,1045,1065],"ymouse":[625,625,625,625,625,625,625,625,625,625,625,625,625,625,625,625,625,625,625,625,625,625,625,625,625,625,625,625,625,625,625,625,625,625,625,625,625,625,625,625,625,625,625,625,625,625,625,625,625,625,625,625,625,625,625,625,625,625,625,625,625,625,625,625,625,625,625,625,618,611,601,588,580,573,567,559,545,533,513,506,482,449,431,415,403,390,363,349,325,306,285,233,198,160,124,90],"timestamp_mouse":[15,36,55,77,96,116,136,155,176,196,217,235,256,276,296,315,336,355,375,397,415,435,456,475,496,516,537,555,575,596,616,635,657,676,695,716,735,755,777,796,817,836,855,876,896,916,935,956,976,997,1016,1035,1056,1077,1095,1116,1135,1156,1176,1195,1217,1235,1256,1275,1295,1317,1336,1356,1376,1397,1417,1435,1455,1477,1496,1515,1535,1556,1575,1596,1615,1635,1656,1676,1696,1715,1735,1756,1775,1796,1816,1835,1856,1875,1896,1917],"xSR":741.5,"ySR":573.95,"xT1":424.9,"yT1":0,"xT2":1058.1,"yT2":0,"toosoon":0,"cond_shown":"Congruent","ratio_trial":200,"L_num":6,"L_den":20,"R_num":11,"R_den":22,"correct_side":2,"subjID":"TomasJimenezMartinez34","gender":"0","school":"6","age":"11"},{"start_time":1551899931268,"click_time":1551899934780,"finger_time":1551899932661,"fix_duration":1005.2812431035212,"trial":37,"RT":1393,"MT":2119,"sideResp":2,"stimulus":[],"xmouse":[787,787,787,787,787,787,787,787,787,787,787,787,787,787,787,787,787,787,787,787,787,787,787,787,787,787,787,787,787,787,787,787,787,787,787,787,787,787,787,787,787,787,787,787,787,787,787,787,787,787,787,787,787,787,787,787,787,787,787,787,787,787,787,787,787,787,789,802,809,820,832,855,878,907,940,964,966,966,969,971,972,974,976,977,979,982,982,982,982,982,980,972,964,951,936,903,884,863,839,832,824,821,816,809,800,776,761,745,729,722,713,711,709,708,708,705,703,702,702,702,702,702,703,705,710,728,739,753,781,807,864,891,909,923,928,928,928,927,920,911,880,858,836,826,825,825,834,866,893,920,942,952,949,942,927,888,877,876,876,878,915,939,988,1061,1127,1169,1169,1169,1169,1171,1173,1174,1174,1172,1167,1156],"ymouse":[628,628,628,628,628,628,628,628,628,628,628,628,628,628,628,628,628,628,628,628,628,628,628,628,628,628,628,628,628,628,628,628,628,628,628,628,628,628,628,628,628,628,628,628,628,628,628,628,628,628,628,628,628,628,628,628,628,628,628,628,628,628,628,628,628,628,618,597,580,559,538,497,465,424,379,330,312,300,289,285,279,273,269,266,261,255,254,254,254,254,253,253,254,258,262,266,267,267,267,267,268,268,268,268,268,268,268,267,264,263,261,261,260,260,260,259,259,259,259,259,259,259,259,259,260,260,259,256,249,243,227,221,216,212,211,211,211,211,212,217,230,239,245,248,248,248,248,246,238,230,227,226,226,229,235,251,255,256,256,256,238,228,215,196,177,162,160,159,155,149,133,123,113,101,87,59],"timestamp_mouse":[14,33,53,72,93,113,134,152,173,192,214,233,253,272,294,312,333,353,373,392,412,432,452,473,492,514,533,552,572,593,613,632,652,673,692,714,733,752,772,792,812,834,852,872,893,913,933,952,972,993,1012,1032,1054,1072,1094,1112,1134,1152,1173,1192,1213,1232,1254,1272,1293,1312,1333,1353,1373,1393,1412,1433,1453,1474,1492,1512,1534,1553,1574,1594,1612,1633,1653,1673,1693,1713,1732,1754,1772,1793,1812,1833,1853,1872,1893,1912,1934,1953,1973,1992,2012,2032,2052,2074,2093,2112,2133,2154,2174,2194,2213,2233,2252,2272,2294,2312,2332,2353,2374,2392,2412,2433,2453,2474,2493,2512,2533,2553,2573,2594,2613,2633,2652,2673,2694,2713,2733,2752,2774,2794,2812,2833,2853,2874,2892,2912,2933,2953,2973,2994,3012,3032,3053,3074,3094,3112,3134,3152,3172,3193,3213,3233,3253,3274,3293,3313,3332,3353,3374,3393,3412,3433,3453,3473,3492,3512],"xSR":741.5,"ySR":573.95,"xT1":424.9,"yT1":0,"xT2":1058.1,"yT2":0,"toosoon":0,"cond_shown":"Incongruent","ratio_trial":100,"L_num":1,"L_den":2,"R_num":8,"R_den":20,"correct_side":1,"subjID":"TomasJimenezMartinez34","gender":"0","school":"6","age":"11"},{"start_time":1551899936604,"click_time":1551899938519,"finger_time":1551899937980,"fix_duration":563.5986444896139,"trial":38,"RT":1376,"MT":539,"sideResp":2,"stimulus":[],"xmouse":[803,803,803,803,803,803,803,803,803,803,803,803,803,803,803,803,803,803,803,803,803,803,803,803,803,803,803,803,803,803,803,803,803,803,803,803,803,803,803,803,803,803,803,803,803,803,803,803,803,803,803,803,803,803,803,803,803,803,803,803,803,803,803,803,803,803,803,804,816,831,836,850,869,886,893,899,904,912,933,944,955,967,974,987,993,1000,1005,1011,1020,1026,1032,1040,1045,1053,1058,1064],"ymouse":[590,590,590,590,590,590,590,590,590,590,590,590,590,590,590,590,590,590,590,590,590,590,590,590,590,590,590,590,590,590,590,590,590,590,590,590,590,590,590,590,590,590,590,590,590,590,590,590,590,590,590,590,590,590,590,590,590,590,590,590,590,590,590,590,590,590,590,585,567,542,533,512,483,454,442,432,424,413,382,363,342,314,297,271,260,249,240,228,206,193,180,160,147,119,105,91],"timestamp_mouse":[16,41,56,76,95,116,136,156,176,197,217,235,257,277,295,317,336,356,376,396,415,437,456,475,497,515,535,557,577,596,617,636,657,677,695,716,737,756,776,797,817,836,856,875,897,916,935,955,976,996,1015,1035,1056,1076,1097,1116,1135,1157,1176,1196,1216,1235,1255,1276,1296,1317,1336,1356,1376,1395,1416,1435,1456,1476,1496,1516,1536,1556,1576,1597,1617,1636,1657,1676,1696,1716,1737,1755,1776,1797,1816,1836,1857,1875,1895,1915],"xSR":741.5,"ySR":573.95,"xT1":424.9,"yT1":0,"xT2":1058.1,"yT2":0,"toosoon":0,"cond_shown":"Incongruent","ratio_trial":200,"L_num":3,"L_den":4,"R_num":11,"R_den":20,"correct_side":1,"subjID":"TomasJimenezMartinez34","gender":"0","school":"6","age":"11"},{"start_time":1551899941911,"click_time":1551899944880,"finger_time":1551899943040,"fix_duration":250,"trial":39,"RT":1129,"MT":1840,"sideResp":1,"stimulus":[],"xmouse":[808,808,808,808,808,808,808,808,808,808,808,808,808,808,808,808,808,808,808,808,808,808,808,808,808,808,808,808,808,808,808,808,808,808,808,807,806,805,805,805,805,805,805,805,805,805,805,805,805,805,805,805,802,790,775,757,727,713,695,684,673,660,648,618,606,592,568,553,523,512,503,498,496,492,488,478,477,470,467,465,465,465,465,465,465,465,464,463,447,430,402,373,341,290,271,257,248,244,234,229,226,223,222,228,241,259,287,351,392,392,392,392,392,392,392,392,392,392,392,392,392,392,390,388,388,388,382,372,366,366,366,366,366,371,377,381,388,393,399,401,408,412,416,426,431,435,435,436,438],"ymouse":[608,608,608,608,608,608,608,608,608,608,608,608,608,608,608,608,608,608,608,608,608,608,608,608,608,608,608,608,608,608,608,608,608,608,608,608,608,607,607,607,607,607,607,607,607,607,607,607,607,607,607,607,606,604,598,590,577,570,556,547,539,530,522,501,492,481,464,454,431,424,416,411,409,403,397,386,385,377,370,368,364,363,362,362,362,362,362,361,350,341,331,321,312,291,284,279,277,276,271,271,271,270,270,281,300,321,349,395,419,419,419,419,419,419,419,419,419,419,419,419,419,419,474,578,586,586,526,453,305,255,230,217,207,178,158,132,84,53,12,8,0,0,0,0,0,0,0,0,2],"timestamp_mouse":[20,36,49,70,89,108,128,149,170,189,210,228,248,269,289,308,330,348,369,389,410,430,448,469,489,508,529,550,570,589,609,630,649,668,689,709,730,748,770,790,808,830,850,869,888,909,930,949,970,989,1008,1028,1049,1069,1088,1110,1129,1150,1169,1189,1209,1230,1249,1269,1288,1310,1329,1348,1368,1389,1409,1429,1450,1469,1488,1508,1529,1550,1569,1589,1608,1629,1649,1669,1688,1710,1730,1748,1768,1789,1809,1829,1850,1869,1889,1910,1928,1948,1969,1989,2009,2029,2049,2069,2088,2109,2129,2149,2169,2188,2209,2229,2248,2268,2289,2310,2329,2349,2369,2389,2410,2429,2450,2469,2490,2510,2529,2549,2569,2589,2609,2630,2650,2669,2689,2709,2728,2749,2769,2789,2810,2828,2848,2869,2888,2910,2930,2949,2969],"xSR":741.5,"ySR":573.95,"xT1":424.9,"yT1":0,"xT2":1058.1,"yT2":0,"toosoon":0,"cond_shown":"Incongruent","ratio_trial":300,"L_num":3,"L_den":6,"R_num":4,"R_den":20,"correct_side":1,"subjID":"TomasJimenezMartinez34","gender":"0","school":"6","age":"11"},{"start_time":1551899946031,"click_time":1551899948461,"finger_time":1551899947261,"fix_duration":250,"trial":40,"RT":1230,"MT":1200,"sideResp":1,"stimulus":[],"xmouse":[781,781,781,781,781,781,781,781,781,781,781,781,781,781,781,781,781,781,781,781,781,781,781,781,781,781,781,781,781,781,781,781,781,781,781,781,781,781,781,781,781,781,781,781,781,781,781,781,781,781,782,784,785,786,787,787,789,793,795,796,808,823,874,905,936,964,985,1011,1021,1032,1045,1049,1055,1055,1055,1055,1055,1055,1055,1055,1055,1055,1046,1038,1029,1017,1006,977,963,950,937,919,895,884,872,859,844,805,786,757,739,726,710,668,647,631,615,594,588,582,575,573,563,555,542,529,521,512,503,484,450,431],"ymouse":[648,648,648,648,648,648,648,648,648,648,648,648,648,648,648,648,648,648,648,648,648,648,648,648,648,648,648,648,648,648,648,648,648,648,648,648,648,648,648,648,648,648,648,648,648,648,648,648,648,648,648,648,647,646,643,642,638,632,627,624,598,561,449,394,333,281,237,177,155,138,118,110,100,99,99,99,99,99,99,99,99,101,118,131,148,167,188,240,269,293,317,349,382,392,399,405,409,415,417,417,415,411,407,390,382,377,372,368,367,366,366,365,357,345,328,309,291,250,223,187,117,73],"timestamp_mouse":[10,33,49,70,90,109,128,149,168,190,210,228,249,269,289,308,330,350,369,390,409,430,450,470,490,509,529,550,570,588,610,629,649,670,690,709,728,749,768,789,810,830,849,869,889,908,928,950,970,988,1009,1029,1049,1069,1088,1108,1130,1149,1168,1189,1209,1230,1249,1269,1289,1309,1328,1349,1369,1389,1408,1430,1449,1468,1489,1509,1530,1550,1568,1589,1609,1629,1649,1669,1689,1709,1730,1749,1770,1788,1809,1830,1849,1869,1889,1909,1928,1949,1970,1989,2009,2028,2049,2069,2089,2109,2130,2149,2168,2189,2208,2228,2249,2269,2289,2310,2330,2348,2368,2390,2410,2430],"xSR":741.5,"ySR":573.95,"xT1":424.9,"yT1":0,"xT2":1058.1,"yT2":0,"toosoon":0,"cond_shown":"Congruent","ratio_trial":100,"L_num":8,"L_den":16,"R_num":2,"R_den":5,"correct_side":1,"subjID":"TomasJimenezMartinez34","gender":"0","school":"6","age":"11"},{"start_time":1551899950852,"click_time":1551899952700,"finger_time":1551899952220,"fix_duration":731.9631224143471,"trial":41,"RT":1368,"MT":480,"sideResp":2,"stimulus":[],"xmouse":[796,796,796,796,796,796,796,796,796,796,796,796,796,796,796,796,796,796,796,796,796,796,796,796,796,796,796,796,796,796,796,796,796,796,796,796,796,796,796,796,796,796,796,796,796,796,796,796,796,796,796,796,796,796,796,796,796,796,796,796,796,796,796,796,805,811,826,836,843,855,863,871,901,925,950,967,979,982,987,989,993,1001,1002,1002,1002,1002,1006,1010,1015,1021,1024,1045,1063],"ymouse":[636,636,636,636,636,636,636,636,636,636,636,636,636,636,636,636,636,636,636,636,636,636,636,636,636,636,636,636,636,636,636,636,636,636,636,636,636,636,636,636,636,636,636,636,636,636,636,636,636,636,636,636,636,636,636,636,636,636,636,636,636,636,636,636,627,622,601,586,572,547,529,509,411,329,243,178,116,92,67,56,46,36,36,36,36,35,35,35,35,36,36,37,37],"timestamp_mouse":[9,41,48,69,89,107,128,148,168,189,208,229,248,268,287,307,329,347,368,389,407,429,448,468,487,509,529,548,568,589,608,629,648,669,688,708,728,748,767,787,807,827,847,867,887,907,929,948,967,988,1007,1027,1048,1068,1087,1108,1128,1147,1169,1187,1207,1228,1248,1267,1288,1307,1328,1348,1368,1389,1409,1427,1448,1467,1489,1508,1528,1548,1568,1588,1609,1628,1648,1667,1688,1709,1728,1748,1768,1788,1809,1828,1848],"xSR":741.5,"ySR":573.95,"xT1":424.9,"yT1":0,"xT2":1058.1,"yT2":0,"toosoon":0,"cond_shown":"Congruent","ratio_trial":100,"L_num":12,"L_den":30,"R_num":13,"R_den":26,"correct_side":2,"subjID":"TomasJimenezMartinez34","gender":"0","school":"6","age":"11"},{"start_time":1551899954013,"click_time":1551899956260,"finger_time":1551899955641,"fix_duration":250,"trial":42,"RT":1628,"MT":619,"sideResp":1,"stimulus":[],"xmouse":[813,813,813,813,813,813,813,813,813,813,813,813,813,813,813,813,813,813,813,813,813,813,813,813,813,813,813,813,813,813,813,813,813,813,813,813,813,813,813,813,813,813,813,813,813,813,813,813,813,813,813,813,813,813,813,813,813,813,813,813,813,813,813,813,813,813,813,813,813,813,813,813,813,813,813,813,813,813,813,813,818,824,831,839,842,845,847,850,855,855,856,857,857,857,857,856,849,833,748,701,651,597,578,544,525,506,491,484,480,478,477,477,477],"ymouse":[594,594,594,594,594,594,594,594,594,594,594,594,594,594,594,594,594,594,594,594,594,594,594,594,594,594,594,594,594,594,594,594,594,594,594,594,594,594,594,594,594,594,594,594,594,594,594,594,594,594,594,594,594,594,594,594,594,594,594,594,594,594,594,594,594,594,594,594,594,594,594,594,594,594,594,594,594,594,594,587,576,563,548,529,521,514,505,498,484,480,477,474,473,469,465,459,450,431,375,348,324,298,285,256,239,220,206,192,167,154,133,117,98],"timestamp_mouse":[8,28,47,66,88,108,126,149,167,187,208,228,246,266,288,307,326,348,368,386,407,426,448,467,487,507,527,548,567,586,607,627,647,666,687,706,726,747,767,788,806,827,847,867,888,907,928,946,968,987,1006,1028,1047,1067,1087,1106,1128,1148,1168,1187,1207,1228,1248,1268,1286,1308,1327,1346,1367,1386,1408,1428,1447,1466,1488,1507,1527,1546,1567,1588,1607,1628,1647,1667,1687,1707,1727,1746,1767,1787,1808,1828,1847,1867,1887,1907,1928,1947,1967,1988,2007,2026,2048,2067,2087,2107,2127,2148,2167,2186,2207,2228,2247],"xSR":741.5,"ySR":573.95,"xT1":424.9,"yT1":0,"xT2":1058.1,"yT2":0,"toosoon":0,"cond_shown":"Incongruent","ratio_trial":300,"L_num":4,"L_den":5,"R_num":6,"R_den":12,"correct_side":1,"subjID":"TomasJimenezMartinez34","gender":"0","school":"6","age":"11"},{"start_time":1551899958666,"click_time":1551899960900,"finger_time":1551899960220,"fix_duration":1384.5478149313874,"trial":43,"RT":1554,"MT":680,"sideResp":1,"stimulus":[],"xmouse":[779,779,779,778,778,778,778,778,778,778,778,778,778,778,778,778,778,778,778,778,778,778,778,778,778,778,778,778,778,778,778,778,778,778,778,778,778,778,778,778,778,778,778,778,778,778,778,778,778,778,778,778,778,778,778,778,778,778,778,778,778,778,778,778,778,778,778,778,778,778,778,778,778,778,776,765,753,731,714,698,671,655,641,629,617,605,598,594,588,576,573,573,574,574,574,571,568,565,564,563,561,561,560,558,556,548,541,537,533,532,526,522],"ymouse":[625,625,625,625,625,625,625,625,625,625,625,625,625,625,625,625,625,625,625,625,625,625,625,625,625,625,625,625,625,625,625,625,625,625,625,625,625,625,625,625,625,625,625,625,625,625,625,625,625,625,625,625,625,625,625,625,625,625,625,625,625,625,625,625,625,625,625,625,625,625,625,625,625,625,625,610,590,559,536,513,476,454,431,406,379,335,310,287,260,226,197,184,176,168,163,150,142,134,130,126,123,122,120,119,117,112,108,106,104,103,101,99],"timestamp_mouse":[13,33,54,74,95,114,135,155,174,194,215,234,253,274,294,314,335,355,373,395,415,433,455,474,494,514,535,553,575,595,613,635,654,675,694,714,733,754,774,794,813,834,854,874,894,914,934,955,973,993,1014,1034,1054,1074,1095,1113,1133,1154,1174,1194,1215,1234,1255,1274,1294,1315,1333,1354,1375,1395,1415,1433,1455,1473,1495,1514,1534,1554,1575,1593,1614,1634,1654,1674,1695,1713,1734,1755,1773,1793,1814,1834,1854,1874,1894,1915,1934,1954,1974,1995,2014,2034,2054,2073,2093,2114,2134,2155,2173,2194,2215,2233],"xSR":74