[{"start_time":1551790190680,"click_time":1551790192707,"finger_time":1551790192147,"fix_duration":250,"trial":0,"RT":1467,"MT":560,"sideResp":2,"stimulus":[],"xmouse":[789,789,789,789,789,789,789,789,789,789,789,789,789,789,789,789,789,789,789,789,789,789,789,789,789,789,789,789,789,789,789,789,789,789,789,789,789,789,789,789,789,789,789,789,789,789,789,789,789,789,789,789,789,789,789,789,789,789,789,789,789,789,789,789,789,789,789,789,789,789,790,793,801,816,840,851,874,898,915,953,966,976,982,984,984,984,985,987,989,997,1001,1019,1040,1050,1050,1050,1051,1051,1052,1054,1057,1063],"ymouse":[522,522,522,522,522,522,522,522,522,522,522,522,522,522,522,522,522,522,522,522,522,522,522,522,522,522,522,522,522,522,522,522,522,522,522,522,522,522,522,522,522,522,522,522,522,522,522,522,522,522,522,522,522,522,522,522,522,522,522,522,522,522,522,522,522,522,522,522,522,522,516,509,494,462,403,363,315,263,225,146,123,91,74,71,71,70,70,68,67,67,67,75,79,79,79,79,80,80,80,81,81,81],"timestamp_mouse":[7,43,48,67,88,108,127,147,167,188,208,227,248,267,288,307,327,348,368,389,407,428,449,467,487,508,527,547,568,588,607,627,647,667,687,707,728,747,767,787,807,828,849,867,887,907,928,947,968,988,1007,1027,1048,1068,1089,1108,1129,1148,1167,1189,1207,1227,1249,1267,1289,1307,1327,1348,1367,1388,1407,1427,1447,1467,1487,1508,1527,1548,1567,1587,1608,1628,1648,1668,1687,1707,1728,1747,1769,1788,1807,1828,1848,1869,1888,1907,1928,1948,1969,1989,2008,2027],"xSR":741.5,"ySR":481,"xT1":424.9,"yT1":0,"xT2":1058.1,"yT2":0,"toosoon":0,"cond_shown":"Congruent","ratio_trial":300,"L_num":5,"L_den":25,"R_num":7,"R_den":14,"correct_side":2,"subjID":"valentinaalvarezperez4","gender":"1","age":"12","school":"6","test":{"fix_dur":[250,1500],"timestim":1000,"targets_dim":[100,100],"targets_relative_coord":[0.3,0.7],"size_stim":[880,420],"start_dim":[100,100],"size_start":[300,300],"size_fix":60,"samplingrate":20,"img_types":["Congruent","Incongruent"],"ratios":[100,200,300],"rep_conds":19,"nTrials":120,"trials_to_rest":500,"Trials_order":[70,36,27,35,109,30,53,80,34,71,115,0,33,74,3,60,102,57,119,9,117,96,37,20,2,73,18,104,101,46,105,4,22,85,98,84,41,12,1,23,28,45,78,87,10,11,110,14,43,83,92,63,67,54,49,32,65,24,61,89,26,58,29,31,86,47,111,99,56,39,42,94,114,55,66,6,59,7,97,108,68,44,113,82,90,64,51,17,25,103,50,100,16,13,116,93,77,21,38,40,76,91,79,48,69,15,106,118,112,5,8,107,95,88,52,75,72,19,62,81],"cond_shown":["Congruent","Congruent","Incongruent","Incongruent","Incongruent","Congruent","Incongruent","Congruent","Congruent","Incongruent","Incongruent","Congruent","Incongruent","Congruent","Incongruent","Congruent","Congruent","Incongruent","Incongruent","Incongruent","Incongruent","Congruent","Incongruent","Congruent","Congruent","Incongruent","Congruent","Congruent","Incongruent","Congruent","Incongruent","Congruent","Congruent","Incongruent","Congruent","Congruent","Incongruent","Congruent","Incongruent","Incongruent","Congruent","Incongruent","Congruent","Incongruent","Congruent","Incongruent","Congruent","Congruent","Incongruent","Incongruent","Congruent","Incongruent","Incongruent","Congruent","Incongruent","Congruent","Incongruent","Congruent","Incongruent","Incongruent","Congruent","Congruent","Incongruent","Incongruent","Congruent","Incongruent","Incongruent","Incongruent","Congruent","Incongruent","Congruent","Congruent","Congruent","Incongruent","Congruent","Congruent","Incongruent","Incongruent","Incongruent","Congruent","Congruent","Congruent","Incongruent","Congruent","Congruent","Congruent","Incongruent","Incongruent","Incongruent","Incongruent","Congruent","Congruent","Congruent","Incongruent","Congruent","Incongruent","Incongruent","Incongruent","Congruent","Congruent","Congruent","Incongruent","Incongruent","Congruent","Incongruent","Incongruent","Congruent","Congruent","Congruent","Incongruent","Congruent","Incongruent","Incongruent","Congruent","Congruent","Incongruent","Congruent","Incongruent","Congruent","Incongruent"],"ratio_trial":[300,100,200,300,100,100,300,200,300,300,100,100,200,200,200,100,100,200,300,200,200,100,100,200,200,100,100,200,300,300,200,300,300,100,200,100,300,100,100,300,300,200,100,200,300,300,200,200,100,300,200,200,100,100,100,200,300,100,100,300,200,300,300,100,200,300,200,200,200,200,100,300,100,100,100,100,300,100,100,100,200,200,300,300,100,300,200,300,100,100,200,300,300,100,200,200,300,200,200,300,300,100,100,100,200,200,300,300,300,300,200,300,300,300,300,200,100,100,200,200],"left_num":[5,11,3,13,6,4,13,4,1,4,17,3,11,12,3,8,2,9,13,14,3,10,10,12,8,3,11,15,13,3,1,1,20,10,12,3,1,11,13,3,1,3,8,1,20,4,3,1,9,7,16,14,3,11,13,9,4,3,6,8,7,24,1,8,15,4,7,1,6,4,1,2,2,4,4,10,13,9,4,15,7,12,13,3,3,20,4,4,3,17,14,20,1,3,8,4,3,7,3,1,11,3,13,11,7,7,1,1,12,13,8,13,8,11,4,7,11,6,5,6],"right_num":[7,4,11,12,13,6,12,3,11,2,10,2,3,6,11,2,11,8,12,6,1,3,8,6,7,11,4,4,12,11,2,8,9,9,6,2,3,4,12,4,19,1,2,3,8,2,9,21,6,8,9,6,8,4,12,4,2,4,11,9,2,2,2,1,4,2,4,3,11,6,3,10,11,8,6,3,12,6,8,13,18,6,12,4,2,13,6,2,8,10,6,5,19,7,7,6,4,6,7,11,4,11,12,6,6,4,19,3,2,12,2,12,9,1,2,14,6,11,14,3],"left_den":[25,22,4,26,10,8,26,10,5,20,30,6,20,20,4,16,5,15,26,30,10,25,25,20,15,5,22,25,26,12,3,30,25,25,20,6,2,22,26,6,3,10,16,2,25,20,12,2,18,10,30,30,5,22,26,20,20,20,10,10,21,30,2,20,25,20,15,2,20,5,2,20,5,8,8,25,26,18,8,25,15,20,26,6,6,25,5,20,5,30,28,25,3,9,15,5,6,15,10,5,22,5,26,22,15,15,3,5,24,26,15,26,10,22,5,10,22,10,10,20],"right_den":[14,10,20,15,26,10,15,15,22,4,15,5,4,15,20,5,22,10,15,9,2,10,16,15,21,22,10,10,15,20,15,24,18,18,15,5,15,10,20,20,30,2,5,10,16,4,20,30,10,20,27,9,16,10,20,16,4,16,22,18,15,4,10,2,10,4,6,10,22,10,5,25,22,20,10,10,15,10,20,26,27,15,15,5,5,26,10,4,16,15,20,10,30,30,21,10,20,9,14,22,20,22,20,15,9,6,30,6,10,15,6,15,18,5,4,28,15,22,20,6],"correct_side":[2,1,1,2,1,2,2,1,2,2,2,1,2,1,1,1,2,2,2,2,2,1,2,1,1,1,1,1,2,2,1,2,1,2,1,1,1,1,2,1,2,2,1,1,1,2,2,2,2,1,1,2,1,1,2,1,2,2,1,1,1,1,1,2,1,2,2,1,2,1,2,2,2,1,2,1,2,2,1,1,2,1,2,2,1,1,1,2,1,2,1,1,2,1,1,1,1,2,2,2,1,1,2,1,2,2,2,2,1,2,1,2,1,1,1,1,1,1,2,2],"img_shown":["img2/300/Congruent/R/C_Dist_300_LN_5_LD_25_RN_7_RD_14_1.png","img2/100/Congruent/L/C_Dist_100_LN_11_LD_22_RN_4_RD_10_0.png","img2/200/Incongruent/L/I_Dist_200_LN_3_LD_4_RN_11_RD_20_0.png","img2/300/Incongruent/R/I_Dist_300_LN_13_LD_26_RN_12_RD_15_1.png","img2/100/Incongruent/L/I_Dist_100_LN_6_LD_10_RN_13_RD_26_0.png","img2/100/Congruent/R/C_Dist_100_LN_4_LD_8_RN_6_RD_10_1.png","img2/300/Incongruent/R/I_Dist_300_LN_13_LD_26_RN_12_RD_15_1.png","img2/200/Congruent/L/C_Dist_200_LN_4_LD_10_RN_3_RD_15_0.png","img2/300/Congruent/R/C_Dist_300_LN_1_LD_5_RN_11_RD_22_1.png","img2/300/Incongruent/R/I_Dist_300_LN_4_LD_20_RN_2_RD_4_1.png","img2/100/Incongruent/R/I_Dist_100_LN_17_LD_30_RN_10_RD_15_1.png","img2/100/Congruent/L/C_Dist_100_LN_3_LD_6_RN_2_RD_5_0.png","img2/200/Incongruent/R/I_Dist_200_LN_11_LD_20_RN_3_RD_4_1.png","img2/200/Congruent/L/C_Dist_200_LN_12_LD_20_RN_6_RD_15_0.png","img2/200/Incongruent/L/I_Dist_200_LN_3_LD_4_RN_11_RD_20_0.png","img2/100/Congruent/L/C_Dist_100_LN_8_LD_16_RN_2_RD_5_0.png","img2/100/Congruent/R/C_Dist_100_LN_2_LD_5_RN_11_RD_22_1.png","img2/200/Incongruent/R/I_Dist_200_LN_9_LD_15_RN_8_RD_10_1.png","img2/300/Incongruent/R/I_Dist_300_LN_13_LD_26_RN_12_RD_15_1.png","img2/200/Incongruent/R/I_Dist_200_LN_14_LD_30_RN_6_RD_9_1.png","img2/200/Incongruent/R/I_Dist_200_LN_3_LD_10_RN_1_RD_2_1.png","img2/100/Congruent/L/C_Dist_100_LN_10_LD_25_RN_3_RD_10_0.png","img2/100/Incongruent/R/I_Dist_100_LN_10_LD_25_RN_8_RD_16_1.png","img2/200/Congruent/L/C_Dist_200_LN_12_LD_20_RN_6_RD_15_0.png","img2/200/Congruent/L/C_Dist_200_LN_8_LD_15_RN_7_RD_21_0.png","img2/100/Incongruent/L/I_Dist_100_LN_3_LD_5_RN_11_RD_22_0.png","img2/100/Congruent/L/C_Dist_100_LN_11_LD_22_RN_4_RD_10_0.png","img2/200/Congruent/L/C_Dist_200_LN_15_LD_25_RN_4_RD_10_0.png","img2/300/Incongruent/R/I_Dist_300_LN_13_LD_26_RN_12_RD_15_1.png","img2/300/Congruent/R/C_Dist_300_LN_3_LD_12_RN_11_RD_20_1.png","img2/200/Incongruent/L/I_Dist_200_LN_1_LD_3_RN_2_RD_15_0.png","img2/300/Congruent/R/C_Dist_300_LN_1_LD_30_RN_8_RD_24_1.png","img2/300/Congruent/L/C_Dist_300_LN_20_LD_25_RN_9_RD_18_0.png","img2/100/Incongruent/R/I_Dist_100_LN_10_LD_25_RN_9_RD_18_1.png","img2/200/Congruent/L/C_Dist_200_LN_12_LD_20_RN_6_RD_15_0.png","img2/100/Congruent/L/C_Dist_100_LN_3_LD_6_RN_2_RD_5_0.png","img2/300/Incongruent/L/I_Dist_300_LN_1_LD_2_RN_3_RD_15_0.png","img2/100/Congruent/L/C_Dist_100_LN_11_LD_22_RN_4_RD_10_0.png","img2/100/Incongruent/R/I_Dist_100_LN_13_LD_26_RN_12_RD_20_1.png","img2/300/Incongruent/L/I_Dist_300_LN_3_LD_6_RN_4_RD_20_0.png","img2/300/Congruent/R/C_Dist_300_LN_1_LD_3_RN_19_RD_30_1.png","img2/200/Incongruent/R/I_Dist_200_LN_3_LD_10_RN_1_RD_2_1.png","img2/100/Congruent/L/C_Dist_100_LN_8_LD_16_RN_2_RD_5_0.png","img2/200/Incongruent/L/I_Dist_200_LN_1_LD_2_RN_3_RD_10_0.png","img2/300/Congruent/L/C_Dist_300_LN_20_LD_25_RN_8_RD_16_0.png","img2/300/Incongruent/R/I_Dist_300_LN_4_LD_20_RN_2_RD_4_1.png","img2/200/Congruent/R/C_Dist_200_LN_3_LD_12_RN_9_RD_20_1.png","img2/200/Congruent/R/C_Dist_200_LN_1_LD_2_RN_21_RD_30_1.png","img2/100/Incongruent/R/I_Dist_100_LN_9_LD_18_RN_6_RD_10_1.png","img2/300/Incongruent/L/I_Dist_300_LN_7_LD_10_RN_8_RD_20_0.png","img2/200/Congruent/L/C_Dist_200_LN_16_LD_30_RN_9_RD_27_0.png","img2/200/Incongruent/R/I_Dist_200_LN_14_LD_30_RN_6_RD_9_1.png","img2/100/Incongruent/L/I_Dist_100_LN_3_LD_5_RN_8_RD_16_0.png","img2/100/Congruent/L/C_Dist_100_LN_11_LD_22_RN_4_RD_10_0.png","img2/100/Incongruent/R/I_Dist_100_LN_13_LD_26_RN_12_RD_20_1.png","img2/200/Congruent/L/C_Dist_200_LN_9_LD_20_RN_4_RD_16_0.png","img2/300/Incongruent/R/I_Dist_300_LN_4_LD_20_RN_2_RD_4_1.png","img2/100/Congruent/R/C_Dist_100_LN_3_LD_20_RN_4_RD_16_1.png","img2/100/Incongruent/L/I_Dist_100_LN_6_LD_10_RN_11_RD_22_0.png","img2/300/Incongruent/L/I_Dist_300_LN_8_LD_10_RN_9_RD_18_0.png","img2/200/Congruent/L/C_Dist_200_LN_7_LD_21_RN_2_RD_15_0.png","img2/300/Congruent/L/C_Dist_300_LN_24_LD_30_RN_2_RD_4_0.png","img2/300/Incongruent/L/I_Dist_300_LN_1_LD_2_RN_2_RD_10_0.png","img2/100/Incongruent/R/I_Dist_100_LN_8_LD_20_RN_1_RD_2_1.png","img2/200/Congruent/L/C_Dist_200_LN_15_LD_25_RN_4_RD_10_0.png","img2/300/Incongruent/R/I_Dist_300_LN_4_LD_20_RN_2_RD_4_1.png","img2/200/Incongruent/R/I_Dist_200_LN_7_LD_15_RN_4_RD_6_1.png","img2/200/Incongruent/L/I_Dist_200_LN_1_LD_2_RN_3_RD_10_0.png","img2/200/Congruent/R/C_Dist_200_LN_6_LD_20_RN_11_RD_22_1.png","img2/200/Incongruent/L/I_Dist_200_LN_4_LD_5_RN_6_RD_10_0.png","img2/100/Congruent/R/C_Dist_100_LN_1_LD_2_RN_3_RD_5_1.png","img2/300/Congruent/R/C_Dist_300_LN_2_LD_20_RN_10_RD_25_1.png","img2/100/Congruent/R/C_Dist_100_LN_2_LD_5_RN_11_RD_22_1.png","img2/100/Incongruent/L/I_Dist_100_LN_4_LD_8_RN_8_RD_20_0.png","img2/100/Congruent/R/C_Dist_100_LN_4_LD_8_RN_6_RD_10_1.png","img2/100/Congruent/L/C_Dist_100_LN_10_LD_25_RN_3_RD_10_0.png","img2/300/Incongruent/R/I_Dist_300_LN_13_LD_26_RN_12_RD_15_1.png","img2/100/Incongruent/R/I_Dist_100_LN_9_LD_18_RN_6_RD_10_1.png","img2/100/Incongruent/L/I_Dist_100_LN_4_LD_8_RN_8_RD_20_0.png","img2/100/Congruent/L/C_Dist_100_LN_15_LD_25_RN_13_RD_26_0.png","img2/200/Congruent/R/C_Dist_200_LN_7_LD_15_RN_18_RD_27_1.png","img2/200/Congruent/L/C_Dist_200_LN_12_LD_20_RN_6_RD_15_0.png","img2/300/Incongruent/R/I_Dist_300_LN_13_LD_26_RN_12_RD_15_1.png","img2/300/Congruent/R/C_Dist_300_LN_3_LD_6_RN_4_RD_5_1.png","img2/100/Congruent/L/C_Dist_100_LN_3_LD_6_RN_2_RD_5_0.png","img2/300/Congruent/L/C_Dist_300_LN_20_LD_25_RN_13_RD_26_0.png","img2/200/Incongruent/L/I_Dist_200_LN_4_LD_5_RN_6_RD_10_0.png","img2/300/Incongruent/R/I_Dist_300_LN_4_LD_20_RN_2_RD_4_1.png","img2/100/Incongruent/L/I_Dist_100_LN_3_LD_5_RN_8_RD_16_0.png","img2/100/Incongruent/R/I_Dist_100_LN_17_LD_30_RN_10_RD_15_1.png","img2/200/Congruent/L/C_Dist_200_LN_14_LD_28_RN_6_RD_20_0.png","img2/300/Congruent/L/C_Dist_300_LN_20_LD_25_RN_5_RD_10_0.png","img2/300/Congruent/R/C_Dist_300_LN_1_LD_3_RN_19_RD_30_1.png","img2/100/Incongruent/L/I_Dist_100_LN_3_LD_9_RN_7_RD_30_0.png","img2/200/Congruent/L/C_Dist_200_LN_8_LD_15_RN_7_RD_21_0.png","img2/200/Incongruent/L/I_Dist_200_LN_4_LD_5_RN_6_RD_10_0.png","img2/300/Incongruent/L/I_Dist_300_LN_3_LD_6_RN_4_RD_20_0.png","img2/200/Incongruent/R/I_Dist_200_LN_7_LD_15_RN_6_RD_9_1.png","img2/200/Congruent/R/C_Dist_200_LN_3_LD_10_RN_7_RD_14_1.png","img2/300/Congruent/R/C_Dist_300_LN_1_LD_5_RN_11_RD_22_1.png","img2/300/Congruent/L/C_Dist_300_LN_11_LD_22_RN_4_RD_20_0.png","img2/100/Incongruent/L/I_Dist_100_LN_3_LD_5_RN_11_RD_22_0.png","img2/100/Incongruent/R/I_Dist_100_LN_13_LD_26_RN_12_RD_20_1.png","img2/100/Congruent/L/C_Dist_100_LN_11_LD_22_RN_6_RD_15_0.png","img2/200/Incongruent/R/I_Dist_200_LN_7_LD_15_RN_6_RD_9_1.png","img2/200/Incongruent/R/I_Dist_200_LN_7_LD_15_RN_4_RD_6_1.png","img2/300/Congruent/R/C_Dist_300_LN_1_LD_3_RN_19_RD_30_1.png","img2/300/Congruent/R/C_Dist_300_LN_1_LD_5_RN_3_RD_6_1.png","img2/300/Congruent/L/C_Dist_300_LN_12_LD_24_RN_2_RD_10_0.png","img2/300/Incongruent/R/I_Dist_300_LN_13_LD_26_RN_12_RD_15_1.png","img2/200/Congruent/L/C_Dist_200_LN_8_LD_15_RN_2_RD_6_0.png","img2/300/Incongruent/R/I_Dist_300_LN_13_LD_26_RN_12_RD_15_1.png","img2/300/Incongruent/L/I_Dist_300_LN_8_LD_10_RN_9_RD_18_0.png","img2/300/Congruent/L/C_Dist_300_LN_11_LD_22_RN_1_RD_5_0.png","img2/300/Congruent/L/C_Dist_300_LN_4_LD_5_RN_2_RD_4_0.png","img2/200/Incongruent/L/I_Dist_200_LN_7_LD_10_RN_14_RD_28_0.png","img2/100/Congruent/L/C_Dist_100_LN_11_LD_22_RN_6_RD_15_0.png","img2/100/Incongruent/L/I_Dist_100_LN_6_LD_10_RN_11_RD_22_0.png","img2/200/Congruent/R/C_Dist_200_LN_5_LD_10_RN_14_RD_20_1.png","img2/200/Incongruent/R/I_Dist_200_LN_6_LD_20_RN_3_RD_6_1.png"],"dist100_C":[["C_Dist_100_LN_10_LD_25_RN_3_RD_10_0.png","C_Dist_100_LN_11_LD_22_RN_4_RD_10_0.png","C_Dist_100_LN_11_LD_22_RN_6_RD_15_0.png","C_Dist_100_LN_15_LD_25_RN_13_RD_26_0.png","C_Dist_100_LN_3_LD_6_RN_2_RD_5_0.png","C_Dist_100_LN_6_LD_20_RN_5_RD_25_0.png","C_Dist_100_LN_8_LD_16_RN_2_RD_5_0.png","C_Dist_100_LN_9_LD_15_RN_8_RD_16_0.png"],["C_Dist_100_LN_1_LD_2_RN_18_RD_30_1.png","C_Dist_100_LN_1_LD_2_RN_3_RD_5_1.png","C_Dist_100_LN_12_LD_30_RN_13_RD_26_1.png","C_Dist_100_LN_2_LD_5_RN_11_RD_22_1.png","C_Dist_100_LN_2_LD_5_RN_6_RD_12_1.png","C_Dist_100_LN_3_LD_20_RN_4_RD_16_1.png","C_Dist_100_LN_4_LD_10_RN_15_RD_30_1.png","C_Dist_100_LN_4_LD_8_RN_6_RD_10_1.png","C_Dist_100_LN_6_LD_12_RN_15_RD_25_1.png","C_Dist_100_LN_7_LD_14_RN_15_RD_25_1.png","C_Dist_100_LN_7_LD_14_RN_9_RD_15_1.png"]],"dist100_I":[["I_Dist_100_LN_1_LD_2_RN_8_RD_20_0.png","I_Dist_100_LN_2_LD_4_RN_6_RD_15_0.png","I_Dist_100_LN_2_LD_4_RN_8_RD_20_0.png","I_Dist_100_LN_3_LD_5_RN_11_RD_22_0.png","I_Dist_100_LN_3_LD_5_RN_8_RD_16_0.png","I_Dist_100_LN_3_LD_6_RN_4_RD_10_0.png","I_Dist_100_LN_3_LD_9_RN_7_RD_30_0.png","I_Dist_100_LN_4_LD_8_RN_8_RD_20_0.png","I_Dist_100_LN_6_LD_10_RN_11_RD_22_0.png","I_Dist_100_LN_6_LD_10_RN_13_RD_26_0.png","I_Dist_100_LN_6_LD_10_RN_7_RD_14_0.png","I_Dist_100_LN_9_LD_10_RN_20_RD_25_0.png","I_Dist_100_LN_9_LD_15_RN_13_RD_26_0.png","I_Dist_100_LN_9_LD_15_RN_14_RD_28_0.png"],["I_Dist_100_LN_10_LD_25_RN_8_RD_16_1.png","I_Dist_100_LN_10_LD_25_RN_9_RD_18_1.png","I_Dist_100_LN_11_LD_22_RN_9_RD_15_1.png","I_Dist_100_LN_12_LD_24_RN_9_RD_15_1.png","I_Dist_100_LN_12_LD_30_RN_2_RD_4_1.png","I_Dist_100_LN_13_LD_26_RN_12_RD_20_1.png","I_Dist_100_LN_13_LD_26_RN_6_RD_10_1.png","I_Dist_100_LN_17_LD_30_RN_10_RD_15_1.png","I_Dist_100_LN_6_LD_12_RN_3_RD_5_1.png","I_Dist_100_LN_8_LD_16_RN_6_RD_10_1.png","I_Dist_100_LN_8_LD_20_RN_1_RD_2_1.png","I_Dist_100_LN_9_LD_18_RN_6_RD_10_1.png"]],"dist100_S":[["E_Dist_100_LN_2_LD_12_RN_2_RD_30_0.png","E_Dist_100_LN_6_LD_10_RN_6_RD_12_0.png"],["E_Dist_100_LN_6_LD_12_RN_6_RD_10_1.png"]],"dist200_C":[["C_Dist_200_LN_11_LD_22_RN_3_RD_10_0.png","C_Dist_200_LN_12_LD_15_RN_6_RD_10_0.png","C_Dist_200_LN_12_LD_20_RN_6_RD_15_0.png","C_Dist_200_LN_14_LD_28_RN_6_RD_20_0.png","C_Dist_200_LN_15_LD_25_RN_4_RD_10_0.png","C_Dist_200_LN_16_LD_20_RN_12_RD_20_0.png","C_Dist_200_LN_16_LD_30_RN_9_RD_27_0.png","C_Dist_200_LN_20_LD_25_RN_9_RD_15_0.png","C_Dist_200_LN_21_LD_30_RN_2_RD_4_0.png","C_Dist_200_LN_4_LD_10_RN_3_RD_15_0.png","C_Dist_200_LN_4_LD_8_RN_3_RD_10_0.png","C_Dist_200_LN_6_LD_15_RN_3_RD_15_0.png","C_Dist_200_LN_7_LD_21_RN_2_RD_15_0.png","C_Dist_200_LN_8_LD_15_RN_2_RD_6_0.png","C_Dist_200_LN_8_LD_15_RN_3_RD_9_0.png","C_Dist_200_LN_8_LD_15_RN_7_RD_21_0.png","C_Dist_200_LN_9_LD_20_RN_4_RD_16_0.png"],["C_Dist_200_LN_1_LD_2_RN_21_RD_30_1.png","C_Dist_200_LN_13_LD_26_RN_14_RD_20_1.png","C_Dist_200_LN_3_LD_10_RN_11_RD_22_1.png","C_Dist_200_LN_3_LD_10_RN_14_RD_28_1.png","C_Dist_200_LN_3_LD_10_RN_7_RD_14_1.png","C_Dist_200_LN_3_LD_12_RN_9_RD_20_1.png","C_Dist_200_LN_3_LD_6_RN_14_RD_20_1.png","C_Dist_200_LN_5_LD_10_RN_14_RD_20_1.png","C_Dist_200_LN_6_LD_12_RN_7_RD_10_1.png","C_Dist_200_LN_6_LD_20_RN_11_RD_22_1.png","C_Dist_200_LN_7_LD_15_RN_18_RD_27_1.png","C_Dist_200_LN_9_LD_30_RN_13_RD_26_1.png"]],"dist200_I":[["I_Dist_200_LN_1_LD_2_RN_3_RD_10_0.png","I_Dist_200_LN_1_LD_3_RN_2_RD_15_0.png","I_Dist_200_LN_3_LD_4_RN_11_RD_20_0.png","I_Dist_200_LN_4_LD_5_RN_6_RD_10_0.png","I_Dist_200_LN_4_LD_6_RN_14_RD_30_0.png","I_Dist_200_LN_7_LD_10_RN_12_RD_24_0.png","I_Dist_200_LN_7_LD_10_RN_14_RD_28_0.png","I_Dist_200_LN_7_LD_10_RN_8_RD_16_0.png"],["I_Dist_200_LN_11_LD_20_RN_3_RD_4_1.png","I_Dist_200_LN_14_LD_30_RN_12_RD_18_1.png","I_Dist_200_LN_14_LD_30_RN_6_RD_9_1.png","I_Dist_200_LN_3_LD_10_RN_1_RD_2_1.png","I_Dist_200_LN_4_LD_30_RN_1_RD_3_1.png","I_Dist_200_LN_6_LD_20_RN_3_RD_6_1.png","I_Dist_200_LN_7_LD_15_RN_4_RD_6_1.png","I_Dist_200_LN_7_LD_15_RN_6_RD_9_1.png","I_Dist_200_LN_9_LD_15_RN_8_RD_10_1.png"]],"dist200_S":[["E_Dist_200_LN_3_LD_6_RN_3_RD_10_0.png"],["E_Dist_200_LN_3_LD_10_RN_3_RD_6_1.png"]],"dist300_C":[["C_Dist_300_LN_11_LD_22_RN_1_RD_5_0.png","C_Dist_300_LN_11_LD_22_RN_2_RD_10_0.png","C_Dist_300_LN_11_LD_22_RN_4_RD_20_0.png","C_Dist_300_LN_12_LD_24_RN_2_RD_10_0.png","C_Dist_300_LN_18_LD_20_RN_9_RD_15_0.png","C_Dist_300_LN_20_LD_25_RN_13_RD_26_0.png","C_Dist_300_LN_20_LD_25_RN_14_RD_28_0.png","C_Dist_300_LN_20_LD_25_RN_5_RD_10_0.png","C_Dist_300_LN_20_LD_25_RN_8_RD_16_0.png","C_Dist_300_LN_20_LD_25_RN_9_RD_18_0.png","C_Dist_300_LN_24_LD_30_RN_2_RD_4_0.png","C_Dist_300_LN_24_LD_30_RN_8_RD_16_0.png","C_Dist_300_LN_3_LD_6_RN_2_RD_10_0.png","C_Dist_300_LN_4_LD_10_RN_1_RD_10_0.png","C_Dist_300_LN_4_LD_5_RN_2_RD_4_0.png","C_Dist_300_LN_8_LD_16_RN_1_RD_5_0.png","C_Dist_300_LN_9_LD_10_RN_3_RD_5_0.png"],["C_Dist_300_LN_1_LD_20_RN_7_RD_20_1.png","C_Dist_300_LN_1_LD_3_RN_19_RD_30_1.png","C_Dist_300_LN_1_LD_30_RN_8_RD_24_1.png","C_Dist_300_LN_1_LD_5_RN_11_RD_22_1.png","C_Dist_300_LN_1_LD_5_RN_3_RD_6_1.png","C_Dist_300_LN_1_LD_5_RN_6_RD_12_1.png","C_Dist_300_LN_2_LD_10_RN_12_RD_24_1.png","C_Dist_300_LN_2_LD_20_RN_10_RD_25_1.png","C_Dist_300_LN_3_LD_12_RN_11_RD_20_1.png","C_Dist_300_LN_3_LD_6_RN_4_RD_5_1.png","C_Dist_300_LN_4_LD_20_RN_13_RD_26_1.png","C_Dist_300_LN_5_LD_25_RN_6_RD_12_1.png","C_Dist_300_LN_5_LD_25_RN_7_RD_14_1.png","C_Dist_300_LN_7_LD_14_RN_20_RD_25_1.png","C_Dist_300_LN_8_LD_15_RN_10_RD_12_1.png"]],"dist300_I":[["I_Dist_300_LN_1_LD_2_RN_2_RD_10_0.png","I_Dist_300_LN_1_LD_2_RN_3_RD_15_0.png","I_Dist_300_LN_2_LD_4_RN_6_RD_30_0.png","I_Dist_300_LN_3_LD_6_RN_4_RD_20_0.png","I_Dist_300_LN_4_LD_5_RN_6_RD_12_0.png","I_Dist_300_LN_4_LD_5_RN_8_RD_16_0.png","I_Dist_300_LN_7_LD_10_RN_8_RD_20_0.png","I_Dist_300_LN_8_LD_10_RN_14_RD_28_0.png","I_Dist_300_LN_8_LD_10_RN_9_RD_18_0.png"],["I_Dist_300_LN_13_LD_26_RN_12_RD_15_1.png","I_Dist_300_LN_4_LD_20_RN_2_RD_4_1.png"]],"dist300_S":[["E_Dist_300_LN_9_LD_12_RN_9_RD_20_0.png"],["E_Dist_300_LN_18_LD_30_RN_18_RD_20_1.png","E_Dist_300_LN_3_LD_10_RN_3_RD_5_1.png","E_Dist_300_LN_9_LD_20_RN_9_RD_12_1.png"]],"dist500_C":[["C_Dist_500_LN_10_LD_13_RN_7_RD_26_0.png","C_Dist_500_LN_10_LD_15_RN_4_RD_24_0.png","C_Dist_500_LN_12_LD_16_RN_3_RD_12_0.png","C_Dist_500_LN_12_LD_18_RN_4_RD_24_0.png","C_Dist_500_LN_15_LD_18_RN_5_RD_15_0.png","C_Dist_500_LN_15_LD_20_RN_1_RD_4_0.png","C_Dist_500_LN_18_LD_27_RN_1_RD_6_0.png","C_Dist_500_LN_20_LD_24_RN_1_RD_3_0.png","C_Dist_500_LN_20_LD_24_RN_3_RD_9_0.png","C_Dist_500_LN_20_LD_24_RN_7_RD_21_0.png","C_Dist_500_LN_20_LD_28_RN_3_RD_14_0.png","C_Dist_500_LN_21_LD_28_RN_6_RD_24_0.png","C_Dist_500_LN_22_LD_28_RN_2_RD_7_0.png","C_Dist_500_LN_25_LD_30_RN_9_RD_27_0.png","C_Dist_500_LN_4_LD_6_RN_1_RD_6_0.png","C_Dist_500_LN_5_LD_6_RN_2_RD_6_0.png","C_Dist_500_LN_6_LD_9_RN_1_RD_6_0.png","C_Dist_500_LN_7_LD_10_RN_1_RD_5_0.png","C_Dist_500_LN_8_LD_12_RN_1_RD_6_0.png","C_Dist_500_LN_8_LD_12_RN_4_RD_24_0.png"],["C_Dist_500_LN_1_LD_4_RN_12_RD_16_1.png","C_Dist_500_LN_1_LD_4_RN_9_RD_12_1.png","C_Dist_500_LN_1_LD_9_RN_11_RD_18_1.png","C_Dist_500_LN_10_LD_24_RN_22_RD_24_1.png","C_Dist_500_LN_2_LD_12_RN_10_RD_15_1.png","C_Dist_500_LN_2_LD_12_RN_12_RD_18_1.png","C_Dist_500_LN_2_LD_12_RN_4_RD_6_1.png","C_Dist_500_LN_2_LD_24_RN_7_RD_12_1.png","C_Dist_500_LN_2_LD_5_RN_18_RD_20_1.png","C_Dist_500_LN_2_LD_5_RN_9_RD_10_1.png","C_Dist_500_LN_2_LD_8_RN_12_RD_16_1.png","C_Dist_500_LN_2_LD_8_RN_21_RD_28_1.png","C_Dist_500_LN_3_LD_10_RN_4_RD_5_1.png","C_Dist_500_LN_3_LD_12_RN_15_RD_20_1.png","C_Dist_500_LN_3_LD_30_RN_6_RD_10_1.png","C_Dist_500_LN_3_LD_8_RN_14_RD_16_1.png","C_Dist_500_LN_4_LD_16_RN_15_RD_20_1.png","C_Dist_500_LN_4_LD_24_RN_12_RD_18_1.png","C_Dist_500_LN_5_LD_14_RN_6_RD_7_1.png","C_Dist_500_LN_7_LD_21_RN_20_RD_24_1.png","C_Dist_500_LN_7_LD_28_RN_12_RD_16_1.png","C_Dist_500_LN_7_LD_28_RN_9_RD_12_1.png","C_Dist_500_LN_9_LD_27_RN_20_RD_24_1.png"]],"dist500_I":[["I_Dist_500_LN_2_LD_3_RN_4_RD_24_0.png","I_Dist_500_LN_5_LD_6_RN_6_RD_18_0.png","I_Dist_500_LN_7_LD_8_RN_9_RD_24_0.png"],["I_Dist_500_LN_7_LD_21_RN_5_RD_6_1.png"]],"dist500_S":[["E_Dist_500_LN_6_LD_8_RN_6_RD_24_0.png"],["E_Dist_500_LN_2_LD_12_RN_2_RD_3_1.png","E_Dist_500_LN_6_LD_24_RN_6_RD_8_1.png"]]}},{"start_time":1551790195180,"click_time":1551790197168,"finger_time":1551790196827,"fix_duration":250,"trial":1,"RT":1647,"MT":341,"sideResp":1,"stimulus":[],"xmouse":[794,794,794,794,794,794,794,794,794,794,794,794,794,794,794,794,794,794,794,794,794,794,794,794,794,794,795,795,795,795,795,795,795,795,795,795,795,795,795,795,795,795,796,797,801,802,803,804,804,804,804,804,804,804,804,804,798,794,783,762,753,748,744,742,742,742,742,742,742,742,742,742,747,751,763,766,769,769,769,769,768,762,735,649,630,606,589,575,566,562,561,559,554,554,553,553,553,550,527,515],"ymouse":[575,575,575,574,573,573,573,573,573,572,572,572,571,571,571,571,571,571,571,571,571,571,571,571,571,571,569,569,569,569,569,569,569,569,569,569,569,569,569,569,569,568,562,552,549,547,544,544,544,544,544,544,544,544,544,543,539,536,530,516,511,507,505,504,504,504,504,504,504,504,504,504,507,510,522,525,528,528,528,528,523,512,460,323,292,247,211,172,138,107,97,91,83,78,76,75,75,75,72,70],"timestamp_mouse":[19,39,47,68,88,107,127,147,168,187,207,229,249,267,287,307,328,348,368,387,409,429,447,468,487,507,527,548,567,587,607,628,647,668,687,707,727,748,767,788,807,827,849,869,887,908,927,948,967,987,1009,1027,1048,1068,1088,1108,1128,1147,1167,1188,1208,1227,1247,1268,1287,1307,1328,1349,1367,1388,1409,1427,1447,1468,1487,1508,1528,1549,1568,1587,1608,1628,1647,1668,1687,1708,1727,1748,1768,1787,1807,1827,1848,1868,1888,1908,1928,1948,1967,1988],"xSR":741.5,"ySR":481,"xT1":424.9,"yT1":0,"xT2":1058.1,"yT2":0,"toosoon":0,"cond_shown":"Congruent","ratio_trial":100,"L_num":11,"L_den":22,"R_num":4,"R_den":10,"correct_side":1,"subjID":"valentinaalvarezperez4","gender":"1","school":"6","age":"12"},{"start_time":1551790199158,"click_time":1551790200807,"finger_time":1551790200667,"fix_duration":1289.6682488464558,"trial":2,"RT":1509,"MT":140,"sideResp":2,"stimulus":[],"xmouse":[802,802,802,802,802,802,802,802,802,802,802,802,802,802,802,802,802,802,802,802,802,802,802,802,802,802,802,802,802,802,802,802,802,802,802,802,793,781,778,778,778,778,778,778,780,783,784,784,784,784,784,784,784,784,784,784,784,779,773,769,769,768,768,768,768,768,768,768,768,768,768,770,775,791,820,933,976,991,1061,1095,1134,1141,1142],"ymouse":[521,521,521,521,521,521,521,521,521,521,521,521,521,521,521,521,521,521,521,521,521,521,521,521,521,521,521,521,521,521,521,521,521,521,521,521,516,508,506,506,506,505,504,502,498,492,490,489,489,489,489,489,489,489,489,490,499,509,519,527,529,530,530,530,530,530,530,530,530,530,530,530,527,522,509,450,416,389,296,252,146,114,89],"timestamp_mouse":[12,29,50,70,90,110,130,150,169,191,210,230,249,270,289,309,329,349,371,390,410,430,451,471,490,510,530,549,569,590,610,629,649,669,689,710,729,750,770,789,810,829,850,870,889,910,929,949,970,989,1009,1029,1049,1069,1090,1110,1130,1149,1169,1190,1210,1229,1249,1269,1289,1310,1330,1349,1369,1391,1411,1430,1450,1471,1490,1509,1530,1549,1569,1589,1610,1629,1649],"xSR":741.5,"ySR":481,"xT1":424.9,"yT1":0,"xT2":1058.1,"yT2":0,"toosoon":0,"cond_shown":"Incongruent","ratio_trial":200,"L_num":3,"L_den":4,"R_num":11,"R_den":20,"correct_side":1,"subjID":"valentinaalvarezperez4","gender":"1","school":"6","age":"12"},{"start_time":1551790203500,"click_time":1551790205248,"finger_time":1551790205027,"fix_duration":250,"trial":3,"RT":1527,"MT":221,"sideResp":2,"stimulus":[],"xmouse":[782,782,782,782,782,782,782,782,782,782,782,782,782,782,782,782,782,782,782,782,782,782,782,782,782,782,782,782,782,782,782,782,782,782,782,782,782,782,782,782,782,782,782,782,782,782,782,782,782,782,782,782,782,782,782,782,782,782,782,782,782,782,782,782,782,782,782,782,782,782,785,789,795,808,813,826,843,886,909,932,956,972,1003,1037,1052,1058,1064,1067],"ymouse":[551,551,551,551,551,551,551,551,551,551,551,550,550,549,549,549,548,548,548,548,548,548,548,548,548,548,548,548,548,548,548,548,548,548,548,548,548,548,548,548,548,548,548,548,548,548,548,548,548,548,548,548,548,548,548,548,548,548,548,548,548,548,548,548,548,548,548,548,545,544,540,534,527,512,503,485,470,433,411,385,350,319,248,166,136,118,104,95],"timestamp_mouse":[7,28,48,67,87,108,127,147,168,187,207,227,247,267,287,307,328,347,368,388,407,427,447,467,487,507,527,547,568,587,608,628,648,667,687,708,727,749,768,787,807,828,847,867,887,908,927,949,968,987,1008,1028,1049,1067,1087,1108,1127,1147,1167,1187,1207,1227,1248,1267,1287,1307,1327,1348,1368,1388,1407,1428,1447,1468,1487,1507,1527,1547,1567,1587,1607,1627,1648,1667,1688,1707,1728,1748],"xSR":741.5,"ySR":481,"xT1":424.9,"yT1":0,"xT2":1058.1,"yT2":0,"toosoon":0,"cond_shown":"Incongruent","ratio_trial":300,"L_num":13,"L_den":26,"R_num":12,"R_den":15,"correct_side":2,"subjID":"valentinaalvarezperez4","gender":"1","school":"6","age":"12"},{"start_time":1551790206543,"click_time":1551790208709,"finger_time":1551790208167,"fix_duration":594.4980298057777,"trial":4,"RT":1624,"MT":542,"sideResp":2,"stimulus":[],"xmouse":[785,785,785,785,785,785,785,785,785,785,785,785,785,785,785,785,785,785,785,785,785,785,785,785,785,785,785,785,785,785,785,785,785,785,785,785,785,785,785,785,785,785,785,785,785,785,785,785,785,785,785,785,785,785,785,786,786,787,787,787,787,787,787,787,787,787,788,788,789,792,794,797,799,804,809,813,817,818,820,824,832,836,842,846,851,862,869,876,886,895,918,927,938,938,942,947,963,969,975,982,990,1009,1019,1030,1041,1055,1086,1101,1117],"ymouse":[546,546,546,546,546,546,546,546,546,546,546,546,546,546,546,546,546,546,546,546,546,546,546,546,546,546,546,546,546,546,546,546,546,546,546,546,546,546,546,546,546,546,546,546,546,546,546,546,546,546,546,546,546,546,544,542,542,542,541,541,541,541,541,541,541,540,539,539,537,535,533,530,528,521,513,509,499,497,494,489,481,475,468,461,454,435,427,419,408,396,371,359,344,342,335,329,309,301,294,284,268,248,233,220,206,186,140,116,84],"timestamp_mouse":[7,29,44,64,84,104,124,144,164,184,204,225,244,265,285,306,325,344,365,384,404,425,445,466,484,504,525,544,565,584,605,625,644,666,685,704,724,744,765,784,805,825,844,865,885,905,925,946,964,985,1005,1025,1044,1065,1084,1104,1126,1144,1165,1185,1206,1225,1244,1265,1285,1305,1325,1344,1364,1384,1405,1425,1444,1465,1484,1504,1524,1544,1565,1584,1605,1624,1645,1665,1684,1706,1724,1744,1764,1784,1805,1825,1844,1865,1884,1905,1924,1945,1965,1984,2004,2025,2044,2064,2084,2105,2124,2144,2165],"xSR":741.5,"ySR":481,"xT1":424.9,"yT1":0,"xT2":1058.1,"yT2":0,"toosoon":0,"cond_shown":"Incongruent","ratio_trial":100,"L_num":6,"L_den":10,"R_num":13,"R_den":26,"correct_side":1,"subjID":"valentinaalvarezperez4","gender":"1","school":"6","age":"12"},{"start_time":1551790210864,"click_time":1551790212167,"finger_time":1551790211687,"fix_duration":1376.3517038062237,"trial":5,"RT":823,"MT":480,"sideResp":2,"stimulus":[],"xmouse":[774,774,774,774,774,774,774,774,774,774,774,774,774,774,774,774,774,774,774,774,774,774,774,774,774,774,774,774,774,774,774,774,774,774,774,774,774,776,778,782,804,820,842,849,892,904,913,924,935,961,979,990,1004,1018,1037,1048,1062,1076,1086,1103,1105,1108,1110,1111,1114,1115],"ymouse":[521,521,521,521,521,521,521,521,521,521,521,521,521,521,521,521,521,521,521,521,521,521,521,521,521,521,521,521,521,521,521,521,521,521,521,521,521,519,517,512,487,473,456,449,404,384,369,352,336,300,280,261,244,227,205,189,173,156,143,124,119,116,111,109,103,86],"timestamp_mouse":[3,23,43,64,83,103,124,143,165,184,203,223,243,263,284,303,323,343,364,384,404,425,443,464,483,503,523,544,563,583,604,624,643,663,683,703,725,743,763,783,804,823,844,864,884,903,923,943,963,984,1003,1023,1043,1064,1084,1103,1123,1144,1164,1184,1203,1225,1243,1263,1283,1303],"xSR":741.5,"ySR":481,"xT1":424.9,"yT1":0,"xT2":1058.1,"yT2":0,"toosoon":0,"cond_shown":"Congruent","ratio_trial":100,"L_num":4,"L_den":8,"R_num":6,"R_den":10,"correct_side":2,"subjID":"valentinaalvarezperez4","gender":"1","school":"6","age":"12"},{"start_time":1551790214363,"click_time":1551790215908,"finger_time":1551790215467,"fix_duration":1274.9493126883585,"trial":6,"RT":1104,"MT":441,"sideResp":1,"stimulus":[],"xmouse":[794,794,794,794,794,794,794,794,794,794,794,794,794,794,794,794,794,794,794,794,794,794,794,794,794,794,794,794,794,794,794,794,794,794,794,794,794,794,794,793,791,788,785,784,783,782,782,782,782,782,777,771,763,755,748,739,729,716,712,694,679,671,666,659,648,634,625,620,618,602,582,576,568,563,542,528,513,496],"ymouse":[538,538,538,538,538,538,538,538,538,538,538,538,538,538,538,538,538,538,538,538,538,538,538,538,538,538,538,538,538,538,538,538,538,538,538,538,538,538,538,538,536,533,530,528,526,525,525,525,525,524,519,512,503,495,488,479,465,443,435,408,376,359,345,324,303,267,252,236,234,210,187,178,168,162,137,120,105,91],"timestamp_mouse":[4,25,44,64,84,104,124,144,164,184,204,225,244,265,284,304,325,345,364,385,405,424,446,465,484,504,524,544,564,584,604,624,644,664,685,704,725,744,765,784,806,824,844,864,885,904,925,945,966,985,1005,1024,1044,1064,1084,1104,1125,1144,1164,1185,1205,1224,1245,1264,1285,1305,1324,1345,1364,1385,1406,1424,1444,1464,1485,1505,1526,1545],"xSR":741.5,"ySR":481,"xT1":424.9,"yT1":0,"xT2":1058.1,"yT2":0,"toosoon":0,"cond_shown":"Incongruent","ratio_trial":300,"L_num":13,"L_den":26,"R_num":12,"R_den":15,"correct_side":2,"subjID":"valentinaalvarezperez4","gender":"1","school":"6","age":"12"},{"start_time":1551790217198,"click_time":1551790218868,"finger_time":1551790218707,"fix_duration":250,"trial":7,"RT":1509,"MT":161,"sideResp":2,"stimulus":[],"xmouse":[793,793,793,793,793,793,793,793,793,793,793,793,793,793,793,793,793,793,793,793,793,793,793,793,793,793,793,793,793,793,793,793,793,793,793,793,793,793,793,793,793,793,793,793,793,793,793,793,793,793,793,793,793,793,792,792,792,792,792,792,792,792,792,792,792,792,792,792,794,796,797,799,805,822,831,856,869,899,957,985,1016,1043,1073,1116],"ymouse":[553,553,553,553,553,553,553,553,553,553,553,553,553,553,553,553,553,553,553,553,553,553,553,553,553,553,553,552,552,552,552,551,551,551,551,551,551,551,551,551,551,551,551,551,551,551,551,551,551,551,551,551,551,551,550,550,549,548,547,547,547,547,547,546,545,544,543,542,539,537,535,533,526,505,487,454,436,391,325,270,212,178,138,82],"timestamp_mouse":[10,30,49,69,90,110,129,151,170,189,210,230,250,270,289,310,329,350,369,389,410,430,449,471,490,510,530,549,569,589,610,629,649,670,689,709,729,750,770,791,810,830,849,869,890,910,929,950,969,989,1009,1029,1050,1069,1090,1109,1130,1150,1169,1189,1211,1231,1250,1270,1290,1310,1329,1350,1370,1390,1411,1430,1449,1470,1489,1509,1529,1549,1570,1590,1610,1629,1649,1670],"xSR":741.5,"ySR":481,"xT1":424.9,"yT1":0,"xT2":1058.1,"yT2":0,"toosoon":0,"cond_shown":"Congruent","ratio_trial":200,"L_num":4,"L_den":10,"R_num":3,"R_den":15,"correct_side":1,"subjID":"valentinaalvarezperez4","gender":"1","school":"6","age":"12"},{"start_time":1551790220733,"click_time":1551790221848,"finger_time":1551790221587,"fix_duration":745.1603142593665,"trial":8,"RT":854,"MT":261,"sideResp":2,"stimulus":[],"xmouse":[777,777,777,777,777,777,777,777,777,777,777,777,777,777,777,777,777,777,777,777,777,777,777,777,777,777,777,777,777,777,777,777,777,777,777,777,777,776,776,776,778,786,789,791,794,797,816,836,879,918,943,985,1004,1028,1048,1086],"ymouse":[503,503,503,503,503,503,503,503,503,503,503,503,503,503,503,503,503,503,503,503,503,503,503,503,503,503,503,503,503,503,503,503,503,503,503,503,503,503,503,500,495,481,476,472,467,461,433,413,365,316,289,220,190,154,133,91],"timestamp_mouse":[15,37,55,74,95,114,135,154,175,194,215,235,254,275,294,316,334,356,374,394,415,434,455,474,494,514,535,556,575,594,614,635,654,675,695,716,736,755,775,795,815,835,854,875,895,915,934,954,974,994,1015,1035,1055,1074,1094,1115],"xSR":741.5,"ySR":481,"xT1":424.9,"yT1":0,"xT2":1058.1,"yT2":0,"toosoon":0,"cond_shown":"Congruent","ratio_trial":300,"L_num":1,"L_den":5,"R_num":11,"R_den":22,"correct_side":2,"subjID":"valentinaalvarezperez4","gender":"1","school":"6","age":"12"},{"start_time":1551790223526,"click_time":1551790225067,"finger_time":1551790224367,"fix_duration":756.2030306562333,"trial":9,"RT":841,"MT":700,"sideResp":1,"stimulus":[],"xmouse":[791,791,791,791,791,791,791,791,791,791,791,791,791,791,791,791,791,791,791,791,791,791,791,791,791,791,791,791,791,791,791,791,791,791,791,791,789,781,774,766,759,747,735,729,721,714,708,706,701,694,687,669,650,636,621,609,594,582,571,564,558,553,552,552,552,551,551,551,549,545,537,530,517,513,511,507,502,475],"ymouse":[529,529,529,529,529,529,529,529,529,529,529,529,529,529,529,529,529,529,529,529,529,529,529,529,529,529,529,529,529,529,529,529,529,529,529,529,529,523,516,506,498,483,465,456,448,439,433,429,421,415,400,371,340,316,290,270,250,230,207,197,182,165,159,158,155,153,153,153,150,146,139,133,125,123,121,117,111,92],"timestamp_mouse":[9,37,41,62,82,102,121,141,162,182,201,222,241,261,282,301,323,343,361,382,402,423,442,461,481,502,522,542,562,582,601,621,642,662,681,701,722,741,761,781,801,822,841,861,882,902,921,941,961,981,1002,1022,1041,1061,1081,1102,1122,1141,1161,1181,1201,1222,1241,1261,1283,1303,1322,1342,1361,1382,1401,1422,1441,1461,1481,1503,1522,1541],"xSR":741.5,"ySR":481,"xT1":424.9,"yT1":0,"xT2":1058.1,"yT2":0,"toosoon":0,"cond_shown":"Incongruent","ratio_trial":300,"L_num":4,"L_den":20,"R_num":2,"R_den":4,"correct_side":2,"subjID":"valentinaalvarezperez4","gender":"1","school":"6","age":"12"},{"start_time":1551790226237,"click_time":1551790227667,"finger_time":1551790227368,"fix_duration":347.74621213735946,"trial":10,"RT":1131,"MT":299,"sideResp":1,"stimulus":[],"xmouse":[778,778,778,778,778,778,778,778,778,778,778,778,778,778,778,778,778,778,778,778,778,778,778,778,778,778,778,778,778,778,778,778,778,778,778,778,778,778,778,778,778,778,778,778,778,778,778,778,778,778,778,778,776,776,775,755,719,676,627,582,549,546,543,542,541,539,539,539,536,532,526,508],"ymouse":[535,535,535,535,535,535,535,535,535,535,535,535,535,535,535,535,535,535,535,535,535,535,535,535,535,535,535,535,535,535,535,535,535,535,535,535,535,535,534,533,532,532,532,532,532,532,532,532,532,532,532,532,529,529,528,502,439,372,302,227,168,158,149,142,136,121,117,110,105,99,92,83],"timestamp_mouse":[13,46,50,70,91,110,130,150,170,190,211,230,250,271,290,311,331,351,371,390,410,431,452,471,491,511,530,550,571,590,610,630,650,670,690,711,730,750,770,791,810,831,850,870,891,912,930,950,970,990,1010,1030,1050,1070,1091,1110,1131,1150,1170,1190,1212,1230,1251,1270,1290,1311,1330,1350,1370,1391,1410,1430],"xSR":741.5,"ySR":481,"xT1":424.9,"yT1":0,"xT2":1058.1,"yT2":0,"toosoon":0,"cond_shown":"Incongruent","ratio_trial":100,"L_num":17,"L_den":30,"R_num":10,"R_den":15,"correct_side":2,"subjID":"valentinaalvarezperez4","gender":"1","school":"6","age":"12"},{"start_time":1551790230192,"click_time":1551790231987,"finger_time":1551790231587,"fix_duration":1383.0754168085562,"trial":11,"RT":1395,"MT":400,"sideResp":2,"stimulus":[],"xmouse":[804,804,804,806,806,806,806,806,806,807,807,808,808,811,812,812,812,812,817,823,828,832,835,835,837,837,837,837,837,837,837,837,837,837,837,837,837,835,831,827,823,821,817,814,811,808,804,801,792,790,786,785,785,785,785,785,785,785,785,785,785,785,785,785,785,785,785,785,803,847,886,929,976,1043,1061,1081,1090,1107,1109,1110,1110,1110,1110,1110,1110,1110,1110,1110,1110,1112],"ymouse":[524,524,524,525,525,525,525,525,525,525,525,525,525,525,524,524,524,524,522,517,514,512,509,509,508,508,508,508,508,508,508,508,508,508,508,508,508,507,507,506,506,506,506,506,506,506,505,505,504,504,504,504,504,504,504,504,504,504,504,504,504,504,504,504,504,504,504,502,493,472,442,399,364,278,251,216,195,160,155,154,154,154,154,154,154,151,142,119,107,92],"timestamp_mouse":[15,35,56,75,96,116,135,156,175,196,216,237,255,275,296,315,335,355,375,395,416,436,456,476,496,515,535,555,576,596,615,636,656,675,695,716,737,755,775,796,816,835,855,875,896,915,936,955,977,995,1016,1035,1055,1075,1096,1115,1135,1155,1177,1195,1215,1235,1257,1276,1295,1315,1336,1356,1376,1395,1415,1435,1455,1475,1495,1515,1535,1557,1577,1595,1615,1636,1655,1675,1696,1716,1736,1756,1775,1795],"xSR":741.5,"ySR":481,"xT1":424.9,"yT1":0,"xT2":1058.1,"yT2":0,"toosoon":0,"cond_shown":"Congruent","ratio_trial":100,"L_num":3,"L_den":6,"R_num":2,"R_den":5,"correct_side":1,"subjID":"valentinaalvarezperez4","gender":"1","school":"6","age":"12"},{"start_time":1551790233158,"click_time":1551790234147,"finger_time":1551790233767,"fix_duration":250,"trial":12,"RT":609,"MT":380,"sideResp":1,"stimulus":[],"xmouse":[809,809,809,809,809,809,809,809,809,809,809,809,809,809,809,809,809,809,809,809,809,809,809,809,809,809,808,806,803,795,758,733,703,682,636,620,601,575,549,532,516,512,511,511,511,511,511,511,511,511],"ymouse":[510,510,510,510,510,510,510,510,510,510,510,510,510,510,510,510,510,510,510,510,510,510,510,510,510,510,510,509,506,496,460,438,411,390,328,302,257,202,153,136,112,104,100,100,100,100,100,100,100,99],"timestamp_mouse":[15,30,49,69,89,109,129,149,169,189,209,229,250,269,289,309,330,350,370,389,410,430,449,469,490,509,530,549,570,590,609,629,649,669,690,709,730,749,770,790,809,829,850,870,890,910,929,950,969,989],"xSR":741.5,"ySR":481,"xT1":424.9,"yT1":0,"xT2":1058.1,"yT2":0,"toosoon":0,"cond_shown":"Incongruent","ratio_trial":200,"L_num":11,"L_den":20,"R_num":3,"R_den":4,"correct_side":2,"subjID":"valentinaalvarezperez4","gender":"1","school":"6","age":"12"},{"start_time":1551790235318,"click_time":1551790236207,"finger_time":1551790235568,"fix_duration":250,"trial":13,"RT":250,"MT":639,"sideResp":2,"stimulus":[],"xmouse":[776,776,776,776,776,776,776,776,776,776,783,795,812,821,833,844,866,904,914,926,937,941,950,950,953,958,982,992,1001,1010,1018,1021,1025,1025,1025,1025,1025,1025,1025,1025,1025,1035,1035,1035,1064],"ymouse":[522,522,522,522,522,522,522,522,521,517,502,484,440,415,378,356,323,273,262,244,229,221,207,206,200,187,155,138,124,113,101,97,91,91,91,91,91,91,91,91,91,92,92,92,97],"timestamp_mouse":[10,29,50,70,90,109,130,149,171,189,209,229,250,271,290,309,329,349,370,389,411,429,449,469,489,509,530,550,569,589,610,629,649,669,689,710,730,749,769,789,809,830,849,871,889],"xSR":741.5,"ySR":481,"xT1":424.9,"yT1":0,"xT2":1058.1,"yT2":0,"toosoon":0,"cond_shown":"Congruent","ratio_trial":200,"L_num":12,"L_den":20,"R_num":6,"R_den":15,"correct_side":1,"subjID":"valentinaalvarezperez4","gender":"1","school":"6","age":"12"},{"start_time":1551790238113,"click_time":1551790239227,"finger_time":1551790238887,"fix_duration":445.3524590660407,"trial":14,"RT":774,"MT":340,"sideResp":2,"stimulus":[],"xmouse":[773,773,773,773,773,773,773,773,773,773,773,773,773,773,773,773,773,773,773,773,773,773,773,773,773,773,773,773,773,773,773,773,773,774,777,790,805,837,847,858,863,877,896,918,932,953,964,991,1006,1036,1045,1086,1107,1125,1141,1155],"ymouse":[554,554,554,554,554,554,554,554,554,554,554,554,554,554,554,554,554,554,554,554,554,554,554,554,554,554,554,554,554,554,554,554,554,553,551,541,524,483,469,451,439,400,353,313,298,267,246,210,195,173,167,141,130,118,107,98],"timestamp_mouse":[14,36,54,75,94,114,134,155,174,194,214,234,254,274,295,315,334,355,375,395,414,434,454,474,495,514,534,555,574,596,615,635,655,674,694,715,735,754,774,794,814,834,854,875,894,915,934,954,974,994,1014,1034,1054,1074,1094,1114],"xSR":741.5,"ySR":481,"xT1":424.9,"yT1":0,"xT2":1058.1,"yT2":0,"toosoon":0,"cond_shown":"Incongruent","ratio_trial":200,"L_num":3,"L_den":4,"R_num":11,"R_den":20,"correct_side":1,"subjID":"valentinaalvarezperez4","gender":"1","school":"6","age":"12"},{"start_time":1551790240777,"click_time":1551790241308,"finger_time":1551790241108,"fix_duration":530.3861336044314,"trial":15,"RT":331,"MT":200,"sideResp":1,"stimulus":[],"xmouse":[796,796,796,796,796,796,796,796,796,796,796,796,796,794,784,779,768,748,741,714,689,674,653,627,571,544,514],"ymouse":[521,521,521,521,521,521,521,520,520,520,520,519,517,509,493,488,470,442,433,401,365,340,300,238,124,64,11],"timestamp_mouse":[11,31,50,71,91,112,131,151,170,190,210,230,250,272,292,310,331,351,370,390,411,430,450,471,491,510,531],"xSR":741.5,"ySR":481,"xT1":424.9,"yT1":0,"xT2":1058.1,"yT2":0,"toosoon":0,"cond_shown":"Congruent","ratio_trial":100,"L_num":8,"L_den":16,"R_num":2,"R_den":5,"correct_side":1,"subjID":"valentinaalvarezperez4","gender":"1","school":"6","age":"12"},{"start_time":1551790243690,"click_time":1551790245228,"finger_time":1551790245107,"fix_duration":1341.3666391800177,"trial":16,"RT":1417,"MT":121,"sideResp":1,"stimulus":[],"xmouse":[773,773,773,773,773,773,773,773,773,773,773,773,773,773,772,772,771,771,770,770,770,770,768,766,761,759,759,759,759,759,759,759,759,759,759,759,759,759,759,759,759,759,760,760,760,760,761,762,769,773,776,777,778,778,778,778,778,779,779,779,779,779,779,779,779,780,780,780,780,775,762,743,701,616,567,512,470],"ymouse":[523,523,523,523,522,522,522,522,522,522,520,520,520,518,518,518,517,517,516,515,515,515,511,503,493,488,488,488,488,488,488,488,488,488,488,488,488,488,488,488,488,488,488,488,488,488,489,490,495,498,499,500,500,500,500,500,500,501,501,501,501,501,501,501,501,501,501,501,497,488,469,445,394,276,200,124,59],"timestamp_mouse":[17,39,58,78,98,117,137,157,178,197,218,238,258,277,298,318,337,357,378,397,418,438,458,477,497,518,537,557,577,597,617,638,657,677,697,717,739,759,779,797,817,838,857,878,897,917,938,957,978,997,1017,1038,1057,1078,1098,1118,1138,1158,1178,1197,1217,1238,1258,1278,1298,1317,1337,1358,1377,1398,1417,1437,1457,1478,1497,1518,1538],"xSR":741.5,"ySR":481,"xT1":424.9,"yT1":0,"xT2":1058.1,"yT2":0,"toosoon":0,"cond_shown":"Congruent","ratio_trial":100,"L_num":2,"L_den":5,"R_num":11,"R_den":22,"correct_side":2,"subjID":"valentinaalvarezperez4","gender":"1","school":"6","age":"12"},{"start_time":1551790247543,"click_time":1551790248508,"finger_time":1551790248087,"fix_duration":1175.9886975766542,"trial":17,"RT":544,"MT":421,"sideResp":2,"stimulus":[],"xmouse":[770,771,772,772,773,774,775,775,776,776,777,778,779,780,780,781,782,783,783,784,785,787,789,790,791,791,796,808,827,840,850,865,869,877,886,898,914,930,942,957,971,979,984,998,1007,1015,1041,1053,1060],"ymouse":[519,517,516,516,515,515,513,513,513,513,511,510,510,509,509,508,508,507,507,506,505,503,501,499,497,496,487,478,465,454,445,425,414,400,387,367,337,317,293,271,243,230,218,198,183,166,118,96,79],"timestamp_mouse":[7,32,44,64,85,106,124,145,165,184,205,225,245,264,285,304,324,345,365,386,405,424,445,465,484,504,524,544,564,584,605,624,645,664,684,705,724,744,764,784,805,825,844,865,884,904,924,944,964],"xSR":741.5,"ySR":481,"xT1":424.9,"yT1":0,"xT2":1058.1,"yT2":0,"toosoon":0,"cond_shown":"Incongruent","ratio_trial":200,"L_num":9,"L_den":15,"R_num":8,"R_den":10,"correct_side":2,"subjID":"valentinaalvarezperez4","gender":"1","school":"6","age":"12"},{"start_time":1551790252202,"click_time":1551790254267,"finger_time":1551790253907,"fix_duration":1494.518895187407,"trial":18,"RT":1705,"MT":360,"sideResp":2,"stimulus":[],"xmouse":[787,787,787,787,787,787,787,787,787,787,787,787,787,787,787,787,787,787,787,787,787,787,787,787,787,787,787,787,787,787,788,787,786,785,785,785,785,784,784,784,784,784,784,784,784,784,784,784,784,784,784,784,784,784,784,784,784,784,784,784,784,784,784,784,784,784,784,784,784,784,784,784,784,784,784,784,784,784,784,784,784,784,783,787,794,809,818,828,836,847,857,870,880,897,904,912,930,941,969,987,1005,1023,1037,1060],"ymouse":[517,517,517,517,517,517,517,517,517,517,517,517,517,517,517,517,517,517,517,517,517,517,517,517,517,517,517,517,517,517,517,520,521,521,522,522,522,523,523,523,523,523,523,523,523,523,523,523,523,523,523,523,523,523,523,523,523,523,523,523,523,523,523,523,523,523,523,523,523,523,523,523,523,523,523,523,523,523,523,523,523,523,523,513,498,472,461,436,424,407,385,367,348,313,301,284,253,237,198,178,158,138,121,88],"timestamp_mouse":[5,25,45,66,85,105,125,145,165,185,205,226,245,266,286,305,325,346,365,386,407,426,446,466,485,505,525,545,566,585,606,626,645,666,685,706,725,745,767,785,805,825,845,866,886,905,926,945,965,985,1005,1027,1046,1065,1085,1105,1126,1145,1166,1185,1205,1227,1246,1265,1285,1305,1325,1345,1366,1386,1406,1425,1445,1465,1485,1506,1526,1546,1565,1585,1605,1625,1647,1667,1686,1705,1725,1746,1765,1786,1807,1826,1846,1866,1885,1906,1925,1945,1965,1987,2006,2026,2046,2065],"xSR":741.5,"ySR":481,"xT1":424.9,"yT1":0,"xT2":1058.1,"yT2":0,"toosoon":0,"cond_shown":"Incongruent","ratio_trial":300,"L_num":13,"L_den":26,"R_num":12,"R_den":15,"correct_side":2,"subjID":"valentinaalvarezperez4","gender":"1","school":"6","age":"12"},{"start_time":1551790257181,"click_time":1551790258627,"finger_time":1551790258209,"fix_duration":552.1458231065774,"trial":19,"RT":1028,"MT":418,"sideResp":2,"stimulus":[],"xmouse":[786,786,786,786,786,786,786,786,786,786,786,786,786,786,786,786,786,786,786,786,786,786,786,786,786,786,786,786,786,786,786,786,786,786,787,790,794,810,817,828,835,850,868,878,890,901,933,941,952,959,968,975,994,1002,1012,1016,1029,1043,1051,1055,1061],"ymouse":[532,532,532,532,532,532,532,532,532,532,532,532,532,532,532,532,532,532,532,532,532,532,532,532,532,532,532,532,532,532,532,532,532,532,527,522,517,493,483,466,453,429,390,370,347,327,282,275,261,252,237,223,191,180,163,158,137,117,105,98,93],"timestamp_mouse":[10,35,46,66,87,107,401,401,407,426,446,466,487,506,526,547,567,587,608,626,647,667,688,707,726,746,767,786,806,827,846,866,887,906,926,946,967,986,1006,1028,1046,1066,1086,1106,1126,1146,1167,1186,1206,1226,1246,1266,1286,1307,1326,1346,1366,1387,1407,1427,1446],"xSR":741.5,"ySR":481,"xT1":424.9,"yT1":0,"xT2":1058.1,"yT2":0,"toosoon":0,"cond_shown":"Incongruent","ratio_trial":200,"L_num":14,"L_den":30,"R_num":6,"R_den":9,"correct_side":2,"subjID":"valentinaalvarezperez4","gender":"1","school":"6","age":"12"},{"start_time":1551790260815,"click_time":1551790262548,"finger_time":1551790261747,"fix_duration":1168.2357833634248,"trial":20,"RT":932,"MT":801,"sideResp":2,"stimulus":[],"xmouse":[808,808,808,808,808,808,808,808,808,808,808,808,808,808,808,808,808,808,808,808,808,808,808,808,808,808,808,808,808,808,808,808,808,808,808,808,808,808,808,808,806,805,804,799,792,785,779,774,771,766,761,752,749,747,747,747,747,747,747,747,747,747,747,747,748,766,780,812,839,864,909,950,1011,1028,1045,1050,1056,1065,1066,1066,1065,1060,1060,1063,1071,1075,1088],"ymouse":[517,517,517,517,517,517,517,517,517,517,517,517,517,517,517,517,517,517,517,517,517,517,517,517,517,517,517,517,517,517,517,517,517,517,517,517,517,517,518,518,517,515,513,505,494,484,476,469,466,460,452,438,435,432,432,432,432,432,432,432,432,432,432,432,432,433,432,426,418,408,388,370,334,320,294,287,261,235,222,210,200,177,161,147,132,121,93],"timestamp_mouse":[12,32,52,73,93,112,133,154,172,192,212,232,252,273,292,313,333,352,372,393,412,432,452,472,492,512,532,553,572,592,613,632,653,672,692,712,732,752,772,793,812,833,852,872,892,913,932,952,972,992,1012,1032,1052,1072,1094,1114,1132,1153,1172,1192,1213,1233,1253,1272,1293,1313,1333,1353,1373,1392,1412,1432,1452,1473,1493,1513,1533,1552,1572,1592,1612,1633,1653,1673,1692,1713,1733],"xSR":741.5,"ySR":481,"xT1":424.9,"yT1":0,"xT2":1058.1,"yT2":0,"toosoon":0,"cond_shown":"Incongruent","ratio_trial":200,"L_num":3,"L_den":10,"R_num":1,"R_den":2,"correct_side":2,"subjID":"valentinaalvarezperez4","gender":"1","school":"6","age":"12"},{"start_time":1551790265019,"click_time":1551790267049,"finger_time":1551790266589,"fix_duration":250,"trial":21,"RT":1570,"MT":460,"sideResp":2,"stimulus":[],"xmouse":[767,767,767,767,767,767,767,767,767,767,768,768,768,768,768,768,768,768,768,768,768,768,768,768,768,768,768,768,768,768,768,768,768,768,768,768,768,768,768,768,768,768,768,768,768,768,768,768,768,768,768,768,768,768,768,768,768,768,768,768,768,768,768,768,769,769,770,770,770,770,770,771,771,771,772,776,782,814,830,841,849,859,881,905,938,985,1005,1019,1020,1021,1024,1028,1032,1032,1033,1037,1041,1046,1048,1051,1053,1063],"ymouse":[546,546,546,546,546,546,546,546,546,546,545,544,544,544,544,544,544,544,544,544,544,544,544,544,544,544,544,544,544,544,544,544,544,544,544,544,544,544,544,544,544,544,544,544,544,544,544,544,544,544,544,544,544,544,544,544,544,544,544,544,544,544,544,544,543,542,541,539,539,538,538,537,537,535,534,528,518,482,461,450,437,415,363,323,271,207,178,155,152,151,144,131,124,124,122,118,114,109,106,103,101,94],"timestamp_mouse":[9,30,49,70,88,108,129,150,170,190,210,229,248,269,289,309,329,349,369,390,409,428,449,468,489,509,530,550,570,589,609,630,649,670,690,710,729,749,770,790,809,830,850,868,889,910,929,949,969,988,1009,1029,1050,1069,1088,1109,1129,1150,1169,1188,1208,1228,1250,1269,1290,1310,1330,1349,1368,1389,1409,1429,1450,1469,1489,1508,1529,1549,1570,1588,1608,1628,1648,1669,1690,1709,1728,1749,1769,1788,1809,1829,1850,1869,1889,1910,1929,1950,1970,1990,2008,2030],"xSR":741.5,"ySR":481,"xT1":424.9,"yT1":0,"xT2":1058.1,"yT2":0,"toosoon":0,"cond_shown":"Congruent","ratio_trial":100,"L_num":10,"L_den":25,"R_num":3,"R_den":10,"correct_side":1,"subjID":"valentinaalvarezperez4","gender":"1","school":"6","age":"12"},{"start_time":1551790269381,"click_time":1551790270647,"finger_time":1551790270269,"fix_duration":1492.1743298389763,"trial":22,"RT":888,"MT":378,"sideResp":1,"stimulus":[],"xmouse":[811,811,811,811,811,811,811,811,811,811,811,811,811,811,811,811,811,811,811,811,811,811,811,811,811,811,811,811,811,810,809,807,807,807,807,806,806,806,804,797,788,784,776,762,725,700,667,616,546,510,489,471,461,455,453,453,453,454,459,468,470,474,483,487],"ymouse":[543,543,543,543,543,543,543,543,543,543,543,543,543,543,543,543,543,543,543,543,543,543,543,543,543,543,542,542,542,540,538,534,534,534,534,533,533,533,531,526,520,518,515,507,487,472,455,424,365,322,294,264,238,220,191,183,172,165,157,142,137,129,111,93],"timestamp_mouse":[6,28,47,67,88,108,128,148,167,187,207,227,247,267,287,307,326,348,366,386,407,427,447,468,486,508,527,548,568,588,608,628,647,668,688,706,727,747,767,787,808,827,848,866,888,907,927,947,968,988,1007,1027,1046,1067,1087,1108,1127,1147,1167,1188,1207,1226,1247,1266],"xSR":741.5,"ySR":481,"xT1":424.9,"yT1":0,"xT2":1058.1,"yT2":0,"toosoon":0,"cond_shown":"Incongruent","ratio_trial":100,"L_num":10,"L_den":25,"R_num":8,"R_den":16,"correct_side":2,"subjID":"valentinaalvarezperez4","gender":"1","school":"6","age":"12"},{"start_time":1551790272242,"click_time":1551790273088,"finger_time":1551790272668,"fix_duration":653.075248300568,"trial":23,"RT":426,"MT":420,"sideResp":2,"stimulus":[],"xmouse":[801,790,786,785,783,780,780,780,780,780,780,780,780,780,780,780,780,780,790,801,811,833,838,845,861,872,892,904,913,926,937,951,958,963,970,975,987,996,1005,1014,1029,1058,1070],"ymouse":[538,538,538,539,541,544,544,544,544,544,544,544,544,544,544,544,544,536,512,498,483,450,445,436,415,395,355,305,272,245,220,171,151,135,125,119,96,84,73,64,55,46,44],"timestamp_mouse":[5,25,46,66,87,106,127,145,166,187,206,227,246,265,287,307,326,346,367,386,405,426,446,466,486,505,527,545,566,586,607,626,646,667,687,706,727,746,766,785,805,826,846],"xSR":741.5,"ySR":481,"xT1":424.9,"yT1":0,"xT2":1058.1,"yT2":0,"toosoon":0,"cond_shown":"Congruent","ratio_trial":200,"L_num":12,"L_den":20,"R_num":6,"R_den":15,"correct_side":1,"subjID":"valentinaalvarezperez4","gender":"1","school":"6","age":"12"},{"start_time":1551790276505,"click_time":1551790277768,"finger_time":1551790277348,"fix_duration":1116.4571842403395,"trial":24,"RT":843,"MT":420,"sideResp":1,"stimulus":[],"xmouse":[779,779,779,779,779,779,779,779,779,779,779,779,779,779,779,779,779,779,779,779,779,779,779,779,779,779,779,779,779,779,779,779,779,779,779,779,779,779,779,779,779,767,755,729,710,696,679,663,636,632,618,604,586,552,538,529,521,516,504,489,484,472,452,439],"ymouse":[539,539,539,539,539,539,539,539,539,539,539,539,539,539,539,539,539,539,539,539,539,539,539,539,539,539,539,539,539,539,539,539,539,539,539,539,539,539,536,533,523,494,473,430,407,391,368,349,317,311,293,275,253,217,206,197,190,185,170,154,148,133,112,91],"timestamp_mouse":[10,23,44,64,83,104,123,143,163,183,203,222,244,264,283,303,322,343,363,382,403,423,442,464,484,503,524,544,563,584,604,624,643,663,683,704,724,743,764,783,804,824,843,862,883,904,923,943,963,982,1003,1023,1043,1063,1083,1103,1123,1143,1163,1183,1203,1224,1243,1263],"xSR":741.5,"ySR":481,"xT1":424.9,"yT1":0,"xT2":1058.1,"yT2":0,"toosoon":0,"cond_shown":"Congruent","ratio_trial":200,"L_num":8,"L_den":15,"R_num":7,"R_den":21,"correct_side":1,"subjID":"valentinaalvarezperez4","gender":"1","school":"6","age":"12"},{"start_time":1551790278901,"click_time":1551790281408,"finger_time":1551790281067,"fix_duration":250,"trial":25,"RT":2166,"MT":341,"sideResp":2,"stimulus":[],"xmouse":[785,785,785,785,785,785,785,785,785,785,785,785,785,785,785,785,785,785,785,785,785,785,785,785,785,785,785,785,785,785,785,785,785,785,785,785,785,785,785,785,785,785,785,785,785,785,785,785,785,785,785,785,785,785,785,785,785,785,785,785,785,785,785,785,785,785,785,785,785,785,785,785,785,785,785,784,783,782,781,781,782,782,782,783,783,783,784,784,784,784,784,784,784,784,784,784,784,784,784,786,787,787,788,792,798,807,815,826,863,890,924,965,1015,1113,1146,1160,1171,1180,1185,1185,1184,1178,1176,1169,1164,1158],"ymouse":[548,548,548,548,548,548,548,548,548,548,548,548,548,548,548,548,548,548,548,548,548,548,548,548,548,548,548,548,548,548,548,548,548,548,548,548,548,548,548,548,548,548,548,548,548,548,548,548,548,548,548,548,548,548,548,548,548,548,548,548,548,548,548,548,548,548,548,548,548,548,548,548,548,548,548,548,547,546,544,543,541,540,538,537,537,537,536,536,536,536,536,536,536,536,535,535,535,535,535,533,532,531,531,527,522,516,509,501,466,440,400,335,279,170,142,122,105,88,64,53,41,27,25,22,20,19],"timestamp_mouse":[7,28,48,67,88,108,127,147,168,188,207,228,246,267,286,307,327,346,366,387,407,428,447,466,488,507,528,547,568,586,607,627,647,667,687,706,726,747,767,788,806,827,847,868,888,907,927,947,967,987,1008,1028,1046,1067,1086,1108,1127,1147,1166,1186,1207,1227,1247,1267,1287,1308,1328,1347,1367,1387,1407,1428,1446,1468,1488,1507,1527,1547,1567,1588,1606,1628,1647,1666,1688,1707,1727,1746,1766,1788,1807,1828,1847,1867,1888,1907,1928,1946,1966,1987,2006,2028,2047,2068,2086,2108,2127,2148,2166,2187,2207,2227,2247,2267,2286,2307,2327,2348,2366,2388,2407,2427,2447,2468,2486,2507],"xSR":741.5,"ySR":481,"xT1":424.9,"yT1":0,"xT2":1058.1,"yT2":0,"toosoon":0,"cond_shown":"Incongruent","ratio_trial":100,"L_num":3,"L_den":5,"R_num":11,"R_den":22,"correct_side":1,"subjID":"valentinaalvarezperez4","gender":"1","school":"6","age":"12"},{"start_time":1551790282721,"click_time":1551790283728,"finger_time":1551790283127,"fix_duration":332.3468958063656,"trial":26,"RT":406,"MT":601,"sideResp":1,"stimulus":[],"xmouse":[783,783,783,783,783,783,783,783,783,783,783,783,783,783,783,783,783,783,782,778,763,744,704,688,674,658,622,617,600,568,550,532,528,525,523,523,520,516,516,516,516,516,516,516,516,515,512,498,494,487,483],"ymouse":[512,512,512,512,512,512,512,512,512,512,512,512,512,512,512,512,512,512,508,502,479,450,389,365,343,322,267,259,236,191,169,158,154,150,147,147,145,139,139,139,139,139,139,139,139,138,136,120,114,105,99],"timestamp_mouse":[8,28,47,67,87,107,127,147,167,187,206,227,247,267,287,306,327,347,368,387,406,427,447,467,486,506,527,547,567,587,608,627,647,667,687,706,726,747,768,787,807,827,848,867,887,907,927,946,967,988,1007],"xSR":741.5,"ySR":481,"xT1":424.9,"yT1":0,"xT2":1058.1,"yT2":0,"toosoon":0,"cond_shown":"Congruent","ratio_trial":100,"L_num":11,"L_den":22,"R_num":4,"R_den":10,"correct_side":1,"subjID":"valentinaalvarezperez4","gender":"1","school":"6","age":"12"},{"start_time":1551790287220,"click_time":1551790288348,"finger_time":1551790288147,"fix_duration":250,"trial":27,"RT":927,"MT":201,"sideResp":2,"stimulus":[],"xmouse":[797,797,797,797,797,797,797,797,797,797,797,797,797,797,797,797,798,799,799,799,799,799,799,799,800,800,800,800,800,800,800,800,800,800,800,800,800,800,800,800,800,800,800,802,808,814,821,840,852,872,890,913,954,983,1007,1037,1069],"ymouse":[517,517,517,517,517,517,517,517,517,516,516,516,516,516,516,516,516,516,516,516,516,515,515,515,515,515,515,515,515,515,515,514,514,514,513,513,513,513,513,513,512,512,511,506,498,486,475,442,421,384,336,282,200,156,97,48,2],"timestamp_mouse":[9,33,49,69,88,107,128,148,167,189,208,227,247,268,288,308,328,348,367,389,408,429,448,468,488,508,527,548,569,589,607,628,648,667,688,708,728,749,769,788,807,829,848,869,888,908,927,948,969,989,1008,1027,1048,1069,1088,1108,1128],"xSR":741.5,"ySR":481,"xT1":424.9,"yT1":0,"xT2":1058.1,"yT2":0,"toosoon":0,"cond_shown":"Congruent","ratio_trial":200,"L_num":15,"L_den":25,"R_num":4,"R_den":10,"correct_side":1,"subjID":"valentinaalvarezperez4","gender":"1","school":"6","age":"12"},{"start_time":1551790291350,"click_time":1551790292008,"finger_time":1551790291768,"fix_duration":1281.6457430455196,"trial":28,"RT":418,"MT":240,"sideResp":1,"stimulus":[],"xmouse":[766,766,766,766,766,766,766,766,766,766,766,766,766,766,766,766,766,766,766,766,754,741,726,709,690,634,584,547,514,467,453,443,435],"ymouse":[508,508,508,508,508,508,508,508,508,508,508,508,508,508,508,508,508,506,495,489,462,442,421,397,376,316,280,248,216,153,129,112,93],"timestamp_mouse":[23,38,58,77,98,118,139,158,178,198,218,238,259,279,298,318,339,358,379,398,418,437,457,477,498,518,538,558,579,599,618,638,657],"xSR":741.5,"ySR":481,"xT1":424.9,"yT1":0,"xT2":1058.1,"yT2":0,"toosoon":0,"cond_shown":"Incongruent","ratio_trial":300,"L_num":13,"L_den":26,"R_num":12,"R_den":15,"correct_side":2,"subjID":"valentinaalvarezperez4","gender":"1","school":"6","age":"12"},{"start_time":1551790293851,"click_time":1551790294808,"finger_time":1551790294447,"fix_duration":761.5235372094982,"trial":29,"RT":596,"MT":361,"sideResp":2,"stimulus":[],"xmouse":[777,777,777,777,777,777,777,778,778,778,778,778,779,779,779,779,779,780,780,780,780,782,784,786,792,795,798,801,802,802,804,804,805,807,811,830,842,853,877,905,940,960,981,993,1012,1039,1053,1074],"ymouse":[534,534,531,530,530,530,530,529,528,527,525,524,523,523,523,523,523,521,521,521,519,516,512,508,499,491,487,483,482,480,479,479,476,474,466,434,413,397,357,305,238,208,188,168,139,99,70,31],"timestamp_mouse":[32,37,57,77,97,118,137,157,177,197,217,237,257,277,296,317,337,356,377,397,416,438,457,478,497,517,536,558,577,596,617,638,657,676,697,717,737,758,776,797,816,837,858,877,897,917,937,956],"xSR":741.5,"ySR":481,"xT1":424.9,"yT1":0,"xT2":1058.1,"yT2":0,"toosoon":0,"cond_shown":"Congruent","ratio_trial":300,"L_num":3,"L_den":12,"R_num":11,"R_den":20,"correct_side":2,"subjID":"valentinaalvarezperez4","gender":"1","school":"6","age":"12"},{"start_time":1551790297141,"click_time":1551790298528,"finger_time":1551790298309,"fix_duration":1351.2312307590892,"trial":30,"RT":1168,"MT":219,"sideResp":1,"stimulus":[],"xmouse":[809,809,809,809,809,809,809,808,808,808,808,808,808,808,808,808,808,808,808,808,808,808,808,808,808,808,809,809,809,809,809,809,809,809,809,809,809,809,809,809,809,809,809,809,809,809,809,809,809,809,809,809,809,809,807,802,792,790,779,769,743,702,682,659,633,619,588,567,537,507],"ymouse":[505,505,505,505,505,506,506,508,509,509,509,509,509,509,509,509,509,509,509,509,509,509,509,509,509,508,506,505,505,505,505,505,505,505,505,505,505,505,505,505,505,505,505,505,505,505,505,505,505,505,505,505,504,501,499,495,487,487,478,471,453,417,400,377,351,333,286,236,171,91],"timestamp_mouse":[10,41,47,68,87,106,127,147,168,187,206,227,246,268,288,307,328,347,367,388,407,428,446,467,488,506,528,547,566,587,607,627,646,667,687,707,727,748,767,787,807,826,848,866,887,908,928,947,967,988,1007,1026,1047,1067,1086,1106,1127,1147,1168,1188,1207,1227,1247,1267,1286,1307,1327,1347,1367,1387],"xSR":741.5,"ySR":481,"xT1":424.9,"yT1":0,"xT2":1058.1,"yT2":0,"toosoon":0,"cond_shown":"Incongruent","ratio_trial":200,"L_num":1,"L_den":3,"R_num":2,"R_den":15,"correct_side":1,"subjID":"valentinaalvarezperez4","gender":"1","school":"6","age":"12"},{"start_time":1551790299698,"click_time":1551790303548,"finger_time":1551790303469,"fix_duration":289.97778945129346,"trial":31,"RT":3771,"MT":79,"sideResp":2,"stimulus":[],"xmouse":[803,803,803,803,803,803,803,803,803,803,803,803,803,803,803,803,803,803,803,803,803,803,803,803,803,803,803,803,803,803,803,803,803,803,803,803,803,803,803,803,803,803,803,803,803,803,803,803,803,803,803,803,803,803,803,803,803,803,803,803,803,803,803,803,803,803,803,803,803,803,803,803,803,803,803,803,803,803,803,803,803,803,803,803,803,803,803,803,803,803,803,803,803,803,803,803,803,803,803,803,803,803,803,803,803,803,803,803,803,803,803,803,803,803,803,803,803,803,803,803,803,803,803,803,803,803,803,803,803,803,803,803,803,803,803,803,803,803,803,803,803,803,803,803,803,803,803,803,803,803,803,803,803,803,803,803,803,803,803,803,803,803,803,803,803,803,803,803,803,803,803,803,803,803,803,803,803,787,764,761,761,761,761,761,761,761,761,761,790,817,877,1033,1133],"ymouse":[539,539,539,539,539,539,539,539,539,539,539,539,539,539,539,539,539,539,539,539,539,539,539,539,539,539,539,539,539,539,539,539,539,539,539,539,539,539,539,539,539,539,539,539,539,539,539,539,539,539,539,539,539,539,539,539,539,539,539,539,539,539,539,539,539,539,539,539,539,539,539,539,539,539,539,539,539,539,539,539,539,539,539,539,539,539,539,539,539,539,539,539,539,539,539,539,539,539,539,539,539,539,539,539,539,539,539,539,539,539,539,539,539,539,539,539,539,539,539,539,539,539,539,539,539,539,539,539,539,539,539,539,539,539,539,539,539,539,539,539,539,539,539,539,539,539,539,539,539,539,539,539,539,539,539,539,539,539,539,539,539,539,539,539,539,539,539,539,539,539,539,539,539,539,539,539,539,531,518,515,515,515,515,515,515,515,515,513,394,320,240,118,28],"timestamp_mouse":[10,30,50,71,90,110,130,149,171,190,210,231,251,271,290,310,329,349,371,391,411,430,449,470,490,511,530,550,570,591,609,630,649,671,691,711,730,750,771,791,810,830,851,870,890,909,929,949,969,991,1010,1030,1050,1070,1091,1110,1130,1151,1170,1190,1211,1230,1250,1270,1290,1311,1330,1350,1370,1391,1410,1430,1451,1470,1490,1511,1529,1549,1571,1589,1610,1630,1651,1669,1691,1710,1731,1749,1770,1791,1810,1829,1851,1871,1890,1909,1931,1950,1971,1989,2011,2031,2049,2070,2091,2111,2130,2150,2170,2191,2211,2230,2251,2270,2290,2309,2330,2351,2370,2391,2410,2430,2450,2471,2491,2509,2529,2550,2570,2590,2610,2629,2650,2671,2690,2710,2730,2750,2770,2791,2810,2830,2851,2870,2889,2911,2931,2950,2970,2991,3010,3030,3051,3070,3090,3109,3129,3151,3170,3191,3209,3230,3250,3269,3289,3310,3329,3349,3371,3390,3409,3429,3450,3470,3491,3509,3530,3549,3570,3590,3611,3630,3651,3670,3691,3709,3729,3750,3771,3790,3810,3829,3850],"xSR":741.5,"ySR":481,"xT1":424.9,"yT1":0,"xT2":1058.1,"yT2":0,"toosoon":0,"cond_shown":"Congruent","ratio_trial":300,"L_num":1,"L_den":30,"R_num":8,"R_den":24,"correct_side":2,"subjID":"valentinaalvarezperez4","gender":"1","school":"6","age":"12"},{"start_time":1551790306511,"click_time":1551790308629,"finger_time":1551790308169,"fix_duration":483.9993972599648,"trial":32,"RT":1658,"MT":460,"sideResp":1,"stimulus":[],"xmouse":[818,818,818,818,818,818,818,818,818,818,818,818,818,818,818,819,819,819,819,819,819,819,819,819,819,819,819,819,819,819,819,819,819,819,819,819,819,819,819,819,819,819,819,819,819,819,819,819,819,819,819,819,819,819,819,819,819,819,819,819,819,819,819,819,819,819,819,820,821,821,826,829,829,830,831,831,831,831,831,831,827,825,816,810,803,800,782,761,747,725,696,677,644,629,616,606,601,596,586,572,558,532,491,478,467,452],"ymouse":[550,550,550,550,550,550,550,550,550,550,550,550,550,550,550,549,549,549,549,549,549,549,549,549,549,549,549,549,549,549,549,549,549,549,548,548,548,548,548,548,548,547,546,546,545,544,544,544,543,543,543,543,543,543,543,543,543,543,543,543,543,543,543,543,543,543,543,541,541,539,531,528,527,526,523,517,513,502,495,493,486,484,474,468,461,458,449,436,425,408,376,347,306,281,262,251,246,241,230,214,197,167,131,116,102,87],"timestamp_mouse":[18,37,58,77,97,117,137,156,178,197,217,237,257,276,297,316,338,357,377,397,417,437,457,477,497,518,538,557,577,598,618,637,658,677,697,717,736,757,776,797,818,837,857,876,897,917,937,958,976,997,1016,1038,1056,1078,1097,1117,1138,1157,1178,1196,1218,1238,1257,1277,1297,1316,1337,1357,1377,1396,1417,1437,1457,1476,1496,1516,1537,1557,1577,1597,1618,1637,1658,1677,1697,1716,1737,1757,1778,1797,1816,1837,1856,1877,1896,1917,1938,1956,1978,1996,2017,2036,2058,2077,2097,2118],"xSR":741.5,"ySR":481,"xT1":424.9,"yT1":0,"xT2":1058.1,"yT2":0,"toosoon":0,"cond_shown":"Congruent","ratio_trial":300,"L_num":20,"L_den":25,"R_num":9,"R_den":18,"correct_side":1,"subjID":"valentinaalvarezperez4","gender":"1","school":"6","age":"12"},{"start_time":1551790310076,"click_time":1551790311887,"finger_time":1551790311048,"fix_duration":647.6085599125247,"trial":33,"RT":972,"MT":839,"sideResp":2,"stimulus":[],"xmouse":[805,805,805,805,805,805,805,805,805,805,805,805,805,805,805,805,805,805,805,805,805,805,805,805,805,805,805,805,805,805,805,805,805,805,805,805,805,805,805,805,805,805,805,805,805,805,814,821,831,859,892,916,926,927,931,935,942,953,962,977,988,1002,1022,1034,1039,1042,1044,1046,1046,1046,1046,1046,1046,1046,1046,1046,1046,1046,1046,1046,1046,1046,1050,1052,1052,1052,1052,1052,1052,1055,1059],"ymouse":[532,532,532,532,532,532,532,532,532,532,532,532,532,532,532,532,532,532,532,532,532,532,532,532,532,532,532,532,532,532,532,532,531,530,526,524,520,515,514,514,514,514,514,514,514,508,495,486,472,442,401,361,335,319,306,292,277,258,238,196,177,155,126,104,92,80,75,67,67,67,67,67,67,67,67,67,67,67,67,67,67,67,66,66,66,66,66,66,66,66,66],"timestamp_mouse":[13,33,52,71,92,113,131,152,172,192,211,233,252,272,292,311,332,352,371,392,412,432,452,472,491,513,532,553,572,592,612,632,652,672,693,713,732,753,771,793,813,831,853,872,893,912,931,953,972,992,1011,1032,1053,1071,1092,1111,1132,1152,1172,1192,1213,1232,1252,1273,1292,1312,1331,1351,1373,1393,1412,1432,1453,1472,1493,1512,1531,1551,1573,1592,1612,1632,1653,1672,1692,1712,1731,1753,1772,1791,1811],"xSR":741.5,"ySR":481,"xT1":424.9,"yT1":0,"xT2":1058.1,"yT2":0,"toosoon":0,"cond_shown":"Incongruent","ratio_trial":100,"L_num":10,"L_den":25,"R_num":9,"R_den":18,"correct_side":2,"subjID":"valentinaalvarezperez4","gender":"1","school":"6","age":"12"},{"start_time":1551790313251,"click_time":1551790314849,"finger_time":1551790314308,"fix_duration":301.5253651518537,"trial":34,"RT":1057,"MT":541,"sideResp":2,"stimulus":[],"xmouse":[800,800,800,801,803,806,807,808,808,809,809,809,809,809,809,809,809,809,809,809,809,809,809,809,809,809,809,809,809,809,809,809,809,809,809,809,809,809,808,806,805,805,805,805,805,805,804,803,802,802,802,801,806,818,831,882,911,958,1021,1021,1021,1021,1021,1021,1021,1021,1021,1021,1021,1021,1021,1021,1021,1021,1021,1021,1021,1021,1021,1139],"ymouse":[548,548,548,547,544,541,540,539,538,537,537,537,537,536,536,536,536,536,536,536,536,536,536,536,536,536,536,536,536,536,536,536,536,534,526,515,513,512,509,506,506,506,506,506,506,506,505,505,504,498,493,484,467,434,409,273,200,105,25,25,25,25,25,25,25,25,25,25,25,25,25,25,25,25,25,25,25,25,25,1],"timestamp_mouse":[21,36,57,78,96,117,136,158,177,197,217,238,258,277,296,318,337,358,377,397,417,437,458,477,497,517,537,558,577,596,617,638,656,677,697,716,736,756,776,797,818,837,858,877,898,917,937,958,977,997,1016,1037,1057,1077,1096,1117,1136,1157,1177,1197,1217,1237,1257,1277,1298,1317,1338,1357,1376,1397,1416,1437,1458,1477,1497,1516,1537,1558,1578,1597],"xSR":741.5,"ySR":481,"xT1":424.9,"yT1":0,"xT2":1058.1,"yT2":0,"toosoon":0,"cond_shown":"Congruent","ratio_trial":200,"L_num":12,"L_den":20,"R_num":6,"R_den":15,"correct_side":1,"subjID":"valentinaalvarezperez4","gender":"1","school":"6","age":"12"},{"start_time":1551790316828,"click_time":1551790317448,"finger_time":1551790317288,"fix_duration":878.7036147094832,"trial":35,"RT":460,"MT":160,"sideResp":1,"stimulus":[],"xmouse":[787,787,787,787,787,787,787,787,787,787,787,787,787,787,787,787,787,787,787,787,785,781,765,750,719,708,678,622,603,566,527,490],"ymouse":[531,531,531,531,531,531,531,531,531,531,531,531,531,531,531,531,531,531,529,528,523,516,482,458,423,412,381,311,280,228,166,92],"timestamp_mouse":[9,20,40,60,80,100,120,139,161,181,200,220,240,260,279,299,319,340,359,380,400,420,440,460,479,501,520,540,559,581,600,620],"xSR":741.5,"ySR":481,"xT1":424.9,"yT1":0,"xT2":1058.1,"yT2":0,"toosoon":0,"cond_shown":"Congruent","ratio_trial":100,"L_num":3,"L_den":6,"R_num":2,"R_den":5,"correct_side":1,"subjID":"valentinaalvarezperez4","gender":"1","school":"6","age":"12"},{"start_time":1551790319544,"click_time":1551790321168,"finger_time":1551790321049,"fix_duration":956.0254851852528,"trial":36,"RT":1505,"MT":119,"sideResp":2,"stimulus":[],"xmouse":[795,795,795,795,795,795,795,795,795,795,795,795,795,795,794,794,794,794,794,794,794,794,794,794,794,794,794,794,794,794,794,794,794,794,794,794,794,794,794,794,794,794,794,794,794,794,794,794,794,794,794,794,794,794,794,794,794,794,794,794,794,794,794,794,794,794,794,794,794,794,795,798,800,807,818,833,892,939,978,1015,1039,1070],"ymouse":[538,538,538,538,538,538,538,538,538,538,538,538,538,538,538,537,537,537,537,537,537,537,537,537,537,537,537,537,537,537,537,537,537,537,537,537,537,537,537,537,535,535,535,535,535,535,535,534,534,533,533,533,532,531,531,531,530,530,529,529,529,529,529,529,529,528,528,528,527,527,527,520,511,502,483,463,381,324,265,172,121,41],"timestamp_mouse":[4,27,45,64,84,105,124,144,163,184,204,223,244,265,283,304,325,344,363,385,405,424,445,464,484,505,524,545,564,584,604,624,645,665,685,703,725,745,765,783,805,824,845,864,884,904,923,943,965,984,1004,1025,1043,1063,1085,1104,1124,1143,1165,1185,1204,1223,1245,1264,1284,1304,1325,1345,1364,1385,1403,1423,1443,1465,1485,1505,1524,1543,1564,1583,1603,1623],"xSR":741.5,"ySR":481,"xT1":424.9,"yT1":0,"xT2":1058.1,"yT2":0,"toosoon":0,"cond_shown":"Incongruent","ratio_trial":300,"L_num":1,"L_den":2,"R_num":3,"R_den":15,"correct_side":1,"subjID":"valentinaalvarezperez4","gender":"1","school":"6","age":"12"},{"start_time":1551790323622,"click_time":1551790324948,"finger_time":1551790324548,"fix_duration":1231.9489526242478,"trial":37,"RT":926,"MT":400,"sideResp":1,"stimulus":[],"xmouse":[793,793,793,793,793,793,794,794,794,794,794,795,796,796,796,796,796,796,796,796,796,796,796,796,796,796,796,796,796,796,797,797,797,797,797,797,797,797,797,797,797,797,797,797,798,798,798,798,798,798,798,792,777,769,762,759,737,719,702,678,655,633,554,504,493,451,429],"ymouse":[536,536,536,536,536,536,536,536,536,536,536,536,535,535,535,534,534,534,534,534,532,532,531,531,531,530,530,530,530,530,529,529,529,529,529,529,528,528,527,525,521,514,509,505,499,482,468,441,429,416,401,384,348,334,322,317,285,266,247,227,209,193,159,140,136,113,99],"timestamp_mouse":[11,26,46,67,85,107,126,146,167,187,207,225,245,267,285,307,326,346,366,387,406,426,446,466,486,506,527,546,566,586,607,626,646,666,685,707,726,746,765,786,806,827,845,867,886,907,926,946,966,985,1006,1026,1046,1066,1086,1107,1127,1146,1166,1186,1206,1226,1245,1267,1287,1306,1326],"xSR":741.5,"ySR":481,"xT1":424.9,"yT1":0,"xT2":1058.1,"yT2":0,"toosoon":0,"cond_shown":"Congruent","ratio_trial":100,"L_num":11,"L_den":22,"R_num":4,"R_den":10,"correct_side":1,"subjID":"valentinaalvarezperez4","gender":"1","school":"6","age":"12"},{"start_time":1551790326927,"click_time":1551790328708,"finger_time":1551790328428,"fix_duration":1258.7708214345885,"trial":38,"RT":1501,"MT":280,"sideResp":2,"stimulus":[],"xmouse":[832,832,832,832,832,832,832,832,832,832,832,832,832,832,832,832,832,832,832,832,832,832,832,832,832,832,832,832,832,832,832,832,832,832,832,832,832,832,832,832,832,832,832,832,832,832,832,832,832,832,832,832,832,832,832,832,832,832,832,832,832,832,832,832,832,832,832,832,832,832,832,832,834,837,840,845,858,875,895,920,941,989,1002,1012,1021,1030,1049,1058,1065,1070],"ymouse":[551,551,551,551,551,551,551,551,551,551,551,551,551,551,551,551,551,551,551,551,551,551,551,551,551,551,551,551,551,551,551,551,551,551,551,551,551,551,551,551,551,551,551,551,551,551,551,550,549,549,549,549,549,549,549,549,549,549,549,549,549,549,549,549,549,549,549,549,549,549,548,547,539,531,524,514,488,460,444,408,377,309,283,264,242,220,173,156,120,94],"timestamp_mouse":[4,22,40,60,82,102,121,141,161,180,202,222,241,262,282,300,321,341,361,382,402,421,441,462,481,502,520,542,561,581,601,621,641,662,681,701,720,741,762,782,801,821,841,862,882,901,922,942,961,981,1001,1020,1041,1061,1080,1101,1122,1142,1162,1182,1201,1222,1241,1261,1280,1301,1321,1341,1361,1381,1401,1420,1441,1461,1481,1501,1522,1540,1560,1580,1602,1621,1641,1661,1681,1701,1722,1740,1760,1781],"xSR":741.5,"ySR":481,"xT1":424.9,"yT1":0,"xT2":1058.1,"yT2":0,"toosoon":0,"cond_shown":"Incongruent","ratio_trial":100,"L_num":13,"L_den":26,"R_num":12,"R_den":20,"correct_side":2,"subjID":"valentinaalvarezperez4","gender":"1","school":"6","age":"12"},{"start_time":1551790330352,"click_time":1551790331068,"finger_time":1551790330888,"fix_duration":542.8391118942984,"trial":39,"RT":536,"MT":180,"sideResp":1,"stimulus":[],"xmouse":[773,773,773,773,773,773,773,773,773,773,773,773,773,773,773,773,773,773,773,773,773,772,771,769,767,757,749,731,719,691,634,617,593,559,542,500],"ymouse":[549,549,549,549,549,549,549,549,549,549,549,549,549,549,549,549,549,549,549,549,548,542,536,528,522,499,479,445,426,381,289,266,224,177,147,79],"timestamp_mouse":[17,37,56,76,96,115,137,155,175,196,217,236,255,276,297,315,336,356,376,396,416,436,456,477,496,516,536,556,577,596,615,637,656,677,695,715],"xSR":741.5,"ySR":481,"xT1":424.9,"yT1":0,"xT2":1058.1,"yT2":0,"toosoon":0,"cond_shown":"Incongruent","ratio_trial":300,"L_num":3,"L_den":6,"R_num":4,"R_den":20,"correct_side":1,"subjID":"valentinaalvarezperez4","gender":"1","school":"6","age":"12"},{"start_time":1551790333296,"click_time":1551790333848,"finger_time":1551790333689,"fix_duration":1227.9745386116442,"trial":40,"RT":393,"MT":159,"sideResp":2,"stimulus":[],"xmouse":[795,795,795,794,794,794,793,793,793,793,793,793,793,793,793,793,795,799,808,813,824,840,914,956,985,1030,1075,1109],"ymouse":[539,539,539,539,539,539,538,537,537,536,536,536,535,534,532,530,524,515,493,479,458,441,339,300,259,196,142,98],"timestamp_mouse":[12,37,52,73,92,111,131,153,173,193,212,232,252,273,292,311,332,352,371,393,413,432,453,472,492,511,531,552],"xSR":741.5,"ySR":481,"xT1":424.9,"yT1":0,"xT2":1058.1,"yT2":0,"toosoon":0,"cond_shown":"Congruent","ratio_trial":300,"L_num":1,"L_den":3,"R_num":19,"R_den":30,"correct_side":2,"subjID":"valentinaalvarezperez4","gender":"1","school":"6","age":"12"},{"start_time":1551790335974,"click_time":1551790336468,"finger_time":1551790336249,"fix_duration":1084.5938093322127,"trial":41,"RT":275,"MT":219,"sideResp":1,"stimulus":[],"xmouse":[806,806,806,806,806,806,806,803,799,790,784,777,769,756,749,744,738,729,716,683,679,657,623,577,494],"ymouse":[557,557,557,557,557,556,552,545,537,520,512,497,487,464,450,437,426,417,397,361,357,331,286,206,99],"timestamp_mouse":[15,38,54,75,94,114,134,154,173,194,214,234,254,275,294,313,335,354,374,394,414,434,453,473,493],"xSR":741.5,"ySR":481,"xT1":424.9,"yT1":0,"xT2":1058.1,"yT2":0,"toosoon":0,"cond_shown":"Incongruent","ratio_trial":200,"L_num":3,"L_den":10,"R_num":1,"R_den":2,"correct_side":2,"subjID":"valentinaalvarezperez4","gender":"1","school":"6","age":"12"},{"start_time":1551790338525,"click_time":1551790339669,"finger_time":1551790339268,"fix_duration":1155.149581149529,"trial":42,"RT":743,"MT":401,"sideResp":2,"stimulus":[],"xmouse":[796,796,796,796,796,796,796,796,796,796,796,796,796,796,796,796,796,796,796,796,796,796,795,795,795,793,786,785,785,785,785,785,785,785,786,788,797,826,827,857,914,954,962,969,970,973,974,998,1009,1017,1022,1023,1024,1024,1024,1032,1043,1063],"ymouse":[531,531,528,528,528,527,527,527,527,527,527,527,527,527,527,527,527,527,527,527,527,529,529,529,530,530,517,514,513,512,510,510,510,510,509,507,499,472,471,426,346,272,260,249,241,228,214,160,139,117,94,86,83,83,83,82,78,73],"timestamp_mouse":[7,23,43,63,83,102,124,144,164,182,203,224,243,263,282,303,324,343,363,382,402,422,444,464,483,503,523,543,563,583,602,623,644,663,683,704,723,743,764,783,804,824,843,863,883,902,922,943,962,983,1004,1024,1043,1063,1084,1103,1124,1144],"xSR":741.5,"ySR":481,"xT1":424.9,"yT1":0,"xT2":1058.1,"yT2":0,"toosoon":0,"cond_shown":"Congruent","ratio_trial":100,"L_num":8,"L_den":16,"R_num":2,"R_den":5,"correct_side":1,"subjID":"valentinaalvarezperez4","gender":"1","school":"6","age":"12"},{"start_time":1551790341863,"click_time":1551790343707,"finger_time":1551790343568,"fix_duration":1154.074023096503,"trial":43,"RT":1705,"MT":139,"sideResp":2,"stimulus":[],"xmouse":[799,799,799,797,796,794,794,793,793,793,793,793,793,793,793,793,793,793,793,793,793,793,793,793,793,794,794,794,795,795,795,795,795,795,795,795,795,795,795,795,795,795,795,795,784,771,770,769,769,768,763,758,748,745,744,744,744,744,744,744,744,744,746,746,748,751,754,756,758,761,765,766,769,776,779,782,782,783,783,783,784,787,810,830,841,936,983,1013,1038,1077,1100,1120,1133],"ymouse":[519,520,522,529,535,543,545,547,547,547,547,547,547,547,547,547,547,547,547,547,547,544,543,540,538,534,531,530,529,529,529,529,528,528,528,527,527,527,527,525,525,524,523,521,511,501,500,500,499,499,496,495,492,491,490,490,490,490,490,490,490,490,490,490,491,495,499,505,511,517,531,534,536,542,543,544,544,544,544,544,544,538,511,489,481,391,355,327,302,222,180,132,95],"timestamp_mouse":[21,25,45,65,85,104,126,146,165,185,205,225,246,265,285,306,324,344,364,385,405,426,445,466,485,505,525,546,565,586,605,624,645,665,685,705,726,745,765,786,805,826,845,864,885,905,924,946,964,986,1005,1025,1045,1065,1085,1105,1126,1145,1165,1184,1204,1226,1245,1265,1285,1305,1325,1344,1365,1385,1404,1425,1445,1466,1485,1504,1526,1545,1565,1585,1604,1625,1645,1665,1685,1705,1725,1746,1765,1786,1805,1825,1844],"xSR":741.5,"ySR":481,"xT1":424.9,"yT1":0,"xT2":1058.1,"yT2":0,"toosoon":0,"cond_shown":"Incongruent","ratio_trial":200,"L_num":1,"L_den":2,"R_num":3,"R_den":10,"correct_side":1,"subjID":"valentinaalvarezperez4","gender":"1","school":"6","age":"12"},{"start_time":1551790345656,"click_time":1551790346507,"finger_time":1551790346248,"fix_duration":1125.0051421754474,"trial":44,"RT":592,"MT":259,"sideResp":1,"stimulus":[],"xmouse":[780,780,780,780,780,780,780,780,780,780,780,780,780,780,780,780,783,784,785,788,788,788,788,788,788,784,780,779,764,746,662,589,550,457,401,337,337,337,337,337,337,337,433],"ymouse":[510,510,510,510,510,510,510,510,510,510,510,510,510,510,510,509,509,510,512,517,519,520,520,520,520,517,511,511,492,472,381,294,255,152,95,6,6,6,6,6,6,6,8],"timestamp_mouse":[15,32,52,72,91,111,131,152,171,192,213,233,252,273,291,312,332,352,372,392,412,432,452,472,491,512,532,552,572,592,612,632,652,673,691,711,732,752,771,793,811,832,851],"xSR":741.5,"ySR":481,"xT1":424.9,"yT1":0,"xT2":1058.1,"yT2":0,"toosoon":0,"cond_shown":"Congruent","ratio_trial":300,"L_num":20,"L_den":25,"R_num":8,"R_den":16,"correct_side":1,"subjID":"valentinaalvarezperez4","gender":"1","school":"6","age":"12"},{"start_time":1551790350043,"click_time":1551790351267,"finger_time":1551790350067,"fix_duration":414.2807562684607,"trial":45,"RT":24,"MT":1200,"sideResp":1,"stimulus":[],"xmouse":[749,714,684,649,611,596,586,586,586,586,586,586,593,607,623,668,694,719,731,737,737,737,737,737,737,737,737,737,738,740,746,761,772,778,781,784,792,793,793,793,793,793,793,793,793,793,793,778,772,767,763,754,750,740,723,666,643,615,587,564,534,493],"ymouse":[567,597,614,636,662,672,680,681,681,681,681,682,683,685,685,676,654,628,610,598,594,593,593,593,593,592,592,591,589,586,580,568,563,560,559,559,559,559,559,559,559,559,559,557,557,556,556,562,563,563,563,563,562,552,522,432,378,316,249,183,116,9],"timestamp_mouse":[4,24,44,64,84,105,126,145,165,184,206,225,245,265,285,305,326,344,365,385,406,426,445,466,485,505,525,546,564,584,604,624,645,665,686,704,724,744,764,785,806,824,845,865,885,906,925,945,965,985,1005,1025,1046,1064,1085,1107,1125,1145,1165,1185,1206,1224],"xSR":741.5,"ySR":481,"xT1":424.9,"yT1":0,"xT2":1058.1,"yT2":0,"toosoon":0,"cond_shown":"Incongruent","ratio_trial":300,"L_num":4,"L_den":20,"R_num":2,"R_den":4,"correct_side":2,"subjID":"valentinaalvarezperez4","gender":"1","school":"6","age":"12"},{"start_time":1551790352362,"click_time":1551790354488,"finger_time":1551790352868,"fix_duration":294.23495040058987,"trial":46,"RT":506,"MT":1620,"sideResp":2,"stimulus":[],"xmouse":[806,806,806,806,806,806,806,806,806,806,807,809,810,812,813,813,813,813,813,813,814,815,815,816,821,836,855,939,1001,1018,1020,1021,1022,1025,1029,1029,1030,1030,1030,1030,1030,1030,1030,1030,1030,1030,1030,1030,1030,1030,1030,1030,1030,1030,1030,1030,1030,1030,1030,1030,1030,1030,1030,1030,1030,1030,1030,1030,1030,1030,1030,1030,1030,1030,1030,1030,1030,1030,1030,1030,1030,1030,1030,1030,1030,1030,1030,1030,1030,1030,1030,1030,1030,1030,1030,1030,1030,1030,1032,1040,1058,1073,1089,1109,1119,1132,1139],"ymouse":[564,564,564,564,564,564,564,563,560,556,551,549,548,547,546,546,545,545,545,544,543,540,537,530,520,480,452,365,310,282,260,249,239,231,217,214,211,209,209,209,209,209,209,209,209,209,209,209,209,209,209,209,209,209,209,209,209,207,207,206,206,206,205,205,205,205,205,205,205,205,205,205,205,205,205,205,205,205,205,205,205,205,205,205,205,205,205,205,205,205,205,205,205,205,205,205,205,205,202,192,167,152,138,124,116,103,95],"timestamp_mouse":[6,25,46,66,85,106,126,146,165,187,206,225,245,266,287,306,327,345,367,387,407,425,446,465,485,506,526,547,565,586,605,625,646,665,687,706,726,746,766,787,807,826,846,867,887,906,925,947,966,987,1006,1027,1046,1066,1087,1107,1127,1146,1166,1187,1205,1226,1247,1266,1287,1306,1326,1346,1366,1387,1407,1426,1447,1466,1487,1506,1526,1546,1566,1585,1607,1626,1646,1667,1686,1707,1726,1747,1766,1787,1806,1826,1847,1866,1885,1907,1926,1947,1967,1986,2006,2026,2046,2067,2086,2106,2126],"xSR":741.5,"ySR":481,"xT1":424.9,"yT1":0,"xT2":1058.1,"yT2":0,"toosoon":0,"cond_shown":"Congruent","ratio_trial":200,"L_num":3,"L_den":12,"R_num":9,"R_den":20,"correct_side":2,"subjID":"valentinaalvarezperez4","gender":"1","school":"6","age":"12"},{"start_time":1551790357037,"click_time":1551790358369,"finger_time":1551790357848,"fix_duration":1268.2674543034225,"trial":47,"RT":811,"MT":521,"sideResp":2,"stimulus":[],"xmouse":[801,801,801,801,801,799,799,799,799,799,799,799,799,799,799,799,800,800,800,800,800,801,803,803,804,804,804,805,805,808,810,816,817,819,821,823,828,830,833,835,844,855,870,880,894,899,915,922,930,937,950,957,965,976,993,1005,1022,1034,1043,1053,1059,1068,1073,1073,1077,1082,1092],"ymouse":[561,561,556,548,546,544,544,543,543,543,543,543,543,542,542,542,542,541,541,540,539,535,533,532,532,531,531,530,530,526,524,515,514,510,508,506,500,496,491,489,479,470,460,453,438,431,404,390,375,361,332,319,306,289,266,244,219,204,188,172,160,145,135,133,127,116,96],"timestamp_mouse":[10,33,50,71,92,112,132,151,171,192,211,232,252,271,292,311,332,351,372,390,410,431,452,470,490,511,532,551,571,591,611,630,651,671,690,710,731,751,770,791,811,831,851,871,890,911,932,950,970,990,1013,1032,1051,1072,1092,1112,1132,1151,1170,1191,1211,1231,1251,1271,1291,1311,1332],"xSR":741.5,"ySR":481,"xT1":424.9,"yT1":0,"xT2":1058.1,"yT2":0,"toosoon":0,"cond_shown":"Congruent","ratio_trial":200,"L_num":1,"L_den":2,"R_num":21,"R_den":30,"correct_side":2,"subjID":"valentinaalvarezperez4","gender":"1","school":"6","age":"12"},{"start_time":1551790359826,"click_time":1551790361008,"finger_time":1551790360649,"fix_duration":357.0570657294192,"trial":48,"RT":823,"MT":359,"sideResp":1,"stimulus":[],"xmouse":[778,778,778,778,778,778,778,778,779,780,780,781,782,782,782,782,782,783,783,783,784,785,786,786,787,787,787,788,788,789,789,789,789,789,789,789,788,780,776,771,767,754,741,727,708,691,677,640,623,607,595,576,553,546,543,541,539,533,526,521],"ymouse":[533,533,533,533,533,533,533,533,532,532,531,530,529,529,528,528,528,527,527,527,527,527,526,525,524,524,524,523,523,522,522,521,521,521,520,517,515,506,501,495,491,476,461,447,423,401,381,321,292,259,234,218,185,171,160,148,131,100,80,67],"timestamp_mouse":[3,23,42,62,83,102,123,142,163,182,202,222,242,262,282,301,322,342,363,383,402,422,441,462,483,502,523,542,562,583,602,623,642,663,682,702,722,742,762,782,803,823,841,861,883,902,922,941,962,983,1003,1023,1041,1061,1083,1101,1123,1142,1162,1182],"xSR":741.5,"ySR":481,"xT1":424.9,"yT1":0,"xT2":1058.1,"yT2":0,"toosoon":0,"cond_shown":"Incongruent","ratio_trial":100,"L_num":9,"L_den":18,"R_num":6,"R_den":10,"correct_side":2,"subjID":"valentinaalvarezperez4","gender":"1","school":"6","age":"12"},{"start_time":1551790365097,"click_time":1551790366529,"finger_time":1551790365928,"fix_duration":648.4842480565213,"trial":49,"RT":831,"MT":601,"sideResp":2,"stimulus":[],"xmouse":[788,788,789,789,789,789,789,790,791,791,791,791,791,791,791,791,791,791,791,791,791,791,791,791,791,791,791,791,792,792,792,792,793,795,796,797,799,799,803,813,826,840,882,903,916,923,948,987,1055,1102,1131,1158,1185,1187,1188,1189,1189,1189,1189,1188,1188,1185,1184,1176,1168,1160,1156,1148,1144,1138,1133,1124],"ymouse":[533,532,531,530,530,529,528,527,525,525,524,524,523,522,522,522,522,522,522,522,522,522,522,522,522,521,521,519,518,518,518,517,515,512,509,507,506,505,499,491,481,468,434,413,403,396,376,349,303,269,248,228,206,202,200,198,196,192,181,174,168,164,162,151,145,138,135,124,115,107,102,94],"timestamp_mouse":[12,31,51,70,92,111,132,150,170,191,212,231,250,272,291,311,332,350,370,391,411,431,451,470,491,512,531,552,571,590,611,631,651,671,691,710,730,751,771,792,811,831,852,870,892,912,931,950,971,991,1011,1031,1051,1071,1091,1110,1131,1150,1171,1191,1212,1231,1251,1271,1290,1311,1331,1352,1372,1391,1412,1432],"xSR":741.5,"ySR":481,"xT1":424.9,"yT1":0,"xT2":1058.1,"yT2":0,"toosoon":0,"cond_shown":"Incongruent","ratio_trial":300,"L_num":7,"L_den":10,"R_num":8,"R_den":20,"correct_side":1,"subjID":"valentinaalvarezperez4","gender":"1","school":"6","age":"12"},{"start_time":1551790367696,"click_time":1551790368929,"finger_time":1551790368609,"fix_duration":387.2252813832189,"trial":50,"RT":913,"MT":320,"sideResp":1,"stimulus":[],"xmouse":[790,790,790,790,790,790,790,790,790,790,790,790,790,790,790,790,790,790,790,790,790,790,789,775,770,766,764,764,764,764,764,764,764,764,764,764,764,764,764,766,766,767,767,755,747,739,733,726,709,698,679,669,661,637,625,613,600,585,552,542,530,512],"ymouse":[509,509,509,509,509,509,508,508,508,508,508,508,508,508,508,508,508,508,508,508,509,515,524,534,537,539,540,540,540,540,540,540,540,540,540,540,540,540,540,538,536,526,518,497,487,479,475,467,446,435,416,400,388,339,303,277,248,219,159,136,109,51],"timestamp_mouse":[12,33,52,72,92,112,132,152,173,192,213,232,253,273,293,312,331,352,373,393,413,432,451,472,491,511,532,552,573,592,612,632,651,672,693,712,732,752,772,791,813,832,851,871,893,913,932,951,971,991,1012,1032,1051,1072,1092,1111,1131,1152,1172,1193,1212,1233],"xSR":741.5,"ySR":481,"xT1":424.9,"yT1":0,"xT2":1058.1,"yT2":0,"toosoon":0,"cond_shown":"Congruent","ratio_trial":200,"L_num":16,"L_den":30,"R_num":9,"R_den":27,"correct_side":1,"subjID":"valentinaalvarezperez4","gender":"1","school":"6","age":"12"},{"start_time":1551790370519,"click_time":1551790371649,"finger_time":1551790371208,"fix_duration":790.384530814491,"trial":51,"RT":689,"MT":441,"sideResp":1,"stimulus":[],"xmouse":[790,790,790,790,790,790,790,790,790,790,790,790,790,790,790,790,790,790,791,792,794,795,796,797,798,799,799,800,800,800,800,800,801,801,797,792,787,773,763,752,734,723,698,692,674,662,649,625,611,582,561,523,502,486,469,456,444],"ymouse":[522,522,522,522,522,522,522,522,522,522,522,522,522,522,522,522,522,522,519,518,516,515,513,512,511,510,509,508,506,505,503,502,491,482,471,457,437,399,380,357,315,288,241,235,216,209,204,195,189,180,173,156,146,134,119,106,83],"timestamp_mouse":[10,34,49,69,89,109,129,150,169,190,209,228,249,270,290,310,329,349,370,390,409,429,448,469,489,509,529,550,569,589,609,629,649,668,689,709,730,749,769,789,808,828,848,868,888,908,928,948,969,989,1009,1030,1049,1068,1089,1109,1130],"xSR":741.5,"ySR":481,"xT1":424.9,"yT1":0,"xT2":1058.1,"yT2":0,"toosoon":0,"cond_shown":"Incongruent","ratio_trial":200,"L_num":14,"L_den":30,"R_num":6,"R_den":9,"correct_side":2,"subjID":"valentinaalvarezperez4","gender":"1","school":"6","age":"12"},{"start_time":1551790374201,"click_time":1551790375387,"finger_time":1551790374849,"fix_duration":1272.0258444756594,"trial":52,"RT":648,"MT":538,"sideResp":2,"stimulus":[],"xmouse":[796,796,796,796,796,796,796,796,796,796,796,796,796,796,796,796,796,796,796,796,796,796,797,797,797,797,797,798,800,802,806,809,813,817,819,822,830,853,929,985,1035,1089,1130,1175,1181,1183,1183,1181,1166,1161,1161,1161,1161,1161,1161,1161,1161,1161,1161,1103],"ymouse":[512,512,512,512,512,512,512,512,512,512,512,512,512,512,512,512,512,512,512,511,511,510,510,510,509,508,508,506,501,498,490,485,479,467,460,452,439,419,367,337,301,263,210,126,100,77,56,37,8,1,1,1,1,1,1,1,1,1,1,8],"timestamp_mouse":[9,27,47,67,86,108,127,148,167,187,207,226,247,266,288,307,327,348,368,388,407,427,446,466,487,507,528,546,567,588,607,626,648,667,688,707,727,746,766,786,806,826,847,867,887,907,926,947,967,986,1006,1027,1047,1067,1088,1107,1127,1148,1168,1186],"xSR":741.5,"ySR":481,"xT1":424.9,"yT1":0,"xT2":1058.1,"yT2":0,"toosoon":0,"cond_shown":"Incongruent","ratio_trial":100,"L_num":3,"L_den":5,"R_num":8,"R_den":16,"correct_side":1,"subjID":"valentinaalvarezperez4","gender":"1","school":"6","age":"12"},{"start_time":1551790385884,"click_time":1551790387488,"finger_time":1551790387409,"fix_duration":475.61761014952117,"trial":53,"RT":1525,"MT":79,"sideResp":1,"stimulus":[],"xmouse":[816,816,816,816,816,816,816,815,815,815,810,806,804,804,804,804,804,804,804,804,804,804,804,804,804,804,794,779,773,773,773,773,773,773,773,773,773,773,773,773,773,773,773,773,773,773,773,773,773,773,773,773,773,773,773,773,773,773,773,773,773,773,773,773,773,773,773,773,773,773,773,773,773,773,765,747,715,682,634,540,471],"ymouse":[513,513,513,513,513,513,513,513,513,513,516,516,516,516,516,516,516,516,516,516,516,516,516,516,516,516,520,531,534,534,534,534,534,534,534,534,534,534,534,534,534,534,534,534,534,534,534,534,534,534,534,534,534,534,534,534,534,534,534,534,534,534,534,534,534,534,534,534,534,534,534,534,534,534,526,498,440,379,261,96,6],"timestamp_mouse":[10,31,45,65,85,104,125,144,165,184,204,223,244,265,284,303,325,344,365,384,404,423,445,465,483,504,523,544,564,585,605,624,643,665,685,704,724,744,765,784,805,825,843,864,885,905,923,943,965,985,1005,1025,1044,1063,1085,1105,1123,1144,1165,1185,1205,1224,1244,1264,1285,1303,1324,1345,1363,1384,1405,1425,1443,1464,1483,1504,1525,1543,1563,1583,1604],"xSR":741.5,"ySR":481,"xT1":424.9,"yT1":0,"xT2":1058.1,"yT2":0,"toosoon":0,"cond_shown":"Congruent","ratio_trial":100,"L_num":11,"L_den":22,"R_num":4,"R_den":10,"correct_side":1,"subjID":"valentinaalvarezperez4","gender":"1","school":"6","age":"12"},{"start_time":1551790390950,"click_time":1551790392149,"finger_time":1551790391868,"fix_duration":1000.62249667608,"trial":54,"RT":918,"MT":281,"sideResp":1,"stimulus":[],"xmouse":[806,806,806,806,806,806,806,806,806,806,806,806,806,806,806,806,806,806,806,806,806,806,804,804,804,804,804,804,803,803,803,803,803,803,803,802,801,801,800,799,795,790,782,771,759,730,705,681,643,631,583,574,565,563,563,563,562,560,548,523],"ymouse":[531,531,531,531,531,531,531,531,531,531,531,531,531,531,531,531,531,531,531,531,531,531,530,530,529,529,529,529,529,529,528,528,528,527,527,524,523,522,520,518,512,506,500,492,483,456,435,399,335,315,240,224,207,192,178,156,149,141,124,96],"timestamp_mouse":[36,38,57,78,98,118,138,158,179,199,218,237,258,279,299,318,338,358,377,397,418,438,457,479,499,518,538,558,577,599,618,639,658,678,698,718,737,757,778,798,818,837,858,877,898,918,937,957,977,997,1017,1037,1057,1077,1097,1118,1139,1158,1178,1198],"xSR":741.5,"ySR":481,"xT1":424.9,"yT1":0,"xT2":1058.1,"yT2":0,"toosoon":0,"cond_shown":"Incongruent","ratio_trial":100,"L_num":13,"L_den":26,"R_num":12,"R_den":20,"correct_side":2,"subjID":"valentinaalvarezperez4","gender":"1","school":"6","age":"12"},{"start_time":1551790393813,"click_time":1551790394708,"finger_time":1551790394347,"fix_duration":942.91759808707,"trial":55,"RT":534,"MT":361,"sideResp":2,"stimulus":[],"xmouse":[775,775,775,775,775,775,775,775,775,775,775,775,775,775,775,775,775,773,773,773,773,773,773,773,773,773,789,841,872,901,928,956,990,1001,1012,1018,1023,1024,1025,1025,1026,1033,1040,1052,1069],"ymouse":[549,549,549,549,549,549,549,549,549,549,549,549,549,549,548,547,542,539,539,539,539,539,539,533,528,515,470,354,293,238,188,138,81,71,56,47,35,31,29,29,28,28,28,31,34],"timestamp_mouse":[15,35,54,74,95,115,136,155,176,195,214,235,256,276,295,315,335,355,374,395,415,435,456,475,495,515,534,554,575,595,615,636,654,675,695,714,736,755,774,795,815,835,854,874,894],"xSR":741.5,"ySR":481,"xT1":424.9,"yT1":0,"xT2":1058.1,"yT2":0,"toosoon":0,"cond_shown":"Congruent","ratio_trial":200,"L_num":9,"L_den":20,"R_num":4,"R_den":16,"correct_side":1,"subjID":"valentinaalvarezperez4","gender":"1","school":"6","age":"12"},{"start_time":1551790396325,"click_time":1551790396747,"finger_time":1551790396607,"fix_duration":515.7058812916638,"trial":56,"RT":282,"MT":140,"sideResp":1,"stimulus":[],"xmouse":[781,781,781,781,781,781,781,781,781,780,779,779,774,769,760,741,710,616,565,513,474,429],"ymouse":[503,503,503,503,503,503,502,502,502,501,500,499,491,485,470,448,417,297,236,187,134,73],"timestamp_mouse":[3,24,43,64,83,104,124,142,163,183,202,223,244,263,282,302,323,343,362,382,402,422],"xSR":741.5,"ySR":481,"xT1":424.9,"yT1":0,"xT2":1058.1,"yT2":0,"toosoon":0,"cond_shown":"Incongruent","ratio_trial":300,"L_num":4,"L_den":20,"R_num":2,"R_den":4,"correct_side":2,"subjID":"valentinaalvarezperez4","gender":"1","school":"6","age":"12"},{"start_time":1551790398998,"click_time":1551790399868,"finger_time":1551790399548,"fix_duration":1330.3079203905265,"trial":57,"RT":550,"MT":320,"sideResp":2,"stimulus":[],"xmouse":[792,793,793,794,794,794,794,795,795,795,795,795,795,797,798,799,800,801,801,801,801,801,801,801,802,803,805,811,835,845,857,871,892,993,1041,1044,1045,1044,1042,1042,1043,1044,1052,1103],"ymouse":[542,542,542,541,540,540,540,539,539,539,539,538,537,531,526,520,516,513,510,507,507,507,507,507,502,498,487,464,406,379,358,337,317,262,234,228,220,215,198,192,189,186,168,53],"timestamp_mouse":[10,30,49,71,91,109,129,149,170,190,210,229,251,270,289,310,330,350,371,389,411,431,450,470,490,509,530,550,570,589,610,630,650,671,690,710,730,750,769,790,809,830,849,870],"xSR":741.5,"ySR":481,"xT1":424.9,"yT1":0,"xT2":1058.1,"yT2":0,"toosoon":0,"cond_shown":"Congruent","ratio_trial":100,"L_num":3,"L_den":20,"R_num":4,"R_den":16,"correct_side":2,"subjID":"valentinaalvarezperez4","gender":"1","school":"6","age":"12"},{"start_time":1551790405433,"click_time":1551790406428,"finger_time":1551790406228,"fix_duration":1344.8954273391432,"trial":58,"RT":795,"MT":200,"sideResp":2,"stimulus":[],"xmouse":[781,786,787,788,788,788,788,788,788,788,788,788,788,788,788,788,788,788,788,788,788,788,788,788,788,788,788,788,788,788,788,788,789,791,794,798,805,813,824,840,865,929,962,999,1040,1056,1092,1112,1126,1145],"ymouse":[511,506,504,504,504,504,504,504,504,504,504,504,504,504,504,504,504,504,504,504,504,504,504,504,504,504,504,504,504,504,504,506,508,510,512,512,512,509,498,480,456,389,345,307,235,207,144,118,101,82],"timestamp_mouse":[15,35,55,76,95,115,136,155,176,195,215,236,255,275,296,315,335,355,375,395,414,436,454,476,495,514,535,556,575,596,614,634,655,675,694,714,734,755,774,795,816,835,854,875,895,914,934,954,976,995],"xSR":741.5,"ySR":481,"xT1":424.9,"yT1":0,"xT2":1058.1,"yT2":0,"toosoon":0,"cond_shown":"Incongruent","ratio_trial":100,"L_num":6,"L_den":10,"R_num":11,"R_den":22,"correct_side":1,"subjID":"valentinaalvarezperez4","gender":"1","school":"6","age":"12"},{"start_time":1551790408212,"click_time":1551790409228,"finger_time":1551790408847,"fix_duration":942.0370680406778,"trial":59,"RT":635,"MT":381,"sideResp":1,"stimulus":[],"xmouse":[797,797,797,797,797,797,797,797,797,797,797,797,797,797,797,797,797,797,797,797,797,797,797,797,795,795,795,795,794,792,787,783,762,747,719,673,607,571,536,507,492,474,452,447,446,437,433,432,435,439,442],"ymouse":[499,499,499,499,499,499,499,499,499,499,499,499,499,499,499,499,499,499,499,499,498,498,498,498,498,498,498,498,496,490,483,470,441,422,390,339,288,261,237,218,204,188,164,153,150,134,124,112,107,102,99],"timestamp_mouse":[17,36,57,77,96,115,137,155,177,196,216,237,256,276,297,316,335,356,376,397,417,436,456,477,496,515,536,557,576,596,615,635,655,676,696,717,737,756,775,795,816,837,856,876,895,917,935,955,975,995,1016],"xSR":741.5,"ySR":481,"xT1":424.9,"yT1":0,"xT2":1058.1,"yT2":0,"toosoon":0,"cond_shown":"Incongruent","ratio_trial":300,"L_num":8,"L_den":10,"R_num":9,"R_den":18,"correct_side":1,"subjID":"valentinaalvarezperez4","gender":"1","school":"6","age":"12"},{"start_time":1551790410920,"click_time":1551790411767,"finger_time":1551790411368,"fix_duration":1050.649159163099,"trial":60,"RT":448,"MT":399,"sideResp":2,"stimulus":[],"xmouse":[804,804,804,804,804,804,804,804,804,804,804,804,804,804,804,804,804,804,805,807,808,810,815,829,860,907,975,1117,1163,1199,1210,1216,1216,1213,1208,1205,1204,1201,1193,1189,1173,1163,1149],"ymouse":[525,525,525,525,525,525,525,525,525,525,525,525,525,525,525,525,525,525,519,511,503,495,470,452,423,389,343,219,161,112,91,75,53,43,35,31,29,24,23,22,21,19,19],"timestamp_mouse":[9,28,48,68,89,109,128,148,168,188,207,227,247,268,289,308,331,349,368,388,408,427,448,467,489,509,527,548,568,587,607,628,648,667,687,707,729,749,768,787,807,827,847],"xSR":741.5,"ySR":481,"xT1":424.9,"yT1":0,"xT2":1058.1,"yT2":0,"toosoon":0,"cond_shown":"Congruent","ratio_trial":200,"L_num":7,"L_den":21,"R_num":2,"R_den":15,"correct_side":1,"subjID":"valentinaalvarezperez4","gender":"1","school":"6","age":"12"},{"start_time":1551790413938,"click_time":1551790414788,"finger_time":1551790414068,"fix_duration":250,"trial":61,"RT":130,"MT":720,"sideResp":1,"stimulus":[],"xmouse":[766,767,765,759,754,748,738,736,736,736,736,736,736,736,736,736,736,736,736,736,697,680,676,675,674,673,673,673,674,683,693,696,696,695,68