[{"start_time":1551790895899,"click_time":1551790903608,"finger_time":1551790903167,"fix_duration":250,"trial":0,"RT":7268,"MT":441,"sideResp":2,"stimulus":"img/500/equaldotanddens/R/12_Ratio_500_L_1_R_2.png","xmouse":[763,763,763,763,763,763,763,764,764,766,769,773,775,775,775,775,775,775,775,775,775,775,775,775,775,775,775,775,775,775,775,775,775,775,775,775,775,775,775,775,775,775,775,775,775,776,776,776,776,776,776,776,776,776,776,776,776,775,775,774,774,774,774,774,774,774,774,774,774,774,774,774,774,774,774,774,774,774,774,774,774,774,774,774,774,774,774,774,774,774,774,774,774,774,774,774,774,774,774,774,774,774,774,774,774,774,774,774,774,774,774,774,774,774,774,774,774,774,774,774,774,774,774,774,774,774,774,774,774,774,774,774,774,774,774,774,774,774,774,774,774,774,774,774,774,774,774,774,774,774,774,774,774,774,774,774,774,774,774,774,774,774,774,774,774,774,774,774,774,774,774,774,774,774,774,774,774,774,774,774,774,774,774,774,774,774,774,774,774,774,774,774,774,774,774,774,774,774,774,774,774,774,774,774,774,774,774,774,774,774,774,774,774,774,774,774,774,774,774,774,774,774,774,774,774,774,774,774,774,774,774,774,774,774,774,774,774,774,774,774,774,774,774,774,774,774,774,774,774,774,774,774,774,774,774,774,774,774,774,774,774,774,774,774,774,774,774,774,774,774,774,774,774,774,774,774,774,774,774,774,774,774,774,774,774,774,774,774,774,774,774,774,774,774,774,774,774,774,774,774,774,774,774,774,774,774,774,774,774,774,774,774,774,774,774,774,774,774,774,774,774,774,774,774,773,770,770,768,767,767,767,767,767,767,767,767,767,767,767,767,767,767,767,767,767,767,767,767,767,767,767,767,767,767,767,767,767,767,767,770,772,775,782,796,802,805,809,812,814,822,829,838,843,870,889,909,935,951,983,998,1003,1023,1033,1055,1058,1059],"ymouse":[495,495,495,495,495,495,495,495,495,495,496,498,499,499,499,499,499,499,499,499,499,499,499,499,499,499,499,499,499,499,499,499,499,499,499,499,499,499,499,499,499,499,499,499,499,500,501,502,505,505,505,505,505,505,505,505,505,503,503,501,501,501,501,501,501,501,501,501,501,501,501,501,501,501,501,501,501,501,501,501,501,501,501,501,501,501,501,501,501,501,501,501,501,501,501,501,501,501,501,501,501,501,501,501,501,501,501,501,501,501,501,501,501,501,501,501,501,501,501,501,501,501,501,501,501,501,501,501,501,501,501,501,501,501,501,501,501,501,501,501,501,501,501,501,501,501,501,501,501,501,501,501,501,501,501,501,501,501,501,501,501,501,501,501,501,501,501,501,501,501,501,501,501,501,501,501,501,501,501,501,501,501,501,501,501,501,501,501,501,501,501,501,501,501,501,501,501,501,501,501,501,501,501,501,501,501,501,501,501,501,501,501,501,501,501,501,501,501,501,501,501,501,501,501,501,501,501,501,501,501,501,501,501,501,501,501,501,501,501,501,501,501,501,501,501,501,501,501,501,501,501,501,501,501,501,501,501,501,501,501,501,501,501,501,501,501,501,501,501,501,501,501,501,501,501,501,501,501,501,501,501,501,501,501,501,501,501,501,501,501,501,501,501,501,501,501,501,501,501,501,501,501,500,494,494,494,494,494,494,494,494,494,494,494,494,494,494,494,494,494,494,494,494,494,494,497,498,499,500,500,500,500,500,500,500,500,500,500,500,500,500,500,500,500,500,500,500,500,500,500,500,500,500,500,500,500,500,500,499,494,492,480,466,433,416,404,385,364,318,284,272,258,250,228,215,199,183,168,144,124,118,95,87,65,61,60],"timestamp_mouse":[12,28,49,69,88,108,129,149,168,188,208,228,249,269,288,309,329,350,368,388,409,428,448,470,489,508,528,549,569,589,609,629,649,668,688,709,729,748,770,789,809,829,849,869,890,909,928,948,968,989,1009,1029,1049,1069,1089,1108,1129,1149,1168,1189,1209,1228,1248,1268,1289,1309,1329,1350,1370,1388,1408,1429,1449,1469,1490,1509,1529,1549,1568,1588,1608,1630,1649,1670,1688,1710,1729,1749,1768,1788,1809,1828,1848,1869,1888,1908,1928,1948,1969,1989,2008,2028,2049,2069,2088,2110,2129,2150,2168,2188,2208,2230,2249,2269,2289,2309,2330,2349,2369,2388,2408,2429,2448,2468,2488,2508,2528,2548,2569,2590,2609,2629,2649,2668,2688,2708,2728,2748,2769,2789,2809,2828,2850,2868,2888,2908,2928,2948,2969,2990,3008,3029,3050,3068,3089,3110,3130,3148,3168,3188,3208,3229,3249,3268,3288,3310,3329,3349,3368,3388,3408,3430,3448,3468,3488,3508,3528,3549,3569,3588,3608,3630,3649,3669,3690,3709,3729,3748,3768,3789,3808,3829,3848,3868,3889,3909,3928,3948,3969,3988,4009,4030,4048,4068,4089,4109,4129,4148,4168,4189,4208,4228,4249,4270,4289,4309,4328,4348,4369,4389,4409,4428,4448,4470,4489,4510,4529,4549,4568,4590,4608,4628,4649,4668,4689,4710,4728,4748,4769,4788,4809,4829,4850,4869,4888,4908,4930,4950,4970,4988,5009,5028,5048,5068,5088,5108,5129,5149,5168,5188,5209,5228,5249,5268,5289,5310,5328,5348,5368,5389,5408,5428,5448,5469,5488,5510,5528,5549,5568,5590,5608,5630,5649,5669,5689,5709,5729,5749,5768,5788,5808,5828,5848,5868,5888,5909,5928,5948,5968,5989,6008,6028,6048,6068,6089,6109,6129,6148,6170,6189,6209,6230,6249,6269,6288,6308,6328,6348,6369,6388,6409,6428,6449,6469,6488,6509,6528,6548,6568,6588,6609,6630,6649,6668,6690,6708,6728,6748,6769,6788,6809,6828,6849,6869,6889,6908,6929,6948,6968,6988,7009,7028,7050,7069,7089,7108,7128,7148,7168,7188,7208,7229,7249,7268,7288,7309,7329,7349,7368,7388,7408,7428,7449,7469,7488,7509,7529,7549,7568,7589,7610,7628,7650,7669,7688,7709],"xSR":741.5,"ySR":449.15000000000003,"xT1":424.9,"yT1":0,"xT2":1058.1,"yT2":0,"toosoon":0,"cond_shown":"equaldotanddens","ratio_trial":500,"smaller_num":"1","larger_num":"2","correct_side":2,"subjID":"valentinaalvarezperez4","gender":"1","age":"12","school":"6","test":{"fix_dur":[250,1500],"timestim":300,"targets_dim":[100,100],"targets_relative_coord":[0.3,0.7],"size_stim":[880,420],"start_dim":[100,100],"size_start":[300,300],"size_fix":60,"samplingrate":20,"img_types":["equaldotsize","equaldotanddens","randomdotsizeEA"],"ratios":[250,500,750,900],"rep_conds":9,"nTrials":120,"trials_to_rest":500,"Trials_order":[112,20,102,36,119,110,116,89,87,14,31,118,12,38,30,95,90,62,88,29,81,111,98,59,4,113,96,100,57,63,16,50,85,3,61,114,2,107,106,77,105,37,15,7,66,52,18,69,92,11,44,23,78,19,9,6,21,115,73,5,91,0,93,13,108,83,80,48,103,45,71,24,84,41,97,74,94,26,55,60,47,64,51,43,117,39,25,1,17,58,8,65,82,72,70,33,67,104,86,79,56,101,75,34,22,40,109,46,10,76,54,99,32,68,42,28,35,49,53,27],"cond_shown":["equaldotanddens","randomdotsizeEA","equaldotsize","equaldotsize","randomdotsizeEA","randomdotsizeEA","randomdotsizeEA","randomdotsizeEA","equaldotsize","randomdotsizeEA","equaldotanddens","equaldotanddens","equaldotsize","randomdotsizeEA","equaldotsize","randomdotsizeEA","equaldotsize","randomdotsizeEA","equaldotanddens","randomdotsizeEA","equaldotsize","equaldotsize","randomdotsizeEA","randomdotsizeEA","equaldotanddens","randomdotsizeEA","equaldotsize","equaldotanddens","equaldotsize","equaldotsize","equaldotanddens","randomdotsizeEA","equaldotanddens","equaldotsize","equaldotanddens","equaldotsize","randomdotsizeEA","randomdotsizeEA","equaldotanddens","randomdotsizeEA","equaldotsize","equaldotanddens","equaldotsize","equaldotanddens","equaldotsize","equaldotanddens","equaldotsize","equaldotsize","randomdotsizeEA","randomdotsizeEA","randomdotsizeEA","randomdotsizeEA","equaldotsize","equaldotanddens","equaldotsize","equaldotsize","equaldotsize","equaldotanddens","equaldotanddens","randomdotsizeEA","equaldotanddens","equaldotsize","equaldotsize","equaldotanddens","equaldotsize","randomdotsizeEA","randomdotsizeEA","equaldotsize","equaldotanddens","equaldotsize","randomdotsizeEA","equaldotsize","equaldotsize","randomdotsizeEA","equaldotanddens","randomdotsizeEA","equaldotanddens","randomdotsizeEA","equaldotanddens","equaldotsize","randomdotsizeEA","equaldotanddens","equaldotsize","equaldotanddens","equaldotsize","equaldotsize","equaldotanddens","equaldotanddens","randomdotsizeEA","equaldotanddens","randomdotsizeEA","randomdotsizeEA","equaldotanddens","equaldotsize","equaldotanddens","equaldotsize","equaldotanddens","randomdotsizeEA","randomdotsizeEA","equaldotanddens","randomdotsizeEA","randomdotsizeEA","equaldotsize","equaldotanddens","equaldotanddens","equaldotanddens","equaldotanddens","equaldotanddens","equaldotanddens","equaldotanddens","equaldotsize","equaldotsize","randomdotsizeEA","randomdotsizeEA","equaldotsize","equaldotanddens","randomdotsizeEA","equaldotanddens","randomdotsizeEA","equaldotsize"],"ratio_trial":[500,750,750,250,900,250,750,500,500,250,750,900,250,250,750,900,750,250,500,500,900,500,250,900,500,500,250,500,900,500,500,250,250,500,250,750,250,900,900,500,900,250,500,750,750,500,750,900,750,900,750,900,750,750,900,750,900,750,250,500,750,250,900,250,250,900,750,250,750,900,900,250,250,500,250,250,900,250,750,250,900,500,500,750,900,500,250,250,500,900,750,500,900,250,900,900,750,750,250,750,750,500,500,900,900,500,250,900,900,500,750,500,750,750,750,500,900,250,500,500],"smaller_num":["1","15","15","4","18","2","6","3","2","4","15","18","3","6","3","18","12","4","4","1","9","2","4","18","9","9","2","2","18","1","4","3","6","1","2","9","3","9","18","1","9","3","6","15","15","2","6","18","18","9","15","9","9","18","18","12","18","9","2","2","3","6","18","2","3","18","3","5","6","9","18","3","6","4","6","5","18","3","3","2","18","4","3","3","18","9","3","3","10","9","3","1","18","4","18","18","15","15","2","3","3","3","2","18","18","2","3","9","9","2","15","3","15","6","6","9","18","3","1","3"],"larger_num":["2","20","20","16","20","8","8","6","4","16","20","20","12","24","4","20","16","16","8","2","10","4","16","20","18","18","8","4","20","2","8","12","24","2","8","12","12","10","20","2","10","12","12","20","20","4","8","20","24","10","20","10","12","24","20","16","20","12","8","4","4","24","20","8","12","20","4","20","8","10","20","12","24","8","24","20","20","12","4","8","20","8","6","4","20","18","12","12","20","10","4","2","20","16","20","20","20","20","8","4","4","6","4","20","20","4","12","10","10","4","20","6","20","8","8","18","20","12","2","6"],"correct_side":[2,2,2,1,2,1,2,2,1,2,2,1,1,1,2,1,2,1,1,2,2,2,2,2,2,2,1,1,2,2,1,2,2,2,1,2,2,2,2,2,2,2,1,2,1,1,1,1,1,2,2,2,2,1,1,2,1,2,1,1,1,1,1,1,2,1,1,2,1,2,1,2,1,1,1,2,2,1,1,1,1,1,2,1,2,1,1,2,2,1,1,2,1,1,2,1,2,2,2,1,1,2,1,1,2,1,1,2,1,1,1,2,2,1,1,2,2,2,2,2],"img_shown":["img/500/equaldotanddens/R/12_Ratio_500_L_1_R_2.png","img/750/randomdotsizeEA/R/3_Ratio_750_L_15_R_20.png","img/750/equaldotsize/R/5_Ratio_750_L_15_R_20.png","img/250/equaldotsize/L/2_Ratio_250_L_16_R_4.png","img/900/randomdotsizeEA/R/13_Ratio_900_L_18_R_20.png","img/250/randomdotsizeEA/L/7_Ratio_250_L_8_R_2.png","img/750/randomdotsizeEA/R/2_Ratio_750_L_6_R_8.png","img/500/randomdotsizeEA/R/2_Ratio_500_L_3_R_6.png","img/500/equaldotsize/L/10_Ratio_500_L_4_R_2.png","img/250/randomdotsizeEA/R/10_Ratio_250_L_4_R_16.png","img/750/equaldotanddens/R/3_Ratio_750_L_15_R_20.png","img/900/equaldotanddens/L/4_Ratio_900_L_20_R_18.png","img/250/equaldotsize/L/15_Ratio_250_L_12_R_3.png","img/250/randomdotsizeEA/L/5_Ratio_250_L_24_R_6.png","img/750/equaldotsize/R/7_Ratio_750_L_3_R_4.png","img/900/randomdotsizeEA/L/2_Ratio_900_L_20_R_18.png","img/750/equaldotsize/R/11_Ratio_750_L_12_R_16.png","img/250/randomdotsizeEA/L/2_Ratio_250_L_16_R_4.png","img/500/equaldotanddens/L/8_Ratio_500_L_8_R_4.png","img/500/randomdotsizeEA/R/15_Ratio_500_L_1_R_2.png","img/900/equaldotsize/R/5_Ratio_900_L_9_R_10.png","img/500/equaldotsize/R/9_Ratio_500_L_2_R_4.png","img/250/randomdotsizeEA/R/10_Ratio_250_L_4_R_16.png","img/900/randomdotsizeEA/R/14_Ratio_900_L_18_R_20.png","img/500/equaldotanddens/R/1_Ratio_500_L_9_R_18.png","img/500/randomdotsizeEA/R/6_Ratio_500_L_9_R_18.png","img/250/equaldotsize/L/1_Ratio_250_L_8_R_2.png","img/500/equaldotanddens/L/10_Ratio_500_L_4_R_2.png","img/900/equaldotsize/R/14_Ratio_900_L_18_R_20.png","img/500/equaldotsize/R/12_Ratio_500_L_1_R_2.png","img/500/equaldotanddens/L/8_Ratio_500_L_8_R_4.png","img/250/randomdotsizeEA/R/9_Ratio_250_L_3_R_12.png","img/250/equaldotanddens/R/6_Ratio_250_L_6_R_24.png","img/500/equaldotsize/R/15_Ratio_500_L_1_R_2.png","img/250/equaldotanddens/L/1_Ratio_250_L_8_R_2.png","img/750/equaldotsize/R/15_Ratio_750_L_9_R_12.png","img/250/randomdotsizeEA/R/4_Ratio_250_L_3_R_12.png","img/900/randomdotsizeEA/R/7_Ratio_900_L_9_R_10.png","img/900/equaldotanddens/R/14_Ratio_900_L_18_R_20.png","img/500/randomdotsizeEA/R/15_Ratio_500_L_1_R_2.png","img/900/equaldotsize/R/15_Ratio_900_L_9_R_10.png","img/250/equaldotanddens/R/9_Ratio_250_L_3_R_12.png","img/500/equaldotsize/L/11_Ratio_500_L_12_R_6.png","img/750/equaldotanddens/R/3_Ratio_750_L_15_R_20.png","img/750/equaldotsize/L/1_Ratio_750_L_20_R_15.png","img/500/equaldotanddens/L/10_Ratio_500_L_4_R_2.png","img/750/equaldotsize/L/14_Ratio_750_L_8_R_6.png","img/900/equaldotsize/L/8_Ratio_900_L_20_R_18.png","img/750/randomdotsizeEA/L/6_Ratio_750_L_24_R_18.png","img/900/randomdotsizeEA/R/5_Ratio_900_L_9_R_10.png","img/750/randomdotsizeEA/R/3_Ratio_750_L_15_R_20.png","img/900/randomdotsizeEA/R/7_Ratio_900_L_9_R_10.png","img/750/equaldotsize/R/15_Ratio_750_L_9_R_12.png","img/750/equaldotanddens/L/6_Ratio_750_L_24_R_18.png","img/900/equaldotsize/L/10_Ratio_900_L_20_R_18.png","img/750/equaldotsize/R/11_Ratio_750_L_12_R_16.png","img/900/equaldotsize/L/8_Ratio_900_L_20_R_18.png","img/750/equaldotanddens/R/15_Ratio_750_L_9_R_12.png","img/250/equaldotanddens/L/3_Ratio_250_L_8_R_2.png","img/500/randomdotsizeEA/L/10_Ratio_500_L_4_R_2.png","img/750/equaldotanddens/L/10_Ratio_750_L_4_R_3.png","img/250/equaldotsize/L/5_Ratio_250_L_24_R_6.png","img/900/equaldotsize/L/4_Ratio_900_L_20_R_18.png","img/250/equaldotanddens/L/1_Ratio_250_L_8_R_2.png","img/250/equaldotsize/R/9_Ratio_250_L_3_R_12.png","img/900/randomdotsizeEA/L/8_Ratio_900_L_20_R_18.png","img/750/randomdotsizeEA/L/10_Ratio_750_L_4_R_3.png","img/250/equaldotsize/R/12_Ratio_250_L_5_R_20.png","img/750/equaldotanddens/L/13_Ratio_750_L_8_R_6.png","img/900/equaldotsize/R/6_Ratio_900_L_9_R_10.png","img/900/randomdotsizeEA/L/10_Ratio_900_L_20_R_18.png","img/250/equaldotsize/R/9_Ratio_250_L_3_R_12.png","img/250/equaldotsize/L/5_Ratio_250_L_24_R_6.png","img/500/randomdotsizeEA/L/8_Ratio_500_L_8_R_4.png","img/250/equaldotanddens/L/5_Ratio_250_L_24_R_6.png","img/250/randomdotsizeEA/R/12_Ratio_250_L_5_R_20.png","img/900/equaldotanddens/R/9_Ratio_900_L_18_R_20.png","img/250/randomdotsizeEA/L/14_Ratio_250_L_12_R_3.png","img/750/equaldotanddens/L/9_Ratio_750_L_4_R_3.png","img/250/equaldotsize/L/3_Ratio_250_L_8_R_2.png","img/900/randomdotsizeEA/L/10_Ratio_900_L_20_R_18.png","img/500/equaldotanddens/L/8_Ratio_500_L_8_R_4.png","img/500/equaldotsize/R/2_Ratio_500_L_3_R_6.png","img/750/equaldotanddens/L/9_Ratio_750_L_4_R_3.png","img/900/equaldotsize/R/11_Ratio_900_L_18_R_20.png","img/500/equaldotsize/L/4_Ratio_500_L_18_R_9.png","img/250/equaldotanddens/L/15_Ratio_250_L_12_R_3.png","img/250/equaldotanddens/R/4_Ratio_250_L_3_R_12.png","img/500/randomdotsizeEA/R/3_Ratio_500_L_10_R_20.png","img/900/equaldotanddens/L/1_Ratio_900_L_10_R_9.png","img/750/randomdotsizeEA/L/9_Ratio_750_L_4_R_3.png","img/500/randomdotsizeEA/R/12_Ratio_500_L_1_R_2.png","img/900/equaldotanddens/L/8_Ratio_900_L_20_R_18.png","img/250/equaldotsize/L/2_Ratio_250_L_16_R_4.png","img/900/equaldotanddens/R/12_Ratio_900_L_18_R_20.png","img/900/equaldotsize/L/2_Ratio_900_L_20_R_18.png","img/750/equaldotanddens/R/5_Ratio_750_L_15_R_20.png","img/750/randomdotsizeEA/R/4_Ratio_750_L_15_R_20.png","img/250/randomdotsizeEA/R/13_Ratio_250_L_2_R_8.png","img/750/equaldotanddens/L/9_Ratio_750_L_4_R_3.png","img/750/randomdotsizeEA/L/8_Ratio_750_L_4_R_3.png","img/500/randomdotsizeEA/R/2_Ratio_500_L_3_R_6.png","img/500/equaldotsize/L/5_Ratio_500_L_4_R_2.png","img/900/equaldotanddens/L/10_Ratio_900_L_20_R_18.png","img/900/equaldotanddens/R/12_Ratio_900_L_18_R_20.png","img/500/equaldotanddens/L/10_Ratio_500_L_4_R_2.png","img/250/equaldotanddens/L/14_Ratio_250_L_12_R_3.png","img/900/equaldotanddens/R/15_Ratio_900_L_9_R_10.png","img/900/equaldotanddens/L/1_Ratio_900_L_10_R_9.png","img/500/equaldotanddens/L/10_Ratio_500_L_4_R_2.png","img/750/equaldotsize/L/1_Ratio_750_L_20_R_15.png","img/500/equaldotsize/R/2_Ratio_500_L_3_R_6.png","img/750/randomdotsizeEA/R/5_Ratio_750_L_15_R_20.png","img/750/randomdotsizeEA/L/13_Ratio_750_L_8_R_6.png","img/750/equaldotsize/L/14_Ratio_750_L_8_R_6.png","img/500/equaldotanddens/R/6_Ratio_500_L_9_R_18.png","img/900/randomdotsizeEA/R/9_Ratio_900_L_18_R_20.png","img/250/equaldotanddens/R/4_Ratio_250_L_3_R_12.png","img/500/randomdotsizeEA/R/12_Ratio_500_L_1_R_2.png","img/500/equaldotsize/R/2_Ratio_500_L_3_R_6.png"],"Rat0":[["12_Ratio_0_L_9_R_0.png","13_Ratio_0_L_6_R_0.png","5_Ratio_0_L_2_R_0.png","6_Ratio_0_L_4_R_0.png","8_Ratio_0_L_6_R_0.png"],["1_Ratio_0_L_0_R_17.png","10_Ratio_0_L_0_R_22.png","11_Ratio_0_L_0_R_1.png","14_Ratio_0_L_0_R_24.png","15_Ratio_0_L_0_R_4.png","2_Ratio_0_L_0_R_5.png","3_Ratio_0_L_0_R_17.png","4_Ratio_0_L_0_R_7.png","7_Ratio_0_L_0_R_19.png","9_Ratio_0_L_0_R_15.png"]],"Rat250":[["1_Ratio_250_L_8_R_2.png","14_Ratio_250_L_12_R_3.png","15_Ratio_250_L_12_R_3.png","2_Ratio_250_L_16_R_4.png","3_Ratio_250_L_8_R_2.png","5_Ratio_250_L_24_R_6.png","7_Ratio_250_L_8_R_2.png"],["10_Ratio_250_L_4_R_16.png","11_Ratio_250_L_3_R_12.png","12_Ratio_250_L_5_R_20.png","13_Ratio_250_L_2_R_8.png","4_Ratio_250_L_3_R_12.png","6_Ratio_250_L_6_R_24.png","8_Ratio_250_L_1_R_4.png","9_Ratio_250_L_3_R_12.png"]],"Rat500":[["10_Ratio_500_L_4_R_2.png","11_Ratio_500_L_12_R_6.png","13_Ratio_500_L_12_R_6.png","4_Ratio_500_L_18_R_9.png","5_Ratio_500_L_4_R_2.png","7_Ratio_500_L_10_R_5.png","8_Ratio_500_L_8_R_4.png"],["1_Ratio_500_L_9_R_18.png","12_Ratio_500_L_1_R_2.png","14_Ratio_500_L_5_R_10.png","15_Ratio_500_L_1_R_2.png","2_Ratio_500_L_3_R_6.png","3_Ratio_500_L_10_R_20.png","6_Ratio_500_L_9_R_18.png","9_Ratio_500_L_2_R_4.png"]],"Rat750":[["1_Ratio_750_L_20_R_15.png","10_Ratio_750_L_4_R_3.png","13_Ratio_750_L_8_R_6.png","14_Ratio_750_L_8_R_6.png","6_Ratio_750_L_24_R_18.png","8_Ratio_750_L_4_R_3.png","9_Ratio_750_L_4_R_3.png"],["11_Ratio_750_L_12_R_16.png","12_Ratio_750_L_3_R_4.png","15_Ratio_750_L_9_R_12.png","2_Ratio_750_L_6_R_8.png","3_Ratio_750_L_15_R_20.png","4_Ratio_750_L_15_R_20.png","5_Ratio_750_L_15_R_20.png","7_Ratio_750_L_3_R_4.png"]],"Rat900":[["1_Ratio_900_L_10_R_9.png","10_Ratio_900_L_20_R_18.png","2_Ratio_900_L_20_R_18.png","4_Ratio_900_L_20_R_18.png","8_Ratio_900_L_20_R_18.png"],["11_Ratio_900_L_18_R_20.png","12_Ratio_900_L_18_R_20.png","13_Ratio_900_L_18_R_20.png","14_Ratio_900_L_18_R_20.png","15_Ratio_900_L_9_R_10.png","3_Ratio_900_L_9_R_10.png","5_Ratio_900_L_9_R_10.png","6_Ratio_900_L_9_R_10.png","7_Ratio_900_L_9_R_10.png","9_Ratio_900_L_18_R_20.png"]],"Rat1000":[["10_Ratio_1000_L_16_R_16.png","11_Ratio_1000_L_6_R_6.png","12_Ratio_1000_L_14_R_14.png","13_Ratio_1000_L_20_R_20.png","15_Ratio_1000_L_15_R_15.png","2_Ratio_1000_L_17_R_17.png","4_Ratio_1000_L_9_R_9.png","5_Ratio_1000_L_6_R_6.png","6_Ratio_1000_L_19_R_19.png","8_Ratio_1000_L_14_R_14.png","9_Ratio_1000_L_25_R_25.png"],["1_Ratio_1000_L_1_R_1.png","14_Ratio_1000_L_17_R_17.png","3_Ratio_1000_L_17_R_17.png","7_Ratio_1000_L_6_R_6.png"]]}},{"start_time":1551790909126,"click_time":1551790913828,"finger_time":1551790912208,"fix_duration":656.2983187004111,"trial":1,"RT":3082,"MT":1620,"sideResp":2,"stimulus":"img/750/randomdotsizeEA/R/3_Ratio_750_L_15_R_20.png","xmouse":[770,770,770,770,770,770,770,770,770,770,770,770,770,770,770,770,770,770,770,770,770,770,770,770,770,770,770,770,770,770,770,770,770,770,770,770,770,770,770,770,770,770,770,770,770,770,770,770,770,770,770,770,770,770,770,770,770,770,770,770,770,770,770,770,770,770,770,770,770,771,772,772,772,772,772,772,772,772,772,772,772,772,772,772,772,772,772,772,772,772,772,772,772,772,772,772,772,772,772,772,772,772,772,772,772,772,772,772,772,772,772,772,772,772,772,772,772,772,772,772,772,772,772,772,772,772,772,772,772,772,772,772,772,772,772,772,772,772,772,772,772,772,772,772,772,774,776,788,795,801,804,813,824,831,836,840,845,860,904,916,953,968,990,998,1000,994,989,978,977,977,977,977,977,976,976,976,976,976,976,976,976,976,976,976,976,976,976,976,976,976,976,976,976,976,976,976,976,976,976,976,976,976,976,976,976,976,976,976,976,976,976,976,976,976,976,976,976,976,976,976,976,976,976,978,980,982,987,1015,1031,1046,1071,1086,1098,1129,1143,1153],"ymouse":[506,506,506,506,506,506,506,506,506,506,506,506,506,506,506,506,506,506,506,506,506,506,506,506,506,506,506,506,506,506,506,506,506,506,506,506,506,506,506,506,506,506,506,506,506,506,506,506,506,506,506,506,506,506,506,506,506,506,506,506,506,506,506,506,506,506,506,506,506,506,506,506,506,506,506,506,506,506,506,506,506,506,506,506,506,506,506,506,506,506,506,506,506,506,506,506,506,506,506,506,506,506,506,506,506,506,506,506,506,506,506,506,506,506,506,506,506,506,506,506,506,506,506,506,506,506,506,506,506,506,506,506,506,506,506,506,506,506,506,506,506,506,506,506,506,504,502,490,482,478,474,466,457,451,447,442,437,418,368,357,321,300,271,249,237,223,212,188,185,185,185,185,184,182,181,181,181,181,181,181,181,181,181,181,181,181,181,181,181,181,181,181,180,180,180,180,180,180,180,180,180,180,180,180,180,180,180,180,180,180,180,180,180,180,180,180,180,180,180,180,180,180,180,177,175,172,168,154,147,142,134,129,129,116,103,88],"timestamp_mouse":[10,21,43,61,82,102,121,141,161,182,202,221,242,261,281,301,321,341,361,382,401,421,441,461,481,501,522,543,561,581,601,621,642,661,681,701,722,741,762,782,802,822,842,862,882,901,921,942,962,982,1003,1021,1041,1062,1081,1101,1121,1141,1161,1181,1201,1222,1243,1261,1281,1301,1321,1341,1363,1381,1401,1421,1442,1462,1482,1502,1522,1542,1561,1582,1603,1622,1643,1662,1681,1701,1721,1741,1762,1783,1802,1821,1842,1861,1883,1902,1921,1943,1962,1981,2001,2021,2041,2062,2081,2101,2123,2141,2161,2181,2201,2221,2242,2262,2281,2301,2321,2341,2362,2381,2401,2421,2442,2461,2481,2501,2522,2542,2562,2582,2603,2621,2642,2662,2681,2702,2723,2742,2762,2781,2801,2822,2843,2861,2881,2901,2922,2941,2962,2981,3001,3021,3041,3061,3082,3102,3122,3141,3161,3181,3202,3222,3241,3261,3282,3301,3323,3341,3361,3382,3402,3421,3441,3461,3483,3502,3522,3542,3562,3582,3601,3622,3641,3661,3682,3702,3721,3741,3761,3781,3802,3822,3841,3861,3881,3901,3921,3941,3962,3981,4002,4021,4042,4061,4083,4102,4122,4141,4162,4181,4202,4222,4242,4262,4281,4302,4321,4341,4361,4382,4401,4421,4441,4461,4481,4501,4521,4541,4562,4582,4602,4622,4641,4661,4682,4702],"xSR":741.5,"ySR":449.15000000000003,"xT1":424.9,"yT1":0,"xT2":1058.1,"yT2":0,"toosoon":0,"cond_shown":"randomdotsizeEA","ratio_trial":750,"smaller_num":"15","larger_num":"20","correct_side":2,"subjID":"valentinaalvarezperez4","gender":"1","age":"12","school":"6"},{"start_time":1551790916258,"click_time":1551790918568,"finger_time":1551790918348,"fix_duration":1390.6471991098156,"trial":2,"RT":2090,"MT":220,"sideResp":2,"stimulus":"img/750/equaldotsize/R/5_Ratio_750_L_15_R_20.png","xmouse":[795,795,795,795,795,795,795,795,795,795,795,795,795,795,795,795,795,795,795,795,795,795,795,795,795,795,795,795,795,795,795,795,795,795,795,795,795,795,795,795,795,795,795,795,795,795,795,795,795,795,795,796,796,796,796,796,796,796,796,796,796,796,796,796,796,796,796,796,796,796,796,796,796,796,796,796,796,796,796,796,796,796,796,796,796,796,796,796,796,796,796,796,796,796,796,796,796,796,796,796,798,802,807,816,824,840,847,852,856,857,877,914,968,1036,1081,1111],"ymouse":[497,497,497,497,497,497,497,497,497,497,497,497,497,497,497,497,497,497,497,497,497,497,497,497,497,497,497,497,497,497,497,497,497,497,497,497,497,497,497,497,497,497,497,497,497,497,497,497,497,497,497,496,496,496,496,496,496,496,496,496,496,496,496,496,496,496,496,496,496,496,496,496,496,496,496,496,496,496,496,496,496,496,496,496,496,496,496,496,496,496,496,496,496,496,496,496,496,496,496,496,491,484,471,453,440,421,411,399,388,373,325,275,224,159,115,82],"timestamp_mouse":[9,42,50,70,90,110,129,150,169,190,210,229,251,270,289,309,329,349,370,390,410,429,450,469,489,510,529,550,569,590,610,629,650,670,690,709,729,749,769,790,811,829,850,869,889,910,930,950,970,990,1010,1031,1050,1070,1089,1109,1129,1151,1170,1189,1209,1229,1249,1270,1289,1310,1330,1350,1369,1389,1409,1429,1449,1469,1490,1511,1530,1549,1569,1590,1609,1631,1651,1669,1689,1709,1729,1751,1769,1789,1810,1829,1851,1871,1889,1909,1929,1950,1970,1990,2009,2029,2050,2071,2090,2110,2129,2151,2169,2189,2209,2230,2250,2269,2290,2310],"xSR":741.5,"ySR":449.15000000000003,"xT1":424.9,"yT1":0,"xT2":1058.1,"yT2":0,"toosoon":0,"cond_shown":"equaldotsize","ratio_trial":750,"smaller_num":"15","larger_num":"20","correct_side":2,"subjID":"valentinaalvarezperez4","gender":"1","age":"12","school":"6"},{"start_time":1551790920014,"click_time":1551790921528,"finger_time":1551790920968,"fix_duration":365.30249778746895,"trial":3,"RT":954,"MT":560,"sideResp":1,"stimulus":"img/250/equaldotsize/L/2_Ratio_250_L_16_R_4.png","xmouse":[803,803,803,803,803,803,803,803,803,803,803,803,803,803,803,803,803,803,803,803,803,803,803,803,803,803,803,803,803,803,803,803,803,803,803,803,803,803,798,794,791,784,784,783,780,769,763,736,726,720,714,706,686,677,663,652,642,623,613,604,592,587,577,574,570,567,563,556,552,547,543,540,531,529,525,520],"ymouse":[495,495,495,495,495,495,495,495,495,495,495,495,495,495,495,495,495,495,495,495,495,495,495,495,495,495,495,495,495,495,495,495,495,495,495,495,495,495,495,494,492,490,490,488,484,472,465,435,421,408,395,379,348,336,316,302,289,258,242,226,210,201,179,170,153,148,135,113,100,87,77,69,56,52,50,49],"timestamp_mouse":[15,34,53,73,93,113,133,154,173,193,214,233,255,275,294,313,333,353,373,393,413,434,454,474,493,514,534,554,574,594,614,634,654,674,693,713,735,754,773,795,814,834,853,874,894,913,934,954,973,993,1013,1035,1053,1074,1093,1114,1134,1153,1173,1194,1214,1233,1253,1273,1293,1313,1334,1354,1373,1394,1414,1435,1453,1473,1494,1514],"xSR":741.5,"ySR":449.15000000000003,"xT1":424.9,"yT1":0,"xT2":1058.1,"yT2":0,"toosoon":0,"cond_shown":"equaldotsize","ratio_trial":250,"smaller_num":"4","larger_num":"16","correct_side":1,"subjID":"valentinaalvarezperez4","gender":"1","age":"12","school":"6"},{"start_time":1551790922718,"click_time":1551790924007,"finger_time":1551790923568,"fix_duration":250,"trial":4,"RT":850,"MT":439,"sideResp":2,"stimulus":"img/900/randomdotsizeEA/R/13_Ratio_900_L_18_R_20.png","xmouse":[760,760,760,760,760,760,760,760,760,760,760,760,760,760,760,760,760,760,760,760,760,760,760,760,760,760,760,760,760,760,760,760,760,760,760,760,760,760,760,760,762,766,775,780,786,819,871,962,986,1000,1006,1010,1013,1014,1011,1008,1006,1006,1010,1020,1024,1030,1039,1051,1064],"ymouse":[473,473,473,473,473,473,473,473,473,473,473,473,473,473,473,473,474,474,475,475,475,475,475,475,475,475,475,475,475,475,475,475,476,476,476,476,476,476,476,476,473,464,433,420,407,386,358,307,292,278,267,251,205,181,158,135,114,95,64,48,44,41,38,37,36],"timestamp_mouse":[9,29,49,70,90,111,131,149,169,189,209,229,251,270,291,310,331,349,370,389,410,431,450,470,490,511,530,550,570,591,611,631,650,670,689,709,730,749,769,790,810,830,850,870,889,909,930,949,969,990,1009,1030,1050,1070,1091,1110,1130,1149,1170,1189,1210,1230,1250,1270,1289],"xSR":741.5,"ySR":449.15000000000003,"xT1":424.9,"yT1":0,"xT2":1058.1,"yT2":0,"toosoon":0,"cond_shown":"randomdotsizeEA","ratio_trial":900,"smaller_num":"18","larger_num":"20","correct_side":2,"subjID":"valentinaalvarezperez4","gender":"1","age":"12","school":"6"},{"start_time":1551790925985,"click_time":1551790928167,"finger_time":1551790927328,"fix_duration":1074.329081198284,"trial":5,"RT":1343,"MT":839,"sideResp":1,"stimulus":"img/250/randomdotsizeEA/L/7_Ratio_250_L_8_R_2.png","xmouse":[800,800,800,800,800,800,800,800,800,800,800,800,800,800,800,800,800,800,800,800,800,800,800,800,800,800,800,800,800,800,800,800,800,800,800,800,800,800,800,800,800,800,800,800,800,800,800,800,800,800,800,800,800,800,800,800,800,800,800,800,800,800,800,800,789,781,761,747,732,708,697,683,674,665,660,659,659,659,659,659,659,659,659,664,674,687,709,720,729,738,740,744,746,749,756,758,758,758,758,758,759,759,757,751,727,696,658,588,545,489],"ymouse":[507,507,507,507,507,507,507,507,507,507,507,507,507,507,507,507,507,507,507,507,507,507,507,507,507,507,507,507,507,507,507,507,507,507,507,507,507,507,507,506,504,503,503,501,498,498,498,498,498,498,498,498,498,498,498,498,498,498,498,495,495,492,491,489,474,465,451,442,430,409,402,389,379,372,363,360,359,359,359,359,359,359,359,367,381,396,420,434,442,450,453,457,460,464,471,473,474,474,474,474,474,472,468,456,396,336,279,178,125,67],"timestamp_mouse":[2,23,44,62,84,104,123,143,163,182,204,223,242,263,284,304,323,342,363,382,403,423,442,462,482,502,524,543,562,584,602,623,643,663,684,702,723,742,762,782,803,823,843,863,884,902,922,942,964,983,1003,1023,1042,1062,1084,1104,1123,1144,1163,1183,1202,1222,1244,1264,1282,1303,1323,1343,1363,1383,1403,1422,1442,1464,1482,1502,1522,1542,1562,1582,1602,1623,1642,1663,1682,1702,1723,1744,1764,1783,1803,1823,1843,1863,1882,1902,1922,1942,1962,1982,2003,2022,2042,2064,2083,2103,2123,2142,2163,2182],"xSR":741.5,"ySR":449.15000000000003,"xT1":424.9,"yT1":0,"xT2":1058.1,"yT2":0,"toosoon":0,"cond_shown":"randomdotsizeEA","ratio_trial":250,"smaller_num":"2","larger_num":"8","correct_side":1,"subjID":"valentinaalvarezperez4","gender":"1","age":"12","school":"6"},{"start_time":1551790929875,"click_time":1551790932068,"finger_time":1551790931108,"fix_duration":806.3401755897918,"trial":6,"RT":1233,"MT":960,"sideResp":1,"stimulus":"img/750/randomdotsizeEA/R/2_Ratio_750_L_6_R_8.png","xmouse":[821,821,821,821,821,821,821,821,821,821,821,821,821,821,821,821,821,821,821,821,821,821,821,821,821,821,821,821,821,821,821,821,821,821,821,821,821,821,821,821,821,821,821,821,821,821,821,821,821,821,821,821,821,821,818,815,810,804,793,769,763,760,759,759,759,759,758,756,752,736,728,722,718,718,718,718,718,718,722,735,736,738,740,740,740,740,740,740,740,740,738,736,729,718,691,674,656,640,625,605,599,594,588,585,574,566,555,545,535,512],"ymouse":[499,500,500,500,501,501,501,501,501,501,501,501,501,501,501,501,501,501,501,501,501,501,501,501,501,501,501,501,501,501,501,501,501,501,501,501,501,501,501,501,501,501,501,501,501,501,501,501,501,501,501,501,501,500,497,494,489,483,475,455,450,448,446,446,446,446,446,445,440,414,402,393,383,381,381,380,379,378,377,372,372,371,369,369,369,369,369,369,367,367,365,362,352,340,307,289,267,247,227,195,184,172,156,149,133,126,116,107,102,92],"timestamp_mouse":[13,41,53,72,93,113,133,154,173,193,214,232,253,273,292,314,333,352,372,394,414,432,453,474,492,512,532,553,574,592,613,632,652,672,693,714,734,753,774,792,812,833,853,873,893,913,934,954,973,994,1014,1033,1053,1072,1092,1112,1132,1152,1173,1193,1213,1233,1254,1274,1292,1313,1333,1354,1372,1393,1413,1433,1453,1473,1493,1513,1533,1553,1574,1592,1613,1632,1654,1673,1693,1712,1732,1753,1773,1793,1814,1833,1854,1873,1893,1913,1934,1953,1972,1992,2013,2033,2054,2073,2092,2113,2133,2153,2172,2193],"xSR":741.5,"ySR":449.15000000000003,"xT1":424.9,"yT1":0,"xT2":1058.1,"yT2":0,"toosoon":0,"cond_shown":"randomdotsizeEA","ratio_trial":750,"smaller_num":"6","larger_num":"8","correct_side":2,"subjID":"valentinaalvarezperez4","gender":"1","age":"12","school":"6"},{"start_time":1551790936049,"click_time":1551790938008,"finger_time":1551790936089,"fix_duration":1420.0438627994613,"trial":7,"RT":40,"MT":1919,"sideResp":2,"stimulus":"img/500/randomdotsizeEA/R/2_Ratio_500_L_3_R_6.png","xmouse":[840,883,895,897,897,897,897,897,897,897,897,897,897,889,882,870,868,868,868,868,868,868,868,868,868,866,854,840,829,826,825,823,823,823,823,823,823,823,823,823,823,823,823,823,823,819,810,801,794,789,787,787,787,787,787,787,787,787,787,787,787,787,787,787,787,787,787,787,787,787,787,787,787,789,791,797,802,807,816,820,876,914,978,1008,1026,1039,1046,1049,1052,1054,1055,1057,1057,1057,1057,1057,1058,1060],"ymouse":[509,503,502,502,502,502,502,502,502,502,502,502,502,505,508,514,514,515,515,515,515,515,515,515,515,515,514,512,510,510,510,510,510,510,510,510,510,510,510,510,510,510,510,510,510,509,504,498,489,484,481,481,481,481,481,481,481,481,481,481,481,481,481,481,481,481,481,481,481,481,481,481,481,480,478,467,457,446,430,423,319,265,199,170,154,133,123,113,102,85,77,56,54,53,53,53,53,53],"timestamp_mouse":[30,39,58,79,99,118,139,159,179,199,219,240,259,279,300,318,339,358,380,398,418,439,458,478,498,519,538,559,579,599,619,639,658,678,698,718,738,759,778,798,819,839,859,879,899,919,938,959,980,999,1019,1038,1059,1079,1098,1119,1138,1159,1178,1198,1220,1239,1258,1278,1298,1318,1340,1359,1379,1398,1418,1439,1459,1479,1500,1519,1538,1559,1578,1600,1618,1638,1658,1678,1699,1718,1738,1760,1778,1798,1818,1840,1858,1879,1899,1918,1939,1959],"xSR":741.5,"ySR":449.15000000000003,"xT1":424.9,"yT1":0,"xT2":1058.1,"yT2":0,"toosoon":0,"cond_shown":"randomdotsizeEA","ratio_trial":500,"smaller_num":"3","larger_num":"6","correct_side":2,"subjID":"valentinaalvarezperez4","gender":"1","age":"12","school":"6"},{"start_time":1551790939576,"click_time":1551790940887,"finger_time":1551790940528,"fix_duration":867.436544953304,"trial":8,"RT":952,"MT":359,"sideResp":1,"stimulus":"img/500/equaldotsize/L/10_Ratio_500_L_4_R_2.png","xmouse":[789,789,789,789,789,789,789,789,789,789,789,789,789,789,789,789,789,789,789,789,789,789,789,789,789,789,789,789,789,789,789,789,789,789,789,789,789,789,789,789,788,786,786,784,776,772,766,753,735,709,698,686,672,659,635,623,610,603,595,585,570,562,554,544,536,519],"ymouse":[499,499,499,499,499,499,499,499,499,499,499,499,499,499,499,499,499,499,499,499,499,499,499,499,499,499,499,499,499,499,499,499,499,499,499,499,499,499,499,499,499,498,497,494,475,469,458,437,414,373,351,331,305,285,245,227,204,184,166,135,97,87,72,57,49,36],"timestamp_mouse":[13,31,51,72,92,112,131,152,171,191,212,232,252,273,293,312,333,352,372,392,411,431,452,472,491,512,533,552,572,592,611,633,652,672,692,712,731,751,772,792,812,832,852,871,891,911,931,952,972,991,1011,1033,1052,1073,1091,1113,1131,1151,1171,1192,1211,1233,1252,1272,1291,1311],"xSR":741.5,"ySR":449.15000000000003,"xT1":424.9,"yT1":0,"xT2":1058.1,"yT2":0,"toosoon":0,"cond_shown":"equaldotsize","ratio_trial":500,"smaller_num":"2","larger_num":"4","correct_side":1,"subjID":"valentinaalvarezperez4","gender":"1","age":"12","school":"6"},{"start_time":1551790943118,"click_time":1551790944609,"finger_time":1551790944187,"fix_duration":250,"trial":9,"RT":1069,"MT":422,"sideResp":2,"stimulus":"img/250/randomdotsizeEA/R/10_Ratio_250_L_4_R_16.png","xmouse":[804,804,804,804,804,804,804,804,804,804,804,804,804,804,804,804,804,804,804,804,804,804,804,804,804,804,804,804,804,802,802,801,799,798,796,792,789,776,764,761,761,761,761,761,761,761,761,761,761,761,761,762,767,772,778,784,793,826,866,923,955,974,989,993,999,1007,1017,1030,1033,1036,1039,1040,1046,1057,1072],"ymouse":[480,480,480,480,480,480,480,480,480,480,480,480,480,480,480,480,480,480,480,480,480,480,480,480,480,480,480,480,480,480,480,479,479,478,476,474,473,466,458,457,457,457,457,457,457,457,457,457,457,457,457,455,452,449,442,427,409,361,320,256,209,186,146,126,115,94,75,48,41,36,33,33,33,34,37],"timestamp_mouse":[10,30,50,70,90,109,129,150,171,190,210,230,250,269,290,311,330,350,370,390,410,429,449,469,489,509,529,549,569,590,609,629,651,669,691,711,731,749,769,789,810,829,849,871,891,910,930,950,971,990,1009,1029,1050,1069,1090,1109,1129,1149,1169,1189,1210,1230,1249,1269,1290,1310,1330,1349,1369,1390,1411,1431,1451,1469,1491],"xSR":741.5,"ySR":449.15000000000003,"xT1":424.9,"yT1":0,"xT2":1058.1,"yT2":0,"toosoon":0,"cond_shown":"randomdotsizeEA","ratio_trial":250,"smaller_num":"4","larger_num":"16","correct_side":2,"subjID":"valentinaalvarezperez4","gender":"1","age":"12","school":"6"},{"start_time":1551790945738,"click_time":1551790947287,"finger_time":1551790946828,"fix_duration":250,"trial":10,"RT":1090,"MT":459,"sideResp":1,"stimulus":"img/750/equaldotanddens/R/3_Ratio_750_L_15_R_20.png","xmouse":[798,798,798,798,798,798,798,798,798,798,798,798,798,798,798,798,798,797,797,797,797,797,797,797,797,797,797,797,797,797,797,797,798,798,798,798,798,798,798,798,798,798,798,798,798,798,798,798,798,798,794,785,782,775,769,755,728,712,699,693,683,657,645,633,622,610,591,576,569,563,558,556,551,545,542,534,515,504],"ymouse":[493,493,493,493,493,493,493,493,493,493,493,493,493,493,493,493,493,492,492,492,492,492,492,492,492,492,492,492,492,491,489,489,488,488,488,488,488,488,488,488,488,488,488,488,488,488,488,488,485,481,476,463,458,451,444,436,417,407,397,391,368,326,303,285,267,252,219,199,190,181,173,165,158,150,145,134,108,94],"timestamp_mouse":[10,29,49,69,90,109,129,150,169,189,209,229,249,269,289,309,329,349,369,390,409,429,449,469,489,510,529,551,570,591,611,631,650,670,690,709,729,749,769,789,809,830,850,869,889,909,929,949,969,989,1009,1030,1049,1069,1090,1109,1129,1150,1169,1191,1210,1230,1249,1270,1290,1310,1330,1351,1369,1389,1409,1429,1449,1469,1489,1510,1529,1549],"xSR":741.5,"ySR":449.15000000000003,"xT1":424.9,"yT1":0,"xT2":1058.1,"yT2":0,"toosoon":0,"cond_shown":"equaldotanddens","ratio_trial":750,"smaller_num":"15","larger_num":"20","correct_side":2,"subjID":"valentinaalvarezperez4","gender":"1","age":"12","school":"6"},{"start_time":1551790948339,"click_time":1551790950408,"finger_time":1551790949587,"fix_duration":250,"trial":11,"RT":1248,"MT":821,"sideResp":1,"stimulus":"img/900/equaldotanddens/L/4_Ratio_900_L_20_R_18.png","xmouse":[798,798,798,798,798,798,798,798,798,798,798,798,798,798,798,798,798,798,798,798,798,798,799,799,799,801,802,803,804,805,805,806,806,806,806,806,806,806,806,806,806,806,806,806,806,807,807,807,807,807,807,807,805,804,803,802,800,799,797,792,789,773,763,750,742,733,722,715,700,687,675,652,643,634,628,623,612,598,589,577,573,563,562,562,562,560,559,559,559,559,559,559,559,559,559,559,559,559,557,553,547,531,522,513],"ymouse":[531,530,530,529,529,529,529,529,529,529,529,529,529,529,529,529,529,529,529,529,529,529,528,528,527,525,524,520,519,517,517,515,515,515,515,515,515,515,515,515,515,514,513,511,510,508,506,505,503,502,502,500,497,494,492,488,485,482,480,474,470,450,439,424,415,407,390,379,356,339,312,273,262,250,240,233,221,206,198,188,184,171,170,170,170,167,166,166,166,166,166,166,166,166,166,166,166,166,164,158,150,124,107,87],"timestamp_mouse":[8,28,48,70,89,108,128,150,168,188,210,228,248,268,288,310,330,348,369,389,410,430,449,469,488,508,528,549,568,588,608,628,648,670,690,710,729,748,768,788,808,828,848,868,888,908,928,948,968,988,1009,1029,1049,1068,1090,1109,1128,1150,1169,1188,1209,1229,1248,1268,1288,1308,1328,1348,1368,1388,1409,1429,1448,1469,1490,1510,1528,1550,1568,1590,1609,1629,1649,1669,1689,1709,1728,1748,1768,1789,1810,1829,1849,1869,1889,1909,1930,1950,1968,1988,2009,2029,2048,2069],"xSR":741.5,"ySR":449.15000000000003,"xT1":424.9,"yT1":0,"xT2":1058.1,"yT2":0,"toosoon":0,"cond_shown":"equaldotanddens","ratio_trial":900,"smaller_num":"18","larger_num":"20","correct_side":1,"subjID":"valentinaalvarezperez4","gender":"1","age":"12","school":"6"},{"start_time":1551790956552,"click_time":1551790957967,"finger_time":1551790957587,"fix_duration":1483.9674649294313,"trial":12,"RT":1035,"MT":380,"sideResp":1,"stimulus":"img/250/equaldotsize/L/15_Ratio_250_L_12_R_3.png","xmouse":[766,766,766,766,766,766,766,766,766,766,766,766,766,766,766,766,766,766,766,766,766,766,766,766,766,766,766,766,766,766,766,766,766,766,766,766,766,766,766,766,766,766,766,766,766,766,766,766,766,766,745,737,724,699,681,662,659,659,659,658,652,647,644,639,630,604,589,561,548,533,506],"ymouse":[484,484,484,484,484,484,484,484,484,484,484,484,484,484,484,484,484,484,484,484,484,484,484,484,484,484,484,484,484,484,484,484,484,484,484,484,484,484,484,484,484,484,484,484,484,484,484,481,481,481,467,452,440,422,409,394,388,383,373,366,348,330,308,283,258,198,174,134,124,109,86],"timestamp_mouse":[27,36,56,76,96,116,137,155,175,196,217,237,257,275,297,316,335,356,376,395,415,437,456,475,495,516,535,556,576,596,616,636,657,677,696,717,735,755,776,795,815,835,855,875,895,917,936,956,975,995,1016,1035,1056,1076,1096,1116,1135,1156,1176,1197,1217,1236,1255,1276,1295,1315,1336,1355,1376,1395,1415],"xSR":741.5,"ySR":449.15000000000003,"xT1":424.9,"yT1":0,"xT2":1058.1,"yT2":0,"toosoon":0,"cond_shown":"equaldotsize","ratio_trial":250,"smaller_num":"3","larger_num":"12","correct_side":1,"subjID":"valentinaalvarezperez4","gender":"1","age":"12","school":"6"},{"start_time":1551790959638,"click_time":1551790961088,"finger_time":1551790960567,"fix_duration":250,"trial":13,"RT":929,"MT":521,"sideResp":1,"stimulus":"img/250/randomdotsizeEA/L/5_Ratio_250_L_24_R_6.png","xmouse":[812,812,811,811,811,811,811,811,811,811,811,811,811,811,811,811,811,811,811,811,811,811,811,811,811,811,810,810,810,810,810,810,810,810,809,809,809,809,809,809,808,807,794,782,769,757,738,729,716,705,702,701,701,701,698,695,693,692,690,689,686,681,677,672,669,664,655,642,626,598,566,525,498],"ymouse":[508,508,508,508,508,508,508,508,508,508,508,508,508,508,508,508,508,508,508,508,508,508,508,508,508,508,508,508,508,508,508,508,508,508,507,507,507,506,506,505,504,503,498,493,487,480,466,456,445,433,430,428,419,412,404,394,384,381,375,370,364,346,334,317,303,289,270,248,218,186,140,87,59],"timestamp_mouse":[10,29,49,71,90,111,129,150,170,190,210,230,251,271,290,310,329,349,369,390,411,429,449,469,489,509,530,550,571,590,610,629,649,669,690,710,729,751,771,790,810,829,850,869,891,911,929,950,970,990,1010,1030,1051,1069,1090,1110,1129,1149,1170,1190,1209,1229,1250,1269,1290,1311,1331,1349,1370,1390,1409,1429,1450],"xSR":741.5,"ySR":449.15000000000003,"xT1":424.9,"yT1":0,"xT2":1058.1,"yT2":0,"toosoon":0,"cond_shown":"randomdotsizeEA","ratio_trial":250,"smaller_num":"6","larger_num":"24","correct_side":1,"subjID":"valentinaalvarezperez4","gender":"1","age":"12","school":"6"},{"start_time":1551790963267,"click_time":1551790966907,"finger_time":1551790964268,"fix_duration":1299.1410173368192,"trial":14,"RT":1001,"MT":2639,"sideResp":2,"stimulus":"img/750/equaldotsize/R/7_Ratio_750_L_3_R_4.png","xmouse":[785,785,785,785,785,785,785,785,785,785,785,785,785,785,785,785,785,785,785,785,785,785,785,785,785,785,785,785,785,785,785,785,785,785,785,785,785,785,785,785,785,785,787,789,792,796,799,804,812,828,852,870,876,892,898,919,932,943,955,964,999,1016,1038,1066,1078,1081,1081,1081,1081,1081,1081,1080,1079,1079,1079,1078,1078,1078,1078,1080,1080,1080,1080,1080,1080,1080,1080,1080,1080,1080,1080,1080,1080,1080,1080,1080,1080,1080,1080,1080,1080,1080,1080,1080,1080,1080,1080,1080,1080,1080,1080,1080,1080,1080,1080,1080,1080,1080,1080,1080,1080,1080,1080,1080,1080,1080,1080,1080,1080,1080,1080,1080,1080,1080,1080,1080,1080,1080,1080,1080,1080,1080,1080,1080,1080,1080,1080,1080,1080,1080,1080,1080,1080,1080,1080,1080,1080,1080,1080,1080,1080,1080,1080,1080,1080,1080,1080,1080,1080,1080,1080,1080,1080,1080,1080,1080,1080,1080,1080,1080,1080,1095,1134],"ymouse":[522,522,522,522,522,522,522,522,522,522,522,522,522,522,522,522,522,522,522,522,522,522,522,522,522,522,522,522,522,522,522,522,522,522,522,522,522,522,522,522,521,520,516,510,504,491,484,472,465,452,438,423,419,406,401,379,367,354,338,328,294,283,262,234,223,212,210,208,208,207,206,200,195,195,195,176,167,159,156,154,152,152,152,152,152,152,152,152,152,152,152,152,152,152,152,152,152,152,152,152,152,152,152,152,152,152,152,152,152,152,152,152,152,152,152,152,152,152,152,152,152,152,152,152,152,152,152,152,152,152,152,152,152,152,152,152,152,152,152,152,152,152,152,152,152,152,152,152,152,152,152,152,152,152,152,152,152,152,152,152,152,152,152,152,152,152,152,152,152,152,152,152,152,152,151,151,151,151,151,151,151,133,86],"timestamp_mouse":[1,21,40,61,80,100,122,142,162,182,201,220,241,261,281,301,321,340,360,380,400,420,442,461,481,501,521,541,561,580,602,621,641,661,682,700,720,740,760,781,801,821,841,862,880,900,921,941,962,981,1001,1021,1042,1061,1081,1100,1120,1141,1161,1180,1200,1222,1240,1260,1280,1300,1321,1341,1360,1382,1400,1422,1440,1461,1480,1500,1520,1540,1561,1580,1601,1620,1641,1662,1681,1702,1721,1741,1762,1781,1801,1820,1841,1861,1882,1900,1922,1941,1960,1982,2001,2021,2040,2061,2082,2100,2121,2140,2160,2180,2201,2222,2241,2262,2282,2301,2322,2342,2361,2381,2400,2421,2442,2461,2480,2501,2521,2542,2562,2581,2600,2620,2641,2661,2682,2701,2721,2741,2760,2780,2800,2820,2841,2860,2880,2900,2921,2941,2961,2981,3000,3021,3040,3061,3081,3101,3121,3142,3161,3181,3200,3220,3240,3261,3280,3300,3320,3340,3360,3381,3401,3421,3441,3461,3481,3501,3520,3540,3560,3580,3600,3620,3640],"xSR":741.5,"ySR":449.15000000000003,"xT1":424.9,"yT1":0,"xT2":1058.1,"yT2":0,"toosoon":0,"cond_shown":"equaldotsize","ratio_trial":750,"smaller_num":"3","larger_num":"4","correct_side":2,"subjID":"valentinaalvarezperez4","gender":"1","age":"12","school":"6"},{"start_time":1551790972299,"click_time":1551790973527,"finger_time":1551790973208,"fix_duration":250,"trial":15,"RT":909,"MT":319,"sideResp":1,"stimulus":"img/900/randomdotsizeEA/L/2_Ratio_900_L_20_R_18.png","xmouse":[777,777,777,777,777,777,777,777,777,777,777,778,778,781,782,782,782,782,782,782,782,782,782,782,782,782,782,782,782,782,782,782,782,782,782,782,782,782,782,782,782,782,782,775,765,744,722,700,653,634,618,599,594,584,581,578,576,576,574,562,546,521],"ymouse":[501,501,501,501,501,501,501,501,501,501,499,498,496,492,492,492,492,492,492,492,492,492,492,492,492,492,492,492,492,492,492,492,492,492,492,492,492,492,492,492,492,492,491,479,463,432,400,367,297,266,243,197,173,137,127,122,120,119,113,103,94,85],"timestamp_mouse":[10,29,49,69,88,110,128,149,170,189,209,230,248,268,289,308,328,348,369,390,408,428,449,469,488,508,528,548,569,589,608,628,650,669,689,709,729,749,770,788,809,830,849,869,889,909,930,949,969,989,1009,1029,1050,1069,1089,1109,1129,1149,1168,1189,1209,1228],"xSR":741.5,"ySR":449.15000000000003,"xT1":424.9,"yT1":0,"xT2":1058.1,"yT2":0,"toosoon":0,"cond_shown":"randomdotsizeEA","ratio_trial":900,"smaller_num":"18","larger_num":"20","correct_side":1,"subjID":"valentinaalvarezperez4","gender":"1","age":"12","school":"6"},{"start_time":1551790974658,"click_time":1551790976267,"finger_time":1551790975587,"fix_duration":390.11601042387366,"trial":16,"RT":929,"MT":680,"sideResp":2,"stimulus":"img/750/equaldotsize/R/11_Ratio_750_L_12_R_16.png","xmouse":[816,816,816,816,816,816,816,816,816,816,816,816,816,816,816,816,816,816,816,816,816,816,816,816,816,816,816,816,816,816,816,816,816,816,816,816,816,815,816,817,819,820,820,822,823,825,827,827,827,828,833,837,837,839,840,843,846,848,851,853,860,863,871,878,889,912,917,927,936,946,966,981,991,1002,1011,1026,1034,1044,1054,1066,1087],"ymouse":[483,483,483,483,483,483,483,483,483,483,483,483,483,483,483,483,483,483,483,483,483,483,483,483,483,483,483,483,483,483,483,483,483,483,483,483,483,481,479,474,467,465,463,460,455,450,448,446,444,442,431,426,423,420,419,414,411,406,402,398,388,383,372,361,350,321,315,302,291,283,259,246,231,215,199,169,155,141,129,115,94],"timestamp_mouse":[13,30,50,71,90,110,131,150,170,190,209,229,250,269,289,309,330,350,369,391,410,430,450,469,490,509,530,550,570,590,610,630,650,669,689,709,731,750,769,790,809,831,850,870,889,910,929,950,970,990,1009,1031,1049,1070,1090,1110,1129,1150,1169,1189,1209,1230,1249,1269,1290,1309,1329,1350,1370,1391,1409,1429,1449,1470,1490,1509,1529,1549,1569,1590,1609],"xSR":741.5,"ySR":449.15000000000003,"xT1":424.9,"yT1":0,"xT2":1058.1,"yT2":0,"toosoon":0,"cond_shown":"equaldotsize","ratio_trial":750,"smaller_num":"12","larger_num":"16","correct_side":2,"subjID":"valentinaalvarezperez4","gender":"1","age":"12","school":"6"},{"start_time":1551790978075,"click_time":1551790980888,"finger_time":1551790980428,"fix_duration":947.7337873830222,"trial":17,"RT":2353,"MT":460,"sideResp":1,"stimulus":"img/250/randomdotsizeEA/L/2_Ratio_250_L_16_R_4.png","xmouse":[815,815,815,815,815,815,815,815,815,815,815,815,815,815,815,815,815,815,815,815,815,815,815,815,815,815,815,815,815,815,815,815,815,815,815,815,817,819,819,819,819,819,819,819,819,819,819,819,819,819,819,819,819,819,819,819,819,819,819,819,819,819,819,819,819,819,819,819,819,819,819,819,819,819,819,819,819,819,819,819,819,819,819,819,819,819,819,819,819,819,819,819,819,819,819,819,819,819,819,819,819,819,819,819,819,819,819,819,819,819,819,819,819,819,819,817,812,800,789,758,730,711,695,683,665,652,643,629,613,569,540,520,501,499,500,502,502,502,502,502,501],"ymouse":[488,488,488,488,488,488,488,488,488,488,488,488,488,488,488,488,488,488,488,488,488,488,488,488,488,488,488,488,488,488,488,488,488,488,487,484,481,481,480,480,480,480,480,480,480,480,480,480,480,480,480,480,480,480,480,480,480,480,480,480,480,480,480,480,480,480,480,480,480,480,480,480,480,480,480,480,480,480,480,480,480,480,480,480,480,480,480,480,480,480,480,480,480,480,478,478,478,478,478,478,478,478,478,478,478,478,478,478,477,476,474,472,468,465,460,457,454,447,437,409,388,377,369,363,347,334,321,300,275,217,193,176,159,155,152,150,146,139,128,120,99],"timestamp_mouse":[13,33,52,73,93,112,133,152,172,193,213,232,252,272,292,312,332,352,373,392,412,432,453,472,493,512,533,552,572,593,613,632,652,673,692,712,733,754,772,793,812,833,852,872,892,912,933,952,973,992,1013,1032,1052,1073,1092,1112,1132,1152,1172,1193,1212,1232,1253,1274,1294,1314,1333,1352,1372,1392,1412,1432,1453,1472,1492,1512,1532,1554,1572,1593,1613,1633,1652,1674,1693,1712,1732,1754,1772,1793,1812,1832,1852,1872,1893,1912,1932,1953,1972,1992,2013,2032,2052,2072,2092,2112,2132,2152,2172,2192,2212,2232,2252,2273,2293,2312,2332,2353,2372,2392,2412,2432,2452,2472,2493,2512,2532,2554,2572,2592,2613,2633,2652,2672,2692,2712,2733,2752,2773,2792,2813],"xSR":741.5,"ySR":449.15000000000003,"xT1":424.9,"yT1":0,"xT2":1058.1,"yT2":0,"toosoon":0,"cond_shown":"randomdotsizeEA","ratio_trial":250,"smaller_num":"4","larger_num":"16","correct_side":1,"subjID":"valentinaalvarezperez4","gender":"1","age":"12","school":"6"},{"start_time":1551790990889,"click_time":1551790992428,"finger_time":1551790991768,"fix_duration":821.2595339869015,"trial":18,"RT":879,"MT":660,"sideResp":1,"stimulus":"img/500/equaldotanddens/L/8_Ratio_500_L_8_R_4.png","xmouse":[786,786,786,786,786,786,786,786,786,786,786,786,786,786,786,786,786,786,786,786,786,786,786,786,786,786,786,786,786,786,786,786,786,786,786,786,786,786,786,786,786,778,760,715,706,696,686,679,658,651,642,634,627,596,576,551,530,502,451,424,415,405,394,382,375,371,371,373,375,379,387,392,396,405,409,421,437],"ymouse":[513,513,513,513,513,513,513,513,513,513,513,513,513,513,513,513,513,513,513,513,513,513,513,513,513,513,513,513,513,513,513,513,513,513,513,513,513,513,513,513,513,506,491,442,426,407,382,363,281,271,255,247,243,226,218,207,197,182,158,143,137,129,116,98,82,69,67,60,58,55,49,48,48,48,48,48,47],"timestamp_mouse":[19,38,58,78,98,118,138,158,178,198,219,238,258,279,298,319,339,358,378,399,419,439,458,478,498,519,538,558,578,598,619,638,659,678,698,718,738,758,778,799,818,838,858,879,898,918,939,959,978,1000,1018,1038,1058,1078,1098,1119,1138,1158,1178,1198,1218,1238,1259,1278,1298,1318,1339,1358,1378,1399,1418,1438,1458,1478,1498,1518,1539],"xSR":741.5,"ySR":449.15000000000003,"xT1":424.9,"yT1":0,"xT2":1058.1,"yT2":0,"toosoon":0,"cond_shown":"equaldotanddens","ratio_trial":500,"smaller_num":"4","larger_num":"8","correct_side":1,"subjID":"valentinaalvarezperez4","gender":"1","age":"12","school":"6"},{"start_time":1551790995499,"click_time":1551790997128,"finger_time":1551790996487,"fix_duration":250,"trial":19,"RT":988,"MT":641,"sideResp":2,"stimulus":"img/500/randomdotsizeEA/R/15_Ratio_500_L_1_R_2.png","xmouse":[776,776,776,776,776,776,776,776,776,776,776,776,776,776,776,776,776,776,776,776,776,776,776,776,776,776,776,776,776,776,776,776,776,776,776,776,776,776,776,776,776,776,776,776,776,776,775,772,750,737,728,726,726,726,726,726,727,728,743,758,802,856,920,1082,1156,1204,1221,1221,1221,1221,1221,1221,1221,1221,1221,1221,1221,1221,1221,1221,1221,1141],"ymouse":[477,477,477,477,477,477,477,477,477,477,477,477,477,477,477,477,477,477,477,477,477,477,477,477,477,477,477,477,477,477,477,477,477,477,477,477,477,477,477,477,477,477,477,477,477,477,478,477,451,437,427,420,417,415,415,412,411,410,403,398,378,354,329,204,130,62,23,23,23,23,23,23,23,23,23,23,23,23,23,23,23,2],"timestamp_mouse":[9,28,48,68,89,110,128,148,169,188,208,229,249,269,288,309,328,348,369,388,408,430,450,469,489,508,528,548,569,588,609,629,649,668,689,709,728,748,769,789,809,829,849,869,888,908,928,949,968,988,1008,1028,1048,1068,1088,1109,1129,1148,1168,1189,1208,1229,1248,1268,1288,1309,1328,1348,1369,1389,1408,1428,1449,1469,1488,1509,1529,1549,1568,1588,1608,1628],"xSR":741.5,"ySR":449.15000000000003,"xT1":424.9,"yT1":0,"xT2":1058.1,"yT2":0,"toosoon":0,"cond_shown":"randomdotsizeEA","ratio_trial":500,"smaller_num":"1","larger_num":"2","correct_side":2,"subjID":"valentinaalvarezperez4","gender":"1","age":"12","school":"6"},{"start_time":1551790998746,"click_time":1551791000308,"finger_time":1551790999767,"fix_duration":758.2481802969675,"trial":20,"RT":1021,"MT":541,"sideResp":1,"stimulus":"img/900/equaldotsize/R/5_Ratio_900_L_9_R_10.png","xmouse":[800,800,800,800,800,800,800,800,800,800,800,800,800,800,800,800,800,800,800,800,800,800,800,800,800,800,800,800,800,800,800,800,800,800,800,800,800,800,800,800,800,800,800,800,800,800,800,795,782,771,754,702,672,650,624,596,560,548,538,531,528,518,512,505,502,498,494,493,493,492,490,490,490,490,490,490,486,484,481],"ymouse":[499,499,499,499,499,499,499,499,499,499,499,499,499,499,499,499,499,499,499,499,499,499,499,499,499,499,499,499,499,499,499,499,499,499,499,499,499,499,499,499,499,499,499,499,499,499,499,494,479,470,452,401,373,348,324,303,278,268,260,253,245,222,208,195,181,168,159,149,139,133,127,124,123,122,121,120,110,106,98],"timestamp_mouse":[3,26,41,61,81,101,122,142,162,182,202,221,241,261,281,301,321,342,361,381,401,422,442,462,481,502,522,542,561,582,603,622,641,661,681,701,722,743,763,781,802,821,841,861,881,901,921,942,961,981,1002,1021,1041,1061,1081,1101,1121,1142,1162,1181,1202,1221,1241,1262,1281,1301,1321,1341,1361,1382,1402,1421,1441,1461,1481,1502,1521,1541,1562],"xSR":741.5,"ySR":449.15000000000003,"xT1":424.9,"yT1":0,"xT2":1058.1,"yT2":0,"toosoon":0,"cond_shown":"equaldotsize","ratio_trial":900,"smaller_num":"9","larger_num":"10","correct_side":2,"subjID":"valentinaalvarezperez4","gender":"1","age":"12","school":"6"},{"start_time":1551791003783,"click_time":1551791005148,"finger_time":1551791004767,"fix_duration":535.8979828864044,"trial":21,"RT":984,"MT":381,"sideResp":2,"stimulus":"img/500/equaldotsize/R/9_Ratio_500_L_2_R_4.png","xmouse":[748,748,748,748,748,749,750,751,752,753,754,754,755,755,755,755,755,755,755,755,755,755,755,755,755,755,755,755,755,755,755,755,755,755,755,755,755,755,755,755,755,755,755,755,755,756,757,759,763,794,806,844,952,1062,1216,1252,1258,1260,1260,1253,1250,1243,1232,1222,1207,1189,1183,1162,1153],"ymouse":[468,468,468,468,468,470,471,473,474,476,477,478,478,479,479,479,479,479,479,479,479,479,479,479,479,479,479,479,479,479,479,479,479,479,479,479,479,479,479,479,479,479,479,479,480,478,475,470,458,418,410,392,346,299,233,204,188,175,166,146,138,130,117,106,91,76,70,57,50],"timestamp_mouse":[4,25,44,64,85,105,125,144,164,184,204,224,244,265,284,304,325,345,364,384,404,424,445,464,485,504,525,544,565,584,604,624,644,664,684,704,725,744,764,785,804,825,844,864,885,904,924,945,965,984,1004,1024,1044,1064,1084,1105,1124,1144,1164,1184,1204,1224,1244,1265,1284,1306,1326,1345,1365],"xSR":741.5,"ySR":449.15000000000003,"xT1":424.9,"yT1":0,"xT2":1058.1,"yT2":0,"toosoon":0,"cond_shown":"equaldotsize","ratio_trial":500,"smaller_num":"2","larger_num":"4","correct_side":2,"subjID":"valentinaalvarezperez4","gender":"1","age":"12","school":"6"},{"start_time":1551791006400,"click_time":1551791007747,"finger_time":1551791007287,"fix_duration":250,"trial":22,"RT":887,"MT":460,"sideResp":2,"stimulus":"img/250/randomdotsizeEA/R/10_Ratio_250_L_4_R_16.png","xmouse":[772,772,773,773,773,774,774,774,774,774,774,774,774,774,774,774,774,774,774,774,775,775,775,775,775,775,775,775,775,775,775,775,775,775,775,775,776,776,777,778,782,787,789,825,877,900,918,932,947,958,970,980,995,1024,1043,1055,1066,1074,1086,1089,1094,1098,1101,1108,1111,1114,1115,1116],"ymouse":[497,497,497,497,497,497,497,497,497,497,497,497,497,497,497,497,497,497,497,497,497,497,497,497,497,497,497,497,497,497,497,497,497,497,497,497,497,497,496,494,490,484,483,468,449,436,424,412,380,359,337,319,300,262,233,213,197,181,162,157,150,144,141,130,121,110,105,97],"timestamp_mouse":[8,28,47,67,87,108,127,147,167,189,208,228,247,268,287,307,327,347,368,387,407,428,447,467,487,507,527,547,567,587,607,627,647,668,687,707,728,747,767,787,808,827,848,867,887,907,927,948,967,987,1008,1028,1047,1067,1087,1107,1127,1148,1168,1187,1207,1227,1248,1267,1287,1307,1327,1347],"xSR":741.5,"ySR":449.15000000000003,"xT1":424.9,"yT1":0,"xT2":1058.1,"yT2":0,"toosoon":0,"cond_shown":"randomdotsizeEA","ratio_trial":250,"smaller_num":"4","larger_num":"16","correct_side":2,"subjID":"valentinaalvarezperez4","gender":"1","age":"12","school":"6"},{"start_time":1551791008919,"click_time":1551791010167,"finger_time":1551791009728,"fix_duration":250,"trial":23,"RT":809,"MT":439,"sideResp":1,"stimulus":"img/900/randomdotsizeEA/R/14_Ratio_900_L_18_R_20.png","xmouse":[784,784,784,784,784,784,784,784,784,784,784,784,784,784,784,784,784,784,784,784,784,784,784,784,784,784,784,784,784,784,784,784,784,784,784,784,784,781,777,772,770,769,759,753,743,725,708,672,655,646,636,629,615,608,603,596,590,569,555,534,523,515,507],"ymouse":[473,473,473,473,473,473,473,473,473,473,473,473,473,473,473,473,473,473,473,473,473,473,473,473,473,473,473,473,473,473,473,473,473,473,473,473,469,464,458,450,446,443,421,402,387,362,336,291,264,250,234,222,204,197,193,186,179,157,143,123,115,109,97],"timestamp_mouse":[14,28,49,68,88,108,129,148,168,189,208,229,248,269,289,309,328,348,368,388,409,429,448,468,488,508,528,549,568,588,609,630,649,668,690,709,729,748,768,788,809,828,848,868,889,909,929,948,968,988,1008,1029,1048,1068,1088,1108,1129,1148,1169,1188,1209,1229,1248],"xSR":741.5,"ySR":449.15000000000003,"xT1":424.9,"yT1":0,"xT2":1058.1,"yT2":0,"toosoon":0,"cond_shown":"randomdotsizeEA","ratio_trial":900,"smaller_num":"18","larger_num":"20","correct_side":2,"subjID":"valentinaalvarezperez4","gender":"1","age":"12","school":"6"},{"start_time":1551791013223,"click_time":1551791019467,"finger_time":1551791018888,"fix_duration":573.6735066579336,"trial":24,"RT":5665,"MT":579,"sideResp":1,"stimulus":"img/500/equaldotanddens/R/1_Ratio_500_L_9_R_18.png","xmouse":[827,827,827,827,827,827,827,827,827,827,827,827,827,827,827,827,827,827,827,827,827,827,827,827,827,827,827,827,827,827,827,827,827,827,827,827,827,827,827,827,827,827,827,827,827,827,827,827,827,827,827,827,827,827,827,827,827,827,827,827,827,827,827,827,827,827,827,827,827,827,827,827,827,827,827,827,827,827,827,827,827,827,827,827,827,827,827,827,827,827,827,827,827,827,827,827,827,827,827,827,827,827,827,827,827,827,827,827,827,827,827,827,827,827,827,827,827,827,827,827,827,827,827,827,827,827,827,827,827,827,827,827,827,827,827,827,827,827,827,827,827,827,827,827,827,827,827,827,827,827,827,827,827,827,827,827,827,827,827,827,827,827,827,827,827,827,827,827,827,827,827,827,827,827,827,827,827,827,827,827,827,827,827,827,827,827,827,827,827,827,827,827,827,827,827,827,827,827,827,827,827,827,827,827,827,827,827,827,827,827,827,827,827,827,827,827,827,827,827,827,827,827,827,827,827,827,827,827,827,827,827,827,827,827,827,827,827,827,827,827,827,827,827,827,827,827,827,827,827,827,827,827,827,827,827,827,827,827,827,827,827,827,827,827,827,827,827,824,820,819,819,819,819,819,819,818,818,818,818,818,809,803,761,740,720,692,654,575,544,509,482,457,418,407,391,383,375,371,371,371,372,373,374,377,382,386,391,411,418,421,422,424,433],"ymouse":[522,522,522,522,522,522,522,522,522,522,522,522,522,522,522,522,522,522,522,522,522,522,522,522,522,522,522,522,522,522,522,522,522,522,522,522,522,522,522,522,522,522,522,522,522,522,522,522,522,522,522,522,522,522,522,522,522,522,522,522,522,522,522,522,522,522,522,522,522,522,522,522,522,522,522,522,522,522,522,522,522,522,522,522,522,522,522,522,522,522,522,522,522,522,522,522,522,522,522,522,522,522,522,522,522,522,522,522,522,522,522,522,522,522,522,522,522,522,522,522,522,522,522,522,522,522,522,522,522,522,522,522,522,522,522,522,522,522,522,522,522,522,522,522,522,522,522,522,522,522,522,522,522,522,522,522,522,522,522,522,522,522,522,522,522,522,522,522,522,522,522,522,522,522,522,522,522,522,522,522,522,522,522,522,522,522,522,522,522,522,522,522,522,522,522,522,522,522,522,522,522,522,522,522,522,522,522,522,522,522,522,522,522,522,522,522,522,522,522,522,522,522,522,522,522,522,522,522,522,522,522,522,522,522,522,522,522,522,522,522,522,522,522,522,522,522,522,522,522,522,522,522,522,522,522,522,522,522,522,522,522,522,522,522,522,522,522,523,526,527,527,527,527,527,527,528,528,528,528,528,528,528,519,507,491,468,432,347,314,278,244,207,149,127,97,77,58,27,14,8,4,2,1,3,10,19,25,37,40,43,43,44,47],"timestamp_mouse":[5,24,44,64,85,105,124,144,164,184,204,225,244,264,285,304,324,345,364,384,404,425,444,464,484,505,524,545,564,585,604,625,644,664,684,704,725,745,764,785,805,825,844,864,885,905,925,945,964,984,1004,1024,1044,1065,1085,1104,1125,1145,1165,1186,1205,1225,1246,1264,1285,1305,1324,1344,1365,1385,1404,1424,1444,1464,1484,1505,1524,1545,1564,1584,1604,1624,1644,1664,1685,1706,1724,1745,1764,1784,1804,1824,1845,1865,1885,1904,1925,1945,1965,1984,2004,2024,2045,2064,2084,2105,2125,2145,2165,2184,2204,2225,2245,2264,2285,2305,2324,2344,2364,2385,2405,2425,2445,2465,2485,2504,2525,2545,2564,2585,2605,2624,2645,2665,2684,2704,2724,2745,2764,2784,2804,2825,2845,2864,2884,2905,2924,2945,2964,2984,3005,3025,3044,3065,3085,3104,3124,3144,3164,3184,3205,3224,3245,3264,3284,3305,3324,3345,3364,3384,3404,3424,3445,3466,3485,3505,3524,3544,3564,3584,3605,3624,3645,3664,3684,3704,3725,3744,3764,3784,3804,3824,3844,3865,3884,3905,3925,3944,3965,3985,4004,4024,4044,4065,4085,4105,4126,4145,4165,4184,4204,4224,4245,4264,4284,4304,4324,4345,4365,4384,4405,4425,4444,4464,4484,4504,4524,4544,4565,4584,4605,4625,4644,4664,4685,4704,4725,4745,4764,4785,4805,4824,4845,4864,4885,4905,4925,4944,4965,4984,5004,5024,5045,5064,5084,5104,5126,5145,5164,5184,5205,5224,5244,5264,5284,5304,5324,5344,5364,5384,5404,5424,5444,5464,5484,5504,5524,5545,5564,5586,5604,5625,5644,5665,5684,5704,5724,5744,5764,5784,5805,5825,5844,5864,5884,5904,5924,5944,5964,5984,6004,6024,6044,6064,6084,6104,6125,6144,6164,6185,6205,6224,6244],"xSR":741.5,"ySR":449.15000000000003,"xT1":424.9,"yT1":0,"xT2":1058.1,"yT2":0,"toosoon":0,"cond_shown":"equaldotanddens","ratio_trial":500,"smaller_num":"9","larger_num":"18","correct_side":2,"subjID":"valentinaalvarezperez4","gender":"1","age":"12","school":"6"},{"start_time":1551791021427,"click_time":1551791022529,"finger_time":1551791022207,"fix_duration":1058.166389285402,"trial":25,"RT":780,"MT":322,"sideResp":2,"stimulus":"img/500/randomdotsizeEA/R/6_Ratio_500_L_9_R_18.png","xmouse":[827,827,827,827,827,827,827,827,827,827,827,827,827,827,827,827,827,827,827,827,827,827,827,827,827,827,827,827,827,827,827,827,827,827,827,827,829,836,840,844,852,869,906,926,937,944,948,958,965,973,985,995,1020,1034,1056,1068],"ymouse":[482,482,482,482,482,482,482,482,482,482,482,482,482,482,482,482,482,482,482,482,482,482,482,482,482,482,482,482,482,482,482,482,482,482,482,482,481,467,451,431,411,388,335,296,260,236,216,186,172,158,145,134,105,91,75,68],"timestamp_mouse":[3,20,40,60,81,100,121,140,160,182,201,220,240,261,281,300,320,340,361,380,400,420,441,460,480,501,521,541,561,581,600,622,642,660,680,700,720,740,760,780,800,820,840,860,880,900,921,940,960,980,1000,1021,1040,1062,1080,1101],"xSR":741.5,"ySR":449.15000000000003,"xT1":424.9,"yT1":0,"xT2":1058.1,"yT2":0,"toosoon":0,"cond_shown":"randomdotsizeEA","ratio_trial":500,"smaller_num":"9","larger_num":"18","correct_side":2,"subjID":"valentinaalvarezperez4","gender":"1","age":"12","school":"6"},{"start_time":1551791025820,"click_time":1551791026867,"finger_time":1551791026528,"fix_duration":1291.5315691471292,"trial":26,"RT":708,"MT":339,"sideResp":1,"stimulus":"img/250/equaldotsize/L/1_Ratio_250_L_8_R_2.png","xmouse":[810,810,810,810,810,810,810,810,810,810,810,810,810,810,810,810,810,810,810,810,810,810,810,810,810,810,810,810,810,810,810,810,810,810,797,768,738,654,633,614,600,585,575,573,572,570,567,567,566,562,556,546,523],"ymouse":[483,483,483,483,483,483,483,483,483,483,483,483,483,483,483,483,483,483,483,483,483,483,483,483,483,483,483,483,483,483,483,483,483,483,471,442,415,352,333,312,292,273,257,244,235,223,215,206,176,159,139,119,90],"timestamp_mouse":[7,28,47,67,87,107,128,147,168,188,207,228,248,269,287,307,329,347,368,387,407,428,447,467,487,508,527,547,567,588,608,627,648,667,687,708,728,747,767,787,808,827,847,867,887,907,928,947,967,987,1007,1027,1047],"xSR":741.5,"ySR":449.15000000000003,"xT1":424.9,"yT1":0,"xT2":1058.1,"yT2":0,"toosoon":0,"cond_shown":"equaldotsize","ratio_trial":250,"smaller_num":"2","larger_num":"8","correct_side":1,"subjID":"valentinaalvarezperez4","gender":"1","age":"12","school":"6"},{"start_time":1551791028754,"click_time":1551791029827,"finger_time":1551791029548,"fix_duration":1066.9719941632534,"trial":27,"RT":794,"MT":279,"sideResp":1,"stimulus":"img/500/equaldotanddens/L/10_Ratio_500_L_4_R_2.png","xmouse":[797,797,797,797,797,797,797,797,797,797,797,797,797,797,797,797,797,797,797,797,797,797,797,797,797,797,797,797,797,797,797,797,797,797,797,797,797,797,791,783,745,714,676,638,590,523,509,499,494,491,484,481,479,478],"ymouse":[485,485,485,485,485,485,485,485,485,485,485,485,485,485,485,485,485,485,485,485,485,485,485,485,485,485,485,485,485,485,485,485,485,485,485,485,485,482,468,447,385,334,287,252,212,155,140,128,121,117,109,105,100,97],"timestamp_mouse":[13,34,53,73,93,114,135,153,174,193,213,234,253,273,294,314,334,353,373,393,414,433,454,473,493,513,533,553,573,593,613,633,654,674,694,714,733,753,773,794,813,834,853,873,894,913,934,953,974,993,1013,1033,1053,1073],"xSR":741.5,"ySR":449.15000000000003,"xT1":424.9,"yT1":0,"xT2":1058.1,"yT2":0,"toosoon":0,"cond_shown":"equaldotanddens","ratio_trial":500,"smaller_num":"2","larger_num":"4","correct_side":1,"subjID":"valentinaalvarezperez4","gender":"1","age":"12","school":"6"},{"start_time":1551791030880,"click_time":1551791032367,"finger_time":1551791031747,"fix_duration":391.058771504471,"trial":28,"RT":867,"MT":620,"sideResp":2,"stimulus":"img/900/equaldotsize/R/14_Ratio_900_L_18_R_20.png","xmouse":[799,799,799,799,799,799,799,799,799,799,799,799,799,799,799,799,799,799,799,799,799,799,799,799,799,799,799,799,799,799,799,799,799,799,799,799,799,804,808,817,822,830,836,846,866,872,887,895,902,913,920,921,927,934,941,953,961,970,977,993,1000,1011,1016,1022,1032,1035,1039,1042,1044,1050,1051,1053,1053,1054,1062],"ymouse":[499,499,499,499,499,499,499,499,499,499,499,499,499,499,499,499,499,499,499,499,499,499,499,499,499,499,499,499,499,499,499,499,499,499,499,499,499,500,498,490,482,470,459,447,420,411,395,382,366,340,320,315,297,284,271,242,224,206,194,160,148,129,117,104,85,76,69,65,63,58,58,57,57,57,56],"timestamp_mouse":[8,27,47,67,88,108,127,147,167,188,207,227,248,268,287,307,328,347,367,388,407,428,448,468,488,508,527,548,567,587,608,627,648,667,687,707,727,747,767,787,808,827,847,867,887,907,927,948,968,987,1008,1028,1047,1068,1087,1107,1127,1147,1167,1187,1208,1227,1248,1267,1288,1307,1327,1348,1368,1387,1407,1427,1447,1467,1487],"xSR":741.5,"ySR":449.15000000000003,"xT1":424.9,"yT1":0,"xT2":1058.1,"yT2":0,"toosoon":0,"cond_shown":"equaldotsize","ratio_trial":900,"smaller_num":"18","larger_num":"20","correct_side":2,"subjID":"valentinaalvarezperez4","gender":"1","age":"12","school":"6"},{"start_time":1551791034476,"click_time":1551791035927,"finger_time":1551791035607,"fix_duration":1227.1365787325324,"trial":29,"RT":1131,"MT":320,"sideResp":2,"stimulus":"img/500/equaldotsize/R/12_Ratio_500_L_1_R_2.png","xmouse":[818,818,818,818,818,818,818,818,818,818,818,818,818,818,818,818,818,818,818,818,818,818,818,818,818,818,818,818,818,818,818,818,818,818,818,818,818,818,816,813,813,813,813,813,813,813,813,813,813,813,813,813,817,823,837,840,843,847,850,861,864,870,877,881,901,909,923,941,958,1004,1032,1050,1073],"ymouse":[520,520,520,520,520,520,520,520,520,520,520,520,520,520,520,520,520,520,520,520,520,520,520,520,520,520,520,520,520,520,520,520,520,520,520,520,520,520,520,521,521,521,521,521,521,521,521,521,521,521,518,515,503,491,470,461,448,437,425,403,394,384,369,361,338,326,306,282,263,197,147,124,89],"timestamp_mouse":[11,32,51,71,91,111,131,152,171,192,211,231,252,271,292,312,331,351,371,391,411,431,452,472,491,512,532,552,571,592,611,631,652,671,691,712,731,751,772,792,811,831,851,872,892,911,931,951,971,992,1012,1032,1051,1072,1091,1111,1131,1151,1171,1191,1212,1232,1253,1271,1291,1311,1332,1351,1373,1391,1412,1431,1451],"xSR":741.5,"ySR":449.15000000000003,"xT1":424.9,"yT1":0,"xT2":1058.1,"yT2":0,"toosoon":0,"cond_shown":"equaldotsize","ratio_trial":500,"smaller_num":"1","larger_num":"2","correct_side":2,"subjID":"valentinaalvarezperez4","gender":"1","age":"12","school":"6"},{"start_time":1551791038603,"click_time":1551791039766,"finger_time":1551791039386,"fix_duration":953.3447372304411,"trial":30,"RT":783,"MT":380,"sideResp":1,"stimulus":"img/500/equaldotanddens/L/8_Ratio_500_L_8_R_4.png","xmouse":[752,752,752,752,752,752,752,752,752,752,752,752,752,754,756,757,757,757,757,757,757,757,757,757,757,757,757,757,757,757,757,757,757,757,757,757,757,756,746,733,723,713,700,678,666,659,644,637,626,622,618,609,594,574,560,546,540,527,495],"ymouse":[480,480,480,480,480,480,480,480,480,480,480,480,480,479,477,476,476,476,476,476,476,476,476,476,476,477,477,477,477,477,477,477,477,477,477,477,478,478,470,462,450,439,430,410,400,394,375,364,335,315,285,259,222,181,152,123,112,86,42],"timestamp_mouse":[11,35,44,65,84,104,123,143,163,184,205,224,243,264,285,305,325,345,364,384,403,425,444,465,484,504,523,545,564,585,605,624,644,664,684,704,724,743,764,783,805,824,845,864,884,904,924,945,964,984,1005,1025,1044,1064,1084,1104,1124,1145,1163],"xSR":741.5,"ySR":449.15000000000003,"xT1":424.9,"yT1":0,"xT2":1058.1,"yT2":0,"toosoon":0,"cond_shown":"equaldotanddens","ratio_trial":500,"smaller_num":"4","larger_num":"8","correct_side":1,"subjID":"valentinaalvarezperez4","gender":"1","age":"12","school":"6"},{"start_time":1551791041396,"click_time":1551791042467,"finger_time":1551791042186,"fix_duration":727.4583689792131,"trial":31,"RT":790,"MT":281,"sideResp":2,"stimulus":"img/250/randomdotsizeEA/R/9_Ratio_250_L_3_R_12.png","xmouse":[814,814,815,821,821,821,821,821,821,821,821,821,821,821,821,821,821,821,821,821,821,821,821,821,820,820,819,819,819,819,818,818,817,817,817,817,817,817,822,841,866,890,907,929,939,953,983,1003,1033,1045,1055,1062,1065,1066],"ymouse":[492,492,491,482,480,480,480,480,480,480,480,480,480,480,480,480,480,480,480,480,480,480,481,482,485,486,487,488,490,490,490,490,492,492,492,492,492,492,480,430,392,345,311,275,262,247,223,207,175,157,138,120,105,94],"timestamp_mouse":[11,35,50,70,92,111,130,151,172,191,211,230,252,271,292,311,330,350,372,391,411,430,451,471,490,511,532,551,570,591,611,632,651,670,691,712,731,752,770,790,810,831,852,870,891,911,930,951,971,991,1012,1031,1051,1071],"xSR":741.5,"ySR":449.15000000000003,"xT1":424.9,"yT1":0,"xT2":1058.1,"yT2":0,"toosoon":0,"cond_shown":"randomdotsizeEA","ratio_trial":250,"smaller_num":"3","larger_num":"12","correct_side":2,"subjID":"valentinaalvarezperez4","gender":"1","age":"12","school":"6"},{"start_time":1551791043677,"click_time":1551791044747,"finger_time":1551791044467,"fix_duration":509.2716574255741,"trial":32,"RT":790,"MT":280,"sideResp":2,"stimulus":"img/250/equaldotanddens/R/6_Ratio_250_L_6_R_24.png","xmouse":[777,777,777,777,777,777,777,777,777,777,777,777,777,777,777,777,777,777,777,777,777,777,777,777,777,777,777,777,777,777,777,777,778,779,781,783,785,787,792,812,825,838,857,864,886,895,916,933,953,986,1006,1026,1046,1059],"ymouse":[502,502,502,502,502,502,502,502,502,502,502,502,502,502,502,502,502,502,502,502,502,502,502,502,502,502,502,502,502,502,502,502,501,500,496,493,490,485,477,445,427,411,385,375,340,320,291,257,232,180,154,130,110,99],"timestamp_mouse":[10,39,50,70,90,110,130,150,169,191,209,229,251,271,291,310,330,350,369,389,410,431,450,470,490,510,531,550,570,591,611,629,650,670,690,710,730,749,769,790,810,831,850,870,890,910,930,951,970,990,1010,1030,1049,1070],"xSR":741.5,"ySR":449.15000000000003,"xT1":424.9,"yT1":0,"xT2":1058.1,"yT2":0,"toosoon":0,"cond_shown":"equaldotanddens","ratio_trial":250,"smaller_num":"6","larger_num":"24","correct_side":2,"subjID":"valentinaalvarezperez4","gender":"1","age":"12","school":"6"},{"start_time":1551791046826,"click_time":1551791048106,"finger_time":1551791047607,"fix_duration":1136.9619207319522,"trial":33,"RT":781,"MT":499,"sideResp":2,"stimulus":"img/500/equaldotsize/R/15_Ratio_500_L_1_R_2.png","xmouse":[812,812,812,812,812,812,812,812,812,812,812,812,812,812,812,812,812,812,812,812,812,812,812,812,812,812,812,812,812,812,812,811,811,811,813,814,815,820,822,828,836,847,878,898,912,924,937,959,969,979,986,988,993,995,998,999,1003,1012,1017,1022,1029,1034,1044,1055,1076],"ymouse":[482,482,482,482,482,482,482,482,482,482,482,482,482,482,482,482,482,482,482,482,482,482,482,482,482,482,482,482,482,482,482,482,481,479,475,473,470,460,454,441,428,410,367,336,315,293,270,225,204,183,168,151,122,114,105,101,96,86,82,78,74,72,68,64,58],"timestamp_mouse":[3,22,42,61,82,102,121,140,160,180,200,220,241,260,280,301,320,341,360,381,400,420,441,461,481,502,521,542,561,582,601,620,642,661,680,701,721,741,760,781,801,822,840,860,880,901,920,940,961,981,1001,1022,1040,1061,1080,1100,1122,1140,1160,1180,1201,1221,1240,1261,1280],"xSR":741.5,"ySR":449.15000000000003,"xT1":424.9,"yT1":0,"xT2":1058.1,"yT2":0,"toosoon":0,"cond_shown":"equaldotsize","ratio_trial":500,"smaller_num":"1","larger_num":"2","correct_side":2,"subjID":"valentinaalvarezperez4","gender":"1","age":"12","school":"6"},{"start_time":1551791050620,"click_time":1551791052166,"finger_time":1551791051786,"fix_duration":272.213499657808,"trial":34,"RT":1166,"MT":380,"sideResp":1,"stimulus":"img/250/equaldotanddens/L/1_Ratio_250_L_8_R_2.png","xmouse":[785,785,785,785,785,785,785,785,785,785,785,785,785,785,785,785,785,785,785,785,785,785,785,785,785,785,785,785,785,785,785,785,785,785,785,785,785,785,785,785,785,785,784,784,783,783,783,783,783,783,783,783,783,783,783,783,782,753,717,684,650,622,569,553,526,501,491,490,489,489,486,485,485,485,485,485,491,493],"ymouse":[515,515,515,515,515,515,515,515,515,515,515,515,515,515,515,515,515,515,515,515,515,515,515,515,515,515,515,515,515,515,515,515,515,515,515,515,515,515,515,515,513,510,498,492,490,489,489,489,489,489,489,489,489,489,489,489,485,462,438,415,397,383,346,332,305,277,267,261,253,243,235,226,191,154,131,114,101,94],"timestamp_mouse":[7,27,47,68,86,106,126,146,168,188,206,226,247,267,287,307,328,347,367,387,408,428,447,466,486,506,527,546,567,588,608,626,648,668,686,706,726,747,767,788,807,828,847,866,887,907,926,947,966,986,1006,1028,1047,1067,1086,1106,1126,1147,1166,1188,1208,1227,1247,1267,1286,1307,1327,1346,1366,1387,1408,1428,1447,1467,1486,1507,1527,1546],"xSR":741.5,"ySR":449.15000000000003,"xT1":424.9,"yT1":0,"xT2":1058.1,"yT2":0,"toosoon":0,"cond_shown":"equaldotanddens","ratio_trial":250,"smaller_num":"2","larger_num":"8","correct_side":1,"subjID":"valentinaalvarezperez4","gender":"1","age":"12","school":"6"},{"start_time":1551791052958,"click_time":1551791054467,"finger_time":1551791054147,"fix_duration":250,"trial":35,"RT":1189,"MT":320,"sideResp":2,"stimulus":"img/750/equaldotsize/R/15_Ratio_750_L_9_R_12.png","xmouse":[768,768,768,768,769,773,774,775,776,777,779,781,783,784,784,784,784,784,784,784,784,784,784,784,784,784,785,789,794,800,809,810,810,810,810,810,811,811,811,811,811,811,810,807,806,802,802,802,802,802,802,802,802,802,802,802,803,809,821,834,872,896,926,950,967,981,994,1001,1004,1009,1016,1023,1029,1039,1048,1062],"ymouse":[517,530,530,530,531,531,531,530,530,529,529,528,527,526,526,526,526,526,526,526,526,526,526,526,526,526,523,521,519,516,513,513,513,513,513,513,513,513,513,513,513,513,513,512,512,511,511,511,511,511,511,511,511,511,511,511,507,496,467,445,383,341,304,261,223,197,159,137,131,123,115,111,105,97,89,80],"timestamp_mouse":[8,29,48,68,89,108,128,148,169,188,208,228,248,269,288,308,328,350,369,389,409,428,448,469,489,509,530,548,570,589,609,629,648,669,689,709,730,749,769,789,810,828,848,868,888,909,928,950,968,988,1008,1028,1048,1070,1089,1108,1129,1149,1168,1189,1209,1228,1248,1270,1289,1308,1328,1348,1368,1388,1408,1428,1449,1468,1489,1509],"xSR":741.5,"ySR":449.15000000000003,"xT1":424.9,"yT1":0,"xT2":1058.1,"yT2":0,"toosoon":0,"cond_shown":"equaldotsize","ratio_trial":750,"smaller_num":"9","larger_num":"12","correct_side":2,"subjID":"valentinaalvarezperez4","gender":"1","age":"12","school":"6"},{"start_time":1551791055458,"click_time":1551791056566,"finger_time":1551791056167,"fix_duration":250,"trial":36,"RT":709,"MT":399,"sideResp":2,"stimulus":"img/250/randomdotsizeEA/R/4_Ratio_250_L_3_R_12.png","xmouse":[791,791,791,791,791,791,791,791,791,791,791,791,791,791,791,791,791,791,791,791,791,791,791,791,791,791,791,791,791,791,791,791,791,798,811,871,917,956,990,1004,1015,1016,1016,1016,1015,1013,1013,1013,1015,1017,1021,1033,1043,1048,1053,1059],"ymouse":[492,492,492,492,492,492,492,492,492,492,492,492,492,492,492,492,492,492,492,492,492,492,492,492,492,492,492,492,492,492,492,492,492,485,473,406,354,295,238,215,177,160,154,148,142,131,129,125,121,117,113,102,95,85,79,70],"timestamp_mouse":[13,30,49,69,89,109,129,149,168,189,210,228,249,270,289,310,328,349,369,389,408,428,448,469,488,509,529,549,569,589,610,629,649,670,689,709,729,749,769,790,808,830,848,868,888,908,929,949,969,989,1009,1029,1048,1069,1089,1108],"xSR":741.5,"ySR":449.15000000000003,"xT1":424.9,"yT1":0,"xT2":1058.1,"yT2":0,"toosoon":0,"cond_shown":"randomdotsizeEA","ratio_trial":250,"smaller_num":"3","larger_num":"12","correct_side":2,"subjID":"valentinaalvarezperez4","gender":"1","age":"12","school":"6"},{"start_time":1551791058780,"click_time":1551791059927,"finger_time":1551791059506,"fix_duration":1451.7193278981379,"trial":37,"RT":726,"MT":421,"sideResp":2,"stimulus":"img/900/randomdotsizeEA/R/7_Ratio_900_L_9_R_10.png","xmouse":[799,799,798,798,798,798,798,798,798,798,798,798,798,798,798,798,798,798,798,799,799,799,799,799,799,799,799,800,801,804,805,805,806,806,807,811,819,828,843,886,901,925,945,969,996,1012,1018,1022,1024,1031,1035,1038,1043,1049,1054,1054,1057,1059],"ymouse":[493,493,492,492,492,492,492,492,492,492,492,492,492,492,492,492,491,489,488,485,484,484,484,484,484,483,482,480,478,472,470,468,467,466,464,461,448,433,411,357,330,290,246,206,156,136,125,112,106,93,87,84,80,75,69,69,67,65],"timestamp_mouse":[9,34,47,68,88,108,127,147,167,187,207,226,246,266,286,306,326,348,366,387,408,427,447,467,488,508,526,547,566,587,607,626,646,667,686,708,726,747,766,786,807,827,847,866,887,906,926,947,967,987,1007,1027,1046,1067,1086,1106,1126,1147],"xSR":741.5,"ySR":449.15000000000003,"xT1":424.9,"yT1":0,"xT2":1058.1,"yT2":0,"toosoon":0,"cond_shown":"randomdotsizeEA","ratio_trial":900,"smaller_num":"9","larger_num":"10","correct_side":2,"subjID":"valentinaalvarezperez4","gender":"1","age":"12","school":"6"},{"start_time":1551791061738,"click_time":1551791062887,"finger_time":1551791062506,"fix_duration":970.7898569161218,"trial":38,"RT":768,"MT":381,"sideResp":2,"stimulus":"img/900/equaldotanddens/R/14_Ratio_900_L_18_R_20.png","xmouse":[790,790,790,790,790,790,790,790,790,790,790,790,790,790,790,790,790,790,790,790,790,790,790,790,790,790,790,790,790,790,790,790,790,790,790,792,807,823,847,861,873,884,907,917,924,930,945,952,958,966,973,990,1002,1028,1065,1112,1149,1151],"ymouse":[496,496,496,496,496,496,496,496,496,496,496,496,496,496,496,496,496,496,496,496,496,496,496,496,496,496,496,496,496,496,496,496,496,496,496,494,481,467,446,431,415,399,365,343,319,292,252,228,215,203,195,181,171,158,144,129,103,91],"timestamp_mouse":[9,29,50,70,88,109,129,149,169,189,209,230,249,270,289,309,330,349,370,389,408,428,448,470,489,508,529,548,569,590,609,628,650,670,689,710,728,748,768,789,808,828,849,869,890,909,929,949,968,988,1009,1028,1048,1068,1089,1109,1128,1149],"xSR":741.5,"ySR":449.15000000000003,"xT1":424.9,"yT1":0,"xT2":1058.1,"yT2":0,"toosoon":0,"cond_shown":"equaldotanddens","ratio_trial":900,"smaller_num":"18","larger_num":"20","correct_side":2,"subjID":"valentinaalvarezperez4","gender":"1","age":"12","school":"6"},{"start_time":1551791065705,"click_time":1551791066948,"finger_time":1551791066528,"fix_duration":1415.3590750971487,"trial":39,"RT":823,"MT":420,"sideResp":2,"stimulus":"img/500/randomdotsizeEA/R/15_Ratio_500_L_1_R_2.png","xmouse":[804,804,804,804,804,804,804,804,804,804,804,804,804,804,804,804,804,804,804,804,804,804,804,804,804,804,804,804,804,804,804,804,804,804,804,804,804,804,805,811,824,842,868,931,944,947,947,948,958,964,981,995,1009,1030,1033,1035,1039,1043,1051,1055,1057,1058,1063],"ymouse":[508,508,508,508,508,508,508,508,508,508,508,508,508,508,508,508,508,508,508,508,508,508,508,508,508,508,508,508,508,508,508,508,508,508,508,508,508,508,506,490,462,427,392,288,263,243,227,214,193,180,160,145,127,96,87,80,72,64,54,50,48,48,48],"timestamp_mouse":[3,21,42,61,82,103,123,142,162,182,201,222,242,262,282,301,322,343,361,383,403,422,442,463,481,502,521,542,562,583,602,622,643,663,682,702,723,743,761,781,801,823,842,862,881,902,923,942,962,982,1001,1023,1042,1062,1081,1102,1122,1143,1162,1183,1202,1223,1243],"xSR":741.5,"ySR":449.15000000000003,"xT1":424.9,"yT1":0,"xT2":1058.1,"yT2":0,"toosoon":0,"cond_shown":"randomdotsizeEA","ratio_trial":500,"smaller_num":"1","larger_num":"2","correct_side":2,"subjID":"valentinaalvarezperez4","gender":"1","age":"12","school":"6"},{"start_time":1551791068053,"click_time":1551791069167,"finger_time":1551791068828,"fix_duration":265.6544699272607,"trial":40,"RT":775,"MT":339,"sideResp":2,"stimulus":"img/900/equaldotsize/R/15_Ratio_900_L_9_R_10.png","xmouse":[787,787,787,787,787,787,787,787,787,787,787,787,787,787,787,787,787,787,787,787,787,787,787,787,787,787,787,787,787,787,787,787,787,788,791,799,806,822,842,858,935,961,980,991,996,1000,1000,1001,1001,1004,1010,1012,1029,1039,1053,1079],"ymouse":[490,490,490,490,490,490,490,490,490,490,490,490,490,490,490,490,490,490,490,492,493,493,493,493,493,493,493,493,493,493,494,494,494,494,494,488,480,459,418,385,282,251,225,205,194,180,175,170,166,158,144,139,118,105,88,54],"timestamp_mouse":[18,33,53,73,94,113,133,154,174,193,213,234,254,274,293,314,334,354,374,394,415,434,454,474,493,515,534,554,573,593,613,633,653,675,693,714,733,754,775,795,814,834,853,875,894,914,934,954,974,994,1013,1033,1053,1075,1094,1113],"xSR":741.5,"ySR":449.15000000000003,"xT1":424.9,"yT1":0,"xT2":1058.1,"yT2":0,"toosoon":0,"cond_shown":"equaldotsize","ratio_trial":900,"smaller_num":"9","larger_num":"10","correct_side":2,"subjID":"valentinaalvarezperez4","gender":"1","age":"12","school":"6"},{"start_time":1551791070798,"click_time":1551791071807,"finger_time":1551791071408,"fix_duration":1009.4179701623516,"trial":41,"RT":610,"MT":399,"sideResp":2,"stimulus":"img/250/equaldotanddens/R/9_Ratio_250_L_3_R_12.png","xmouse":[778,778,778,778,778,778,778,778,778,778,778,778,778,778,778,778,778,778,778,778,778,778,778,778,780,785,791,794,803,809,816,822,828,851,867,876,886,893,906,918,926,937,953,987,998,1006,1020,1039,1095,1121,1139],"ymouse":[507,507,507,507,507,507,507,507,507,507,507,507,507,507,507,507,507,505,505,505,504,503,502,500,498,490,485,481,462,452,440,432,424,392,373,356,335,325,305,294,285,278,266,235,226,214,197,177,124,100,81],"timestamp_mouse":[12,28,48,69,89,109,129,150,169,190,208,229,250,270,289,310,329,348,368,390,409,429,449,468,489,508,528,550,569,589,610,629,648,668,689,708,729,749,768,788,809,829,849,868,888,908,928,949,970,989,1009],"xSR":741.5,"ySR":449.15000000000003,"xT1":424.9,"yT1":0,"xT2":1058.1,"yT2":0,"toosoon":0,"cond_shown":"equaldotanddens","ratio_trial":250,"smaller_num":"3","larger_num":"12","correct_side":2,"subjID":"valentinaalvarezperez4","gender":"1","age":"12","school":"6"},{"start_time":1551791074317,"click_time":1551791076667,"finger_time":1551791075886,"fix_duration":250,"trial":42,"RT":1569,"MT":781,"sideResp":1,"stimulus":"img/500/equaldotsize/L/11_Ratio_500_L_12_R_6.png","xmouse":[762,762,762,762,762,762,762,762,762,762,762,762,762,762,762,762,762,762,762,762,762,762,762,762,762,762,762,762,762,762,762,762,762,762,762,762,762,762,762,762,762,762,762,762,762,762,762,762,762,762,762,762,762,762,762,762,762,762,762,762,762,762,762,762,762,762,762,762,762,762,762,762,762,762,764,767,767,745,735,719,712,700,678,676,676,676,676,676,673,667,657,648,610,583,541,495,471,436,426,419,417,416,413,410,406,406,406,406,406,406,406,406,406,406,406,406,434,458],"ymouse":[506,506,506,506,506,506,506,506,506,506,506,506,506,506,506,506,506,506,506,506,506,506,506,506,506,506,506,506,506,506,506,506,506,506,506,506,506,506,506,506,506,506,506,506,506,506,506,506,506,506,506,506,506,506,506,506,506,506,506,506,506,506,506,506,506,506,506,506,506,506,506,506,506,506,513,515,517,518,518,517,516,516,516,516,516,516,515,511,506,490,467,445,373,325,275,219,184,147,128,108,100,90,51,28,5,5,5,5,5,5,5,5,5,5,5,5,0,13],"timestamp_mouse":[10,31,51,70,90,110,131,149,170,189,209,230,250,271,290,309,330,351,369,390,410,431,450,470,490,511,530,550,571,590,610,630,650,671,691,710,729,750,770,791,811,830,849,871,890,911,930,950,970,991,1010,1031,1049,1069,1089,1110,1130,1151,1171,1190,1210,1230,1250,1269,1290,1311,1330,1350,1370,1390,1410,1429,1449,1469,1490,1511,1531,1549,1569,1590,1609,1631,1650,1670,1690,1710,1731,1750,1769,1790,1810,1829,1850,1869,1889,1910,1930,1950,1970,1989,2011,2030,2049,2070,2089,2109,2129,2149,2169,2189,2209,2229,2250,2270,2290,2309,2330,2350],"xSR":741.5,"ySR":449.15000000000003,"xT1":424.9,"yT1":0,"xT2":1058.1,"yT2":0,"toosoon":0,"cond_shown":"equaldotsize","ratio_trial":500,"smaller_num":"6","larger_num":"12","correct_side":1,"subjID":"valentinaalvarezperez4","gender":"1","age":"12","school":"6"},{"start_time":1551791079074,"click_time":1551791080427,"finger_time":1551791080168,"fix_duration":1326.508371358231,"trial":43,"RT":1094,"MT":259,"sideResp":2,"stimulus":"img/750/equaldotanddens/R/3_Ratio_750_L_15_R_20.png","xmouse":[793,793,793,793,793,793,793,793,793,793,793,793,793,793,793,793,793,793,793,793,793,793,791,790,787,785,784,784,784,784,784,784,784,784,784,784,784,784,784,784,784,784,784,784,782,780,780,780,779,777,776,776,776,776,786,796,807,824,846,891,904,916,936,955,1008,1036,1053,1062],"ymouse":[490,490,490,490,490,490,490,490,490,490,490,490,490,490,490,490,490,490,490,490,490,490,490,490,490,489,488,488,488,488,488,488,488,488,488,488,488,488,488,488,488,488,488,488,488,488,488,488,488,485,483,480,475,468,448,434,416,396,367,312,291,275,251,220,155,122,103,91],"timestamp_mouse":[12,32,52,72,92,112,132,154,173,194,214,234,253,273,294,314,333,353,373,393,413,433,453,474,492,512,534,553,573,593,613,633,653,673,693,713,733,753,773,793,813,833,853,872,894,914,933,953,973,994,1013,1032,1054,1073,1094,1113,1132,1152,1172,1192,1213,1232,1252,1273,1292,1312,1332,1353],"xSR":741.5,"ySR":449.15000000000003,"xT1":424.9,"yT1":0,"xT2":1058.1,"yT2":0,"toosoon":0,"cond_shown":"equaldotanddens","ratio_trial":750,"smaller_num":"15","larger_num":"20","correct_side":2,"subjID":"valentinaalvarezperez4","gender":"1","age":"12","school":"6"},{"start_time":1551791081850,"click_time":1551791083327,"finger_time":1551791082768,"fix_duration":702.01841008377,"trial":44,"RT":918,"MT":559,"sideResp":1,"stimulus":"img/750/equaldotsize/L/1_Ratio_750_L_20_R_15.png","xmouse":[781,781,781,781,781,781,781,781,781,781,781,781,781,781,781,781,781,781,781,781,781,781,780,780,780,780,780,780,780,780,780,780,780,780,780,780,780,780,780,780,780,780,778,768,754,724,682,634,583,567,529,513,495,488,481,477,476,476,476,478,480,479,473,470,461,445,445,445,445,445,450,452,456,457],"ymouse":[476,476,476,476,476,476,476,476,476,476,476,476,476,476,476,476,476,476,476,476,476,476,476,476,476,476,476,476,476,476,476,476,476,476,476,476,476,476,476,476,476,476,475,470,457,428,397,368,339,326,294,278,257,246,234,216,204,198,191,181,166,165,151,143,133,128,128,128,128,127,116,110,101,99],"timestamp_mouse":[21,36,58,77,98,117,136,156,177,197,216,236,258,277,298,317,337,356,378,397,417,436,457,478,497,516,537,558,577,598,616,636,657,677,697,716,737,756,777,798,817,838,856,878,897,918,937,958,977,998,1017,1037,1057,1078,1097,1117,1137,1157,1177,1198,1217,1236,1257,1276,1297,1317,1337,1356,1376,1397,1416,1436,1456,1477],"xSR":741.5,"ySR":449.15000000000003,"xT1":424.9,"yT1":0,"xT2":1058.1,"yT2":0,"toosoon":0,"cond_shown":"equaldotsize","ratio_trial":750,"smaller_num":"15","larger_num":"20","correct_side":1,"subjID":"valentinaalvarezperez4","gender":"1","age":"12","school":"6"},{"start_time":1551791084977,"click_time":1551791086466,"finger_time":1551791086026,"fix_duration":769.8333422561323,"trial":45,"RT":1049,"MT":440,"sideResp":1,"stimulus":"img/500/equaldotanddens/L/10_Ratio_500_L_4_R_2.png","xmouse":[807,807,807,807,807,807,807,811,813,828,832,832,832,832,832,832,832,832,832,832,832,832,832,832,832,832,832,832,832,832,832,832,832,832,832,832,832,832,832,832,832,832,832,833,833,833,833,832,831,821,811,792,760,713,658,534,502,482,467,459,460,462,462,464,476,479,480,480,480,480,479,474,466,462,457],"ymouse":[477,477,477,477,477,477,477,478,479,486,487,487,487,487,487,487,487,487,487,487,487,487,487,487,487,487,487,487,487,487,487,487,487,487,487,487,487,487,487,487,487,487,487,488,488,488,488,488,485,475,468,456,438,411,385,328,308,295,278,254,242,221,199,180,153,147,145,145,145,138,129,119,108,101,89],"timestamp_mouse":[10,30,49,70,90,111,129,149,171,189,210,230,249,269,289,309,331,350,371,390,409,431,450,470,489,509,529,549,570,589,609,631,650,670,690,710,730,750,770,791,810,831,850,870,890,910,930,950,970,990,1009,1029,1049,1069,1089,1109,1130,1149,1171,1190,1209,1230,1250,1270,1289,1309,1329,1349,1371,1390,1410,1430,1450,1471,1489],"xSR":741.5,"ySR":449.15000000000003,"xT1":424.9,"yT1":0,"xT2":1058.1,"yT2":0,"toosoon":0,"cond_shown":"equaldotanddens","ratio_trial":500,"smaller_num":"2","larger_num":"4","correct_side":1,"subjID":"valentinaalvarezperez4","gender":"1","age":"12","school":"6"},{"start_time":1551791087498,"click_time":1551791088607,"finger_time":1551791088126,"fix_duration":250,"trial":46,"RT":628,"MT":481,"sideResp":1,"stimulus":"img/750/equaldotsize/L/14_Ratio_750_L_8_R_6.png","xmouse":[768,768,768,768,768,768,768,768,768,768,768,768,768,768,768,768,768,768,768,768,768,768,768,768,768,768,768,768,763,749,744,736,723,696,688,674,664,648,605,565,552,543,541,541,536,536,536,536,536,536,536,536,536,536,536,507],"ymouse":[505,505,505,505,505,505,505,505,505,505,505,505,505,505,505,505,505,505,505,505,505,505,505,505,505,505,505,505,502,491,490,484,477,449,437,416,394,361,273,185,137,113,94,71,30,3,3,3,3,3,3,3,3,3,3,7],"timestamp_mouse":[9,29,49,68,90,109,129,150,169,188,209,230,249,270,289,310,330,350,369,389,408,429,449,469,489,510,529,549,569,589,609,628,650,669,689,708,729,749,768,790,808,829,848,868,888,908,929,948,969,989,1008,1029,1049,1069,1089,1109],"xSR":741.5,"ySR":449.15000000000003,"xT1":424.9,"yT1":0,"xT2":1058.1,"yT2":0,"toosoon":0,"cond_shown":"equaldotsize","ratio_trial":750,"smaller_num":"6","larger_num":"8","correct_side":1,"subjID":"valentinaalvarezperez4","gender":"1","age":"12","school":"6"},{"start_time":1551791090034,"click_time":1551791091347,"finger_time":1551791091107,"fix_duration":627.2188208901326,"trial":47,"RT":1073,"MT":240,"sideResp":1,"stimulus":"img/900/equaldotsize/L/8_Ratio_900_L_20_R_18.png","xmouse":[780,780,780,780,780,780,780,780,780,780,780,780,780,780,780,780,780,780,780,780,780,780,780,780,780,780,780,780,780,780,780,780,780,780,780,780,780,780,780,780,780,780,780,782,783,784,784,784,784,784,783,771,757,732,716,697,652,630,610,591,580,537,527,523,523,522],"ymouse":[507,507,507,507,507,507,507,507,507,507,507,507,507,507,507,507,507,507,507,507,507,507,507,506,505,504,503,503,503,503,503,503,503,503,503,503,503,503,502,502,502,502,501,499,497,494,492,490,489,486,484,476,470,460,453,445,423,404,382,348,325,214,172,146,118,91],"timestamp_mouse":[13,33,53,74,92,113,132,152,172,192,213,234,253,274,292,313,333,354,374,392,414,433,452,472,494,513,533,553,572,593,614,632,653,673,693,714,734,752,774,793,813,834,854,872,892,913,932,953,974,993,1012,1032,1052,1073,1093,1113,1133,1152,1173,1193,1213,1233,1253,1273,1292,1313],"xSR":741.5,"ySR":449.15000000000003,"xT1":424.9,"yT1":0,"xT2":1058.1,"yT2":0,"toosoon":0,"cond_shown":"equaldotsize","ratio_trial":900,"smaller_num":"18","larger_num":"20","correct_side":1,"subjID":"valentinaalvarezperez4","gender":"1","age":"12","school":"6"},{"start_time":1551791095019,"click_time":1551791097328,"finger_time":1551791096847,"fix_duration":250,"trial":48,"RT":1828,"MT":481,"sideResp":1,"stimulus":"img/750/randomdotsizeEA/L/6_Ratio_750_L_24_R_18.png","xmouse":[777,777,777,777,777,777,777,777,777,777,777,777,777,777,777,777,777,777,777,777,777,777,777,777,777,777,777,777,777,777,777,777,777,777,777,777,777,777,777,777,777,777,777,777,777,777,777,777,777,777,777,777,777,777,777,777,777,777,777,777,777,777,777,777,777,777,777,777,777,777,777,777,777,777,777,777,777,777,777,777,777,777,777,777,777,777,777,769,762,753,743,739,713,697,685,667,659,638,631,627,616,600,584,579,574,570,567,564,562,553,545,536,520,514,506,500],"ymouse":[505,505,505,505,505,505,505,505,505,505,505,505,505,505,505,505,505,505,505,505,505,505,505,505,505,505,505,505,505,505,505,505,505,505,505,505,505,505,505,505,505,505,505,505,505,505,505,505,505,505,505,505,505,505,505,505,505,505,505,505,505,505,505,505,505,505,505,505,505,505,505,505,505,505,505,505,505,505,505,505,505,505,505,505,505,505,504,494,487,477,468,463,444,431,419,402,394,368,361,352,333,312,283,270,259,247,230,221,218,196,174,157,126,120,107,97],"timestamp_mouse":[8,34,49,67,87,107,127,148,167,187,207,227,249,269,289,308,328,349,368,387,408,429,448,467,488,508,528,548,568,589,608,627,648,668,687,709,729,748,769,789,808,828,848,867,887,908,928,948,968,988,1009,1029,1047,1068,1089,1108,1128,1148,1168,1187,1208,1228,1247,1267,1287,1309,1328,1347,1369,1389,1409,1427,1449,1467,1489,1509,1528,1548,1568,1589,1608,1628,1647,1668,1688,1709,1728,1748,1768,1788,1809,1828,1847,1868,1887,1908,1928,1947,1968,1987,2007,2029,2048,2067,2087,2109,2128,2148,2167,2189,2209,2228,2247,2268,2288,2309],"xSR":741.5,"ySR":449.15000000000003,"xT1":424.9,"yT1":0,"xT2":1058.1,"yT2":0,"toosoon":0,"cond_shown":"randomdotsizeEA","ratio_trial":750,"smaller_num":"18","larger_num":"24","correct_side":1,"subjID":"valentinaalvarezperez4","gender":"1","age":"12","school":"6"},{"start_time":1551791099910,"click_time":1551791101687,"finger_time":1551791100808,"fix_duration":501.7146038305442,"trial":49,"RT":898,"MT":879,"sideResp":1,"stimulus":"img/900/randomdotsizeEA/R/5_Ratio_900_L_9_R_10.png","xmouse":[754,754,754,754,754,754,754,754,754,754,754,754,754,754,754,754,754,754,754,754,754,754,754,754,754,752,752,749,749,749,749,749,748,748,748,748,748,748,748,748,747,746,744,744,741,740,740,737,736,736,736,736,736,736,736,736,736,736,736,736,736,736,736,736,736,736,736,736,736,736,736,736,729,710,653,591,535,493,475,469,464,461,457,457,456,457,459,462,465],"ymouse":[496,496,496,496,496,496,496,496,496,496,496,496,496,496,496,496,496,496,496,496,496,496,496,496,496,494,493,489,489,489,489,489,488,488,488,488,488,488,488,488,487,486,485,485,482,482,482,480,479,479,479,479,479,479,479,479,479,479,479,479,479,479,479,479,479,479,479,479,479,479,479,479,473,454,409,343,283,234,198,177,159,146,133,127,121,115,108,104,97],"timestamp_mouse":[18,39,57,79,99,118,139,157,179,197,218,237,258,278,298,319,339,358,379,399,419,437,459,477,497,517,538,558,579,597,617,637,658,677,697,718,738,758,778,799,818,837,858,877,898,918,937,957,977,998,1017,1037,1057,1079,1098,1118,1137,1158,1178,1198,1218,1238,1259,1278,1298,1317,1337,1359,1377,1398,1417,1437,1458,1477,1497,1518,1538,1558,1577,1597,1617,1637,1657,1677,1699,1718,1738,1757,1777],"xSR":741.5,"ySR":449.15000000000003,"xT1":424.9,"yT1":0,"xT2":1058.1,"yT2":0,"toosoon":0,"cond_shown":"randomdotsizeEA","ratio_trial":900,"smaller_num":"9","larger_num":"10","correct_side":2,"subjID":"valentinaalvarezperez4","gender":"1","age":"12","school":"6"},{"start_time":1551791103088,"click_time":1551791104688,"finger_time":1551791104128,"fix_duration":537.877884319579,"trial":50,"RT":1040,"MT":560,"sideResp":1,"stimulus":"img/750/randomdotsizeEA/R/3_Ratio_750_L_15_R_20.png","xmouse":[761,761,761,761,761,761,761,761,761,761,761,761,761,761,761,761,761,761,761,761,761,761,761,761,761,761,761,761,762,763,764,764,764,764,764,764,764,764,764,764,764,764,764,764,764,764,764,764,764,764,749,745,734,722,711,710,710,710,710,700,693,670,649,641,626,621,621,621,621,619,616,616,612,606,597,571,554,535,514,487,473],"ymouse":[502,502,502,502,502,502,502,502,502,502,502,502,502,502,502,502,502,502,502,502,502,502,502,502,502,502,502,502,501,501,500,500,500,500,500,500,500,500,500,500,500,500,500,500,500,500,500,500,500,498,484,480,473,464,457,456,456,456,455,444,438,411,381,366,310,278,252,233,220,194,186,185,185,183,178,164,155,142,128,101,89],"timestamp_mouse":[0,20,39,59,79,100,119,140,159,179,199,219,239,259,279,299,320,341,360,380,400,421,439,459,479,500,519,539,560,580,599,619,640,660,679,699,719,741,760,779,801,819,839,859,879,899,920,939,959,979,1000,1019,1040,1060,1079,1101,1121,1139,1161,1180,1200,1219,1240,1261,1280,1299,1319,1339,1359,1379,1399,1419,1439,1459,1479,1499,1519,1539,1559,1579,1600],"xSR":741.5,"ySR":449.15000000000003,"xT1":424.9,"yT1":0,"xT2":1058.1,"yT2":0,"toosoon":0,"cond_shown":"randomdotsizeEA","ratio_trial":750,"smaller_num":"15","larger_num":"20","correct_side":2,"subjID":"valentinaalvarezperez4","gender":"1","age":"12","school":"6"},{"start_time":1551791107054,"click_time":1551791108348,"finger_time":1551791107768,"fix_duration":1406.0144808146024,"trial":51,"RT":714,"MT":580,"sideResp":2,"stimulus":"img/900/randomdotsizeEA/R/7_Ratio_900_L_9_R_10.png","xmouse":[768,768,768,768,769,770,770,770,770,770,770,770,770,770,770,770,770,770,770,770,770,771,771,771,771,772,772,775,775,776,776,777,779,786,793,815,845,881,927,989,1074,1095,1113,1114,1114,1115,1115,1115,1115,1115,1115,1113,1109,1107,1107,1107,1107,1107,1107,1107,1106,1106,1105,1105,1105],"ymouse":[494,494,494,494,494,492,492,491,491,491,491,491,491,491,491,491,491,491,491,491,491,490,490,490,490,489,489,489,490,491,491,491,491,485,477,433,377,328,278,225,156,138,124,122,122,121,121,121,121,121,121,118,114,112,112,110,109,109,109,107,106,105,105,103,99],"timestamp_mouse":[17,33,54,73,93,114,134,154,175,195,213,234,253,274,294,314,335,353,374,394,413,435,454,473,493,513,535,554,574,593,614,633,653,674,694,714,734,754,775,795,813,834,853,874,893,913,934,954,974,994,1014,1034,1053,1074,1094,1113,1133,1153,1173,1195,1214,1234,1254,1273,1294],"xSR":741.5,"ySR":449.15000000000003,"xT1":424.9,"yT1":0,"xT2":1058.1,"yT2":0,"toosoon":0,"cond_shown":"randomdotsizeEA","ratio_trial":900,"smaller_num":"9","larger_num":"10","correct_side":2,"subjID":"valentinaalvarezperez4","gender":"1","age":"12","school":"6"},{"start_time":1551791109931,"click_time":1551791111029,"finger_time":1551791110667,"fix_duration":581.2307310139815,"trial":52,"RT":736,"MT":362,"sideResp":1,"stimulus":"img/750/equaldotsize/R/15_Ratio_750_L_9_R_12.png","xmouse":[776,776,776,776,776,772,770,769,769,769,769,769,769,769,769,769,769,769,769,769,769,769,769,769,769,769,769,769,769,769,769,769,769,769,766,764,743,714,695,691,672,628,615,606,600,595,586,582,574,570,564,547,537,528,522],"ymouse":[479,479,479,479,480,481,482,483,483,483,483,483,483,483,483,483,483,483,483,483,483,483,483,483,483,483,483,483,483,483,483,483,483,483,481,476,442,402,377,372,349