[{"start_time":1551887578427,"click_time":1551887580113,"finger_time":1551887580033,"fix_duration":250,"trial":0,"RT":1606,"MT":80,"sideResp":1,"stimulus":"img/250/randomdotsizeEA/R/10_Ratio_250_L_4_R_16.png","xmouse":[803,803,803,803,803,803,803,803,803,803,803,803,803,803,803,803,803,803,803,803,803,803,803,803,803,803,803,803,803,803,803,803,803,803,803,803,803,803,801,793,784,778,775,774,774,774,774,774,774,774,774,774,774,774,774,774,774,774,774,774,774,774,774,774,774,775,776,776,776,776,776,776,776,776,776,776,776,775,769,750,722,683,637,541,460],"ymouse":[563,563,563,563,563,563,563,563,563,563,562,560,558,558,558,558,558,558,558,558,558,558,558,558,558,558,558,558,558,558,558,558,558,558,558,558,558,558,555,546,539,533,530,529,529,529,529,529,529,529,529,529,529,529,529,529,529,529,529,529,529,529,529,528,528,528,528,528,528,528,528,528,528,528,528,528,528,526,515,491,457,413,367,234,85],"timestamp_mouse":[9,42,45,65,85,106,125,146,165,186,205,226,246,265,285,305,326,346,365,385,405,426,445,466,485,505,525,545,567,586,605,626,645,666,685,707,725,746,765,785,805,826,845,866,885,905,926,945,966,986,1007,1026,1046,1065,1086,1106,1125,1146,1167,1185,1205,1226,1246,1265,1286,1306,1325,1347,1366,1386,1406,1427,1445,1466,1485,1506,1525,1546,1565,1585,1606,1626,1645,1665,1686],"xSR":741.5,"ySR":501.8,"xT1":424.9,"yT1":0,"xT2":1058.1,"yT2":0,"toosoon":0,"cond_shown":"randomdotsizeEA","ratio_trial":250,"smaller_num":"4","larger_num":"16","correct_side":2,"subjID":"ValentinaErazoPalacio2","gender":"1","age":"11","school":"sexto","test":{"fix_dur":[250,1500],"timestim":300,"targets_dim":[100,100],"targets_relative_coord":[0.3,0.7],"size_stim":[880,420],"start_dim":[100,100],"size_start":[300,300],"size_fix":60,"samplingrate":20,"img_types":["equaldotsize","equaldotanddens","randomdotsizeEA"],"ratios":[250,500,750,900],"rep_conds":9,"nTrials":120,"trials_to_rest":500,"Trials_order":[26,43,31,60,33,6,87,113,82,93,15,67,88,21,100,114,32,79,54,23,30,110,17,14,68,111,92,0,99,5,103,61,7,69,55,11,52,86,20,58,66,19,75,49,105,77,56,119,46,74,90,64,117,36,81,44,42,18,12,109,1,37,78,118,8,71,72,65,39,85,10,84,45,13,24,83,9,25,95,89,27,57,101,59,28,106,50,63,104,3,94,22,102,98,97,51,108,29,115,53,38,16,4,73,96,41,80,116,62,47,35,2,40,112,34,76,48,70,107,91],"cond_shown":["randomdotsizeEA","equaldotanddens","equaldotanddens","equaldotsize","equaldotsize","equaldotsize","equaldotsize","randomdotsizeEA","equaldotanddens","equaldotsize","equaldotsize","equaldotanddens","equaldotanddens","equaldotsize","equaldotanddens","equaldotsize","randomdotsizeEA","equaldotanddens","equaldotsize","randomdotsizeEA","equaldotsize","randomdotsizeEA","randomdotsizeEA","randomdotsizeEA","randomdotsizeEA","equaldotsize","randomdotsizeEA","equaldotsize","equaldotsize","randomdotsizeEA","equaldotanddens","equaldotanddens","equaldotanddens","equaldotsize","equaldotanddens","randomdotsizeEA","equaldotanddens","randomdotsizeEA","randomdotsizeEA","equaldotanddens","equaldotsize","equaldotanddens","equaldotsize","equaldotanddens","equaldotsize","randomdotsizeEA","randomdotsizeEA","randomdotsizeEA","equaldotanddens","randomdotsizeEA","equaldotsize","equaldotanddens","equaldotsize","equaldotsize","equaldotsize","randomdotsizeEA","equaldotsize","equaldotsize","equaldotsize","equaldotanddens","equaldotanddens","equaldotanddens","equaldotsize","equaldotanddens","randomdotsizeEA","randomdotsizeEA","equaldotsize","randomdotsizeEA","equaldotsize","equaldotanddens","equaldotanddens","equaldotsize","equaldotsize","equaldotanddens","equaldotsize","randomdotsizeEA","equaldotsize","equaldotanddens","randomdotsizeEA","randomdotsizeEA","equaldotsize","equaldotsize","randomdotsizeEA","randomdotsizeEA","equaldotanddens","equaldotanddens","randomdotsizeEA","equaldotsize","randomdotsizeEA","equaldotsize","equaldotanddens","equaldotanddens","equaldotsize","randomdotsizeEA","equaldotanddens","equaldotsize","equaldotsize","randomdotsizeEA","equaldotanddens","randomdotsizeEA","randomdotsizeEA","equaldotanddens","equaldotanddens","equaldotanddens","equaldotsize","randomdotsizeEA","randomdotsizeEA","randomdotsizeEA","randomdotsizeEA","randomdotsizeEA","randomdotsizeEA","randomdotsizeEA","equaldotanddens","equaldotanddens","equaldotanddens","equaldotanddens","equaldotsize","equaldotanddens","randomdotsizeEA","equaldotanddens"],"ratio_trial":[250,750,750,250,900,750,500,500,900,900,500,750,500,900,500,750,750,750,750,900,750,250,500,250,750,500,750,250,500,500,750,250,750,900,750,900,500,250,750,900,750,750,500,250,900,500,750,900,900,250,750,500,900,250,900,750,750,750,250,250,250,250,750,900,750,900,250,500,500,250,900,250,900,250,250,900,900,250,900,500,500,900,500,900,500,900,250,500,750,500,900,900,750,250,250,500,250,500,750,500,250,500,500,250,250,500,750,750,250,900,900,250,500,500,900,500,250,900,900,750],"smaller_num":["4","6","3","5","9","3","9","9","9","18","5","6","9","18","6","6","18","3","9","9","9","3","9","4","3","9","6","4","5","9","6","3","15","18","15","18","1","6","3","18","3","15","5","6","18","4","6","18","9","3","3","2","18","3","9","6","15","3","2","2","3","2","9","18","3","18","2","1","6","6","9","4","18","2","6","18","18","5","18","9","1","18","5","18","6","9","2","3","15","10","18","9","15","3","3","5","6","9","3","1","4","4","4","2","3","5","15","9","3","18","18","3","9","2","18","9","3","9","18","12"],"larger_num":["16","8","4","20","10","4","18","18","10","20","10","8","18","20","12","8","24","4","12","10","12","12","18","16","4","18","8","16","10","18","8","12","20","20","20","20","2","24","4","20","4","20","10","24","20","8","8","20","10","12","4","4","20","12","10","8","20","4","8","8","12","8","12","20","4","20","8","2","12","24","10","16","20","8","24","20","20","20","20","18","2","20","10","20","12","10","8","6","20","20","20","10","20","12","12","10","24","18","4","2","16","8","8","8","12","10","20","12","12","20","20","12","18","4","20","18","12","10","20","16"],"correct_side":[2,2,1,2,2,1,1,2,2,1,1,1,2,2,1,1,1,2,2,2,2,2,2,2,1,2,1,2,2,1,2,1,1,1,1,1,2,1,2,2,1,2,1,1,1,1,1,1,2,1,2,1,1,2,2,1,2,1,1,1,1,1,2,2,2,1,1,2,1,1,2,2,2,1,1,1,2,2,1,1,2,2,1,2,1,1,2,2,2,2,1,2,1,2,2,2,2,2,1,2,1,1,1,1,2,1,2,2,2,2,1,2,1,1,1,1,1,2,2,2],"img_shown":["img/250/randomdotsizeEA/R/10_Ratio_250_L_4_R_16.png","img/750/equaldotanddens/R/2_Ratio_750_L_6_R_8.png","img/750/equaldotanddens/L/9_Ratio_750_L_4_R_3.png","img/250/equaldotsize/R/12_Ratio_250_L_5_R_20.png","img/900/equaldotsize/R/7_Ratio_900_L_9_R_10.png","img/750/equaldotsize/L/9_Ratio_750_L_4_R_3.png","img/500/equaldotsize/L/4_Ratio_500_L_18_R_9.png","img/500/randomdotsizeEA/R/1_Ratio_500_L_9_R_18.png","img/900/equaldotanddens/R/6_Ratio_900_L_9_R_10.png","img/900/equaldotsize/L/4_Ratio_900_L_20_R_18.png","img/500/equaldotsize/L/7_Ratio_500_L_10_R_5.png","img/750/equaldotanddens/L/14_Ratio_750_L_8_R_6.png","img/500/equaldotanddens/R/6_Ratio_500_L_9_R_18.png","img/900/equaldotsize/R/11_Ratio_900_L_18_R_20.png","img/500/equaldotanddens/L/11_Ratio_500_L_12_R_6.png","img/750/equaldotsize/L/13_Ratio_750_L_8_R_6.png","img/750/randomdotsizeEA/L/6_Ratio_750_L_24_R_18.png","img/750/equaldotanddens/R/12_Ratio_750_L_3_R_4.png","img/750/equaldotsize/R/15_Ratio_750_L_9_R_12.png","img/900/randomdotsizeEA/R/7_Ratio_900_L_9_R_10.png","img/750/equaldotsize/R/15_Ratio_750_L_9_R_12.png","img/250/randomdotsizeEA/R/4_Ratio_250_L_3_R_12.png","img/500/randomdotsizeEA/R/6_Ratio_500_L_9_R_18.png","img/250/randomdotsizeEA/R/10_Ratio_250_L_4_R_16.png","img/750/randomdotsizeEA/L/10_Ratio_750_L_4_R_3.png","img/500/equaldotsize/R/1_Ratio_500_L_9_R_18.png","img/750/randomdotsizeEA/L/13_Ratio_750_L_8_R_6.png","img/250/equaldotsize/R/10_Ratio_250_L_4_R_16.png","img/500/equaldotsize/R/14_Ratio_500_L_5_R_10.png","img/500/randomdotsizeEA/L/4_Ratio_500_L_18_R_9.png","img/750/equaldotanddens/R/2_Ratio_750_L_6_R_8.png","img/250/equaldotanddens/L/15_Ratio_250_L_12_R_3.png","img/750/equaldotanddens/L/1_Ratio_750_L_20_R_15.png","img/900/equaldotsize/L/8_Ratio_900_L_20_R_18.png","img/750/equaldotanddens/L/1_Ratio_750_L_20_R_15.png","img/900/randomdotsizeEA/L/10_Ratio_900_L_20_R_18.png","img/500/equaldotanddens/R/15_Ratio_500_L_1_R_2.png","img/250/randomdotsizeEA/L/5_Ratio_250_L_24_R_6.png","img/750/randomdotsizeEA/R/12_Ratio_750_L_3_R_4.png","img/900/equaldotanddens/R/11_Ratio_900_L_18_R_20.png","img/750/equaldotsize/L/9_Ratio_750_L_4_R_3.png","img/750/equaldotanddens/R/3_Ratio_750_L_15_R_20.png","img/500/equaldotsize/L/7_Ratio_500_L_10_R_5.png","img/250/equaldotanddens/L/5_Ratio_250_L_24_R_6.png","img/900/equaldotsize/L/2_Ratio_900_L_20_R_18.png","img/500/randomdotsizeEA/L/8_Ratio_500_L_8_R_4.png","img/750/randomdotsizeEA/L/13_Ratio_750_L_8_R_6.png","img/900/randomdotsizeEA/L/10_Ratio_900_L_20_R_18.png","img/900/equaldotanddens/R/3_Ratio_900_L_9_R_10.png","img/250/randomdotsizeEA/L/14_Ratio_250_L_12_R_3.png","img/750/equaldotsize/R/7_Ratio_750_L_3_R_4.png","img/500/equaldotanddens/L/10_Ratio_500_L_4_R_2.png","img/900/equaldotsize/L/10_Ratio_900_L_20_R_18.png","img/250/equaldotsize/R/4_Ratio_250_L_3_R_12.png","img/900/equaldotsize/R/15_Ratio_900_L_9_R_10.png","img/750/randomdotsizeEA/L/14_Ratio_750_L_8_R_6.png","img/750/equaldotsize/R/4_Ratio_750_L_15_R_20.png","img/750/equaldotsize/L/9_Ratio_750_L_4_R_3.png","img/250/equaldotsize/L/7_Ratio_250_L_8_R_2.png","img/250/equaldotanddens/L/1_Ratio_250_L_8_R_2.png","img/250/equaldotanddens/L/14_Ratio_250_L_12_R_3.png","img/250/equaldotanddens/L/1_Ratio_250_L_8_R_2.png","img/750/equaldotsize/R/15_Ratio_750_L_9_R_12.png","img/900/equaldotanddens/R/14_Ratio_900_L_18_R_20.png","img/750/randomdotsizeEA/R/12_Ratio_750_L_3_R_4.png","img/900/randomdotsizeEA/L/8_Ratio_900_L_20_R_18.png","img/250/equaldotsize/L/3_Ratio_250_L_8_R_2.png","img/500/randomdotsizeEA/R/15_Ratio_500_L_1_R_2.png","img/500/equaldotsize/L/13_Ratio_500_L_12_R_6.png","img/250/equaldotanddens/L/5_Ratio_250_L_24_R_6.png","img/900/equaldotanddens/R/15_Ratio_900_L_9_R_10.png","img/250/equaldotsize/R/10_Ratio_250_L_4_R_16.png","img/900/equaldotsize/R/13_Ratio_900_L_18_R_20.png","img/250/equaldotanddens/L/1_Ratio_250_L_8_R_2.png","img/250/equaldotsize/L/5_Ratio_250_L_24_R_6.png","img/900/randomdotsizeEA/L/8_Ratio_900_L_20_R_18.png","img/900/equaldotsize/R/9_Ratio_900_L_18_R_20.png","img/250/equaldotanddens/R/12_Ratio_250_L_5_R_20.png","img/900/randomdotsizeEA/L/2_Ratio_900_L_20_R_18.png","img/500/randomdotsizeEA/L/4_Ratio_500_L_18_R_9.png","img/500/equaldotsize/R/12_Ratio_500_L_1_R_2.png","img/900/equaldotsize/R/11_Ratio_900_L_18_R_20.png","img/500/randomdotsizeEA/L/7_Ratio_500_L_10_R_5.png","img/900/randomdotsizeEA/R/12_Ratio_900_L_18_R_20.png","img/500/equaldotanddens/L/11_Ratio_500_L_12_R_6.png","img/900/equaldotanddens/L/1_Ratio_900_L_10_R_9.png","img/250/randomdotsizeEA/R/13_Ratio_250_L_2_R_8.png","img/500/equaldotsize/R/2_Ratio_500_L_3_R_6.png","img/750/randomdotsizeEA/R/4_Ratio_750_L_15_R_20.png","img/500/equaldotsize/R/3_Ratio_500_L_10_R_20.png","img/900/equaldotanddens/L/4_Ratio_900_L_20_R_18.png","img/900/equaldotanddens/R/7_Ratio_900_L_9_R_10.png","img/750/equaldotsize/L/1_Ratio_750_L_20_R_15.png","img/250/randomdotsizeEA/R/11_Ratio_250_L_3_R_12.png","img/250/equaldotanddens/R/9_Ratio_250_L_3_R_12.png","img/500/equaldotsize/R/14_Ratio_500_L_5_R_10.png","img/250/equaldotsize/R/6_Ratio_250_L_6_R_24.png","img/500/randomdotsizeEA/R/1_Ratio_500_L_9_R_18.png","img/750/equaldotanddens/L/8_Ratio_750_L_4_R_3.png","img/500/randomdotsizeEA/R/12_Ratio_500_L_1_R_2.png","img/250/randomdotsizeEA/L/2_Ratio_250_L_16_R_4.png","img/500/equaldotanddens/L/8_Ratio_500_L_8_R_4.png","img/500/equaldotanddens/L/8_Ratio_500_L_8_R_4.png","img/250/equaldotanddens/L/1_Ratio_250_L_8_R_2.png","img/250/equaldotsize/R/9_Ratio_250_L_3_R_12.png","img/500/randomdotsizeEA/L/7_Ratio_500_L_10_R_5.png","img/750/randomdotsizeEA/R/4_Ratio_750_L_15_R_20.png","img/750/randomdotsizeEA/R/15_Ratio_750_L_9_R_12.png","img/250/randomdotsizeEA/R/11_Ratio_250_L_3_R_12.png","img/900/randomdotsizeEA/R/13_Ratio_900_L_18_R_20.png","img/900/randomdotsizeEA/L/8_Ratio_900_L_20_R_18.png","img/250/randomdotsizeEA/R/11_Ratio_250_L_3_R_12.png","img/500/equaldotanddens/L/4_Ratio_500_L_18_R_9.png","img/500/equaldotanddens/L/5_Ratio_500_L_4_R_2.png","img/900/equaldotanddens/L/4_Ratio_900_L_20_R_18.png","img/500/equaldotanddens/L/4_Ratio_500_L_18_R_9.png","img/250/equaldotsize/L/15_Ratio_250_L_12_R_3.png","img/900/equaldotanddens/R/7_Ratio_900_L_9_R_10.png","img/900/randomdotsizeEA/R/12_Ratio_900_L_18_R_20.png","img/750/equaldotanddens/R/11_Ratio_750_L_12_R_16.png"],"Rat0":[["12_Ratio_0_L_9_R_0.png","13_Ratio_0_L_6_R_0.png","5_Ratio_0_L_2_R_0.png","6_Ratio_0_L_4_R_0.png","8_Ratio_0_L_6_R_0.png"],["1_Ratio_0_L_0_R_17.png","10_Ratio_0_L_0_R_22.png","11_Ratio_0_L_0_R_1.png","14_Ratio_0_L_0_R_24.png","15_Ratio_0_L_0_R_4.png","2_Ratio_0_L_0_R_5.png","3_Ratio_0_L_0_R_17.png","4_Ratio_0_L_0_R_7.png","7_Ratio_0_L_0_R_19.png","9_Ratio_0_L_0_R_15.png"]],"Rat250":[["1_Ratio_250_L_8_R_2.png","14_Ratio_250_L_12_R_3.png","15_Ratio_250_L_12_R_3.png","2_Ratio_250_L_16_R_4.png","3_Ratio_250_L_8_R_2.png","5_Ratio_250_L_24_R_6.png","7_Ratio_250_L_8_R_2.png"],["10_Ratio_250_L_4_R_16.png","11_Ratio_250_L_3_R_12.png","12_Ratio_250_L_5_R_20.png","13_Ratio_250_L_2_R_8.png","4_Ratio_250_L_3_R_12.png","6_Ratio_250_L_6_R_24.png","8_Ratio_250_L_1_R_4.png","9_Ratio_250_L_3_R_12.png"]],"Rat500":[["10_Ratio_500_L_4_R_2.png","11_Ratio_500_L_12_R_6.png","13_Ratio_500_L_12_R_6.png","4_Ratio_500_L_18_R_9.png","5_Ratio_500_L_4_R_2.png","7_Ratio_500_L_10_R_5.png","8_Ratio_500_L_8_R_4.png"],["1_Ratio_500_L_9_R_18.png","12_Ratio_500_L_1_R_2.png","14_Ratio_500_L_5_R_10.png","15_Ratio_500_L_1_R_2.png","2_Ratio_500_L_3_R_6.png","3_Ratio_500_L_10_R_20.png","6_Ratio_500_L_9_R_18.png","9_Ratio_500_L_2_R_4.png"]],"Rat750":[["1_Ratio_750_L_20_R_15.png","10_Ratio_750_L_4_R_3.png","13_Ratio_750_L_8_R_6.png","14_Ratio_750_L_8_R_6.png","6_Ratio_750_L_24_R_18.png","8_Ratio_750_L_4_R_3.png","9_Ratio_750_L_4_R_3.png"],["11_Ratio_750_L_12_R_16.png","12_Ratio_750_L_3_R_4.png","15_Ratio_750_L_9_R_12.png","2_Ratio_750_L_6_R_8.png","3_Ratio_750_L_15_R_20.png","4_Ratio_750_L_15_R_20.png","5_Ratio_750_L_15_R_20.png","7_Ratio_750_L_3_R_4.png"]],"Rat900":[["1_Ratio_900_L_10_R_9.png","10_Ratio_900_L_20_R_18.png","2_Ratio_900_L_20_R_18.png","4_Ratio_900_L_20_R_18.png","8_Ratio_900_L_20_R_18.png"],["11_Ratio_900_L_18_R_20.png","12_Ratio_900_L_18_R_20.png","13_Ratio_900_L_18_R_20.png","14_Ratio_900_L_18_R_20.png","15_Ratio_900_L_9_R_10.png","3_Ratio_900_L_9_R_10.png","5_Ratio_900_L_9_R_10.png","6_Ratio_900_L_9_R_10.png","7_Ratio_900_L_9_R_10.png","9_Ratio_900_L_18_R_20.png"]],"Rat1000":[["10_Ratio_1000_L_16_R_16.png","11_Ratio_1000_L_6_R_6.png","12_Ratio_1000_L_14_R_14.png","13_Ratio_1000_L_20_R_20.png","15_Ratio_1000_L_15_R_15.png","2_Ratio_1000_L_17_R_17.png","4_Ratio_1000_L_9_R_9.png","5_Ratio_1000_L_6_R_6.png","6_Ratio_1000_L_19_R_19.png","8_Ratio_1000_L_14_R_14.png","9_Ratio_1000_L_25_R_25.png"],["1_Ratio_1000_L_1_R_1.png","14_Ratio_1000_L_17_R_17.png","3_Ratio_1000_L_17_R_17.png","7_Ratio_1000_L_6_R_6.png"]]}},{"start_time":1551887582106,"click_time":1551887583273,"finger_time":1551887582972,"fix_duration":1091.4604970727157,"trial":1,"RT":866,"MT":301,"sideResp":2,"stimulus":"img/750/equaldotanddens/R/2_Ratio_750_L_6_R_8.png","xmouse":[815,815,815,815,815,815,815,815,815,815,815,815,815,815,815,815,815,815,815,815,815,815,815,815,815,815,815,815,815,815,815,815,815,815,815,815,817,818,818,818,818,821,831,869,886,905,926,942,987,1011,1022,1027,1028,1031,1035,1040,1048,1053,1067],"ymouse":[519,519,519,519,519,519,519,519,519,519,519,519,519,519,519,519,519,519,519,519,519,519,519,519,519,519,519,519,519,519,519,519,519,519,519,519,519,519,519,519,519,519,511,474,446,410,367,325,249,208,189,170,162,151,145,136,127,114,93],"timestamp_mouse":[8,34,47,66,88,107,128,147,166,187,207,226,246,266,286,306,327,347,368,387,407,426,446,467,486,507,526,546,567,586,607,627,646,666,687,706,726,746,767,787,806,826,846,866,886,907,927,946,966,986,1006,1027,1047,1066,1086,1107,1127,1147,1167],"xSR":741.5,"ySR":469.95,"xT1":424.9,"yT1":0,"xT2":1058.1,"yT2":0,"toosoon":0,"cond_shown":"equaldotanddens","ratio_trial":750,"smaller_num":"6","larger_num":"8","correct_side":2,"subjID":"ValentinaErazoPalacio2","gender":"1","age":"11","school":"sexto"},{"start_time":1551887585114,"click_time":1551887586773,"finger_time":1551887586633,"fix_duration":821.1842339627505,"trial":2,"RT":1519,"MT":140,"sideResp":1,"stimulus":"img/750/equaldotanddens/L/9_Ratio_750_L_4_R_3.png","xmouse":[814,814,814,814,814,814,814,814,814,814,814,814,814,814,814,814,814,814,814,814,814,814,814,814,814,814,814,814,814,814,814,814,814,814,814,814,814,814,814,814,814,814,814,814,814,814,814,814,814,814,814,814,814,814,814,814,814,814,814,814,814,814,814,814,814,814,814,814,814,814,814,814,814,809,798,773,715,597,538,520,513,508,508],"ymouse":[526,526,526,526,526,526,526,526,526,526,526,526,526,526,526,526,526,526,526,526,526,526,526,526,526,526,526,526,526,526,526,526,526,526,526,526,526,526,526,526,526,526,526,526,526,526,526,526,526,526,526,526,526,526,526,526,526,526,526,526,526,526,526,526,526,526,526,526,526,526,526,526,526,516,497,462,397,277,203,165,126,100,71],"timestamp_mouse":[22,41,58,79,99,118,138,158,179,199,218,239,259,278,298,319,338,359,380,399,420,439,458,478,498,518,538,558,578,598,619,639,658,678,699,718,740,759,778,798,818,840,858,878,899,918,939,958,980,998,1020,1038,1059,1079,1099,1119,1140,1158,1180,1198,1218,1240,1258,1278,1298,1319,1339,1358,1380,1398,1420,1439,1460,1479,1498,1518,1538,1559,1578,1598,1619,1639,1658],"xSR":741.5,"ySR":469.95,"xT1":424.9,"yT1":0,"xT2":1058.1,"yT2":0,"toosoon":0,"cond_shown":"equaldotanddens","ratio_trial":750,"smaller_num":"3","larger_num":"4","correct_side":1,"subjID":"ValentinaErazoPalacio2","gender":"1","age":"11","school":"sexto"},{"start_time":1551887588183,"click_time":1551887589113,"finger_time":1551887588954,"fix_duration":549.847737688462,"trial":3,"RT":771,"MT":159,"sideResp":2,"stimulus":"img/250/equaldotsize/R/12_Ratio_250_L_5_R_20.png","xmouse":[815,815,815,815,815,815,815,815,815,815,815,815,815,815,815,815,815,815,815,815,815,815,815,815,815,815,815,815,815,815,815,815,815,815,815,818,824,837,857,876,932,959,990,1021,1064,1084,1093],"ymouse":[526,526,526,526,526,526,526,526,526,526,526,526,526,526,526,526,526,526,526,526,526,526,526,526,526,526,526,526,526,526,526,526,526,526,526,521,514,504,484,456,378,338,291,243,161,100,65],"timestamp_mouse":[9,37,50,70,91,109,131,149,171,189,209,230,249,269,290,309,329,350,370,390,409,431,449,469,489,509,529,550,569,589,611,629,651,669,689,709,730,749,771,790,810,829,850,869,889,909,930],"xSR":741.5,"ySR":469.95,"xT1":424.9,"yT1":0,"xT2":1058.1,"yT2":0,"toosoon":0,"cond_shown":"equaldotsize","ratio_trial":250,"smaller_num":"5","larger_num":"20","correct_side":2,"subjID":"ValentinaErazoPalacio2","gender":"1","age":"11","school":"sexto"},{"start_time":1551887591396,"click_time":1551887592512,"finger_time":1551887592172,"fix_duration":1041.7596773906384,"trial":4,"RT":776,"MT":340,"sideResp":2,"stimulus":"img/900/equaldotsize/R/7_Ratio_900_L_9_R_10.png","xmouse":[818,818,818,818,818,818,818,818,818,818,818,818,818,818,818,818,818,818,818,818,818,818,818,818,818,818,818,818,818,818,818,818,818,818,818,820,827,839,876,895,915,940,964,995,1001,1008,1013,1016,1023,1027,1033,1038,1047,1062,1069,1083],"ymouse":[500,500,500,500,500,500,500,500,500,500,500,500,500,500,500,500,500,500,500,500,500,500,500,500,500,500,500,500,500,500,500,500,500,500,500,498,491,477,442,418,394,360,326,269,255,231,224,217,206,199,192,181,168,139,120,84],"timestamp_mouse":[17,43,57,77,98,118,138,157,178,196,216,236,256,276,296,317,336,356,376,396,418,437,456,476,496,516,536,556,577,596,616,638,656,678,697,716,737,756,776,797,816,836,856,877,896,916,937,956,976,996,1017,1037,1056,1077,1096,1116],"xSR":741.5,"ySR":469.95,"xT1":424.9,"yT1":0,"xT2":1058.1,"yT2":0,"toosoon":0,"cond_shown":"equaldotsize","ratio_trial":900,"smaller_num":"9","larger_num":"10","correct_side":2,"subjID":"ValentinaErazoPalacio2","gender":"1","age":"11","school":"sexto"},{"start_time":1551887594489,"click_time":1551887596193,"finger_time":1551887595852,"fix_duration":834.4338627919072,"trial":5,"RT":1363,"MT":341,"sideResp":1,"stimulus":"img/750/equaldotsize/L/9_Ratio_750_L_4_R_3.png","xmouse":[813,813,813,813,813,813,813,813,813,813,813,813,813,813,813,813,813,813,813,813,813,813,813,813,813,813,813,813,813,813,813,813,813,813,813,813,813,813,813,813,813,813,813,813,813,813,813,813,813,813,813,813,813,813,813,813,813,813,813,813,813,813,813,813,813,812,810,805,798,762,734,689,658,627,590,571,560,548,541,531,531,531,530,528,526,524],"ymouse":[502,502,502,502,502,502,502,502,502,502,502,502,502,502,502,502,502,502,502,502,502,502,502,502,502,502,502,502,502,502,502,502,502,502,502,502,502,502,502,502,502,502,502,502,502,502,502,502,502,502,502,502,502,502,502,502,502,502,502,502,502,502,502,502,501,493,486,477,466,431,408,361,326,288,235,213,194,181,168,141,125,118,107,100,90,87],"timestamp_mouse":[8,30,44,64,83,103,124,143,164,184,203,223,245,263,284,303,323,343,364,383,405,424,444,464,485,504,523,544,563,583,603,623,643,665,684,703,723,743,763,783,803,825,843,863,883,903,923,944,963,983,1004,1023,1043,1065,1083,1103,1123,1144,1163,1183,1203,1225,1245,1263,1284,1304,1323,1344,1363,1384,1404,1423,1443,1464,1484,1504,1524,1544,1563,1584,1603,1623,1643,1663,1683,1703],"xSR":741.5,"ySR":469.95,"xT1":424.9,"yT1":0,"xT2":1058.1,"yT2":0,"toosoon":0,"cond_shown":"equaldotsize","ratio_trial":750,"smaller_num":"3","larger_num":"4","correct_side":1,"subjID":"ValentinaErazoPalacio2","gender":"1","age":"11","school":"sexto"},{"start_time":1551887597803,"click_time":1551887598953,"finger_time":1551887598632,"fix_duration":788.5173660644948,"trial":6,"RT":829,"MT":321,"sideResp":1,"stimulus":"img/500/equaldotsize/L/4_Ratio_500_L_18_R_9.png","xmouse":[766,766,766,766,766,766,766,766,766,766,766,766,766,766,766,766,766,766,766,766,766,766,766,766,766,766,766,766,766,766,766,766,766,766,766,766,766,766,765,757,743,728,711,671,652,627,613,598,584,579,577,574,571,564,551,536,521,507],"ymouse":[512,512,512,512,512,512,512,512,512,512,512,512,512,512,512,512,512,512,512,512,512,512,512,512,512,512,512,512,512,512,512,512,512,512,512,512,512,512,507,494,475,451,424,369,345,306,279,251,200,176,162,152,145,135,123,113,104,92],"timestamp_mouse":[9,40,50,71,90,111,130,150,169,189,210,229,251,269,290,311,329,349,369,389,410,431,450,469,489,511,530,550,570,589,609,629,650,669,689,709,729,749,771,790,810,829,850,870,889,910,931,949,970,990,1009,1030,1049,1069,1089,1110,1130,1150],"xSR":741.5,"ySR":469.95,"xT1":424.9,"yT1":0,"xT2":1058.1,"yT2":0,"toosoon":0,"cond_shown":"equaldotsize","ratio_trial":500,"smaller_num":"9","larger_num":"18","correct_side":1,"subjID":"ValentinaErazoPalacio2","gender":"1","age":"11","school":"sexto"},{"start_time":1551887603844,"click_time":1551887605813,"finger_time":1551887605393,"fix_duration":1469.3771160512251,"trial":7,"RT":1549,"MT":420,"sideResp":1,"stimulus":"img/500/randomdotsizeEA/R/1_Ratio_500_L_9_R_18.png","xmouse":[794,795,795,795,796,796,796,796,796,796,796,796,796,796,796,796,796,796,796,796,796,796,796,796,796,796,796,796,796,796,796,796,796,796,796,796,796,796,796,796,796,796,796,796,796,796,796,796,796,796,796,796,796,796,796,796,796,796,796,796,796,796,796,796,796,796,796,796,796,796,796,796,796,796,796,791,758,732,708,686,667,637,627,612,601,588,558,544,530,516,497,463,459,458,458,458,458,458,458],"ymouse":[530,529,529,528,528,528,528,527,527,527,527,527,527,527,527,527,527,527,527,527,527,527,527,527,527,527,527,527,527,527,527,527,527,527,527,527,527,527,527,527,527,527,527,527,527,527,527,527,527,527,527,527,527,527,527,527,527,527,527,527,527,527,527,527,527,527,527,527,527,527,527,527,527,527,526,516,479,453,432,406,379,332,313,287,268,248,219,205,189,175,157,127,120,113,110,110,107,103,99],"timestamp_mouse":[8,42,48,68,89,108,128,150,169,188,208,228,250,268,288,308,329,349,368,389,410,429,449,470,488,509,530,548,568,590,608,629,649,668,690,709,728,748,769,789,809,829,848,868,888,908,928,949,968,990,1008,1029,1048,1070,1089,1110,1129,1149,1168,1188,1208,1228,1248,1268,1289,1309,1330,1349,1370,1389,1410,1428,1448,1469,1489,1508,1528,1549,1568,1588,1608,1629,1649,1669,1689,1709,1729,1749,1768,1789,1808,1829,1848,1868,1889,1909,1928,1949,1969],"xSR":741.5,"ySR":469.95,"xT1":424.9,"yT1":0,"xT2":1058.1,"yT2":0,"toosoon":0,"cond_shown":"randomdotsizeEA","ratio_trial":500,"smaller_num":"9","larger_num":"18","correct_side":2,"subjID":"ValentinaErazoPalacio2","gender":"1","age":"11","school":"sexto"},{"start_time":1551887607125,"click_time":1551887608474,"finger_time":1551887607932,"fix_duration":250,"trial":8,"RT":807,"MT":542,"sideResp":2,"stimulus":"img/900/equaldotanddens/R/6_Ratio_900_L_9_R_10.png","xmouse":[794,794,794,794,794,794,794,794,794,794,794,794,794,794,794,794,794,794,794,794,794,794,794,794,794,794,794,794,794,794,794,794,794,794,794,794,794,794,803,822,844,863,901,914,928,943,951,970,974,981,985,988,994,999,1004,1009,1016,1020,1029,1035,1037,1039,1041,1043,1045,1048,1053,1060],"ymouse":[535,535,535,535,535,535,535,535,535,535,535,535,535,535,535,535,535,535,535,535,535,535,535,535,535,535,535,535,535,535,535,535,535,535,535,535,535,535,525,507,485,461,408,384,355,328,305,267,255,238,226,210,164,139,117,95,78,67,54,50,48,48,47,47,47,48,48,49],"timestamp_mouse":[8,38,47,68,87,107,129,147,168,187,208,227,249,268,288,307,328,349,368,389,407,428,447,467,488,507,529,548,568,587,609,627,647,668,689,708,728,747,767,787,807,828,848,867,887,907,929,948,968,987,1007,1029,1048,1067,1087,1108,1129,1148,1167,1187,1208,1228,1248,1267,1287,1308,1328,1348],"xSR":741.5,"ySR":469.95,"xT1":424.9,"yT1":0,"xT2":1058.1,"yT2":0,"toosoon":0,"cond_shown":"equaldotanddens","ratio_trial":900,"smaller_num":"9","larger_num":"10","correct_side":2,"subjID":"ValentinaErazoPalacio2","gender":"1","age":"11","school":"sexto"},{"start_time":1551887610310,"click_time":1551887611333,"finger_time":1551887611154,"fix_duration":536.1833312054556,"trial":9,"RT":844,"MT":179,"sideResp":2,"stimulus":"img/900/equaldotsize/L/4_Ratio_900_L_20_R_18.png","xmouse":[797,797,797,797,797,797,797,797,797,797,797,797,797,797,797,797,797,797,797,797,797,797,797,797,797,797,797,797,797,797,797,797,797,797,797,797,797,797,797,800,819,841,867,935,970,1004,1031,1052,1068,1104,1113,1123],"ymouse":[542,542,542,542,542,542,542,542,542,542,542,542,542,542,542,542,542,542,542,542,542,542,542,542,542,542,542,542,542,542,542,542,542,542,542,542,542,542,542,536,517,495,474,407,365,316,266,221,180,115,100,89],"timestamp_mouse":[8,23,43,63,83,104,123,143,163,182,204,223,243,262,282,302,322,344,363,383,402,424,442,463,482,504,523,542,563,582,602,623,643,662,683,704,722,742,762,782,802,823,844,863,882,902,923,942,962,982,1002,1023],"xSR":741.5,"ySR":469.95,"xT1":424.9,"yT1":0,"xT2":1058.1,"yT2":0,"toosoon":0,"cond_shown":"equaldotsize","ratio_trial":900,"smaller_num":"18","larger_num":"20","correct_side":1,"subjID":"ValentinaErazoPalacio2","gender":"1","age":"11","school":"sexto"},{"start_time":1551887612524,"click_time":1551887613813,"finger_time":1551887613293,"fix_duration":250,"trial":10,"RT":769,"MT":520,"sideResp":1,"stimulus":"img/500/equaldotsize/L/7_Ratio_500_L_10_R_5.png","xmouse":[804,804,804,804,804,804,804,804,804,804,804,804,803,803,803,803,803,803,803,803,803,803,803,803,803,803,803,803,803,803,803,803,803,803,803,803,802,795,772,753,723,699,660,643,626,609,593,580,555,546,539,533,529,527,526,526,525,525,525,525,525,525,525,525,524],"ymouse":[508,508,508,508,508,508,508,508,508,508,508,508,508,508,508,508,508,508,508,508,508,508,508,508,508,508,508,508,508,508,508,508,508,508,508,508,505,485,442,408,357,312,240,216,193,171,150,130,98,80,72,66,63,63,63,63,63,63,63,63,63,63,63,63,63],"timestamp_mouse":[8,34,49,68,89,108,129,149,168,188,209,229,249,268,288,309,330,348,368,389,409,428,448,470,488,509,529,549,569,589,609,630,649,668,689,709,729,748,769,788,809,828,849,868,889,908,930,948,968,988,1010,1029,1049,1069,1088,1109,1128,1149,1168,1188,1208,1229,1250,1268,1289],"xSR":741.5,"ySR":469.95,"xT1":424.9,"yT1":0,"xT2":1058.1,"yT2":0,"toosoon":0,"cond_shown":"equaldotsize","ratio_trial":500,"smaller_num":"5","larger_num":"10","correct_side":1,"subjID":"ValentinaErazoPalacio2","gender":"1","age":"11","school":"sexto"},{"start_time":1551887615913,"click_time":1551887616872,"finger_time":1551887616672,"fix_duration":1019.9414390538146,"trial":11,"RT":759,"MT":200,"sideResp":1,"stimulus":"img/750/equaldotanddens/L/14_Ratio_750_L_8_R_6.png","xmouse":[789,789,789,789,789,789,789,790,790,790,790,790,790,790,790,790,790,790,790,790,790,790,790,790,790,790,790,790,790,790,790,790,790,790,787,782,772,732,711,680,659,640,603,581,562,542,522,490],"ymouse":[544,544,544,544,544,543,543,542,540,540,540,540,540,540,540,540,540,540,540,540,540,540,540,540,540,540,540,540,540,540,540,540,540,537,530,520,504,463,439,395,370,340,273,237,201,163,123,59],"timestamp_mouse":[21,40,60,80,99,119,140,159,180,199,220,240,260,279,299,321,340,359,379,399,420,439,460,479,501,519,540,560,580,600,621,639,660,679,700,720,739,759,779,799,819,839,860,879,899,921,939,959],"xSR":741.5,"ySR":469.95,"xT1":424.9,"yT1":0,"xT2":1058.1,"yT2":0,"toosoon":0,"cond_shown":"equaldotanddens","ratio_trial":750,"smaller_num":"6","larger_num":"8","correct_side":1,"subjID":"ValentinaErazoPalacio2","gender":"1","age":"11","school":"sexto"},{"start_time":1551887618643,"click_time":1551887619692,"finger_time":1551887619313,"fix_duration":829.7483601566331,"trial":12,"RT":670,"MT":379,"sideResp":2,"stimulus":"img/500/equaldotanddens/R/6_Ratio_500_L_9_R_18.png","xmouse":[817,817,817,817,817,817,817,817,817,817,817,817,817,817,817,817,817,817,817,817,817,817,817,817,817,817,817,817,817,817,817,821,834,845,864,886,938,964,985,1005,1018,1032,1038,1043,1047,1047,1049,1053,1057,1059,1063,1066,1071],"ymouse":[525,525,525,525,525,525,525,525,525,525,525,525,525,525,525,525,525,525,525,525,525,525,525,525,525,525,525,525,525,525,525,521,501,484,460,432,372,334,302,278,259,233,219,205,193,180,155,146,139,134,127,111,98],"timestamp_mouse":[9,35,49,69,89,109,129,149,170,189,209,230,249,270,289,310,329,350,370,391,410,430,449,470,491,509,530,550,570,589,610,629,650,670,689,711,729,749,770,791,809,829,849,870,889,910,930,949,969,991,1009,1030,1049],"xSR":741.5,"ySR":469.95,"xT1":424.9,"yT1":0,"xT2":1058.1,"yT2":0,"toosoon":0,"cond_shown":"equaldotanddens","ratio_trial":500,"smaller_num":"9","larger_num":"18","correct_side":2,"subjID":"ValentinaErazoPalacio2","gender":"1","age":"11","school":"sexto"},{"start_time":1551887622021,"click_time":1551887623213,"finger_time":1551887622972,"fix_duration":1125.2789298348723,"trial":13,"RT":951,"MT":241,"sideResp":1,"stimulus":"img/900/equaldotsize/R/11_Ratio_900_L_18_R_20.png","xmouse":[770,770,770,770,770,770,770,770,770,770,770,770,770,770,770,770,770,770,770,770,770,770,770,770,770,770,770,770,770,770,770,770,770,770,770,770,770,770,770,770,770,770,770,770,770,766,755,736,649,598,545,512,489,470,468,468,470,471,476,478],"ymouse":[527,527,527,527,527,527,527,527,527,527,527,527,527,527,527,527,527,527,527,527,527,527,527,527,527,527,527,527,527,527,527,527,527,527,527,527,527,527,527,527,527,527,527,527,527,519,498,476,395,342,291,253,223,169,155,144,132,123,104,97],"timestamp_mouse":[11,36,51,72,93,111,132,151,171,191,212,232,252,273,291,313,331,351,372,391,412,432,451,471,492,511,532,551,573,592,612,631,653,672,691,713,731,752,771,792,813,831,852,872,892,911,932,951,972,992,1012,1033,1051,1072,1091,1111,1133,1151,1172,1191],"xSR":741.5,"ySR":469.95,"xT1":424.9,"yT1":0,"xT2":1058.1,"yT2":0,"toosoon":0,"cond_shown":"equaldotsize","ratio_trial":900,"smaller_num":"18","larger_num":"20","correct_side":2,"subjID":"ValentinaErazoPalacio2","gender":"1","age":"11","school":"sexto"},{"start_time":1551887625551,"click_time":1551887626672,"finger_time":1551887626352,"fix_duration":1437.7753834298871,"trial":14,"RT":801,"MT":320,"sideResp":1,"stimulus":"img/500/equaldotanddens/L/11_Ratio_500_L_12_R_6.png","xmouse":[795,796,796,796,796,796,796,796,796,796,796,796,796,796,796,796,796,796,796,796,796,796,796,796,796,796,796,796,796,796,796,796,796,796,796,796,796,794,777,750,718,655,633,615,602,588,569,557,555,553,553,553,553,550,544,533,506],"ymouse":[522,522,521,520,520,520,520,520,520,520,520,520,520,520,520,520,520,520,520,520,520,520,520,520,520,520,520,520,520,520,520,520,520,520,520,520,520,518,507,490,472,430,412,388,367,343,298,266,252,240,231,211,198,180,154,123,66],"timestamp_mouse":[1,21,41,62,83,102,122,141,162,181,201,221,242,262,281,301,322,343,361,382,401,423,441,461,482,503,522,543,562,582,602,622,641,662,681,702,722,742,762,782,801,821,841,862,881,901,922,941,961,981,1003,1022,1041,1061,1082,1101,1121],"xSR":741.5,"ySR":469.95,"xT1":424.9,"yT1":0,"xT2":1058.1,"yT2":0,"toosoon":0,"cond_shown":"equaldotanddens","ratio_trial":500,"smaller_num":"6","larger_num":"12","correct_side":1,"subjID":"ValentinaErazoPalacio2","gender":"1","age":"11","school":"sexto"},{"start_time":1551887628601,"click_time":1551887629793,"finger_time":1551887629472,"fix_duration":907.5920615800333,"trial":15,"RT":871,"MT":321,"sideResp":1,"stimulus":"img/750/equaldotsize/L/13_Ratio_750_L_8_R_6.png","xmouse":[798,798,798,798,798,798,798,798,798,798,798,798,798,798,798,798,798,798,798,798,798,798,798,798,798,798,798,798,798,798,798,798,798,798,798,798,798,798,798,798,793,789,776,738,704,677,658,639,611,600,588,574,557,537,516,512,511,511,510,503],"ymouse":[531,531,531,531,531,531,531,531,531,531,531,531,531,531,531,531,531,531,531,531,531,531,531,531,531,531,531,531,531,531,531,531,531,531,531,531,531,531,531,531,517,510,489,437,390,357,328,300,253,236,221,203,185,166,137,125,118,113,109,96],"timestamp_mouse":[11,36,53,71,91,112,132,152,171,193,211,231,253,272,292,311,331,352,371,391,411,431,452,471,492,511,532,551,571,592,611,632,652,671,692,712,731,751,772,791,811,832,852,871,891,912,931,952,971,991,1011,1032,1053,1071,1091,1112,1132,1152,1172,1192],"xSR":741.5,"ySR":469.95,"xT1":424.9,"yT1":0,"xT2":1058.1,"yT2":0,"toosoon":0,"cond_shown":"equaldotsize","ratio_trial":750,"smaller_num":"6","larger_num":"8","correct_side":1,"subjID":"ValentinaErazoPalacio2","gender":"1","age":"11","school":"sexto"},{"start_time":1551887633749,"click_time":1551887635253,"finger_time":1551887634832,"fix_duration":815.7752224359256,"trial":16,"RT":1083,"MT":421,"sideResp":1,"stimulus":"img/750/randomdotsizeEA/L/6_Ratio_750_L_24_R_18.png","xmouse":[760,760,760,760,760,760,760,760,760,760,760,760,760,760,760,760,760,760,760,760,760,760,760,760,760,760,760,760,760,760,760,760,760,760,760,760,760,760,760,760,760,760,760,760,760,760,760,760,760,760,760,760,760,754,728,679,539,474,391,366,363,363,363,363,363,363,363,363,363,363,363,363,363,363,443,443],"ymouse":[536,536,536,536,536,536,536,536,536,536,536,536,536,536,536,536,536,536,536,536,536,536,536,536,536,536,536,536,536,536,536,536,536,536,536,536,536,536,536,536,536,536,536,536,536,536,536,536,536,536,536,536,536,524,493,437,281,211,107,47,5,5,5,5,5,5,5,5,5,5,5,5,5,5,0,2],"timestamp_mouse":[9,23,48,63,84,104,123,144,163,184,204,223,244,263,285,303,324,344,365,383,403,424,444,465,483,505,524,545,563,585,604,623,643,663,683,704,723,744,764,783,804,823,845,864,884,903,925,943,964,985,1003,1024,1044,1064,1083,1104,1124,1145,1164,1183,1203,1223,1244,1264,1284,1304,1324,1343,1364,1384,1404,1423,1443,1464,1483,1504],"xSR":741.5,"ySR":469.95,"xT1":424.9,"yT1":0,"xT2":1058.1,"yT2":0,"toosoon":0,"cond_shown":"randomdotsizeEA","ratio_trial":750,"smaller_num":"18","larger_num":"24","correct_side":1,"subjID":"ValentinaErazoPalacio2","gender":"1","age":"11","school":"sexto"},{"start_time":1551887637502,"click_time":1551887638673,"finger_time":1551887638313,"fix_duration":1267.0601541360375,"trial":17,"RT":811,"MT":360,"sideResp":2,"stimulus":"img/750/equaldotanddens/R/12_Ratio_750_L_3_R_4.png","xmouse":[775,775,775,775,775,775,775,775,775,775,775,775,775,775,775,775,775,775,775,775,775,775,775,775,775,775,775,775,775,775,775,775,775,775,775,775,775,781,796,813,849,873,895,924,936,949,961,976,993,999,1009,1017,1028,1055,1065,1081,1083,1090,1096],"ymouse":[502,502,502,502,502,502,502,502,502,502,502,502,502,502,502,502,502,502,502,502,502,502,502,502,502,502,502,502,502,502,502,502,502,502,502,502,502,500,488,474,445,425,397,342,315,294,279,263,242,235,215,198,181,146,133,118,112,101,91],"timestamp_mouse":[10,34,51,71,91,112,131,151,170,192,211,230,251,271,290,311,331,350,370,390,411,430,450,471,490,512,530,551,570,590,612,630,652,670,690,711,731,751,771,791,811,830,851,871,890,910,931,951,970,992,1011,1031,1050,1071,1091,1110,1130,1150,1171],"xSR":741.5,"ySR":469.95,"xT1":424.9,"yT1":0,"xT2":1058.1,"yT2":0,"toosoon":0,"cond_shown":"equaldotanddens","ratio_trial":750,"smaller_num":"3","larger_num":"4","correct_side":2,"subjID":"ValentinaErazoPalacio2","gender":"1","age":"11","school":"sexto"},{"start_time":1551887640967,"click_time":1551887642173,"finger_time":1551887641793,"fix_duration":1292.2029305875799,"trial":18,"RT":826,"MT":380,"sideResp":1,"stimulus":"img/750/equaldotsize/R/15_Ratio_750_L_9_R_12.png","xmouse":[831,830,830,830,830,830,830,830,830,830,830,830,830,830,830,830,830,830,830,830,830,830,830,830,830,830,830,830,830,830,830,830,830,830,830,830,830,829,827,823,811,761,727,687,641,558,495,475,460,449,446,446,446,446,446,446,447,450,451,453,458],"ymouse":[513,513,513,513,513,513,513,513,513,513,513,513,513,513,513,513,513,513,513,513,513,513,513,513,513,513,513,513,513,513,513,513,513,513,513,513,513,511,508,501,491,454,431,402,366,303,253,229,208,190,178,175,170,165,160,148,136,126,115,105,86],"timestamp_mouse":[8,26,54,66,85,106,126,145,166,186,206,226,245,265,286,305,325,345,365,387,406,426,445,465,485,505,525,545,566,586,606,625,645,666,685,705,725,746,765,785,805,826,845,866,886,906,925,946,966,986,1005,1025,1046,1066,1085,1106,1125,1146,1165,1185,1206],"xSR":741.5,"ySR":469.95,"xT1":424.9,"yT1":0,"xT2":1058.1,"yT2":0,"toosoon":0,"cond_shown":"equaldotsize","ratio_trial":750,"smaller_num":"9","larger_num":"12","correct_side":2,"subjID":"ValentinaErazoPalacio2","gender":"1","age":"11","school":"sexto"},{"start_time":1551887644651,"click_time":1551887646273,"finger_time":1551887646113,"fix_duration":1337.12784236792,"trial":19,"RT":1462,"MT":160,"sideResp":2,"stimulus":"img/900/randomdotsizeEA/R/7_Ratio_900_L_9_R_10.png","xmouse":[808,808,808,808,808,808,808,808,808,808,808,808,808,808,808,808,808,808,808,808,808,808,808,808,808,808,808,808,808,808,808,808,808,808,808,808,808,808,808,808,808,808,808,808,808,808,808,808,808,808,808,808,808,808,808,808,808,808,808,808,808,808,807,807,806,806,806,806,806,806,806,813,826,850,878,912,1004,1051,1094,1121,1141,1157],"ymouse":[553,551,551,550,550,550,550,550,550,550,550,550,550,550,550,550,550,550,550,550,550,550,550,550,550,550,550,550,550,550,550,550,550,550,550,550,550,550,549,549,548,548,548,548,548,548,548,548,548,548,548,548,548,548,548,548,548,548,548,548,548,547,546,546,545,545,545,545,545,545,542,527,504,460,423,374,273,224,180,150,124,98],"timestamp_mouse":[2,35,42,61,81,102,121,141,163,181,203,222,241,262,281,301,322,341,361,382,401,421,443,462,481,502,521,541,563,582,601,622,641,661,682,702,721,741,762,781,802,822,843,861,882,901,922,941,961,982,1002,1022,1043,1063,1081,1101,1121,1142,1163,1183,1202,1222,1242,1262,1281,1302,1322,1342,1363,1382,1402,1422,1441,1462,1483,1502,1522,1541,1561,1582,1602,1621],"xSR":741.5,"ySR":469.95,"xT1":424.9,"yT1":0,"xT2":1058.1,"yT2":0,"toosoon":0,"cond_shown":"randomdotsizeEA","ratio_trial":900,"smaller_num":"9","larger_num":"10","correct_side":2,"subjID":"ValentinaErazoPalacio2","gender":"1","age":"11","school":"sexto"},{"start_time":1551887650241,"click_time":1551887651393,"finger_time":1551887651013,"fix_duration":886.0880843783457,"trial":20,"RT":772,"MT":380,"sideResp":1,"stimulus":"img/750/equaldotsize/R/15_Ratio_750_L_9_R_12.png","xmouse":[764,764,764,764,764,764,764,764,764,764,764,764,764,764,764,764,764,764,764,764,764,764,764,764,764,764,764,764,764,764,764,764,764,764,764,764,763,756,744,725,703,678,624,591,572,558,544,540,537,535,533,528,524,523,522,521,516,511],"ymouse":[510,510,510,510,510,510,510,510,510,510,510,510,510,510,510,510,510,510,510,510,510,510,510,510,510,510,510,510,510,510,510,510,510,510,510,510,507,491,468,444,412,370,289,235,208,186,149,139,129,122,116,109,108,107,106,105,100,97],"timestamp_mouse":[12,33,51,72,93,112,131,152,171,192,213,232,253,272,291,311,332,351,373,392,413,431,451,472,492,513,533,551,572,593,611,631,652,672,692,712,731,752,772,792,813,832,851,872,892,911,931,951,972,992,1012,1031,1052,1072,1092,1112,1133,1152],"xSR":741.5,"ySR":469.95,"xT1":424.9,"yT1":0,"xT2":1058.1,"yT2":0,"toosoon":0,"cond_shown":"equaldotsize","ratio_trial":750,"smaller_num":"9","larger_num":"12","correct_side":2,"subjID":"ValentinaErazoPalacio2","gender":"1","age":"11","school":"sexto"},{"start_time":1551887654510,"click_time":1551887656034,"finger_time":1551887655354,"fix_duration":275.7989882710223,"trial":21,"RT":844,"MT":680,"sideResp":2,"stimulus":"img/250/randomdotsizeEA/R/4_Ratio_250_L_3_R_12.png","xmouse":[749,749,749,749,749,749,749,749,749,749,749,749,749,749,749,749,749,749,749,749,749,749,749,749,749,749,749,749,749,749,749,749,749,749,749,749,749,749,751,764,794,825,857,916,938,962,980,998,1020,1025,1027,1035,1040,1049,1052,1053,1054,1055,1057,1061,1065,1070,1075,1084,1088,1094,1096,1098,1098,1098,1099,1099,1099,1100,1100,1100,1100],"ymouse":[539,539,539,539,539,539,539,539,539,539,539,539,539,539,539,539,539,539,539,539,539,539,539,539,539,539,539,539,539,539,539,539,539,539,539,539,539,539,538,535,523,507,491,453,433,413,393,371,317,283,253,224,200,163,153,146,139,138,136,135,130,126,121,114,111,109,107,106,104,103,101,101,100,100,100,100,99],"timestamp_mouse":[9,33,43,63,83,104,122,142,164,182,203,222,242,263,284,303,323,342,364,384,404,423,444,463,483,502,522,543,564,583,602,624,644,662,683,703,722,743,763,783,803,822,844,863,882,903,923,942,962,982,1003,1023,1043,1062,1083,1103,1123,1142,1163,1182,1203,1222,1243,1263,1282,1304,1323,1343,1362,1384,1402,1423,1442,1463,1484,1502,1523],"xSR":741.5,"ySR":469.95,"xT1":424.9,"yT1":0,"xT2":1058.1,"yT2":0,"toosoon":0,"cond_shown":"randomdotsizeEA","ratio_trial":250,"smaller_num":"3","larger_num":"12","correct_side":2,"subjID":"ValentinaErazoPalacio2","gender":"1","age":"11","school":"sexto"},{"start_time":1551887657979,"click_time":1551887659293,"finger_time":1551887658933,"fix_duration":823.2058218448478,"trial":22,"RT":954,"MT":360,"sideResp":2,"stimulus":"img/500/randomdotsizeEA/R/6_Ratio_500_L_9_R_18.png","xmouse":[809,809,809,809,809,809,809,809,809,809,809,809,809,809,809,809,809,809,809,809,809,809,809,809,809,809,809,809,809,809,809,809,809,809,809,809,809,809,809,809,809,809,809,810,817,822,827,832,837,852,864,884,912,940,1032,1052,1086,1105,1116,1124,1125,1127,1129,1131,1134,1134],"ymouse":[530,530,530,530,530,530,530,530,530,530,530,530,530,530,530,530,530,530,530,530,530,530,530,530,530,530,530,530,530,530,530,530,530,530,530,530,530,530,530,530,530,530,529,527,508,493,472,463,455,435,417,395,365,336,240,222,188,166,149,130,123,118,114,110,102,98],"timestamp_mouse":[14,44,53,74,93,113,133,155,174,193,213,234,253,273,294,314,333,355,374,393,413,433,454,473,495,514,535,554,575,594,613,635,654,674,694,713,733,753,773,793,813,833,854,873,893,915,934,954,975,994,1013,1034,1054,1073,1095,1113,1133,1154,1174,1194,1213,1234,1255,1273,1293,1314],"xSR":741.5,"ySR":469.95,"xT1":424.9,"yT1":0,"xT2":1058.1,"yT2":0,"toosoon":0,"cond_shown":"randomdotsizeEA","ratio_trial":500,"smaller_num":"9","larger_num":"18","correct_side":2,"subjID":"ValentinaErazoPalacio2","gender":"1","age":"11","school":"sexto"},{"start_time":1551887661254,"click_time":1551887662412,"finger_time":1551887662032,"fix_duration":1120.7134920423655,"trial":23,"RT":778,"MT":380,"sideResp":2,"stimulus":"img/250/randomdotsizeEA/R/10_Ratio_250_L_4_R_16.png","xmouse":[762,762,764,765,765,766,766,766,766,766,766,766,766,766,766,766,766,766,766,766,766,766,766,766,766,766,766,766,766,766,766,766,766,766,767,780,798,824,846,874,918,935,964,979,992,1012,1016,1021,1025,1026,1034,1042,1046,1054,1058,1070,1081,1091],"ymouse":[544,543,540,539,538,537,537,537,537,537,537,537,537,537,537,537,537,537,537,537,537,537,537,537,537,537,537,537,537,537,537,537,537,537,536,523,505,483,462,436,378,351,315,292,271,237,226,216,207,200,181,165,158,142,135,118,105,90],"timestamp_mouse":[18,39,58,79,98,119,138,158,178,199,218,238,258,280,298,319,338,360,378,400,419,438,459,480,498,518,540,558,580,598,619,638,659,679,699,718,739,760,778,799,819,838,858,878,899,918,938,959,979,998,1019,1038,1060,1079,1099,1119,1138,1158],"xSR":741.5,"ySR":469.95,"xT1":424.9,"yT1":0,"xT2":1058.1,"yT2":0,"toosoon":0,"cond_shown":"randomdotsizeEA","ratio_trial":250,"smaller_num":"4","larger_num":"16","correct_side":2,"subjID":"ValentinaErazoPalacio2","gender":"1","age":"11","school":"sexto"},{"start_time":1551887664420,"click_time":1551887665973,"finger_time":1551887665754,"fix_duration":985.9561814224446,"trial":24,"RT":1334,"MT":219,"sideResp":1,"stimulus":"img/750/randomdotsizeEA/L/10_Ratio_750_L_4_R_3.png","xmouse":[788,790,791,791,791,791,791,791,791,791,791,791,791,791,791,791,791,791,791,791,791,791,791,791,791,791,791,791,791,791,791,791,791,791,791,791,791,791,791,791,791,791,791,791,791,791,791,791,791,791,791,791,791,791,791,791,791,791,791,791,791,791,791,791,783,762,736,666,636,608,589,572,547,537,521,507,499,488],"ymouse":[540,540,540,540,540,540,540,540,540,540,540,540,540,540,540,540,540,540,540,540,540,540,540,540,540,540,540,540,540,540,540,540,540,540,540,540,540,540,540,540,540,540,540,540,540,540,540,540,540,540,540,540,540,540,540,540,540,540,540,540,540,540,540,539,525,504,475,403,366,334,309,281,233,208,174,146,122,87],"timestamp_mouse":[12,37,52,72,92,114,132,152,174,193,213,234,252,273,293,313,332,354,372,393,413,433,454,473,492,512,534,552,572,594,612,633,654,672,694,712,733,754,773,793,814,833,853,874,893,913,933,952,973,994,1012,1033,1053,1072,1092,1113,1133,1153,1174,1192,1212,1233,1253,1272,1293,1312,1334,1353,1372,1392,1413,1433,1453,1473,1493,1513,1532,1552],"xSR":741.5,"ySR":469.95,"xT1":424.9,"yT1":0,"xT2":1058.1,"yT2":0,"toosoon":0,"cond_shown":"randomdotsizeEA","ratio_trial":750,"smaller_num":"3","larger_num":"4","correct_side":1,"subjID":"ValentinaErazoPalacio2","gender":"1","age":"11","school":"sexto"},{"start_time":1551887667904,"click_time":1551887669112,"finger_time":1551887668593,"fix_duration":989.0305547453605,"trial":25,"RT":689,"MT":519,"sideResp":2,"stimulus":"img/500/equaldotsize/R/1_Ratio_500_L_9_R_18.png","xmouse":[763,763,763,763,763,763,763,763,763,763,763,763,763,763,763,763,763,763,763,763,763,763,763,763,763,763,763,763,763,763,763,763,778,817,844,868,888,906,935,961,980,997,1012,1036,1041,1045,1046,1047,1048,1050,1052,1052,1052,1052,1052,1053,1054,1056,1062,1067,1073],"ymouse":[494,494,494,494,494,494,494,494,494,494,494,494,494,494,494,494,494,494,494,494,494,494,494,494,494,494,494,494,494,494,494,494,493,488,471,456,436,418,373,334,306,281,258,219,201,187,177,167,162,154,150,148,147,147,147,146,144,140,125,108,93],"timestamp_mouse":[8,35,48,69,90,108,128,148,168,190,208,228,248,269,288,309,328,350,368,389,408,430,448,470,488,508,529,549,569,590,608,629,649,668,689,708,729,749,769,788,809,830,850,869,888,908,929,949,969,990,1009,1029,1049,1069,1090,1110,1129,1149,1169,1189,1208],"xSR":741.5,"ySR":469.95,"xT1":424.9,"yT1":0,"xT2":1058.1,"yT2":0,"toosoon":0,"cond_shown":"equaldotsize","ratio_trial":500,"smaller_num":"9","larger_num":"18","correct_side":2,"subjID":"ValentinaErazoPalacio2","gender":"1","age":"11","school":"sexto"},{"start_time":1551887671361,"click_time":1551887672173,"finger_time":1551887672012,"fix_duration":1467.3739635936067,"trial":26,"RT":651,"MT":161,"sideResp":1,"stimulus":"img/750/randomdotsizeEA/L/13_Ratio_750_L_8_R_6.png","xmouse":[770,770,770,770,770,770,770,770,770,770,770,770,770,770,770,770,770,770,770,770,770,770,770,770,770,770,770,770,770,770,764,749,727,693,664,617,581,559,543,529,520],"ymouse":[522,522,522,522,522,522,522,522,522,522,522,522,522,522,522,522,522,522,522,522,522,522,522,522,522,522,522,522,522,520,503,484,454,414,377,296,226,178,139,107,63],"timestamp_mouse":[13,35,52,72,92,111,131,151,173,191,213,231,251,271,291,312,333,352,371,391,413,433,452,471,491,511,531,552,571,592,612,632,651,672,693,712,732,752,772,793,812],"xSR":741.5,"ySR":469.95,"xT1":424.9,"yT1":0,"xT2":1058.1,"yT2":0,"toosoon":0,"cond_shown":"randomdotsizeEA","ratio_trial":750,"smaller_num":"6","larger_num":"8","correct_side":1,"subjID":"ValentinaErazoPalacio2","gender":"1","age":"11","school":"sexto"},{"start_time":1551887674556,"click_time":1551887675452,"finger_time":1551887675272,"fix_duration":1303.0719548164132,"trial":27,"RT":716,"MT":180,"sideResp":2,"stimulus":"img/250/equaldotsize/R/10_Ratio_250_L_4_R_16.png","xmouse":[811,811,811,811,811,811,811,811,811,811,811,811,811,811,811,811,811,811,811,811,811,811,811,811,811,811,811,811,811,811,811,811,813,822,837,873,904,925,952,980,1035,1053,1070,1079,1084],"ymouse":[533,533,533,533,533,533,533,533,533,533,533,533,533,533,533,533,533,533,533,533,533,533,533,533,533,533,533,533,533,533,533,533,527,514,495,449,400,352,295,238,151,129,111,102,93],"timestamp_mouse":[24,46,57,78,97,129,136,156,176,198,217,236,256,277,297,317,336,356,376,398,416,438,458,476,498,516,536,556,576,596,616,636,656,678,697,716,736,757,778,796,816,836,857,877,896],"xSR":741.5,"ySR":469.95,"xT1":424.9,"yT1":0,"xT2":1058.1,"yT2":0,"toosoon":0,"cond_shown":"equaldotsize","ratio_trial":250,"smaller_num":"4","larger_num":"16","correct_side":2,"subjID":"ValentinaErazoPalacio2","gender":"1","age":"11","school":"sexto"},{"start_time":1551887677109,"click_time":1551887678132,"finger_time":1551887677913,"fix_duration":553.6266228633212,"trial":28,"RT":804,"MT":219,"sideResp":2,"stimulus":"img/500/equaldotsize/R/14_Ratio_500_L_5_R_10.png","xmouse":[787,787,787,787,787,787,787,787,787,787,787,787,787,787,787,787,787,787,787,787,787,787,787,787,787,787,787,787,787,787,787,787,787,787,787,787,788,792,819,838,882,914,941,989,1006,1018,1030,1042,1060,1066,1068,1072],"ymouse":[501,501,501,501,501,501,501,501,501,501,501,501,501,501,501,501,501,501,501,501,501,501,501,501,501,501,501,501,501,501,501,501,501,501,501,501,501,499,484,473,442,415,387,323,289,262,235,210,165,129,112,98],"timestamp_mouse":[13,24,47,63,83,104,125,143,163,184,203,223,243,263,285,303,323,344,363,384,404,425,443,463,484,503,524,544,563,584,603,625,644,663,685,703,724,744,764,784,804,824,843,863,884,905,924,943,963,983,1004,1023],"xSR":741.5,"ySR":469.95,"xT1":424.9,"yT1":0,"xT2":1058.1,"yT2":0,"toosoon":0,"cond_shown":"equaldotsize","ratio_trial":500,"smaller_num":"5","larger_num":"10","correct_side":2,"subjID":"ValentinaErazoPalacio2","gender":"1","age":"11","school":"sexto"},{"start_time":1551887680243,"click_time":1551887681292,"finger_time":1551887681072,"fix_duration":1129.3715094115637,"trial":29,"RT":829,"MT":220,"sideResp":1,"stimulus":"img/500/randomdotsizeEA/L/4_Ratio_500_L_18_R_9.png","xmouse":[810,810,810,810,810,810,810,810,810,810,810,810,810,810,810,810,810,810,810,810,810,810,810,810,810,810,810,810,810,810,810,810,810,810,810,810,810,810,807,802,788,722,672,595,551,522,503,501,500,500,500,500,500],"ymouse":[513,513,513,513,513,513,513,513,513,513,513,513,513,513,513,513,513,513,513,513,513,513,513,513,513,513,513,513,513,513,513,513,513,513,513,513,513,513,507,502,488,443,406,325,266,219,160,138,124,116,110,104,95],"timestamp_mouse":[9,32,51,69,91,109,131,149,169,191,209,230,250,269,289,311,330,349,370,390,410,431,450,471,489,510,530,550,570,589,611,630,649,671,689,709,730,749,770,791,810,829,850,870,889,911,930,949,969,990,1010,1030,1049],"xSR":741.5,"ySR":469.95,"xT1":424.9,"yT1":0,"xT2":1058.1,"yT2":0,"toosoon":0,"cond_shown":"randomdotsizeEA","ratio_trial":500,"smaller_num":"9","larger_num":"18","correct_side":1,"subjID":"ValentinaErazoPalacio2","gender":"1","age":"11","school":"sexto"},{"start_time":1551887683446,"click_time":1551887684533,"finger_time":1551887684172,"fix_duration":1251.7676879955,"trial":30,"RT":726,"MT":361,"sideResp":2,"stimulus":"img/750/equaldotanddens/R/2_Ratio_750_L_6_R_8.png","xmouse":[779,779,779,779,779,779,779,779,779,779,779,779,779,779,779,779,779,779,779,779,779,779,779,779,779,779,779,779,779,779,779,779,779,781,784,795,834,873,919,967,1014,1080,1101,1105,1105,1105,1105,1105,1105,1105,1106,1108,1108,1108,1108],"ymouse":[539,539,539,539,539,539,539,539,539,539,539,539,539,539,539,539,539,539,539,539,539,539,539,539,539,539,539,539,539,539,539,539,539,535,529,513,459,419,373,321,272,191,158,148,141,139,135,131,127,120,115,108,103,100,98],"timestamp_mouse":[10,42,47,66,87,107,127,146,167,186,206,228,248,267,287,306,327,346,367,387,407,426,447,467,488,508,526,546,566,587,606,628,648,667,687,707,726,746,766,787,806,827,846,866,886,907,927,947,966,987,1007,1027,1046,1066,1087],"xSR":741.5,"ySR":469.95,"xT1":424.9,"yT1":0,"xT2":1058.1,"yT2":0,"toosoon":0,"cond_shown":"equaldotanddens","ratio_trial":750,"smaller_num":"6","larger_num":"8","correct_side":2,"subjID":"ValentinaErazoPalacio2","gender":"1","age":"11","school":"sexto"},{"start_time":1551887686517,"click_time":1551887687392,"finger_time":1551887687173,"fix_duration":1043.874917016963,"trial":31,"RT":656,"MT":219,"sideResp":1,"stimulus":"img/250/equaldotanddens/L/15_Ratio_250_L_12_R_3.png","xmouse":[795,795,795,795,795,795,795,795,795,795,795,795,795,795,795,795,795,795,795,795,795,795,795,795,795,795,795,795,795,791,786,780,744,718,689,664,643,593,563,546,530,517,488,479],"ymouse":[521,521,521,521,521,521,521,521,521,521,521,521,521,521,521,521,521,521,521,521,521,521,521,521,521,521,521,521,521,515,508,498,458,432,404,372,342,255,210,182,161,139,100,87],"timestamp_mouse":[15,40,56,76,95,117,135,157,176,195,217,235,257,275,296,315,335,356,375,397,415,436,455,477,495,516,535,557,575,595,617,636,656,675,696,716,735,756,775,795,816,836,855,875],"xSR":741.5,"ySR":469.95,"xT1":424.9,"yT1":0,"xT2":1058.1,"yT2":0,"toosoon":0,"cond_shown":"equaldotanddens","ratio_trial":250,"smaller_num":"3","larger_num":"12","correct_side":1,"subjID":"ValentinaErazoPalacio2","gender":"1","age":"11","school":"sexto"},{"start_time":1551887689808,"click_time":1551887690692,"finger_time":1551887690472,"fix_duration":1434.82671542844,"trial":32,"RT":664,"MT":220,"sideResp":1,"stimulus":"img/750/equaldotanddens/L/1_Ratio_750_L_20_R_15.png","xmouse":[797,797,796,796,796,796,796,796,796,796,796,796,796,796,796,796,796,796,796,796,796,796,796,796,796,796,796,796,796,796,794,790,780,733,663,616,578,551,521,513,508,506,500,489,480],"ymouse":[531,531,530,530,529,529,529,529,529,529,529,529,529,529,529,529,529,529,529,529,529,529,529,529,529,529,529,529,529,529,526,522,512,470,411,362,315,276,207,180,160,148,134,107,87],"timestamp_mouse":[4,24,48,64,85,106,126,145,166,184,204,225,245,264,284,304,325,346,364,386,404,426,444,466,485,504,526,545,565,584,605,624,645,664,684,704,725,745,764,784,804,826,844,865,884],"xSR":741.5,"ySR":469.95,"xT1":424.9,"yT1":0,"xT2":1058.1,"yT2":0,"toosoon":0,"cond_shown":"equaldotanddens","ratio_trial":750,"smaller_num":"15","larger_num":"20","correct_side":1,"subjID":"ValentinaErazoPalacio2","gender":"1","age":"11","school":"sexto"},{"start_time":1551887693051,"click_time":1551887694713,"finger_time":1551887694212,"fix_duration":1438.6124074885306,"trial":33,"RT":1161,"MT":501,"sideResp":1,"stimulus":"img/900/equaldotsize/L/8_Ratio_900_L_20_R_18.png","xmouse":[789,789,789,789,789,789,789,789,789,789,789,789,789,789,789,789,789,789,789,789,789,789,789,789,789,789,789,789,789,789,789,789,789,789,789,789,789,791,797,804,810,814,815,815,816,816,816,816,816,816,816,816,816,814,810,804,791,758,741,726,708,665,628,605,589,579,574,572,569,557,531,531,531,531,531,531,531,531,531,531,531,531,477,471],"ymouse":[523,523,523,523,523,523,523,523,523,523,523,523,523,523,523,523,523,523,523,523,523,523,523,523,523,523,523,523,523,523,523,523,523,523,523,523,523,523,523,522,520,515,514,513,512,512,512,512,512,512,512,512,512,512,512,512,512,511,503,491,475,401,324,272,228,189,143,121,93,62,2,2,2,2,2,2,2,2,2,2,2,2,0,17],"timestamp_mouse":[9,22,42,61,81,101,121,143,161,181,201,221,241,261,282,302,322,341,363,381,403,422,441,461,482,502,521,543,561,583,601,621,642,661,683,701,722,741,761,782,802,821,843,861,882,901,922,942,961,982,1001,1021,1042,1062,1082,1102,1122,1142,1161,1182,1203,1222,1241,1261,1283,1302,1321,1341,1361,1381,1402,1422,1443,1462,1481,1501,1521,1541,1562,1581,1602,1622,1641,1661],"xSR":741.5,"ySR":469.95,"xT1":424.9,"yT1":0,"xT2":1058.1,"yT2":0,"toosoon":0,"cond_shown":"equaldotsize","ratio_trial":900,"smaller_num":"18","larger_num":"20","correct_side":1,"subjID":"ValentinaErazoPalacio2","gender":"1","age":"11","school":"sexto"},{"start_time":1551887696837,"click_time":1551887697854,"finger_time":1551887697553,"fix_duration":1143.3798835670495,"trial":34,"RT":716,"MT":301,"sideResp":1,"stimulus":"img/750/equaldotanddens/L/1_Ratio_750_L_20_R_15.png","xmouse":[818,818,818,818,818,818,818,818,818,818,818,818,818,818,818,818,818,818,818,818,818,818,818,818,818,818,818,818,818,818,818,818,807,786,756,717,612,554,510,471,445,410,401,398,397,397,397,400,404,412,425],"ymouse":[509,509,509,509,509,509,509,509,509,509,509,509,509,509,509,509,509,509,509,509,509,509,509,509,509,509,509,509,509,509,509,509,506,493,474,454,371,313,267,217,170,109,91,75,71,69,67,63,63,63,63],"timestamp_mouse":[16,36,56,75,95,115,135,155,176,196,217,236,255,277,295,316,336,356,375,397,415,436,455,477,495,516,535,555,576,595,615,636,655,675,697,716,736,755,776,796,815,836,857,876,897,916,935,956,975,997,1017],"xSR":741.5,"ySR":469.95,"xT1":424.9,"yT1":0,"xT2":1058.1,"yT2":0,"toosoon":0,"cond_shown":"equaldotanddens","ratio_trial":750,"smaller_num":"15","larger_num":"20","correct_side":1,"subjID":"ValentinaErazoPalacio2","gender":"1","age":"11","school":"sexto"},{"start_time":1551887698904,"click_time":1551887699894,"finger_time":1551887699673,"fix_duration":310.38665937362885,"trial":35,"RT":769,"MT":221,"sideResp":1,"stimulus":"img/900/randomdotsizeEA/L/10_Ratio_900_L_20_R_18.png","xmouse":[796,796,796,796,796,796,796,796,796,796,796,796,796,796,796,796,796,796,796,796,796,796,796,796,796,796,796,796,796,796,796,796,796,796,794,783,766,743,678,620,567,521,487,450,442,442,442,442,450,457],"ymouse":[551,551,551,551,551,551,551,551,551,551,551,551,551,551,551,551,551,551,551,551,551,551,551,551,551,551,551,551,551,551,551,551,551,551,550,542,529,512,466,413,365,310,261,185,164,153,145,137,118,96],"timestamp_mouse":[8,35,48,68,88,108,128,148,168,188,209,228,248,270,289,309,328,350,370,388,409,429,448,469,488,508,530,548,569,588,609,630,648,670,688,708,729,749,769,788,808,828,849,869,888,909,929,948,969,990],"xSR":741.5,"ySR":469.95,"xT1":424.9,"yT1":0,"xT2":1058.1,"yT2":0,"toosoon":0,"cond_shown":"randomdotsizeEA","ratio_trial":900,"smaller_num":"18","larger_num":"20","correct_side":1,"subjID":"ValentinaErazoPalacio2","gender":"1","age":"11","school":"sexto"},{"start_time":1551887701690,"click_time":1551887703092,"finger_time":1551887702693,"fix_duration":977.9969424939745,"trial":36,"RT":1003,"MT":399,"sideResp":2,"stimulus":"img/500/equaldotanddens/R/15_Ratio_500_L_1_R_2.png","xmouse":[775,775,775,775,775,775,775,775,775,775,775,775,775,775,775,775,775,775,775,775,775,775,775,775,775,775,775,775,775,775,775,775,775,775,775,775,775,775,775,775,775,775,775,775,775,775,781,787,796,836,884,917,944,966,1004,1017,1026,1034,1040,1049,1054,1058,1060,1060,1062,1062,1062,1063,1063,1069,1071],"ymouse":[502,502,502,502,502,502,502,502,502,502,502,502,502,502,502,502,502,502,502,502,502,502,502,502,502,502,502,502,502,502,502,502,502,502,502,502,502,502,502,502,502,502,502,502,502,502,502,502,500,475,447,418,375,337,263,236,217,199,186,163,150,141,137,134,132,131,130,128,125,106,80],"timestamp_mouse":[9,34,42,63,83,102,123,143,163,182,203,223,243,264,283,302,323,342,364,382,403,422,443,462,483,503,522,544,562,582,603,623,643,664,682,702,724,742,764,782,803,824,842,863,883,902,923,944,963,982,1003,1022,1043,1064,1083,1102,1122,1143,1163,1182,1202,1222,1243,1264,1283,1304,1322,1342,1362,1383,1402],"xSR":741.5,"ySR":469.95,"xT1":424.9,"yT1":0,"xT2":1058.1,"yT2":0,"toosoon":0,"cond_shown":"equaldotanddens","ratio_trial":500,"smaller_num":"1","larger_num":"2","correct_side":2,"subjID":"ValentinaErazoPalacio2","gender":"1","age":"11","school":"sexto"},{"start_time":1551887704584,"click_time":1551887705392,"finger_time":1551887705233,"fix_duration":689.5192096060002,"trial":37,"RT":649,"MT":159,"sideResp":1,"stimulus":"img/250/randomdotsizeEA/L/5_Ratio_250_L_24_R_6.png","xmouse":[814,814,814,814,814,814,814,814,814,814,814,814,814,814,814,814,814,814,814,814,814,814,814,814,814,814,814,812,810,785,765,746,726,706,658,628,570,536,504,468,460],"ymouse":[526,526,526,526,526,526,526,526,526,526,526,526,526,526,526,526,526,526,526,526,526,526,526,526,526,526,526,526,525,510,499,485,466,445,380,343,269,227,179,120,93],"timestamp_mouse":[8,40,49,68,89,108,130,149,170,188,209,229,250,269,288,308,330,348,368,390,408,430,448,468,489,508,530,550,569,588,608,628,649,669,688,710,729,749,769,789,808],"xSR":741.5,"ySR":469.95,"xT1":424.9,"yT1":0,"xT2":1058.1,"yT2":0,"toosoon":0,"cond_shown":"randomdotsizeEA","ratio_trial":250,"smaller_num":"6","larger_num":"24","correct_side":1,"subjID":"ValentinaErazoPalacio2","gender":"1","age":"11","school":"sexto"},{"start_time":1551887708653,"click_time":1551887709873,"finger_time":1551887709552,"fix_duration":479.116426325069,"trial":38,"RT":899,"MT":321,"sideResp":1,"stimulus":"img/750/randomdotsizeEA/R/12_Ratio_750_L_3_R_4.png","xmouse":[769,769,769,769,769,769,769,769,769,769,769,769,769,769,769,769,769,769,769,769,769,769,769,769,769,769,769,769,769,769,769,769,769,769,769,769,769,769,769,769,769,769,768,763,756,741,695,665,627,592,560,525,505,500,496,494,494,494,494,494,494,494],"ymouse":[533,533,533,533,533,533,533,533,533,533,533,533,533,533,533,533,533,533,533,533,533,533,533,533,533,533,533,533,533,533,533,533,533,533,533,533,533,533,533,533,533,533,532,522,505,486,422,379,326,273,228,165,134,122,113,106,101,101,101,101,100,97],"timestamp_mouse":[1,36,40,59,81,101,120,141,161,179,200,219,240,261,280,299,320,341,360,381,399,421,439,461,480,500,520,540,559,580,601,619,640,661,679,700,719,740,761,779,801,819,839,860,879,899,920,939,959,979,1001,1019,1039,1060,1081,1100,1119,1140,1160,1180,1199,1220],"xSR":741.5,"ySR":469.95,"xT1":424.9,"yT1":0,"xT2":1058.1,"yT2":0,"toosoon":0,"cond_shown":"randomdotsizeEA","ratio_trial":750,"smaller_num":"3","larger_num":"4","correct_side":2,"subjID":"ValentinaErazoPalacio2","gender":"1","age":"11","school":"sexto"},{"start_time":1551887710866,"click_time":1551887711933,"finger_time":1551887711712,"fix_duration":250,"trial":39,"RT":846,"MT":221,"sideResp":2,"stimulus":"img/900/equaldotanddens/R/11_Ratio_900_L_18_R_20.png","xmouse":[793,793,793,793,793,793,793,793,793,793,793,793,793,793,793,793,793,793,793,793,793,793,793,793,793,793,793,793,793,793,793,793,793,793,793,793,793,795,797,802,818,833,861,886,907,962,981,999,1015,1030,1056,1075,1086,1094],"ymouse":[531,531,531,531,531,531,531,531,531,531,531,531,531,531,531,531,531,531,531,531,531,531,531,531,531,531,531,531,531,531,531,531,531,531,531,531,531,529,528,522,502,482,451,421,387,306,272,238,209,184,143,122,108,97],"timestamp_mouse":[6,38,46,66,88,106,128,146,167,186,206,228,247,266,286,307,327,346,366,388,406,426,448,466,488,508,526,548,567,586,607,628,646,667,687,706,727,747,768,787,806,827,846,866,888,907,926,947,967,988,1007,1026,1046,1067],"xSR":741.5,"ySR":469.95,"xT1":424.9,"yT1":0,"xT2":1058.1,"yT2":0,"toosoon":0,"cond_shown":"equaldotanddens","ratio_trial":900,"smaller_num":"18","larger_num":"20","correct_side":2,"subjID":"ValentinaErazoPalacio2","gender":"1","age":"11","school":"sexto"},{"start_time":1551887712905,"click_time":1551887714212,"finger_time":1551887713793,"fix_duration":250,"trial":40,"RT":888,"MT":419,"sideResp":1,"stimulus":"img/750/equaldotsize/L/9_Ratio_750_L_4_R_3.png","xmouse":[774,774,774,774,774,774,774,774,774,774,774,774,774,774,774,774,774,774,774,774,774,774,774,774,774,774,774,774,774,774,774,774,774,774,774,774,774,774,774,769,766,762,759,746,730,710,689,668,648,602,587,571,553,540,529,527,527,527,527,527,527,527,527,527,527,522],"ymouse":[561,561,561,561,561,561,561,561,561,561,561,561,561,561,561,561,561,561,561,561,561,561,561,561,561,561,561,561,561,561,561,561,561,561,561,561,561,561,561,552,545,538,531,515,495,475,447,416,382,278,237,197,163,132,95,90,88,88,88,88,88,88,88,88,87,82],"timestamp_mouse":[8,35,48,68,87,107,129,147,168,189,207,229,249,267,288,307,329,348,367,388,409,429,448,468,489,507,528,548,567,587,608,629,648,668,687,707,727,749,768,788,808,828,848,867,888,908,927,948,968,988,1008,1027,1047,1068,1087,1108,1128,1148,1168,1188,1208,1227,1247,1268,1288,1307],"xSR":741.5,"ySR":469.95,"xT1":424.9,"yT1":0,"xT2":1058.1,"yT2":0,"toosoon":0,"cond_shown":"equaldotsize","ratio_trial":750,"smaller_num":"3","larger_num":"4","correct_side":1,"subjID":"ValentinaErazoPalacio2","gender":"1","age":"11","school":"sexto"},{"start_time":1551887715474,"click_time":1551887716354,"finger_time":1551887716154,"fix_duration":600.1901203178124,"trial":41,"RT":680,"MT":200,"sideResp":2,"stimulus":"img/750/equaldotanddens/R/3_Ratio_750_L_15_R_20.png","xmouse":[821,821,821,821,821,821,821,821,821,821,821,821,821,821,821,821,821,821,821,821,821,821,821,821,821,821,821,821,821,821,824,830,838,850,880,897,916,937,961,1029,1066,1086,1097,1103],"ymouse":[535,535,535,535,535,535,535,535,535,535,535,535,535,535,535,535,535,535,535,535,535,535,535,535,535,535,535,535,535,535,530,524,514,503,468,444,413,377,329,231,170,140,117,99],"timestamp_mouse":[31,40,60,79,100,118,140,158,180,198,219,238,259,278,300,319,338,359,379,398,420,440,460,478,498,519,538,558,580,599,618,638,659,680,699,718,739,759,778,799,819,838,858,879],"xSR":741.5,"ySR":469.95,"xT1":424.9,"yT1":0,"xT2":1058.1,"yT2":0,"toosoon":0,"cond_shown":"equaldotanddens","ratio_trial":750,"smaller_num":"15","larger_num":"20","correct_side":2,"subjID":"ValentinaErazoPalacio2","gender":"1","age":"11","school":"sexto"},{"start_time":1551887718397,"click_time":1551887719173,"finger_time":1551887718953,"fix_duration":1224.7670228675072,"trial":42,"RT":556,"MT":220,"sideResp":1,"stimulus":"img/500/equaldotsize/L/7_Ratio_500_L_10_R_5.png","xmouse":[812,812,812,812,812,812,812,812,812,812,812,812,812,812,812,812,812,812,812,812,812,812,812,812,812,800,771,719,602,540,482,433,416,409,409,409,415,418,427],"ymouse":[511,511,511,511,511,511,511,511,511,511,511,511,511,511,511,511,511,511,511,511,511,511,511,511,511,504,487,461,372,313,254,198,160,110,86,76,67,61,55],"timestamp_mouse":[16,42,56,75,97,115,137,155,176,195,216,236,255,276,297,316,337,356,376,396,417,436,457,476,496,515,536,556,576,595,616,636,655,676,695,716,737,756,776],"xSR":741.5,"ySR":469.95,"xT1":424.9,"yT1":0,"xT2":1058.1,"yT2":0,"toosoon":0,"cond_shown":"equaldotsize","ratio_trial":500,"smaller_num":"5","larger_num":"10","correct_side":1,"subjID":"ValentinaErazoPalacio2","gender":"1","age":"11","school":"sexto"},{"start_time":1551887721342,"click_time":1551887722153,"finger_time":1551887721872,"fix_duration":1267.7018227041765,"trial":43,"RT":530,"MT":281,"sideResp":1,"stimulus":"img/250/equaldotanddens/L/5_Ratio_250_L_24_R_6.png","xmouse":[797,797,797,797,797,797,797,797,797,797,797,797,797,797,797,797,797,797,797,797,797,797,797,794,790,772,729,700,657,633,613,580,572,566,562,558,549,544,537,526,516],"ymouse":[525,525,525,525,525,525,525,525,525,525,525,525,525,525,525,525,525,525,525,525,525,525,525,523,520,510,473,445,386,341,294,206,180,161,147,135,119,106,91,76,65],"timestamp_mouse":[11,32,51,70,90,110,130,152,171,191,211,230,250,272,290,312,330,352,372,390,412,430,451,471,491,511,530,552,570,591,612,630,650,671,692,711,730,751,770,791,811],"xSR":741.5,"ySR":469.95,"xT1":424.9,"yT1":0,"xT2":1058.1,"yT2":0,"toosoon":0,"cond_shown":"equaldotanddens","ratio_trial":250,"smaller_num":"6","larger_num":"24","correct_side":1,"subjID":"ValentinaErazoPalacio2","gender":"1","age":"11","school":"sexto"},{"start_time":1551887723195,"click_time":1551887724452,"finger_time":1551887724093,"fix_duration":321.6308800405102,"trial":44,"RT":898,"MT":359,"sideResp":2,"stimulus":"img/900/equaldotsize/L/2_Ratio_900_L_20_R_18.png","xmouse":[784,784,784,784,784,784,784,784,784,784,784,784,784,784,784,784,784,784,784,784,784,784,784,784,784,784,784,784,784,784,784,784,784,784,784,784,784,784,784,786,790,797,803,814,821,828,836,853,908,946,984,1017,1042,1064,1069,1073,1074,1074,1074,1074,1074,1074,1075],"ymouse":[486,486,486,486,486,486,486,486,486,486,486,486,486,486,486,486,486,486,486,486,486,486,486,486,486,486,486,486,486,486,486,486,486,486,486,486,486,486,486,486,486,482,479,472,463,455,444,425,367,332,292,250,208,150,136,117,109,107,103,102,102,101,99],"timestamp_mouse":[32,38,57,79,99,118,137,158,179,198,218,237,259,277,299,318,339,357,378,397,419,437,459,477,497,517,537,558,577,597,617,638,658,677,697,717,737,757,778,798,817,838,859,877,898,918,937,958,978,997,1017,1038,1058,1078,1098,1117,1138,1159,1178,1197,1217,1238,1257],"xSR":741.5,"ySR":469.95,"xT1":424.9,"yT1":0,"xT2":1058.1,"yT2":0,"toosoon":0,"cond_shown":"equaldotsize","ratio_trial":900,"smaller_num":"18","larger_num":"20","correct_side":1,"subjID":"ValentinaErazoPalacio2","gender":"1","age":"11","school":"sexto"},{"start_time":1551887726761,"click_time":1551887727852,"finger_time":1551887727432,"fix_duration":1407.722375585377,"trial":45,"RT":671,"MT":420,"sideResp":1,"stimulus":"img/500/randomdotsizeEA/L/8_Ratio_500_L_8_R_4.png","xmouse":[799,799,799,799,799,799,799,799,799,799,799,799,799,799,799,799,799,799,799,799,799,799,799,799,799,799,799,799,799,799,798,783,758,724,685,597,552,535,525,520,516,516,516,516,516,516,514,513,511,507,498,495,493,491,490],"ymouse":[518,518,518,518,518,518,518,518,518,518,518,518,518,518,518,518,518,518,518,518,518,518,518,518,518,518,518,518,518,518,518,509,492,470,446,372,302,262,227,203,176,175,175,175,175,171,167,158,149,139,123,114,106,100,93],"timestamp_mouse":[12,41,52,71,92,112,131,151,173,191,212,231,253,273,291,311,333,352,373,391,413,431,452,471,493,511,533,552,571,593,612,631,652,671,693,711,731,752,773,791,812,832,852,872,891,912,933,951,972,993,1013,1031,1052,1071,1091],"xSR":741.5,"ySR":469.95,"xT1":424.9,"yT1":0,"xT2":1058.1,"yT2":0,"toosoon":0,"cond_shown":"randomdotsizeEA","ratio_trial":500,"smaller_num":"4","larger_num":"8","correct_side":1,"subjID":"ValentinaErazoPalacio2","gender":"1","age":"11","school":"sexto"},{"start_time":1551887729991,"click_time":1551887730753,"finger_time":1551887730572,"fix_duration":1296.7234448881843,"trial":46,"RT":581,"MT":181,"sideResp":1,"stimulus":"img/750/randomdotsizeEA/L/13_Ratio_750_L_8_R_6.png","xmouse":[772,772,772,772,772,772,772,772,772,772,772,772,772,772,772,772,772,772,772,772,772,772,772,772,772,772,772,771,765,728,692,638,585,527,448,436,431,431,431],"ymouse":[510,510,510,510,510,510,510,510,510,510,510,510,510,510,510,510,510,510,510,510,510,510,510,510,510,510,510,508,504,473,439,385,324,259,139,118,107,102,99],"timestamp_mouse":[8,33,42,63,81,103,121,142,161,181,202,221,242,261,282,301,322,342,361,383,402,423,441,463,483,501,522,543,561,581,601,621,641,663,683,703,721,743,762],"xSR":741.5,"ySR":469.95,"xT1":424.9,"yT1":0,"xT2":1058.1,"yT2":0,"toosoon":0,"cond_shown":"randomdotsizeEA","ratio_trial":750,"smaller_num":"6","larger_num":"8","correct_side":1,"subjID":"ValentinaErazoPalacio2","gender":"1","age":"11","school":"sexto"},{"start_time":1551887733976,"click_time":1551887734712,"finger_time":1551887734534,"fix_duration":482.4261750681891,"trial":47,"RT":558,"MT":178,"sideResp":1,"stimulus":"img/900/randomdotsizeEA/L/10_Ratio_900_L_20_R_18.png","xmouse":[789,789,789,789,789,789,789,789,789,789,789,789,789,789,789,789,789,789,789,789,789,789,789,787,768,746,718,671,569,516,487,467,454,448,448,448],"ymouse":[526,526,526,526,526,526,526,526,526,526,526,526,526,526,526,526,526,526,526,526,526,526,526,525,509,489,465,420,303,246,195,160,134,111,103,90],"timestamp_mouse":[37,57,76,98,116,137,156,178,196,218,236,258,278,297,317,336,356,376,398,416,438,457,476,496,516,536,558,577,596,616,637,657,676,696,717,736],"xSR":741.5,"ySR":469.95,"xT1":424.9,"yT1":0,"xT2":1058.1,"yT2":0,"toosoon":0,"cond_shown":"randomdotsizeEA","ratio_trial":900,"smaller_num":"18","larger_num":"20","correct_side":1,"subjID":"ValentinaErazoPalacio2","gender":"1","age":"11","school":"sexto"},{"start_time":1551887736284,"click_time":1551887737373,"finger_time":1551887737052,"fix_duration":710.003448534216,"trial":48,"RT":768,"MT":321,"sideResp":1,"stimulus":"img/900/equaldotanddens/R/3_Ratio_900_L_9_R_10.png","xmouse":[788,788,788,788,788,788,788,788,788,788,788,788,788,788,788,788,788,788,788,788,788,788,788,788,788,788,788,788,788,788,788,788,788,788,788,786,776,758,738,680,636,597,578,566,556,556,555,552,549,538,533,531,528,525,514],"ymouse":[522,522,522,522,522,522,522,522,522,522,522,522,522,522,522,522,522,522,522,522,522,522,522,522,522,522,522,522,522,522,522,522,522,522,522,521,513,499,481,422,372,318,284,259,223,212,198,186,170,138,119,110,103,99,87],"timestamp_mouse":[8,38,48,70,89,109,130,150,168,190,208,230,248,270,288,308,329,348,369,389,409,430,448,470,488,509,530,548,570,588,609,630,650,668,690,708,729,749,768,789,810,828,849,869,889,908,929,949,969,989,1009,1028,1049,1069,1088],"xSR":741.5,"ySR":469.95,"xT1":424.9,"yT1":0,"xT2":1058.1,"yT2":0,"toosoon":0,"cond_shown":"equaldotanddens","ratio_trial":900,"smaller_num":"9","larger_num":"10","correct_side":2,"subjID":"ValentinaErazoPalacio2","gender":"1","age":"11","school":"sexto"},{"start_time":1551887739210,"click_time":1551887740072,"finger_time":1551887739853,"fix_duration":1116.171881343779,"trial":49,"RT":643,"MT":219,"sideResp":1,"stimulus":"img/250/randomdotsizeEA/L/14_Ratio_250_L_12_R_3.png","xmouse":[806,806,806,806,806,806,806,806,806,806,806,806,806,806,806,806,806,806,806,806,806,806,806,806,806,806,806,806,803,793,775,749,723,668,620,596,575,561,548,546,542,537,526,493],"ymouse":[525,525,525,525,525,525,525,525,525,525,525,525,525,525,525,525,525,525,525,525,525,525,525,525,525,525,525,525,523,517,501,476,438,334,253,208,178,158,136,130,126,121,112,85],"timestamp_mouse":[8,33,42,63,82,104,122,143,163,184,204,222,243,264,282,303,323,344,362,384,402,422,443,463,483,502,524,543,563,582,603,624,643,662,683,702,724,743,763,782,802,823,844,862],"xSR":741.5,"ySR":469.95,"xT1":424.9,"yT1":0,"xT2":1058.1,"yT2":0,"toosoon":0,"cond_shown":"randomdotsizeEA","ratio_trial":250,"smaller_num":"3","larger_num":"12","correct_side":1,"subjID":"ValentinaErazoPalacio2","gender":"1","age":"11","school":"sexto"},{"start_time":1551887743352,"click_time":1551887744873,"finger_time":1551887744033,"fix_duration":1076.8977451898575,"trial":50,"RT":681,"MT":840,"sideResp":2,"stimulus":"img/750/equaldotsize/R/7_Ratio_750_L_3_R_4.png","xmouse":[795,793,793,792,792,792,792,792,792,792,792,792,792,792,792,792,792,792,792,792,792,792,792,792,792,792,792,792,792,792,792,792,779,755,723,688,600,538,521,509,505,505,505,505,505,505,505,505,505,505,505,505,505,512,525,541,595,676,751,832,884,946,961,970,980,988,1001,1008,1011,1012,1012,1014,1020,1032,1049,1064,1101],"ymouse":[534,529,529,527,527,527,527,527,527,527,527,527,527,527,527,527,527,527,527,527,527,527,527,527,527,527,527,527,527,527,527,526,511,491,466,435,344,270,236,213,201,194,193,193,193,193,193,193,193,193,193,193,198,213,230,250,303,366,404,434,446,447,439,426,403,378,323,296,268,252,241,210,188,165,137,110,64],"timestamp_mouse":[1,36,41,61,81,101,120,141,162,180,202,220,241,261,280,300,321,340,360,380,401,421,440,460,481,501,521,540,561,580,600,621,640,661,681,700,721,740,760,781,801,821,841,861,881,900,921,941,960,981,1002,1021,1040,1060,1081,1100,1121,1140,1160,1181,1201,1221,1240,1260,1281,1301,1321,1341,1361,1381,1402,1422,1440,1461,1481,1500,1521],"xSR":741.5,"ySR":469.95,"xT1":424.9,"yT1":0,"xT2":1058.1,"yT2":0,"toosoon":0,"cond_shown":"equaldotsize","ratio_trial":750,"smaller_num":"3","larger_num":"4","correct_side":2,"subjID":"ValentinaErazoPalacio2","gender":"1","age":"11","school":"sexto"},{"start_time":1551887748201,"click_time":1551887749293,"finger_time":1551887748874,"fix_duration":1066.827365344861,"trial":51,"RT":673,"MT":419,"sideResp":1,"stimulus":"img/500/equaldotanddens/L/10_Ratio_500_L_4_R_2.png","xmouse":[804,803,801,798,798,798,798,798,798,798,798,798,798,798,798,798,798,798,798,798,798,798,798,798,798,798,798,798,798,797,791,779,759,705,677,648,621,593,561,557,555,555,555,552,550,550,550,550,550,548,545,537,526,504,495],"ymouse":[518,518,518,518,518,518,518,518,518,518,518,518,518,518,518,518,518,518,518,518,518,518,518,518,518,518,518,518,518,518,513,504,490,420,392,357,330,302,269,258,248,235,223,191,174,169,168,167,167,159,152,141,126,103,96],"timestamp_mouse":[13,31,52,72,91,113,133,152,173,193,212,232,252,272,293,313,332,352,372,393,411,431,452,471,493,512,532,553,571,591,613,631,652,673,692,712,732,753,773,791,811,832,852,872,891,911,931,953,971,991,1011,1032,1052,1071,1092],"xSR":741.5,"ySR":469.95,"xT1":424.9,"yT1":0,"xT2":1058.1,"yT2":0,"toosoon":0,"cond_shown":"equaldotanddens","ratio_trial":500,"smaller_num":"2","larger_num":"4","correct_side":1,"subjID":"ValentinaErazoPalacio2","gender":"1","age":"11","school":"sexto"},{"start_time":1551887752584,"click_time":1551887755553,"finger_time":1551887753392,"fix_duration":250,"trial":52,"RT":808,"MT":2161,"sideResp":1,"stimulus":"img/900/equaldotsize/L/10_Ratio_900_L_20_R_18.png","xmouse":[784,784,784,784,784,784,784,784,784,784,784,784,784,784,784,784,784,784,784,784,784,784,784,784,784,784,784,784,784,784,784,784,784,784,784,788,792,796,799,806,809,812,818,828,861,893,920,951,978,1011,1011,1009,1005,1002,1002,1002,1001,999,996,991,985,983,980,978,973,969,958,942,925,892,882,867,854,838,802,763,730,677,625,511,454,421,421,421,421,421,421,421,421,421,421,421,421,421,421,421,421,421,0,0,0,0,0,0,0,0,0,0,0,0,0,0,0,0,0,0,0,0,0,0,0,0,0,0,1,18,46,87,136,234,263,289,304,314,318,319,319,320,322,336,349,365,382,397,418,425,435,441,445],"ymouse":[522,522,522,522,522,522,522,522,522,522,522,522,522,522,522,522,522,522,522,522,522,522,522,522,522,522,522,522,522,522,522,522,522,521,518,511,503,496,489,476,469,462,450,435,397,364,331,290,256,197,194,191,190,187,187,187,186,184,180,174,171,166,163,160,159,159,159,161,169,194,211,228,248,269,324,380,425,482,530,635,690,720,720,720,720,720,720,720,720,720,720,720,720,720,720,720,720,720,709,653,629,608,592,581,565,563,562,559,556,546,537,528,523,518,510,506,505,503,501,483,467,452,439,431,409,386,366,341,319,275,256,239,225,217,214,210,210,207,202,176,159,143,134,125,114,108,103,100,97],"timestamp_mouse":[10,39,49,69,89,109,129,149,169,189,210,229,248,269,289,308,329,350,370,390,409,429,448,469,490,510,529,549,570,589,609,629,649,669,689,709,728,749,769,788,808,828,849,870,889,909,928,949,970,989,1008,1029,1048,1069,1089,1109,1128,1148,1169,1188,1208,1229,1249,1269,1289,1309,1328,1349,1370,1389,1408,1429,1449,1468,1489,1510,1528,1548,1568,1588,1608,1629,1650,1669,1690,1709,1730,1749,1769,1788,1809,1829,1848,1868,1889,1909,1930,1948,1969,1989,2008,2030,2050,2070,2089,2108,2129,2150,2169,2188,2208,2229,2249,2270,2288,2308,2328,2349,2370,2388,2408,2430,2450,2470,2489,2509,2528,2548,2570,2588,2608,2629,2648,2670,2689,2710,2728,2749,2770,2789,2808,2829,2849,2869,2889,2910,2928,2949,2969],"xSR":741.5,"ySR":469.95,"xT1":424.9,"yT1":0,"xT2":1058.1,"yT2":0,"toosoon":0,"cond_shown":"equaldotsize","ratio_trial":900,"smaller_num":"18","larger_num":"20","correct_side":1,"subjID":"ValentinaErazoPalacio2","gender":"1","age":"11","school":"sexto"},{"start_time":1551887757758,"click_time":1551887758673,"finger_time":1551887758433,"fix_duration":1185.0074620638263,"trial":53,"RT":675,"MT":240,"sideResp":2,"stimulus":"img/250/equaldotsize/R/4_Ratio_250_L_3_R_12.png","xmouse":[800,800,800,800,800,800,800,800,800,800,800,800,800,800,800,800,800,800,800,800,800,800,800,800,800,800,800,800,800,800,800,803,818,835,862,936,977,1013,1027,1039,1058,1071,1087,1105,1125,1155],"ymouse":[502,502,502,502,502,502,502,502,502,502,502,502,502,502,502,502,502,502,502,502,502,502,502,502,502,502,502,502,502,502,502,496,474,443,401,326,295,260,245,231,203,186,168,146,128,97],"timestamp_mouse":[19,34,62,75,96,115,134,154,174,194,214,236,256,275,294,315,335,354,374,394,414,435,454,475,494,516,536,555,574,596,614,634,655,675,695,714,736,754,775,794,815,834,855,875,894,915],"xSR":741.5,"ySR":469.95,"xT1":424.9,"yT1":0,"xT2":1058.1,"yT2":0,"toosoon":0,"cond_shown":"equaldotsize","ratio_trial":250,"smaller_num":"3","larger_num":"12","correct_side":2,"subjID":"ValentinaErazoPalacio2","gender":"1","age":"11","school":"sexto"},{"start_time":1551887760976,"click_time":1551887762873,"finger_time":1551887762673,"fix_duration":1462.4449870125763,"trial":54,"RT":1697,"MT":200,"sideResp":1,"stimulus":"img/900/equaldotsize/R/15_Ratio_900_L_9_R_10.png","xmouse":[795,795,795,795,795,795,795,795,795,795,795,795,795,795,795,795,795,795,795,795,795,795,795,795,795,795,795,795,795,795,795,795,795,795,795,795,795,795,795,795,795,795,795,795,795,795,793,786,774,757,751,747,747,747,747,747,747,747,747,747,747,747,747,747,747,747,747,747,747,747,747,747,747,747,747,747,747,747,747,747,747,747,747,744,735,722,714,700,682,622,585,551,527,512,509],"ymouse":[503,503,503,503,503,503,503,503,503,503,503,503,503,503,503,503,503,503,503,503,503,503,503,503,503,503,503,503,503,503,503,503,503,503,503,503,503,503,503,503,503,503,503,503,503,503,502,497,489,479,475,474,474,474,474,474,474,474,474,474,474,474,474,477,483,489,492,494,495,498,499,500,501,501,501,501,501,501,501,501,501,501,501,499,489,478,467,451,432,348,298,239,183,138,92],"timestamp_mouse":[17,45,57,78,96,118,136,157,176,198,216,237,257,276,297,316,337,356,378,396,416,438,457,478,498,517,536,558,576,598,616,638,657,676,697,717,737,756,777,796,816,836,856,878,896,918,936,958,977,996,1016,1036,1057,1077,1097,1116,1138,1156,1176,1197,1216,1237,1256,1277,1296,1316,1336,1356,1376,1397,1416,1437,1456,1477,1498,1516,1536,1558,1576,1597,1617,1636,1656,1677,1697,1717,1737,1756,1777,1797,1816,1837,1857,1876,1897],"xSR":741.5,"ySR":469.95,"xT1":424.9,"yT1":0,"xT2":1058.1,"yT2":0,"toosoon":0,"cond_shown":"equaldotsize","ratio_trial":900,"smaller_num":"9","larger_num":"10","correct_side":2,"subjID":"ValentinaErazoPalacio2","gender":"1","age":"11","school":"sexto"},{"start_time":1551887764044,"click_time":1551887764973,"finger_time":1551887764813,"fix_duration":250,"trial":55,"RT":769,"MT":160,"sideResp":1,"stimulus":"img/750/randomdotsizeEA/L/14_Ratio_750_L_8_R_6.png","xmouse":[827,827,827,827,827,827,827,827,827,827,827,827,827,827,827,827,827,827,827,827,827,827,827,827,827,827,827,827,827,827,827,827,827,827,827,819,787,756,718,671,621,516,472,454,442,436,429],"ymouse":[531,531,531,531,531,531,531,531,531,531,531,531,531,531,531,531,531,531,531,531,531,531,531,531,531,531,531,531,531,531,531,531,531,531,531,528,513,501,482,438,388,271,198,160,131,110,80],"timestamp_mouse":[8,30,48,69,89,109,130,148,169,188,209,229,248,270,290,308,329,348,369,390,409,428,450,468,490,508,530,548,570,588,610,630,650,668,689,708,729,748,769,788,810,828,849,868,888,909,929],"xSR":741.5,"ySR":469.95,"xT1":424.9,"yT1":0,"xT2":1058.1,"yT2":0,"toosoon":0,"cond_shown":"randomdotsizeEA","ratio_trial":750,"smaller_num":"6","larger_num":"8","correct_side":1,"subjID":"ValentinaErazoPalacio2","gender":"1","age":"11","school":"sexto"},{"start_time":1551887767023,"click_time":1551887768493,"finger_time":1551887768093,"fix_duration":1309.877191253086,"trial":56,"RT":1070,"MT":400,"sideResp":2,"stimulus":"img/750/equaldotsize/R/4_Ratio_750_L_15_R_20.png","xmouse":[798,798,798,798,798,798,798,798,798,798,798,798,798,798,798,798,798,798,798,798,798,798,798,798,798,798,798,798,798,798,798,798,798,798,798,798,798,798,798,798,798,798,798,798,798,798,798,798,798,798,795,792,756,737,716,685,658,619,617,617,617,625,693,763,834,907,951,990,1021,1028,1031,1036,1047,1059],"ymouse":[525,525,525,525,525,525,525,525,525,525,525,525,525,525,525,525,525,525,525,525,525,525,525,525,525,525,525,525,525,525,525,525,525,525,525,525,525,525,525,525,525,525,525,525,525,525,525,525,525,525,525,523,500,485,474,462,450,441,441,441,440,430,387,356,332,303,282,261,222,196,174,152,101,75],"timestamp_mouse":[10,39,50,70,91,110,130,150,170,191,210,230,251,271,290,311,331,350,370,390,411,430,451,471,491,511,530,551,570,591,610,630,649,671,690,711,730,751,771,790,810,830,851,871,890,910,931,950,971,990,1010,1030,1050,1070,1090,1110,1131,1150,1171,1190,1210,1231,1250,1270,1290,1311,1331,1350,1370,1390,1410,1430,1450,1470],"xSR":741.5,"ySR":469.95,"xT1":424.9,"yT1":0,"xT2":1058.1,"yT2":0,"toosoon":0,"cond_shown":"equaldotsize","ratio_trial":750,"smaller_num":"15","larger_num":"20","correct_side":2,"subjID":"ValentinaErazoPalacio2","gender":"1","age":"11","school":"sexto"},{"start_time":1551887769385,"click_time":1551887770274,"finger_time":1551887770133,"fix_duration":250,"trial":57,"RT":748,"MT":141,"sideResp":1,"stimulus":"img/750/equaldotsize/L/9_Ratio_750_L_4_R_3.png","xmouse":[816,806,796,794,794,794,794,794,794,794,794,794,794,794,794,794,794,794,794,794,794,794,794,794,794,794,794,794,794,794,794,794,794,794,794,784,763,737,692,589,550,526,504,491,484],"ymouse":[520,520,519,519,519,519,519,519,519,519,519,519,519,519,519,519,519,519,519,519,519,519,519,519,519,519,519,519,519,519,519,519,519,519,519,513,496,474,439,329,272,223,174,137,97],"timestamp_mouse":[9,34,48,69,88,108,129,148,169,189,208,229,249,269,288,308,328,348,369,388,409,429,448,469,488,508,528,549,569,589,609,628,649,667,689,709,728,748,768,789,808,828,849,868,889],"xSR":741.5,"ySR":469.95,"xT1":424.9,"yT1":0,"xT2":1058.1,"yT2":0,"toosoon":0,"cond_shown":"equaldotsize","ratio_trial":750,"smaller_num":"3","larger_num":"4","correct_side":1,"subjID":"ValentinaErazoPalacio2","gender":"1","age":"11","school":"sexto"},{"start_time":1551887771646,"click_time":1551887772513,"finger_time":1551887772433,"fix_duration":250,"trial":58,"RT":787,"MT":80,"sideResp":1,"stimulus":"img/250/equaldotsize/L/7_Ratio_250_L_8_R_2.png","xmouse":[782,782,782,782,782,782,782,782,782,782,782,782,782,782,782,782,782,782,782,782,782,782,782,782,782,782,782,782,782,782,782,782,782,782,782,782,782,782,772,753,716,608,531,499],"ymouse":[506,506,506,506,506,506,506,507,508,508,508,508,508,508,508,508,509,509,510,510,510,510,510,510,510,510,510,510,510,510,510,510,510,510,510,510,510,510,493,447,365,215,133,92],"timestamp_mouse":[12,43,48,68,87,106,127,148,167,187,206,228,247,268,287,307,327,347,367,387,408,427,447,468,488,507,528,547,568,587,607,627,647,667,687,707,728,747,767,787,809,827,847,867],"xSR":741.5,"ySR":469.95,"xT1":424.9,"yT1":0,"xT2":1058.1,"yT2":0,"toosoon":0,"cond_shown":"equaldotsize","ratio_trial":250,"smaller_num":"2","larger_num":"8","correct_side":1,"subjID":"ValentinaErazoPalacio2","gender":"1","age":"11","school":"sexto"},{"start_time":1551887774101,"click_time":1551887774873,"finger_time":1551887774693,"fix_duration":646.0966391824462,"trial":59,"RT":592,"MT":180,"sideResp":1,"stimulus":"img/250/equaldotanddens/L/1_Ratio_250_L_8_R_2.png","xmouse":[763,763,763,763,763,763,763,763,763,763,763,763,763,763,763,763,763,763,763,763,763,763,763,763,763,763,763,763,756,731,710,672,624,560,541,525,515,505,492],"ymouse":[500,500,500,500,500,500,500,500,500,500,500,500,500,500,500,500,500,500,500,500,500,500,500,500,500,500,500,500,488,454,423,374,315,233,200,166,137,115,82],"timestamp_mouse":[13,35,53,72,92,113,133,152,172,193,213,232,252,272,292,312,332,352,372,392,413,432,453,472,493,512,532,552,572,592,612,633,652,672,691,712,732,752,772],"xSR":741.5,"ySR":469.95,"xT1":424.9,"yT1":0,"xT2":1058.1,"yT2":0,"toosoon":0,"cond_shown":"equaldotanddens","ratio_trial":250,"smaller_num":"2","larger_num":"8","correct_side":1,"subjID":"ValentinaErazoPalacio2","gender":"1","age":"11","school":"sexto"},{"start_time":1551887775964,"click_time":1551887776753,"finger_time":1551887776593,"fix_duration":250,"trial":60,"RT":629,"MT":160,"sideResp":1,"stimulus":"img/250/equaldotanddens/L/14_Ratio_250_L_12_R_3.png","xmouse":[784,784,784,784,784,784,784,784,784,784,784,784,784,784,784,784,784,784,784,784,784,784,784,784,784,784,784,784,782,778,762,746,727,698,669,591,558,527,512,500],"ymouse":[517,517,517,517,517,517,517,517,517,517,517,517,517,517,517,517,517,517,517,517,517,517,517,517,517,517,517,517,513,509,489,469,440,397,350,243,191,128,100,75],"timestamp_mouse":[9,40,49,70,90,109,129,149,169,190,209,230,249,270,289,310,329,349,369,389,410,429,449,470,491,509,528,549,569,589,609,629,649,670,690,709,730,749,769,789],"xSR":741.5,"ySR":469.95,"xT1":424.9,"yT1":0,"xT2":1058.1,"yT2":0,"toosoon":0,"cond_shown":"equaldotanddens","ratio_trial":250,"smaller_num":"3","larger_num":"12","correct_side":1,"subjID":"ValentinaErazoPalacio2","gender":"1","age":"11","school":"sexto"},{"start_time":1551887777993,"click_time":1551887778773,"finger_time":1551887778573,"fix_duration":598.3462982905135,"trial":61,"RT":580,"MT":200,"sideResp":1,"stimulus":"img/250/equaldotanddens/L/1_Ratio_250_L_8_R_2.png","xmouse":[813,813,813,813,813,813,813,813,813,813,813,813,813,813,813,813,813,813,813,813,813,813,813,813,813,813,810,805,795,758,732,700,665,622,567,545,538,532,528,524],"ymouse":[528,528,528,528,528,528,528,528,528,528,528,528,528,528,528,528,528,528,528,528,528,528,528,528,528,528,522,515,498,449,412,364,312,257,173,138,122,105,93,69],"timestamp_mouse":[4,27,41,61,81,101,120,140,161,180,200,220,240,261,280,300,321,340,361,381,400,420,440,460,481,500,520,541,559,580,599,620,640,660,680,700,720,742,761,780],"xSR":741.5,"ySR":469.95,"xT1":424.9,"yT1":0,"xT2":1058.1,"yT2":0,"toosoon":0,"cond_shown":"equaldotanddens","ratio_trial":250,"smaller_num":"2","larger_num":"8","correct_side":1,"subjID":"ValentinaErazoPalacio2","gender":"1","age":"11","school":"sexto"},{"start_time":1551887783481,"click_time":1551887784613,"finger_time":1551887784273,"fix_duration":1445.329366971977,"trial":62,"RT":792,"MT":340,"sideResp":1,"stimulus":"img/750/equaldotsize/R/15_Ratio_750_L_9_R_12.png","xmouse":[783,783,783,783,783,783,783,783,783,783,783,783,783,783,783,783,783,783,783,783,783,783,783,783,783,783,783,783,783,783,783,783,783,783,783,783,783,782,774,749,649,556,494,441,388,377,376,376,376,376,376,376,379,384,403,420,434],"ymouse":[515,515,515,515,515,515,515,515,515,515,515,515,515,515,515,515,515,515,515,515,515,515,515,515,515,515,515,515,515,515,515,515,515,515,515,515,515,507,487,441,325,230,171,120,48,33,26,24,24,24,24,24,24,24,35,46,58],"timestamp_mouse":[13,41,53,72,93,113,133,152,173,193,213,232,252,272,292,313,333,352,372,393,412,432,453,472,492,512,533,552,573,592,612,632,652,672,692,711,732,752,773,792,813,832,852,873,892,911,933,952,973,993,1012,1032,1052,1072,1092,1112,1132],"xSR":741.5,"ySR":469.95,"xT1":424.9,"yT1":0,"xT2":1058.1,"yT2":0,"toosoon":0,"cond_shown":"equaldotsize","ratio_trial":750,"smaller_num":"9","larger_num":"12","correct_side":2,"subjID":"ValentinaErazoPalacio2","gender":"1","age":"11","school":"sexto"},{"start_time":1551887786611,"click_time":1551887787634,"finger_time":1551887787533,"fix_duration":1114.6231487889363,"trial":63,"RT":922,"MT":101,"sideResp":2,"stimulus":"img/900/equaldotanddens/R/14_Ratio_900_L_18_R_20.png","xmouse":[784,784,784,784,784,784,784,784,784,784,784,784,784,784,784,784,784,784,784,784,784,784,784,784,784,784,784,784,784,784,784,784,784,784,784,784,784,784,784,784,784,784,784,784,791,809,840,893,1014,1071,1115,1144],"ymouse":[504,504,504,504,504,504,504,504,504,504,504,504,504,504,504,504,504,504,504,504,504,504,504,504,504,504,504,504,504,504,504,504,504,504,504,504,504,504,504,504,504,504,504,504,493,473,444,393,271,188,119,62],"timestamp_mouse":[8,34,42,62,82,103,123,143,162,183,202,222,242,262,282,302,323,342,363,383,402,422,443,463,483,503,523,543,563,582,603,622,643,662,683,703,723,743,762,782,802,822,843,862,883,902,922,942,962,981,1002,1022],"xSR":741.5,"ySR":469.95,"xT1":424.9,"yT1":0,"xT2":1058.1,"yT2":0,"toosoon":0,"cond_shown":"equaldotanddens","ratio_trial":900,"smaller_num":"18","larger_num":"20","correct_side":2,"subjID":"ValentinaErazoPalacio2","gender":"1","age":"11","school":"sexto"},{"start_time":1551887788925,"click_time":1551887790533,"finger_time":1551887789694,"fix_duration":250,"trial":64,"RT":769,"MT":839,"sideResp":2,"stimulus":"img/750/randomdotsizeEA/R/12_Ratio_750_L_3_R_4.png","xmouse":[786,786,786,786,786,786,786,786,786,786,786,786,786,786,786,786,786,786,786,786,786,786,786,786,786,786,786,786,786,786,786,786,786,786,786,786,784,764,731,703,669,632,579,562,549,543,539,534,532,527,527,527,527,527,526,526,526,526,526,526,530,536,565,597,628,665,702,768,800,812,818,823,849,871,897,926,956,1007,1036,1048,1060],"ymouse":[518,518,518,518,518,518,518,518,518,518,518,518,518,518,518,518,518,518,518,518,518,518,518,518,518,518,518,518,518,518,518,518,518,518,518,518,518,500,470,447,414,377,305,280,257,242,233,215,201,180,171,164,155,154,152,151,150,150,150,153,160,174,209,232,251,266,269,273,273,272,271,269,250,234,213,190,169,135,116,106,92],"timestamp_mouse":[8,35,49,67,89,109,128,148,169,188,209,229,249,269,288,308,328,349,369,388,408,428,448,468,488,508,528,549,568,588,608,629,648,668,688,709,728,748,769,788,808,829,848,868,888,909,929,949,968,988,1010,1028,1048,1068,1088,1108,1128,1149,1168,1188,1209,1228,1248,1268,1288,1309,1328,1348,1368,1388,1408,1428,1447,1468,1488,1508,1528,1548,1567,1588,1608],"xSR":741.5,"ySR":469.95,"xT1":424.9,"yT1":0,"xT2":1058.1,"yT2":0,"toosoon":0,"cond_shown":"randomdotsizeEA","ratio_trial":750,"smaller_num":"3","larger_num":"4","correct_side":2,"subjID":"ValentinaErazoPalacio2","gender":"1","age":"11","school":"sexto"},{"start_time":1551887791625,"click_time":1551887792615,"finger_time":1551887792473,"fix_duration":250,"trial":65,"RT":848,"MT":142,"sideResp":2,"stimulus":"img/900/randomdotsizeEA/L/8_Ratio_900_L_20_R_18.png","xmouse":[777,777,777,777,777,777,777,777,777,777,777,777,777,777,777,777,777,777,777,777,777,777,777,777,777,777,777,777,777,777,777,777,777,777,777,777,777,777,777,777,778,786,821,872,925,981,1027,1086,1106,1117],"ymouse":[529,529,529,529,529,529,529,529,529,529,529,529,529,529,529,529,529,529,529,529,529,529,529,529,529,529,529,529,529,529,529,529,529,529,529,529,529,529,529,527,524,513,467,403,342,285,229,138,107,82],"timestamp_mouse":[9,40,48,68,88,108,129,149,168,188,208,228,248,268,289,309,329,348,369,389,409,429,449,468,488,508,528,548,569,588,608,628,648,668,688,707,729,748,768,789,809,829,848,868,888,909,928,948,968,989],"xSR":741.5,"ySR":469.95,"xT1":424.9,"yT1":0,"xT2":1058.1,"yT2":0,"toosoon":0,"cond_shown":"randomdotsizeEA","ratio_trial":900,"smaller_num":"18","larger_num":"20","correct_side":1,"subjID":"ValentinaErazoPalacio2","gender":"1","age":"11","school":"sexto"},{"start_time":1551887793890,"click_time":1551887794954,"finger_time":1551887794593,"fix_duration":415.04955869761926,"trial":66,"RT":703,"MT":361,"sideResp":1,"stimulus":"img/250/equaldotsize/L/3_Ratio_250_L_8_R_2.png","xmouse":[807,807,807,807,807,807,807,807,807,807,807,807,807,807,807,807,807,807,807,807,807,807,807,807,807,807,807,807,807,807,807,807,805,799,765,741,702,660,619,570,548,537,532,531,531,531,531,530,529,522,516,510,507,503],"ymouse":[517,517,517,517,517,517,517,517,517,517,517,517,517,517,517,517,517,517,517,517,517,517,517,517,517,517,517,517,517,517,517,517,516,512,486,468,442,397,350,271,230,211,203,201,201,201,200,197,192,171,148,131,113,91],"timestamp_mouse":[8,35,44,64,82,104,124,143,163,184,202,223,243,262,284,303,322,344,363,384,403,424,444,464,484,503,524,543,564,583,604,624,643,663,683,703,723,744,764,783,803,823,844,864,884,903,923,943,964,983,1003,1023,1043,1064],"xSR":741.5,"ySR":469.95,"xT1":424.9,"yT1":0,"xT2":1058.1,"yT2":0,"toosoon":0,"cond_shown":"equaldotsize","ratio_trial":250,"smaller_num":"2","larger_num":"8","correct_side":1,"subjID":"ValentinaErazoPalacio2","gender":"1","age":"11","school":"sexto"},{"start_time":1551887795866,"click_time":1551887797513,"finger_time":1551887796913,"fix_duration":250,"trial":67,"RT":1047,"MT":600,"sideResp":2,"stimulus":"img/500/randomdotsizeEA/R/15_Ratio_500_L_1_R_2.png","xmouse":[819,819,819,819,819,819,819,819,819,819,819,819,819,819,819,819,819,819,819,819,819,819,819,819,819,819,819,819,819,819,819,819,819,819,819,819,819,819,819,818,815,814,814,814,814,814,814,814,814,814,814,825,842,864,886,1000,1053,1109,1159,1196,1222,1236,1236,1236,1236,1236,1236,1236,1236,1236,1236,1236,1236,1236,1236,1169,1168,1168,1167,1166,1163,1161,1157],"ymouse":[510,510,510,510,510,510,510,510,510,510,510,510,510,510,510,510,510,510,510,510,510,510,510,510,510,510,510,510,510,510,510,510,510,510,510,510,510,510,510,510,510,509,509,509,509,509,509,509,509,509,507,499,483,461,426,307,240,179,119,69,28,2,2,2,2,2,2,2,2,2,2,2,2,2,2,1,2,5,8,11,18,21,27],"timestamp_mouse":[7,37,48,67,87,107,127,148,168,187,207,228,246,268,288,307,328,347,368,387,408,427,447,468,488,507,528,547,567,587,607,628,647,667,688,707,727,747,767,787,807,827,847,868,887,907,928,947,968,987,1006,1027,1047,1068,1087,1107,1126,1147,1167,1188,1207,1227,1247,1267,1288,1307,1327,1348,1367,1388,1407,1428,1447,1468,1487,1507,1527,1547,1567,1588,1607,1627,1647],"xSR":741.5,"ySR":469.95,"xT1":424.9,"yT1":0,"xT2":1058.1,"yT2":0,"toosoon":0,"cond_shown":"randomdotsizeEA","ratio_trial":500,"smaller_num":"1","larger_num":"2","correct_side":2,"subjID":"ValentinaErazoPalacio2","gender":"1","age":"11","school":"sexto"},{"start_time":1551887799197,"click_time":1551887800173,"finger_time":1551887799973,"fix_duration":723.997984793696,"trial":68,"RT":776,"MT":200,"sideResp":1,"stimulus":"img/500/equaldotsize/L/13_Ratio_500_L_12_R_6.png","xmouse":[776,776,776,776,776,776,776,776,776,776,776,776,776,776,776,776,776,776,776,776,776,776,776,776,776,776,776,776,776,776,776,776,776,776,776,775,769,758,715,676,632,580,535,496,454,448,448,448,448],"ymouse":[518,518,518,518,518,518,518,518,518,518,518,518,518,518,518,518,518,518,518,518,518,518,518,518,518,518,518,518,518,518,518,518,518,518,518,518,515,506,474,446,416,384,340,290,190,157,132,110,80],"timestamp_mouse":[16,37,57,77,97,117,136,156,176,205,217,236,258,277,296,316,336,356,376,396,416,436,456,476,496,516,536,556,577,596,616,636,656,677,695,716,736,756,776,795,815,837,856,876,896,916,936,956,975],"xSR":741.5,"ySR":469.95,"xT1":424.9,"yT1":0,"xT2":1058.1,"yT2":0,"toosoon":0,"cond_shown":"equaldotsize","ratio_trial":500,"smaller_num":"6","larger_num":"12","correct_side":1,"subjID":"ValentinaErazoPalacio2","gender":"1","age":"11","school":"sexto"},{"start_time":1551887801206,"click_time":1551887802034,"finger_time":1551887801773,"fix_duration":250,"trial":69,"RT":567,"MT":261,"sideResp":1,"stimulus":"img/250/equaldotanddens/L/5_Ratio_250_L_24_R_6.png","xmouse":[796,796,796,796,796,796,796,796,796,796,796,796,796,796,796,796,796,796,796,796,796,796,796,796,795,785,771,748,682,646,610,572,552,523,507,504,502,502,502,502,502,502],"ymouse":[512,512,512,512,512,512,512,512,512,512,512,512,512,512,512,512,512,512,512,512,512,512,512,512,512,512,509,497,460,433,401,361,325,260,212,190,172,157,133,117,102,87],"timestamp_mouse":[9,35,48,67,88,108,127,148,167,187,208,227,247,267,288,307,327,348,368,387,407,428,448,468,487,507,528,547,567,587,607,627,648,667,688,707,728,747,767,787,807,828],"xSR":741.5,"ySR":469.95,"xT1":424.9,"yT1":0,"xT2":1058.1,"yT2":0,"toosoon":0,"cond_shown":"equaldotanddens","ratio_trial":250,"smaller_num":"6","larger_num":"24","correct_side":1,"subjID":"ValentinaErazoPalacio2","gender":"1","age":"11","school":"sexto"},{"start_time":1551887803946,"click_time":1551887804833,"finger_time":1551887804672,"fix_dura