[{"start_time":1551886937817,"click_time":1551886940396,"finger_time":1551886938155,"fix_duration":457.9631033021998,"trial":0,"RT":338,"MT":2241,"sideResp":1,"stimulus":[],"xmouse":[791,791,791,791,791,791,791,791,791,791,791,791,791,791,789,785,763,724,698,670,644,614,556,524,494,460,444,423,420,418,418,418,418,418,418,418,419,425,428,430,433,455,468,485,507,543,561,623,649,670,687,699,711,714,714,714,716,717,718,720,722,723,726,726,726,730,735,736,738,740,741,742,745,746,747,747,748,750,750,752,753,754,756,757,758,759,760,760,760,760,760,760,760,760,760,760,760,759,755,750,736,692,666,640,609,562,536,469,429,382,348,316,316,322,332,347,355,367,373,383,390,400,403,406,410,413,430,438,449,456],"ymouse":[558,558,558,558,558,558,558,558,558,558,558,558,558,558,558,558,558,558,558,560,560,563,561,561,561,561,561,561,561,561,561,561,561,560,558,555,553,547,545,544,543,540,540,540,540,540,540,543,544,544,544,544,544,544,544,544,543,541,540,538,535,534,531,530,527,525,520,519,518,517,517,516,516,516,516,515,515,514,514,514,514,514,514,514,514,514,514,514,514,514,514,514,514,514,514,515,516,516,516,517,514,511,507,502,492,469,451,400,355,317,291,240,218,201,190,181,177,169,165,161,159,155,153,151,146,142,120,111,102,95],"timestamp_mouse":[9,18,47,59,79,99,119,139,158,178,199,218,239,258,278,299,318,337,359,378,398,418,438,457,478,498,518,539,558,578,599,618,638,658,678,699,718,739,759,778,799,818,837,859,879,897,918,939,959,979,997,1018,1038,1058,1077,1098,1119,1138,1159,1179,1199,1218,1237,1258,1279,1299,1318,1338,1358,1378,1398,1418,1439,1458,1478,1499,1518,1538,1559,1578,1598,1619,1637,1659,1678,1698,1719,1738,1758,1778,1798,1818,1837,1858,1879,1898,1917,1939,1957,1979,1998,2018,2037,2058,2078,2098,2117,2139,2157,2178,2198,2219,2237,2258,2278,2299,2317,2337,2358,2378,2398,2419,2437,2458,2479,2498,2518,2538,2558,2579],"xSR":741.5,"ySR":500.5,"xT1":424.9,"yT1":0,"xT2":1058.1,"yT2":0,"toosoon":0,"cond_shown":"Incongruent","ratio_trial":200,"L_num":14,"L_den":30,"R_num":6,"R_den":9,"correct_side":2,"subjID":"ValentinaErazoPalacio2","gender":"1","age":"11","school":"sexto","test":{"fix_dur":[250,1500],"timestim":1000,"targets_dim":[100,100],"targets_relative_coord":[0.3,0.7],"size_stim":[880,420],"start_dim":[100,100],"size_start":[300,300],"size_fix":60,"samplingrate":20,"img_types":["Congruent","Incongruent"],"ratios":[100,200,300],"rep_conds":19,"nTrials":120,"trials_to_rest":500,"Trials_order":[9,113,11,111,74,5,61,88,51,0,99,108,39,12,71,89,90,42,47,98,22,3,38,15,95,18,13,102,53,60,68,110,67,109,57,4,92,6,97,94,106,27,79,114,70,117,66,73,84,23,75,72,65,2,30,115,83,31,10,52,37,26,48,119,56,107,17,36,77,55,86,69,7,45,76,93,14,62,59,24,29,16,105,20,44,8,78,104,28,63,35,103,49,40,87,64,33,118,100,116,58,91,1,32,25,46,85,34,81,50,43,41,112,101,21,19,82,96,54,80],"cond_shown":["Incongruent","Incongruent","Incongruent","Incongruent","Congruent","Incongruent","Incongruent","Congruent","Incongruent","Congruent","Incongruent","Congruent","Incongruent","Congruent","Incongruent","Incongruent","Congruent","Congruent","Incongruent","Congruent","Congruent","Incongruent","Congruent","Incongruent","Incongruent","Congruent","Incongruent","Congruent","Incongruent","Congruent","Congruent","Congruent","Incongruent","Incongruent","Incongruent","Congruent","Congruent","Congruent","Incongruent","Congruent","Congruent","Incongruent","Incongruent","Congruent","Congruent","Incongruent","Congruent","Incongruent","Congruent","Incongruent","Incongruent","Congruent","Incongruent","Congruent","Congruent","Incongruent","Incongruent","Incongruent","Congruent","Congruent","Incongruent","Congruent","Congruent","Incongruent","Congruent","Incongruent","Incongruent","Congruent","Incongruent","Incongruent","Congruent","Incongruent","Incongruent","Incongruent","Congruent","Incongruent","Congruent","Congruent","Incongruent","Congruent","Incongruent","Congruent","Incongruent","Congruent","Congruent","Congruent","Congruent","Congruent","Congruent","Incongruent","Incongruent","Incongruent","Incongruent","Congruent","Incongruent","Congruent","Incongruent","Congruent","Congruent","Congruent","Congruent","Incongruent","Incongruent","Congruent","Incongruent","Congruent","Incongruent","Congruent","Incongruent","Congruent","Incongruent","Incongruent","Congruent","Incongruent","Incongruent","Incongruent","Congruent","Congruent","Congruent","Congruent"],"ratio_trial":[200,300,300,200,200,300,100,300,200,100,200,100,200,100,300,300,100,100,300,200,300,200,200,200,300,100,100,100,300,100,200,200,100,100,200,300,200,100,100,300,300,200,100,100,300,200,100,100,100,300,200,100,300,200,100,100,300,100,300,300,100,200,100,300,200,300,300,100,300,100,200,200,100,200,300,200,200,200,300,100,300,300,200,200,200,200,100,200,300,200,300,100,100,300,200,300,200,300,300,200,300,100,100,200,100,300,100,300,200,200,100,300,300,300,200,100,300,100,100,200],"left_num":[14,1,4,4,3,4,4,11,11,10,7,11,3,7,4,13,2,6,4,9,1,4,12,7,1,8,1,7,4,11,21,1,13,6,4,4,3,11,9,20,12,3,8,15,3,14,6,9,10,4,3,4,13,12,4,9,4,8,3,4,4,3,7,1,20,13,4,1,8,6,4,14,3,4,11,1,5,6,13,8,13,3,14,3,7,3,11,7,2,9,1,6,3,1,6,4,7,1,18,3,2,12,17,21,10,3,10,4,11,16,9,8,3,1,3,9,3,7,10,4],"right_num":[6,2,2,1,7,2,8,4,3,3,8,4,11,15,2,12,11,5,2,13,7,6,6,4,3,2,8,15,2,6,2,21,12,3,1,13,11,4,13,8,2,1,6,13,2,12,5,20,3,8,1,15,12,6,6,6,2,6,4,13,8,14,15,3,9,12,8,3,14,7,3,12,11,6,4,2,14,3,12,2,12,4,12,9,2,14,4,18,10,8,2,7,4,3,3,2,4,7,9,11,10,9,10,2,9,11,9,13,3,9,20,9,11,2,1,6,11,15,3,3],"left_den":[30,2,20,30,10,20,8,22,20,25,10,22,4,14,20,26,5,20,20,30,20,5,20,15,2,16,2,14,20,22,30,2,26,12,30,20,10,22,15,25,24,10,16,25,6,30,20,10,25,5,10,10,26,20,8,18,20,16,6,20,8,6,14,2,25,26,5,2,10,10,10,30,5,5,22,3,10,15,26,16,26,6,30,12,21,10,22,15,20,15,2,10,6,5,20,5,15,20,20,10,20,24,30,30,25,12,25,20,20,30,10,10,12,2,10,18,12,14,25,10],"right_den":[9,10,4,3,14,4,20,20,4,10,16,10,20,25,4,15,22,25,4,26,20,10,15,6,15,5,20,25,4,15,4,30,20,5,3,26,22,10,26,16,10,2,10,26,10,18,25,25,10,16,2,30,15,15,10,10,4,10,5,26,20,20,25,15,15,15,16,5,28,14,15,18,22,10,20,15,20,15,15,5,15,5,18,20,15,28,10,27,25,10,10,14,10,6,6,4,6,20,15,22,25,15,15,4,18,20,18,26,4,27,25,18,20,10,2,10,20,25,10,15],"correct_side":[2,1,2,2,2,2,1,1,2,1,1,1,1,2,2,2,2,1,2,2,2,1,1,2,1,1,1,2,2,1,1,2,2,2,2,2,2,1,1,1,1,2,2,1,1,2,1,1,1,1,2,2,2,1,2,2,2,2,2,2,1,2,2,1,1,2,1,2,1,1,1,2,1,1,1,1,2,1,2,1,2,2,2,2,1,2,1,2,2,2,1,1,1,2,2,1,2,2,1,2,2,2,2,1,2,2,2,2,2,1,1,1,2,1,2,2,2,2,1,1],"img_shown":["img2/200/Incongruent/R/I_Dist_200_LN_14_LD_30_RN_6_RD_9_1.png","img2/300/Incongruent/L/I_Dist_300_LN_1_LD_2_RN_2_RD_10_0.png","img2/300/Incongruent/R/I_Dist_300_LN_4_LD_20_RN_2_RD_4_1.png","img2/200/Incongruent/R/I_Dist_200_LN_4_LD_30_RN_1_RD_3_1.png","img2/200/Congruent/R/C_Dist_200_LN_3_LD_10_RN_7_RD_14_1.png","img2/300/Incongruent/R/I_Dist_300_LN_4_LD_20_RN_2_RD_4_1.png","img2/100/Incongruent/L/I_Dist_100_LN_4_LD_8_RN_8_RD_20_0.png","img2/300/Congruent/L/C_Dist_300_LN_11_LD_22_RN_4_RD_20_0.png","img2/200/Incongruent/R/I_Dist_200_LN_11_LD_20_RN_3_RD_4_1.png","img2/100/Congruent/L/C_Dist_100_LN_10_LD_25_RN_3_RD_10_0.png","img2/200/Incongruent/L/I_Dist_200_LN_7_LD_10_RN_8_RD_16_0.png","img2/100/Congruent/L/C_Dist_100_LN_11_LD_22_RN_4_RD_10_0.png","img2/200/Incongruent/L/I_Dist_200_LN_3_LD_4_RN_11_RD_20_0.png","img2/100/Congruent/R/C_Dist_100_LN_7_LD_14_RN_15_RD_25_1.png","img2/300/Incongruent/R/I_Dist_300_LN_4_LD_20_RN_2_RD_4_1.png","img2/300/Incongruent/R/I_Dist_300_LN_13_LD_26_RN_12_RD_15_1.png","img2/100/Congruent/R/C_Dist_100_LN_2_LD_5_RN_11_RD_22_1.png","img2/100/Congruent/L/C_Dist_100_LN_6_LD_20_RN_5_RD_25_0.png","img2/300/Incongruent/R/I_Dist_300_LN_4_LD_20_RN_2_RD_4_1.png","img2/200/Congruent/R/C_Dist_200_LN_9_LD_30_RN_13_RD_26_1.png","img2/300/Congruent/R/C_Dist_300_LN_1_LD_20_RN_7_RD_20_1.png","img2/200/Incongruent/L/I_Dist_200_LN_4_LD_5_RN_6_RD_10_0.png","img2/200/Congruent/L/C_Dist_200_LN_12_LD_20_RN_6_RD_15_0.png","img2/200/Incongruent/R/I_Dist_200_LN_7_LD_15_RN_4_RD_6_1.png","img2/300/Incongruent/L/I_Dist_300_LN_1_LD_2_RN_3_RD_15_0.png","img2/100/Congruent/L/C_Dist_100_LN_8_LD_16_RN_2_RD_5_0.png","img2/100/Incongruent/L/I_Dist_100_LN_1_LD_2_RN_8_RD_20_0.png","img2/100/Congruent/R/C_Dist_100_LN_7_LD_14_RN_15_RD_25_1.png","img2/300/Incongruent/R/I_Dist_300_LN_4_LD_20_RN_2_RD_4_1.png","img2/100/Congruent/L/C_Dist_100_LN_11_LD_22_RN_6_RD_15_0.png","img2/200/Congruent/L/C_Dist_200_LN_21_LD_30_RN_2_RD_4_0.png","img2/200/Congruent/R/C_Dist_200_LN_1_LD_2_RN_21_RD_30_1.png","img2/100/Incongruent/R/I_Dist_100_LN_13_LD_26_RN_12_RD_20_1.png","img2/100/Incongruent/R/I_Dist_100_LN_6_LD_12_RN_3_RD_5_1.png","img2/200/Incongruent/R/I_Dist_200_LN_4_LD_30_RN_1_RD_3_1.png","img2/300/Congruent/R/C_Dist_300_LN_4_LD_20_RN_13_RD_26_1.png","img2/200/Congruent/R/C_Dist_200_LN_3_LD_10_RN_11_RD_22_1.png","img2/100/Congruent/L/C_Dist_100_LN_11_LD_22_RN_4_RD_10_0.png","img2/100/Incongruent/L/I_Dist_100_LN_9_LD_15_RN_13_RD_26_0.png","img2/300/Congruent/L/C_Dist_300_LN_20_LD_25_RN_8_RD_16_0.png","img2/300/Congruent/L/C_Dist_300_LN_12_LD_24_RN_2_RD_10_0.png","img2/200/Incongruent/R/I_Dist_200_LN_3_LD_10_RN_1_RD_2_1.png","img2/100/Incongruent/R/I_Dist_100_LN_8_LD_16_RN_6_RD_10_1.png","img2/100/Congruent/L/C_Dist_100_LN_15_LD_25_RN_13_RD_26_0.png","img2/300/Congruent/L/C_Dist_300_LN_3_LD_6_RN_2_RD_10_0.png","img2/200/Incongruent/R/I_Dist_200_LN_14_LD_30_RN_12_RD_18_1.png","img2/100/Congruent/L/C_Dist_100_LN_6_LD_20_RN_5_RD_25_0.png","img2/100/Incongruent/L/I_Dist_100_LN_9_LD_10_RN_20_RD_25_0.png","img2/100/Congruent/L/C_Dist_100_LN_10_LD_25_RN_3_RD_10_0.png","img2/300/Incongruent/L/I_Dist_300_LN_4_LD_5_RN_8_RD_16_0.png","img2/200/Incongruent/R/I_Dist_200_LN_3_LD_10_RN_1_RD_2_1.png","img2/100/Congruent/R/C_Dist_100_LN_4_LD_10_RN_15_RD_30_1.png","img2/300/Incongruent/R/I_Dist_300_LN_13_LD_26_RN_12_RD_15_1.png","img2/200/Congruent/L/C_Dist_200_LN_12_LD_20_RN_6_RD_15_0.png","img2/100/Congruent/R/C_Dist_100_LN_4_LD_8_RN_6_RD_10_1.png","img2/100/Incongruent/R/I_Dist_100_LN_9_LD_18_RN_6_RD_10_1.png","img2/300/Incongruent/R/I_Dist_300_LN_4_LD_20_RN_2_RD_4_1.png","img2/100/Incongruent/R/I_Dist_100_LN_8_LD_16_RN_6_RD_10_1.png","img2/300/Congruent/R/C_Dist_300_LN_3_LD_6_RN_4_RD_5_1.png","img2/300/Congruent/R/C_Dist_300_LN_4_LD_20_RN_13_RD_26_1.png","img2/100/Incongruent/L/I_Dist_100_LN_4_LD_8_RN_8_RD_20_0.png","img2/200/Congruent/R/C_Dist_200_LN_3_LD_6_RN_14_RD_20_1.png","img2/100/Congruent/R/C_Dist_100_LN_7_LD_14_RN_15_RD_25_1.png","img2/300/Incongruent/L/I_Dist_300_LN_1_LD_2_RN_3_RD_15_0.png","img2/200/Congruent/L/C_Dist_200_LN_20_LD_25_RN_9_RD_15_0.png","img2/300/Incongruent/R/I_Dist_300_LN_13_LD_26_RN_12_RD_15_1.png","img2/300/Incongruent/L/I_Dist_300_LN_4_LD_5_RN_8_RD_16_0.png","img2/100/Congruent/R/C_Dist_100_LN_1_LD_2_RN_3_RD_5_1.png","img2/300/Incongruent/L/I_Dist_300_LN_8_LD_10_RN_14_RD_28_0.png","img2/100/Incongruent/L/I_Dist_100_LN_6_LD_10_RN_7_RD_14_0.png","img2/200/Congruent/L/C_Dist_200_LN_4_LD_10_RN_3_RD_15_0.png","img2/200/Incongruent/R/I_Dist_200_LN_14_LD_30_RN_12_RD_18_1.png","img2/100/Incongruent/L/I_Dist_100_LN_3_LD_5_RN_11_RD_22_0.png","img2/200/Incongruent/L/I_Dist_200_LN_4_LD_5_RN_6_RD_10_0.png","img2/300/Congruent/L/C_Dist_300_LN_11_LD_22_RN_4_RD_20_0.png","img2/200/Incongruent/L/I_Dist_200_LN_1_LD_3_RN_2_RD_15_0.png","img2/200/Congruent/R/C_Dist_200_LN_5_LD_10_RN_14_RD_20_1.png","img2/200/Congruent/L/C_Dist_200_LN_6_LD_15_RN_3_RD_15_0.png","img2/300/Incongruent/R/I_Dist_300_LN_13_LD_26_RN_12_RD_15_1.png","img2/100/Congruent/L/C_Dist_100_LN_8_LD_16_RN_2_RD_5_0.png","img2/300/Incongruent/R/I_Dist_300_LN_13_LD_26_RN_12_RD_15_1.png","img2/300/Congruent/R/C_Dist_300_LN_3_LD_6_RN_4_RD_5_1.png","img2/200/Incongruent/R/I_Dist_200_LN_14_LD_30_RN_12_RD_18_1.png","img2/200/Congruent/R/C_Dist_200_LN_3_LD_12_RN_9_RD_20_1.png","img2/200/Congruent/L/C_Dist_200_LN_7_LD_21_RN_2_RD_15_0.png","img2/200/Congruent/R/C_Dist_200_LN_3_LD_10_RN_14_RD_28_1.png","img2/100/Congruent/L/C_Dist_100_LN_11_LD_22_RN_4_RD_10_0.png","img2/200/Congruent/R/C_Dist_200_LN_7_LD_15_RN_18_RD_27_1.png","img2/300/Congruent/R/C_Dist_300_LN_2_LD_20_RN_10_RD_25_1.png","img2/200/Incongruent/R/I_Dist_200_LN_9_LD_15_RN_8_RD_10_1.png","img2/300/Incongruent/L/I_Dist_300_LN_1_LD_2_RN_2_RD_10_0.png","img2/100/Incongruent/L/I_Dist_100_LN_6_LD_10_RN_7_RD_14_0.png","img2/100/Incongruent/L/I_Dist_100_LN_3_LD_6_RN_4_RD_10_0.png","img2/300/Congruent/R/C_Dist_300_LN_1_LD_5_RN_3_RD_6_1.png","img2/200/Incongruent/R/I_Dist_200_LN_6_LD_20_RN_3_RD_6_1.png","img2/300/Congruent/L/C_Dist_300_LN_4_LD_5_RN_2_RD_4_0.png","img2/200/Incongruent/R/I_Dist_200_LN_7_LD_15_RN_4_RD_6_1.png","img2/300/Congruent/R/C_Dist_300_LN_1_LD_20_RN_7_RD_20_1.png","img2/300/Congruent/L/C_Dist_300_LN_18_LD_20_RN_9_RD_15_0.png","img2/200/Congruent/R/C_Dist_200_LN_3_LD_10_RN_11_RD_22_1.png","img2/300/Congruent/R/C_Dist_300_LN_2_LD_20_RN_10_RD_25_1.png","img2/100/Incongruent/R/I_Dist_100_LN_12_LD_24_RN_9_RD_15_1.png","img2/100/Incongruent/R/I_Dist_100_LN_17_LD_30_RN_10_RD_15_1.png","img2/200/Congruent/L/C_Dist_200_LN_21_LD_30_RN_2_RD_4_0.png","img2/100/Incongruent/R/I_Dist_100_LN_10_LD_25_RN_9_RD_18_1.png","img2/300/Congruent/R/C_Dist_300_LN_3_LD_12_RN_11_RD_20_1.png","img2/100/Incongruent/R/I_Dist_100_LN_10_LD_25_RN_9_RD_18_1.png","img2/300/Congruent/R/C_Dist_300_LN_4_LD_20_RN_13_RD_26_1.png","img2/200/Incongruent/R/I_Dist_200_LN_11_LD_20_RN_3_RD_4_1.png","img2/200/Congruent/L/C_Dist_200_LN_16_LD_30_RN_9_RD_27_0.png","img2/100/Incongruent/L/I_Dist_100_LN_9_LD_10_RN_20_RD_25_0.png","img2/300/Incongruent/L/I_Dist_300_LN_8_LD_10_RN_9_RD_18_0.png","img2/300/Congruent/R/C_Dist_300_LN_3_LD_12_RN_11_RD_20_1.png","img2/300/Incongruent/L/I_Dist_300_LN_1_LD_2_RN_2_RD_10_0.png","img2/200/Incongruent/R/I_Dist_200_LN_3_LD_10_RN_1_RD_2_1.png","img2/100/Incongruent/R/I_Dist_100_LN_9_LD_18_RN_6_RD_10_1.png","img2/300/Congruent/R/C_Dist_300_LN_3_LD_12_RN_11_RD_20_1.png","img2/100/Congruent/R/C_Dist_100_LN_7_LD_14_RN_15_RD_25_1.png","img2/100/Congruent/L/C_Dist_100_LN_10_LD_25_RN_3_RD_10_0.png","img2/200/Congruent/L/C_Dist_200_LN_4_LD_10_RN_3_RD_15_0.png"],"dist100_C":[["C_Dist_100_LN_10_LD_25_RN_3_RD_10_0.png","C_Dist_100_LN_11_LD_22_RN_4_RD_10_0.png","C_Dist_100_LN_11_LD_22_RN_6_RD_15_0.png","C_Dist_100_LN_15_LD_25_RN_13_RD_26_0.png","C_Dist_100_LN_3_LD_6_RN_2_RD_5_0.png","C_Dist_100_LN_6_LD_20_RN_5_RD_25_0.png","C_Dist_100_LN_8_LD_16_RN_2_RD_5_0.png","C_Dist_100_LN_9_LD_15_RN_8_RD_16_0.png"],["C_Dist_100_LN_1_LD_2_RN_18_RD_30_1.png","C_Dist_100_LN_1_LD_2_RN_3_RD_5_1.png","C_Dist_100_LN_12_LD_30_RN_13_RD_26_1.png","C_Dist_100_LN_2_LD_5_RN_11_RD_22_1.png","C_Dist_100_LN_2_LD_5_RN_6_RD_12_1.png","C_Dist_100_LN_3_LD_20_RN_4_RD_16_1.png","C_Dist_100_LN_4_LD_10_RN_15_RD_30_1.png","C_Dist_100_LN_4_LD_8_RN_6_RD_10_1.png","C_Dist_100_LN_6_LD_12_RN_15_RD_25_1.png","C_Dist_100_LN_7_LD_14_RN_15_RD_25_1.png","C_Dist_100_LN_7_LD_14_RN_9_RD_15_1.png"]],"dist100_I":[["I_Dist_100_LN_1_LD_2_RN_8_RD_20_0.png","I_Dist_100_LN_2_LD_4_RN_6_RD_15_0.png","I_Dist_100_LN_2_LD_4_RN_8_RD_20_0.png","I_Dist_100_LN_3_LD_5_RN_11_RD_22_0.png","I_Dist_100_LN_3_LD_5_RN_8_RD_16_0.png","I_Dist_100_LN_3_LD_6_RN_4_RD_10_0.png","I_Dist_100_LN_3_LD_9_RN_7_RD_30_0.png","I_Dist_100_LN_4_LD_8_RN_8_RD_20_0.png","I_Dist_100_LN_6_LD_10_RN_11_RD_22_0.png","I_Dist_100_LN_6_LD_10_RN_13_RD_26_0.png","I_Dist_100_LN_6_LD_10_RN_7_RD_14_0.png","I_Dist_100_LN_9_LD_10_RN_20_RD_25_0.png","I_Dist_100_LN_9_LD_15_RN_13_RD_26_0.png","I_Dist_100_LN_9_LD_15_RN_14_RD_28_0.png"],["I_Dist_100_LN_10_LD_25_RN_8_RD_16_1.png","I_Dist_100_LN_10_LD_25_RN_9_RD_18_1.png","I_Dist_100_LN_11_LD_22_RN_9_RD_15_1.png","I_Dist_100_LN_12_LD_24_RN_9_RD_15_1.png","I_Dist_100_LN_12_LD_30_RN_2_RD_4_1.png","I_Dist_100_LN_13_LD_26_RN_12_RD_20_1.png","I_Dist_100_LN_13_LD_26_RN_6_RD_10_1.png","I_Dist_100_LN_17_LD_30_RN_10_RD_15_1.png","I_Dist_100_LN_6_LD_12_RN_3_RD_5_1.png","I_Dist_100_LN_8_LD_16_RN_6_RD_10_1.png","I_Dist_100_LN_8_LD_20_RN_1_RD_2_1.png","I_Dist_100_LN_9_LD_18_RN_6_RD_10_1.png"]],"dist100_S":[["E_Dist_100_LN_2_LD_12_RN_2_RD_30_0.png","E_Dist_100_LN_6_LD_10_RN_6_RD_12_0.png"],["E_Dist_100_LN_6_LD_12_RN_6_RD_10_1.png"]],"dist200_C":[["C_Dist_200_LN_11_LD_22_RN_3_RD_10_0.png","C_Dist_200_LN_12_LD_15_RN_6_RD_10_0.png","C_Dist_200_LN_12_LD_20_RN_6_RD_15_0.png","C_Dist_200_LN_14_LD_28_RN_6_RD_20_0.png","C_Dist_200_LN_15_LD_25_RN_4_RD_10_0.png","C_Dist_200_LN_16_LD_20_RN_12_RD_20_0.png","C_Dist_200_LN_16_LD_30_RN_9_RD_27_0.png","C_Dist_200_LN_20_LD_25_RN_9_RD_15_0.png","C_Dist_200_LN_21_LD_30_RN_2_RD_4_0.png","C_Dist_200_LN_4_LD_10_RN_3_RD_15_0.png","C_Dist_200_LN_4_LD_8_RN_3_RD_10_0.png","C_Dist_200_LN_6_LD_15_RN_3_RD_15_0.png","C_Dist_200_LN_7_LD_21_RN_2_RD_15_0.png","C_Dist_200_LN_8_LD_15_RN_2_RD_6_0.png","C_Dist_200_LN_8_LD_15_RN_3_RD_9_0.png","C_Dist_200_LN_8_LD_15_RN_7_RD_21_0.png","C_Dist_200_LN_9_LD_20_RN_4_RD_16_0.png"],["C_Dist_200_LN_1_LD_2_RN_21_RD_30_1.png","C_Dist_200_LN_13_LD_26_RN_14_RD_20_1.png","C_Dist_200_LN_3_LD_10_RN_11_RD_22_1.png","C_Dist_200_LN_3_LD_10_RN_14_RD_28_1.png","C_Dist_200_LN_3_LD_10_RN_7_RD_14_1.png","C_Dist_200_LN_3_LD_12_RN_9_RD_20_1.png","C_Dist_200_LN_3_LD_6_RN_14_RD_20_1.png","C_Dist_200_LN_5_LD_10_RN_14_RD_20_1.png","C_Dist_200_LN_6_LD_12_RN_7_RD_10_1.png","C_Dist_200_LN_6_LD_20_RN_11_RD_22_1.png","C_Dist_200_LN_7_LD_15_RN_18_RD_27_1.png","C_Dist_200_LN_9_LD_30_RN_13_RD_26_1.png"]],"dist200_I":[["I_Dist_200_LN_1_LD_2_RN_3_RD_10_0.png","I_Dist_200_LN_1_LD_3_RN_2_RD_15_0.png","I_Dist_200_LN_3_LD_4_RN_11_RD_20_0.png","I_Dist_200_LN_4_LD_5_RN_6_RD_10_0.png","I_Dist_200_LN_4_LD_6_RN_14_RD_30_0.png","I_Dist_200_LN_7_LD_10_RN_12_RD_24_0.png","I_Dist_200_LN_7_LD_10_RN_14_RD_28_0.png","I_Dist_200_LN_7_LD_10_RN_8_RD_16_0.png"],["I_Dist_200_LN_11_LD_20_RN_3_RD_4_1.png","I_Dist_200_LN_14_LD_30_RN_12_RD_18_1.png","I_Dist_200_LN_14_LD_30_RN_6_RD_9_1.png","I_Dist_200_LN_3_LD_10_RN_1_RD_2_1.png","I_Dist_200_LN_4_LD_30_RN_1_RD_3_1.png","I_Dist_200_LN_6_LD_20_RN_3_RD_6_1.png","I_Dist_200_LN_7_LD_15_RN_4_RD_6_1.png","I_Dist_200_LN_7_LD_15_RN_6_RD_9_1.png","I_Dist_200_LN_9_LD_15_RN_8_RD_10_1.png"]],"dist200_S":[["E_Dist_200_LN_3_LD_6_RN_3_RD_10_0.png"],["E_Dist_200_LN_3_LD_10_RN_3_RD_6_1.png"]],"dist300_C":[["C_Dist_300_LN_11_LD_22_RN_1_RD_5_0.png","C_Dist_300_LN_11_LD_22_RN_2_RD_10_0.png","C_Dist_300_LN_11_LD_22_RN_4_RD_20_0.png","C_Dist_300_LN_12_LD_24_RN_2_RD_10_0.png","C_Dist_300_LN_18_LD_20_RN_9_RD_15_0.png","C_Dist_300_LN_20_LD_25_RN_13_RD_26_0.png","C_Dist_300_LN_20_LD_25_RN_14_RD_28_0.png","C_Dist_300_LN_20_LD_25_RN_5_RD_10_0.png","C_Dist_300_LN_20_LD_25_RN_8_RD_16_0.png","C_Dist_300_LN_20_LD_25_RN_9_RD_18_0.png","C_Dist_300_LN_24_LD_30_RN_2_RD_4_0.png","C_Dist_300_LN_24_LD_30_RN_8_RD_16_0.png","C_Dist_300_LN_3_LD_6_RN_2_RD_10_0.png","C_Dist_300_LN_4_LD_10_RN_1_RD_10_0.png","C_Dist_300_LN_4_LD_5_RN_2_RD_4_0.png","C_Dist_300_LN_8_LD_16_RN_1_RD_5_0.png","C_Dist_300_LN_9_LD_10_RN_3_RD_5_0.png"],["C_Dist_300_LN_1_LD_20_RN_7_RD_20_1.png","C_Dist_300_LN_1_LD_3_RN_19_RD_30_1.png","C_Dist_300_LN_1_LD_30_RN_8_RD_24_1.png","C_Dist_300_LN_1_LD_5_RN_11_RD_22_1.png","C_Dist_300_LN_1_LD_5_RN_3_RD_6_1.png","C_Dist_300_LN_1_LD_5_RN_6_RD_12_1.png","C_Dist_300_LN_2_LD_10_RN_12_RD_24_1.png","C_Dist_300_LN_2_LD_20_RN_10_RD_25_1.png","C_Dist_300_LN_3_LD_12_RN_11_RD_20_1.png","C_Dist_300_LN_3_LD_6_RN_4_RD_5_1.png","C_Dist_300_LN_4_LD_20_RN_13_RD_26_1.png","C_Dist_300_LN_5_LD_25_RN_6_RD_12_1.png","C_Dist_300_LN_5_LD_25_RN_7_RD_14_1.png","C_Dist_300_LN_7_LD_14_RN_20_RD_25_1.png","C_Dist_300_LN_8_LD_15_RN_10_RD_12_1.png"]],"dist300_I":[["I_Dist_300_LN_1_LD_2_RN_2_RD_10_0.png","I_Dist_300_LN_1_LD_2_RN_3_RD_15_0.png","I_Dist_300_LN_2_LD_4_RN_6_RD_30_0.png","I_Dist_300_LN_3_LD_6_RN_4_RD_20_0.png","I_Dist_300_LN_4_LD_5_RN_6_RD_12_0.png","I_Dist_300_LN_4_LD_5_RN_8_RD_16_0.png","I_Dist_300_LN_7_LD_10_RN_8_RD_20_0.png","I_Dist_300_LN_8_LD_10_RN_14_RD_28_0.png","I_Dist_300_LN_8_LD_10_RN_9_RD_18_0.png"],["I_Dist_300_LN_13_LD_26_RN_12_RD_15_1.png","I_Dist_300_LN_4_LD_20_RN_2_RD_4_1.png"]],"dist300_S":[["E_Dist_300_LN_9_LD_12_RN_9_RD_20_0.png"],["E_Dist_300_LN_18_LD_30_RN_18_RD_20_1.png","E_Dist_300_LN_3_LD_10_RN_3_RD_5_1.png","E_Dist_300_LN_9_LD_20_RN_9_RD_12_1.png"]],"dist500_C":[["C_Dist_500_LN_10_LD_13_RN_7_RD_26_0.png","C_Dist_500_LN_10_LD_15_RN_4_RD_24_0.png","C_Dist_500_LN_12_LD_16_RN_3_RD_12_0.png","C_Dist_500_LN_12_LD_18_RN_4_RD_24_0.png","C_Dist_500_LN_15_LD_18_RN_5_RD_15_0.png","C_Dist_500_LN_15_LD_20_RN_1_RD_4_0.png","C_Dist_500_LN_18_LD_27_RN_1_RD_6_0.png","C_Dist_500_LN_20_LD_24_RN_1_RD_3_0.png","C_Dist_500_LN_20_LD_24_RN_3_RD_9_0.png","C_Dist_500_LN_20_LD_24_RN_7_RD_21_0.png","C_Dist_500_LN_20_LD_28_RN_3_RD_14_0.png","C_Dist_500_LN_21_LD_28_RN_6_RD_24_0.png","C_Dist_500_LN_22_LD_28_RN_2_RD_7_0.png","C_Dist_500_LN_25_LD_30_RN_9_RD_27_0.png","C_Dist_500_LN_4_LD_6_RN_1_RD_6_0.png","C_Dist_500_LN_5_LD_6_RN_2_RD_6_0.png","C_Dist_500_LN_6_LD_9_RN_1_RD_6_0.png","C_Dist_500_LN_7_LD_10_RN_1_RD_5_0.png","C_Dist_500_LN_8_LD_12_RN_1_RD_6_0.png","C_Dist_500_LN_8_LD_12_RN_4_RD_24_0.png"],["C_Dist_500_LN_1_LD_4_RN_12_RD_16_1.png","C_Dist_500_LN_1_LD_4_RN_9_RD_12_1.png","C_Dist_500_LN_1_LD_9_RN_11_RD_18_1.png","C_Dist_500_LN_10_LD_24_RN_22_RD_24_1.png","C_Dist_500_LN_2_LD_12_RN_10_RD_15_1.png","C_Dist_500_LN_2_LD_12_RN_12_RD_18_1.png","C_Dist_500_LN_2_LD_12_RN_4_RD_6_1.png","C_Dist_500_LN_2_LD_24_RN_7_RD_12_1.png","C_Dist_500_LN_2_LD_5_RN_18_RD_20_1.png","C_Dist_500_LN_2_LD_5_RN_9_RD_10_1.png","C_Dist_500_LN_2_LD_8_RN_12_RD_16_1.png","C_Dist_500_LN_2_LD_8_RN_21_RD_28_1.png","C_Dist_500_LN_3_LD_10_RN_4_RD_5_1.png","C_Dist_500_LN_3_LD_12_RN_15_RD_20_1.png","C_Dist_500_LN_3_LD_30_RN_6_RD_10_1.png","C_Dist_500_LN_3_LD_8_RN_14_RD_16_1.png","C_Dist_500_LN_4_LD_16_RN_15_RD_20_1.png","C_Dist_500_LN_4_LD_24_RN_12_RD_18_1.png","C_Dist_500_LN_5_LD_14_RN_6_RD_7_1.png","C_Dist_500_LN_7_LD_21_RN_20_RD_24_1.png","C_Dist_500_LN_7_LD_28_RN_12_RD_16_1.png","C_Dist_500_LN_7_LD_28_RN_9_RD_12_1.png","C_Dist_500_LN_9_LD_27_RN_20_RD_24_1.png"]],"dist500_I":[["I_Dist_500_LN_2_LD_3_RN_4_RD_24_0.png","I_Dist_500_LN_5_LD_6_RN_6_RD_18_0.png","I_Dist_500_LN_7_LD_8_RN_9_RD_24_0.png"],["I_Dist_500_LN_7_LD_21_RN_5_RD_6_1.png"]],"dist500_S":[["E_Dist_500_LN_6_LD_8_RN_6_RD_24_0.png"],["E_Dist_500_LN_2_LD_12_RN_2_RD_3_1.png","E_Dist_500_LN_6_LD_24_RN_6_RD_8_1.png"]]}},{"start_time":1551886943188,"click_time":1551886947755,"finger_time":1551886944735,"fix_duration":1491.3799849089542,"trial":1,"RT":1547,"MT":3020,"sideResp":2,"stimulus":[],"xmouse":[809,809,809,809,809,809,809,809,809,809,809,809,809,809,809,809,809,809,809,809,809,809,809,809,809,809,809,809,809,809,809,809,809,809,809,809,809,809,809,809,809,809,809,809,809,809,809,809,809,809,809,809,809,809,809,809,809,809,809,809,809,809,809,809,809,809,809,809,809,809,809,809,809,809,809,809,797,757,733,697,648,598,570,570,570,570,570,570,570,570,570,570,570,570,570,570,570,570,570,573,575,576,580,582,586,593,614,632,674,694,709,724,746,754,758,760,765,769,772,775,780,786,795,799,799,800,802,805,806,806,806,806,806,804,799,786,781,771,755,743,727,708,647,609,573,540,504,495,495,495,495,495,495,495,495,495,495,495,495,495,495,495,495,495,495,495,495,495,495,495,495,495,495,495,495,495,495,495,495,495,495,495,495,496,496,496,496,496,496,497,499,500,500,500,500,500,500,500,500,500,500,500,501,502,502,503,506,549,590,644,711,781,842,975,1034,1118,1193,1285,1285,1285,1285,1285,1285,1285,1285,1285,1285,1126,1124],"ymouse":[528,528,528,528,528,528,528,528,528,528,528,528,528,528,528,528,528,528,528,528,528,528,528,528,528,528,528,528,528,528,528,528,528,528,528,528,528,528,528,528,528,528,528,528,528,528,528,528,528,528,528,528,528,528,528,528,528,528,528,528,528,528,528,528,528,528,528,528,528,528,528,528,528,528,527,523,501,444,410,360,304,257,220,218,217,217,217,217,217,217,217,217,217,217,217,217,217,217,217,217,217,218,219,220,223,226,231,234,239,241,242,242,245,246,246,246,246,246,245,245,244,243,241,241,240,239,238,237,235,235,235,235,233,230,224,215,211,204,197,193,188,184,172,168,168,163,161,159,159,159,159,159,159,159,159,159,159,159,159,159,159,159,159,159,159,159,159,159,159,159,159,159,160,163,164,165,165,165,165,165,165,166,166,167,167,167,167,167,167,167,167,167,167,167,167,167,167,167,167,167,167,167,167,167,166,166,166,166,166,170,172,172,172,160,142,105,67,4,4,4,4,4,4,4,4,4,4,0,2],"timestamp_mouse":[10,31,48,66,87,107,128,148,167,188,208,228,247,267,286,307,328,346,368,387,407,428,448,466,487,507,526,547,568,588,608,626,648,667,687,708,728,748,768,787,806,828,846,868,887,908,928,948,967,988,1006,1028,1047,1067,1087,1108,1128,1147,1167,1186,1207,1228,1247,1268,1288,1306,1328,1347,1368,1387,1408,1427,1448,1468,1487,1506,1528,1547,1567,1586,1607,1627,1647,1666,1687,1707,1728,1748,1768,1786,1807,1827,1847,1867,1887,1908,1928,1947,1967,1987,2008,2027,2048,2067,2087,2107,2126,2147,2167,2187,2207,2226,2249,2267,2287,2307,2327,2347,2366,2387,2407,2427,2447,2466,2487,2507,2527,2547,2567,2586,2608,2627,2648,2667,2688,2707,2728,2746,2767,2787,2808,2827,2847,2866,2887,2907,2926,2948,2967,2986,3007,3028,3047,3067,3086,3106,3128,3147,3168,3188,3208,3226,3248,3267,3288,3307,3327,3348,3368,3388,3408,3427,3448,3467,3486,3507,3527,3547,3567,3587,3607,3626,3648,3668,3687,3707,3727,3747,3767,3786,3807,3827,3847,3867,3888,3908,3926,3948,3966,3987,4007,4028,4048,4066,4087,4107,4127,4148,4166,4187,4207,4227,4248,4267,4287,4307,4328,4347,4367,4387,4406,4427,4447,4468,4488,4507,4527,4548,4567],"xSR":741.5,"ySR":469.95,"xT1":424.9,"yT1":0,"xT2":1058.1,"yT2":0,"toosoon":0,"cond_shown":"Incongruent","ratio_trial":300,"L_num":1,"L_den":2,"R_num":2,"R_den":10,"correct_side":1,"subjID":"ValentinaErazoPalacio2","gender":"1","school":"sexto","age":"11"},{"start_time":1551886950276,"click_time":1551886952615,"finger_time":1551886952355,"fix_duration":958.4820404867152,"trial":2,"RT":2079,"MT":260,"sideResp":2,"stimulus":[],"xmouse":[802,802,802,802,802,802,802,802,802,802,802,802,802,802,802,802,802,802,802,802,802,802,802,802,802,802,802,802,802,802,802,802,802,802,802,802,802,802,802,802,802,802,802,802,802,802,802,802,802,802,802,802,802,802,802,802,802,802,802,802,802,802,802,802,802,802,802,802,802,802,802,802,802,802,802,802,802,799,797,796,795,794,793,793,792,792,792,792,792,792,792,792,793,797,798,799,799,799,799,799,799,800,811,820,860,881,920,955,996,1011,1025,1038,1052,1074,1079,1082,1086,1093],"ymouse":[517,517,517,517,517,517,517,517,517,517,517,517,517,517,517,517,517,517,517,517,517,517,517,517,517,517,517,517,517,517,517,517,517,517,517,517,517,517,517,517,517,517,517,517,517,517,517,517,517,517,517,517,517,517,517,517,517,517,517,517,517,517,517,517,517,517,517,517,517,517,517,517,517,517,517,517,517,518,516,515,515,514,512,511,511,510,510,510,510,509,507,506,500,493,491,490,490,490,490,490,489,488,481,471,432,400,348,295,227,204,188,171,155,131,122,112,103,92],"timestamp_mouse":[3,24,42,60,79,99,120,140,160,180,199,220,240,260,280,300,319,340,358,380,399,420,439,460,480,499,520,539,560,579,599,620,639,660,678,699,719,739,759,779,799,819,840,859,879,900,920,940,959,979,998,1019,1039,1059,1079,1099,1119,1139,1159,1180,1199,1220,1239,1259,1279,1299,1319,1340,1359,1380,1399,1419,1439,1459,1478,1500,1520,1539,1560,1578,1599,1618,1640,1658,1679,1699,1720,1740,1759,1779,1800,1818,1839,1859,1879,1899,1919,1939,1959,1980,2000,2020,2040,2059,2079,2100,2120,2138,2160,2178,2200,2219,2239,2260,2279,2299,2320,2339],"xSR":741.5,"ySR":469.95,"xT1":424.9,"yT1":0,"xT2":1058.1,"yT2":0,"toosoon":0,"cond_shown":"Incongruent","ratio_trial":300,"L_num":4,"L_den":20,"R_num":2,"R_den":4,"correct_side":2,"subjID":"ValentinaErazoPalacio2","gender":"1","school":"sexto","age":"11"},{"start_time":1551886954266,"click_time":1551886956316,"finger_time":1551886956035,"fix_duration":250,"trial":3,"RT":1769,"MT":281,"sideResp":2,"stimulus":[],"xmouse":[792,792,792,792,792,792,792,792,792,792,792,792,792,792,792,792,792,792,792,792,792,792,792,792,792,792,792,792,792,792,792,792,792,792,792,792,792,792,792,792,792,792,792,792,792,792,792,792,792,792,792,792,792,793,793,793,793,793,793,793,793,793,793,793,793,793,793,793,793,793,793,793,793,793,793,793,793,793,793,793,793,793,793,793,793,795,802,809,853,906,944,1022,1048,1118,1122,1124,1124,1124,1125,1125,1125,1125,1122],"ymouse":[535,535,535,535,535,535,535,535,535,535,535,535,535,535,535,535,535,535,535,535,535,535,535,535,535,535,535,535,535,535,535,535,535,535,535,535,535,535,535,535,535,535,535,535,535,535,535,535,535,535,535,535,535,535,535,535,535,535,535,535,535,535,535,535,535,535,535,535,535,535,535,535,535,535,535,535,535,535,535,535,535,535,535,535,535,535,531,522,470,403,350,261,232,146,138,134,133,130,126,114,106,100,91],"timestamp_mouse":[9,38,49,70,88,109,128,149,169,189,209,229,248,269,289,309,329,349,369,389,409,429,450,468,489,510,530,549,569,590,610,628,649,669,690,710,729,749,769,790,810,829,850,870,889,910,929,950,970,990,1009,1029,1050,1069,1090,1109,1130,1149,1170,1188,1209,1230,1250,1270,1289,1309,1328,1350,1368,1390,1409,1429,1449,1469,1488,1509,1528,1550,1568,1590,1609,1629,1648,1670,1688,1709,1729,1749,1769,1788,1809,1829,1849,1869,1889,1909,1930,1949,1968,1989,2009,2029,2049],"xSR":741.5,"ySR":469.95,"xT1":424.9,"yT1":0,"xT2":1058.1,"yT2":0,"toosoon":0,"cond_shown":"Incongruent","ratio_trial":200,"L_num":4,"L_den":30,"R_num":1,"R_den":3,"correct_side":2,"subjID":"ValentinaErazoPalacio2","gender":"1","school":"sexto","age":"11"},{"start_time":1551886958118,"click_time":1551886961595,"finger_time":1551886961236,"fix_duration":360.2552813271026,"trial":4,"RT":3118,"MT":359,"sideResp":2,"stimulus":[],"xmouse":[807,807,807,807,807,807,807,807,807,807,807,807,807,807,807,807,807,807,807,807,807,807,807,807,807,807,807,807,807,807,807,807,807,807,807,807,807,807,807,807,807,807,807,807,807,807,807,807,807,807,807,807,807,807,807,807,807,807,807,807,807,807,807,807,807,807,807,807,807,807,807,807,807,807,807,807,807,807,807,807,808,808,808,808,808,808,808,808,809,810,811,812,813,813,814,814,814,814,814,814,815,818,821,824,828,830,832,832,832,832,832,832,832,832,832,832,832,832,832,832,832,832,832,832,832,832,832,832,832,832,832,832,832,832,832,832,832,832,832,833,833,833,833,833,834,834,834,834,834,834,834,834,834,837,840,872,892,918,947,989,1012,1039,1055,1066,1075,1077,1077,1077,1079,1080,1088,1089,1091,1092],"ymouse":[525,525,525,525,525,525,525,525,525,525,525,525,525,525,525,525,525,525,525,525,525,525,525,525,525,525,525,525,525,525,525,525,525,525,525,525,525,525,525,525,525,525,525,525,525,525,525,525,525,525,525,525,525,525,525,525,525,525,525,525,525,525,525,525,525,525,525,525,525,525,525,525,525,525,525,525,525,525,525,525,525,525,525,525,525,525,525,525,525,525,525,525,525,525,525,525,524,524,524,524,524,522,520,519,516,514,512,512,512,512,512,512,512,512,512,512,512,512,512,512,512,512,512,512,512,512,512,512,512,512,512,512,512,512,512,512,512,512,511,509,504,504,504,503,503,503,503,503,503,503,503,503,503,501,498,467,445,417,382,317,287,248,226,207,194,176,169,163,154,147,128,118,105,92],"timestamp_mouse":[32,38,56,77,96,118,137,157,177,198,218,238,258,278,298,316,338,356,378,397,418,436,457,478,497,517,537,558,578,597,616,638,657,678,697,718,737,757,778,797,818,837,858,877,900,917,938,958,977,998,1018,1038,1057,1077,1098,1117,1138,1158,1177,1197,1217,1236,1257,1277,1298,1317,1338,1357,1378,1398,1418,1436,1458,1478,1497,1518,1538,1557,1577,1598,1617,1638,1657,1677,1697,1717,1737,1756,1777,1797,1817,1836,1858,1877,1897,1917,1936,1958,1978,1997,2017,2038,2057,2077,2097,2118,2137,2158,2177,2198,2217,2237,2258,2278,2297,2318,2337,2356,2378,2397,2416,2437,2458,2478,2498,2516,2537,2556,2577,2598,2617,2637,2658,2676,2697,2717,2737,2757,2777,2797,2817,2838,2857,2878,2898,2916,2938,2957,2978,2997,3017,3037,3057,3077,3098,3118,3136,3157,3178,3196,3216,3237,3258,3277,3297,3318,3337,3356,3377,3397,3417,3436,3457,3477],"xSR":741.5,"ySR":469.95,"xT1":424.9,"yT1":0,"xT2":1058.1,"yT2":0,"toosoon":0,"cond_shown":"Congruent","ratio_trial":200,"L_num":3,"L_den":10,"R_num":7,"R_den":14,"correct_side":2,"subjID":"ValentinaErazoPalacio2","gender":"1","school":"sexto","age":"11"},{"start_time":1551886963787,"click_time":1551886965756,"finger_time":1551886965516,"fix_duration":250,"trial":5,"RT":1729,"MT":240,"sideResp":2,"stimulus":[],"xmouse":[835,833,829,828,828,828,828,828,828,828,828,828,828,828,828,828,828,828,828,828,828,828,828,828,828,827,827,826,826,826,826,826,826,826,826,826,826,826,825,825,825,825,824,824,824,824,824,824,823,823,823,823,823,823,823,823,823,823,823,823,823,823,823,823,823,823,823,823,823,823,823,823,823,823,823,823,823,823,823,823,823,823,823,823,825,832,853,871,945,993,1044,1082,1130,1141,1145,1146,1145,1142,1135],"ymouse":[522,524,526,526,527,527,527,527,527,527,527,527,527,527,527,527,527,527,527,527,527,527,527,527,527,527,526,524,524,524,524,524,524,524,524,524,523,522,522,520,519,518,517,515,515,515,515,515,514,513,513,513,513,513,513,513,512,512,512,512,512,512,512,512,512,512,512,512,512,512,512,511,511,511,511,511,511,511,511,511,511,511,511,509,506,495,470,446,360,308,255,215,172,159,145,133,113,101,75],"timestamp_mouse":[9,33,48,68,88,108,129,148,169,188,208,229,249,267,288,308,329,349,369,388,408,428,449,469,487,508,529,547,569,589,607,628,649,668,688,708,729,748,769,787,808,827,848,867,888,908,928,948,968,988,1008,1028,1049,1069,1089,1108,1129,1148,1168,1188,1208,1228,1249,1269,1287,1309,1328,1349,1369,1388,1408,1429,1448,1468,1488,1507,1528,1549,1568,1589,1609,1628,1648,1668,1689,1708,1729,1747,1768,1788,1809,1828,1848,1868,1887,1908,1929,1947,1969],"xSR":741.5,"ySR":469.95,"xT1":424.9,"yT1":0,"xT2":1058.1,"yT2":0,"toosoon":0,"cond_shown":"Incongruent","ratio_trial":300,"L_num":4,"L_den":20,"R_num":2,"R_den":4,"correct_side":2,"subjID":"ValentinaErazoPalacio2","gender":"1","school":"sexto","age":"11"},{"start_time":1551886969268,"click_time":1551886971295,"finger_time":1551886970935,"fix_duration":250,"trial":6,"RT":1667,"MT":360,"sideResp":1,"stimulus":[],"xmouse":[812,812,812,812,812,812,812,812,812,812,812,812,812,812,812,812,812,812,812,812,812,812,812,812,812,812,812,812,812,812,812,812,812,812,812,812,812,812,812,812,812,812,812,812,812,812,812,812,812,812,812,812,812,812,812,812,812,812,812,812,812,812,812,812,812,812,812,812,812,812,812,812,812,812,812,812,812,812,812,812,808,805,789,764,706,672,652,635,614,608,604,600,600,601,602,602,600,593,571,557,545,523],"ymouse":[506,506,506,506,506,506,506,506,506,506,506,506,506,506,506,506,506,506,506,506,506,506,506,506,506,506,506,506,506,506,506,506,506,506,506,506,506,506,506,506,506,506,506,506,506,506,506,506,506,506,506,506,506,506,506,506,506,506,506,506,506,506,506,506,506,506,506,506,506,506,506,506,506,506,506,506,506,506,506,506,503,498,482,453,396,352,318,289,245,235,224,214,204,188,177,162,138,115,77,65,58,57],"timestamp_mouse":[10,35,48,66,88,108,127,147,167,188,207,227,247,267,288,308,328,347,368,388,408,426,448,468,486,507,526,548,568,587,608,626,648,667,687,707,727,748,768,787,806,828,848,866,888,907,928,947,968,988,1006,1028,1047,1067,1087,1108,1127,1148,1168,1188,1207,1227,1247,1266,1287,1306,1328,1347,1368,1387,1408,1426,1448,1467,1487,1508,1527,1547,1567,1587,1608,1627,1647,1667,1688,1707,1727,1746,1768,1786,1808,1827,1848,1868,1887,1907,1927,1947,1967,1987,2006,2027],"xSR":741.5,"ySR":469.95,"xT1":424.9,"yT1":0,"xT2":1058.1,"yT2":0,"toosoon":0,"cond_shown":"Incongruent","ratio_trial":100,"L_num":4,"L_den":8,"R_num":8,"R_den":20,"correct_side":1,"subjID":"ValentinaErazoPalacio2","gender":"1","school":"sexto","age":"11"},{"start_time":1551886974494,"click_time":1551886976095,"finger_time":1551886975815,"fix_duration":1079.3900430740518,"trial":7,"RT":1321,"MT":280,"sideResp":1,"stimulus":[],"xmouse":[765,765,765,765,765,765,765,765,765,765,765,765,765,765,765,765,765,765,765,765,765,765,765,765,765,765,765,765,765,765,765,765,765,765,765,765,765,765,765,765,765,765,765,765,765,765,765,765,765,765,765,765,765,765,765,765,765,765,765,765,765,765,765,765,759,747,730,657,609,561,506,438,424,415,415,420,426,444,455,463,471],"ymouse":[509,509,509,509,509,509,509,509,509,509,509,509,509,509,509,509,509,509,509,509,509,509,509,509,509,509,509,509,509,509,509,509,509,509,509,509,509,509,509,509,509,509,509,509,509,509,509,509,509,509,509,509,509,509,509,509,509,509,509,509,509,509,509,506,499,487,469,426,395,351,293,226,213,192,179,160,146,125,113,104,96],"timestamp_mouse":[9,22,42,62,81,101,122,141,160,180,201,222,242,262,280,301,320,341,361,382,402,420,442,460,482,501,522,541,562,582,601,622,642,662,681,702,722,741,761,781,802,822,841,861,881,901,921,940,962,981,1001,1021,1041,1061,1081,1100,1122,1141,1162,1180,1202,1220,1241,1262,1281,1301,1321,1342,1361,1381,1401,1421,1441,1461,1481,1500,1521,1541,1561,1581,1601],"xSR":741.5,"ySR":469.95,"xT1":424.9,"yT1":0,"xT2":1058.1,"yT2":0,"toosoon":0,"cond_shown":"Congruent","ratio_trial":300,"L_num":11,"L_den":22,"R_num":4,"R_den":20,"correct_side":1,"subjID":"ValentinaErazoPalacio2","gender":"1","school":"sexto","age":"11"},{"start_time":1551886979444,"click_time":1551886982196,"finger_time":1551886981875,"fix_duration":1207.7664254310807,"trial":8,"RT":2431,"MT":321,"sideResp":2,"stimulus":[],"xmouse":[799,799,799,799,799,799,799,799,799,799,799,799,799,799,799,799,799,799,799,799,799,799,799,799,799,799,799,799,799,799,799,799,799,799,799,799,799,799,799,799,799,799,799,799,799,799,799,799,799,799,799,799,799,799,799,799,799,799,799,799,799,799,799,799,799,799,799,799,799,799,799,799,799,799,799,799,799,799,799,799,799,799,799,799,799,799,799,799,799,799,799,799,799,799,799,799,799,799,799,799,799,799,799,799,799,799,799,799,799,799,799,799,799,799,799,799,799,799,801,819,838,857,893,903,928,936,952,970,984,1003,1007,1010,1018,1022,1052,1064,1075,1080],"ymouse":[510,510,510,510,510,510,510,510,510,510,510,510,510,510,510,510,510,510,510,510,510,510,510,510,510,510,510,510,510,510,510,510,510,510,510,510,510,510,510,510,510,510,510,510,510,510,510,510,510,510,510,510,510,510,510,510,510,510,510,510,510,510,510,510,510,510,510,510,510,510,510,510,510,510,510,510,510,510,510,510,510,510,510,510,510,510,510,510,510,510,510,510,510,510,510,510,510,510,510,510,510,510,510,510,510,510,510,510,510,510,510,510,510,510,510,510,510,509,508,499,489,471,442,421,371,342,315,293,276,242,226,210,185,175,133,116,102,90],"timestamp_mouse":[11,41,51,72,91,111,132,151,172,192,211,232,251,272,292,311,331,352,372,392,411,431,452,472,491,511,531,551,573,590,612,631,651,672,691,712,732,751,771,791,811,831,851,872,891,912,931,951,971,991,1012,1031,1051,1072,1092,1112,1132,1151,1172,1190,1211,1231,1251,1272,1291,1312,1332,1352,1370,1391,1412,1432,1450,1471,1492,1511,1531,1552,1571,1591,1611,1631,1651,1672,1691,1710,1731,1752,1771,1791,1812,1832,1850,1872,1891,1911,1932,1950,1972,1991,2011,2030,2051,2070,2092,2111,2132,2151,2171,2190,2211,2230,2251,2271,2292,2312,2332,2351,2371,2392,2411,2430,2451,2472,2492,2511,2530,2551,2571,2591,2610,2631,2651,2671,2691,2710,2731,2752],"xSR":741.5,"ySR":469.95,"xT1":424.9,"yT1":0,"xT2":1058.1,"yT2":0,"toosoon":0,"cond_shown":"Incongruent","ratio_trial":200,"L_num":11,"L_den":20,"R_num":3,"R_den":4,"correct_side":2,"subjID":"ValentinaErazoPalacio2","gender":"1","school":"sexto","age":"11"},{"start_time":1551886985667,"click_time":1551886987515,"finger_time":1551886987215,"fix_duration":250,"trial":9,"RT":1548,"MT":300,"sideResp":1,"stimulus":[],"xmouse":[803,803,803,803,803,803,803,803,803,803,803,803,803,803,803,803,803,803,803,803,803,803,803,803,803,803,803,803,803,803,803,803,803,803,803,803,803,803,803,803,803,803,803,803,803,803,803,803,803,803,803,803,803,803,803,803,803,803,803,803,803,803,803,803,803,803,803,803,803,803,803,803,803,802,796,783,765,744,683,657,635,617,603,589,588,586,584,578,558,550,540,530,514],"ymouse":[523,523,523,523,523,523,523,523,523,523,523,523,523,523,523,523,523,523,523,523,523,523,523,523,523,523,523,523,523,523,523,523,523,523,523,523,523,523,523,523,523,523,523,523,523,523,523,523,523,523,523,523,523,523,523,523,523,523,523,523,523,523,523,523,523,523,523,523,523,523,523,523,523,522,514,495,475,447,359,313,265,231,204,180,177,173,167,157,132,119,109,98,81],"timestamp_mouse":[10,34,48,68,88,108,128,148,168,188,208,228,248,268,289,307,329,348,368,388,407,429,447,469,488,508,528,548,567,589,608,628,648,668,688,707,729,749,769,788,808,827,849,868,888,908,928,949,968,989,1008,1028,1048,1068,1088,1107,1128,1148,1168,1188,1208,1228,1248,1268,1289,1307,1329,1348,1367,1388,1408,1428,1448,1468,1489,1508,1527,1548,1568,1588,1608,1628,1648,1669,1688,1708,1729,1749,1768,1787,1808,1828,1848],"xSR":741.5,"ySR":469.95,"xT1":424.9,"yT1":0,"xT2":1058.1,"yT2":0,"toosoon":0,"cond_shown":"Congruent","ratio_trial":100,"L_num":10,"L_den":25,"R_num":3,"R_den":10,"correct_side":1,"subjID":"ValentinaErazoPalacio2","gender":"1","school":"sexto","age":"11"},{"start_time":1551886992271,"click_time":1551886993797,"finger_time":1551886993516,"fix_duration":1233.465677564983,"trial":10,"RT":1245,"MT":281,"sideResp":1,"stimulus":[],"xmouse":[791,791,791,791,791,791,791,791,791,791,791,791,791,791,791,791,791,791,791,791,791,791,791,791,791,791,791,791,791,791,791,791,791,791,791,791,791,791,791,791,791,791,791,791,791,791,791,791,791,789,787,780,769,758,753,751,750,750,750,750,748,742,740,724,695,677,663,645,600,578,559,545,528,512,504,496,488],"ymouse":[522,522,522,522,522,522,522,522,522,522,522,522,522,522,522,522,522,522,522,522,522,522,522,522,522,522,522,522,522,522,522,522,522,522,522,522,522,522,522,522,522,522,522,522,522,522,522,522,522,521,520,516,509,502,500,499,498,498,498,498,496,493,489,471,434,414,395,367,311,285,258,231,190,143,124,104,85],"timestamp_mouse":[10,34,45,64,84,105,124,145,163,185,204,225,245,264,283,304,324,345,364,384,404,425,444,465,485,503,525,545,564,584,605,624,645,664,684,704,724,744,765,783,804,825,845,865,884,904,925,944,964,985,1006,1025,1045,1066,1085,1105,1125,1146,1165,1185,1205,1226,1245,1265,1285,1305,1324,1345,1366,1385,1405,1424,1445,1466,1485,1506,1525],"xSR":741.5,"ySR":469.95,"xT1":424.9,"yT1":0,"xT2":1058.1,"yT2":0,"toosoon":0,"cond_shown":"Incongruent","ratio_trial":200,"L_num":7,"L_den":10,"R_num":8,"R_den":16,"correct_side":1,"subjID":"ValentinaErazoPalacio2","gender":"1","school":"sexto","age":"11"},{"start_time":1551886999075,"click_time":1551887000757,"finger_time":1551887000296,"fix_duration":517.986796579506,"trial":11,"RT":1221,"MT":461,"sideResp":1,"stimulus":[],"xmouse":[811,811,811,811,811,811,811,811,811,811,811,811,811,811,811,811,811,811,811,811,811,811,811,811,811,811,811,811,811,811,811,811,811,811,811,811,811,811,811,811,811,811,811,811,811,811,811,811,811,811,811,811,811,811,811,811,810,810,804,797,789,771,754,732,665,637,606,588,563,558,553,553,553,553,553,553,553,553,553,553,553,553,553,526,521],"ymouse":[496,498,498,498,498,498,498,498,498,498,498,498,498,498,498,498,498,498,498,498,498,498,498,498,498,498,498,498,498,498,498,498,498,498,498,498,498,498,498,498,498,498,498,498,498,498,498,498,498,498,498,498,498,498,498,498,497,496,490,486,479,468,452,432,346,292,237,187,77,34,6,6,6,6,6,6,6,6,6,6,6,6,6,8,13],"timestamp_mouse":[1,32,40,61,81,101,121,142,160,181,201,222,242,262,281,302,321,340,362,382,401,420,442,462,480,502,521,541,561,581,601,621,642,662,682,702,721,741,761,780,802,822,842,862,881,901,922,942,960,981,1001,1022,1041,1062,1081,1102,1122,1140,1162,1182,1201,1221,1240,1260,1281,1301,1321,1341,1361,1380,1400,1421,1441,1461,1482,1501,1521,1542,1561,1581,1602,1622,1642,1661,1682],"xSR":741.5,"ySR":469.95,"xT1":424.9,"yT1":0,"xT2":1058.1,"yT2":0,"toosoon":0,"cond_shown":"Congruent","ratio_trial":100,"L_num":11,"L_den":22,"R_num":4,"R_den":10,"correct_side":1,"subjID":"ValentinaErazoPalacio2","gender":"1","school":"sexto","age":"11"},{"start_time":1551887003249,"click_time":1551887005456,"finger_time":1551887004116,"fix_duration":250,"trial":12,"RT":867,"MT":1340,"sideResp":1,"stimulus":[],"xmouse":[780,780,780,780,780,780,780,780,780,780,780,780,780,780,780,780,780,780,780,780,780,780,780,780,780,780,780,780,780,780,780,780,780,780,780,780,780,780,780,781,788,803,824,862,922,945,959,974,982,990,992,992,992,992,991,980,977,977,977,983,983,983,983,983,983,983,983,983,983,983,983,983,983,983,983,983,983,983,983,983,983,983,983,983,983,983,983,983,983,983,983,983,983,983,983,983,983,983,983,983,983,983,983,983,983,983,983,983,983,983,482],"ymouse":[514,514,514,514,514,514,514,514,514,514,514,514,514,514,514,514,514,514,514,514,514,514,514,514,514,514,514,514,514,514,514,514,514,514,514,514,514,514,514,514,510,500,484,455,399,363,336,307,282,259,242,227,215,201,196,182,179,179,178,176,176,176,176,176,176,176,176,176,176,176,176,176,176,176,176,176,176,176,176,176,176,176,176,176,176,176,176,176,176,176,176,176,176,176,176,176,176,176,176,176,176,176,176,176,176,176,176,176,176,176,14],"timestamp_mouse":[10,37,48,67,87,107,126,147,167,188,208,228,248,267,287,308,328,346,368,388,408,427,448,468,487,507,527,547,566,587,607,627,648,667,688,708,728,748,767,787,806,827,848,867,888,907,927,947,967,988,1006,1028,1048,1067,1086,1107,1127,1147,1167,1186,1207,1227,1247,1266,1288,1307,1327,1347,1367,1387,1407,1427,1448,1468,1487,1507,1527,1548,1568,1588,1606,1627,1647,1667,1688,1706,1727,1748,1767,1787,1808,1827,1848,1868,1888,1907,1927,1947,1967,1987,2007,2027,2047,2068,2088,2108,2127,2147,2167,2188,2207],"xSR":741.5,"ySR":469.95,"xT1":424.9,"yT1":0,"xT2":1058.1,"yT2":0,"toosoon":0,"cond_shown":"Incongruent","ratio_trial":200,"L_num":3,"L_den":4,"R_num":11,"R_den":20,"correct_side":1,"subjID":"ValentinaErazoPalacio2","gender":"1","school":"sexto","age":"11"},{"start_time":1551887010303,"click_time":1551887011436,"finger_time":1551887010656,"fix_duration":1306.1076886562678,"trial":13,"RT":353,"MT":780,"sideResp":2,"stimulus":[],"xmouse":[768,768,768,768,768,768,768,768,768,768,768,768,768,768,767,765,759,739,729,715,700,688,682,680,679,677,674,671,668,667,665,660,659,656,655,654,652,652,652,653,667,778,871,958,1028,1089,1141,1146,1146,1146,1146,1146,1146,1140,1134,1129,1120],"ymouse":[524,524,524,524,524,524,524,524,524,524,524,524,524,524,523,522,519,511,507,504,499,498,498,498,498,498,498,498,499,499,499,499,500,500,501,501,502,502,502,502,497,454,422,380,336,293,236,214,195,175,155,138,117,110,105,101,90],"timestamp_mouse":[13,33,54,73,94,113,133,154,173,192,214,233,254,273,293,312,334,353,373,394,413,433,453,473,494,513,534,553,573,593,613,633,652,673,694,713,734,754,773,793,814,833,853,874,893,912,934,953,973,993,1013,1032,1054,1073,1094,1112,1133],"xSR":741.5,"ySR":469.95,"xT1":424.9,"yT1":0,"xT2":1058.1,"yT2":0,"toosoon":0,"cond_shown":"Congruent","ratio_trial":100,"L_num":7,"L_den":14,"R_num":15,"R_den":25,"correct_side":2,"subjID":"ValentinaErazoPalacio2","gender":"1","school":"sexto","age":"11"},{"start_time":1551887013855,"click_time":1551887015336,"finger_time":1551887014776,"fix_duration":598.0207880192328,"trial":14,"RT":921,"MT":560,"sideResp":2,"stimulus":[],"xmouse":[791,791,791,791,791,791,791,791,791,791,791,791,791,791,791,791,791,791,791,791,791,791,791,791,791,791,791,791,791,791,791,791,791,791,791,791,791,791,791,791,791,791,791,795,802,828,845,861,876,886,887,887,887,887,887,894,900,908,919,942,953,964,975,995,1007,1032,1040,1050,1056,1066,1068,1068,1069,1070,1072],"ymouse":[527,527,527,527,527,527,527,527,527,527,527,527,527,527,527,527,527,527,527,527,527,527,527,527,527,527,527,527,527,527,527,527,527,527,527,527,527,527,527,527,527,527,526,523,519,500,488,477,466,459,456,456,456,454,452,442,435,422,406,375,356,337,315,285,267,233,218,203,188,160,146,137,119,109,95],"timestamp_mouse":[11,39,40,61,81,101,121,140,162,181,201,221,242,261,282,301,320,342,362,380,402,421,441,461,481,500,521,541,560,581,602,620,642,661,681,702,722,741,761,782,801,820,841,862,881,902,921,941,962,981,1001,1021,1041,1062,1081,1102,1120,1142,1161,1181,1200,1221,1241,1261,1281,1302,1322,1341,1361,1382,1401,1421,1441,1462,1481],"xSR":741.5,"ySR":469.95,"xT1":424.9,"yT1":0,"xT2":1058.1,"yT2":0,"toosoon":0,"cond_shown":"Incongruent","ratio_trial":300,"L_num":4,"L_den":20,"R_num":2,"R_den":4,"correct_side":2,"subjID":"ValentinaErazoPalacio2","gender":"1","school":"sexto","age":"11"},{"start_time":1551887017770,"click_time":1551887019057,"finger_time":1551887018696,"fix_duration":1111.882213373698,"trial":15,"RT":926,"MT":361,"sideResp":2,"stimulus":[],"xmouse":[796,798,800,800,800,800,800,800,800,800,800,800,800,800,800,800,800,800,800,800,800,800,800,800,800,800,800,800,800,800,800,800,800,800,800,800,800,800,800,800,800,800,802,809,812,827,843,866,885,924,943,964,982,1011,1022,1033,1042,1051,1054,1055,1057,1059,1059,1061,1063],"ymouse":[515,515,515,515,515,515,515,515,515,515,515,515,515,515,515,515,515,515,515,515,515,515,515,515,515,515,515,515,515,515,515,515,515,515,515,515,515,515,515,515,515,515,513,505,501,484,464,433,407,340,308,279,257,206,187,170,153,132,120,110,106,102,101,100,99],"timestamp_mouse":[8,27,48,67,87,106,126,146,166,187,206,226,247,267,287,307,325,347,367,386,406,425,446,466,487,505,525,545,565,586,607,626,646,667,686,706,726,746,766,786,806,825,846,867,885,906,926,946,965,986,1006,1027,1047,1067,1086,1106,1126,1145,1166,1186,1206,1226,1247,1266,1286],"xSR":741.5,"ySR":469.95,"xT1":424.9,"yT1":0,"xT2":1058.1,"yT2":0,"toosoon":0,"cond_shown":"Incongruent","ratio_trial":300,"L_num":13,"L_den":26,"R_num":12,"R_den":15,"correct_side":2,"subjID":"ValentinaErazoPalacio2","gender":"1","school":"sexto","age":"11"},{"start_time":1551887021898,"click_time":1551887023496,"finger_time":1551887023236,"fix_duration":879.5586175889418,"trial":16,"RT":1338,"MT":260,"sideResp":2,"stimulus":[],"xmouse":[815,815,815,815,815,815,815,815,815,815,815,815,815,815,815,815,815,815,815,815,815,815,815,815,815,815,815,815,815,815,815,815,815,815,815,815,815,815,815,815,815,815,815,815,815,815,815,815,815,815,815,815,815,815,815,815,815,816,818,818,818,818,818,818,820,823,829,857,875,895,921,950,1029,1049,1070,1086,1094,1108,1126,1130,1134],"ymouse":[519,519,519,519,519,519,519,519,519,519,519,519,519,519,519,519,519,519,519,519,519,519,519,519,519,519,519,519,519,519,519,519,519,519,519,519,519,519,519,519,519,519,519,519,519,519,519,519,519,519,519,519,519,519,519,517,515,514,513,513,513,513,513,512,511,510,505,482,468,446,420,382,253,222,194,172,163,146,114,104,95],"timestamp_mouse":[1,18,39,59,77,99,119,138,159,179,199,219,239,258,278,299,317,339,359,377,399,418,438,459,479,498,518,538,558,579,597,618,639,658,677,699,719,738,758,778,798,818,838,858,877,898,918,939,958,978,998,1019,1038,1058,1078,1098,1118,1138,1159,1178,1199,1218,1239,1258,1279,1298,1318,1338,1358,1377,1398,1418,1438,1458,1478,1498,1518,1539,1558,1578,1598],"xSR":741.5,"ySR":469.95,"xT1":424.9,"yT1":0,"xT2":1058.1,"yT2":0,"toosoon":0,"cond_shown":"Congruent","ratio_trial":100,"L_num":2,"L_den":5,"R_num":11,"R_den":22,"correct_side":2,"subjID":"ValentinaErazoPalacio2","gender":"1","school":"sexto","age":"11"},{"start_time":1551887027672,"click_time":1551887029976,"finger_time":1551887029256,"fix_duration":1334.9123206351208,"trial":17,"RT":1584,"MT":720,"sideResp":2,"stimulus":[],"xmouse":[799,799,799,799,799,799,799,799,799,799,799,799,799,799,799,799,799,799,799,799,799,799,799,799,799,799,799,799,799,799,799,799,799,799,799,799,799,799,799,799,799,799,799,799,799,799,799,799,799,799,799,799,799,799,799,799,799,799,799,799,799,799,799,799,799,799,799,799,799,799,799,799,799,799,799,799,797,793,764,738,717,683,654,633,632,632,632,632,632,632,632,632,633,635,639,643,649,656,665,710,723,746,783,824,837,848,858,871,889,931,958,974,1018,1043,1089,1103],"ymouse":[510,510,510,510,510,510,510,510,510,510,510,510,510,510,510,510,510,510,510,510,510,510,510,510,510,510,510,510,510,510,510,510,510,510,510,510,510,510,510,510,510,510,510,510,510,510,510,510,510,510,510,510,510,510,510,510,510,510,510,510,510,510,510,510,510,510,510,510,510,510,510,510,510,510,510,510,508,504,481,461,444,425,408,391,390,390,390,390,389,389,389,388,388,388,387,389,392,396,401,413,418,421,424,424,420,411,400,390,374,326,296,272,209,169,113,91],"timestamp_mouse":[11,33,44,65,85,105,124,144,164,184,205,225,245,264,285,303,325,345,363,385,404,424,444,464,484,505,525,545,564,583,605,624,643,664,685,704,725,745,764,783,805,824,844,864,884,903,924,944,963,984,1004,1025,1044,1064,1085,1105,1125,1143,1164,1183,1204,1224,1245,1264,1284,1305,1325,1344,1364,1383,1404,1424,1444,1464,1484,1503,1524,1543,1564,1584,1604,1623,1644,1664,1683,1704,1724,1744,1765,1784,1804,1825,1844,1864,1885,1904,1924,1944,1964,1984,2004,2024,2045,2064,2084,2104,2123,2144,2165,2184,2204,2224,2245,2264,2285,2304],"xSR":741.5,"ySR":469.95,"xT1":424.9,"yT1":0,"xT2":1058.1,"yT2":0,"toosoon":0,"cond_shown":"Congruent","ratio_trial":100,"L_num":6,"L_den":20,"R_num":5,"R_den":25,"correct_side":1,"subjID":"ValentinaErazoPalacio2","gender":"1","school":"sexto","age":"11"},{"start_time":1551887031821,"click_time":1551887033256,"finger_time":1551887032817,"fix_duration":342.79602345336656,"trial":18,"RT":996,"MT":439,"sideResp":2,"stimulus":[],"xmouse":[788,788,788,788,788,788,788,788,788,788,788,788,788,788,788,788,788,788,788,788,788,788,788,788,788,788,788,788,788,788,788,788,788,788,788,788,788,788,788,788,788,786,784,783,783,790,797,805,815,822,854,874,894,930,957,1009,1029,1044,1055,1056,1056,1056,1054,1052,1052,1052,1055,1059,1064,1074,1099,1108],"ymouse":[508,509,509,509,510,511,512,512,512,512,512,512,512,512,512,512,512,512,512,512,512,512,512,512,512,512,512,512,512,512,512,512,512,512,512,512,512,512,512,512,512,512,511,510,509,497,490,482,471,465,431,412,388,352,325,275,253,233,214,210,191,182,172,165,159,153,147,142,135,127,101,86],"timestamp_mouse":[15,34,55,75,96,116,135,156,176,195,215,235,256,276,295,315,335,354,376,395,416,436,456,474,496,516,536,555,575,594,616,634,655,676,695,715,736,755,775,796,816,836,855,875,896,915,936,954,975,996,1017,1034,1054,1075,1095,1115,1134,1154,1175,1195,1215,1235,1255,1275,1295,1316,1334,1355,1375,1394,1416,1435],"xSR":741.5,"ySR":469.95,"xT1":424.9,"yT1":0,"xT2":1058.1,"yT2":0,"toosoon":0,"cond_shown":"Incongruent","ratio_trial":300,"L_num":4,"L_den":20,"R_num":2,"R_den":4,"correct_side":2,"subjID":"ValentinaErazoPalacio2","gender":"1","school":"sexto","age":"11"},{"start_time":1551887036058,"click_time":1551887037856,"finger_time":1551887037476,"fix_duration":341.24884994191694,"trial":19,"RT":1418,"MT":380,"sideResp":2,"stimulus":[],"xmouse":[801,801,801,801,801,801,801,801,800,800,800,800,800,800,800,800,800,799,799,799,799,799,799,799,799,799,799,799,799,799,799,799,799,799,799,797,794,789,781,778,776,776,776,776,776,776,776,776,776,776,776,776,776,776,776,776,776,776,776,776,776,776,776,779,782,787,795,800,815,824,838,848,863,898,914,929,949,967,1010,1031,1045,1061,1065,1076,1076,1078,1078,1080,1085,1092],"ymouse":[534,534,534,534,534,534,534,534,534,534,534,534,534,534,534,534,534,534,534,534,534,534,534,534,534,534,534,534,534,534,534,534,534,534,534,534,534,535,537,537,537,537,537,537,537,537,537,537,537,537,537,537,537,537,537,537,537,537,537,537,537,537,537,536,534,532,528,524,505,486,461,438,413,357,339,323,307,291,253,229,209,185,177,157,152,147,139,131,110,98],"timestamp_mouse":[19,44,58,78,98,117,139,158,178,198,219,239,258,278,298,318,338,358,378,399,419,439,459,477,499,518,538,558,577,599,618,638,659,678,699,718,738,757,778,798,818,837,859,878,899,918,939,958,978,998,1018,1038,1058,1078,1099,1119,1138,1159,1178,1198,1219,1238,1259,1278,1298,1319,1338,1358,1378,1398,1418,1438,1458,1478,1497,1517,1539,1559,1578,1597,1617,1638,1658,1678,1697,1717,1739,1758,1778,1798],"xSR":741.5,"ySR":469.95,"xT1":424.9,"yT1":0,"xT2":1058.1,"yT2":0,"toosoon":0,"cond_shown":"Congruent","ratio_trial":200,"L_num":9,"L_den":30,"R_num":13,"R_den":26,"correct_side":2,"subjID":"ValentinaErazoPalacio2","gender":"1","school":"sexto","age":"11"},{"start_time":1551887040601,"click_time":1551887042157,"finger_time":1551887041756,"fix_duration":864.9522513743343,"trial":20,"RT":1155,"MT":401,"sideResp":2,"stimulus":[],"xmouse":[801,801,801,801,801,801,801,801,801,801,801,801,801,801,801,801,801,801,801,801,801,801,801,801,801,801,801,801,801,801,801,801,801,801,801,801,801,801,801,801,801,801,801,801,801,801,801,801,801,801,801,801,801,803,805,813,827,832,838,846,857,887,907,935,956,967,981,993,1001,1008,1012,1021,1026,1029,1038,1045,1057,1066],"ymouse":[507,507,507,507,507,507,507,507,507,507,507,507,507,507,507,507,507,507,507,507,507,507,507,507,507,507,507,507,507,507,507,507,507,507,507,507,507,507,507,507,507,507,507,507,507,507,507,507,507,507,507,507,507,504,502,491,476,468,458,448,433,399,380,348,326,301,278,233,210,192,179,158,151,144,130,121,105,98],"timestamp_mouse":[15,39,55,76,95,115,135,155,175,196,216,236,255,275,295,315,336,356,375,395,416,435,455,476,496,515,536,554,576,594,615,635,654,675,696,715,735,756,775,794,815,835,855,876,895,915,935,954,975,994,1016,1034,1054,1075,1095,1115,1135,1155,1175,1195,1214,1236,1274,1276,1295,1316,1335,1355,1375,1395,1414,1435,1455,1474,1495,1516,1535,1556],"xSR":741.5,"ySR":469.95,"xT1":424.9,"yT1":0,"xT2":1058.1,"yT2":0,"toosoon":0,"cond_shown":"Congruent","ratio_trial":300,"L_num":1,"L_den":20,"R_num":7,"R_den":20,"correct_side":2,"subjID":"ValentinaErazoPalacio2","gender":"1","school":"sexto","age":"11"},{"start_time":1551887045090,"click_time":1551887046616,"finger_time":1551887046195,"fix_duration":951.9852548811295,"trial":21,"RT":1105,"MT":421,"sideResp":1,"stimulus":[],"xmouse":[803,803,803,803,803,803,803,803,803,803,803,803,803,803,803,803,803,803,803,803,803,803,803,803,803,803,803,803,803,803,803,803,803,803,803,803,803,803,803,803,803,803,803,803,803,803,803,803,801,798,797,794,784,760,742,718,691,634,614,601,594,593,580,567,553,542,530,525,525,525,526,525,522,519,517,516,516],"ymouse":[506,506,506,506,506,506,506,506,506,506,506,506,506,506,506,506,506,506,506,506,506,506,506,506,506,506,506,506,506,506,506,506,506,506,506,506,506,506,506,506,506,506,506,506,506,506,506,506,506,506,506,506,505,500,495,489,477,448,429,412,391,382,338,313,284,261,236,196,181,166,143,137,113,106,102,100,98],"timestamp_mouse":[10,30,47,65,87,105,127,147,166,186,207,227,246,266,285,306,327,346,365,386,406,425,447,465,486,507,525,547,565,586,606,626,646,666,686,706,727,746,767,787,806,826,847,867,886,907,927,947,966,986,1005,1025,1046,1067,1086,1105,1126,1146,1166,1186,1205,1227,1246,1266,1285,1307,1327,1346,1366,1386,1406,1427,1446,1466,1486,1506,1526],"xSR":741.5,"ySR":469.95,"xT1":424.9,"yT1":0,"xT2":1058.1,"yT2":0,"toosoon":0,"cond_shown":"Incongruent","ratio_trial":200,"L_num":4,"L_den":5,"R_num":6,"R_den":10,"correct_side":1,"subjID":"ValentinaErazoPalacio2","gender":"1","school":"sexto","age":"11"},{"start_time":1551887050619,"click_time":1551887051836,"finger_time":1551887051336,"fix_duration":1260.8293714826953,"trial":22,"RT":717,"MT":500,"sideResp":1,"stimulus":[],"xmouse":[794,794,794,794,794,794,794,794,794,794,794,794,794,794,794,794,794,794,794,794,794,794,794,794,794,794,794,793,791,788,782,773,766,751,743,736,717,709,692,673,627,598,547,472,441,409,396,391,391,391,397,402,406,410,413,418,421,422,423,424,427],"ymouse":[530,530,530,530,530,530,530,530,530,530,530,530,530,530,530,530,530,530,530,530,530,530,530,530,530,530,530,530,533,534,536,540,544,548,550,550,550,550,550,545,522,508,485,446,427,384,357,328,311,293,263,237,209,174,129,81,69,62,61,61,57],"timestamp_mouse":[17,50,57,78,97,117,137,157,178,197,217,236,257,276,296,318,338,357,378,397,417,438,456,478,496,517,537,557,577,597,617,638,656,678,696,717,737,757,778,797,817,836,857,877,896,917,937,957,978,997,1017,1036,1057,1078,1097,1117,1136,1156,1176,1198,1217],"xSR":741.5,"ySR":469.95,"xT1":424.9,"yT1":0,"xT2":1058.1,"yT2":0,"toosoon":0,"cond_shown":"Congruent","ratio_trial":200,"L_num":12,"L_den":20,"R_num":6,"R_den":15,"correct_side":1,"subjID":"ValentinaErazoPalacio2","gender":"1","school":"sexto","age":"11"},{"start_time":1551887054725,"click_time":1551887056199,"finger_time":1551887055618,"fix_duration":286.2318047970088,"trial":23,"RT":893,"MT":581,"sideResp":1,"stimulus":[],"xmouse":[797,797,797,797,797,797,797,797,797,797,797,797,797,797,797,797,797,797,797,797,797,797,797,797,797,797,797,796,796,796,795,794,794,794,794,794,794,793,793,790,784,777,767,754,737,694,658,615,554,535,409,356,326,310,307,312,324,335,346,355,367,371,372,374,375,378,388,393,398,403,409,414,424,432],"ymouse":[489,489,489,489,489,489,489,489,490,491,493,493,493,493,493,493,493,493,493,493,493,493,493,493,493,493,494,495,496,497,499,500,501,501,501,502,502,502,503,503,503,503,502,502,502,502,500,491,473,464,390,346,301,266,238,192,169,150,132,114,105,104,104,103,102,101,99,96,95,94,90,88,86,82],"timestamp_mouse":[12,38,52,72,92,112,132,152,173,193,212,234,252,272,292,312,334,353,373,393,412,434,452,472,492,512,532,552,572,593,612,633,653,672,693,712,732,753,772,794,813,832,852,872,893,914,932,952,972,992,1014,1032,1053,1074,1092,1114,1132,1153,1172,1193,1213,1232,1252,1273,1293,1312,1332,1353,1372,1392,1413,1433,1452,1473],"xSR":741.5,"ySR":469.95,"xT1":424.9,"yT1":0,"xT2":1058.1,"yT2":0,"toosoon":0,"cond_shown":"Incongruent","ratio_trial":200,"L_num":7,"L_den":15,"R_num":4,"R_den":6,"correct_side":2,"subjID":"ValentinaErazoPalacio2","gender":"1","school":"sexto","age":"11"},{"start_time":1551887058923,"click_time":1551887061618,"finger_time":1551887059257,"fix_duration":1363.3781182687057,"trial":24,"RT":334,"MT":2361,"sideResp":1,"stimulus":[],"xmouse":[789,789,789,789,789,789,789,789,788,788,785,782,781,779,777,775,769,766,761,754,745,741,736,732,726,714,707,700,694,686,682,675,672,671,669,667,665,664,662,659,652,646,642,639,639,638,625,613,602,595,593,593,593,593,593,593,593,593,593,593,593,593,593,593,593,593,593,593,593,592,591,591,589,589,589,588,586,585,585,584,584,584,584,584,584,584,584,584,584,584,584,584,584,584,584,584,584,584,584,584,584,583,583,582,581,580,580,579,579,579,579,579,578,578,578,576,576,576,576,576,576,576,576,576,576,576,576,571,561,535,494,484,480,480,480],"ymouse":[540,540,540,540,540,540,540,540,541,542,546,551,555,559,563,566,577,582,589,597,606,609,614,618,624,633,636,638,640,642,643,645,646,646,646,646,646,646,646,646,641,634,624,608,578,548,501,474,455,444,441,441,441,441,441,441,441,441,441,441,441,441,441,441,441,441,441,441,441,441,442,443,444,444,445,445,447,447,447,447,448,450,451,451,452,454,455,456,457,457,457,457,457,457,457,457,457,457,458,459,460,461,462,462,462,462,463,463,463,463,463,463,463,463,464,464,464,464,464,464,464,464,464,464,464,461,450,426,401,352,246,194,151,117,98],"timestamp_mouse":[14,34,55,74,95,114,134,154,174,194,215,234,254,275,295,314,334,354,374,395,415,434,455,474,496,515,534,554,576,594,614,634,654,675,694,715,734,754,775,794,815,834,854,875,895,915,934,954,974,994,1015,1034,1055,1076,1094,1114,1135,1155,1174,1194,1216,1236,1255,1275,1295,1314,1335,1355,1375,1395,1414,1434,1455,1475,1494,1514,1534,1555,1575,1595,1615,1634,1655,1674,1695,1715,1734,1755,1774,1795,1815,1835,1854,1875,1896,1915,1934,1955,1975,1995,2014,2034,2055,2075,2095,2115,2134,2154,2175,2196,2215,2235,2254,2274,2295,2315,2335,2354,2376,2395,2415,2435,2455,2476,2494,2514,2534,2554,2574,2595,2615,2635,2654,2674,2695],"xSR":741.5,"ySR":469.95,"xT1":424.9,"yT1":0,"xT2":1058.1,"yT2":0,"toosoon":0,"cond_shown":"Incongruent","ratio_trial":300,"L_num":1,"L_den":2,"R_num":3,"R_den":15,"correct_side":1,"subjID":"ValentinaErazoPalacio2","gender":"1","school":"sexto","age":"11"},{"start_time":1551887063976,"click_time":1551887065818,"finger_time":1551887065277,"fix_duration":937.9787689934784,"trial":25,"RT":1301,"MT":541,"sideResp":1,"stimulus":[],"xmouse":[798,798,798,798,798,798,798,798,798,798,798,798,798,798,798,798,798,798,798,798,798,798,798,798,798,798,798,798,798,798,798,798,798,798,798,798,798,798,798,798,798,798,798,798,798,798,798,798,798,798,798,798,798,798,798,798,798,798,798,798,796,795,792,786,746,723,681,608,569,507,484,470,454,445,442,441,439,438,440,446,449,454,460,469,471,472,472,472,472,472,472,470,469],"ymouse":[524,524,524,524,524,524,524,524,524,524,524,524,524,524,524,524,524,524,524,524,524,524,524,524,524,524,524,524,524,524,524,524,524,524,524,524,524,524,524,524,524,524,524,524,524,524,524,524,524,524,524,524,524,524,524,524,524,524,524,524,523,523,520,515,489,474,450,406,380,331,307,284,261,220,202,184,165,146,135,135,133,131,129,122,118,115,113,112,110,108,106,101,96],"timestamp_mouse":[9,33,41,61,81,103,121,142,161,182,202,222,241,263,282,301,321,341,361,382,402,421,442,461,482,501,522,542,561,582,602,622,642,662,681,702,721,741,761,781,801,821,841,861,882,901,922,941,962,981,1002,1021,1043,1061,1082,1102,1122,1141,1161,1182,1202,1221,1241,1261,1282,1301,1321,1341,1362,1381,1402,1421,1442,1462,1481,1501,1523,1541,1562,1581,1601,1621,1642,1661,1682,1701,1722,1742,1762,1781,1801,1822,1842],"xSR":741.5,"ySR":469.95,"xT1":424.9,"yT1":0,"xT2":1058.1,"yT2":0,"toosoon":0,"cond_shown":"Congruent","ratio_trial":100,"L_num":8,"L_den":16,"R_num":2,"R_den":5,"correct_side":1,"subjID":"ValentinaErazoPalacio2","gender":"1","school":"sexto","age":"11"},{"start_time":1551887069574,"click_time":1551887072157,"finger_time":1551887070678,"fix_duration":955.3613521014976,"trial":26,"RT":1104,"MT":1479,"sideResp":2,"stimulus":[],"xmouse":[812,812,812,812,812,812,812,812,812,812,812,812,812,812,812,812,812,812,812,812,812,812,812,812,812,812,812,812,812,812,812,812,812,812,812,812,812,812,812,812,812,812,812,812,812,812,812,812,812,810,808,802,794,753,742,737,737,737,737,737,737,737,737,737,737,737,737,737,737,737,737,737,736,735,733,727,717,694,652,633,617,604,593,586,586,586,586,586,586,586,586,586,586,586,586,586,586,587,588,589,590,591,593,597,607,611,617,624,631,634,648,668,691,745,773,796,819,848,870,890,907,926,950,969,993,1001,1011,1028,1052,1060],"ymouse":[533,533,533,533,533,533,533,533,533,533,533,533,533,533,533,533,533,533,533,533,533,533,533,533,533,533,533,533,533,533,533,533,533,533,533,533,533,533,533,533,533,533,533,533,533,533,533,533,532,532,531,530,526,515,513,513,512,512,512,512,512,512,512,512,512,512,512,512,512,512,511,510,508,503,499,489,473,440,383,353,324,299,280,265,264,264,264,264,264,264,264,264,264,264,264,264,264,264,265,266,266,266,267,269,273,275,279,282,286,287,289,289,282,255,238,223,208,189,172,159,147,136,121,109,88,81,76,74,74,74],"timestamp_mouse":[11,31,44,63,84,104,124,143,163,183,203,223,244,264,284,304,325,343,364,384,403,423,445,463,483,505,523,543,565,584,603,623,644,663,684,705,723,743,763,783,804,823,845,864,883,904,923,943,963,984,1003,1024,1044,1064,1083,1104,1125,1143,1164,1184,1204,1223,1244,1264,1285,1305,1324,1343,1365,1384,1404,1423,1443,1464,1483,1503,1524,1544,1564,1583,1603,1624,1644,1664,1684,1703,1724,1743,1763,1784,1804,1823,1844,1864,1883,1903,1924,1944,1963,1983,2004,2025,2044,2063,2083,2104,2124,2144,2163,2184,2204,2223,2245,2264,2283,2303,2324,2343,2364,2383,2403,2424,2443,2464,2483,2504,2523,2545,2564,2583],"xSR":741.5,"ySR":469.95,"xT1":424.9,"yT1":0,"xT2":1058.1,"yT2":0,"toosoon":0,"cond_shown":"Incongruent","ratio_trial":100,"L_num":1,"L_den":2,"R_num":8,"R_den":20,"correct_side":1,"subjID":"ValentinaErazoPalacio2","gender":"1","school":"sexto","age":"11"},{"start_time":1551887073794,"click_time":1551887075818,"finger_time":1551887075337,"fix_duration":456.2731339419638,"trial":27,"RT":1543,"MT":481,"sideResp":2,"stimulus":[],"xmouse":[790,790,790,790,790,790,790,790,790,790,790,790,790,790,790,790,790,790,790,790,790,790,790,790,790,790,790,790,790,790,790,790,790,790,790,790,790,790,790,790,790,790,790,790,790,790,790,790,790,790,790,790,790,790,790,790,790,790,790,790,790,790,790,790,790,790,790,790,790,790,790,791,795,799,805,817,827,852,873,876,892,908,936,955,976,1011,1017,1047,1074,1082,1087,1091,1097,1097,1098,1099,1099,1103,1106,1106,1106,1107],"ymouse":[522,522,522,522,522,522,522,522,522,522,522,522,522,522,522,522,522,522,522,522,522,522,522,522,522,522,522,522,522,522,522,522,522,522,522,522,522,522,522,522,522,522,522,522,522,522,522,522,522,522,522,522,522,522,522,522,522,522,522,522,522,522,522,522,522,522,522,522,522,522,522,519,513,510,503,493,482,456,428,424,409,393,360,336,311,269,255,212,165,150,140,133,124,122,120,119,118,110,106,104,102,95],"timestamp_mouse":[10,23,43,64,85,103,124,144,164,183,204,223,243,263,284,304,323,343,365,384,404,423,443,463,483,503,524,543,563,584,603,624,643,664,684,705,724,744,763,783,804,824,845,863,884,903,924,943,964,983,1003,1023,1044,1063,1083,1103,1123,1143,1165,1183,1203,1223,1243,1263,1283,1303,1323,1343,1363,1385,1405,1423,1443,1464,1483,1503,1525,1543,1564,1583,1605,1625,1644,1663,1684,1704,1724,1743,1763,1784,1803,1824,1844,1863,1884,1903,1923,1943,1963,1983,2003,2024],"xSR":741.5,"ySR":469.95,"xT1":424.9,"yT1":0,"xT2":1058.1,"yT2":0,"toosoon":0,"cond_shown":"Congruent","ratio_trial":100,"L_num":7,"L_den":14,"R_num":15,"R_den":25,"correct_side":2,"subjID":"ValentinaErazoPalacio2","gender":"1","school":"sexto","age":"11"},{"start_time":1551887077661,"click_time":1551887080077,"finger_time":1551887079198,"fix_duration":423.80290934384277,"trial":28,"RT":1537,"MT":879,"sideResp":2,"stimulus":[],"xmouse":[796,796,796,796,796,796,796,796,796,796,796,796,796,796,796,796,795,795,795,795,795,795,795,795,795,795,795,795,795,795,795,795,795,795,795,795,795,795,795,795,795,795,795,795,795,795,795,795,795,795,795,795,795,795,795,795,795,795,795,795,795,795,795,795,795,795,795,795,795,795,795,796,799,817,828,840,848,852,852,852,852,852,852,852,852,852,852,853,857,862,864,871,874,876,879,879,879,879,879,879,879,879,879,879,879,879,880,882,886,895,901,916,937,972,987,1002,1015,1028,1049,1059,1069],"ymouse":[527,527,527,527,527,527,527,527,527,527,527,527,527,527,527,527,527,527,527,527,527,527,527,527,527,527,527,527,527,527,527,527,527,527,527,527,527,527,527,527,527,527,527,527,527,527,527,527,527,527,527,527,527,527,527,527,527,527,527,527,527,527,527,527,527,527,527,527,527,527,527,526,525,507,495,484,476,470,467,467,467,467,467,467,467,467,466,464,458,451,446,433,426,419,410,410,410,410,410,410,410,410,410,410,410,408,406,402,399,379,363,340,305,250,222,197,176,156,120,103,86],"timestamp_mouse":[17,44,57,76,96,116,136,156,176,196,216,236,256,276,298,317,336,357,377,398,416,436,456,478,496,517,536,557,576,598,616,637,657,676,696,716,736,756,776,796,816,836,856,877,897,916,938,956,976,996,1016,1036,1056,1077,1096,1116,1136,1157,1176,1198,1217,1238,1257,1278,1297,1318,1337,1358,1376,1397,1416,1438,1456,1476,1497,1517,1537,1556,1576,1597,1616,1636,1657,1677,1698,1717,1737,1756,1776,1797,1816,1836,1857,1876,1896,1916,1936,1958,1977,1996,2016,2036,2057,2077,2097,2117,2137,2157,2177,2196,2216,2237,2256,2277,2296,2317,2336,2356,2377,2396,2416],"xSR":741.5,"ySR":469.95,"xT1":424.9,"yT1":0,"xT2":1058.1,"yT2":0,"toosoon":0,"cond_shown":"Incongruent","ratio_trial":300,"L_num":4,"L_den":20,"R_num":2,"R_den":4,"correct_side":2,"subjID":"ValentinaErazoPalacio2","gender":"1","school":"sexto","age":"11"},{"start_time":1551887082565,"click_time":1551887084518,"finger_time":1551887084078,"fix_duration":727.2599592669374,"trial":29,"RT":1513,"MT":440,"sideResp":1,"stimulus":[],"xmouse":[781,781,781,781,781,781,781,781,781,781,781,781,781,781,781,781,781,781,781,781,781,781,781,781,781,781,781,781,781,781,781,781,781,781,781,781,780,779,779,779,779,779,779,779,779,779,779,779,779,779,779,779,779,779,779,779,779,779,779,779,779,779,779,779,779,779,779,779,779,779,779,778,776,771,743,714,688,643,553,532,514,499,488,484,482,479,478,475,475,475,475,475,475,475,475,475,476,482],"ymouse":[510,510,510,510,510,510,510,510,510,510,510,510,510,510,510,510,510,510,510,510,510,510,510,510,510,510,510,510,510,510,510,510,510,511,514,517,522,523,524,524,524,524,524,524,524,524,524,524,524,524,524,524,524,524,524,524,524,524,524,524,524,524,524,524,524,524,524,524,524,524,524,524,524,520,507,493,480,456,407,389,371,353,336,316,302,286,271,246,231,207,194,181,170,155,124,109,102,95],"timestamp_mouse":[13,37,53,73,92,113,132,152,172,193,213,233,252,273,292,314,333,353,372,393,412,434,452,474,493,513,532,553,572,592,614,633,652,672,693,713,732,753,774,793,812,832,852,873,893,912,934,953,972,993,1012,1032,1053,1074,1093,1113,1133,1153,1172,1193,1213,1234,1253,1273,1292,1312,1332,1353,1372,1393,1412,1432,1453,1472,1492,1513,1534,1552,1572,1592,1612,1632,1654,1673,1692,1712,1733,1753,1773,1792,1812,1833,1853,1873,1892,1913,1932,1952],"xSR":741.5,"ySR":469.95,"xT1":424.9,"yT1":0,"xT2":1058.1,"yT2":0,"toosoon":0,"cond_shown":"Congruent","ratio_trial":100,"L_num":11,"L_den":22,"R_num":6,"R_den":15,"correct_side":1,"subjID":"ValentinaErazoPalacio2","gender":"1","school":"sexto","age":"11"},{"start_time":1551887086781,"click_time":1551887088097,"finger_time":1551887087658,"fix_duration":1102.1094082618308,"trial":30,"RT":877,"MT":439,"sideResp":1,"stimulus":[],"xmouse":[804,804,804,804,804,804,804,804,804,804,804,804,804,804,804,804,804,804,804,804,804,804,804,805,805,805,805,806,806,806,806,806,806,805,804,803,803,802,798,790,773,755,743,691,646,629,578,514,492,473,460,450,438,431,429,427,423,421,421,421,421,423,428,434,445,445],"ymouse":[516,516,516,516,516,516,516,516,516,516,516,516,516,516,516,516,516,516,516,516,516,516,516,516,516,516,516,516,516,516,516,516,516,515,514,514,514,514,514,513,513,511,510,498,485,480,455,412,394,381,373,364,347,336,327,309,282,247,234,221,208,186,140,122,104,99],"timestamp_mouse":[16,40,57,76,97,116,137,156,176,196,217,236,257,277,297,318,336,356,377,396,418,436,458,478,497,518,536,556,577,596,616,637,656,676,697,717,736,757,776,797,817,837,856,877,897,917,936,957,976,996,1016,1037,1057,1076,1096,1116,1137,1157,1176,1196,1216,1237,1257,1276,1297,1316],"xSR":741.5,"ySR":469.95,"xT1":424.9,"yT1":0,"xT2":1058.1,"yT2":0,"toosoon":0,"cond_shown":"Congruent","ratio_trial":200,"L_num":21,"L_den":30,"R_num":2,"R_den":4,"correct_side":1,"subjID":"ValentinaErazoPalacio2","gender":"1","school":"sexto","age":"11"},{"start_time":1551887090772,"click_time":1551887092038,"finger_time":1551887091698,"fix_duration":1172.6229843879833,"trial":31,"RT":926,"MT":340,"sideResp":2,"stimulus":[],"xmouse":[784,784,784,784,784,784,784,784,784,784,784,784,784,784,784,784,784,784,784,784,784,784,784,784,784,784,784,784,784,784,784,784,784,784,784,784,784,784,788,791,795,798,801,806,823,840,857,876,917,933,941,952,961,980,991,1000,1013,1033,1055,1066,1073,1081,1087,1094],"ymouse":[526,526,526,526,526,526,526,526,526,526,526,526,526,526,526,526,526,526,526,526,526,526,526,526,526,526,526,526,526,526,526,526,526,526,526,526,526,526,522,519,516,514,510,507,490,474,455,436,387,370,353,336,315,281,264,243,224,191,153,136,121,109,100,85],"timestamp_mouse":[14,36,46,65,85,107,125,147,165,186,206,226,246,266,285,305,325,345,365,387,406,425,446,465,485,507,526,545,567,585,605,627,646,665,685,706,726,745,765,786,805,825,847,865,885,906,926,945,966,985,1005,1025,1046,1066,1086,1105,1125,1146,1166,1185,1205,1226,1245,1266],"xSR":741.5,"ySR":469.95,"xT1":424.9,"yT1":0,"xT2":1058.1,"yT2":0,"toosoon":0,"cond_shown":"Congruent","ratio_trial":200,"L_num":1,"L_den":2,"R_num":21,"R_den":30,"correct_side":2,"subjID":"ValentinaErazoPalacio2","gender":"1","school":"sexto","age":"11"},{"start_time":1551887094103,"click_time":1551887095857,"finger_time":1551887095497,"fix_duration":825.9260007822126,"trial":32,"RT":1394,"MT":360,"sideResp":1,"stimulus":[],"xmouse":[812,811,811,811,811,811,811,811,811,811,810,810,809,809,809,809,809,809,809,809,809,809,809,809,809,809,809,809,809,809,809,809,809,809,809,809,809,809,809,809,809,809,809,809,809,809,806,801,797,790,783,782,782,782,782,782,782,782,782,782,782,782,782,782,782,782,781,764,745,706,679,634,618,600,583,563,527,512,495,483,476,475,473,473,473,473,471,471],"ymouse":[534,534,534,534,534,533,533,533,532,530,529,527,527,526,526,526,526,526,526,526,526,526,526,526,526,526,526,526,526,526,526,526,526,526,526,526,526,526,526,526,526,526,526,526,526,526,524,523,523,523,522,522,522,522,522,522,522,522,522,522,522,522,522,522,522,522,522,513,502,480,463,433,419,401,385,363,314,287,261,240,219,190,170,159,142,125,101,90],"timestamp_mouse":[14,34,54,75,94,114,135,154,176,194,214,234,254,275,295,315,334,356,374,396,414,435,455,474,494,514,534,554,574,595,614,635,654,675,694,716,735,755,774,794,815,835,854,874,894,916,934,955,974,996,1015,1034,1054,1075,1095,1115,1134,1154,1174,1194,1214,1235,1256,1275,1294,1315,1334,1354,1375,1394,1414,1434,1454,1474,1494,1515,1534,1554,1574,1595,1614,1635,1654,1674,1694,1715,1735,1754],"xSR":741.5,"ySR":469.95,"xT1":424.9,"yT1":0,"xT2":1058.1,"yT2":0,"toosoon":0,"cond_shown":"Incongruent","ratio_trial":100,"L_num":13,"L_den":26,"R_num":12,"R_den":20,"correct_side":2,"subjID":"ValentinaErazoPalacio2","gender":"1","school":"sexto","age":"11"},{"start_time":1551887097270,"click_time":1551887099077,"finger_time":1551887098697,"fix_duration":250,"trial":33,"RT":1427,"MT":380,"sideResp":1,"stimulus":[],"xmouse":[801,801,801,801,801,801,801,801,801,801,801,801,801,801,801,801,801,801,801,801,801,801,801,801,801,801,801,801,801,801,801,801,801,801,801,801,801,801,801,801,801,801,801,801,801,801,801,801,801,801,801,801,801,801,801,801,801,801,800,800,800,800,800,799,799,797,795,793,785,777,760,735,708,592,550,518,496,483,469,465,460,455,454,453,453,453,453,456,471,473,472],"ymouse":[529,529,529,529,529,529,529,529,529,529,529,529,529,529,529,529,529,529,529,529,529,529,529,529,529,529,529,529,529,529,529,529,529,529,529,529,529,529,529,529,529,529,529,529,529,529,529,529,529,529,529,529,529,529,529,529,528,528,528,528,528,528,528,528,528,528,528,528,528,527,521,511,498,445,420,398,378,355,318,298,279,261,244,206,189,171,156,142,120,110,97],"timestamp_mouse":[10,31,48,68,87,107,129,147,167,187,207,228,248,267,287,308,327,348,369,387,409,428,447,467,488,507,527,548,568,589,608,629,647,669,688,707,729,748,768,787,808,829,848,869,888,908,927,948,967,987,1008,1028,1048,1067,1089,1108,1127,1148,1168,1188,1208,1227,1247,1267,1288,1308,1328,1347,1368,1387,1408,1427,1447,1467,1487,1507,1528,1548,1569,1587,1607,1627,1647,1667,1687,1708,1728,1748,1768,1787,1807],"xSR":741.5,"ySR":469.95,"xT1":424.9,"yT1":0,"xT2":1058.1,"yT2":0,"toosoon":0,"cond_shown":"Incongruent","ratio_trial":100,"L_num":6,"L_den":12,"R_num":3,"R_den":5,"correct_side":2,"subjID":"ValentinaErazoPalacio2","gender":"1","school":"sexto","age":"11"},{"start_time":1551887100650,"click_time":1551887102338,"finger_time":1551887102037,"fix_duration":250,"trial":34,"RT":1387,"MT":301,"sideResp":1,"stimulus":[],"xmouse":[793,793,793,793,793,793,793,793,793,793,793,793,793,793,793,793,793,793,793,793,793,793,793,793,793,793,793,793,793,793,793,793,793,793,793,793,793,793,793,793,793,793,793,793,793,793,793,793,793,793,793,793,793,793,793,793,793,793,793,793,793,793,793,793,793,790,786,775,755,686,646,599,561,514,483,445,438,437,437,437,445,449,452,454,455],"ymouse":[543,543,543,543,543,543,543,543,543,543,543,543,543,543,543,543,543,543,543,543,543,543,543,543,543,543,543,543,543,543,543,543,543,543,543,543,543,543,543,543,543,543,543,543,543,543,543,543,543,543,543,543,543,543,543,543,543,543,543,543,543,543,543,543,542,541,539,535,527,499,481,459,437,394,359,286,259,237,218,198,166,150,121,104,69],"timestamp_mouse":[10,38,47,68,87,107,127,149,168,188,207,227,247,268,288,307,327,348,367,388,407,428,447,467,487,508,527,547,567,589,607,628,647,668,688,707,728,747,768,788,808,828,847,868,888,908,929,947,968,987,1007,1029,1047,1067,1087,1107,1127,1147,1168,1188,1208,1227,1249,1267,1287,1308,1328,1348,1367,1387,1408,1427,1448,1468,1487,1508,1527,1548,1568,1588,1607,1627,1647,1668,1688],"xSR":741.5,"ySR":469.95,"xT1":424.9,"yT1":0,"xT2":1058.1,"yT2":0,"toosoon":0,"cond_shown":"Incongruent","ratio_trial":200,"L_num":4,"L_den":30,"R_num":1,"R_den":3,"correct_side":2,"subjID":"ValentinaErazoPalacio2","gender":"1","school":"sexto","age":"11"},{"start_time":1551887104531,"click_time":1551887105938,"finger_time":1551887105657,"fix_duration":1033.6499835739864,"trial":35,"RT":1126,"MT":281,"sideResp":2,"stimulus":[],"xmouse":[777,777,777,777,777,776,776,776,776,776,776,776,776,776,776,776,776,776,776,776,776,776,776,776,776,776,776,776,776,776,776,776,776,776,776,776,776,776,776,776,776,776,776,776,776,776,776,776,776,777,782,786,789,795,798,807,823,837,856,886,925,942,961,975,983,989,1009,1021,1032,1052,1065],"ymouse":[543,543,543,543,543,543,543,543,543,543,543,543,543,543,543,543,543,543,543,543,543,543,543,543,543,543,543,543,543,543,543,543,543,543,543,543,543,543,543,543,543,543,543,543,543,543,543,543,542,541,533,525,517,506,498,487,459,439,418,380,319,291,262,236,216,193,148,128,111,82,62],"timestamp_mouse":[9,38,48,67,86,107,127,147,166,187,206,226,247,266,286,306,326,346,367,387,406,427,447,468,487,506,527,546,567,586,606,626,646,667,687,706,726,748,767,788,807,828,846,868,887,908,927,946,967,987,1008,1026,1046,1067,1087,1106,1126,1146,1167,1186,1207,1226,1246,1266,1286,1306,1327,1346,1367,1386,1407],"xSR":741.5,"ySR":469.95,"xT1":424.9,"yT1":0,"xT2":1058.1,"yT2":0,"toosoon":0,"cond_shown":"Congruent","ratio_trial":300,"L_num":4,"L_den":20,"R_num":13,"R_den":26,"correct_side":2,"subjID":"ValentinaErazoPalacio2","gender":"1","school":"sexto","age":"11"},{"start_time":1551887108827,"click_time":1551887110577,"finger_time":1551887110018,"fix_duration":1209.826904037044,"trial":36,"RT":1191,"MT":559,"sideResp":2,"stimulus":[],"xmouse":[827,827,827,827,827,827,827,827,827,827,827,827,827,827,827,827,827,827,827,827,827,827,827,827,827,827,827,827,827,827,827,827,827,827,827,827,827,827,827,827,828,830,832,834,834,834,834,834,834,834,834,834,834,834,834,834,834,836,839,842,850,856,861,864,869,881,890,904,918,931,951,957,972,985,996,1005,1008,1013,1019,1025,1034,1039,1042,1045,1050,1065,1072,1078],"ymouse":[524,524,524,524,524,524,524,524,524,524,524,524,524,524,524,524,524,524,524,524,524,524,524,524,524,524,524,524,524,524,524,524,524,524,524,524,524,524,524,524,523,520,518,517,516,516,516,516,516,516,516,516,516,516,516,516,516,515,512,507,496,488,483,477,472,452,439,420,399,365,296,265,242,224,207,197,191,186,181,173,160,156,154,149,145,121,110,96],"timestamp_mouse":[15,43,52,71,91,112,130,150,170,190,210,230,252,271,292,310,330,351,370,391,411,430,452,471,492,510,531,550,571,590,611,630,650,671,690,711,731,751,772,791,811,831,850,871,891,912,930,951,970,990,1010,1030,1051,1070,1090,1110,1130,1150,1171,1191,1210,1230,1251,1270,1290,1310,1330,1351,1370,1390,1410,1431,1450,1471,1490,1511,1530,1550,1571,1591,1610,1630,1650,1671,1691,1710,1730,1750],"xSR":741.5,"ySR":469.95,"xT1":424.9,"yT1":0,"xT2":1058.1,"yT2":0,"toosoon":0,"cond_shown":"Congruent","ratio_trial":200,"L_num":3,"L_den":10,"R_num":11,"R_den":22,"correct_side":2,"subjID":"ValentinaErazoPalacio2","gender":"1","school":"sexto","age":"11"},{"start_time":1551887113641,"click_time":1551887114998,"finger_time":1551887114299,"fix_duration":781.1391916550002,"trial":37,"RT":658,"MT":699,"sideResp":1,"stimulus":[],"xmouse":[746,746,746,746,746,746,746,746,746,746,746,746,746,746,746,746,746,746,746,746,746,746,746,746,745,744,744,744,744,743,743,742,741,740,737,736,736,736,735,733,732,732,731,721,683,660,639,611,589,539,522,512,506,506,510,520,526,526,526,526,526,526,524,519,513,504,500,499],"ymouse":[537,537,537,537,537,537,537,537,537,537,537,537,537,537,537,537,537,537,537,537,537,537,538,541,543,545,546,547,548,550,551,553,554,556,560,562,563,564,565,566,566,566,566,558,525,509,494,477,456,410,380,360,320,292,240,211,191,178,165,151,147,144,139,134,123,110,103,97],"timestamp_mouse":[17,36,56,76,96,116,136,157,178,197,217,237,258,276,296,316,336,356,377,396,416,436,456,477,496,516,536,557,577,598,618,638,658,677,698,717,737,758,778,798,817,837,857,877,898,916,937,958,977,997,1017,1037,1058,1077,1098,1118,1137,1157,1178,1197,1217,1238,1257,1277,1297,1318,1337,1357],"xSR":741.5,"ySR":469.95,"xT1":424.9,"yT1":0,"xT2":1058.1,"yT2":0,"toosoon":0,"cond_shown":"Congruent","ratio_trial":100,"L_num":11,"L_den":22,"R_num":4,"R_den":10,"correct_side":1,"subjID":"ValentinaErazoPalacio2","gender":"1","school":"sexto","age":"11"},{"start_time":1551887117487,"click_time":1551887119339,"finger_time":1551887118898,"fix_duration":1468.4768368300352,"trial":38,"RT":1411,"MT":441,"sideResp":1,"stimulus":[],"xmouse":[787,787,787,787,787,787,787,787,786,786,786,785,785,785,783,783,782,780,779,778,777,774,770,769,768,767,765,761,759,758,757,755,753,752,751,750,749,748,748,748,748,747,747,746,746,746,746,746,746,746,746,746,746,746,746,746,746,746,746,746,746,746,746,746,746,746,746,746,746,744,739,726,695,676,652,626,602,564,551,543,538,536,533,533,533,533,533,532,525,521,511,504,491],"ymouse":[501,501,502,502,502,503,504,505,506,506,507,507,508,509,510,511,511,513,515,516,517,520,523,524,526,528,529,532,533,534,535,537,539,540,541,541,542,542,542,542,543,543,544,544,544,544,544,544,544,544,544,543,543,543,543,543,543,543,543,543,543,543,543,543,543,543,543,543,541,537,531,518,495,478,460,441,421,377,354,335,315,303,286,275,262,245,227,184,159,139,122,110,93],"timestamp_mouse":[11,41,51,71,91,112,131,151,172,191,211,232,252,272,291,312,331,352,371,391,412,431,451,471,492,512,532,551,571,591,612,632,651,672,691,711,732,751,772,791,811,832,851,871,891,911,931,951,971,991,1011,1031,1051,1072,1091,1111,1131,1151,1171,1191,1211,1230,1250,1272,1292,1311,1331,1351,1371,1392,1411,1431,1451,1470,1491,1511,1531,1551,1571,1591,1612,1632,1652,1671,1691,1712,1732,1752,1771,1791,1812,1831,1851],"xSR":741.5,"ySR":469.95,"xT1":424.9,"yT1":0,"xT2":1058.1,"yT2":0,"toosoon":0,"cond_shown":"Incongruent","ratio_trial":100,"L_num":9,"L_den":15,"R_num":13,"R_den":26,"correct_side":1,"subjID":"ValentinaErazoPalacio2","gender":"1","school":"sexto","age":"11"},{"start_time":1551887121621,"click_time":1551887122778,"finger_time":1551887122419,"fix_duration":1041.1498200805781,"trial":39,"RT":798,"MT":359,"sideResp":1,"stimulus":[],"xmouse":[773,773,773,773,773,773,773,773,773,773,773,773,773,773,773,773,773,773,773,773,773,773,773,773,773,773,773,773,773,773,773,773,773,773,773,773,772,764,744,722,671,647,612,598,576,536,528,525,525,524,524,523,523,523,519,519,505,492],"ymouse":[523,523,523,523,523,523,523,523,523,523,523,523,523,523,523,523,523,523,523,523,523,523,523,523,523,523,523,523,523,523,523,523,523,523,523,523,523,523,519,512,483,465,432,418,387,324,305,293,282,271,258,227,199,182,166,158,115,86],"timestamp_mouse":[31,38,58,76,98,118,137,158,178,197,217,237,257,278,298,317,337,357,377,398,417,438,457,477,498,517,537,557,577,597,617,637,657,677,698,718,737,757,778,798,818,837,857,877,897,918,937,957,977,998,1017,1038,1057,1077,1096,1117,1137,1157],"xSR":741.5,"ySR":469.95,"xT1":424.9,"yT1":0,"xT2":1058.1,"yT2":0,"toosoon":0,"cond_shown":"Congruent","ratio_trial":300,"L_num":20,"L_den":25,"R_num":8,"R_den":16,"correct_side":1,"subjID":"ValentinaErazoPalacio2","gender":"1","school":"sexto","age":"11"},{"start_time":1551887130575,"click_time":1551887131720,"finger_time":1551887131238,"fix_duration":735.7606104971072,"trial":40,"RT":663,"MT":482,"sideResp":1,"stimulus":[],"xmouse":[790,790,790,790,790,790,790,790,790,790,790,790,790,790,790,790,790,790,790,790,790,790,790,790,790,790,790,790,785,777,770,766,748,681,640,606,574,545,518,508,495,486,475,465,464,463,463,463,463,463,465,469,477,491,494,494,494,494],"ymouse":[526,526,526,526,526,526,526,526,526,526,526,526,526,526,526,526,526,526,526,526,526,526,526,526,526,526,526,526,518,512,503,497,481,444,422,398,372,330,282,257,234,217,198,177,168,161,157,154,153,152,151,149,144,129,120,112,101,91],"timestamp_mouse":[10,33,44,63,84,105,123,144,163,183,204,224,243,263,284,303,323,344,363,384,403,424,444,464,484,504,523,543,563,583,603,624,643,663,683,704,724,744,763,784,804,823,844,863,883,903,923,943,964,983,1003,1024,1044,1063,1083,1103,1124,1144],"xSR":741.5,"ySR":469.95,"xT1":424.9,"yT1":0,"xT2":1058.1,"yT2":0,"toosoon":0,"cond_shown":"Congruent","ratio_trial":300,"L_num":12,"L_den":24,"R_num":2,"R_den":10,"correct_side":1,"subjID":"ValentinaErazoPalacio2","gender":"1","school":"sexto","age":"11"},{"start_time":1551887135751,"click_time":1551887137819,"finger_time":1551887136798,"fix_duration":1390.3763253122802,"trial":41,"RT":1047,"MT":1021,"sideResp":2,"stimulus":[],"xmouse":[808,808,808,808,808,808,808,808,808,808,808,808,808,808,808,808,808,808,808,808,808,808,808,808,808,808,808,808,808,808,808,808,808,808,808,808,808,808,808,808,808,808,808,808,808,799,794,777,772,753,751,746,741,735,733,733,733,733,733,733,733,733,733,733,733,733,733,733,733,734,749,775,799,825,852,860,867,877,895,916,929,942,950,954,958,961,962,962,963,965,968,975,986,1003,1031,1032,1033,1033,1035,1047,1053,1054,1057,1059],"ymouse":[517,517,517,517,517,517,517,517,517,517,517,517,517,517,517,517,517,517,517,517,517,517,517,517,517,517,517,517,517,517,517,517,517,517,517,517,517,517,517,517,517,517,517,517,517,517,517,518,518,518,518,518,518,518,518,518,518,518,518,518,518,518,518,518,518,518,518,518,518,518,517,516,512,511,500,490,476,451,396,316,272,230,194,155,109,95,88,83,81,80,80,80,79,79,79,79,79,79,79,79,78,76,74,73],"timestamp_mouse":[9,40,48,67,87,107,127,147,168,187,207,228,248,268,287,307,329,347,367,387,407,428,447,468,487,507,527,547,568,588,607,627,647,667,688,707,728,748,767,788,808,827,847,867,887,907,928,948,967,987,1008,1027,1047,1068,1087,1108,1127,1147,1168,1188,1208,1228,1248,1268,1288,1307,1328,1348,1367,1388,1408,1427,1448,1467,1487,1507,1528,1547,1568,1588,1607,1627,1647,1667,1687,1707,1727,1748,1768,1788,1807,1827,1848,1868,1888,1908,1928,1947,1967,1987,2006,2027,2048,2067],"xSR":741.5,"ySR":469.95,"xT1":424.9,"yT1":0,"xT2":1058.1,"yT2":0,"toosoon":0,"cond_shown":"Incongruent","ratio_trial":200,"L_num":3,"L_den":10,"R_num":1,"R_den":2,"correct_side":2,"subjID":"ValentinaErazoPalacio2","gender":"1","school":"sexto","age":"11"},{"start_time":1551887139888,"click_time":1551887141858,"finger_time":1551887141278,"fix_duration":708.4441614811689,"trial":42,"RT":1390,"MT":580,"sideResp":1,"stimulus":[],"xmouse":[768,768,768,768,768,768,768,768,768,768,768,768,768,768,768,768,768,768,768,768,768,768,768,768,768,768,768,768,768,768,768,768,768,768,768,768,768,768,768,768,768,768,768,768,768,768,768,768,768,768,768,768,768,768,768,768,768,768,768,768,768,768,768,768,768,768,768,759,751,738,705,678,610,576,553,536,522,498,488,478,471,468,467,467,467,467,468,469,469,469,469,470,470,470,470,470,470,470,470],"ymouse":[539,539,539,539,539,539,539,539,539,539,539,539,539,539,539,539,539,539,539,539,539,539,539,539,539,539,539,539,539,539,539,539,539,539,539,539,539,539,539,539,539,539,539,539,539,539,539,539,539,539,539,539,539,539,539,539,539,539,539,539,539,539,539,539,538,538,538,529,521,513,491,478,435,410,382,352,321,259,232,211,197,180,163,155,148,141,136,131,129,128,127,123,115,112,111,109,107,102,99],"timestamp_mouse":[10,33,51,70,90,111,130,150,170,191,210,230,250,270,290,311,330,350,370,390,410,430,450,470,490,511,530,552,571,590,611,630,650,670,690,710,731,750,770,790,810,830,850,870,890,910,930,950,970,990,1010,1030,1051,1070,1091,1110,1130,1150,1170,1192,1211,1230,1251,1270,1290,1311,1331,1350,1370,1390,1410,1431,1451,1470,1490,1510,1530,1550,1570,1590,1610,1630,1651,1670,1690,1710,1731,1750,1770,1790,1810,1830,1851,1871,1890,1910,1930,1951,1970],"xSR":741.5,"ySR":469.95,"xT1":424.9,"yT1":0,"xT2":1058.1,"yT2":0,"toosoon":0,"cond_shown":"Incongruent","ratio_trial":100,"L_num":8,"L_den":16,"R_num":6,"R_den":10,"correct_side":2,"subjID":"ValentinaErazoPalacio2","gender":"1","school":"sexto","age":"11"},{"start_time":1551887143797,"click_time":1551887145859,"finger_time":1551887145338,"fix_duration":836.0122035220618,"trial":43,"RT":1541,"MT":521,"sideResp":2,"stimulus":[],"xmouse":[814,813,813,813,813,812,812,811,810,810,810,810,810,810,810,810,810,810,810,810,810,810,810,810,810,810,810,810,810,810,810,810,810,810,810,810,810,810,810,810,810,810,810,810,810,810,810,810,810,810,810,810,810,810,810,810,810,810,810,810,810,810,810,810,810,810,810,808,807,805,803,803,803,803,805,808,820,843,856,867,884,899,930,944,966,985,1003,1024,1029,1032,1036,1042,1052,1056,1058,1060,1061,1061,1061,1061,1061,1062,1062,1062],"ymouse":[520,520,520,520,520,520,520,519,518,517,517,517,517,517,517,517,516,516,516,516,516,516,516,516,516,516,516,516,516,516,516,516,516,516,516,516,516,516,516,516,516,516,516,516,516,516,516,516,516,516,516,516,516,516,516,516,516,516,516,516,516,516,516,516,516,516,516,516,516,516,516,516,516,514,509,500,485,455,436,417,395,372,315,284,258,234,213,175,167,159,154,145,130,122,115,109,105,104,103,102,102,101,100,99],"timestamp_mouse":[2,21,41,61,81,102,121,141,161,181,201,221,241,262,281,301,322,341,361,381,401,422,441,461,481,501,522,542,561,583,601,622,641,661,681,701,721,742,762,782,801,821,841,861,881,901,922,941,961,981,1000,1021,1041,1061,1081,1102,1121,1141,1161,1181,1202,1221,1241,1261,1282,1301,1321,1341,1362,1381,1402,1421,1441,1461,1481,1502,1521,1541,1562,1582,1601,1622,1641,1662,1681,1702,1721,1741,1761,1781,1802,1822,1841,1862,1882,1901,1921,1942,1961,1981,2002,2021,2042,2062],"xSR":741.5,"ySR":469.95,"xT1":424.9,"yT1":0,"xT2":1058.1,"yT2":0,"toosoon":0,"cond_shown":"Congruent","ratio_trial":100,"L_num":15,"L_den":25,"R_num":13,"R_den":26,"correct_side":1,"subjID":"ValentinaErazoPalacio2","gender":"1","school":"sexto","age":"11"},{"start_time":1551887147398,"click_time":1551887149878,"finger_time":1551887148999,"fix_duration":538.4623428987225,"trial":44,"RT":1601,"MT":879,"sideResp":1,"stimulus":[],"xmouse":[806,806,806,806,806,806,806,806,806,806,806,806,806,806,806,806,806,806,806,806,806,806,806,806,806,806,806,806,806,806,806,806,806,806,806,806,806,806,806,806,806,806,806,806,806,806,806,806,806,806,806,806,806,806,806,806,806,806,806,806,806,806,806,806,806,806,806,806,806,806,806,806,806,806,806,806,806,811,820,838,856,875,903,917,929,943,965,1001,1018,1033,1044,1050,1054,1056,1057,1057,1057,1057,1057,1056,1054,1052,1049,1046,1043,1040,1036,1028,1021,1014,1004,990,958,940,923,901,874,786,747,706,663,625,551,526,508],"ymouse":[519,519,519,519,519,519,519,519,519,519,519,519,519,519,519,519,519,519,519,519,519,519,519,519,519,519,519,519,519,519,519,519,519,519,519,519,519,519,519,519,519,519,519,519,519,519,519,519,519,519,519,519,519,519,519,519,519,519,519,519,519,519,519,519,519,519,519,519,519,519,519,519,519,519,519,519,519,516,506,494,476,456,411,382,347,322,287,234,212,191,172,158,141,135,132,130,129,129,129,129,129,129,129,129,130,133,135,143,146,149,151,153,153,153,153,153,153,150,143,134,121,107,81,72,66],"timestamp_mouse":[8,20,47,60,80,100,120,141,160,181,201,221,240,260,280,300,320,341,361,380,401,420,441,461,481,500,520,541,562,580,601,621,641,662,681,701,721,740,760,780,800,820,840,861,881,901,921,940,960,981,999,1021,1041,1060,1080,1101,1120,1141,1161,1180,1201,1221,1241,1260,1280,1301,1320,1340,1360,1380,1401,1421,1441,1461,1482,1501,1521,1540,1560,1581,1601,1620,1641,1661,1680,1700,1720,1740,1760,1780,1800,1820,1841,1860,1881,1901,1921,1940,1960,1980,2001,2020,2041,2059,2080,2100,2120,2141,2160,2180,2201,2220,2240,2260,2280,2300,2320,2340,2361,2380,2400,2421,2441,2460,2480],"xSR":741.5,"ySR":469.95,"xT1":424.9,"yT1":0,"xT2":1058.1,"yT2":0,"toosoon":0,"cond_shown":"Congruent","ratio_trial":300,"L_num":3,"L_den":6,"R_num":2,"R_den":10,"correct_side":1,"subjID":"ValentinaErazoPalacio2","gender":"1","school":"sexto","age":"11"},{"start_time":1551887151289,"click_time":1551887152838,"finger_time":1551887152238,"fix_duration":250,"trial":45,"RT":949,"MT":600,"sideResp":1,"stimulus":[],"xmouse":[807,807,807,807,807,807,807,807,807,807,807,807,807,807,807,807,807,807,807,807,807,807,807,807,807,807,807,807,807,807,807,807,805,803,800,797,795,791,790,787,786,784,781,780,776,770,761,722,692,664,638,597,564,550,541,532,523,496,482,468,449,441,435,430,430,430,434,440,444,446,450,454,459,462,462,463,464,467],"ymouse":[512,512,512,512,512,512,512,512,512,512,512,512,512,512,512,512,512,512,512,512,512,512,512,512,512,512,512,512,512,512,512,512,512,512,512,512,512,514,514,515,515,516,517,517,519,519,519,519,519,518,518,516,510,508,502,497,490,467,454,438,409,387,362,314,289,261,232,201,187,175,165,151,134,125,118,111,102,83],"timestamp_mouse":[9,38,49,69,88,109,129,150,170,190,209,230,249,269,290,310,330,349,369,390,410,429,449,469,489,510,530,549,569,589,609,630,649,669,690,709,729,749,770,789,809,829,850,869,889,909,930,949,970,990,1009,1029,1049,1069,1089,1109,1130,1149,1168,1189,1209,1229,1249,1269,1289,1310,1329,1350,1369,1390,1410,1429,1449,1470,1490,1509,1529,1549],"xSR":741.5,"ySR":469.95,"xT1":424.9,"yT1":0,"xT2":1058.1,"yT2":0,"toosoon":0,"cond_shown":"Incongruent","ratio_trial":200,"L_num":14,"L_den":30,"R_num":12,"R_den":18,"correct_side":2,"subjID":"ValentinaErazoPalacio2","gender":"1","school":"sexto","age":"11"},{"start_time":1551887155314,"click_time":1551887160098,"finger_time":1551887157019,"fix_duration":1135.222181467472,"trial":46,"RT":1705,"MT":3079,"sideResp":1,"stimulus":[],"xmouse":[792,792,792,792,792,792,792,792,792,792,792,792,792,792,792,792,792,792,792,792,792,792,792,792,792,792,792,792,792,792,792,792,792,792,792,792,792,792,792,792,792,792,792,792,792,792,792,792,792,792,792,792,792,792,792,792,792,792,792,792,792,792,792,792,792,792,792,792,792,792,792,792,792,792,792,792,792,792,792,792,792,787,781,771,758,739,690,654,614,569,497,424,395,374,360,357,357,357,357,357,357,357,357,357,357,357,357,357,357,357,357,357,357,357,357,357,357,357,357,353,345,336,333,329,325,320,314,310,306,299,297,290,287,284,281,279,277,276,275,274,272,269,269,268,267,267,267,267,267,267,267,267,267,267,267,267,267,267,268,269,272,280,283,285,285,285,285,285,285,285,285,285,285,285,285,285,285,286,286,287,287,289,289,289,289,289,289,289,289,289,289,289,289,289,289,290,294,298,305,318,342,367,379,388,396,405,415,416,416,416,416,416,416,417,419,421,425,427,428,431,435,440,442,447,455,470,503,518,530,538,542,542,542,542,538,533,526,522,517,516],"ymouse":[534,534,534,534,534,534,534,534,534,534,534,534,534,534,534,534,534,534,534,534,534,534,534,534,534,534,534,534,534,534,534,534,534,534,534,534,534,534,534,534,534,534,534,534,534,534,534,534,534,534,534,534,534,534,534,534,534,534,534,534,534,534,534,534,534,534,534,534,534,534,534,534,534,534,534,534,534,534,534,534,533,530,527,521,513,502,470,452,434,417,385,340,309,280,246,218,167,147,134,125,123,122,122,122,122,122,122,122,122,122,122,122,122,122,122,122,122,122,122,122,122,122,122,122,122,122,123,125,125,129,132,135,137,138,140,141,143,144,146,146,148,151,153,155,155,156,156,156,156,156,156,156,156,156,156,156,156,156,156,157,157,160,161,161,161,161,161,161,161,161,161,161,161,161,161,162,164,167,169,172,173,174,174,174,174,174,174,174,174,174,174,174,174,174,175,175,177,177,177,177,177,180,180,180,180,180,180,180,180,180,180,180,180,180,180,180,179,178,178,178,178,178,178,178,178,178,178,178,178,177,176,174,170,160,146,132,111,105,100,99],"timestamp_mouse":[11,41,45,64,85,105,124,144,165,185,204,225,244,264,284,305,324,344,364,385,405,424,444,464,485,505,524,544,565,585,605,624,644,665,685,704,725,744,765,784,804,824,845,865,885,904,924,945,964,985,1004,1025,1044,1066,1085,1104,1124,1144,1164,1186,1205,1224,1244,1264,1285,1306,1325,1344,1364,1384,1404,1424,1444,1465,1485,1504,1525,1544,1565,1585,1604,1624,1645,1664,1685,1705,1724,1744,1764,1784,1804,1825,1844,1864,1884,1904,1924,1944,1964,1984,2004,2024,2045,2064,2084,2105,2125,2145,2164,2184,2205,2225,2245,2264,2284,2304,2325,2345,2364,2385,2404,2425,2444,2464,2485,2504,2525,2543,2564,2584,2604,2624,2644,2664,2684,2705,2724,2745,2764,2785,2803,2824,2845,2865,2885,2905,2925,2945,2964,2984,3005,3025,3045,3064,3085,3105,3124,3144,3164,3185,3205,3224,3244,3265,3285,3304,3324,3345,3365,3384,3405,3424,3444,3466,3484,3505,3524,3544,3564,3584,3604,3625,3644,3665,3685,3704,3725,3745,3764,3784,3805,3824,3844,3865,3885,3904,3924,3944,3965,3984,4004,4025,4044,4064,4085,4106,4124,4144,4164,4184,4204,4225,4245,4265,4285,4304,4324,4344,4364,4385,4405,4424,4445,4464,4485,4504,4524,4545,4564,4584,4605,4624,4644,4664,4684,4704,4724,4744,4764,4784],"xSR":741.5,"ySR":469.95,"xT1":424.9,"yT1":0,"xT2":1058.1,"yT2":0,"toosoon":0,"cond_shown":"Congruent","ratio_trial":100,"L_num":6,"L_den":20,"R_num":5,"R_den":25,"correct_side":1,"subjID":"ValentinaErazoPalacio2","gender":"1","sc