[{"start_time":1551882836625,"click_time":1551882838515,"finger_time":1551882838234,"fix_duration":426.98155271629236,"trial":0,"RT":1609,"MT":281,"sideResp":1,"stimulus":"img/500/equaldotsize/L/5_Ratio_500_L_4_R_2.png","xmouse":[797,797,797,797,797,797,797,797,797,797,797,797,797,797,797,797,797,797,797,797,797,797,797,797,797,797,797,797,797,797,797,797,797,797,797,797,797,797,797,797,797,797,797,797,797,797,797,797,797,797,797,797,797,797,797,797,797,797,797,797,797,797,797,797,797,797,797,797,797,797,797,797,797,797,797,797,797,795,795,792,790,789,789,790,785,769,768,778,756,729,703,658,558,532,522],"ymouse":[531,531,531,531,531,531,531,531,531,531,531,531,531,531,531,531,531,531,531,531,531,531,531,531,531,531,531,531,531,531,531,531,531,531,531,531,531,531,531,531,531,531,531,531,531,531,531,531,531,531,531,531,531,531,531,531,531,531,531,531,531,531,531,531,531,531,531,531,531,531,531,531,531,531,531,531,531,531,520,479,452,444,442,427,396,334,286,212,184,159,141,116,74,62,58],"timestamp_mouse":[11,37,50,69,89,110,129,149,170,190,210,229,250,270,289,310,330,350,369,390,409,429,449,469,489,510,528,549,569,589,609,630,649,670,689,709,729,749,770,789,809,829,849,870,889,909,929,949,970,989,1009,1029,1049,1070,1090,1109,1130,1149,1170,1190,1210,1229,1249,1269,1290,1309,1330,1349,1370,1390,1410,1429,1449,1469,1489,1509,1529,1550,1570,1589,1609,1629,1649,1669,1689,1709,1729,1749,1769,1789,1809,1830,1849,1869,1889],"xSR":741.5,"ySR":501.8,"xT1":424.9,"yT1":0,"xT2":1058.1,"yT2":0,"toosoon":0,"cond_shown":"equaldotsize","ratio_trial":500,"smaller_num":"2","larger_num":"4","correct_side":1,"subjID":"valeriaguzmansolano 11","gender":"1","age":"12","school":"6","test":{"fix_dur":[250,1500],"timestim":300,"targets_dim":[100,100],"targets_relative_coord":[0.3,0.7],"size_stim":[880,420],"start_dim":[100,100],"size_start":[300,300],"size_fix":60,"samplingrate":20,"img_types":["equaldotsize","equaldotanddens","randomdotsizeEA"],"ratios":[250,500,750,900],"rep_conds":9,"nTrials":120,"trials_to_rest":500,"Trials_order":[15,8,19,42,0,10,62,73,98,63,81,47,110,105,68,53,28,85,35,101,40,38,79,22,92,23,112,17,104,103,33,11,116,99,70,69,39,117,55,61,46,91,108,87,25,37,27,52,75,6,100,96,5,32,1,67,4,97,44,65,111,84,43,72,66,119,31,50,114,13,76,51,20,24,29,109,48,16,60,21,106,58,57,26,59,90,30,83,80,49,41,94,74,9,34,14,93,88,36,64,107,89,113,115,71,77,78,56,54,12,2,118,18,86,45,3,7,95,82,102],"cond_shown":["equaldotsize","randomdotsizeEA","equaldotanddens","equaldotsize","equaldotsize","equaldotanddens","randomdotsizeEA","equaldotanddens","randomdotsizeEA","equaldotsize","equaldotsize","randomdotsizeEA","randomdotsizeEA","equaldotsize","randomdotsizeEA","randomdotsizeEA","equaldotanddens","equaldotanddens","randomdotsizeEA","randomdotsizeEA","equaldotanddens","randomdotsizeEA","equaldotanddens","equaldotanddens","randomdotsizeEA","randomdotsizeEA","equaldotanddens","randomdotsizeEA","randomdotsizeEA","equaldotanddens","equaldotsize","randomdotsizeEA","randomdotsizeEA","equaldotsize","equaldotanddens","equaldotsize","equaldotsize","equaldotsize","equaldotanddens","equaldotanddens","equaldotanddens","equaldotanddens","equaldotsize","equaldotsize","equaldotanddens","equaldotanddens","equaldotsize","equaldotanddens","equaldotsize","equaldotsize","equaldotanddens","equaldotsize","randomdotsizeEA","randomdotsizeEA","equaldotanddens","equaldotanddens","equaldotanddens","equaldotanddens","randomdotsizeEA","randomdotsizeEA","equaldotsize","equaldotsize","equaldotanddens","equaldotsize","equaldotsize","randomdotsizeEA","equaldotanddens","randomdotsizeEA","equaldotsize","equaldotanddens","equaldotanddens","equaldotsize","randomdotsizeEA","equaldotsize","randomdotsizeEA","equaldotanddens","equaldotsize","equaldotanddens","equaldotsize","equaldotsize","equaldotanddens","equaldotanddens","equaldotsize","randomdotsizeEA","randomdotsizeEA","equaldotsize","equaldotsize","randomdotsizeEA","randomdotsizeEA","equaldotanddens","randomdotsizeEA","equaldotanddens","randomdotsizeEA","equaldotsize","equaldotanddens","randomdotsizeEA","equaldotsize","equaldotanddens","equaldotsize","equaldotanddens","randomdotsizeEA","randomdotsizeEA","randomdotsizeEA","equaldotanddens","randomdotsizeEA","randomdotsizeEA","equaldotsize","randomdotsizeEA","equaldotsize","equaldotsize","randomdotsizeEA","equaldotanddens","equaldotsize","randomdotsizeEA","equaldotsize","equaldotsize","equaldotanddens","randomdotsizeEA","equaldotanddens","equaldotsize"],"ratio_trial":[500,750,750,750,250,900,250,250,250,500,900,900,250,900,750,500,500,250,900,500,500,250,750,900,750,900,500,500,750,750,900,900,750,500,900,900,500,900,750,250,900,750,250,500,250,250,500,500,500,750,500,250,500,750,250,750,500,250,750,500,500,250,750,250,750,900,750,250,750,250,500,500,750,250,500,250,250,500,250,900,900,900,900,250,900,750,750,900,750,250,500,900,250,900,900,250,900,500,250,500,900,500,500,750,900,500,750,750,750,250,250,900,750,250,900,500,750,900,900,750],"smaller_num":["2","15","6","3","6","9","2","4","4","5","9","18","3","18","15","2","5","6","9","5","5","5","15","18","3","18","2","6","18","15","18","18","3","1","18","18","4","18","3","4","9","15","5","1","6","3","6","9","5","3","6","6","1","3","6","15","3","3","3","9","6","4","3","6","3","18","6","2","3","3","4","6","6","2","9","2","3","2","3","18","18","18","9","3","18","3","3","18","3","4","1","9","2","18","18","2","18","3","2","6","9","1","2","15","18","6","9","6","6","3","3","9","3","4","18","1","12","18","18","3"],"larger_num":["4","20","8","4","24","10","8","16","16","10","10","20","12","20","20","4","10","24","10","10","10","20","20","20","4","20","4","12","24","20","20","20","4","2","20","20","8","20","4","16","10","20","20","2","24","12","12","18","10","4","12","24","2","4","24","20","6","12","4","18","12","16","4","24","4","20","8","8","4","12","8","12","8","8","18","8","12","4","12","20","20","20","10","12","20","4","4","20","4","16","2","10","8","20","20","8","20","6","8","12","10","2","4","20","20","12","12","8","8","12","12","10","4","16","20","2","16","20","20","4"],"correct_side":[1,1,1,1,1,2,1,1,1,1,2,1,1,2,1,1,2,1,2,2,2,2,2,1,1,1,1,1,1,2,2,1,1,2,1,1,1,2,1,2,2,2,2,2,1,1,1,2,2,1,1,1,2,1,1,2,2,1,1,2,1,2,1,1,2,1,1,1,1,1,1,1,1,1,2,1,2,1,2,2,2,1,2,2,1,2,2,1,2,2,2,2,1,2,2,1,2,2,1,1,2,2,1,2,1,1,2,1,1,2,2,2,2,2,1,2,2,1,1,2],"img_shown":["img/500/equaldotsize/L/5_Ratio_500_L_4_R_2.png","img/750/randomdotsizeEA/L/1_Ratio_750_L_20_R_15.png","img/750/equaldotanddens/L/14_Ratio_750_L_8_R_6.png","img/750/equaldotsize/L/10_Ratio_750_L_4_R_3.png","img/250/equaldotsize/L/5_Ratio_250_L_24_R_6.png","img/900/equaldotanddens/R/7_Ratio_900_L_9_R_10.png","img/250/randomdotsizeEA/L/3_Ratio_250_L_8_R_2.png","img/250/equaldotanddens/L/2_Ratio_250_L_16_R_4.png","img/250/randomdotsizeEA/L/2_Ratio_250_L_16_R_4.png","img/500/equaldotsize/L/7_Ratio_500_L_10_R_5.png","img/900/equaldotsize/R/5_Ratio_900_L_9_R_10.png","img/900/randomdotsizeEA/L/2_Ratio_900_L_20_R_18.png","img/250/randomdotsizeEA/L/14_Ratio_250_L_12_R_3.png","img/900/equaldotsize/R/9_Ratio_900_L_18_R_20.png","img/750/randomdotsizeEA/L/1_Ratio_750_L_20_R_15.png","img/500/randomdotsizeEA/L/5_Ratio_500_L_4_R_2.png","img/500/equaldotanddens/R/14_Ratio_500_L_5_R_10.png","img/250/equaldotanddens/L/5_Ratio_250_L_24_R_6.png","img/900/randomdotsizeEA/R/15_Ratio_900_L_9_R_10.png","img/500/randomdotsizeEA/R/14_Ratio_500_L_5_R_10.png","img/500/equaldotanddens/R/14_Ratio_500_L_5_R_10.png","img/250/randomdotsizeEA/R/12_Ratio_250_L_5_R_20.png","img/750/equaldotanddens/R/4_Ratio_750_L_15_R_20.png","img/900/equaldotanddens/L/8_Ratio_900_L_20_R_18.png","img/750/randomdotsizeEA/L/8_Ratio_750_L_4_R_3.png","img/900/randomdotsizeEA/L/8_Ratio_900_L_20_R_18.png","img/500/equaldotanddens/L/10_Ratio_500_L_4_R_2.png","img/500/randomdotsizeEA/L/11_Ratio_500_L_12_R_6.png","img/750/randomdotsizeEA/L/6_Ratio_750_L_24_R_18.png","img/750/equaldotanddens/R/3_Ratio_750_L_15_R_20.png","img/900/equaldotsize/R/14_Ratio_900_L_18_R_20.png","img/900/randomdotsizeEA/L/4_Ratio_900_L_20_R_18.png","img/750/randomdotsizeEA/L/9_Ratio_750_L_4_R_3.png","img/500/equaldotsize/R/12_Ratio_500_L_1_R_2.png","img/900/equaldotanddens/L/4_Ratio_900_L_20_R_18.png","img/900/equaldotsize/L/10_Ratio_900_L_20_R_18.png","img/500/equaldotsize/L/8_Ratio_500_L_8_R_4.png","img/900/equaldotsize/R/13_Ratio_900_L_18_R_20.png","img/750/equaldotanddens/L/9_Ratio_750_L_4_R_3.png","img/250/equaldotanddens/R/10_Ratio_250_L_4_R_16.png","img/900/equaldotanddens/R/6_Ratio_900_L_9_R_10.png","img/750/equaldotanddens/R/4_Ratio_750_L_15_R_20.png","img/250/equaldotsize/R/12_Ratio_250_L_5_R_20.png","img/500/equaldotsize/R/15_Ratio_500_L_1_R_2.png","img/250/equaldotanddens/L/5_Ratio_250_L_24_R_6.png","img/250/equaldotanddens/L/15_Ratio_250_L_12_R_3.png","img/500/equaldotsize/L/13_Ratio_500_L_12_R_6.png","img/500/equaldotanddens/R/1_Ratio_500_L_9_R_18.png","img/500/equaldotsize/R/14_Ratio_500_L_5_R_10.png","img/750/equaldotsize/L/10_Ratio_750_L_4_R_3.png","img/500/equaldotanddens/L/13_Ratio_500_L_12_R_6.png","img/250/equaldotsize/L/5_Ratio_250_L_24_R_6.png","img/500/randomdotsizeEA/R/15_Ratio_500_L_1_R_2.png","img/750/randomdotsizeEA/L/10_Ratio_750_L_4_R_3.png","img/250/equaldotanddens/L/5_Ratio_250_L_24_R_6.png","img/750/equaldotanddens/R/5_Ratio_750_L_15_R_20.png","img/500/equaldotanddens/R/2_Ratio_500_L_3_R_6.png","img/250/equaldotanddens/L/15_Ratio_250_L_12_R_3.png","img/750/randomdotsizeEA/L/9_Ratio_750_L_4_R_3.png","img/500/randomdotsizeEA/R/6_Ratio_500_L_9_R_18.png","img/500/equaldotsize/L/11_Ratio_500_L_12_R_6.png","img/250/equaldotsize/R/10_Ratio_250_L_4_R_16.png","img/750/equaldotanddens/L/10_Ratio_750_L_4_R_3.png","img/250/equaldotsize/L/5_Ratio_250_L_24_R_6.png","img/750/equaldotsize/R/12_Ratio_750_L_3_R_4.png","img/900/randomdotsizeEA/L/10_Ratio_900_L_20_R_18.png","img/750/equaldotanddens/L/13_Ratio_750_L_8_R_6.png","img/250/randomdotsizeEA/L/7_Ratio_250_L_8_R_2.png","img/750/equaldotsize/L/10_Ratio_750_L_4_R_3.png","img/250/equaldotanddens/L/15_Ratio_250_L_12_R_3.png","img/500/equaldotanddens/L/8_Ratio_500_L_8_R_4.png","img/500/equaldotsize/L/11_Ratio_500_L_12_R_6.png","img/750/randomdotsizeEA/L/13_Ratio_750_L_8_R_6.png","img/250/equaldotsize/L/3_Ratio_250_L_8_R_2.png","img/500/randomdotsizeEA/R/1_Ratio_500_L_9_R_18.png","img/250/equaldotanddens/L/1_Ratio_250_L_8_R_2.png","img/250/equaldotsize/R/9_Ratio_250_L_3_R_12.png","img/500/equaldotanddens/L/10_Ratio_500_L_4_R_2.png","img/250/equaldotsize/R/4_Ratio_250_L_3_R_12.png","img/900/equaldotsize/R/14_Ratio_900_L_18_R_20.png","img/900/equaldotanddens/R/11_Ratio_900_L_18_R_20.png","img/900/equaldotanddens/L/4_Ratio_900_L_20_R_18.png","img/900/equaldotsize/R/6_Ratio_900_L_9_R_10.png","img/250/randomdotsizeEA/R/4_Ratio_250_L_3_R_12.png","img/900/randomdotsizeEA/L/10_Ratio_900_L_20_R_18.png","img/750/equaldotsize/R/12_Ratio_750_L_3_R_4.png","img/750/equaldotsize/R/7_Ratio_750_L_3_R_4.png","img/900/randomdotsizeEA/L/8_Ratio_900_L_20_R_18.png","img/750/randomdotsizeEA/R/12_Ratio_750_L_3_R_4.png","img/250/equaldotanddens/R/10_Ratio_250_L_4_R_16.png","img/500/randomdotsizeEA/R/15_Ratio_500_L_1_R_2.png","img/900/equaldotanddens/R/6_Ratio_900_L_9_R_10.png","img/250/randomdotsizeEA/L/7_Ratio_250_L_8_R_2.png","img/900/equaldotsize/R/11_Ratio_900_L_18_R_20.png","img/900/equaldotanddens/R/14_Ratio_900_L_18_R_20.png","img/250/randomdotsizeEA/L/7_Ratio_250_L_8_R_2.png","img/900/equaldotsize/R/13_Ratio_900_L_18_R_20.png","img/500/equaldotanddens/R/2_Ratio_500_L_3_R_6.png","img/250/equaldotsize/L/1_Ratio_250_L_8_R_2.png","img/500/equaldotanddens/L/11_Ratio_500_L_12_R_6.png","img/900/randomdotsizeEA/R/3_Ratio_900_L_9_R_10.png","img/500/randomdotsizeEA/R/15_Ratio_500_L_1_R_2.png","img/500/randomdotsizeEA/L/5_Ratio_500_L_4_R_2.png","img/750/equaldotanddens/R/3_Ratio_750_L_15_R_20.png","img/900/randomdotsizeEA/L/8_Ratio_900_L_20_R_18.png","img/500/randomdotsizeEA/L/13_Ratio_500_L_12_R_6.png","img/750/equaldotsize/R/15_Ratio_750_L_9_R_12.png","img/750/randomdotsizeEA/L/14_Ratio_750_L_8_R_6.png","img/750/equaldotsize/L/14_Ratio_750_L_8_R_6.png","img/250/equaldotsize/R/9_Ratio_250_L_3_R_12.png","img/250/randomdotsizeEA/R/9_Ratio_250_L_3_R_12.png","img/900/equaldotanddens/R/7_Ratio_900_L_9_R_10.png","img/750/equaldotsize/R/12_Ratio_750_L_3_R_4.png","img/250/randomdotsizeEA/R/10_Ratio_250_L_4_R_16.png","img/900/equaldotsize/L/10_Ratio_900_L_20_R_18.png","img/500/equaldotsize/R/12_Ratio_500_L_1_R_2.png","img/750/equaldotanddens/R/11_Ratio_750_L_12_R_16.png","img/900/randomdotsizeEA/L/8_Ratio_900_L_20_R_18.png","img/900/equaldotanddens/L/8_Ratio_900_L_20_R_18.png","img/750/equaldotsize/R/12_Ratio_750_L_3_R_4.png"],"Rat0":[["12_Ratio_0_L_9_R_0.png","13_Ratio_0_L_6_R_0.png","5_Ratio_0_L_2_R_0.png","6_Ratio_0_L_4_R_0.png","8_Ratio_0_L_6_R_0.png"],["1_Ratio_0_L_0_R_17.png","10_Ratio_0_L_0_R_22.png","11_Ratio_0_L_0_R_1.png","14_Ratio_0_L_0_R_24.png","15_Ratio_0_L_0_R_4.png","2_Ratio_0_L_0_R_5.png","3_Ratio_0_L_0_R_17.png","4_Ratio_0_L_0_R_7.png","7_Ratio_0_L_0_R_19.png","9_Ratio_0_L_0_R_15.png"]],"Rat250":[["1_Ratio_250_L_8_R_2.png","14_Ratio_250_L_12_R_3.png","15_Ratio_250_L_12_R_3.png","2_Ratio_250_L_16_R_4.png","3_Ratio_250_L_8_R_2.png","5_Ratio_250_L_24_R_6.png","7_Ratio_250_L_8_R_2.png"],["10_Ratio_250_L_4_R_16.png","11_Ratio_250_L_3_R_12.png","12_Ratio_250_L_5_R_20.png","13_Ratio_250_L_2_R_8.png","4_Ratio_250_L_3_R_12.png","6_Ratio_250_L_6_R_24.png","8_Ratio_250_L_1_R_4.png","9_Ratio_250_L_3_R_12.png"]],"Rat500":[["10_Ratio_500_L_4_R_2.png","11_Ratio_500_L_12_R_6.png","13_Ratio_500_L_12_R_6.png","4_Ratio_500_L_18_R_9.png","5_Ratio_500_L_4_R_2.png","7_Ratio_500_L_10_R_5.png","8_Ratio_500_L_8_R_4.png"],["1_Ratio_500_L_9_R_18.png","12_Ratio_500_L_1_R_2.png","14_Ratio_500_L_5_R_10.png","15_Ratio_500_L_1_R_2.png","2_Ratio_500_L_3_R_6.png","3_Ratio_500_L_10_R_20.png","6_Ratio_500_L_9_R_18.png","9_Ratio_500_L_2_R_4.png"]],"Rat750":[["1_Ratio_750_L_20_R_15.png","10_Ratio_750_L_4_R_3.png","13_Ratio_750_L_8_R_6.png","14_Ratio_750_L_8_R_6.png","6_Ratio_750_L_24_R_18.png","8_Ratio_750_L_4_R_3.png","9_Ratio_750_L_4_R_3.png"],["11_Ratio_750_L_12_R_16.png","12_Ratio_750_L_3_R_4.png","15_Ratio_750_L_9_R_12.png","2_Ratio_750_L_6_R_8.png","3_Ratio_750_L_15_R_20.png","4_Ratio_750_L_15_R_20.png","5_Ratio_750_L_15_R_20.png","7_Ratio_750_L_3_R_4.png"]],"Rat900":[["1_Ratio_900_L_10_R_9.png","10_Ratio_900_L_20_R_18.png","2_Ratio_900_L_20_R_18.png","4_Ratio_900_L_20_R_18.png","8_Ratio_900_L_20_R_18.png"],["11_Ratio_900_L_18_R_20.png","12_Ratio_900_L_18_R_20.png","13_Ratio_900_L_18_R_20.png","14_Ratio_900_L_18_R_20.png","15_Ratio_900_L_9_R_10.png","3_Ratio_900_L_9_R_10.png","5_Ratio_900_L_9_R_10.png","6_Ratio_900_L_9_R_10.png","7_Ratio_900_L_9_R_10.png","9_Ratio_900_L_18_R_20.png"]],"Rat1000":[["10_Ratio_1000_L_16_R_16.png","11_Ratio_1000_L_6_R_6.png","12_Ratio_1000_L_14_R_14.png","13_Ratio_1000_L_20_R_20.png","15_Ratio_1000_L_15_R_15.png","2_Ratio_1000_L_17_R_17.png","4_Ratio_1000_L_9_R_9.png","5_Ratio_1000_L_6_R_6.png","6_Ratio_1000_L_19_R_19.png","8_Ratio_1000_L_14_R_14.png","9_Ratio_1000_L_25_R_25.png"],["1_Ratio_1000_L_1_R_1.png","14_Ratio_1000_L_17_R_17.png","3_Ratio_1000_L_17_R_17.png","7_Ratio_1000_L_6_R_6.png"]]}},{"start_time":1551882840326,"click_time":1551882842375,"finger_time":1551882841234,"fix_duration":250,"trial":1,"RT":908,"MT":1141,"sideResp":1,"stimulus":"img/750/randomdotsizeEA/L/1_Ratio_750_L_20_R_15.png","xmouse":[757,757,757,757,757,757,757,757,757,757,757,757,757,757,757,757,757,757,757,757,757,757,757,757,757,757,757,757,757,757,757,757,757,757,757,757,757,757,757,757,757,757,757,772,822,878,925,986,999,1007,1014,1015,1023,1027,1033,1037,1041,1050,1056,1059,1063,1064,1066,1066,1066,1066,1066,1066,1066,1066,1066,1065,1039,1002,986,985,985,987,987,987,987,987,978,958,934,901,851,745,719,705,695,685,646,629,606,583,568,558,557,552,543,535,520],"ymouse":[548,548,548,548,548,548,548,548,548,548,548,548,548,548,548,548,548,548,548,548,548,548,548,548,548,548,548,548,548,548,548,548,548,548,548,548,548,548,548,548,548,548,548,539,521,498,473,414,388,366,337,329,302,292,276,262,247,217,203,195,188,185,181,179,179,178,178,178,178,178,178,178,183,201,215,216,217,218,218,218,219,219,220,220,219,214,203,183,178,175,171,169,146,128,115,107,103,99,98,88,79,73,68],"timestamp_mouse":[9,29,62,68,88,108,128,148,168,188,209,229,248,268,288,309,328,348,368,389,409,428,448,468,489,509,530,548,569,589,609,628,648,669,688,708,728,748,768,788,808,828,848,867,889,908,928,948,969,988,1008,1028,1048,1067,1089,1108,1129,1148,1168,1188,1208,1229,1249,1269,1288,1308,1328,1348,1368,1388,1408,1429,1448,1468,1489,1509,1528,1548,1568,1588,1608,1629,1648,1669,1688,1708,1729,1748,1768,1788,1808,1828,1848,1869,1888,1908,1928,1948,1968,1988,2009,2029,2048],"xSR":741.5,"ySR":469.95,"xT1":424.9,"yT1":0,"xT2":1058.1,"yT2":0,"toosoon":0,"cond_shown":"randomdotsizeEA","ratio_trial":750,"smaller_num":"15","larger_num":"20","correct_side":1,"subjID":"valeriaguzmansolano 11","gender":"1","age":"12","school":"6"},{"start_time":1551882843665,"click_time":1551882845395,"finger_time":1551882845034,"fix_duration":250,"trial":2,"RT":1369,"MT":361,"sideResp":1,"stimulus":"img/750/equaldotanddens/L/14_Ratio_750_L_8_R_6.png","xmouse":[817,817,817,817,817,817,815,813,812,812,812,812,812,812,812,812,812,812,812,812,812,812,812,812,812,812,812,812,812,812,812,812,812,812,812,812,812,812,812,812,812,812,812,812,812,812,812,812,812,812,812,812,812,812,812,812,812,812,812,812,812,812,812,812,812,799,777,760,744,726,706,684,656,631,607,550,539,531,528,528,526,524,524,524,526,525,520],"ymouse":[558,558,558,558,558,558,558,558,558,558,558,558,558,558,558,558,558,558,558,558,558,558,558,558,558,558,558,558,558,558,558,558,558,558,558,558,558,558,558,558,558,558,558,558,558,558,558,558,558,558,558,558,558,558,558,558,558,558,558,558,558,558,558,558,558,541,511,486,464,447,411,383,351,327,311,265,249,233,220,206,172,153,137,127,121,106,99],"timestamp_mouse":[12,42,49,69,90,109,129,150,169,189,208,230,249,269,289,309,329,350,369,389,410,429,449,469,489,509,529,550,569,589,609,629,650,671,690,709,730,749,769,789,809,829,849,869,889,909,928,949,970,988,1009,1029,1049,1069,1090,1109,1129,1150,1169,1190,1209,1229,1250,1269,1289,1309,1330,1350,1369,1389,1410,1429,1448,1469,1490,1509,1529,1548,1570,1589,1609,1630,1649,1670,1690,1709,1730],"xSR":741.5,"ySR":469.95,"xT1":424.9,"yT1":0,"xT2":1058.1,"yT2":0,"toosoon":0,"cond_shown":"equaldotanddens","ratio_trial":750,"smaller_num":"6","larger_num":"8","correct_side":1,"subjID":"valeriaguzmansolano 11","gender":"1","age":"12","school":"6"},{"start_time":1551882848302,"click_time":1551882849594,"finger_time":1551882849434,"fix_duration":406.70372067305516,"trial":3,"RT":1132,"MT":160,"sideResp":1,"stimulus":"img/750/equaldotsize/L/10_Ratio_750_L_4_R_3.png","xmouse":[778,772,769,769,769,769,769,769,769,769,769,769,769,769,769,769,769,769,769,769,769,769,769,769,769,769,769,769,769,769,769,769,769,769,769,769,769,769,769,769,769,769,769,769,769,769,769,769,769,769,769,769,769,769,769,769,759,742,700,678,655,623,586,528,517],"ymouse":[518,516,514,514,514,514,514,514,514,514,514,514,514,514,514,514,514,514,515,515,515,515,515,515,515,515,515,515,515,515,515,515,515,515,515,515,515,515,515,515,515,515,515,515,515,515,515,515,515,515,515,515,515,515,508,482,440,380,261,215,171,131,94,54,47],"timestamp_mouse":[12,31,52,72,92,112,132,152,173,192,213,232,253,272,293,313,332,352,372,391,413,433,452,472,493,513,533,552,572,593,613,632,652,672,692,712,732,752,773,793,812,832,852,873,893,913,933,953,972,992,1012,1032,1052,1072,1093,1113,1132,1152,1172,1192,1212,1232,1252,1272,1292],"xSR":741.5,"ySR":469.95,"xT1":424.9,"yT1":0,"xT2":1058.1,"yT2":0,"toosoon":0,"cond_shown":"equaldotsize","ratio_trial":750,"smaller_num":"3","larger_num":"4","correct_side":1,"subjID":"valeriaguzmansolano 11","gender":"1","age":"12","school":"6"},{"start_time":1551882851327,"click_time":1551882852614,"finger_time":1551882852035,"fix_duration":570.7644756916055,"trial":4,"RT":708,"MT":579,"sideResp":1,"stimulus":"img/250/equaldotsize/L/5_Ratio_250_L_24_R_6.png","xmouse":[771,771,771,771,771,771,771,771,771,771,771,771,771,771,771,771,771,771,771,771,771,771,771,771,771,771,771,771,771,771,770,769,767,762,752,734,706,621,537,447,383,325,285,275,266,258,254,254,254,254,254,257,308,329,339,341,343,346,349,351,356,369,406,419,425],"ymouse":[542,542,542,542,542,542,542,542,542,542,542,542,542,542,542,542,542,542,542,542,542,542,542,542,542,542,542,542,542,542,540,540,537,532,520,500,467,370,292,224,177,123,80,67,53,39,27,15,14,14,14,13,13,13,13,13,14,15,16,17,17,18,29,32,33],"timestamp_mouse":[11,38,47,67,87,108,127,147,167,187,207,227,247,267,287,307,328,347,368,387,407,427,448,467,488,508,527,547,567,587,608,627,647,668,688,708,727,747,767,787,808,828,847,868,888,907,928,947,967,987,1007,1027,1048,1067,1088,1108,1128,1147,1168,1187,1207,1228,1247,1268,1287],"xSR":741.5,"ySR":469.95,"xT1":424.9,"yT1":0,"xT2":1058.1,"yT2":0,"toosoon":0,"cond_shown":"equaldotsize","ratio_trial":250,"smaller_num":"6","larger_num":"24","correct_side":1,"subjID":"valeriaguzmansolano 11","gender":"1","age":"12","school":"6"},{"start_time":1551882854287,"click_time":1551882855374,"finger_time":1551882855174,"fix_duration":250,"trial":5,"RT":887,"MT":200,"sideResp":2,"stimulus":"img/900/equaldotanddens/R/7_Ratio_900_L_9_R_10.png","xmouse":[797,797,797,797,797,797,797,797,797,797,797,797,797,797,797,797,797,797,797,797,797,797,797,797,797,797,797,797,797,797,797,797,797,797,797,797,797,797,797,797,798,803,816,837,962,1021,1073,1101,1114,1131,1137,1142,1145,1147,1146],"ymouse":[537,537,537,537,537,537,537,537,537,537,537,537,537,537,537,537,537,537,537,537,537,537,537,537,537,537,537,537,537,537,537,537,537,537,537,537,537,537,537,537,535,533,526,514,395,330,271,239,216,177,159,140,125,110,76],"timestamp_mouse":[9,37,48,68,88,108,127,148,168,188,207,227,247,267,288,307,327,347,367,387,408,427,448,467,488,508,527,548,568,587,608,628,646,668,687,706,728,748,767,787,807,826,847,867,887,908,927,947,966,988,1007,1027,1048,1067,1087],"xSR":741.5,"ySR":469.95,"xT1":424.9,"yT1":0,"xT2":1058.1,"yT2":0,"toosoon":0,"cond_shown":"equaldotanddens","ratio_trial":900,"smaller_num":"9","larger_num":"10","correct_side":2,"subjID":"valeriaguzmansolano 11","gender":"1","age":"12","school":"6"},{"start_time":1551882856547,"click_time":1551882857474,"finger_time":1551882857355,"fix_duration":250,"trial":6,"RT":808,"MT":119,"sideResp":1,"stimulus":"img/250/randomdotsizeEA/L/3_Ratio_250_L_8_R_2.png","xmouse":[763,763,763,763,763,763,763,763,763,763,763,763,763,763,763,763,763,763,763,763,763,763,763,763,762,761,761,761,760,760,760,760,760,760,760,760,758,757,754,748,735,644,596,558,521,487,451],"ymouse":[523,523,523,523,523,523,523,523,523,523,523,523,523,523,523,523,523,523,523,523,523,523,523,523,522,521,521,521,521,521,521,521,521,521,521,521,520,519,515,509,492,379,311,245,173,105,22],"timestamp_mouse":[8,27,47,67,87,107,128,147,168,188,208,227,248,267,288,307,328,347,368,388,408,428,448,468,487,508,528,547,567,587,607,628,647,666,687,708,727,747,767,788,808,827,848,867,887,907,927],"xSR":741.5,"ySR":469.95,"xT1":424.9,"yT1":0,"xT2":1058.1,"yT2":0,"toosoon":0,"cond_shown":"randomdotsizeEA","ratio_trial":250,"smaller_num":"2","larger_num":"8","correct_side":1,"subjID":"valeriaguzmansolano 11","gender":"1","age":"12","school":"6"},{"start_time":1551882859265,"click_time":1551882860314,"finger_time":1551882859874,"fix_duration":768.6645096845289,"trial":7,"RT":609,"MT":440,"sideResp":1,"stimulus":"img/250/equaldotanddens/L/2_Ratio_250_L_16_R_4.png","xmouse":[807,807,807,807,807,807,807,807,807,807,807,807,807,807,807,807,807,807,807,807,807,807,807,807,807,807,806,802,792,774,742,693,674,658,641,619,615,613,612,607,592,583,577,571,563,541,537,535,535,535,531,526,518],"ymouse":[523,523,523,523,523,523,523,523,523,523,523,523,523,523,523,523,523,523,523,523,523,523,523,523,523,523,523,520,509,490,452,379,347,312,274,209,197,185,177,164,139,130,122,116,108,93,90,90,90,90,88,85,82],"timestamp_mouse":[8,40,49,69,90,110,129,149,169,189,209,230,249,270,289,309,330,348,369,389,410,429,450,469,489,509,529,550,569,588,609,630,649,669,689,709,729,749,769,790,810,830,849,869,890,909,929,949,969,989,1009,1029,1048],"xSR":741.5,"ySR":469.95,"xT1":424.9,"yT1":0,"xT2":1058.1,"yT2":0,"toosoon":0,"cond_shown":"equaldotanddens","ratio_trial":250,"smaller_num":"4","larger_num":"16","correct_side":1,"subjID":"valeriaguzmansolano 11","gender":"1","age":"12","school":"6"},{"start_time":1551882861726,"click_time":1551882862514,"finger_time":1551882862315,"fix_duration":250,"trial":8,"RT":589,"MT":199,"sideResp":1,"stimulus":"img/250/randomdotsizeEA/L/2_Ratio_250_L_16_R_4.png","xmouse":[818,818,818,818,818,818,818,818,818,818,818,818,818,818,818,818,818,818,818,818,818,818,816,814,811,806,802,786,777,767,759,750,720,704,682,649,616,552,518,486],"ymouse":[548,548,548,548,548,548,548,548,548,548,548,548,548,548,548,548,548,548,548,548,548,548,546,545,540,533,525,500,480,461,446,434,396,374,341,290,245,159,112,68],"timestamp_mouse":[8,29,49,68,89,108,128,148,168,188,208,229,249,268,288,308,328,348,369,388,408,429,448,469,488,508,529,548,569,589,609,628,648,668,688,708,728,748,769,788],"xSR":741.5,"ySR":469.95,"xT1":424.9,"yT1":0,"xT2":1058.1,"yT2":0,"toosoon":0,"cond_shown":"randomdotsizeEA","ratio_trial":250,"smaller_num":"4","larger_num":"16","correct_side":1,"subjID":"valeriaguzmansolano 11","gender":"1","age":"12","school":"6"},{"start_time":1551882863962,"click_time":1551882865114,"finger_time":1551882864814,"fix_duration":587.0736406116137,"trial":9,"RT":852,"MT":300,"sideResp":1,"stimulus":"img/500/equaldotsize/L/7_Ratio_500_L_10_R_5.png","xmouse":[789,788,788,788,788,788,788,788,788,788,788,788,788,788,788,788,788,788,788,788,788,788,788,788,788,788,788,788,788,788,788,788,788,788,788,788,788,788,788,787,774,758,718,680,638,585,570,566,563,560,536,525,521,517,513,498,483,472],"ymouse":[537,537,537,537,537,537,537,537,537,537,537,537,537,537,537,537,537,537,537,537,537,537,537,537,537,537,537,537,537,537,537,537,537,537,537,537,537,537,537,537,517,497,454,415,371,320,306,298,288,278,243,228,219,207,194,150,115,86],"timestamp_mouse":[22,42,52,72,93,112,133,153,173,192,212,232,251,272,292,312,332,352,373,393,412,433,452,473,492,512,532,552,572,593,613,632,652,673,693,712,732,752,773,792,812,832,852,872,892,913,932,952,972,992,1012,1033,1052,1072,1092,1112,1132,1152],"xSR":741.5,"ySR":469.95,"xT1":424.9,"yT1":0,"xT2":1058.1,"yT2":0,"toosoon":0,"cond_shown":"equaldotsize","ratio_trial":500,"smaller_num":"5","larger_num":"10","correct_side":1,"subjID":"valeriaguzmansolano 11","gender":"1","age":"12","school":"6"},{"start_time":1551882866321,"click_time":1551882868474,"finger_time":1551882868195,"fix_duration":385.47688768306386,"trial":10,"RT":1874,"MT":279,"sideResp":2,"stimulus":"img/900/equaldotsize/R/5_Ratio_900_L_9_R_10.png","xmouse":[787,787,787,787,787,787,787,787,787,787,787,787,787,787,787,787,787,787,787,787,787,787,787,787,787,787,787,787,787,787,787,787,787,787,787,787,787,787,787,787,787,788,789,789,789,789,789,789,789,789,789,789,789,789,789,789,789,789,789,789,789,788,784,782,782,780,779,778,778,778,778,778,778,778,778,778,778,778,778,779,781,785,791,792,793,793,793,794,794,795,796,799,810,820,839,862,889,949,980,1003,1019,1033,1049,1057,1066,1072,1079,1092],"ymouse":[547,547,547,547,547,547,547,547,547,547,547,547,547,547,547,547,547,547,547,547,547,547,547,547,547,547,547,547,547,547,547,547,547,547,547,547,547,547,547,547,547,547,545,544,544,544,544,544,544,544,544,544,544,544,544,544,544,544,544,544,543,542,540,539,538,538,538,537,537,537,537,537,537,537,537,537,537,537,537,537,537,538,540,540,541,541,541,541,541,541,539,533,480,449,411,373,343,278,240,202,175,160,145,137,129,120,111,96],"timestamp_mouse":[13,47,53,73,94,114,134,154,174,194,213,233,253,274,293,314,334,353,374,393,413,433,454,474,493,514,533,553,573,594,613,633,653,674,694,713,734,752,773,794,814,834,853,873,893,914,934,954,973,994,1014,1033,1053,1074,1093,1113,1134,1154,1174,1193,1213,1234,1253,1273,1293,1313,1334,1353,1374,1394,1414,1433,1453,1474,1493,1513,1533,1553,1573,1594,1613,1633,1653,1673,1693,1713,1733,1753,1773,1793,1813,1834,1853,1873,1894,1913,1934,1953,1974,1993,2013,2033,2053,2074,2093,2113,2134,2153],"xSR":741.5,"ySR":469.95,"xT1":424.9,"yT1":0,"xT2":1058.1,"yT2":0,"toosoon":0,"cond_shown":"equaldotsize","ratio_trial":900,"smaller_num":"9","larger_num":"10","correct_side":2,"subjID":"valeriaguzmansolano 11","gender":"1","age":"12","school":"6"},{"start_time":1551882869627,"click_time":1551882871075,"finger_time":1551882870715,"fix_duration":250,"trial":11,"RT":1088,"MT":360,"sideResp":2,"stimulus":"img/900/randomdotsizeEA/L/2_Ratio_900_L_20_R_18.png","xmouse":[776,776,776,776,776,776,776,776,776,776,776,776,776,776,776,776,776,776,776,776,776,776,777,777,777,777,777,777,777,777,777,777,777,777,777,777,777,777,777,777,777,777,777,777,777,777,777,777,777,778,780,782,809,833,859,885,904,932,942,950,958,969,987,995,1004,1014,1028,1066,1082,1098,1112,1120,1136],"ymouse":[528,528,529,529,529,529,529,529,529,529,529,529,529,529,529,530,530,530,530,531,531,531,531,531,531,531,531,531,531,531,531,531,531,531,531,531,531,531,531,531,531,531,531,531,531,531,531,531,531,531,531,531,511,491,465,440,413,360,329,303,285,271,251,239,229,218,204,168,154,138,121,105,76],"timestamp_mouse":[8,28,47,67,87,108,127,147,167,188,208,227,248,267,288,307,328,347,367,387,406,427,447,468,488,508,527,547,567,587,608,627,648,668,687,707,728,748,767,787,807,827,847,867,888,907,928,947,967,987,1007,1027,1047,1068,1088,1107,1127,1147,1168,1187,1208,1228,1247,1266,1287,1307,1328,1347,1367,1388,1408,1427,1448],"xSR":741.5,"ySR":469.95,"xT1":424.9,"yT1":0,"xT2":1058.1,"yT2":0,"toosoon":0,"cond_shown":"randomdotsizeEA","ratio_trial":900,"smaller_num":"18","larger_num":"20","correct_side":1,"subjID":"valeriaguzmansolano 11","gender":"1","age":"12","school":"6"},{"start_time":1551882872843,"click_time":1551882874295,"finger_time":1551882873754,"fix_duration":987.2717636150434,"trial":12,"RT":911,"MT":541,"sideResp":1,"stimulus":"img/250/randomdotsizeEA/L/14_Ratio_250_L_12_R_3.png","xmouse":[785,785,785,785,785,785,785,785,785,785,785,785,785,785,785,785,785,785,785,785,785,785,785,785,785,785,785,785,785,785,785,785,785,785,785,785,785,785,785,785,785,785,777,772,752,728,652,626,607,589,574,552,542,532,524,513,489,481,473,465,460,453,451,449,448,448,448,448,448,448,447,447,447],"ymouse":[561,561,561,561,561,561,561,561,561,561,561,561,561,561,561,561,561,561,561,561,561,561,561,561,561,561,561,561,561,561,561,561,561,561,561,561,561,561,561,561,561,561,548,537,509,476,390,364,344,325,307,278,266,255,245,230,188,173,161,147,137,119,112,108,105,104,104,104,104,104,103,101,97],"timestamp_mouse":[12,38,51,71,92,112,132,152,171,191,211,232,252,271,292,312,331,351,371,391,411,431,451,471,491,512,531,550,572,591,611,631,651,671,691,711,731,752,772,791,812,831,852,871,891,911,931,951,971,991,1012,1032,1051,1071,1091,1111,1131,1152,1171,1191,1211,1232,1251,1271,1291,1311,1331,1351,1372,1392,1411,1431,1451],"xSR":741.5,"ySR":469.95,"xT1":424.9,"yT1":0,"xT2":1058.1,"yT2":0,"toosoon":0,"cond_shown":"randomdotsizeEA","ratio_trial":250,"smaller_num":"3","larger_num":"12","correct_side":1,"subjID":"valeriaguzmansolano 11","gender":"1","age":"12","school":"6"},{"start_time":1551882877795,"click_time":1551882879275,"finger_time":1551882878954,"fix_duration":697.3948901321143,"trial":13,"RT":1159,"MT":321,"sideResp":2,"stimulus":"img/900/equaldotsize/R/9_Ratio_900_L_18_R_20.png","xmouse":[765,765,765,765,765,765,765,765,765,765,765,765,765,765,765,765,765,765,765,765,765,765,765,765,765,765,765,765,765,765,765,765,765,765,765,765,765,765,765,765,765,765,765,765,765,765,765,765,765,765,765,765,767,769,779,791,802,822,854,988,1025,1045,1060,1072,1094,1107,1117,1126,1131,1141,1142,1142,1142,1139,1132],"ymouse":[556,556,556,556,556,556,556,556,556,556,556,556,556,556,556,556,556,556,556,556,556,556,556,556,556,556,556,556,556,556,556,556,556,556,556,556,556,556,556,556,556,556,556,556,556,556,556,556,556,556,556,556,556,555,546,535,523,504,480,403,380,363,348,334,302,283,265,244,221,169,156,144,131,117,92],"timestamp_mouse":[1,19,40,59,80,99,119,139,159,179,199,220,239,259,279,300,320,339,359,380,399,419,440,459,479,499,520,539,559,579,599,620,640,659,679,699,720,739,760,779,799,820,840,860,879,900,919,939,960,979,999,1019,1040,1059,1079,1099,1119,1139,1159,1179,1199,1219,1240,1260,1279,1299,1319,1339,1359,1379,1403,1418,1439,1460,1480],"xSR":741.5,"ySR":469.95,"xT1":424.9,"yT1":0,"xT2":1058.1,"yT2":0,"toosoon":0,"cond_shown":"equaldotsize","ratio_trial":900,"smaller_num":"18","larger_num":"20","correct_side":2,"subjID":"valeriaguzmansolano 11","gender":"1","age":"12","school":"6"},{"start_time":1551882880826,"click_time":1551882882274,"finger_time":1551882881954,"fix_duration":490.42673937405226,"trial":14,"RT":1128,"MT":320,"sideResp":2,"stimulus":"img/750/randomdotsizeEA/L/1_Ratio_750_L_20_R_15.png","xmouse":[770,770,773,775,775,775,775,775,775,775,775,775,775,775,775,775,775,775,775,775,775,775,775,775,775,775,775,775,775,775,775,775,775,775,775,775,775,775,775,775,775,775,775,775,775,775,775,775,775,775,775,776,779,783,795,816,848,941,968,986,999,1008,1016,1019,1021,1026,1035,1051,1053,1054,1056,1057,1064],"ymouse":[530,530,531,532,532,532,532,532,532,532,532,532,532,532,532,532,532,532,532,532,532,532,532,532,532,532,532,532,532,532,532,532,532,532,532,532,532,532,532,532,532,532,532,532,532,532,532,532,532,532,532,532,532,529,520,505,479,365,310,255,209,173,128,105,83,64,48,26,23,21,19,18,11],"timestamp_mouse":[10,34,48,69,89,108,128,148,169,188,208,228,247,269,289,308,329,349,369,388,408,428,449,469,489,509,527,548,569,588,607,628,648,669,688,709,728,748,768,788,808,828,848,868,889,908,928,948,968,988,1008,1028,1048,1069,1089,1109,1128,1149,1168,1188,1208,1229,1248,1268,1288,1308,1328,1348,1368,1388,1408,1428,1448],"xSR":741.5,"ySR":469.95,"xT1":424.9,"yT1":0,"xT2":1058.1,"yT2":0,"toosoon":0,"cond_shown":"randomdotsizeEA","ratio_trial":750,"smaller_num":"15","larger_num":"20","correct_side":1,"subjID":"valeriaguzmansolano 11","gender":"1","age":"12","school":"6"},{"start_time":1551882886006,"click_time":1551882887434,"finger_time":1551882887015,"fix_duration":1430.0161269884281,"trial":15,"RT":1009,"MT":419,"sideResp":1,"stimulus":"img/500/randomdotsizeEA/L/5_Ratio_500_L_4_R_2.png","xmouse":[793,793,793,793,793,793,793,793,795,796,797,798,800,800,800,800,800,800,800,800,800,800,800,800,800,800,800,800,800,800,800,800,800,800,800,800,800,800,800,800,800,800,800,799,799,798,797,796,788,780,771,756,736,684,658,634,620,611,599,593,589,587,584,581,580,577,573,570,560,552,537,518],"ymouse":[533,533,533,533,533,533,533,533,533,532,532,529,528,528,528,528,528,528,528,528,528,528,528,528,528,528,528,528,528,528,528,528,528,528,528,528,528,528,528,527,527,527,527,526,526,526,525,523,497,474,443,401,356,261,220,184,161,142,91,74,59,49,43,39,38,37,36,35,35,35,37,39],"timestamp_mouse":[8,33,49,69,89,107,128,148,168,189,209,229,249,268,288,308,328,348,368,389,408,429,449,468,488,508,528,549,568,589,609,628,647,668,689,709,729,747,768,789,808,828,848,868,888,908,928,949,968,989,1009,1028,1049,1068,1089,1108,1128,1148,1168,1189,1208,1229,1247,1268,1288,1308,1328,1348,1368,1388,1408,1428],"xSR":741.5,"ySR":469.95,"xT1":424.9,"yT1":0,"xT2":1058.1,"yT2":0,"toosoon":0,"cond_shown":"randomdotsizeEA","ratio_trial":500,"smaller_num":"2","larger_num":"4","correct_side":1,"subjID":"valeriaguzmansolano 11","gender":"1","age":"12","school":"6"},{"start_time":1551882907841,"click_time":1551882908996,"finger_time":1551882908574,"fix_duration":1425.8296486798174,"trial":16,"RT":733,"MT":422,"sideResp":2,"stimulus":"img/500/equaldotanddens/R/14_Ratio_500_L_5_R_10.png","xmouse":[781,781,781,781,781,781,781,781,781,781,781,781,781,781,781,781,781,781,782,782,782,782,782,783,782,768,758,758,758,758,758,758,758,758,771,795,869,904,934,951,963,990,997,998,995,986,951,942,938,938,938,939,942,948,964,987,1044,1060],"ymouse":[547,547,547,547,547,547,547,547,547,547,547,547,547,547,547,547,547,547,547,547,547,547,547,547,549,557,563,563,563,563,563,563,563,563,559,546,504,479,456,438,417,359,335,314,293,272,172,134,107,93,83,76,72,69,64,56,45,45],"timestamp_mouse":[15,38,55,74,94,115,134,153,173,193,214,233,253,273,294,314,333,354,373,393,413,434,453,475,494,513,533,555,574,595,615,634,654,673,695,714,733,754,775,794,815,834,854,873,894,915,934,954,973,994,1013,1034,1054,1073,1093,1113,1134,1155],"xSR":741.5,"ySR":469.95,"xT1":424.9,"yT1":0,"xT2":1058.1,"yT2":0,"toosoon":0,"cond_shown":"equaldotanddens","ratio_trial":500,"smaller_num":"5","larger_num":"10","correct_side":2,"subjID":"valeriaguzmansolano 11","gender":"1","age":"12","school":"6"},{"start_time":1551882911087,"click_time":1551882912334,"finger_time":1551882911835,"fix_duration":250,"trial":17,"RT":748,"MT":499,"sideResp":1,"stimulus":"img/250/equaldotanddens/L/5_Ratio_250_L_24_R_6.png","xmouse":[801,801,801,801,801,801,801,801,801,801,801,801,801,801,801,801,801,801,801,801,801,801,801,801,801,801,801,801,801,801,801,801,801,801,798,790,782,772,763,743,740,740,740,732,690,670,648,625,612,612,612,612,612,612,612,612,612,612,612,612,612,519,513],"ymouse":[532,532,532,532,532,532,532,532,532,532,532,532,532,532,532,532,532,532,532,532,532,532,532,532,532,532,532,532,532,532,532,532,532,532,521,504,483,464,443,393,350,279,211,149,58,37,21,8,1,1,1,1,1,1,1,1,1,1,1,1,1,0,5],"timestamp_mouse":[8,33,48,68,87,107,127,147,167,187,207,228,247,267,288,308,328,348,368,387,407,428,447,469,487,507,528,548,567,587,607,628,647,667,688,707,727,748,769,789,807,827,847,867,887,907,928,949,969,987,1008,1027,1048,1067,1088,1108,1127,1148,1168,1187,1208,1228,1247],"xSR":741.5,"ySR":469.95,"xT1":424.9,"yT1":0,"xT2":1058.1,"yT2":0,"toosoon":0,"cond_shown":"equaldotanddens","ratio_trial":250,"smaller_num":"6","larger_num":"24","correct_side":1,"subjID":"valeriaguzmansolano 11","gender":"1","age":"12","school":"6"},{"start_time":1551882914655,"click_time":1551882915855,"finger_time":1551882915474,"fix_duration":1279.8169603738343,"trial":18,"RT":819,"MT":381,"sideResp":2,"stimulus":"img/900/randomdotsizeEA/R/15_Ratio_900_L_9_R_10.png","xmouse":[822,822,822,822,822,822,822,822,822,822,822,822,822,822,822,822,822,822,822,822,822,822,822,822,822,822,822,822,822,822,822,822,822,822,822,822,822,822,822,828,832,862,877,892,903,912,926,927,928,928,928,931,939,949,961,979,1057,1081,1096,1108,1116],"ymouse":[539,539,539,539,539,539,539,539,539,539,539,539,539,539,539,539,539,539,539,539,539,539,539,539,539,539,539,539,539,539,539,539,539,539,539,539,539,539,539,534,532,509,497,483,469,452,417,411,408,407,407,401,387,371,349,321,206,164,133,108,88],"timestamp_mouse":[2,19,40,67,79,100,119,140,160,181,200,220,239,259,280,299,319,339,361,379,400,420,440,460,480,499,520,539,560,579,599,620,640,660,679,699,719,741,761,780,799,819,839,859,879,900,919,940,959,979,1000,1019,1041,1059,1079,1099,1119,1139,1159,1179,1199],"xSR":741.5,"ySR":469.95,"xT1":424.9,"yT1":0,"xT2":1058.1,"yT2":0,"toosoon":0,"cond_shown":"randomdotsizeEA","ratio_trial":900,"smaller_num":"9","larger_num":"10","correct_side":2,"subjID":"valeriaguzmansolano 11","gender":"1","age":"12","school":"6"},{"start_time":1551882919634,"click_time":1551882922055,"finger_time":1551882920774,"fix_duration":919.0814843941042,"trial":19,"RT":1140,"MT":1281,"sideResp":2,"stimulus":"img/500/randomdotsizeEA/R/14_Ratio_500_L_5_R_10.png","xmouse":[776,774,773,773,773,772,772,772,772,772,772,772,772,772,772,772,772,772,772,772,772,772,772,772,772,772,772,772,772,772,772,772,772,772,772,772,772,772,772,772,772,772,772,772,772,772,772,772,772,772,772,772,772,772,772,766,758,721,714,711,711,711,711,711,711,711,711,711,711,714,717,721,731,735,738,744,752,765,767,768,769,771,775,780,785,790,798,814,828,849,896,964,1093,1157,1211,1230,1230,1230,1230,1230,1230,1230,1230,1230,1230,1230,1230,1230,1230,1230,1230,1230,1230,1230,1230,1173,1172,1171,1170,1167,1162,1158],"ymouse":[543,540,539,538,538,537,537,537,537,537,537,537,537,537,537,537,537,537,537,537,537,537,537,537,537,537,537,537,537,537,537,537,537,537,537,537,537,537,537,537,537,537,537,537,537,537,537,537,537,537,537,537,537,537,537,529,522,492,487,485,485,485,485,485,485,485,485,485,485,485,485,488,492,494,495,497,501,506,506,507,507,507,507,507,507,506,503,494,483,464,419,350,202,122,46,16,16,16,16,16,16,16,16,16,16,16,16,16,16,16,16,16,16,16,16,0,2,5,6,10,16,21],"timestamp_mouse":[1,20,42,61,81,100,120,142,160,180,201,221,242,262,280,301,321,341,361,381,400,420,441,462,481,500,520,541,560,580,601,620,641,660,681,702,720,741,760,781,801,822,840,860,882,901,920,940,960,980,1000,1020,1040,1061,1081,1102,1122,1140,1160,1180,1200,1221,1240,1262,1281,1300,1321,1341,1361,1381,1401,1421,1440,1461,1482,1502,1521,1540,1560,1581,1600,1621,1641,1662,1682,1701,1721,1740,1761,1780,1800,1822,1840,1861,1880,1901,1921,1941,1960,1981,2002,2021,2041,2060,2080,2101,2121,2141,2161,2180,2201,2221,2242,2261,2281,2301,2321,2341,2360,2381,2401,2421],"xSR":741.5,"ySR":469.95,"xT1":424.9,"yT1":0,"xT2":1058.1,"yT2":0,"toosoon":0,"cond_shown":"randomdotsizeEA","ratio_trial":500,"smaller_num":"5","larger_num":"10","correct_side":2,"subjID":"valeriaguzmansolano 11","gender":"1","age":"12","school":"6"},{"start_time":1551882926958,"click_time":1551882927974,"finger_time":1551882927694,"fix_duration":1401.2209933296126,"trial":20,"RT":736,"MT":280,"sideResp":2,"stimulus":"img/500/equaldotanddens/R/14_Ratio_500_L_5_R_10.png","xmouse":[794,794,794,795,796,796,796,796,796,796,796,796,796,796,796,796,796,796,796,796,796,796,796,796,796,796,796,796,796,796,796,796,796,796,799,811,825,844,875,903,979,1001,1016,1027,1036,1056,1061,1068,1071,1072,1072],"ymouse":[482,482,483,483,483,484,485,486,486,486,486,486,486,486,486,486,486,486,486,486,486,486,486,486,486,486,486,486,486,486,486,486,486,486,484,476,467,454,436,420,365,343,321,297,269,215,192,170,139,127,92],"timestamp_mouse":[16,38,57,77,97,116,138,157,177,196,217,236,257,277,297,317,338,357,378,397,417,436,456,477,496,517,536,556,577,596,616,636,656,676,698,718,736,756,777,797,816,837,857,877,897,917,937,968,977,997,1016],"xSR":741.5,"ySR":469.95,"xT1":424.9,"yT1":0,"xT2":1058.1,"yT2":0,"toosoon":0,"cond_shown":"equaldotanddens","ratio_trial":500,"smaller_num":"5","larger_num":"10","correct_side":2,"subjID":"valeriaguzmansolano 11","gender":"1","age":"12","school":"6"},{"start_time":1551882929776,"click_time":1551882931034,"finger_time":1551882930554,"fix_duration":759.5045985187434,"trial":21,"RT":778,"MT":480,"sideResp":2,"stimulus":"img/250/randomdotsizeEA/R/12_Ratio_250_L_5_R_20.png","xmouse":[780,780,780,780,780,780,780,780,780,780,780,780,780,780,780,780,780,780,780,780,780,780,780,780,780,780,780,780,780,781,781,781,782,784,801,811,820,829,846,871,885,899,914,928,947,957,969,986,989,1003,1007,1010,1012,1017,1020,1022,1027,1034,1044,1075,1090,1105,1117],"ymouse":[544,544,544,544,544,544,544,544,544,544,544,544,544,544,544,544,544,544,544,545,545,545,545,545,545,545,545,545,545,545,545,545,545,545,533,527,520,514,505,486,473,453,430,410,367,343,309,259,245,196,182,174,169,164,161,159,157,153,146,124,113,103,93],"timestamp_mouse":[18,42,58,80,99,119,138,159,179,198,218,239,260,278,299,318,339,358,378,399,418,439,458,479,498,518,538,560,580,599,619,638,659,679,699,718,740,759,778,798,818,839,860,880,899,919,938,959,979,998,1019,1039,1059,1079,1099,1119,1138,1159,1179,1198,1219,1239,1258],"xSR":741.5,"ySR":469.95,"xT1":424.9,"yT1":0,"xT2":1058.1,"yT2":0,"toosoon":0,"cond_shown":"randomdotsizeEA","ratio_trial":250,"smaller_num":"5","larger_num":"20","correct_side":2,"subjID":"valeriaguzmansolano 11","gender":"1","age":"12","school":"6"},{"start_time":1551882932286,"click_time":1551882933454,"finger_time":1551882933174,"fix_duration":250,"trial":22,"RT":888,"MT":280,"sideResp":2,"stimulus":"img/750/equaldotanddens/R/4_Ratio_750_L_15_R_20.png","xmouse":[797,797,797,797,797,797,797,797,797,797,797,797,797,797,797,797,797,797,797,797,797,797,797,797,797,797,797,797,797,797,797,797,797,797,797,797,797,797,797,797,804,811,819,826,844,861,883,909,934,982,996,1009,1018,1021,1033,1040,1049,1056,1061],"ymouse":[556,556,556,556,556,556,556,556,556,556,556,556,556,556,556,556,556,556,556,556,556,556,556,556,556,556,556,556,556,556,556,556,556,556,556,556,556,556,556,552,539,527,514,501,463,433,386,344,303,225,201,174,150,131,97,85,69,58,47],"timestamp_mouse":[8,28,48,69,90,108,128,149,169,188,208,229,249,268,289,309,330,348,368,388,409,429,449,468,489,510,528,549,570,589,609,628,649,668,689,708,728,748,769,789,808,828,849,868,888,909,930,949,968,989,1009,1028,1048,1069,1088,1109,1128,1148,1168],"xSR":741.5,"ySR":469.95,"xT1":424.9,"yT1":0,"xT2":1058.1,"yT2":0,"toosoon":0,"cond_shown":"equaldotanddens","ratio_trial":750,"smaller_num":"15","larger_num":"20","correct_side":2,"subjID":"valeriaguzmansolano 11","gender":"1","age":"12","school":"6"},{"start_time":1551882937504,"click_time":1551882938675,"finger_time":1551882938274,"fix_duration":807.6537672201322,"trial":23,"RT":770,"MT":401,"sideResp":2,"stimulus":"img/900/equaldotanddens/L/8_Ratio_900_L_20_R_18.png","xmouse":[769,769,769,769,769,769,769,769,769,769,769,769,769,769,769,769,769,769,769,769,769,769,769,769,769,769,769,769,769,769,769,769,769,769,770,786,811,841,875,887,898,909,914,926,928,928,928,928,928,928,928,934,938,970,994,1023,1051,1078,1121],"ymouse":[559,559,559,559,559,559,559,559,559,559,559,559,559,559,559,559,559,559,559,559,559,559,559,559,559,559,559,559,559,559,559,559,559,559,559,545,517,477,420,391,362,328,317,281,274,270,269,269,269,268,267,257,251,215,198,178,156,134,99],"timestamp_mouse":[10,36,51,71,92,110,130,152,170,190,211,231,251,272,290,310,330,350,370,390,411,431,451,470,491,510,530,551,570,591,611,632,652,671,691,712,732,751,770,790,810,831,852,870,891,911,930,951,970,991,1011,1032,1051,1070,1091,1111,1131,1151,1170],"xSR":741.5,"ySR":469.95,"xT1":424.9,"yT1":0,"xT2":1058.1,"yT2":0,"toosoon":0,"cond_shown":"equaldotanddens","ratio_trial":900,"smaller_num":"18","larger_num":"20","correct_side":1,"subjID":"valeriaguzmansolano 11","gender":"1","age":"12","school":"6"},{"start_time":1551882941086,"click_time":1551882942475,"finger_time":1551882941914,"fix_duration":1349.8545657565128,"trial":24,"RT":828,"MT":561,"sideResp":1,"stimulus":"img/750/randomdotsizeEA/L/8_Ratio_750_L_4_R_3.png","xmouse":[780,780,780,780,780,780,780,780,780,781,781,781,781,781,781,781,781,781,781,781,781,782,782,782,782,782,782,782,782,782,782,782,782,782,782,782,782,782,782,779,766,739,706,681,658,655,652,650,649,645,635,625,605,599,574,564,555,547,540,536,535,534,533,533,532,529,528,527,525,523],"ymouse":[536,536,536,536,536,536,536,536,535,534,534,533,533,533,533,533,533,533,533,531,529,525,522,519,515,515,515,515,515,515,515,515,515,515,515,515,515,515,514,507,489,456,418,391,358,353,349,344,340,329,315,298,268,260,218,202,186,174,164,155,154,150,141,122,102,97,94,91,90,88],"timestamp_mouse":[9,41,49,69,88,109,128,149,170,188,208,228,248,269,288,308,329,348,368,388,408,430,448,469,488,510,529,548,569,588,609,630,649,668,688,709,729,749,768,789,809,828,849,869,888,909,929,949,969,988,1008,1028,1049,1068,1088,1108,1128,1148,1168,1188,1208,1230,1248,1268,1289,1308,1328,1349,1368,1389],"xSR":741.5,"ySR":469.95,"xT1":424.9,"yT1":0,"xT2":1058.1,"yT2":0,"toosoon":0,"cond_shown":"randomdotsizeEA","ratio_trial":750,"smaller_num":"3","larger_num":"4","correct_side":1,"subjID":"valeriaguzmansolano 11","gender":"1","age":"12","school":"6"},{"start_time":1551882944737,"click_time":1551882946134,"finger_time":1551882945995,"fix_duration":1161.2376563259954,"trial":25,"RT":1258,"MT":139,"sideResp":2,"stimulus":"img/900/randomdotsizeEA/L/8_Ratio_900_L_20_R_18.png","xmouse":[817,817,817,817,817,817,817,817,817,817,817,817,817,817,817,817,817,817,817,817,817,817,817,817,817,817,817,817,817,817,817,817,817,817,817,817,817,817,817,817,817,817,817,817,817,817,817,817,817,817,817,817,817,817,817,817,817,817,817,817,817,823,843,874,902,931,979,1006,1035,1059],"ymouse":[517,517,517,517,517,517,517,517,517,517,517,517,517,517,517,517,517,517,517,517,517,517,517,517,517,517,517,517,517,517,517,517,517,517,517,517,517,517,517,517,517,517,517,517,517,517,517,517,517,517,517,517,517,517,517,517,517,517,517,517,517,513,496,467,439,402,286,222,157,96],"timestamp_mouse":[18,37,57,78,99,117,137,159,178,199,217,237,258,278,299,318,337,357,377,397,417,437,457,477,499,518,537,558,578,598,618,637,657,677,697,718,737,757,778,798,818,837,857,877,899,917,937,958,978,998,1017,1037,1059,1078,1098,1118,1137,1157,1178,1197,1218,1237,1258,1277,1299,1317,1337,1358,1377,1397],"xSR":741.5,"ySR":469.95,"xT1":424.9,"yT1":0,"xT2":1058.1,"yT2":0,"toosoon":0,"cond_shown":"randomdotsizeEA","ratio_trial":900,"smaller_num":"18","larger_num":"20","correct_side":1,"subjID":"valeriaguzmansolano 11","gender":"1","age":"12","school":"6"},{"start_time":1551882948457,"click_time":1551882949855,"finger_time":1551882949474,"fix_duration":1361.625691999806,"trial":26,"RT":1017,"MT":381,"sideResp":1,"stimulus":"img/500/equaldotanddens/L/10_Ratio_500_L_4_R_2.png","xmouse":[771,771,771,771,771,771,771,771,771,771,770,770,770,770,770,770,769,769,769,769,769,769,769,769,769,769,769,769,769,769,769,769,769,769,769,769,769,769,769,769,769,769,769,769,769,769,769,769,769,769,769,760,743,726,708,668,649,628,609,597,588,585,581,575,568,553,548,543,533,522],"ymouse":[511,511,511,511,511,511,511,510,509,507,503,503,503,503,503,500,498,496,495,495,495,495,495,495,495,495,495,495,495,495,495,495,495,495,495,495,495,495,495,495,495,495,495,495,495,495,495,495,495,493,456,406,358,320,291,236,212,197,182,173,165,159,153,145,137,122,117,112,103,93],"timestamp_mouse":[18,37,58,78,97,118,139,157,178,198,217,239,257,278,298,317,338,359,377,398,419,438,458,477,499,517,537,557,577,597,618,638,657,678,697,718,737,757,777,797,818,839,857,878,899,917,938,958,977,998,1017,1038,1058,1078,1098,1118,1137,1158,1177,1198,1217,1239,1258,1279,1298,1317,1338,1357,1377,1398],"xSR":741.5,"ySR":469.95,"xT1":424.9,"yT1":0,"xT2":1058.1,"yT2":0,"toosoon":0,"cond_shown":"equaldotanddens","ratio_trial":500,"smaller_num":"2","larger_num":"4","correct_side":1,"subjID":"valeriaguzmansolano 11","gender":"1","age":"12","school":"6"},{"start_time":1551882951328,"click_time":1551882953174,"finger_time":1551882952676,"fix_duration":651.2572030132021,"trial":27,"RT":1348,"MT":498,"sideResp":1,"stimulus":"img/500/randomdotsizeEA/L/11_Ratio_500_L_12_R_6.png","xmouse":[811,811,811,811,811,811,811,811,811,811,811,811,811,811,811,811,811,811,811,811,811,811,811,811,811,811,811,811,811,811,811,811,811,811,811,811,811,811,811,811,811,811,811,811,811,811,811,811,811,811,811,811,811,811,811,811,811,811,811,811,811,810,807,801,792,777,764,748,741,736,729,717,683,669,657,643,629,602,589,576,567,560,528,516,512,510,509,505,501,499,497,493,482],"ymouse":[535,535,535,535,535,535,535,535,535,535,535,535,535,535,535,535,535,535,535,535,535,535,535,535,535,535,535,535,535,535,535,535,535,535,535,535,535,535,535,535,535,535,535,535,535,535,535,535,535,535,535,535,535,535,535,535,535,535,535,535,535,536,529,521,507,491,479,459,451,444,434,422,371,347,323,300,280,253,240,230,222,216,194,185,180,176,173,162,155,145,137,124,86],"timestamp_mouse":[6,40,46,67,86,106,126,146,167,186,206,226,247,266,286,307,327,346,366,387,407,427,446,468,487,507,526,548,566,586,607,626,646,666,686,707,727,747,766,786,806,826,846,867,886,906,927,946,967,986,1006,1028,1046,1067,1086,1106,1127,1146,1166,1188,1206,1228,1246,1267,1288,1307,1327,1348,1367,1386,1406,1427,1446,1468,1487,1507,1527,1547,1567,1586,1607,1628,1647,1666,1687,1708,1726,1746,1766,1787,1806,1827,1846],"xSR":741.5,"ySR":469.95,"xT1":424.9,"yT1":0,"xT2":1058.1,"yT2":0,"toosoon":0,"cond_shown":"randomdotsizeEA","ratio_trial":500,"smaller_num":"6","larger_num":"12","correct_side":1,"subjID":"valeriaguzmansolano 11","gender":"1","age":"12","school":"6"},{"start_time":1551882954677,"click_time":1551882956075,"finger_time":1551882955654,"fix_duration":501.41820136697066,"trial":28,"RT":977,"MT":421,"sideResp":1,"stimulus":"img/750/randomdotsizeEA/L/6_Ratio_750_L_24_R_18.png","xmouse":[785,785,786,787,787,787,787,787,787,787,787,787,787,787,787,787,787,787,787,787,787,787,787,787,787,787,787,787,787,787,787,787,787,787,787,787,787,787,787,787,787,787,785,782,776,772,762,743,720,679,661,646,631,619,579,558,536,517,502,480,473,472,472,472,472,472,478,486,494,500],"ymouse":[569,569,569,569,569,569,569,569,569,569,569,569,569,569,569,569,569,569,569,569,569,569,569,569,569,569,569,569,569,569,569,569,569,569,569,569,569,569,569,569,569,569,569,567,562,562,555,542,526,494,484,472,458,444,405,390,372,351,325,281,264,256,251,239,215,196,173,150,125,87],"timestamp_mouse":[21,39,58,77,98,118,138,157,177,197,218,238,257,277,297,317,338,358,377,397,418,439,457,477,497,519,538,557,577,598,618,637,658,677,697,717,737,758,777,798,817,837,858,878,898,918,937,958,977,997,1017,1037,1057,1077,1097,1117,1137,1158,1177,1198,1217,1239,1257,1278,1297,1318,1337,1357,1377,1398],"xSR":741.5,"ySR":469.95,"xT1":424.9,"yT1":0,"xT2":1058.1,"yT2":0,"toosoon":0,"cond_shown":"randomdotsizeEA","ratio_trial":750,"smaller_num":"18","larger_num":"24","correct_side":1,"subjID":"valeriaguzmansolano 11","gender":"1","age":"12","school":"6"},{"start_time":1551882958873,"click_time":1551882960035,"finger_time":1551882959555,"fix_duration":356.6525945379998,"trial":29,"RT":682,"MT":480,"sideResp":2,"stimulus":"img/750/equaldotanddens/R/3_Ratio_750_L_15_R_20.png","xmouse":[780,780,781,781,781,781,781,781,781,781,781,781,781,781,781,781,781,781,781,781,781,781,781,781,781,781,781,781,781,781,783,796,812,829,845,886,903,918,931,943,972,990,1002,1009,1009,1009,1009,1009,1009,1009,1011,1013,1014,1016,1020,1044,1051,1056,1061],"ymouse":[528,527,527,527,527,527,527,527,527,527,527,527,527,527,527,527,527,527,527,527,527,527,527,527,527,527,527,527,527,527,527,525,518,511,503,470,452,434,416,401,356,322,285,249,242,223,217,210,197,182,161,155,152,146,138,104,95,88,80],"timestamp_mouse":[6,26,41,62,82,102,122,143,162,181,203,221,242,263,281,302,321,342,361,383,401,422,442,461,482,502,522,542,562,581,601,622,642,661,682,701,723,741,761,781,801,822,841,862,883,902,922,942,962,983,1002,1021,1041,1061,1081,1102,1122,1143,1162],"xSR":741.5,"ySR":469.95,"xT1":424.9,"yT1":0,"xT2":1058.1,"yT2":0,"toosoon":0,"cond_shown":"equaldotanddens","ratio_trial":750,"smaller_num":"15","larger_num":"20","correct_side":2,"subjID":"valeriaguzmansolano 11","gender":"1","age":"12","school":"6"},{"start_time":1551882962649,"click_time":1551882963735,"finger_time":1551882963394,"fix_duration":973.339886927437,"trial":30,"RT":745,"MT":341,"sideResp":2,"stimulus":"img/900/equaldotsize/R/14_Ratio_900_L_18_R_20.png","xmouse":[797,797,797,797,797,797,797,797,797,797,797,797,797,797,797,797,797,797,797,797,797,797,797,797,797,797,797,797,797,797,797,797,798,798,800,811,837,859,892,927,965,1017,1029,1037,1042,1044,1048,1048,1052,1059,1067,1078,1081,1085,1092],"ymouse":[531,531,531,531,531,531,531,531,531,531,531,531,531,531,531,531,531,531,531,531,531,531,531,531,531,531,531,531,531,531,531,531,531,531,531,525,503,479,449,418,386,317,289,268,249,234,215,206,192,172,150,121,112,104,93],"timestamp_mouse":[10,34,45,65,85,106,126,146,165,185,206,225,245,265,285,307,326,346,366,386,405,426,446,465,486,506,525,546,566,585,605,625,646,666,685,706,725,745,765,786,806,826,846,865,886,905,925,947,966,986,1005,1025,1045,1066,1086],"xSR":741.5,"ySR":469.95,"xT1":424.9,"yT1":0,"xT2":1058.1,"yT2":0,"toosoon":0,"cond_shown":"equaldotsize","ratio_trial":900,"smaller_num":"18","larger_num":"20","correct_side":2,"subjID":"valeriaguzmansolano 11","gender":"1","age":"12","school":"6"},{"start_time":1551882969530,"click_time":1551882972434,"finger_time":1551882970514,"fix_duration":674.6629499196969,"trial":31,"RT":984,"MT":1920,"sideResp":1,"stimulus":"img/900/randomdotsizeEA/L/4_Ratio_900_L_20_R_18.png","xmouse":[796,796,796,796,796,796,796,796,796,796,796,796,796,796,796,796,796,796,796,796,796,796,796,796,796,796,796,796,796,796,796,796,796,796,796,796,796,796,796,796,796,796,796,796,796,796,795,790,778,748,710,671,619,611,603,597,591,582,579,577,576,576,576,576,576,578,581,604,615,625,633,644,669,682,696,711,728,755,762,765,767,770,775,776,777,778,778,780,780,781,783,794,811,818,825,837,848,906,979,1035,1076,1111,1124,1124,1118,1110,1104,1100,1098,1097,1095,1091,1079,1074,1067,1062,1055,1039,1021,1000,980,953,915,890,852,814,776,696,664,634,613,593,550,537,525,520,520,519,519,519,519,518,513,510,506,504],"ymouse":[537,537,537,537,537,537,537,537,537,537,537,537,537,537,537,537,537,537,537,537,537,537,537,537,537,537,537,537,537,537,537,537,537,537,537,537,537,537,537,537,537,537,537,537,537,537,536,529,508,460,405,353,292,281,275,269,263,246,242,239,238,238,238,238,238,238,238,249,254,259,263,268,279,284,289,296,302,313,316,317,318,319,323,324,326,326,327,330,332,333,335,339,346,349,351,351,350,339,331,320,307,291,265,254,244,240,238,236,236,235,235,235,238,241,245,249,252,260,267,273,275,276,266,256,239,224,213,195,191,188,186,186,177,171,166,163,163,159,159,159,159,151,131,121,109,98],"timestamp_mouse":[9,24,46,66,84,104,124,146,166,184,205,225,244,264,285,304,324,344,364,385,406,424,444,465,484,506,524,544,566,584,604,625,644,666,685,706,724,746,764,784,805,824,844,864,884,906,924,944,965,984,1004,1025,1044,1065,1085,1104,1125,1144,1164,1184,1206,1225,1249,1264,1284,1305,1325,1345,1365,1384,1404,1424,1444,1465,1485,1506,1526,1544,1565,1584,1604,1625,1644,1664,1684,1705,1726,1746,1766,1785,1805,1825,1844,1864,1885,1905,1924,1945,1965,1986,2004,2025,2044,2064,2085,2104,2125,2145,2165,2185,2205,2225,2246,2264,2285,2304,2325,2345,2364,2384,2404,2425,2444,2464,2484,2505,2525,2544,2565,2585,2605,2625,2646,2665,2685,2704,2725,2746,2764,2785,2805,2825,2845,2865,2885,2904],"xSR":741.5,"ySR":469.95,"xT1":424.9,"yT1":0,"xT2":1058.1,"yT2":0,"toosoon":0,"cond_shown":"randomdotsizeEA","ratio_trial":900,"smaller_num":"18","larger_num":"20","correct_side":1,"subjID":"valeriaguzmansolano 11","gender":"1","age":"12","school":"6"},{"start_time":1551882975420,"click_time":1551882976875,"finger_time":1551882976454,"fix_duration":703.9393995698787,"trial":32,"RT":1034,"MT":421,"sideResp":1,"stimulus":"img/750/randomdotsizeEA/L/9_Ratio_750_L_4_R_3.png","xmouse":[820,820,820,820,820,820,820,820,820,820,820,820,820,820,820,820,820,820,820,820,820,820,820,820,820,820,820,820,820,820,820,820,820,820,820,820,820,820,820,820,820,820,820,820,820,820,819,810,806,802,797,793,779,760,745,727,708,658,638,623,612,604,596,592,587,581,573,561,556,550,541,531,522],"ymouse":[502,502,502,502,502,502,502,502,502,502,502,502,502,502,502,502,502,502,502,502,502,502,502,502,502,502,502,502,502,502,502,502,502,502,502,502,502,502,502,502,502,502,502,502,502,502,501,491,484,478,471,463,441,419,398,376,355,289,263,242,225,212,191,178,165,155,143,126,120,114,107,99,92],"timestamp_mouse":[15,43,55,76,94,115,134,154,174,195,214,236,254,275,294,315,336,355,374,396,415,434,455,474,494,515,534,554,575,594,614,635,654,674,694,714,735,755,774,795,816,834,855,874,894,915,935,955,974,994,1016,1034,1055,1075,1095,1114,1134,1155,1174,1195,1215,1234,1254,1276,1294,1314,1335,1355,1374,1395,1415,1435,1455],"xSR":741.5,"ySR":469.95,"xT1":424.9,"yT1":0,"xT2":1058.1,"yT2":0,"toosoon":0,"cond_shown":"randomdotsizeEA","ratio_trial":750,"smaller_num":"3","larger_num":"4","correct_side":1,"subjID":"valeriaguzmansolano 11","gender":"1","age":"12","school":"6"},{"start_time":1551882978627,"click_time":1551882979934,"finger_time":1551882979474,"fix_duration":690.2950099554934,"trial":33,"RT":847,"MT":460,"sideResp":2,"stimulus":"img/500/equaldotsize/R/12_Ratio_500_L_1_R_2.png","xmouse":[817,817,817,817,817,817,817,817,817,817,817,817,817,817,817,817,817,817,817,817,817,817,817,817,817,817,817,817,817,817,817,817,817,817,817,817,817,817,817,817,817,822,842,864,882,896,898,912,923,933,945,954,969,977,981,983,990,1005,1013,1020,1029,1038,1049,1053,1057,1060],"ymouse":[521,521,521,521,521,521,521,521,521,521,521,521,521,521,521,521,521,521,521,521,521,521,521,521,521,521,521,521,521,521,521,521,521,521,521,521,521,521,521,521,521,518,500,489,483,476,475,452,433,408,378,345,290,263,241,225,203,177,162,150,138,128,112,106,102,99],"timestamp_mouse":[9,31,47,68,88,108,129,147,168,187,209,228,248,267,288,308,328,348,369,387,408,428,448,468,487,507,527,548,568,588,607,628,648,668,689,707,727,748,768,788,808,827,847,868,887,907,929,948,968,987,1007,1028,1048,1068,1088,1109,1128,1148,1168,1187,1208,1228,1248,1268,1287,1307],"xSR":741.5,"ySR":469.95,"xT1":424.9,"yT1":0,"xT2":1058.1,"yT2":0,"toosoon":0,"cond_shown":"equaldotsize","ratio_trial":500,"smaller_num":"1","larger_num":"2","correct_side":2,"subjID":"valeriaguzmansolano 11","gender":"1","age":"12","school":"6"},{"start_time":1551882982048,"click_time":1551882983875,"finger_time":1551882983694,"fix_duration":1291.2084136800245,"trial":34,"RT":1646,"MT":181,"sideResp":1,"stimulus":"img/900/equaldotanddens/L/4_Ratio_900_L_20_R_18.png","xmouse":[784,784,784,784,784,784,784,784,784,784,784,784,784,784,784,784,784,784,784,784,784,784,784,784,784,784,784,784,784,784,784,784,784,784,784,784,784,784,784,784,784,784,784,784,784,784,784,784,784,784,784,784,784,784,784,784,784,784,784,784,784,784,784,784,784,784,784,784,784,784,784,784,784,784,784,784,782,782,781,780,779,774,771,766,752,720,619,579,547,522,495,448],"ymouse":[541,541,541,541,541,541,541,541,541,541,541,541,541,541,541,541,541,541,541,541,541,541,541,541,541,541,541,541,541,541,541,541,541,541,541,541,541,541,541,541,541,541,541,541,541,541,541,541,541,541,541,541,541,541,541,541,541,541,541,541,541,541,541,541,541,541,541,541,541,541,541,541,541,541,541,542,538,535,531,526,515,483,464,446,422,385,268,224,191,166,131,47],"timestamp_mouse":[9,43,47,68,86,107,127,146,168,186,207,227,246,267,286,306,327,346,366,386,408,426,447,466,486,506,527,546,567,587,606,626,647,666,687,706,726,747,767,787,806,826,846,866,888,907,926,947,966,987,1006,1026,1046,1067,1086,1106,1126,1146,1167,1187,1206,1226,1246,1268,1287,1307,1326,1346,1368,1388,1407,1426,1448,1468,1488,1508,1527,1547,1567,1586,1607,1627,1646,1667,1687,1707,1726,1747,1766,1788,1807,1827],"xSR":741.5,"ySR":469.95,"xT1":424.9,"yT1":0,"xT2":1058.1,"yT2":0,"toosoon":0,"cond_shown":"equaldotanddens","ratio_trial":900,"smaller_num":"18","larger_num":"20","correct_side":1,"subjID":"valeriaguzmansolano 11","gender":"1","age":"12","school":"6"},{"start_time":1551882986464,"click_time":1551882988035,"finger_time":1551882987334,"fix_duration":1067.5860864323665,"trial":35,"RT":870,"MT":701,"sideResp":2,"stimulus":"img/900/equaldotsize/L/10_Ratio_900_L_20_R_18.png","xmouse":[827,827,827,827,827,827,827,827,827,827,827,827,827,827,827,827,827,827,827,827,827,827,827,827,827,827,827,827,827,827,827,827,827,827,827,827,827,827,827,827,827,827,827,845,873,899,901,901,901,901,901,901,902,902,903,910,916,928,947,984,1081,1120,1153,1179,1189,1195,1195,1195,1195,1195,1195,1195,1195,1195,1195,1195,1195,1139,1137],"ymouse":[548,548,548,548,548,548,548,548,548,548,548,548,548,548,548,548,548,548,548,548,548,548,548,548,548,548,548,548,548,548,548,548,548,548,548,548,548,548,548,548,547,547,543,524,501,477,472,471,471,471,471,470,469,465,455,432,419,401,376,333,227,177,132,92,66,6,6,6,6,6,6,6,6,6,6,6,6,0,6],"timestamp_mouse":[11,39,51,71,91,110,131,151,170,191,210,232,250,271,291,311,330,351,372,391,410,430,451,471,490,511,530,550,571,590,610,632,651,672,691,710,731,750,771,791,810,830,851,870,890,910,930,950,971,990,1010,1030,1052,1071,1091,1110,1131,1151,1171,1192,1210,1231,1250,1271,1291,1310,1331,1351,1371,1391,1412,1431,1450,1470,1491,1510,1530,1551,1571],"xSR":741.5,"ySR":469.95,"xT1":424.9,"yT1":0,"xT2":1058.1,"yT2":0,"toosoon":0,"cond_shown":"equaldotsize","ratio_trial":900,"smaller_num":"18","larger_num":"20","correct_side":1,"subjID":"valeriaguzmansolano 11","gender":"1","age":"12","school":"6"},{"start_time":1551882989907,"click_time":1551882990975,"finger_time":1551882990594,"fix_duration":551.1677035790992,"trial":36,"RT":687,"MT":381,"sideResp":1,"stimulus":"img/500/equaldotsize/L/8_Ratio_500_L_8_R_4.png","xmouse":[804,804,804,804,804,804,804,804,804,804,804,804,804,804,804,804,804,804,804,804,804,804,804,804,804,804,804,804,804,804,804,803,800,770,751,729,705,686,620,578,551,541,536,532,529,524,514,510,509,507,505,500,497,486],"ymouse":[515,515,515,515,515,515,515,515,515,515,515,515,515,515,515,515,515,515,515,515,515,515,515,515,515,515,515,515,515,515,515,515,514,476,448,420,392,372,309,269,235,218,210,198,189,178,161,148,139,134,127,110,103,75],"timestamp_mouse":[9,40,48,69,88,107,127,147,169,189,207,229,247,267,287,308,327,347,367,389,408,428,449,467,487,508,527,547,567,588,609,627,648,669,687,707,727,747,768,787,807,827,847,867,887,908,929,949,968,988,1007,1028,1048,1068],"xSR":741.5,"ySR":469.95,"xT1":424.9,"yT1":0,"xT2":1058.1,"yT2":0,"toosoon":0,"cond_shown":"equaldotsize","ratio_trial":500,"smaller_num":"4","larger_num":"8","correct_side":1,"subjID":"valeriaguzmansolano 11","gender":"1","age":"12","school":"6"},{"start_time":1551882992768,"click_time":1551882993936,"finger_time":1551882993495,"fix_duration":612.0732130993216,"trial":37,"RT":727,"MT":441,"sideResp":2,"stimulus":"img/900/equaldotsize/R/13_Ratio_900_L_18_R_20.png","xmouse":[793,793,793,793,793,793,793,793,793,793,793,793,793,793,793,793,793,793,793,793,793,793,793,793,793,793,793,793,793,793,793,793,793,793,800,834,854,872,894,908,938,947,954,964,974,1005,1020,1035,1047,1058,1067,1070,1074,1077,1079,1080,1080,1080,1080],"ymouse":[542,542,542,542,542,542,542,542,542,542,542,542,542,542,542,542,542,542,542,542,542,542,542,542,542,542,542,542,542,542,542,542,542,542,536,509,496,483,467,457,431,420,411,400,388,357,335,314,292,258,203,180,163,153,146,130,117,105,94],"timestamp_mouse":[8,26,49,67,87,108,127,146,166,188,207,226,246,266,286,307,327,347,368,386,408,427,446,466,486,507,526,548,566,587,607,628,647,667,686,706,727,747,767,786,806,826,846,866,888,907,927,948,966,987,1007,1028,1047,1067,1087,1106,1127,1146,1168],"xSR":741.5,"ySR":469.95,"xT1":424.9,"yT1":0,"xT2":1058.1,"yT2":0,"toosoon":0,"cond_shown":"equaldotsize","ratio_trial":900,"smaller_num":"18","larger_num":"20","correct_side":2,"subjID":"valeriaguzmansolano 11","gender":"1","age":"12","school":"6"},{"start_time":1551882996279,"click_time":1551882997555,"finger_time":1551882997254,"fix_duration":1322.1893625513408,"trial":38,"RT":975,"MT":301,"sideResp":1,"stimulus":"img/750/equaldotanddens/L/9_Ratio_750_L_4_R_3.png","xmouse":[807,807,807,807,807,807,807,807,807,807,807,807,807,807,807,807,807,807,807,807,807,807,807,807,807,807,807,807,807,807,807,807,807,807,807,807,807,807,807,806,803,799,794,789,777,773,767,759,745,714,699,687,676,660,637,627,617,605,591,559,547,536,524,515],"ymouse":[542,542,542,542,542,542,542,542,542,542,542,542,542,542,542,542,542,542,542,542,542,542,542,542,542,542,542,542,542,542,542,542,542,542,542,542,542,542,542,541,538,535,531,527,516,512,503,483,458,405,383,363,342,314,267,247,230,213,194,151,135,120,104,90],"timestamp_mouse":[21,51,57,75,95,115,136,155,177,195,215,236,257,275,296,316,336,355,376,395,417,435,456,475,496,515,536,556,575,595,615,637,657,676,696,715,735,755,776,796,815,837,856,875,895,915,936,956,975,995,1016,1035,1055,1075,1096,1115,1136,1156,1177,1195,1215,1236,1257,1276],"xSR":741.5,"ySR":469.95,"xT1":424.9,"yT1":0,"xT2":1058.1,"yT2":0,"toosoon":0,"cond_shown":"equaldotanddens","ratio_trial":750,"smaller_num":"3","larger_num":"4","correct_side":1,"subjID":"valeriaguzmansolano 11","gender":"1","age":"12","school":"6"},{"start_time":1551882999677,"click_time":1551883000654,"finger_time":1551883000275,"fix_duration":680.6303844671593,"trial":39,"RT":598,"MT":379,"sideResp":2,"stimulus":"img/250/equaldotanddens/R/10_Ratio_250_L_4_R_16.png","xmouse":[804,804,804,804,804,804,804,804,804,804,804,804,804,804,804,804,804,804,804,804,804,804,804,804,804,804,813,826,840,871,891,914,941,972,1012,1020,1026,1031,1035,1042,1044,1045,1047,1048,1051,1052,1053,1056,1060],"ymouse":[495,495,495,495,495,495,495,495,495,495,495,495,495,495,495,495,495,495,495,495,495,495,495,495,495,495,493,489,486,475,459,436,395,344,274,260,245,229,213,187,175,164,152,139,126,116,107,96,82],"timestamp_mouse":[32,38,58,77,97,118,138,157,179,198,217,238,258,279,297,318,338,357,377,397,418,437,457,478,497,518,537,558,577,598,618,637,657,678,698,718,737,757,778,798,818,837,857,878,897,917,937,958,977],"xSR":741.5,"ySR":469.95,"xT1":424.9,"yT1":0,"xT2":1058.1,"yT2":0,"toosoon":0,"cond_shown":"equaldotanddens","ratio_trial":250,"smaller_num":"4","larger_num":"16","correct_side":2,"subjID":"valeriaguzmansolano 11","gender":"1","age":"12","school":"6"},{"start_time":1551883002029,"click_time":1551883003975,"finger_time":1551883002936,"fix_duration":313.5029599480864,"trial":40,"RT":907,"MT":1039,"sideResp":2,"stimulus":"img/900/equaldotanddens/R/6_Ratio_900_L_9_R_10.png","xmouse":[774,774,774,774,774,774,774,774,774,774,774,774,774,774,774,774,774,774,774,774,774,774,774,774,774,774,774,774,774,774,774,774,774,774,774,774,774,774,774,774,778,784,812,827,839,846,848,848,848,848,848,848,848,848,848,848,848,848,848,848,848,847,839,834,829,821,811,801,801,801,801,801,798,796,794,792,790,786,785,784,783,783,783,783,783,783,782,788,804,828,857,883,918,930,944,967,1001,1084],"ymouse":[542,542,542,542,542,542,542,542,542,542,542,542,542,542,542,542,542,542,542,542,542,542,542,542,542,542,542,542,542,542,542,542,542,542,542,542,542,542,542,542,541,534,507,492,479,471,467,465,465,465,465,465,465,465,465,465,465,465,465,465,464,464,460,458,456,453,448,444,444,444,444,444,442,442,440,438,436,431,430,428,428,427,427,427,427,427,427,421,407,387,364,343,307,291,270,237,190,90],"timestamp_mouse":[9,25,46,65,87,105,126,146,165,185,205,226,245,265,286,305,327,347,365,386,405,425,446,466,486,505,525,545,566,585,605,625,645,666,685,705,727,745,765,785,805,825,847,865,886,907,928,945,966,986,1006,1025,1045,1065,1086,1106,1125,1146,1166,1187,1205,1226,1245,1265,1287,1306,1325,1346,1366,1386,1405,1425,1446,1465,1485,1507,1525,1545,1566,1585,1606,1625,1646,1666,1685,1705,1727,1745,1766,1785,1806,1827,1846,1865,1886,1905,1927,1946],"xSR":741.5,"ySR":469.95,"xT1":424.9,"yT1":0,"xT2":1058.1,"yT2":0,"toosoon":0,"cond_shown":"equaldotanddens","ratio_trial":900,"smaller_num":"9","larger_num":"10","correct_side":2,"subjID":"valeriaguzmansolano 11","gender":"1","age":"12","school":"6"},{"start_time":1551883005654,"click_time":1551883006635,"finger_time":1551883006336,"fix_duration":676.0712024685133,"trial":41,"RT":682,"MT":299,"sideResp":2,"stimulus":"img/750/equaldotanddens/R/4_Ratio_750_L_15_R_20.png","xmouse":[755,755,755,755,755,755,755,755,755,755,755,755,755,755,755,755,755,755,755,755,755,755,755,755,755,755,755,755,755,755,755,759,775,808,853,892,903,911,917,928,939,961,974,988,1006,1019,1052,1070,1087,1097],"ymouse":[550,550,550,550,550,550,550,550,550,550,550,550,550,550,550,550,550,550,550,550,550,550,550,550,550,550,550,550,550,550,550,549,537,514,488,460,439,422,406,388,371,339,320,301,279,258,195,150,109,87],"timestamp_mouse":[9,33,41,62,80,100,121,140,161,180,200,220,240,261,281,300,320,340,360,382,401,420,442,460,480,501,521,541,560,581,600,620,641,662,682,701,721,740,760,781,800,821,842,862,880,901,921,941,960,981],"xSR":741.5,"ySR":469.95,"xT1":424.9,"yT1":0,"xT2":1058.1,"yT2":0,"toosoon":0,"cond_shown":"equaldotanddens","ratio_trial":750,"smaller_num":"15","larger_num":"20","correct_side":2,"subjID":"valeriaguzmansolano 11","gender":"1","age":"12","school":"6"},{"start_time":1551883008840,"click_time":1551883009834,"finger_time":1551883009474,"fix_duration":904.9567332727187,"trial":42,"RT":634,"MT":360,"sideResp":2,"stimulus":"img/250/equaldotsize/R/12_Ratio_250_L_5_R_20.png","xmouse":[793,793,793,793,793,793,793,793,793,793,793,793,793,793,793,793,793,793,793,793,793,793,793,793,793,793,793,793,804,818,836,871,889,907,929,960,995,1012,1028,1044,1058,1075,1082,1087,1093,1098,1112,1118,1124,1128],"ymouse":[522,522,522,522,522,522,522,522,522,522,522,522,522,522,522,522,522,522,522,522,522,522,522,522,522,522,522,522,520,514,509,498,493,485,474,453,413,390,367,345,322,277,255,233,217,199,150,129,109,97],"timestamp_mouse":[15,45,54,74,95,114,135,155,174,194,215,235,256,274,294,314,334,354,375,394,415,434,454,475,495,515,534,556,574,594,614,634,655,676,695,715,735,754,774,796,815,835,855,875,895,916,934,955,974,994],"xSR":741.5,"ySR":469.95,"xT1":424.9,"yT1":0,"xT2":1058.1,"yT2":0,"toosoon":0,"cond_shown":"equaldotsize","ratio_trial":250,"smaller_num":"5","larger_num":"20","correct_side":2,"subjID":"valeriaguzmansolano 11","gender":"1","age":"12","school":"6"},{"start_time":1551883011355,"click_time":1551883012374,"finger_time":1551883012095,"fix_duration":659.0623139050207,"trial":43,"RT":740,"MT":279,"sideResp":2,"stimulus":"img/500/equaldotsize/R/15_Ratio_500_L_1_R_2.png","xmouse":[771,771,771,771,771,771,771,771,771,771,771,771,771,771,771,771,771,771,771,771,771,771,771,771,771,771,771,771,771,771,771,771,781,791,806,838,860,884,911,941,984,991,996,1001,1005,1012,1013,1016,1022,1042,1070],"ymouse":[556,556,556,556,556,556,556,556,556,556,556,556,556,556,556,556,556,556,556,556,556,556,556,556,556,556,556,556,556,556,556,553,544,531,514,470,437,394,347,294,221,206,193,179,168,153,149,144,135,112,87],"timestamp_mouse":[19,39,59,79,100,119,141,159,180,200,221,239,259,280,300,320,339,359,380,400,421,440,460,481,499,520,540,559,580,599,619,640,659,680,699,719,740,760,779,800,819,840,860,880,901,920,940,961,980,1000,1019],"xSR":741.5,"ySR":469.95,"xT1":424.9,"yT1":0,"xT2":1058.1,"yT2":0,"toosoon":0,"cond_shown":"equaldotsize","ratio_trial":500,"smaller_num":"1","larger_num":"2","correct_side":2,"subjID":"valeriaguzmansolano 11","gender":"1","age":"12","school":"6"},{"start_time":1551883014352,"click_time":1551883015356,"finger_time":1551883015095,"fix_duration":734.7124084532842,"trial":44,"RT":743,"MT":261,"sideResp":1,"stimulus":"img/250/equaldotanddens/L/5_Ratio_250_L_24_R_6.png","xmouse":[801,801,801,801,801,801,801,801,801,801,801,801,801,801,801,801,801,801,801,801,801,801,801,801,801,801,801,801,801,800,797,789,787,785,783,782,773,763,749,731,697,661,647,636,624,610,579,559,541,512,505],"ymouse":[522,522,522,522,522,522,522,522,522,522,522,522,522,522,522,522,522,522,522,522,522,522,522,522,522,522,522,522,522,521,520,518,516,515,513,511,478,453,424,401,358,314,294,275,256,234,190,164,137,101,91],"timestamp_mouse":[10,38,43,62,82,103,122,142,163,183,202,222,242,262,283,303,322,343,362,383,403,423,444,462,482,504,523,542,562,583,602,622,642,662,682,704,722,743,764,782,803,822,844,862,883,902,922,944,962,982,1004],"xSR":741.5,"ySR":469.95,"xT1":424.9,"yT1":0,"xT2":1058.1,"yT2":0,"toosoon":0,"cond_shown":"equaldotanddens","ratio_trial":250,"smaller_num":"6","larger_num":"24","correct_side":1,"subjID":"valeriaguzmansolano 11","gender":"1","age":"12","school":"6"},{"start_time":1551883017074,"click_time":1551883017974,"finger_time":1551883017654,"fix_duration":757.1347738815841,"trial":45,"RT":580,"MT":320,"sideResp":1,"stimulus":"img/250/equaldotanddens/L/15_Ratio_250_L_12_R_3.png","xmouse":[781,781,781,781,781,781,781,781,781,781,781,781,781,781,781,781,781,781,781,781,781,781,781,781,779,768,762,756,747,739,711,698,686,673,664,641,621,607,600,595,589,587,576,564,545,516],"ymouse":[552,552,552,552,552,552,552,552,552,552,552,552,552,552,552,552,552,552,552,552,552,552,551,549,545,534,526,517,504,491,455,439,423,404,389,343,303,261,241,223,201,189,162,135,106,73],"timestamp_mouse":[8,21,41,62,81,100,122,141,160,181,200,222,242,262,281,301,321,340,360,380,400,421,440,460,482,500,520,540,560,580,601,621,641,660,680,700,722,740,760,781,800,821,841,860,881,900],"xSR":741.5,"ySR":469.95,"xT1":424.9,"yT1":0,"xT2":1058.1,"yT2":0,"toosoon":0,"cond_shown":"equaldotanddens","ratio_trial":250,"smaller_num":"3","larger_num":"12","correct_side":1,"subjID":"valeriaguzmansolano 11","gender":"1","age":"12","school":"6"},{"start_time":1551883019167,"click_time":1551883020096,"finger_time":1551883019874,"fix_duration":250,"trial":46,"RT":707,"MT":222,"sideResp":1,"stimulus":"img/500/equaldotsize/L/13_Ratio_500_L_12_R_6.png","xmouse":[780,780,780,780,780,780,780,780,780,780,780,780,780,780,780,780,780,780,780,780,780,780,780,780,780,780,780,780,780,780,780,780,780,777,772,728,708,691,674,644,597,585,574,564,553,530,523],"ymouse":[527,527,527,527,527,527,527,527,527,527,527,527,527,527,527,527,527,527,527,527,527,527,527,527,527,527,527,527,527,527,527,527,527,514,502,405,357,319,278,221,137,110,86,70,54,21,12],"timestamp_mouse":[7,28,47,68,87,107,128,148,168,189,209,227,247,267,288,307,327,348,368,388,408,429,448,467,489,508,527,548,569,587,607,628,647,669,688,707,727,748,769,788,807,827,849,867,889,908,929],"xSR":741.5,"ySR":469.95,"xT1":424.9,"yT1":0,"xT2":1058.1,"yT2":0,"toosoon":0,"cond_shown":"equaldotsize","ratio_trial":500,"smaller_num":"6","larger_num":"12","correct_side":1,"subjID":"valeriaguzmansolano 11","gender":"1","age":"12","school":"6"},{"start_time":1551883023690,"click_time":1551883024795,"finger_time":1551883024354,"fix_duration":813.4164342482966,"trial":47,"RT":664,"MT":441,"sideResp":2,"stimulus":"img/500/equaldotanddens/R/1_Ratio_500_L_9_R_18.png","xmouse":[816,816,815,815,815,815,815,815,815,815,815,815,815,815,815,815,815,815,815,815,815,815,815,815,815,815,815,815,815,815,817,821,839,888,943,963,981,991,1001,1030,1050,1064,1074,1077,1079,1082,1083,1085,1087,1092,1092,1094,1095,1100,1107,1112],"ymouse":[532,529,528,528,528,528,528,528,528,528,528,528,528,528,528,528,528,528,528,528,528,528,528,528,528,528,528,528,528,528,526,525,514,480,439,422,405,391,375,323,287,262,246,237,224,218,213,205,199,181,173,163,155,139,113,98],"timestamp_mouse":[5,26,47,64,84,104,126,144,164,184,204,225,246,265,285,304,325,344,365,384,404,424,445,465,485,504,525,545,565,585,604,624,645,664,685,705,724,744,764,784,805,824,844,865,884,905,926,945,964,984,1005,1026,1045,1065,1086,1105],"xSR":741.5,"ySR":469.95,"xT1":424.9,"yT1":0,"xT2":1058.1,"yT2":0,"toosoon":0,"cond_shown":"equaldotanddens","ratio_trial":500,"smaller_num":"9","larger_num":"18","correct_side":2,"subjID":"valeriaguzmansolano 11","gender":"1","age":"12","school":"6"},{"start_time":1551883026088,"click_time":1551883027175,"finger_time":1551883026774,"fix_duration":372.0338983823585,"trial":48,"RT":686,"MT":401,"sideResp":2,"stimulus":"img/500/equaldotsize/R/14_Ratio_500_L_5_R_10.png","xmouse":[817,817,817,817,817,817,817,817,817,817,817,817,817,817,817,817,817,817,817,817,817,817,817,817,817,817,817,817,817,817,817,817,817,821,858,883,905,921,931,946,956,966,980,986,1003,1010,1019,1028,1038,1053,1060,1068,1076,1086,1125],"ymouse":[524,524,524,524,524,524,524,524,524,524,524,524,524,524,524,524,524,524,524,524,524,524,524,524,524,524,524,524,524,524,524,524,524,523,495,478,462,448,431,390,366,344,318,309,267,248,231,213,198,171,159,147,136,124,84],"timestamp_mouse":[8,34,47,67,86,106,126,146,166,186,207,226,247,266,286,307,326,346,366,388,407,426,448,467,487,507,526,546,567,587,607,627,646,666,686,707,726,747,766,786,807,826,846,866,886,908,926,946,967,987,1006,1027,1047,1068,1087],"xSR":741.5,"ySR":469.95,"xT1":424.9,"yT1":0,"xT2":1058.1,"yT2":0,"toosoon":0,"cond_shown":"equaldotsize","ratio_trial":500,"smaller_num":"5","larger_num":"10","correct_side":2,"subjID":"valeriaguzmansolano 11","gender":"1","age":"12","school":"6"},{"start_time":1551883030046,"click_time":1551883031134,"finger_time":1551883030735,"fix_duration":250,"trial":49,"RT":689,"MT":399,"sideResp":1,"stimulus":"img/750/equaldotsize/L/10_Ratio_750_L_4_R_3.png","xmouse":[781,781,781,781,781,781,781,781,781,781,781,781,781,781,781,781,781,781,781,781,781,781,781,781,781,781,781,781,781,780,773,759,752,748,743,734,714,703,694,688,683,667,662,659,653,646,630,614,601,586,569,542,532,528,524],"ymouse":[543,543,543,543,543,543,543,543,543,543,543,543,543,543,543,543,543,543,543,543,543,543,543,543,543,543,543,543,540,536,526,504,492,480,463,433,383,360,342,325,309,258,237,226,214,198,174,156,141,123,104,73,65,62,60],"timestamp_mouse":[10,41,49,70,88,108,129,148,169,189,208,228,249,269,290,309,330,349,368,388,409,430,448,469,488,509,529,549,568,588,609,630,649,669,689,709,728,749,769,788,809,829,849,870,890,909,928,948,969,990,1009,1028,1050,1068,1088],"xSR":741.5,"ySR":469.95,"xT1":424.9,"yT1":0,"xT2":1058.1,"yT2":0,"toosoon":0,"cond_shown":"equaldotsize","ratio_trial":750,"smaller_num":"3","larger_num":"4","correct_side":1,"subjID":"valeriaguzmansolano 11","gender":"1","age":"12","school":"6"},{"start_time":1551883033239,"click_time":1551883034275,"finger_time":1551883033996,"fix_duration":1182.8551525475107,"trial":50,"RT":757,"MT":279,"sideResp":1,"stimulus":"img/500/equaldotanddens/L/13_Ratio_500_L_12_R_6.png","xmouse":[794,794,794,794,794,794,794,794,794,794,794,794,794,794,794,794,794,794,794,794,794,794,794,794,794,794,794,794,794,794,794,793,790,786,778,773,761,753,743,724,696,666,657,654,653,644,606,587,568,548,530,500],"ymouse":[528,528,528,528,528,528,528,528,528,528,528,528,528,528,528,528,528,528,528,528,528,528,528,528,528,528,528,528,528,528,529,529,525,520,511,503,481,462,429,369,304,245,228,221,213,199,140,119,103,85,71,49],"timestamp_mouse":[16,46,55,77,96,116,135,156,175,197,216,237,255,276,295,315,337,355,375,396,416,436,456,475,495,515,536,556,575,597,617,636,657,676,695,715,735,757,776,796,816,836,856,875,895,916,936,956,976,996,1017,1036],"xSR":741.5,"ySR":469.95,"xT1":424.9,"yT1":0,"xT2":1058.1,"yT2":0,"toosoon":0,"cond_shown":"equaldotanddens","ratio_trial":500,"smaller_num":"6","larger_num":"12","correct_side":1,"subjID":"valeriaguzmansolano 11","gender":"1","age":"12","school":"6"},{"start_time":1551883036211,"click_time":1551883037174,"finger_time":1551883036675,"fix_duration":476.52299242514596,"trial":51,"RT":464,"MT":499,"sideResp":1,"stimulus":"img/250/equaldotsize/L/5_Ratio_250_L_24_R_6.png","xmouse":[796,796,796,796,796,796,796,796,796,796,796,796,796,796,796,796,796,796,796,796,796,796,790,753,734,719,707,685,659,650,643,637,629,608,603,600,599,596,592,590,588,583,579,556,547,538,532,527,520],"ymouse":[488,488,488,488,488,488,488,488,488,488,488,488,488,488,488,488,488,488,488,488,488,482,472,419,390,364,338,287,227,205,187,168,149,102,88,79,74,67,61,59,58,56,56,56,56,54,53,53,52],"timestamp_mouse":[10,32,43,64,83,104,124,143,163,185,205,224,243,264,284,303,325,345,364,383,404,423,443,464,485,505,523,544,563,585,604,624,645,664,683,705,724,744,764,784,803,823,843,864,884,905,925,944,963],"xSR":741.5,"ySR":469.95,"xT1":424.9,"yT1":0,"xT2":1058.1,"yT2":0,"toosoon":0,"cond_shown":"equaldotsize","ratio_trial":250,"smaller_num":"6","larger_num":"24","correct_side":1,"subjID":"valeriaguzmansolano 11","gender":"1","age":"12","school":"6"},{"start_time":1551883040176,"click_time":1551883041674,"finger_time":1551883040774,"fix_duration":378.44381706635886,"trial":52,"RT":598,"MT":900,"sideResp":2,"stimulus":"img/500/randomdotsizeEA/R/15_Ratio_500_L_1_R_2.png","xmouse":[790,790,790,790,790,790,790,790,790,790,790,790,790,790,790,790,790,790,790,791,791,791,786,774,753,749,747,747,746,743,739,734,729,728,727,727,727,727,727,744,757,771,785,792,796,797,797,798,800,816,831,847,865,884,920,948,975,1011,1074,1134,1150,1160,1165,1168,1179,1183,1185,1186,1186,1183,1179,1177,1172,1163,1147],"ymouse":[532,532,532,532,532,532,532,532,532,532,532,532,532,532,532,532,532,532,532,531,530,525,516,499,477,473,471,470,470,463,457,449,441,437,433,433,433,433,433,440,445,450,457,460,461,461,461,461,461,453,440,419,386,354,320,300,280,254,203,152,139,129,122,114,89,82,73,67,64,59,58,57,56,55,53],"timestamp_mouse":[20,39,59,79,98,118,140,159,179,198,219,239,259,278,299,319,340,358,379,399,419,439,459,479,499,520,539,558,578,598,618,638,658,678,699,718,739,760,780,799,819,839,858,879,898,918,939,959,978,998,1019,1039,1059,1079,1098,1119,1140,1158,1179,1198,1219,1238,1259,1279,1299,1319,1338,1358,1379,1398,1418,1438,1458,1478,1498],"xSR":741.5,"ySR":469.95,"xT1":424.9,"yT1":0,"xT2":1058.1,"yT2":0,"toosoon":0,"cond_shown":"randomdotsizeEA","ratio_trial":500,"smaller_num":"1","larger_num":"2","correct_side":2,"subjID":"valeriaguzmansolano 11","gender":"1","age":"12","school":"6"},{"start_time":1551883042687,"click_time":1551883044496,"finger_time":1551883043356,"fix_duration":250,"trial":53,"RT":669,"MT":1140,"sideResp":1,"stimulus":"img/750/randomdotsizeEA/L/10_Ratio_750_L_4_R_3.png","xmouse":[782,782,782,782,782,782,782,782,782,782,782,782,782,782,782,782,781,780,778,775,775,775,775,775,775,775,774,773,768,761,758,753,746,739,730,724,716,705,692,660,643,630,619,605,599,589,582,570,560,549,547,547,547,547,547,548,553,557,559,564,565,566,568,568,568,568,569,558,538,469,427,397,373,351,343,343,343,344,345,348,355,363,375,379,391,396,402,410,415,424,429],"ymouse":[539,539,539,539,539,539,539,539,539,539,539,539,539,539,539,538,537,537,537,536,536,536,536,536,536,536,535,535,532,527,525,523,519,515,511,506,498,484,464,418,397,381,368,348,341,331,321,309,298,285,281,281,281,281,281,280,280,281,282,284,284,285,286,286,286,286,285,276,260,195,156,128,106,84,71,68,65,65,64,62,60,59,58,57,55,54,54,52,51,51,51],"timestamp_mouse":[7,27,47,68,88,107,128,147,167,187,208,227,247,269,288,308,328,347,368,387,409,428,447,467,487,509,527,548,568,588,607,628,648,669,688,708,727,747,768,788,808,828,849,869,887,907,927,947,967,988,1007,1027,1048,1068,1088,1107,1128,1147,1168,1188,1208,1228,1249,1269,1288,1308,1328,1348,1369,1388,1408,1429,1449,1467,1487,1507,1527,1548,1568,1588,1607,1627,1648,1669,1688,1708,1727,1748,1767,1788,1808],"xSR":741.5,"ySR":469.95,"xT1":424.9,"yT1":0,"xT2":1058.1,"yT2":0,"toosoon":0,"cond_shown":"randomdotsizeEA","ratio_trial":750,"smaller_num":"3","larger_num":"4","correct_side":1,"subjID":"valeriaguzmansolano 11","gender":"1","age":"12","school":"6"},{"start_time":1551883046411,"click_time":1551883047155,"finger_time":1551883046955,"fix_duration":1014.5489478107814,"trial":54,"RT":544,"MT":200,"sideResp":1,"stimulus":"img/250/equaldotanddens/L/5_Ratio_250_L_24_R_6.png","xmouse":[785,785,785,785,785,785,785,785,785,785,785,785,785,785,785,785,785,785,785,785,785,785,783,779,770,759,749,739,717,701,676,649,626,588,574,553,529,514],"ymouse":[520,520,520,520,520,520,520,520,520,520,520,520,520,520,520,520,520,520,520,520,520,520,520,514,506,493,482,470,429,399,361,320,282,191,144,88,39,18],"timestamp_mouse":[9,33,44,65,84,104,124,145,164,183,204,224,245,263,285,303,324,345,364,384,403,424,444,463,484,504,525,544,564,585,604,624,644,664,684,703,723,744],"xSR":741.5,"ySR":469.95,"xT1":424.9,"yT1":0,"xT2":1058.1,"yT2":0,"toosoon":0,"cond_shown":"equaldotanddens","ratio_trial":250,"smaller_num":"6","larger_num":"24","correct_side":1,"subjID":"valeriaguzmansolano 11","gender":"1","age":"12","school":"6"},{"start_time":1551883049998,"click_time":1551883051334,"finger_time":1551883050775,"fix_duration":1441.3278004123183,"trial":55,"RT":777,"MT":559,"sideResp":2,"stimulus":"img/750/equaldotanddens/R/5_Ratio_750_L_15_R_20.png","xmouse":[772,772,772,772,772,772,772,772,772,772,772,772,772,772,772,772,772,772,772,772,772,772,772,772,772,772,772,772,772,772,774,776,779,782,786,793,807,835,871,885,897,904,910,922,929,933,939,948,963,970,975,979,984,998,1003,1010,1016,1022,1029,1030,1034,1037,1042,1050,1054,1058,1064],"ymouse":[499,499,499,499,499,499,499,499,499,499,499,499,499,499,499,499,499,499,499,499,499,499,499,499,499,499,499,499,499,499,499,499,499,497,496,496,492,484,467,459,452,447,440,423,410,392,374,341,280,246,213,183,157,105,82,64,48,36,23,21,16,14,11,10,9,9,9],"timestamp_mouse":[18,38,57,77,98,116,136,156,178,196,217,237,257,276,298,318,337,357,377,396,417,437,458,476,498,516,536,558,577,597,616,637,658,676,696,718,736,757,777,797,816,837,857,877,897,918,937,957,977,996,1016,1037,1057,1077,1097,1117,1137,1156,1176,1196,1217,1236,1256,1277,1296,1317,1336],"xSR":741.5,"ySR":469.95,"xT1":424.9,"yT1":0,"xT2":1058.1,"yT2":0,"toosoon":0,"cond_shown":"equaldotanddens","ratio_trial":750,"smaller_num":"15","larger_num":"20","correct_side":2,"subjID":"valeriaguzmansolano 11","gender":"1","age":"12","school":"6"},{"start_time":1551883053705,"click_time":1551883054896,"finger_time":1551883054395,"fix_duration":1049.2088057498447,"trial":56,"RT":690,"MT":501,"sideResp":2,"stimulus":"img/500/equaldotanddens/R/2_Ratio_500_L_3_R_6.png","xmouse":[775,775,775,775,775,775,775,775,775,775,775,775,775,775,775,775,775,775,775,775,775,775,775,775,775,775,775,775,775,775,775,775,775,821,845,872,893,905,913,917,925,941,954,971,977,980,983,989,1005,1014,1022,1028,1032,1034,1036,1040,1050,1059,1083,1092],"ymouse":[539,539,539,539,539,539,539,539,539,539,539,539,539,539,538,538,538,538,538,538,538,538,538,538,538,538,538,538,538,538,538,538,536,523,514,503,494,488,481,477,469,448,427,383,358,331,304,275,228,206,187,172,163,160,157,151,144,135,110,98],"timestamp_mouse":[9,30,65,70,90,109,130,151,170,189,210,231,249,270,290,310,330,350,370,391,410,430,450,470,489,509,529,550,569,590,610,630,649,669,690,711,730,749,769,790,809,830,849,869,890,909,929,949,970,990,1010,1030,1050,1070,1091,1109,1130,1149,1169,1191],"xSR":741.5,"ySR":469.95,"xT1":424.9,"yT1":0,"xT2":1058.1,"yT2":0,"toosoon":0,"cond_shown":"equaldotanddens","ratio_trial":500,"smaller_num":"3","larger_num":"6","correct_side":2,"subjID":"valeriaguzmansolano 11","gender":"1","age":"12","school":"6"},{"start_time":1551883058718,"click_time":1551883059675,"finger_time":1551883059275,"fix_duration":1461.10982738776,"trial":57,"RT":557,"MT":400,"sideResp":1,"stimulus":"img/250/equaldotanddens/L/15_Ratio_250_L_12_R_3.png","xmouse":[795,795,795,795,795,795,795,795,795,795,795,795,795,795,795,795,795,795,795,795,795,795,795,793,788,781,770,725,699,666,622,612,577,571,571,569,567,564,562,561,558,555,542,535,526,517,510,497],"ymouse":[553,553,553,553,553,553,553,553,553,553,553,553,553,553,553,553,553,553,553,553,553,553,553,551,548,540,527,473,441,403,351,341,295,282,272,257,245,224,219,213,207,198,169,153,137,120,107,87],"timestamp_mouse":[17,36,56,76,96,117,138,157,178,196,218,236,257,277,297,318,337,356,377,397,417,436,457,476,496,517,536,557,578,598,616,636,657,677,696,716,736,757,777,797,817,837,857,876,897,917,937,957],"xSR":741.5,"ySR":469.95,"xT1":424.9,"yT1":0,"xT2":1058.1,"yT2":0,"toosoon":0,"cond_shown":"equaldotanddens","ratio_trial":250,"smaller_num":"3","larger_num":"12","correct_side":1,"subjID":"valeriaguzmansolano 11","gender":"1","age":"12","school":"6"},{"start_time":1551883061080,"click_time":1551883062295,"finger_time":1551883061875,"fix_duration":523.7995784543865,"trial":58,"RT":795,"MT":420,"sideResp":1,"stimulus":"img/750/randomdotsizeEA/L/9_Ratio_750_L_4_R_3.png","xmouse":[781,781,781,781,781,781,781,781,781,781,782,782,782,782,782,782,782,782,782,781,780,778,777,776,775,775,774,774,774,774,774,773,772,771,770,767,761,757,753,741,733,720,704,687,649,639,626,611,596,570,563,554,547,535,526,523,518,512,505,491,487],"ymouse":[553,553,553,553,553,553,553,553,553,553,553,553,553,553,553,553,553,552,552,551,550,548,547,546,544,544,543,543,543,543,542,540,538,537,534,529,519,514,507,487,474,456,438,418,369,352,333,312,293,255,237,218,200,180,161,156,146,135,123,103,96],"timestamp_mouse":[14,53,54,76,94,114,136,154,175,195,216,236,256,275,294,315,334,354,374,395,415,436,454,474,494,515,534,556,574,595,615,636,654,674,694,714,734,755,775,795,814,835,856,874,895,914,935,956,974,995,1015,1036,1055,1075,1094,1115,1135,1155,1175,1194,1215],"xSR":741.5,"ySR":469.95,"xT1":424.9,"yT1":0,"xT2":1058.1,"yT2":0,"toosoon":0,"cond_shown":"randomdotsizeEA","ratio_trial":750,"smaller_num":"3","larger_num":"4","correct_side":1,"subjID":"valeriaguzmansolano 11","gender":"1","age":"12","school":"6"},{"start_time":1551883064953,"click_time":1551883066015,"finger_time":1551883065675,"fix_duration":297.87012230253106,"trial":59,"RT":722,"MT":340,"sideResp":2,"stimulus":"img/500/randomdotsizeEA/R/6_Ratio_500_L_9_R_18.png","xmouse":[811,811,811,811,810,810,810,809,809,809,809,809,809,809,809,809,809,809,809,809,809,809,809,809,809,809,809,809,809,809,809,809,809,809,812,821,855,874,891,900,904,904,904,904,905,907,913,919,925,938,968,1034,1078,1120],"ymouse":[550,550,550,550,550,550,550,550,550,550,550,550,550,550,550,550,550,550,550,550,550,550,550,550,550,550,550,550,550,550,550,550,550,548,541,528,470,429,388,346,290,196,176,167,161,159,153,150,147,141,132,117,106,96],"timestamp_mouse":[8,33,42,61,81,102,122,141,161,182,201,223,243,262,282,301,322,342,363,383,402,421,442,462,482,501,522,542,561,582,601,622,641,662,681,701,722,741,761,782,802,822,841,862,881,902,922,941,961,981,1001,1021,1041,1062],"xSR":741.5,"ySR":469.95,"xT1":424.9,"yT1":0,"xT2":1058.1,"yT2":0,"toosoon":0,"cond_shown":"randomdotsizeEA","ratio_trial":500,"smaller_num":"9","larger_num":"18","correct_side":2,"subjID":"valeriaguzmansolano 11","gender":"1","age":"12","school":"6"},{"start_time":1551883068371,"click_time":1551883069414,"finger_time":1551883068975,"fix_duration":1235.88913566701,"trial":60,"RT":604,"MT":439,"sideResp":1,"stimulus":"img/500/equaldotsize/L/11_Ratio_500_L_12_R_6.png","xmouse":[812,812,812,812,812,812,812,812,812,812,812,812,812,812,812,812,812,812,812,812,812,812,811,809,803,800,794,783,779,736,697,647,586,519,466,453,444,437,432,423,420,417,417,417,426,431,436,440,441,442,442,443],"ymouse":[534,534,534,534,534,534,534,534,534,534,534,534,534,534,534,534,534,534,534,534,534,534,534,533,530,528,523,516,512,484,463,433,400,360,322,300,282,265,254,232,219,204,189,177,156,144,133,120,111,102,100,98],"timestamp_mouse":[9,51,64,84,104,123,145,163,184,205,225,244,264,284,305,323,344,365,384,403,425,443,463,484,503,524,544,564,584,604,623,643,664,684,704,725,745,763,784,805,823,843,864,884,904,923,944,965,985,1004,1025,1043],"xSR":741.5,"ySR":469.95,"xT1":424.9,"yT1":0,"xT2":1058.1,"yT2":0,"toosoon":0,"cond_shown":"equaldotsize","ratio_trial":500,"smaller_num":"6","larger_num":"12","correct_side":1,"subjID":"valeriaguzmansolano 11","gender":"1","age":"12","school":"6"},{"start_time":1551883070608,"click_time":1551883071475,"finger_time":1551883071174,"fix_duration":250,"trial":61,"RT":566,"MT":301,"sideResp":2,"stimulus":"img/250/equaldotsize/R/10_Ratio_250_L_4_R_16.png","xmouse":[796,796,796,796,796,796,796,796,796,796,796,796,796,796,796,796,796,796,796,796,796,796,796,796,796,796,801,810,838,857,880,906,931,969,985,998,1008,1017,1035,1038,1042,1047,1055,1068],"ymouse":[517,517,517,517,517,517,517,517,517,517,517,517,517,517,517,517,517,517,517,517,517,517,517,517,517,517,516,506,469,446,419,387,351,279,246,218,193,177,145,133,120,108,96,76],"timestamp_mouse":[8,35,46,67,86,108,126,146,166,187,207,228,248,267,287,306,327,347,368,386,408,428,446,467,488,506,527,546,566,586,607,627,646,667,687,707,727,747,766,787,806,826,846,867],"xSR":741.5,"ySR":469.95,"xT1":424.9,"yT1":0,"xT2":1058.1,"yT2":0,"toosoon":0,"cond_shown":"equaldotsize","ratio_trial":250,"smaller_num":"4","larger_num":"16","correct_side":2,"subjID":"valeriaguzmansolano 11","gender":"1","age":"12","school":"6"},{"start_time":1551883072526,"click_time":1551883073995,"finger_time":1551883073615,"fix_duration":250,"trial":62,"RT":1089,"MT":380,"sideResp":1,"stimulus":"img/750/equaldotanddens/L/10_Ratio_750_L_4_R_3.png","xmouse":[769,769,769,769,769,769,769,771,771,771,771,771,771,771,771,771,771,771,773,773,773,773,773,773,773,773,773,773,773,773,773,773,773,773,773,774,774,775,775,775,775,775,775,775,776,776,776,776,776,776,776,762,746,729,714,695,660,644,624,600,546,533,524,520,516,511,501,497,493,487,476,454,446],"ymouse":[556,556,556,556,556,556,556,556,556,556,556,556,556,556,556,556,556,556,556,556,556,556,556,556,556,556,556,556,556,556,556,556,556,556,556,556,556,556,556,556,556,556,556,556,556,556,556,556,556,555,553,537,524,509,495,478,437,414,387,351,277,257,240,230,219,210,186,177,166,153,135,105,91],"timestamp_mouse":[9,53,70,89,109,128,148,169,190,208,228,249,268,290,308,328,350,369,389,410,428,448,468,489,509,528,549,568,588,608,628,648,669,689,709,728,748,769,788,810,830,848,869,888,908,928,948,970,989,1008,1029,1048,1069,1089,1108,1128,1149,1170,1189,1209,1230,1248,1269,1288,1308,1328,1349,1370,1389,1409,1429,1449,1469],"xSR":741.5,"ySR":469.95,"xT1":424.9,"yT1":0,"xT2":1058.1,"yT2":0,"toosoon":0,"cond_shown":"equaldotanddens","ratio_trial":750,"smaller_num":"3","larger_num":"4","correct_side":1,"subjID":"valeriaguzmansolano 11","gender":"1","age":"12","school":"6"},{"start_time":1551883077457,"click_time":1551883078894,"finger_time":1551883078075,"fix_duration":1099.8576946925998,"trial":63,"RT":618,"MT":819,"sideResp":1,"stimulus":"img/250/equaldotsize/L/5_Ratio_250_L_24_R_6.png","xmouse":[770,770,770,770,770,770,770,770,770,770,770,770,770,770,770,770,770,770,770,770,770,770,770,770,770,770,770,770,765,760,734,715,690,663,645,607,592,578,569,559,543,536,529,523,519,509,504,498,492,486,478,475,474,473,473,473,473,473,473,473,473,473,473,473,473,473,473,473,473,473,473,472],"ymouse":[563,563,563,563,563,563,563,563,563,563,563,563,563,563,563,563,563,563,563,563,563,563,563,563,563,563,563,563,561,556,531,514,487,455,428,374,355,339,326,313,289,275,263,251,241,219,205,187,169,147,118,110,106,103,102,101,101,101,101,101,101,101,101,101,101,101,101,101,101,101,100,99],"timestamp_mouse":[30,38,59,78,99,117,139,159,177,199,219,237,259,277,299,318,338,357,379,397,418,437,459,479,497,518,539,558,577,597,618,638,658,677,698,718,738,757,778,799,818,837,858,878,899,918,937,957,979,998,1018,1038,1059,1078,1098,1118,1138,1158,1177,1198,1218,1238,1258,1277,1299,1318,1338,1357,1377,1397,1418,1437],"xSR":741.5,"ySR":469.95,"xT1":424.9,"yT1":0,"xT2":1058.1,"yT2":0,"toosoon":0,"cond_shown":"equaldotsize","ratio_trial":250,"smaller_num":"6","larger_num":"24","correct_side":1,"subjID":"valeriaguzmansolano 11","gender":"1","age":"12","school":"6"},{"start_time":1551883080810,"click_time":1551883082256,"finger_time":1551883081754,"fix_duration":992.6712039668013,"trial":64,"RT":944,"MT":502,"sideResp":2,"stimulus":"img/750/equaldotsize/R/12_Ratio_750_L_3_R_4.png","xmouse":[809,809,809,809,809,809,809,809,809,809,809,809,809,809,809,809,809,809,809,809,809,809,809,809,809,809,809,809,809,810,811,812,813,815,815,815,815,816,816,816,817,818,818,821,823,826,835,850,902,946,994,1051,1106,1185,1200,1205,1209,1210,1211,1211,1211,1211,1211,1208,1206,1203,1200,1190,1186,1180,1171,1161,1152],"ymouse":[535,535,535,535,535,535,535,535,535,535,535,535,535,535,535,535,535,535,535,535,535,535,535,535,535,535,535,535,535,533,530,528,526,524,523,523,523,522,522,521,520,519,518,515,512,507,497,474,387,320,261,196,143,74,58,48,44,39,34,29,25,22,20,17,16,16,16,16,16,19,22,27,31],"timestamp_mouse":[9,25,44,78,84,106,125,144,165,186,204,226,245,266,285,304,326,345,365,386,404,425,445,465,485,505,526,545,564,584,605,625,645,665,685,706,725,744,765,786,804,824,846,865,884,904,925,944,964,984,1004,1024,1045,1065,1084,1106,1126,1146,1165,1184,1204,1224,1244,1264,1284,1305,1325,1346,1364,1384,1404,1424,1445],"xSR":741.5,"ySR":469.95,"xT1":424.9,"yT1":0,"xT2":1058.1,"yT2":0,"toosoon":0,"cond_shown":"equaldotsize","ratio_trial":750,"smaller_num":"3","larger_num":"4","correct_side":2,"subjID":"valeriaguzmansolano 11","gender":"1","age":"12","school":"6"},{"start_time":1551883083507,"click_time":1551883084874,"finger_time":1551883084395,"fix_duration":250,"trial":65,"RT":888,"MT":479,"sideResp":1,"stimulus":"img/900/randomdotsizeEA/L/10_Ratio_900_L_20_R_18.png","xmouse":[795,795,795,795,795,795,795,795,795,795,795,795,795,795,795,795,795,795,795,795,795,795,795,795,795,795,795,795,795,795,795,795,795,795,795,795,795,795,795,795,795,792,790,761,732,706,689,673,662,661,659,656,654,624,609,596,585,573,541,521,501,482,480,476,476,474,468,465,462],"ymouse":[527,527,527,527,527,527,527,527,527,527,527,527,527,527,527,527,527,527,527,527,527,527,527,527,527,527,527,527,527,527,527,527,527