[{"start_time":1551801255525,"click_time":1551801259652,"finger_time":1551801255532,"fix_duration":250,"trial":0,"RT":7,"MT":4120,"sideResp":1,"stimulus":"img/750/equaldotsize/L/8_Ratio_750_L_4_R_3.png","xmouse":[792,791,791,791,791,791,791,791,791,791,791,791,791,791,791,791,791,791,791,791,791,791,791,791,791,791,791,791,791,791,791,791,791,791,792,793,793,795,795,797,798,798,798,799,799,799,800,801,801,801,801,801,801,801,802,802,802,802,801,801,800,799,795,794,792,791,791,791,791,791,791,790,790,790,790,790,790,790,790,790,790,790,790,790,790,790,790,790,790,790,790,790,790,790,790,790,790,790,790,790,790,790,790,790,790,790,790,790,790,790,790,790,790,790,790,790,790,790,790,790,790,790,790,790,790,790,790,790,790,790,790,790,790,790,790,790,790,790,790,790,790,790,790,790,789,789,789,789,789,789,789,789,789,789,789,789,789,789,789,789,789,789,789,789,789,789,789,789,787,785,784,780,775,773,772,772,772,772,772,772,771,769,758,748,731,716,676,654,634,615,605,590,582,582,582,583,583,583,584,584,584,584,577,561,548,532,512],"ymouse":[557,557,557,557,557,557,557,557,557,557,557,557,557,557,557,557,554,554,554,554,554,554,554,554,554,554,553,553,553,553,553,553,553,552,551,550,549,547,544,542,541,539,534,531,528,526,524,520,520,520,520,520,520,520,518,516,512,505,503,501,498,497,495,493,491,491,492,495,495,495,495,495,495,495,495,495,495,495,495,495,495,495,495,495,495,495,495,495,495,495,495,495,495,495,495,495,495,495,495,495,495,495,495,495,495,495,495,495,495,495,495,495,495,495,495,495,495,495,495,495,495,495,495,495,495,495,495,495,495,495,495,495,495,495,495,495,495,495,495,495,495,495,495,495,493,492,491,491,491,491,491,491,491,491,491,491,491,491,491,491,491,491,491,491,491,491,491,491,491,490,490,488,486,485,484,483,482,482,479,477,475,470,453,442,421,404,367,347,325,305,292,275,255,246,241,237,231,227,226,224,221,217,197,169,152,133,98],"timestamp_mouse":[7,27,47,66,87,106,126,145,165,186,207,226,247,265,285,306,327,346,365,386,405,426,446,466,485,506,526,545,567,587,605,625,646,666,686,706,726,746,767,787,806,826,846,867,886,906,925,947,965,987,1006,1025,1047,1065,1085,1106,1126,1146,1167,1185,1207,1226,1245,1265,1285,1306,1325,1345,1367,1385,1406,1426,1445,1467,1486,1506,1525,1545,1565,1587,1605,1625,1645,1667,1686,1706,1727,1745,1766,1787,1805,1827,1845,1867,1886,1907,1926,1947,1965,1987,2005,2027,2047,2065,2087,2107,2125,2146,2165,2186,2207,2225,2245,2266,2287,2305,2327,2345,2367,2385,2406,2427,2447,2466,2485,2506,2525,2546,2565,2586,2606,2625,2646,2667,2685,2705,2727,2746,2767,2786,2805,2826,2846,2867,2885,2906,2927,2946,2967,2985,3005,3026,3047,3066,3085,3105,3127,3146,3166,3186,3206,3227,3245,3265,3286,3305,3326,3345,3365,3386,3405,3426,3447,3465,3486,3506,3526,3545,3565,3586,3605,3625,3646,3666,3685,3705,3727,3745,3766,3785,3805,3825,3845,3867,3886,3906,3927,3946,3966,3986,4006,4026,4045,4065,4086,4106,4127],"xSR":741.5,"ySR":481,"xT1":424.9,"yT1":0,"xT2":1058.1,"yT2":0,"toosoon":0,"cond_shown":"equaldotsize","ratio_trial":750,"smaller_num":"3","larger_num":"4","correct_side":1,"subjID":"valeriecatalinamolanoosorio13","gender":"1","age":"11","school":"6","test":{"fix_dur":[250,1500],"timestim":300,"targets_dim":[100,100],"targets_relative_coord":[0.3,0.7],"size_stim":[880,420],"start_dim":[100,100],"size_start":[300,300],"size_fix":60,"samplingrate":20,"img_types":["equaldotsize","equaldotanddens","randomdotsizeEA"],"ratios":[250,500,750,900],"rep_conds":9,"nTrials":120,"trials_to_rest":500,"Trials_order":[114,83,99,103,55,60,71,46,6,66,33,91,49,89,100,34,82,96,28,24,81,12,98,73,77,106,14,31,107,67,79,18,118,112,9,70,3,94,64,80,5,59,57,69,11,86,21,90,30,102,74,108,54,20,56,97,43,72,26,7,104,63,92,110,52,87,0,36,48,101,65,4,17,116,115,8,85,22,61,93,39,47,75,10,95,13,35,41,32,68,119,38,109,117,42,105,53,2,29,84,58,25,113,19,15,111,1,45,50,51,44,23,40,62,16,78,88,37,27,76],"cond_shown":["equaldotsize","randomdotsizeEA","equaldotsize","equaldotanddens","equaldotanddens","equaldotsize","randomdotsizeEA","equaldotanddens","equaldotsize","equaldotsize","equaldotsize","equaldotanddens","equaldotanddens","randomdotsizeEA","equaldotanddens","equaldotanddens","equaldotanddens","equaldotsize","equaldotanddens","equaldotsize","equaldotsize","equaldotsize","randomdotsizeEA","equaldotanddens","randomdotsizeEA","equaldotanddens","randomdotsizeEA","equaldotanddens","randomdotsizeEA","equaldotanddens","equaldotanddens","equaldotsize","equaldotanddens","equaldotanddens","equaldotsize","equaldotanddens","equaldotsize","equaldotanddens","equaldotanddens","randomdotsizeEA","randomdotsizeEA","randomdotsizeEA","equaldotsize","equaldotsize","randomdotsizeEA","randomdotsizeEA","equaldotsize","equaldotsize","equaldotsize","equaldotsize","randomdotsizeEA","equaldotsize","equaldotsize","randomdotsizeEA","randomdotsizeEA","equaldotanddens","equaldotanddens","equaldotsize","randomdotsizeEA","equaldotanddens","randomdotsizeEA","equaldotsize","randomdotsizeEA","randomdotsizeEA","equaldotanddens","equaldotsize","equaldotsize","equaldotsize","equaldotsize","randomdotsizeEA","randomdotsizeEA","equaldotanddens","randomdotsizeEA","randomdotsizeEA","equaldotanddens","randomdotsizeEA","equaldotanddens","equaldotanddens","equaldotanddens","equaldotsize","equaldotsize","randomdotsizeEA","equaldotsize","equaldotanddens","randomdotsizeEA","equaldotanddens","randomdotsizeEA","randomdotsizeEA","randomdotsizeEA","randomdotsizeEA","randomdotsizeEA","randomdotsizeEA","equaldotanddens","equaldotsize","equaldotsize","equaldotsize","randomdotsizeEA","randomdotsizeEA","randomdotsizeEA","equaldotsize","equaldotanddens","equaldotanddens","randomdotsizeEA","equaldotanddens","equaldotsize","equaldotsize","equaldotanddens","equaldotsize","randomdotsizeEA","equaldotsize","randomdotsizeEA","randomdotsizeEA","equaldotanddens","randomdotsizeEA","equaldotanddens","equaldotsize","equaldotanddens","equaldotanddens","equaldotsize","equaldotanddens"],"ratio_trial":[750,900,500,750,750,250,900,900,750,750,900,750,250,500,500,900,900,250,500,250,900,250,250,250,500,900,250,750,900,750,750,750,900,500,900,900,500,900,500,750,500,900,900,900,900,250,900,750,750,750,250,250,750,750,750,250,750,250,250,750,750,500,750,250,500,500,250,250,250,500,500,500,500,750,750,750,250,900,250,900,500,900,500,900,900,250,900,500,750,750,900,250,250,900,750,900,500,250,500,250,900,250,500,750,500,500,250,900,250,500,750,900,500,250,500,750,500,250,500,500],"smaller_num":["3","18","5","6","3","2","18","18","3","3","18","15","3","10","9","9","9","4","1","3","9","3","3","5","6","18","5","6","9","3","3","15","18","9","9","18","3","18","5","18","6","9","9","18","18","3","9","15","15","3","3","3","18","15","3","2","3","2","6","3","12","5","3","3","6","5","3","4","2","2","2","6","9","3","15","6","4","9","1","9","2","18","2","18","18","1","18","10","6","15","18","5","6","18","9","18","9","2","1","3","9","2","2","3","1","10","3","9","6","5","3","18","3","5","6","15","1","3","5","2"],"larger_num":["4","20","10","8","4","8","20","20","4","4","20","20","12","20","18","10","10","16","2","12","10","12","12","20","12","20","20","8","10","4","4","20","20","18","10","20","6","20","10","24","12","10","10","20","20","12","10","20","20","4","12","12","24","20","4","8","4","8","24","4","16","10","4","12","12","10","12","16","8","4","4","12","18","4","20","8","16","10","4","10","4","20","4","20","20","4","20","20","8","20","20","20","24","20","12","20","18","8","2","12","10","8","4","4","2","20","12","10","24","10","4","20","6","20","12","20","2","12","10","4"],"correct_side":[1,1,1,2,2,1,1,2,2,1,2,1,1,2,1,2,2,2,2,1,2,2,2,2,1,1,2,1,2,2,1,2,2,2,1,2,2,2,2,1,1,2,2,1,2,1,2,2,2,1,1,1,1,2,1,1,2,1,1,1,2,1,2,1,1,2,1,2,2,2,1,1,2,1,2,1,1,2,2,2,1,2,1,2,2,2,2,2,2,1,1,2,1,1,2,1,2,2,2,2,2,1,2,2,2,2,2,1,2,1,2,1,2,2,1,2,2,1,1,1],"img_shown":["img/750/equaldotsize/L/8_Ratio_750_L_4_R_3.png","img/900/randomdotsizeEA/L/2_Ratio_900_L_20_R_18.png","img/500/equaldotsize/L/7_Ratio_500_L_10_R_5.png","img/750/equaldotanddens/R/2_Ratio_750_L_6_R_8.png","img/750/equaldotanddens/R/7_Ratio_750_L_3_R_4.png","img/250/equaldotsize/L/1_Ratio_250_L_8_R_2.png","img/900/randomdotsizeEA/L/4_Ratio_900_L_20_R_18.png","img/900/equaldotanddens/R/13_Ratio_900_L_18_R_20.png","img/750/equaldotsize/R/12_Ratio_750_L_3_R_4.png","img/750/equaldotsize/L/8_Ratio_750_L_4_R_3.png","img/900/equaldotsize/R/12_Ratio_900_L_18_R_20.png","img/750/equaldotanddens/L/1_Ratio_750_L_20_R_15.png","img/250/equaldotanddens/L/15_Ratio_250_L_12_R_3.png","img/500/randomdotsizeEA/R/3_Ratio_500_L_10_R_20.png","img/500/equaldotanddens/L/4_Ratio_500_L_18_R_9.png","img/900/equaldotanddens/R/3_Ratio_900_L_9_R_10.png","img/900/equaldotanddens/R/6_Ratio_900_L_9_R_10.png","img/250/equaldotsize/R/10_Ratio_250_L_4_R_16.png","img/500/equaldotanddens/R/15_Ratio_500_L_1_R_2.png","img/250/equaldotsize/L/15_Ratio_250_L_12_R_3.png","img/900/equaldotsize/R/5_Ratio_900_L_9_R_10.png","img/250/equaldotsize/R/9_Ratio_250_L_3_R_12.png","img/250/randomdotsizeEA/R/9_Ratio_250_L_3_R_12.png","img/250/equaldotanddens/R/12_Ratio_250_L_5_R_20.png","img/500/randomdotsizeEA/L/13_Ratio_500_L_12_R_6.png","img/900/equaldotanddens/L/8_Ratio_900_L_20_R_18.png","img/250/randomdotsizeEA/R/12_Ratio_250_L_5_R_20.png","img/750/equaldotanddens/L/14_Ratio_750_L_8_R_6.png","img/900/randomdotsizeEA/R/7_Ratio_900_L_9_R_10.png","img/750/equaldotanddens/R/12_Ratio_750_L_3_R_4.png","img/750/equaldotanddens/L/8_Ratio_750_L_4_R_3.png","img/750/equaldotsize/R/4_Ratio_750_L_15_R_20.png","img/900/equaldotanddens/R/12_Ratio_900_L_18_R_20.png","img/500/equaldotanddens/R/6_Ratio_500_L_9_R_18.png","img/900/equaldotsize/L/1_Ratio_900_L_10_R_9.png","img/900/equaldotanddens/R/9_Ratio_900_L_18_R_20.png","img/500/equaldotsize/R/2_Ratio_500_L_3_R_6.png","img/900/equaldotanddens/R/13_Ratio_900_L_18_R_20.png","img/500/equaldotanddens/R/14_Ratio_500_L_5_R_10.png","img/750/randomdotsizeEA/L/6_Ratio_750_L_24_R_18.png","img/500/randomdotsizeEA/L/11_Ratio_500_L_12_R_6.png","img/900/randomdotsizeEA/R/7_Ratio_900_L_9_R_10.png","img/900/equaldotsize/R/5_Ratio_900_L_9_R_10.png","img/900/equaldotsize/L/2_Ratio_900_L_20_R_18.png","img/900/randomdotsizeEA/R/12_Ratio_900_L_18_R_20.png","img/250/randomdotsizeEA/L/14_Ratio_250_L_12_R_3.png","img/900/equaldotsize/R/3_Ratio_900_L_9_R_10.png","img/750/equaldotsize/R/3_Ratio_750_L_15_R_20.png","img/750/equaldotsize/R/4_Ratio_750_L_15_R_20.png","img/750/equaldotsize/L/10_Ratio_750_L_4_R_3.png","img/250/randomdotsizeEA/L/15_Ratio_250_L_12_R_3.png","img/250/equaldotsize/L/14_Ratio_250_L_12_R_3.png","img/750/equaldotsize/L/6_Ratio_750_L_24_R_18.png","img/750/randomdotsizeEA/R/4_Ratio_750_L_15_R_20.png","img/750/randomdotsizeEA/L/9_Ratio_750_L_4_R_3.png","img/250/equaldotanddens/L/7_Ratio_250_L_8_R_2.png","img/750/equaldotanddens/R/12_Ratio_750_L_3_R_4.png","img/250/equaldotsize/L/1_Ratio_250_L_8_R_2.png","img/250/randomdotsizeEA/L/5_Ratio_250_L_24_R_6.png","img/750/equaldotanddens/L/9_Ratio_750_L_4_R_3.png","img/750/randomdotsizeEA/R/11_Ratio_750_L_12_R_16.png","img/500/equaldotsize/L/7_Ratio_500_L_10_R_5.png","img/750/randomdotsizeEA/R/7_Ratio_750_L_3_R_4.png","img/250/randomdotsizeEA/L/14_Ratio_250_L_12_R_3.png","img/500/equaldotanddens/L/11_Ratio_500_L_12_R_6.png","img/500/equaldotsize/R/14_Ratio_500_L_5_R_10.png","img/250/equaldotsize/L/14_Ratio_250_L_12_R_3.png","img/250/equaldotsize/R/10_Ratio_250_L_4_R_16.png","img/250/equaldotsize/R/13_Ratio_250_L_2_R_8.png","img/500/randomdotsizeEA/R/9_Ratio_500_L_2_R_4.png","img/500/randomdotsizeEA/L/10_Ratio_500_L_4_R_2.png","img/500/equaldotanddens/L/13_Ratio_500_L_12_R_6.png","img/500/randomdotsizeEA/R/1_Ratio_500_L_9_R_18.png","img/750/randomdotsizeEA/L/9_Ratio_750_L_4_R_3.png","img/750/equaldotanddens/R/5_Ratio_750_L_15_R_20.png","img/750/randomdotsizeEA/L/14_Ratio_750_L_8_R_6.png","img/250/equaldotanddens/L/2_Ratio_250_L_16_R_4.png","img/900/equaldotanddens/R/3_Ratio_900_L_9_R_10.png","img/250/equaldotanddens/R/8_Ratio_250_L_1_R_4.png","img/900/equaldotsize/R/5_Ratio_900_L_9_R_10.png","img/500/equaldotsize/L/10_Ratio_500_L_4_R_2.png","img/900/randomdotsizeEA/R/12_Ratio_900_L_18_R_20.png","img/500/equaldotsize/L/5_Ratio_500_L_4_R_2.png","img/900/equaldotanddens/R/14_Ratio_900_L_18_R_20.png","img/900/randomdotsizeEA/R/14_Ratio_900_L_18_R_20.png","img/250/equaldotanddens/R/8_Ratio_250_L_1_R_4.png","img/900/randomdotsizeEA/R/9_Ratio_900_L_18_R_20.png","img/500/randomdotsizeEA/R/3_Ratio_500_L_10_R_20.png","img/750/randomdotsizeEA/R/2_Ratio_750_L_6_R_8.png","img/750/randomdotsizeEA/L/1_Ratio_750_L_20_R_15.png","img/900/randomdotsizeEA/L/8_Ratio_900_L_20_R_18.png","img/250/randomdotsizeEA/R/12_Ratio_250_L_5_R_20.png","img/250/equaldotanddens/L/5_Ratio_250_L_24_R_6.png","img/900/equaldotsize/L/2_Ratio_900_L_20_R_18.png","img/750/equaldotsize/R/15_Ratio_750_L_9_R_12.png","img/900/equaldotsize/L/8_Ratio_900_L_20_R_18.png","img/500/randomdotsizeEA/R/6_Ratio_500_L_9_R_18.png","img/250/randomdotsizeEA/R/13_Ratio_250_L_2_R_8.png","img/500/randomdotsizeEA/R/12_Ratio_500_L_1_R_2.png","img/250/equaldotsize/R/4_Ratio_250_L_3_R_12.png","img/900/equaldotanddens/R/7_Ratio_900_L_9_R_10.png","img/250/equaldotanddens/L/3_Ratio_250_L_8_R_2.png","img/500/randomdotsizeEA/R/9_Ratio_500_L_2_R_4.png","img/750/equaldotanddens/R/7_Ratio_750_L_3_R_4.png","img/500/equaldotsize/R/15_Ratio_500_L_1_R_2.png","img/500/equaldotsize/R/3_Ratio_500_L_10_R_20.png","img/250/equaldotanddens/R/4_Ratio_250_L_3_R_12.png","img/900/equaldotsize/L/1_Ratio_900_L_10_R_9.png","img/250/randomdotsizeEA/R/6_Ratio_250_L_6_R_24.png","img/500/equaldotsize/L/7_Ratio_500_L_10_R_5.png","img/750/randomdotsizeEA/R/7_Ratio_750_L_3_R_4.png","img/900/randomdotsizeEA/L/2_Ratio_900_L_20_R_18.png","img/500/equaldotanddens/R/2_Ratio_500_L_3_R_6.png","img/250/randomdotsizeEA/R/12_Ratio_250_L_5_R_20.png","img/500/equaldotanddens/L/13_Ratio_500_L_12_R_6.png","img/750/equaldotsize/R/3_Ratio_750_L_15_R_20.png","img/500/equaldotanddens/R/15_Ratio_500_L_1_R_2.png","img/250/equaldotanddens/L/14_Ratio_250_L_12_R_3.png","img/500/equaldotsize/L/7_Ratio_500_L_10_R_5.png","img/500/equaldotanddens/L/10_Ratio_500_L_4_R_2.png"],"Rat0":[["12_Ratio_0_L_9_R_0.png","13_Ratio_0_L_6_R_0.png","5_Ratio_0_L_2_R_0.png","6_Ratio_0_L_4_R_0.png","8_Ratio_0_L_6_R_0.png"],["1_Ratio_0_L_0_R_17.png","10_Ratio_0_L_0_R_22.png","11_Ratio_0_L_0_R_1.png","14_Ratio_0_L_0_R_24.png","15_Ratio_0_L_0_R_4.png","2_Ratio_0_L_0_R_5.png","3_Ratio_0_L_0_R_17.png","4_Ratio_0_L_0_R_7.png","7_Ratio_0_L_0_R_19.png","9_Ratio_0_L_0_R_15.png"]],"Rat250":[["1_Ratio_250_L_8_R_2.png","14_Ratio_250_L_12_R_3.png","15_Ratio_250_L_12_R_3.png","2_Ratio_250_L_16_R_4.png","3_Ratio_250_L_8_R_2.png","5_Ratio_250_L_24_R_6.png","7_Ratio_250_L_8_R_2.png"],["10_Ratio_250_L_4_R_16.png","11_Ratio_250_L_3_R_12.png","12_Ratio_250_L_5_R_20.png","13_Ratio_250_L_2_R_8.png","4_Ratio_250_L_3_R_12.png","6_Ratio_250_L_6_R_24.png","8_Ratio_250_L_1_R_4.png","9_Ratio_250_L_3_R_12.png"]],"Rat500":[["10_Ratio_500_L_4_R_2.png","11_Ratio_500_L_12_R_6.png","13_Ratio_500_L_12_R_6.png","4_Ratio_500_L_18_R_9.png","5_Ratio_500_L_4_R_2.png","7_Ratio_500_L_10_R_5.png","8_Ratio_500_L_8_R_4.png"],["1_Ratio_500_L_9_R_18.png","12_Ratio_500_L_1_R_2.png","14_Ratio_500_L_5_R_10.png","15_Ratio_500_L_1_R_2.png","2_Ratio_500_L_3_R_6.png","3_Ratio_500_L_10_R_20.png","6_Ratio_500_L_9_R_18.png","9_Ratio_500_L_2_R_4.png"]],"Rat750":[["1_Ratio_750_L_20_R_15.png","10_Ratio_750_L_4_R_3.png","13_Ratio_750_L_8_R_6.png","14_Ratio_750_L_8_R_6.png","6_Ratio_750_L_24_R_18.png","8_Ratio_750_L_4_R_3.png","9_Ratio_750_L_4_R_3.png"],["11_Ratio_750_L_12_R_16.png","12_Ratio_750_L_3_R_4.png","15_Ratio_750_L_9_R_12.png","2_Ratio_750_L_6_R_8.png","3_Ratio_750_L_15_R_20.png","4_Ratio_750_L_15_R_20.png","5_Ratio_750_L_15_R_20.png","7_Ratio_750_L_3_R_4.png"]],"Rat900":[["1_Ratio_900_L_10_R_9.png","10_Ratio_900_L_20_R_18.png","2_Ratio_900_L_20_R_18.png","4_Ratio_900_L_20_R_18.png","8_Ratio_900_L_20_R_18.png"],["11_Ratio_900_L_18_R_20.png","12_Ratio_900_L_18_R_20.png","13_Ratio_900_L_18_R_20.png","14_Ratio_900_L_18_R_20.png","15_Ratio_900_L_9_R_10.png","3_Ratio_900_L_9_R_10.png","5_Ratio_900_L_9_R_10.png","6_Ratio_900_L_9_R_10.png","7_Ratio_900_L_9_R_10.png","9_Ratio_900_L_18_R_20.png"]],"Rat1000":[["10_Ratio_1000_L_16_R_16.png","11_Ratio_1000_L_6_R_6.png","12_Ratio_1000_L_14_R_14.png","13_Ratio_1000_L_20_R_20.png","15_Ratio_1000_L_15_R_15.png","2_Ratio_1000_L_17_R_17.png","4_Ratio_1000_L_9_R_9.png","5_Ratio_1000_L_6_R_6.png","6_Ratio_1000_L_19_R_19.png","8_Ratio_1000_L_14_R_14.png","9_Ratio_1000_L_25_R_25.png"],["1_Ratio_1000_L_1_R_1.png","14_Ratio_1000_L_17_R_17.png","3_Ratio_1000_L_17_R_17.png","7_Ratio_1000_L_6_R_6.png"]]}},{"start_time":1551801261737,"click_time":1551801262792,"finger_time":1551801262290,"fix_duration":1065.9856150672163,"trial":1,"RT":553,"MT":502,"sideResp":1,"stimulus":"img/900/randomdotsizeEA/L/2_Ratio_900_L_20_R_18.png","xmouse":[787,787,787,787,787,787,787,787,787,787,787,787,787,787,787,787,787,787,787,787,787,787,787,785,779,771,759,754,749,747,742,735,723,713,697,679,643,656,647,637,628,609,599,591,587,582,576,574,571,565,560,531,505],"ymouse":[490,490,490,490,490,490,490,490,490,490,490,490,490,490,490,490,490,490,490,490,490,490,488,484,477,470,452,444,439,432,424,407,389,375,353,332,283,279,262,245,229,202,184,173,164,159,148,143,135,125,109,66,35],"timestamp_mouse":[14,46,55,73,94,114,133,155,173,193,214,233,254,274,293,314,334,353,374,394,413,434,455,473,493,515,535,553,575,593,614,633,654,673,695,713,733,754,775,793,814,834,855,873,893,913,934,954,973,993,1014,1034,1055],"xSR":741.5,"ySR":449.15000000000003,"xT1":424.9,"yT1":0,"xT2":1058.1,"yT2":0,"toosoon":0,"cond_shown":"randomdotsizeEA","ratio_trial":900,"smaller_num":"18","larger_num":"20","correct_side":1,"subjID":"valeriecatalinamolanoosorio13","gender":"1","age":"11","school":"6"},{"start_time":1551801264883,"click_time":1551801265651,"finger_time":1551801265471,"fix_duration":1171.9262297021921,"trial":2,"RT":588,"MT":180,"sideResp":1,"stimulus":"img/500/equaldotsize/L/7_Ratio_500_L_10_R_5.png","xmouse":[787,787,787,787,787,787,787,787,787,787,787,787,787,787,787,787,787,787,788,791,791,792,792,793,794,797,797,798,798,798,796,788,776,759,695,619,569,535,524],"ymouse":[506,506,506,506,506,506,506,506,506,506,506,506,506,506,506,506,506,506,506,506,506,506,506,506,504,496,489,482,472,449,432,407,378,339,220,118,64,20,5],"timestamp_mouse":[9,33,48,69,89,107,129,147,169,189,208,227,248,268,287,308,329,349,367,388,408,427,448,467,488,509,529,548,567,588,608,627,647,668,687,708,727,748,767],"xSR":741.5,"ySR":449.15000000000003,"xT1":424.9,"yT1":0,"xT2":1058.1,"yT2":0,"toosoon":0,"cond_shown":"equaldotsize","ratio_trial":500,"smaller_num":"5","larger_num":"10","correct_side":1,"subjID":"valeriecatalinamolanoosorio13","gender":"1","age":"11","school":"6"},{"start_time":1551801267520,"click_time":1551801269052,"finger_time":1551801268472,"fix_duration":367.99393813221536,"trial":3,"RT":952,"MT":580,"sideResp":2,"stimulus":"img/750/equaldotanddens/R/2_Ratio_750_L_6_R_8.png","xmouse":[768,769,770,774,776,776,776,776,776,776,777,777,777,777,777,777,777,777,777,777,778,778,782,782,782,782,782,782,782,782,782,782,782,782,782,782,782,782,782,782,784,785,794,800,808,813,818,844,868,897,933,972,1018,1030,1037,1037,1034,1034,1034,1035,1038,1040,1042,1040,1038,1037,1037,1037,1037,1037,1038,1041,1054,1063,1075,1080,1081],"ymouse":[490,490,490,488,486,486,486,486,486,486,486,486,486,486,486,486,486,486,486,485,484,483,480,479,479,479,479,479,479,479,479,479,479,479,479,479,479,479,479,479,478,477,471,466,465,463,460,448,438,420,405,390,353,341,324,312,283,271,257,243,228,211,187,174,168,166,166,166,166,166,165,164,152,143,123,110,93],"timestamp_mouse":[11,31,50,71,90,111,130,150,171,191,210,232,250,270,291,311,330,350,370,390,412,431,452,470,490,511,530,552,570,590,612,630,650,671,690,712,730,750,771,791,810,830,851,870,891,911,930,952,970,990,1010,1031,1051,1070,1090,1111,1132,1150,1171,1190,1211,1230,1250,1270,1290,1311,1331,1351,1371,1391,1410,1430,1451,1471,1491,1510,1532],"xSR":741.5,"ySR":449.15000000000003,"xT1":424.9,"yT1":0,"xT2":1058.1,"yT2":0,"toosoon":0,"cond_shown":"equaldotanddens","ratio_trial":750,"smaller_num":"6","larger_num":"8","correct_side":2,"subjID":"valeriecatalinamolanoosorio13","gender":"1","age":"11","school":"6"},{"start_time":1551801271670,"click_time":1551801273052,"finger_time":1551801272251,"fix_duration":1136.2617400982217,"trial":4,"RT":581,"MT":801,"sideResp":2,"stimulus":"img/750/equaldotanddens/R/7_Ratio_750_L_3_R_4.png","xmouse":[783,783,783,783,783,783,783,783,783,784,784,786,788,790,791,793,793,794,794,795,795,798,799,801,802,808,814,818,823,831,857,870,882,891,905,932,939,950,960,981,994,1007,1020,1031,1037,1044,1045,1045,1045,1045,1045,1045,1045,1045,1045,1045,1045,1046,1046,1047,1048,1048,1049,1049,1050,1050,1052,1055,1056,1065],"ymouse":[516,516,516,516,516,516,516,516,516,516,516,516,516,515,513,512,511,511,510,510,509,508,507,503,499,484,475,467,458,445,411,392,371,350,331,289,270,241,220,190,171,154,138,124,115,104,103,103,103,103,103,103,103,103,103,103,102,100,99,99,98,98,97,97,97,94,92,89,84,71],"timestamp_mouse":[8,33,41,61,80,100,122,140,160,180,201,220,242,260,281,300,320,341,362,380,400,421,440,462,481,500,520,540,561,581,601,621,640,661,680,700,720,741,761,782,801,821,841,861,880,901,921,941,962,982,1000,1020,1040,1061,1080,1101,1121,1141,1161,1181,1200,1220,1241,1262,1281,1300,1320,1340,1361,1382],"xSR":741.5,"ySR":449.15000000000003,"xT1":424.9,"yT1":0,"xT2":1058.1,"yT2":0,"toosoon":0,"cond_shown":"equaldotanddens","ratio_trial":750,"smaller_num":"3","larger_num":"4","correct_side":2,"subjID":"valeriecatalinamolanoosorio13","gender":"1","age":"11","school":"6"},{"start_time":1551801274901,"click_time":1551801275991,"finger_time":1551801275451,"fix_duration":808.4579344308795,"trial":5,"RT":550,"MT":540,"sideResp":1,"stimulus":"img/250/equaldotsize/L/1_Ratio_250_L_8_R_2.png","xmouse":[785,787,787,787,787,787,787,787,787,787,787,787,787,787,787,787,787,787,787,787,787,788,788,790,790,791,792,792,792,784,774,760,741,702,677,664,640,595,573,559,571,559,545,535,534,534,534,534,534,533,532,531,528,514,506],"ymouse":[464,463,462,462,462,462,462,462,462,462,462,462,462,462,462,462,462,462,462,462,462,462,461,458,456,454,450,445,425,405,379,353,326,275,246,245,226,197,181,171,156,147,139,132,132,132,132,132,130,128,126,124,117,101,87],"timestamp_mouse":[10,34,51,69,89,111,129,149,170,190,210,229,249,269,289,311,329,349,370,390,410,430,450,469,489,510,529,550,570,589,609,629,649,669,689,710,730,751,769,791,811,830,850,869,889,910,930,951,970,989,1010,1029,1050,1070,1090],"xSR":741.5,"ySR":449.15000000000003,"xT1":424.9,"yT1":0,"xT2":1058.1,"yT2":0,"toosoon":0,"cond_shown":"equaldotsize","ratio_trial":250,"smaller_num":"2","larger_num":"8","correct_side":1,"subjID":"valeriecatalinamolanoosorio13","gender":"1","age":"11","school":"6"},{"start_time":1551801277392,"click_time":1551801278070,"finger_time":1551801277810,"fix_duration":260.26124820623806,"trial":6,"RT":418,"MT":260,"sideResp":2,"stimulus":"img/900/randomdotsizeEA/L/4_Ratio_900_L_20_R_18.png","xmouse":[812,812,812,812,812,812,812,812,812,812,812,812,812,812,812,812,812,812,812,813,818,828,862,886,906,932,956,978,1014,1031,1060,1080,1097,1135],"ymouse":[463,463,463,463,463,463,463,463,463,463,463,463,463,463,463,463,463,463,462,457,446,425,374,342,315,290,265,250,222,207,179,160,138,99],"timestamp_mouse":[18,41,58,78,100,118,139,159,179,200,220,238,258,279,298,318,340,358,378,398,418,439,460,478,499,518,540,559,578,598,619,640,658,678],"xSR":741.5,"ySR":449.15000000000003,"xT1":424.9,"yT1":0,"xT2":1058.1,"yT2":0,"toosoon":0,"cond_shown":"randomdotsizeEA","ratio_trial":900,"smaller_num":"18","larger_num":"20","correct_side":1,"subjID":"valeriecatalinamolanoosorio13","gender":"1","age":"11","school":"6"},{"start_time":1551801280044,"click_time":1551801280690,"finger_time":1551801280450,"fix_duration":332.6190616923822,"trial":7,"RT":406,"MT":240,"sideResp":1,"stimulus":"img/900/equaldotanddens/R/13_Ratio_900_L_18_R_20.png","xmouse":[786,786,786,786,786,786,786,786,786,786,786,786,786,786,786,786,786,786,786,786,786,781,776,767,760,753,733,710,687,653,582,546,521],"ymouse":[461,461,461,461,461,461,461,461,461,461,461,461,461,461,461,461,461,461,460,456,449,432,419,404,385,362,313,262,218,175,92,57,27],"timestamp_mouse":[8,41,46,66,87,107,127,147,167,188,207,227,246,268,286,306,327,346,366,386,406,427,447,467,486,506,526,546,566,588,608,627,646],"xSR":741.5,"ySR":449.15000000000003,"xT1":424.9,"yT1":0,"xT2":1058.1,"yT2":0,"toosoon":0,"cond_shown":"equaldotanddens","ratio_trial":900,"smaller_num":"18","larger_num":"20","correct_side":2,"subjID":"valeriecatalinamolanoosorio13","gender":"1","age":"11","school":"6"},{"start_time":1551801282989,"click_time":1551801284411,"finger_time":1551801283871,"fix_duration":1377.94107165298,"trial":8,"RT":882,"MT":540,"sideResp":2,"stimulus":"img/750/equaldotsize/R/12_Ratio_750_L_3_R_4.png","xmouse":[804,803,802,798,797,795,792,791,790,790,790,790,790,790,790,790,790,790,790,790,790,790,790,790,790,790,790,790,790,790,790,790,790,790,790,790,790,790,790,790,791,793,803,807,829,843,863,888,913,960,977,985,993,1000,1011,1015,1018,1022,1026,1029,1030,1033,1034,1035,1037,1038,1039,1040,1043,1049,1055,1062],"ymouse":[473,473,473,475,476,477,478,479,479,479,479,479,479,479,479,479,479,479,479,479,479,479,479,479,479,479,479,479,479,478,478,477,477,477,476,476,476,475,475,472,471,469,471,464,438,417,395,370,340,297,282,274,261,247,221,204,186,164,147,124,114,104,99,95,88,82,80,76,73,62,56,46],"timestamp_mouse":[1,22,43,63,81,101,121,142,162,182,203,221,241,261,281,301,322,341,363,381,403,422,442,461,482,501,523,542,561,582,601,623,641,662,683,703,723,742,761,782,801,822,841,863,882,902,921,941,961,982,1002,1021,1041,1063,1083,1102,1122,1141,1162,1182,1202,1222,1242,1261,1281,1302,1323,1342,1361,1381,1401,1422],"xSR":741.5,"ySR":449.15000000000003,"xT1":424.9,"yT1":0,"xT2":1058.1,"yT2":0,"toosoon":0,"cond_shown":"equaldotsize","ratio_trial":750,"smaller_num":"3","larger_num":"4","correct_side":2,"subjID":"valeriecatalinamolanoosorio13","gender":"1","age":"11","school":"6"},{"start_time":1551801286042,"click_time":1551801287151,"finger_time":1551801286710,"fix_duration":250,"trial":9,"RT":668,"MT":441,"sideResp":1,"stimulus":"img/750/equaldotsize/L/8_Ratio_750_L_4_R_3.png","xmouse":[755,755,755,755,755,755,755,755,755,755,756,756,756,756,756,756,756,756,756,756,756,756,756,756,756,756,756,756,756,756,756,751,742,728,710,689,666,656,649,643,617,602,588,564,544,532,522,521,518,515,513,504,499,493,488,485],"ymouse":[488,488,488,488,488,488,488,488,488,487,487,487,487,487,487,487,487,487,487,487,487,487,487,487,487,487,487,487,487,486,479,468,450,428,404,380,347,335,324,314,281,262,243,220,201,186,175,170,164,158,153,135,122,114,103,96],"timestamp_mouse":[9,42,48,68,88,110,128,148,170,189,209,229,248,270,288,309,329,348,369,390,409,429,448,470,490,509,529,549,568,588,610,628,650,668,689,709,729,749,768,790,810,828,849,870,888,908,928,949,969,989,1009,1029,1048,1070,1089,1109],"xSR":741.5,"ySR":449.15000000000003,"xT1":424.9,"yT1":0,"xT2":1058.1,"yT2":0,"toosoon":0,"cond_shown":"equaldotsize","ratio_trial":750,"smaller_num":"3","larger_num":"4","correct_side":1,"subjID":"valeriecatalinamolanoosorio13","gender":"1","age":"11","school":"6"},{"start_time":1551801290880,"click_time":1551801292370,"finger_time":1551801291610,"fix_duration":1347.3437671343613,"trial":10,"RT":730,"MT":760,"sideResp":2,"stimulus":"img/900/equaldotsize/R/12_Ratio_900_L_18_R_20.png","xmouse":[792,792,792,792,792,792,792,792,792,792,792,792,792,792,792,792,792,792,792,792,792,792,792,792,792,792,792,792,792,792,792,792,792,792,797,801,812,827,840,873,885,902,917,942,953,960,971,977,982,991,995,1000,1004,1007,1018,1023,1031,1036,1041,1045,1045,1045,1045,1045,1047,1048,1051,1052,1055,1055,1056,1056,1056,1057,1060],"ymouse":[487,487,487,487,487,487,487,487,487,487,487,487,487,487,487,487,487,487,487,487,487,486,486,486,486,486,486,486,486,486,486,486,485,476,469,458,440,424,405,366,354,339,322,292,275,260,235,222,211,193,183,172,161,149,128,119,107,101,90,88,87,86,86,85,85,83,83,82,81,80,80,80,80,79,79],"timestamp_mouse":[10,36,51,72,90,112,131,151,172,190,210,230,251,270,292,312,332,350,372,391,411,431,451,472,492,511,531,550,571,591,610,630,652,672,690,712,730,751,771,791,812,831,850,872,890,911,930,951,970,991,1011,1032,1052,1071,1091,1110,1130,1152,1172,1190,1210,1231,1251,1271,1291,1310,1330,1352,1372,1390,1411,1431,1451,1472,1490],"xSR":741.5,"ySR":449.15000000000003,"xT1":424.9,"yT1":0,"xT2":1058.1,"yT2":0,"toosoon":0,"cond_shown":"equaldotsize","ratio_trial":900,"smaller_num":"18","larger_num":"20","correct_side":2,"subjID":"valeriecatalinamolanoosorio13","gender":"1","age":"11","school":"6"},{"start_time":1551801294890,"click_time":1551801296311,"finger_time":1551801295152,"fix_duration":1297.660358624623,"trial":11,"RT":262,"MT":1159,"sideResp":1,"stimulus":"img/750/equaldotanddens/L/1_Ratio_750_L_20_R_15.png","xmouse":[809,809,809,809,809,809,809,809,809,809,810,811,815,826,828,829,830,830,830,830,830,830,830,830,830,830,830,830,829,828,827,825,824,822,807,801,795,790,782,769,762,756,747,733,701,686,671,660,640,629,619,608,598,590,579,577,576,575,575,572,572,571,570,568,560,557,550,546,544,538,529,522],"ymouse":[454,454,454,454,454,454,454,454,454,454,454,452,450,442,440,438,436,436,436,436,436,436,435,435,431,427,425,423,418,414,412,410,406,401,382,374,367,361,354,345,339,334,324,312,280,265,245,231,205,189,175,161,147,137,122,119,118,118,117,117,117,117,116,115,111,107,104,100,98,94,89,87],"timestamp_mouse":[8,35,40,61,82,100,122,142,161,180,200,222,240,262,281,300,321,340,360,381,402,421,441,460,480,501,521,542,562,580,600,621,641,661,681,701,721,741,761,782,802,822,842,861,880,900,921,941,961,980,1001,1022,1041,1062,1081,1101,1121,1142,1162,1180,1201,1221,1241,1260,1281,1300,1321,1341,1361,1380,1401,1421],"xSR":741.5,"ySR":449.15000000000003,"xT1":424.9,"yT1":0,"xT2":1058.1,"yT2":0,"toosoon":0,"cond_shown":"equaldotanddens","ratio_trial":750,"smaller_num":"15","larger_num":"20","correct_side":1,"subjID":"valeriecatalinamolanoosorio13","gender":"1","age":"11","school":"6"},{"start_time":1551801298326,"click_time":1551801299250,"finger_time":1551801298952,"fix_duration":693.773622777081,"trial":12,"RT":626,"MT":298,"sideResp":1,"stimulus":"img/250/equaldotanddens/L/15_Ratio_250_L_12_R_3.png","xmouse":[782,784,788,788,789,790,790,790,790,790,790,790,790,790,790,790,790,790,790,790,790,790,790,790,790,790,790,792,792,793,793,793,792,791,776,764,754,725,711,688,662,636,592,563,550,535,521],"ymouse":[477,476,475,475,474,474,474,474,474,474,474,474,474,474,474,474,474,474,474,474,474,474,474,474,474,474,474,472,468,463,458,445,434,425,396,372,346,289,260,230,198,164,105,66,49,32,20],"timestamp_mouse":[4,25,57,65,84,104,125,146,165,185,204,225,244,266,284,304,324,346,364,384,405,424,445,464,485,504,525,546,564,585,604,626,644,665,686,704,725,745,764,785,806,825,844,865,885,906,924],"xSR":741.5,"ySR":449.15000000000003,"xT1":424.9,"yT1":0,"xT2":1058.1,"yT2":0,"toosoon":0,"cond_shown":"equaldotanddens","ratio_trial":250,"smaller_num":"3","larger_num":"12","correct_side":1,"subjID":"valeriecatalinamolanoosorio13","gender":"1","age":"11","school":"6"},{"start_time":1551801304387,"click_time":1551801305531,"finger_time":1551801304951,"fix_duration":1216.6127341337494,"trial":13,"RT":564,"MT":580,"sideResp":2,"stimulus":"img/500/randomdotsizeEA/R/3_Ratio_500_L_10_R_20.png","xmouse":[770,770,770,770,770,770,770,770,770,770,770,770,770,770,770,770,770,770,770,770,770,770,770,770,770,770,771,775,776,780,780,780,780,780,780,780,785,789,809,820,832,839,846,859,892,905,918,934,949,974,995,1005,1013,1033,1044,1051,1057,1061],"ymouse":[496,496,496,496,496,496,496,496,496,496,496,496,496,496,496,496,496,496,496,496,496,496,496,496,494,490,480,465,448,414,406,386,372,346,334,320,311,300,277,271,261,256,252,244,218,204,187,165,144,104,78,64,52,38,32,26,21,19],"timestamp_mouse":[9,34,43,65,83,103,125,145,164,184,203,224,243,263,284,303,324,343,365,384,403,424,444,464,484,504,523,543,564,583,603,623,644,665,684,703,723,743,765,783,804,824,844,863,883,904,924,943,964,983,1003,1023,1045,1065,1083,1105,1124,1144],"xSR":741.5,"ySR":449.15000000000003,"xT1":424.9,"yT1":0,"xT2":1058.1,"yT2":0,"toosoon":0,"cond_shown":"randomdotsizeEA","ratio_trial":500,"smaller_num":"10","larger_num":"20","correct_side":2,"subjID":"valeriecatalinamolanoosorio13","gender":"1","age":"11","school":"6"},{"start_time":1551801307111,"click_time":1551801309070,"finger_time":1551801307610,"fix_duration":359.93738475453574,"trial":14,"RT":499,"MT":1460,"sideResp":1,"stimulus":"img/500/equaldotanddens/L/4_Ratio_500_L_18_R_9.png","xmouse":[815,815,815,815,815,815,815,817,817,817,817,817,817,817,817,817,817,817,817,817,817,817,817,818,818,817,812,799,787,775,757,737,700,680,663,636,618,604,583,676,1156,1156,1156,1156,1156,1156,1156,1156,1156,1156,1156,1156,1156,1156,1156,1156,1156,1156,1156,1156,1156,1156,1156,1441,1422,1393,1371,1352,1291,1256,1221,1184,1152,1088,990,922,854,783,690,648,608,549,549,549,549,549,549,549,549,549,549,549,549,549,549,549,549,423,435],"ymouse":[474,474,474,474,474,474,474,474,474,474,474,474,474,474,474,474,474,474,474,474,472,471,469,460,452,439,426,397,374,350,328,306,265,245,228,201,181,169,153,229,557,557,557,557,557,557,557,557,557,557,557,557,557,557,557,557,557,557,557,557,557,557,557,665,652,631,615,600,553,527,501,475,451,400,298,248,197,148,81,54,30,0,0,0,0,0,0,0,0,0,0,0,0,0,0,0,0,20,36],"timestamp_mouse":[8,19,41,59,81,99,121,139,160,180,201,220,240,263,280,301,321,340,360,380,400,419,440,461,479,499,521,541,560,581,600,621,641,659,679,699,719,741,759,780,801,820,839,860,879,901,919,939,959,980,1000,1019,1039,1059,1080,1101,1120,1140,1160,1180,1201,1219,1239,1260,1281,1300,1320,1340,1359,1380,1399,1420,1439,1460,1479,1500,1520,1540,1560,1579,1600,1620,1640,1660,1679,1700,1720,1739,1760,1780,1800,1821,1841,1861,1881,1901,1921,1941,1959],"xSR":741.5,"ySR":449.15000000000003,"xT1":424.9,"yT1":0,"xT2":1058.1,"yT2":0,"toosoon":0,"cond_shown":"equaldotanddens","ratio_trial":500,"smaller_num":"9","larger_num":"18","correct_side":1,"subjID":"valeriecatalinamolanoosorio13","gender":"1","age":"11","school":"6"},{"start_time":1551801310917,"click_time":1551801312632,"finger_time":1551801311650,"fix_duration":446.8481083497533,"trial":15,"RT":733,"MT":982,"sideResp":2,"stimulus":"img/900/equaldotanddens/R/3_Ratio_900_L_9_R_10.png","xmouse":[801,801,801,801,800,800,799,797,787,781,778,776,776,776,776,776,776,776,774,774,774,774,774,774,774,774,774,774,774,774,774,774,774,774,774,773,771,764,760,752,742,722,706,704,690,683,675,671,669,668,668,667,668,674,691,711,741,805,840,873,906,959,977,988,1000,1004,1007,1018,1024,1033,1042,1051,1064,1065,1069,1069,1069,1070,1071,1072,1075,1078,1083,1088,1092,1093],"ymouse":[478,478,477,473,472,471,470,469,466,462,461,461,461,461,461,461,461,461,461,461,461,461,461,461,461,461,461,461,461,461,461,461,460,458,455,450,446,437,430,421,409,381,363,358,348,342,337,334,332,331,330,329,327,323,317,313,309,309,307,301,295,283,276,270,257,250,241,222,214,207,201,193,183,180,177,176,175,174,173,171,165,160,141,122,107,93],"timestamp_mouse":[15,35,54,73,94,113,134,155,173,194,214,235,254,274,294,315,335,354,373,394,413,433,455,474,493,515,534,553,573,594,614,633,653,673,695,714,733,753,773,794,815,835,853,873,893,914,935,953,973,995,1014,1035,1053,1074,1093,1115,1133,1153,1173,1194,1215,1235,1253,1273,1293,1313,1334,1354,1374,1394,1415,1434,1453,1473,1493,1513,1534,1554,1574,1594,1614,1634,1655,1673,1694,1714],"xSR":741.5,"ySR":449.15000000000003,"xT1":424.9,"yT1":0,"xT2":1058.1,"yT2":0,"toosoon":0,"cond_shown":"equaldotanddens","ratio_trial":900,"smaller_num":"9","larger_num":"10","correct_side":2,"subjID":"valeriecatalinamolanoosorio13","gender":"1","age":"11","school":"6"},{"start_time":1551801314735,"click_time":1551801316011,"finger_time":1551801315330,"fix_duration":1162.3611538487608,"trial":16,"RT":595,"MT":681,"sideResp":2,"stimulus":"img/900/equaldotanddens/R/6_Ratio_900_L_9_R_10.png","xmouse":[798,798,798,798,798,798,798,798,796,796,796,795,795,795,795,795,795,795,795,795,795,795,795,794,794,794,794,794,796,796,797,800,804,811,820,835,845,853,861,871,879,893,903,909,913,920,934,944,955,964,984,993,1002,1014,1025,1045,1059,1068,1079,1085,1095,1097,1102,1107],"ymouse":[477,477,477,477,477,477,477,474,473,473,473,472,472,471,470,470,469,469,469,469,469,469,469,466,465,464,459,456,451,447,442,426,412,396,380,351,337,326,315,303,294,274,262,255,249,244,233,225,219,212,196,190,184,173,169,153,143,135,129,122,111,105,100,95],"timestamp_mouse":[15,36,56,77,96,115,137,155,175,197,216,235,257,277,296,316,337,355,375,397,416,436,457,477,495,515,537,556,576,595,616,636,656,676,697,717,735,755,775,795,816,836,856,876,896,916,936,956,975,997,1017,1035,1055,1075,1097,1117,1135,1156,1175,1197,1217,1235,1255,1276],"xSR":741.5,"ySR":449.15000000000003,"xT1":424.9,"yT1":0,"xT2":1058.1,"yT2":0,"toosoon":0,"cond_shown":"equaldotanddens","ratio_trial":900,"smaller_num":"9","larger_num":"10","correct_side":2,"subjID":"valeriecatalinamolanoosorio13","gender":"1","age":"11","school":"6"},{"start_time":1551801318913,"click_time":1551801320571,"finger_time":1551801319630,"fix_duration":1481.3184972794372,"trial":17,"RT":717,"MT":941,"sideResp":2,"stimulus":"img/250/equaldotsize/R/10_Ratio_250_L_4_R_16.png","xmouse":[801,801,801,801,801,801,801,801,801,801,801,801,801,801,801,801,801,801,801,801,801,801,801,801,801,801,801,801,801,801,801,801,801,801,803,813,855,881,905,928,949,969,995,1009,1015,1016,1018,1020,1020,1021,1021,1022,1023,1025,1027,1028,1031,1036,1037,1040,1041,1045,1046,1046,1046,1046,1047,1047,1047,1047,1047,1047,1047,1047,1048,1048,1048,1048,1049,1049,1052,1054,1060],"ymouse":[461,461,461,461,461,461,461,461,461,461,461,461,461,461,461,461,461,461,461,461,461,461,461,461,461,461,461,461,461,461,461,461,461,461,458,445,389,354,319,290,260,236,200,182,173,168,161,158,153,151,148,145,141,137,133,128,122,111,106,101,98,94,92,92,92,91,91,91,91,91,91,91,91,91,91,91,91,91,91,91,91,91,90],"timestamp_mouse":[21,39,58,78,97,118,137,159,178,198,218,237,258,277,298,318,337,359,378,397,419,439,458,478,499,518,538,558,579,599,617,637,659,679,697,717,739,758,778,798,818,837,857,878,897,918,939,957,978,998,1017,1037,1058,1079,1098,1118,1137,1157,1178,1197,1218,1239,1257,1277,1299,1319,1337,1357,1378,1397,1418,1438,1458,1478,1499,1518,1538,1557,1578,1598,1618,1638,1658],"xSR":741.5,"ySR":449.15000000000003,"xT1":424.9,"yT1":0,"xT2":1058.1,"yT2":0,"toosoon":0,"cond_shown":"equaldotsize","ratio_trial":250,"smaller_num":"4","larger_num":"16","correct_side":2,"subjID":"valeriecatalinamolanoosorio13","gender":"1","age":"11","school":"6"},{"start_time":1551801323760,"click_time":1551801324932,"finger_time":1551801324591,"fix_duration":1428.1383965239713,"trial":18,"RT":831,"MT":341,"sideResp":2,"stimulus":"img/500/equaldotanddens/R/15_Ratio_500_L_1_R_2.png","xmouse":[790,790,790,790,790,790,790,790,790,790,790,792,792,792,792,792,792,792,792,792,792,792,792,792,792,792,792,792,792,792,792,792,792,792,796,804,811,823,822,828,839,861,870,880,896,903,916,928,942,949,964,968,976,983,1008,1023,1036,1050,1059],"ymouse":[497,497,497,497,497,497,497,497,497,497,497,497,497,497,497,497,497,497,497,497,497,497,497,497,497,497,497,497,497,497,497,497,497,497,493,490,485,475,476,459,456,432,418,404,384,373,356,333,311,288,227,200,178,162,122,103,84,65,53],"timestamp_mouse":[10,39,50,70,92,112,131,151,171,191,210,231,250,272,290,311,332,350,372,392,411,431,451,470,490,512,530,552,571,590,611,631,652,670,691,711,731,751,772,792,810,831,851,871,892,911,932,952,971,991,1010,1030,1050,1072,1092,1110,1130,1151,1172],"xSR":741.5,"ySR":449.15000000000003,"xT1":424.9,"yT1":0,"xT2":1058.1,"yT2":0,"toosoon":0,"cond_shown":"equaldotanddens","ratio_trial":500,"smaller_num":"1","larger_num":"2","correct_side":2,"subjID":"valeriecatalinamolanoosorio13","gender":"1","age":"11","school":"6"},{"start_time":1551801327173,"click_time":1551801327951,"finger_time":1551801327690,"fix_duration":581.5364282793722,"trial":19,"RT":517,"MT":261,"sideResp":1,"stimulus":"img/250/equaldotsize/L/15_Ratio_250_L_12_R_3.png","xmouse":[792,792,799,802,803,803,803,803,803,803,803,803,803,804,804,804,804,804,805,806,807,808,811,822,831,847,866,885,912,915,915,912,881,804,759,715,647,580,512],"ymouse":[481,481,478,476,476,476,476,476,476,476,476,476,476,475,475,475,475,475,475,474,472,471,469,461,455,442,427,409,374,359,340,320,283,222,190,151,97,49,3],"timestamp_mouse":[36,38,58,79,98,118,138,157,179,199,217,237,259,277,298,317,338,358,379,397,418,439,458,481,498,517,539,559,580,597,617,638,658,679,698,717,739,758,778],"xSR":741.5,"ySR":449.15000000000003,"xT1":424.9,"yT1":0,"xT2":1058.1,"yT2":0,"toosoon":0,"cond_shown":"equaldotsize","ratio_trial":250,"smaller_num":"3","larger_num":"12","correct_side":1,"subjID":"valeriecatalinamolanoosorio13","gender":"1","age":"11","school":"6"},{"start_time":1551801330190,"click_time":1551801331011,"finger_time":1551801330770,"fix_duration":1018.0753897397004,"trial":20,"RT":580,"MT":241,"sideResp":2,"stimulus":"img/900/equaldotsize/R/5_Ratio_900_L_9_R_10.png","xmouse":[804,804,804,804,804,804,804,804,804,804,804,804,804,804,804,804,804,804,804,804,804,804,804,804,804,804,805,809,815,852,897,940,984,1047,1070,1086,1096,1106,1111,1123,1130,1137],"ymouse":[488,488,488,488,488,488,488,488,488,488,488,488,488,488,488,488,488,488,488,488,488,488,488,488,488,487,486,482,476,450,414,385,350,287,257,231,208,187,167,116,103,86],"timestamp_mouse":[9,31,41,62,80,100,120,142,160,181,202,221,241,262,280,301,322,342,361,382,401,421,440,461,481,500,521,541,560,580,601,621,641,662,681,701,720,741,761,781,802,821],"xSR":741.5,"ySR":449.15000000000003,"xT1":424.9,"yT1":0,"xT2":1058.1,"yT2":0,"toosoon":0,"cond_shown":"equaldotsize","ratio_trial":900,"smaller_num":"9","larger_num":"10","correct_side":2,"subjID":"valeriecatalinamolanoosorio13","gender":"1","age":"11","school":"6"},{"start_time":1551801333834,"click_time":1551801335052,"finger_time":1551801334671,"fix_duration":402.440299810055,"trial":21,"RT":837,"MT":381,"sideResp":2,"stimulus":"img/250/equaldotsize/R/9_Ratio_250_L_3_R_12.png","xmouse":[813,813,813,813,813,813,813,813,813,813,813,813,813,813,813,813,813,813,813,813,813,813,813,813,813,813,813,813,813,813,813,813,813,813,813,813,814,815,816,820,825,852,870,891,914,957,977,998,1017,1034,1047,1078,1094,1109,1120,1126,1133,1135,1135,1136,1134],"ymouse":[491,491,491,491,491,491,491,491,491,491,491,491,491,491,491,491,491,491,491,491,491,491,491,491,491,491,491,491,491,491,491,491,491,491,491,491,489,488,485,482,477,439,412,385,358,309,289,271,260,247,239,213,194,175,158,150,132,119,112,107,98],"timestamp_mouse":[17,47,56,77,98,116,137,158,177,198,217,237,258,276,296,317,338,356,376,397,416,438,456,476,496,517,538,556,576,598,616,638,656,676,698,717,737,758,776,798,817,837,858,876,897,918,937,957,976,997,1017,1037,1057,1077,1097,1117,1136,1158,1176,1198,1218],"xSR":741.5,"ySR":449.15000000000003,"xT1":424.9,"yT1":0,"xT2":1058.1,"yT2":0,"toosoon":0,"cond_shown":"equaldotsize","ratio_trial":250,"smaller_num":"3","larger_num":"12","correct_side":2,"subjID":"valeriecatalinamolanoosorio13","gender":"1","age":"11","school":"6"},{"start_time":1551801336524,"click_time":1551801337431,"finger_time":1551801337190,"fix_duration":250,"trial":22,"RT":666,"MT":241,"sideResp":2,"stimulus":"img/250/randomdotsizeEA/R/9_Ratio_250_L_3_R_12.png","xmouse":[784,784,784,784,784,784,784,784,784,784,784,784,784,784,784,784,784,784,784,784,784,784,784,784,786,787,788,791,793,795,797,810,822,841,874,899,931,1005,1038,1063,1082,1110,1122,1128,1129,1135],"ymouse":[479,479,479,479,479,479,479,479,479,479,479,479,479,479,479,479,479,479,479,479,479,479,479,479,479,479,479,475,475,474,472,463,454,440,414,396,370,318,290,258,234,183,155,126,118,87],"timestamp_mouse":[9,31,46,68,87,107,126,148,166,188,208,227,247,266,287,307,327,346,367,386,407,428,447,468,487,507,528,547,568,587,608,628,647,666,687,706,728,747,768,787,807,828,846,868,888,907],"xSR":741.5,"ySR":449.15000000000003,"xT1":424.9,"yT1":0,"xT2":1058.1,"yT2":0,"toosoon":0,"cond_shown":"randomdotsizeEA","ratio_trial":250,"smaller_num":"3","larger_num":"12","correct_side":2,"subjID":"valeriecatalinamolanoosorio13","gender":"1","age":"11","school":"6"},{"start_time":1551801338943,"click_time":1551801339633,"finger_time":1551801339432,"fix_duration":250,"trial":23,"RT":489,"MT":201,"sideResp":2,"stimulus":"img/250/equaldotanddens/R/12_Ratio_250_L_5_R_20.png","xmouse":[815,815,815,815,815,815,815,815,815,815,815,815,815,815,815,815,815,815,815,815,815,815,816,818,826,838,878,913,941,971,1023,1044,1063,1103,1127],"ymouse":[455,455,455,455,455,455,455,455,455,455,455,455,455,455,455,455,455,455,455,455,455,455,454,450,443,431,387,354,321,289,220,190,166,119,90],"timestamp_mouse":[9,42,49,68,87,109,128,147,168,187,207,227,248,268,288,307,328,348,368,387,408,429,448,467,489,507,527,549,569,588,609,627,647,687,689],"xSR":741.5,"ySR":449.15000000000003,"xT1":424.9,"yT1":0,"xT2":1058.1,"yT2":0,"toosoon":0,"cond_shown":"equaldotanddens","ratio_trial":250,"smaller_num":"5","larger_num":"20","correct_side":2,"subjID":"valeriecatalinamolanoosorio13","gender":"1","age":"11","school":"6"},{"start_time":1551801342254,"click_time":1551801343712,"finger_time":1551801343010,"fix_duration":1462.8277980926564,"trial":24,"RT":756,"MT":702,"sideResp":1,"stimulus":"img/500/randomdotsizeEA/L/13_Ratio_500_L_12_R_6.png","xmouse":[789,789,789,789,789,789,789,789,789,789,789,789,789,789,789,789,789,789,789,789,789,789,789,789,789,789,789,789,789,789,789,789,789,789,789,789,787,779,768,750,714,682,647,612,545,509,499,478,469,455,451,449,449,449,449,448,448,448,448,447,447,447,447,447,447,447,447,447,447,447,447,447,448],"ymouse":[476,476,476,476,476,476,476,476,476,476,476,476,476,476,476,476,476,476,476,476,476,476,476,476,476,476,476,476,476,476,476,476,476,476,476,471,467,449,431,409,365,335,304,276,226,200,194,179,174,166,164,164,163,163,162,160,156,154,153,151,148,147,146,144,142,133,125,120,116,110,108,103,98],"timestamp_mouse":[16,36,57,77,97,117,137,157,177,196,218,237,256,277,297,317,337,356,378,396,417,437,458,477,497,518,537,556,577,597,617,637,657,677,697,717,736,756,776,796,817,837,856,877,898,923,937,957,976,998,1017,1037,1057,1076,1097,1117,1137,1157,1176,1196,1217,1238,1258,1277,1297,1317,1337,1357,1378,1398,1417,1438,1458],"xSR":741.5,"ySR":449.15000000000003,"xT1":424.9,"yT1":0,"xT2":1058.1,"yT2":0,"toosoon":0,"cond_shown":"randomdotsizeEA","ratio_trial":500,"smaller_num":"6","larger_num":"12","correct_side":1,"subjID":"valeriecatalinamolanoosorio13","gender":"1","age":"11","school":"6"},{"start_time":1551801345402,"click_time":1551801346231,"finger_time":1551801346030,"fix_duration":250,"trial":25,"RT":628,"MT":201,"sideResp":1,"stimulus":"img/900/equaldotanddens/L/8_Ratio_900_L_20_R_18.png","xmouse":[788,788,788,788,788,788,788,788,788,788,788,788,788,788,788,788,788,788,788,788,788,788,788,788,788,788,788,788,788,788,786,779,749,729,699,670,630,592,509,477,457,455],"ymouse":[470,470,470,470,470,470,470,470,470,470,470,470,470,470,470,470,470,470,470,470,470,470,470,470,470,470,470,470,469,461,451,438,404,382,354,312,265,224,150,124,103,99],"timestamp_mouse":[9,36,48,69,88,110,128,150,168,189,210,228,250,269,288,310,329,350,370,389,409,428,449,469,489,509,530,548,568,590,610,628,650,669,689,709,728,749,769,789,808,828],"xSR":741.5,"ySR":449.15000000000003,"xT1":424.9,"yT1":0,"xT2":1058.1,"yT2":0,"toosoon":0,"cond_shown":"equaldotanddens","ratio_trial":900,"smaller_num":"18","larger_num":"20","correct_side":1,"subjID":"valeriecatalinamolanoosorio13","gender":"1","age":"11","school":"6"},{"start_time":1551801348467,"click_time":1551801349252,"finger_time":1551801348991,"fix_duration":1133.706651320287,"trial":26,"RT":524,"MT":261,"sideResp":2,"stimulus":"img/250/randomdotsizeEA/R/12_Ratio_250_L_5_R_20.png","xmouse":[785,786,786,786,786,786,786,786,786,786,786,786,786,788,789,789,791,792,792,792,793,793,794,795,795,800,803,814,825,853,869,890,908,926,947,993,1014,1045,1061,1099],"ymouse":[473,473,473,473,473,473,473,473,473,473,473,473,473,473,473,472,472,472,472,470,470,470,468,467,465,454,447,431,418,379,358,333,309,282,255,196,169,130,106,64],"timestamp_mouse":[9,32,44,63,83,105,123,143,165,183,205,224,245,264,284,303,324,343,364,385,403,423,445,463,484,505,524,544,563,585,604,624,643,665,684,704,724,743,763,785],"xSR":741.5,"ySR":449.15000000000003,"xT1":424.9,"yT1":0,"xT2":1058.1,"yT2":0,"toosoon":0,"cond_shown":"randomdotsizeEA","ratio_trial":250,"smaller_num":"5","larger_num":"20","correct_side":2,"subjID":"valeriecatalinamolanoosorio13","gender":"1","age":"11","school":"6"},{"start_time":1551801350922,"click_time":1551801351891,"finger_time":1551801351532,"fix_duration":751.7730116825413,"trial":27,"RT":610,"MT":359,"sideResp":1,"stimulus":"img/750/equaldotanddens/L/14_Ratio_750_L_8_R_6.png","xmouse":[792,792,792,792,792,792,792,792,792,792,792,792,792,792,792,792,792,792,792,792,792,792,792,792,792,794,798,798,798,796,787,777,726,693,648,621,596,564,551,541,531,515,509,505,504,503,500,497,494],"ymouse":[507,507,507,507,507,507,507,507,507,507,507,507,507,507,507,507,507,507,507,507,507,507,507,507,506,504,498,488,478,467,447,416,354,324,281,258,238,201,187,173,159,137,130,124,121,118,112,105,94],"timestamp_mouse":[9,28,63,69,89,109,128,149,169,189,208,228,250,269,289,308,329,348,370,390,408,430,450,468,489,509,530,550,568,589,610,630,649,668,688,709,729,749,769,790,810,830,848,868,889,909,930,949,969],"xSR":741.5,"ySR":449.15000000000003,"xT1":424.9,"yT1":0,"xT2":1058.1,"yT2":0,"toosoon":0,"cond_shown":"equaldotanddens","ratio_trial":750,"smaller_num":"6","larger_num":"8","correct_side":1,"subjID":"valeriecatalinamolanoosorio13","gender":"1","age":"11","school":"6"},{"start_time":1551801354241,"click_time":1551801355691,"finger_time":1551801354871,"fix_duration":1248.3513198580742,"trial":28,"RT":630,"MT":820,"sideResp":2,"stimulus":"img/900/randomdotsizeEA/R/7_Ratio_900_L_9_R_10.png","xmouse":[762,762,762,762,762,762,762,762,762,762,762,762,762,762,762,762,762,762,762,762,762,762,762,762,762,762,762,762,763,765,766,772,776,783,791,812,830,835,855,875,889,920,943,962,982,1001,1026,1040,1049,1054,1058,1067,1073,1076,1078,1080,1081,1081,1081,1081,1081,1081,1082,1083,1085,1085,1086,1089,1090,1091,1092,1097,1098],"ymouse":[469,469,469,469,469,469,469,469,469,469,469,469,469,469,469,469,469,469,469,469,469,469,469,469,469,469,469,468,462,458,451,433,423,410,396,369,345,338,314,297,287,257,235,215,197,184,165,156,153,150,148,140,136,135,132,131,130,130,130,130,129,128,127,125,124,122,119,116,114,112,108,101,98],"timestamp_mouse":[9,41,50,71,89,109,131,149,171,190,210,231,249,270,291,309,329,351,370,389,409,430,450,471,489,509,529,550,569,590,610,630,650,669,690,711,730,750,770,789,810,830,850,869,889,910,930,950,970,990,1010,1030,1050,1071,1090,1109,1129,1149,1169,1190,1211,1230,1249,1270,1290,1309,1330,1350,1370,1391,1410,1429,1450],"xSR":741.5,"ySR":449.15000000000003,"xT1":424.9,"yT1":0,"xT2":1058.1,"yT2":0,"toosoon":0,"cond_shown":"randomdotsizeEA","ratio_trial":900,"smaller_num":"9","larger_num":"10","correct_side":2,"subjID":"valeriecatalinamolanoosorio13","gender":"1","age":"11","school":"6"},{"start_time":1551801357528,"click_time":1551801358511,"finger_time":1551801357971,"fix_duration":914.7076225096833,"trial":29,"RT":443,"MT":540,"sideResp":2,"stimulus":"img/750/equaldotanddens/R/12_Ratio_750_L_3_R_4.png","xmouse":[800,800,800,800,800,800,800,800,800,800,800,800,800,800,800,800,800,800,800,800,805,808,836,859,861,872,881,905,919,934,954,973,1001,1014,1020,1026,1034,1043,1049,1053,1057,1061,1067,1071,1069,1065,1071,1075,1081,1084],"ymouse":[469,469,469,469,469,469,469,469,469,469,469,469,469,469,469,469,469,469,469,469,469,466,428,394,375,361,349,314,295,276,256,237,209,195,186,179,173,162,158,154,151,144,138,132,129,129,120,111,104,93],"timestamp_mouse":[8,22,43,63,83,102,122,142,164,183,203,223,244,263,283,302,323,344,363,383,404,422,443,463,484,502,522,542,564,584,603,624,643,662,683,704,722,742,764,783,803,824,843,863,884,903,924,943,964,983],"xSR":741.5,"ySR":449.15000000000003,"xT1":424.9,"yT1":0,"xT2":1058.1,"yT2":0,"toosoon":0,"cond_shown":"equaldotanddens","ratio_trial":750,"smaller_num":"3","larger_num":"4","correct_side":2,"subjID":"valeriecatalinamolanoosorio13","gender":"1","age":"11","school":"6"},{"start_time":1551801360787,"click_time":1551801362070,"finger_time":1551801361571,"fix_duration":1254.8909107415848,"trial":30,"RT":784,"MT":499,"sideResp":1,"stimulus":"img/750/equaldotanddens/L/8_Ratio_750_L_4_R_3.png","xmouse":[820,820,820,820,820,820,820,820,820,820,820,820,820,820,820,820,820,820,820,820,820,820,820,820,820,820,820,820,820,820,820,820,820,821,824,825,827,830,834,844,852,858,863,870,896,908,913,918,926,927,929,929,925,921,902,886,870,844,813,745,683,645,611,577,509],"ymouse":[510,510,510,510,510,510,510,510,510,510,510,510,510,510,510,510,510,510,510,510,510,510,510,510,510,510,510,510,510,510,510,510,510,510,506,502,498,493,486,473,459,449,436,420,370,344,333,321,293,281,265,254,246,237,220,209,200,188,175,141,111,96,79,64,37],"timestamp_mouse":[4,23,43,65,85,104,124,144,164,184,205,224,243,263,284,305,324,344,365,385,404,424,444,463,485,505,524,545,565,585,604,623,643,663,683,703,725,743,763,784,804,825,844,865,885,905,925,945,964,985,1004,1023,1043,1064,1083,1104,1123,1144,1163,1183,1203,1223,1244,1263,1283],"xSR":741.5,"ySR":449.15000000000003,"xT1":424.9,"yT1":0,"xT2":1058.1,"yT2":0,"toosoon":0,"cond_shown":"equaldotanddens","ratio_trial":750,"smaller_num":"3","larger_num":"4","correct_side":1,"subjID":"valeriecatalinamolanoosorio13","gender":"1","age":"11","school":"6"},{"start_time":1551801365725,"click_time":1551801366691,"finger_time":1551801366271,"fix_duration":692.8855363259426,"trial":31,"RT":546,"MT":420,"sideResp":1,"stimulus":"img/750/equaldotsize/R/4_Ratio_750_L_15_R_20.png","xmouse":[789,789,789,789,789,789,789,789,789,789,789,789,790,791,791,791,791,791,791,791,791,791,791,791,791,789,780,762,754,746,739,717,702,684,660,649,637,634,631,629,625,620,603,598,580,561,528,516,505],"ymouse":[482,482,482,482,482,482,482,482,482,482,482,482,481,479,479,479,479,479,479,479,479,479,479,478,471,461,451,438,432,421,400,351,329,307,276,260,239,231,224,215,204,195,172,165,150,137,111,103,95],"timestamp_mouse":[8,26,45,66,85,105,127,146,166,185,205,225,246,266,285,305,327,347,365,385,405,425,446,466,487,506,525,546,567,587,607,627,645,665,685,706,727,745,766,785,806,826,847,867,887,905,927,945,966],"xSR":741.5,"ySR":449.15000000000003,"xT1":424.9,"yT1":0,"xT2":1058.1,"yT2":0,"toosoon":0,"cond_shown":"equaldotsize","ratio_trial":750,"smaller_num":"15","larger_num":"20","correct_side":2,"subjID":"valeriecatalinamolanoosorio13","gender":"1","age":"11","school":"6"},{"start_time":1551801370326,"click_time":1551801371470,"finger_time":1551801370952,"fix_duration":1254.4975114524757,"trial":32,"RT":626,"MT":518,"sideResp":2,"stimulus":"img/900/equaldotanddens/R/12_Ratio_900_L_18_R_20.png","xmouse":[774,774,774,774,774,774,774,774,774,774,774,774,774,774,774,774,774,774,774,774,774,774,774,774,776,777,778,784,788,793,802,827,838,854,867,878,908,919,931,939,945,961,967,973,980,987,996,1002,1005,1006,1008,1011,1018,1031,1043,1050,1069,1077],"ymouse":[484,484,484,484,484,484,484,484,484,484,484,484,484,484,484,484,484,484,484,484,484,484,484,484,484,484,484,482,481,474,466,438,419,400,377,360,317,299,284,273,262,242,233,226,216,208,188,184,182,178,175,171,160,140,129,123,108,99],"timestamp_mouse":[11,26,45,65,85,105,125,145,165,186,206,225,244,266,285,305,325,345,364,384,405,425,445,465,485,505,525,546,565,586,604,626,644,665,684,705,726,744,764,784,806,826,844,864,884,906,926,945,965,985,1006,1025,1044,1065,1085,1106,1126,1144],"xSR":741.5,"ySR":449.15000000000003,"xT1":424.9,"yT1":0,"xT2":1058.1,"yT2":0,"toosoon":0,"cond_shown":"equaldotanddens","ratio_trial":900,"smaller_num":"18","larger_num":"20","correct_side":2,"subjID":"valeriecatalinamolanoosorio13","gender":"1","age":"11","school":"6"},{"start_time":1551801375374,"click_time":1551801376870,"finger_time":1551801376150,"fix_duration":1440.9889104659458,"trial":33,"RT":776,"MT":720,"sideResp":2,"stimulus":"img/500/equaldotanddens/R/6_Ratio_500_L_9_R_18.png","xmouse":[790,790,790,790,790,790,790,790,790,790,790,790,790,790,790,790,790,790,790,791,793,794,794,795,797,798,801,801,802,803,803,803,804,805,810,816,819,826,842,898,962,1016,1061,1197,1228,1241,1250,1255,1273,1277,1281,1284,1285,1285,1285,1285,1283,1278,1269,1249,1234,1227,1220,1207,1201,1197,1192,1188,1186,1177,1171,1168,1165,1162,1156],"ymouse":[497,497,497,497,497,497,497,497,497,497,497,497,497,497,497,497,497,497,497,497,497,496,495,493,492,491,491,490,490,489,489,489,488,487,484,480,479,473,464,423,370,324,282,148,116,94,76,62,42,33,27,19,14,12,8,7,7,6,6,6,8,11,15,22,27,31,35,37,39,44,49,52,53,54,55],"timestamp_mouse":[16,36,57,77,105,117,136,156,177,196,216,236,258,276,297,317,336,357,376,396,416,436,457,476,496,517,537,556,577,597,617,636,657,676,696,718,736,758,776,796,816,836,856,878,897,918,936,957,978,996,1016,1036,1057,1076,1096,1117,1136,1157,1178,1197,1216,1236,1256,1277,1296,1316,1336,1356,1377,1397,1416,1436,1458,1477,1496],"xSR":741.5,"ySR":449.15000000000003,"xT1":424.9,"yT1":0,"xT2":1058.1,"yT2":0,"toosoon":0,"cond_shown":"equaldotanddens","ratio_trial":500,"smaller_num":"9","larger_num":"18","correct_side":2,"subjID":"valeriecatalinamolanoosorio13","gender":"1","age":"11","school":"6"},{"start_time":1551801379611,"click_time":1551801380592,"finger_time":1551801380071,"fix_duration":1280.2846982062574,"trial":34,"RT":460,"MT":521,"sideResp":2,"stimulus":"img/900/equaldotsize/L/1_Ratio_900_L_10_R_9.png","xmouse":[793,793,793,793,793,793,793,793,793,793,793,793,793,793,793,793,793,793,794,798,803,808,828,844,864,890,919,982,1009,1054,1086,1110,1160,1180,1201,1215,1228,1234,1234,1234,1234,1234,1231,1229,1223,1214,1200,1172,1151],"ymouse":[455,455,455,455,455,455,455,455,455,455,455,455,455,455,455,455,455,455,455,454,452,450,442,435,428,416,401,363,341,307,286,265,218,191,161,142,116,101,97,89,84,80,70,67,59,50,37,17,3],"timestamp_mouse":[19,41,59,81,100,120,141,159,179,200,219,239,260,281,299,320,339,360,380,400,421,439,460,479,501,520,540,559,579,599,619,640,659,680,700,719,741,760,780,799,820,841,860,879,899,920,940,959,980],"xSR":741.5,"ySR":449.15000000000003,"xT1":424.9,"yT1":0,"xT2":1058.1,"yT2":0,"toosoon":0,"cond_shown":"equaldotsize","ratio_trial":900,"smaller_num":"9","larger_num":"10","correct_side":1,"subjID":"valeriecatalinamolanoosorio13","gender":"1","age":"11","school":"6"},{"start_time":1551801383194,"click_time":1551801384270,"finger_time":1551801383671,"fix_duration":1222.3600744767075,"trial":35,"RT":477,"MT":599,"sideResp":1,"stimulus":"img/900/equaldotanddens/R/9_Ratio_900_L_18_R_20.png","xmouse":[801,801,801,801,801,801,801,801,801,801,801,801,801,801,801,800,796,784,778,773,771,770,769,767,764,763,761,757,754,748,743,737,719,708,689,666,640,616,574,562,558,557,556,554,553,550,546,543,538,538,538,537,531,518],"ymouse":[502,502,502,502,502,502,502,502,502,502,502,502,502,502,502,500,493,478,471,464,460,457,451,436,425,415,405,386,375,360,349,340,317,296,267,237,210,187,145,129,121,118,116,112,110,107,103,99,94,94,94,92,85,67],"timestamp_mouse":[17,42,56,77,97,118,137,157,176,196,216,236,256,276,297,317,337,358,376,397,416,438,457,477,496,517,538,558,576,597,616,637,658,676,696,717,738,756,776,796,816,837,857,876,896,918,937,957,976,996,1016,1037,1056,1076],"xSR":741.5,"ySR":449.15000000000003,"xT1":424.9,"yT1":0,"xT2":1058.1,"yT2":0,"toosoon":0,"cond_shown":"equaldotanddens","ratio_trial":900,"smaller_num":"18","larger_num":"20","correct_side":2,"subjID":"valeriecatalinamolanoosorio13","gender":"1","age":"11","school":"6"},{"start_time":1551801386339,"click_time":1551801387350,"finger_time":1551801386870,"fix_duration":1085.639602039638,"trial":36,"RT":531,"MT":480,"sideResp":2,"stimulus":"img/500/equaldotsize/R/2_Ratio_500_L_3_R_6.png","xmouse":[790,790,790,790,790,790,790,790,790,790,790,790,790,790,790,790,790,790,790,790,790,790,790,792,804,817,865,891,919,943,962,1001,1020,1047,1065,1107,1127,1143,1156,1164,1171,1178,1180,1180,1180,1181,1181,1179,1173,1169,1158],"ymouse":[476,476,476,476,476,476,476,476,476,476,476,476,476,476,476,476,476,476,476,476,476,476,476,476,472,465,442,428,415,399,388,357,344,315,293,234,210,188,169,158,145,129,122,119,115,111,103,97,92,86,78],"timestamp_mouse":[15,44,51,71,92,112,131,151,171,191,211,231,253,271,292,312,332,351,371,392,411,431,451,472,493,512,531,552,573,591,611,631,652,671,691,712,731,751,771,793,812,832,852,871,891,913,932,952,972,993,1011],"xSR":741.5,"ySR":449.15000000000003,"xT1":424.9,"yT1":0,"xT2":1058.1,"yT2":0,"toosoon":0,"cond_shown":"equaldotsize","ratio_trial":500,"smaller_num":"3","larger_num":"6","correct_side":2,"subjID":"valeriecatalinamolanoosorio13","gender":"1","age":"11","school":"6"},{"start_time":1551801388704,"click_time":1551801389671,"finger_time":1551801389272,"fix_duration":250,"trial":37,"RT":568,"MT":399,"sideResp":1,"stimulus":"img/900/equaldotanddens/R/13_Ratio_900_L_18_R_20.png","xmouse":[823,823,823,823,823,823,823,823,823,823,823,823,823,823,823,823,823,823,823,823,823,823,823,823,823,823,823,824,824,824,824,826,829,829,829,825,821,803,784,765,743,719,678,657,620,591,562,535,509],"ymouse":[478,478,478,478,478,478,478,478,478,478,478,478,478,478,478,478,478,478,478,478,478,478,478,478,477,473,468,463,446,434,420,408,381,367,355,340,331,314,299,283,268,252,220,205,179,158,134,116,95],"timestamp_mouse":[10,34,47,67,86,107,126,146,167,186,207,227,246,266,287,307,327,347,366,386,406,428,447,466,487,507,527,546,568,586,606,626,647,666,687,706,726,747,766,786,806,826,848,866,886,906,927,946,966],"xSR":741.5,"ySR":449.15000000000003,"xT1":424.9,"yT1":0,"xT2":1058.1,"yT2":0,"toosoon":0,"cond_shown":"equaldotanddens","ratio_trial":900,"smaller_num":"18","larger_num":"20","correct_side":2,"subjID":"valeriecatalinamolanoosorio13","gender":"1","age":"11","school":"6"},{"start_time":1551801390967,"click_time":1551801391971,"finger_time":1551801391470,"fix_duration":453.77681746312845,"trial":38,"RT":503,"MT":501,"sideResp":2,"stimulus":"img/500/equaldotanddens/R/14_Ratio_500_L_5_R_10.png","xmouse":[777,777,777,777,777,777,777,777,777,777,777,777,777,777,777,777,777,777,777,778,781,783,796,805,830,851,876,900,925,941,971,982,1002,1012,1035,1053,1070,1079,1089,1100,1112,1115,1116,1118,1120,1120,1121,1121,1121,1121,1121],"ymouse":[485,485,485,485,485,485,485,485,485,485,485,485,485,485,485,485,485,485,485,485,485,485,481,478,467,456,438,419,397,373,334,320,299,285,252,230,213,200,186,172,155,149,145,141,130,123,119,112,107,102,98],"timestamp_mouse":[8,38,43,63,85,104,125,143,165,183,204,224,244,263,284,303,325,345,364,383,404,423,444,463,484,503,523,544,563,585,603,624,643,664,684,703,723,744,764,784,803,824,843,864,885,903,924,944,964,984,1004],"xSR":741.5,"ySR":449.15000000000003,"xT1":424.9,"yT1":0,"xT2":1058.1,"yT2":0,"toosoon":0,"cond_shown":"equaldotanddens","ratio_trial":500,"smaller_num":"5","larger_num":"10","correct_side":2,"subjID":"valeriecatalinamolanoosorio13","gender":"1","age":"11","school":"6"},{"start_time":1551801394722,"click_time":1551801396071,"finger_time":1551801395370,"fix_duration":789.1437749003132,"trial":39,"RT":648,"MT":701,"sideResp":1,"stimulus":"img/750/randomdotsizeEA/L/6_Ratio_750_L_24_R_18.png","xmouse":[799,799,799,799,799,799,799,799,799,799,799,799,799,799,799,799,799,799,799,799,799,799,799,799,799,799,799,799,802,805,812,823,848,861,867,874,891,903,910,917,924,930,931,931,921,913,900,862,841,817,787,763,704,658,658,658,658,658,658,658,658,658,658,658,658,658,498,492],"ymouse":[483,483,483,483,481,480,480,480,480,480,480,480,480,480,480,480,480,480,480,480,480,480,480,480,480,480,480,478,475,473,468,460,441,426,417,405,367,345,325,307,293,274,260,244,217,201,184,145,127,111,88,70,30,1,1,1,1,1,1,1,1,1,1,1,1,1,0,7],"timestamp_mouse":[8,34,48,68,89,108,130,148,169,188,209,229,249,268,288,308,329,350,370,388,409,428,449,469,488,508,529,549,569,589,609,628,648,669,688,709,729,748,769,788,808,830,848,869,889,910,928,948,969,989,1008,1029,1048,1068,1088,1108,1129,1149,1168,1188,1208,1228,1248,1268,1288,1310,1329,1349],"xSR":741.5,"ySR":449.15000000000003,"xT1":424.9,"yT1":0,"xT2":1058.1,"yT2":0,"toosoon":0,"cond_shown":"randomdotsizeEA","ratio_trial":750,"smaller_num":"18","larger_num":"24","correct_side":1,"subjID":"valeriecatalinamolanoosorio13","gender":"1","age":"11","school":"6"},{"start_time":1551801397737,"click_time":1551801399851,"finger_time":1551801398850,"fix_duration":286.30077490528106,"trial":40,"RT":1113,"MT":1001,"sideResp":1,"stimulus":"img/500/randomdotsizeEA/L/11_Ratio_500_L_12_R_6.png","xmouse":[756,756,757,760,763,766,770,772,773,775,776,779,780,783,784,784,784,785,785,785,787,794,797,803,805,808,810,811,811,811,811,813,814,817,819,819,819,819,819,820,820,820,821,821,821,821,822,825,825,827,829,831,833,833,834,834,829,821,809,795,786,768,764,760,758,752,748,744,736,718,674,599,599,599,599,599,599,599,599,599,599,599,599,599,599,599,599,599,599,540,565,573,581,581,581,581,581,581,581,579,579,573,564,554,537,519],"ymouse":[483,483,483,483,483,483,483,483,483,482,482,482,482,481,481,481,481,481,481,481,481,479,478,477,476,476,475,473,473,473,473,473,472,471,471,470,470,470,470,470,470,470,470,470,469,469,469,469,468,467,466,462,459,456,453,448,432,423,411,401,392,379,375,369,365,351,342,330,294,217,119,9,9,9,9,9,9,9,9,9,9,9,9,9,9,9,9,9,9,2,47,65,84,90,93,95,95,95,95,95,95,93,88,81,71,54],"timestamp_mouse":[15,43,53,74,94,113,134,154,175,194,214,234,254,274,293,314,335,354,374,393,413,434,454,473,495,514,533,553,573,593,614,633,653,673,694,714,734,754,773,794,814,833,853,873,893,914,935,953,974,994,1014,1034,1054,1074,1094,1113,1133,1153,1173,1194,1214,1234,1253,1273,1294,1314,1333,1354,1373,1394,1413,1433,1454,1473,1494,1513,1534,1553,1574,1593,1614,1634,1653,1673,1694,1714,1734,1754,1773,1794,1814,1833,1853,1874,1893,1913,1933,1953,1974,1993,2014,2035,2054,2074,2093,2114],"xSR":741.5,"ySR":449.15000000000003,"xT1":424.9,"yT1":0,"xT2":1058.1,"yT2":0,"toosoon":0,"cond_shown":"randomdotsizeEA","ratio_trial":500,"smaller_num":"6","larger_num":"12","correct_side":1,"subjID":"valeriecatalinamolanoosorio13","gender":"1","age":"11","school":"6"},{"start_time":1551801402242,"click_time":1551801403652,"finger_time":1551801402852,"fix_duration":250,"trial":41,"RT":610,"MT":800,"sideResp":1,"stimulus":"img/900/randomdotsizeEA/R/7_Ratio_900_L_9_R_10.png","xmouse":[790,790,790,790,790,790,790,790,790,791,793,793,793,793,793,793,793,793,793,793,793,793,793,793,796,799,802,806,812,817,831,835,837,837,837,834,821,818,814,814,811,809,809,809,807,806,804,802,799,797,786,777,768,755,724,687,621,593,582,575,571,568,566,564,561,554,545,541,536,531,524],"ymouse":[503,503,503,503,503,503,503,503,502,502,499,499,499,499,499,499,499,499,499,499,499,499,499,499,497,492,487,477,466,453,419,400,380,358,337,319,284,271,265,263,257,254,253,251,249,246,244,243,238,236,229,222,216,205,193,176,140,121,116,113,112,111,111,110,107,105,101,100,98,96,91],"timestamp_mouse":[10,42,49,68,89,109,129,149,168,189,210,228,249,269,288,309,329,349,368,388,409,430,448,468,489,510,528,548,569,588,610,628,648,669,690,708,728,748,768,788,810,828,848,869,888,908,929,948,968,988,1010,1028,1049,1068,1088,1110,1128,1149,1168,1189,1208,1228,1248,1268,1289,1308,1328,1350,1369,1388,1410],"xSR":741.5,"ySR":449.15000000000003,"xT1":424.9,"yT1":0,"xT2":1058.1,"yT2":0,"toosoon":0,"cond_shown":"randomdotsizeEA","ratio_trial":900,"smaller_num":"9","larger_num":"10","correct_side":2,"subjID":"valeriecatalinamolanoosorio13","gender":"1","age":"11","school":"6"},{"start_time":1551801405198,"click_time":1551801406371,"finger_time":1551801405790,"fix_duration":465.66910391068575,"trial":42,"RT":592,"MT":581,"sideResp":2,"stimulus":"img/900/equaldotsize/R/5_Ratio_900_L_9_R_10.png","xmouse":[778,778,778,778,778,778,778,778,778,778,778,778,778,778,778,778,778,778,778,778,782,786,801,805,811,815,821,829,841,865,887,903,918,945,962,979,994,1009,1034,1046,1059,1063,1068,1079,1082,1085,1090,1094,1104,1108,1108,1108,1108,1111,1111,1111,1112,1114,1114],"ymouse":[546,546,546,546,546,546,546,546,546,546,546,546,546,546,546,546,546,546,546,546,541,534,516,509,501,496,489,477,467,445,429,417,404,385,372,355,338,324,293,279,263,257,248,235,227,220,209,198,175,156,147,140,133,130,122,117,111,102,98],"timestamp_mouse":[13,37,53,74,92,113,134,152,173,193,212,234,252,272,292,313,333,352,372,393,412,433,454,474,493,513,532,554,572,592,612,633,653,672,694,713,732,753,773,793,812,832,852,872,892,914,932,952,972,993,1012,1032,1053,1072,1093,1112,1133,1153,1173],"xSR":741.5,"ySR":449.15000000000003,"xT1":424.9,"yT1":0,"xT2":1058.1,"yT2":0,"toosoon":0,"cond_shown":"equaldotsize","ratio_trial":900,"smaller_num":"9","larger_num":"10","correct_side":2,"subjID":"valeriecatalinamolanoosorio13","gender":"1","age":"11","school":"6"},{"start_time":1551801408039,"click_time":1551801409391,"finger_time":1551801408790,"fix_duration":466.50179342570084,"trial":43,"RT":751,"MT":601,"sideResp":1,"stimulus":"img/900/equaldotsize/L/2_Ratio_900_L_20_R_18.png","xmouse":[788,788,788,788,788,793,801,803,805,806,807,809,809,810,810,810,811,812,814,814,815,816,816,818,819,819,820,820,820,821,821,821,821,821,821,819,813,812,806,803,797,774,757,739,712,668,640,628,603,592,584,575,570,566,561,557,547,540,537,535,533,530,529,528,528,526,526,524],"ymouse":[511,511,511,511,511,511,511,511,511,511,511,511,511,511,511,510,510,509,509,507,507,507,507,506,506,505,504,503,502,499,495,491,486,483,476,464,452,448,436,429,420,390,373,353,328,274,237,227,198,182,171,153,144,135,126,115,102,94,90,86,84,81,80,78,77,76,76,74],"timestamp_mouse":[11,31,53,71,92,111,131,153,173,191,211,232,251,272,292,313,331,353,372,392,411,432,451,472,491,512,531,551,572,592,612,633,652,672,691,712,732,751,771,792,811,831,852,871,892,913,932,951,971,991,1011,1032,1051,1072,1093,1111,1131,1151,1171,1191,1211,1232,1252,1271,1292,1312,1331,1351],"xSR":741.5,"ySR":449.15000000000003,"xT1":424.9,"yT1":0,"xT2":1058.1,"yT2":0,"toosoon":0,"cond_shown":"equaldotsize","ratio_trial":900,"smaller_num":"18","larger_num":"20","correct_side":1,"subjID":"valeriecatalinamolanoosorio13","gender":"1","age":"11","school":"6"},{"start_time":1551801411652,"click_time":1551801412771,"finger_time":1551801412252,"fix_duration":1198.0976699479945,"trial":44,"RT":600,"MT":519,"sideResp":2,"stimulus":"img/900/randomdotsizeEA/R/12_Ratio_900_L_18_R_20.png","xmouse":[772,772,772,772,772,772,772,772,772,772,772,772,772,772,772,772,772,772,772,772,772,772,772,772,773,780,784,791,800,809,829,841,854,866,875,886,909,918,922,927,948,978,1009,1030,1043,1058,1066,1075,1083,1089,1109,1115,1119,1125,1129,1132,1135],"ymouse":[483,483,483,483,483,483,483,483,483,483,483,483,483,483,483,483,483,483,483,483,483,483,483,483,481,473,468,463,456,450,435,425,417,407,399,391,371,356,350,345,316,281,251,233,223,201,192,179,170,160,135,126,120,114,107,103,99],"timestamp_mouse":[1,18,38,58,78,99,118,138,159,179,198,218,239,258,279,299,318,338,359,378,399,419,438,458,478,500,519,538,558,579,600,618,639,659,679,699,718,738,758,778,800,818,840,859,878,900,918,939,958,978,999,1018,1038,1059,1079,1098,1119],"xSR":741.5,"ySR":449.15000000000003,"xT1":424.9,"yT1":0,"xT2":1058.1,"yT2":0,"toosoon":0,"cond_shown":"randomdotsizeEA","ratio_trial":900,"smaller_num":"18","larger_num":"20","correct_side":2,"subjID":"valeriecatalinamolanoosorio13","gender":"1","age":"11","school":"6"},{"start_time":1551801418033,"click_time":1551801419432,"finger_time":1551801418790,"fix_duration":921.6652473752108,"trial":45,"RT":757,"MT":642,"sideResp":1,"stimulus":"img/250/randomdotsizeEA/L/14_Ratio_250_L_12_R_3.png","xmouse":[793,793,793,793,793,793,792,786,783,783,782,782,782,782,782,782,782,782,782,782,782,782,782,781,780,779,769,765,765,765,764,764,764,764,764,757,746,723,709,702,683,675,664,652,642,632,617,611,604,596,570,556,539,523,513,509,504,502,498,493,484,481,478,476,475,473,470,469,468,468],"ymouse":[481,481,481,481,481,481,483,484,486,486,486,486,486,486,486,486,486,486,486,486,486,486,486,486,486,486,476,469,468,467,467,466,466,466,465,459,451,435,424,417,398,389,379,369,358,346,326,318,308,297,264,251,240,231,228,226,221,215,209,196,172,162,151,142,134,127,113,103,100,98],"timestamp_mouse":[17,37,57,78,97,118,138,158,178,198,217,238,257,277,298,317,338,358,377,398,417,437,457,478,498,519,538,557,577,599,617,638,658,677,698,719,737,757,777,797,819,837,857,877,898,917,937,957,977,999,1019,1037,1057,1078,1097,1117,1138,1158,1177,1198,1218,1237,1257,1277,1298,1318,1337,1357,1377,1398],"xSR":741.5,"ySR":449.15000000000003,"xT1":424.9,"yT1":0,"xT2":1058.1,"yT2":0,"toosoon":0,"cond_shown":"randomdotsizeEA","ratio_trial":250,"smaller_num":"3","larger_num":"12","correct_side":1,"subjID":"valeriecatalinamolanoosorio13","gender":"1","age":"11","school":"6"},{"start_time":1551801420661,"click_time":1551801421970,"finger_time":1551801421390,"fix_duration":250,"trial":46,"RT":729,"MT":580,"sideResp":2,"stimulus":"img/900/equaldotsize/R/3_Ratio_900_L_9_R_10.png","xmouse":[783,785,787,787,787,787,787,787,787,787,787,787,787,787,787,787,787,787,787,787,787,787,787,787,787,787,787,787,787,787,787,788,790,791,800,810,831,845,859,873,911,923,933,943,952,955,961,962,963,966,968,969,970,974,984,991,1002,1020,1023,1026,1028,1030,1033,1036,1051,1064],"ymouse":[487,491,493,493,493,493,493,493,493,493,493,493,493,493,493,493,493,493,493,493,493,493,493,493,493,493,493,493,493,493,493,493,490,487,473,459,428,407,380,352,261,232,206,188,162,153,141,139,137,135,133,132,131,130,126,123,117,111,108,107,106,106,105,104,93,86],"timestamp_mouse":[16,39,49,70,89,109,130,149,169,190,210,229,251,270,290,309,329,349,370,391,411,429,450,471,490,510,530,549,570,590,610,630,649,671,691,709,729,749,770,790,809,829,850,869,891,909,929,949,970,990,1009,1030,1049,1069,1091,1109,1129,1149,1169,1191,1209,1230,1250,1270,1291,1309],"xSR":741.5,"ySR":449.15000000000003,"xT1":424.9,"yT1":0,"xT2":1058.1,"yT2":0,"toosoon":0,"cond_shown":"equaldotsize","ratio_trial":900,"smaller_num":"9","larger_num":"10","correct_side":2,"subjID":"valeriecatalinamolanoosorio13","gender":"1","age":"11","school":"6"},{"start_time":1551801426549,"click_time":1551801427811,"finger_time":1551801427210,"fix_duration":977.427075747917,"trial":47,"RT":661,"MT":601,"sideResp":2,"stimulus":"img/750/equaldotsize/R/3_Ratio_750_L_15_R_20.png","xmouse":[800,800,800,800,800,800,800,800,800,800,800,800,800,800,801,801,801,801,802,802,802,803,804,804,805,805,805,805,806,806,808,809,811,814,819,834,851,855,859,859,852,852,853,860,865,874,908,922,933,938,938,938,938,938,938,938,938,938,938,938,938,1046,1057,1069],"ymouse":[508,508,508,508,508,508,508,508,508,508,508,508,508,508,508,508,508,506,506,505,502,500,497,494,492,489,486,484,482,480,476,460,453,435,420,384,332,307,272,240,175,155,128,112,97,78,33,14,4,1,1,1,1,1,1,1,1,1,1,1,1,3,11,21],"timestamp_mouse":[9,33,41,62,81,102,121,141,162,181,201,222,241,262,283,301,321,341,362,381,401,422,441,461,481,503,521,542,561,581,602,622,641,661,682,702,721,742,761,781,803,821,842,861,882,902,921,941,961,982,1001,1022,1042,1061,1081,1101,1122,1142,1162,1182,1201,1221,1241,1262],"xSR":741.5,"ySR":449.15000000000003,"xT1":424.9,"yT1":0,"xT2":1058.1,"yT2":0,"toosoon":0,"cond_shown":"equaldotsize","ratio_trial":750,"smaller_num":"15","larger_num":"20","correct_side":2,"subjID":"valeriecatalinamolanoosorio13","gender":"1","age":"11","school":"6"},{"start_time":1551801429845,"click_time":1551801431210,"finger_time":1551801430451,"fix_duration":1073.2669456951928,"trial":48,"RT":606,"MT":759,"sideResp":2,"stimulus":"img/750/equaldotsize/R/4_Ratio_750_L_15_R_20.png","xmouse":[803,803,803,803,803,803,803,803,803,803,803,803,803,803,803,803,803,803,803,803,803,803,803,803,806,807,811,813,814,821,824,837,843,848,856,861,877,886,899,913,928,933,939,944,948,951,960,968,972,978,986,992,998,1002,1006,1012,1027,1032,1039,1044,1050,1053,1055,1055,1056,1056,1058,1058,1060],"ymouse":[471,471,471,471,471,471,471,471,471,471,471,471,471,471,471,471,471,471,471,471,471,471,471,471,468,467,465,462,460,452,446,428,421,410,397,386,361,348,315,291,255,242,229,220,209,201,180,169,163,156,145,138,130,125,119,112,98,94,89,83,80,78,78,76,76,75,75,75,74],"timestamp_mouse":[9,37,46,66,85,105,126,146,165,185,205,226,246,265,285,305,326,346,366,387,406,426,445,465,486,506,526,547,566,585,606,625,645,665,686,706,725,745,766,785,807,825,846,865,885,905,925,946,965,985,1007,1025,1046,1065,1086,1106,1125,1146,1165,1185,1207,1225,1246,1265,1286,1307,1325,1346,1365],"xSR":741.5,"ySR":449.15000000000003,"xT1":424.9,"yT1":0,"xT2":1058.1,"yT2":0,"toosoon":0,"cond_shown":"equaldotsize","ratio_trial":750,"smaller_num":"15","larger_num":"20","correct_side":2,"subjID":"valeriecatalinamolanoosorio13","gender":"1","age":"11","school":"6"},{"start_time":1551801433664,"click_time":1551801435493,"finger_time":1551801434251,"fix_duration":1313.0950829132971,"trial":49,"RT":587,"MT":1242,"sideResp":1,"stimulus":"img/750/equaldotsize/L/10_Ratio_750_L_4_R_3.png","xmouse":[800,800,800,800,800,800,800,800,800,800,800,800,800,800,800,800,800,800,800,800,800,800,800,800,800,810,817,826,834,842,856,861,868,873,880,903,912,921,928,940,945,949,956,960,974,978,985,990,991,993,994,994,994,994,994,993,976,951,919,839,789,736,669,622,587,542,539,528,521,505,500,498,498,498,498,498,498,498,498,498,501,503,507,511,517,527,528,528,528,528,525,523],"ymouse":[494,494,494,494,494,494,494,494,494,494,494,494,494,494,494,494,494,494,494,494,494,494,494,494,493,486,480,472,463,452,431,416,400,388,372,316,298,282,264,233,222,212,201,190,172,165,153,149,143,139,139,139,139,139,138,138,138,138,138,138,138,138,138,138,138,138,138,138,140,141,141,141,141,141,141,141,141,141,141,141,139,136,131,125,116,91,76,71,69,63,59,57],"timestamp_mouse":[9,26,51,66,87,106,126,146,166,186,208,227,247,267,286,306,328,346,367,386,407,426,448,466,486,506,526,547,566,587,607,626,646,667,686,706,726,746,766,787,806,826,847,867,888,906,927,946,967,987,1006,1027,1047,1067,1088,1106,1126,1146,1166,1187,1206,1226,1247,1267,1286,1306,1326,1347,1366,1387,1406,1427,1447,1467,1487,1506,1527,1546,1567,1587,1606,1626,1646,1667,1687,1706,1728,1748,1768,1789,1808,1829],"xSR":741.5,"ySR":449.15000000000003,"xT1":424.9,"yT1":0,"xT2":1058.1,"yT2":0,"toosoon":0,"cond_shown":"equaldotsize","ratio_trial":750,"smaller_num":"3","larger_num":"4","correct_side":1,"subjID":"valeriecatalinamolanoosorio13","gender":"1","age":"11","school":"6"},{"start_time":1551801437144,"click_time":1551801438173,"finger_time":1551801437812,"fix_duration":250,"trial":50,"RT":668,"MT":361,"sideResp":1,"stimulus":"img/250/randomdotsizeEA/L/15_Ratio_250_L_12_R_3.png","xmouse":[775,775,775,775,775,775,775,775,775,775,773,769,769,769,769,769,769,769,769,769,769,769,769,769,769,769,769,769,771,772,778,783,785,793,796,798,799,799,798,791,779,740,700,678,658,637,601,587,571,554,538,508],"ymouse":[484,484,484,484,484,484,484,484,484,484,485,488,490,490,490,490,490,490,490,490,490,490,490,490,490,490,490,490,487,482,475,469,464,449,434,422,391,372,350,325,303,252,215,192,173,157,131,120,110,95,84,65],"timestamp_mouse":[8,34,48,69,88,109,128,149,168,188,209,228,249,268,288,309,329,348,368,389,409,429,449,469,488,508,529,548,569,589,609,629,649,668,689,709,728,749,769,788,809,828,848,869,889,908,929,948,969,988,1009,1029],"xSR":741.5,"ySR":449.15000000000003,"xT1":424.9,"yT1":0,"xT2":1058.1,"yT2":0,"toosoon":0,"cond_shown":"randomdotsizeEA","ratio_trial":250,"smaller_num":"3","larger_num":"12","correct_side":1,"subjID":"valeriecatalinamolanoosorio13","gender":"1","age":"11","school":"6"},{"start_time":1551801439384,"click_time":1551801440532,"finger_time":1551801440073,"fix_duration":270.9914070984518,"trial":51,"RT":689,"MT":459,"sideResp":1,"stimulus":"img/250/equaldotsize/L/14_Ratio_250_L_12_R_3.png","xmouse":[759,759,759,759,759,759,759,759,759,759,759,759,759,759,759,759,759,759,759,759,759,760,761,762,764,765,765,765,765,769,769,772,772,772,771,768,754,737,719,688,672,662,651,638,613,601,593,582,571,566,562,558,552,548,534,527,521,513],"ymouse":[522,522,522,522,522,522,522,522,522,522,522,522,522,522,522,522,522,522,522,522,522,522,522,522,521,521,521,521,519,509,506,493,483,472,448,433,407,380,358,315,294,280,267,250,219,207,196,186,173,167,162,155,148,143,124,115,106,95],"timestamp_mouse":[9,39,48,69,89,109,128,150,168,189,209,229,249,269,288,309,329,348,369,388,408,428,448,469,489,508,528,548,568,588,608,629,648,669,689,708,729,748,768,788,808,829,848,868,888,909,929,948,969,988,1008,1028,1049,1068,1088,1109,1128,1148],"xSR":741.5,"ySR":449.15000000000003,"xT1":424.9,"yT1":0,"xT2":1058.1,"yT2":0,"toosoon":0,"cond_shown":"equaldotsize","ratio_trial":250,"smaller_num":"3","larger_num":"12","correct_side":1,"subjID":"valeriecatalinamolanoosorio13","gender":"1","age":"11","school":"6"},{"start_time":1551801442371,"click_time":1551801444072,"finger_time":1551801443032,"fix_duration":1097.820383310341,"trial":52,"RT":661,"MT":1040,"sideResp":1,"stimulus":"img/750/equaldotsize/L/6_Ratio_750_L_24_R_18.png","xmouse":[786,786,786,786,786,786,786,786,786,786,786,786,786,786,786,786,786,786,786,786,786,786,786,787,788,794,797,801,805,808,812,813,817,819,824,827,828,833,840,846,855,860,867,874,889,894,899,901,901,903,902,900,889,878,836,807,784,761,743,723,662,600,560,521,496,475,475,474,474,471,468,467,467,467,467,467,467,467,467,467,467,470,471,472,475,478],"ymouse":[503,503,503,503,503,503,503,503,503,503,503,503,503,503,503,503,503,503,503,503,503,503,503,503,503,497,493,488,482,477,467,460,452,447,434,431,424,413,398,387,367,360,345,329,309,298,287,280,273,262,256,250,240,230,211,201,191,181,174,171,160,150,143,137,131,128,128,128,128,128,127,127,127,127,127,127,127,127,126,121,117,111,109,105,100,93],"timestamp_mouse":[8,21,41,61,82,101,121,142,162,181,201,221,241,262,281,302,321,343,361,381,401,421,442,462,481,502,522,541,561,581,602,621,641,661,682,701,722,741,761,783,802,822,841,861,882,901,921,942,962,982,1001,1021,1042,1061,1082,1101,1121,1142,1161,1181,1201,1221,1242,1262,1281,1301,1321,1341,1361,1381,1401,1422,1441,1461,1481,1501,1522,1541,1562,1583,1601,1621,1642,1662,1681,1701],"xSR":741.5,"ySR":449.15000000000003,"xT1":424.9,"yT1":0,"xT2":1058.1,"yT2":0,"toosoon":0,"cond_shown":"equaldotsize","ratio_trial":750,"smaller_num":"18","larger_num":"24","correct_side":1,"subjID":"valeriecatalinamolanoosorio13","gender":"1","age":"11","school":"6"},{"start_time":1551801445875,"click_time":1551801447453,"finger_time":1551801446532,"fix_duration":399.19313503745923,"trial":53,"RT":657,"MT":921,"sideResp":2,"stimulus":"img/750/randomdotsizeEA/R/4_Ratio_750_L_15_R_20.png","xmouse":[776,776,776,778,782,785,786,786,787,787,787,787,787,787,787,787,787,787,787,787,787,787,787,790,794,797,798,799,801,810,815,820,826,831,851,872,874,877,890,893,894,897,898,902,921,967,1007,1042,1066,1071,1077,1080,1084,1093,1099,1105,1112,1117,1122,1124,1125,1125,1126,1126,1126,1128,1129,1129,1129,1129,1129,1130,1130,1130,1131,1131,1128,1121,1117],"ymouse":[519,519,519,518,514,512,512,511,511,511,511,511,511,511,511,511,511,511,511,511,511,511,509,507,501,499,498,496,490,479,466,455,442,427,373,330,313,298,262,251,244,241,237,234,227,225,225,225,221,219,217,214,213,209,205,201,197,194,189,187,186,184,182,180,177,171,168,166,165,162,160,159,157,152,146,144,130,117,91],"timestamp_mouse":[17,42,57,78,97,118,137,157,177,198,217,237,257,278,297,318,338,357,378,397,418,437,458,477,497,518,538,558,578,598,618,637,657,677,697,717,737,757,778,797,818,838,859,877,897,917,937,957,978,997,1017,1037,1057,1078,1097,1117,1137,1157,1178,1197,1217,1238,1257,1278,1299,1318,1337,1357,1379,1397,1417,1437,1457,1479,1498,1518,1537,1557,1578],"xSR":741.5,"ySR":449.15000000000003,"xT1":424.9,"yT1":0,"xT2":1058.1,"yT2":0,"toosoon":0,"cond_shown":"randomdotsizeEA","ratio_trial":750,"smaller_num":"15","larger_num":"20","correct_side":2,"subjID":"valeriecatalinamolanoosorio13","gender":"1","age":"11","school":"6"},{"start_time":1551801450168,"click_time":1551801451712,"finger_time":1551801450912,"fix_duration":1335.4287943190614,"trial":54,"RT":744,"MT":800,"sideResp":1,"stimulus":"img/750/randomdotsizeEA/L/9_Ratio_750_L_4_R_3.png","xmouse":[794,794,794,794,794,794,794,794,794,794,794,794,794,794,794,794,794,794,794,794,794,794,794,794,794,794,794,795,796,800,805,806,810,812,823,831,841,852,862,897,909,917,923,927,929,934,935,935,935,935,935,935,934,930,922,917,913,907,898,885,830,799,754,730,712,683,668,652,630,568,517,505,478,467,463,458,455,453],"ymouse":[491,491,491,491,491,491,491,491,491,491,491,491,491,491,491,491,491,491,491,491,491,491,491,491,491,491,491,491,490,490,489,489,486,485,477,467,454,432,409,333,300,258,231,208,189,159,149,140,133,128,117,115,110,106,99,99,98,98,101,106,131,145,162,176,183,188,189,189,189,168,144,139,128,121,117,107,100,88],"timestamp_mouse":[11,33,44,64,84,104,124,144,165,184,204,225,245,265,284,304,324,344,364,384,404,426,444,464,484,506,525,544,565,584,604,624,644,664,685,705,724,744,765,785,804,824,844,864,884,904,924,944,965,985,1004,1024,1045,1064,1085,1104,1124,1145,1164,1185,1204,1225,1244,1264,1284,1305,1325,1345,1364,1385,1404,1424,1444,1465,1484,1504,1524,1544],"xSR":741.5,"ySR":449.15000000000003,"xT1":424.9,"yT1":0,"xT2":1058.1,"yT2":0,"toosoon":0,"cond_shown":"randomdotsizeEA","ratio_trial":750,"smaller_num":"3","larger_num":"4","correct_side":1,"subjID":"valeriecatalinamolanoosorio13","gender":"1","age":"11","school":"6"},{"start_time":1551801453534,"click_time":1551801454653,"finger_time":1551801454132,"fix_duration":438.72140522008175,"trial":55,"RT":598,"MT":521,"sideResp":1,"stimulus":"img/250/equaldotanddens/L/7_Ratio_250_L_8_R_2.png","xmouse":[799,799,799,799,799,799,799,799,799,799,799,799,799,799,799,799,799,799,799,799,799,800,800,800,800,800,800,800,800,798,796,791,779,772,759,749,718,705,692,682,674,668,653,642,635,626,607,598,589,582,577,571,554,551,544,536,511],"ymouse":[525,525,525,525,525,525,525,525,525,525,525,525,525,525,525,525,525,525,525,523,522,516,510,508,504,500,495,487,478,464,444,424,393,377,347,324,283,264,248,236,226,216,197,184,176,170,155,149,143,137,133,129,116,113,106,99,78],"timestamp_mouse":[1,19,39,59,78,98,119,138,159,178,199,219,238,258,279,298,318,338,359,379,399,419,438,458,478,498,518,539,559,579,598,618,638,658,678,698,719,738,759,779,798,818,838,858,880,898,919,938,960,979,999,1018,1038,1058,1078,1098,1119],"xSR":741.5,"ySR":449.15000000000003,"xT1":424.9,"yT1":0,"xT2":1058.1,"yT2":0,"toosoon":0,"cond_shown":"equaldotanddens","ratio_trial":250,"smaller_num":"2","larger_num":"8","correct_side":1,"subjID":"valeriecatalinamolanoosorio13","gender":"1","age":"11","school":"6"},{"start_time":1551801456569,"click_time":1551801461692,"finger_time":1551801457332,"fix_duration":813.3289467863476,"trial":56,"RT":763,"MT":4360,"sideResp":2,"stimulus":"img/750/equaldotanddens/R/12_Ratio_750_L_3_R_4.png","xmouse":[828,828,828,828,828,828,828,828,828,828,828,828,828,828,828,828,828,828,828,828,828,828,828,828,828,828,828,828,828,828,828,828,828,828,831,834,838,840,843,850,852,857,861,865,877,881,887,892,899,902,912,920,923,924,926,929,931,934,936,941,944,949,950,952,954,960,964,968,973,979,988,992,994,995,997,998,1000,1001,1002,1003,1005,1007,1009,1010,1011,1014,1023,1046,1078,1113,1183,1213,1223,1233,1246,1278,1292,1303,1311,1317,1318,1320,1320,1320,1320,1320,1320,1317,1306,1286,1247,1231,1216,1206,1184,1174,1165,1158,1153,1148,1142,1138,1134,1129,1125,1118,1114,1110,1108,1106,1105,1105,1104,1104,1104,1104,1104,1104,1104,1104,1104,1104,1104,1104,1104,1104,1104,1104,1104,1104,1104,1104,1104,1104,1104,1104,1104,1104,1104,1104,1104,1104,1104,1104,1104,1104,1104,1104,1104,1104,1104,1104,1104,1104,1104,1104,1103,1103,1101,1101,1101,1101,1100,1100,1100,1100,1100,1100,1100,1100,1100,1100,1100,1100,1100,1100,1100,1100,1100,1100,1100,1100,1100,1100,1100,1100,1100,1100,1100,1100,1100,1100,1100,1100,1100,1100,1100,1100,1100,1100,1100,1100,1100,1100,1100,1100,1100,1099,1099,1098,1098,1098,1098,1098,1098,1098,1098,1098,1098,1098,1098,1098,1098,1098,1098,1098,1098,1098,1098,1098,1098,1098,1098,1099,1103,1104,1105],"ymouse":[495,495,495,495,495,495,495,495,495,495,495,495,495,495,495,495,495,495,495,495,495,495,495,495,495,495,495,495,495,495,495,493,488,484,477,473,469,467,462,455,452,445,440,434,419,412,403,390,377,365,339,320,309,297,286,269,262,256,251,240,235,230,226,224,222,216,213,209,204,201,194,191,190,189,186,186,185,185,184,183,181,180,180,178,177,175,174,174,174,174,175,175,175,175,173,168,166,163,162,159,158,157,157,157,157,157,155,153,149,143,138,133,127,122,114,111,110,109,109,107,106,106,105,105,104,102,102,101,101,100,100,100,100,100,100,100,100,100,100,100,100,100,100,100,100,100,100,100,100,100,100,100,100,100,100,100,100,100,100,100,100,100,100,100,100,100,100,100,100,100,100,100,100,100,100,100,100,100,100,100,100,100,100,100,100,100,100,100,100,100,100,100,100,100,100,100,100,100,100,100,100,100,100,100,100,100,100,100,100,100,100,100,100,100,100,100,100,100,100,100,100,100,100,100,100,100,100,100,100,100,100,100,100,100,100,100,100,100,100,100,100,100,100,100,100,100,100,100,100,100,100,100,100,100,100,100,99],"timestamp_mouse":[10,33,43,65,85,103,123,143,165,184,203,223,245,264,284,304,324,343,364,384,405,424,443,464,484,503,523,544,564,583,603,623,644,664,684,703,723,745,763,784,803,823,843,863,885,903,924,943,964,983,1003,1023,1043,1063,1085,1103,1123,1143,1163,1185,1203,1223,1244,1264,1283,1303,1324,1344,1363,1384,1403,1424,1443,1463,1484,1503,1523,1543,1563,1585,1605,1623,1643,1663,1683,1704,1723,1744,1763,1784,1803,1823,1843,1863,1885,1903,1924,1943,1963,1984,2003,2023,2044,2064,2084,2103,2124,2144,2163,2183,2203,2223,2243,2264,2284,2303,2324,2343,2364,2384,2403,2424,2443,2463,2483,2504,2523,2543,2563,2583,2603,2623,2643,2664,2685,2703,2723,2744,2764,2783,2803,2823,2844,2863,2884,2904,2923,2944,2963,2983,3004,3023,3043,3064,3083,3104,3124,3144,3163,3183,3203,3224,3243,3263,3283,3304,3324,3344,3364,3384,3403,3423,3443,3463,3484,3504,3523,3543,3563,3584,3604,3623,3643,3663,3684,3704,3724,3743,3763,3784,3803,3824,3844,3864,3883,3903,3923,3944,3963,3985,4003,4023,4043,4064,4083,4103,4124,4144,4163,4183,4204,4224,4243,4263,4284,4304,4323,4344,4364,4383,4404,4423,4444,4464,4484,4503,4523,4544,4563,4584,4604,4624,4643,4664,4684,4703,4724,4743,4763,4784,4803,4824,4844,4863,4883,4903,4924,4943,4963,4984,5003,5023,5044,5063,5086,5103,5123],"xSR":741.5,"ySR":449.15000000000003,"xT1":424.9,"yT1":0,"xT2":1058.1,"yT2":0,"toosoon":0,"cond_shown":"equaldotanddens","ratio_trial":750,"smaller_num":"3","larger_num":"4","correct_side":2,"subjID":"valeriecatalinamolanoosorio13","gender":"1","age":"11","school":"6"},{"start_time":1551801465371,"click_time":1551801466393,"finger_time":1551801465993,"fix_duration":576.8184603923129,"trial":57,"RT":622,"MT":400,"sideResp":1,"stimulus":"img/250/equaldotsize/L/1_Ratio_250_L_8_R_2.png","xmouse":[795,795,795,795,795,795,795,795,795,795,795,795,795,795,795,795,795,795,795,795,795,795,795,795,796,798,799,801,805,811,826,836,843,843,835,789,763,733,706,666,655,641,635,629,620,614,612,608,603,581,562,515],"ymouse":[500,500,500,500,500,500,500,500,500,500,500,500,500,500,500,500,500,500,500,500,500,500,500,500,500,499,498,496,494,486,457,426,375,345,310,233,198,168,139,99,85,69,61,56,48,45,44,43,41,41,41,44],"timestamp_mouse":[9,31,41,61,81,101,122,142,163,181,201,221,241,262,281,301,322,341,362,382,401,421,441,462,481,501,521,541,561,582,601,622,641,661,681,701,721,741,761,782,801,821,842,862,883,901,921,941,962,983,1001,1022],"xSR":741.5,"ySR":449.15000000000003,"xT1":424.9,"yT1":0,"xT2":1058.1,"yT2":0,"toosoon":0,"cond_shown":"equaldotsize","ratio_trial":250,"smaller_num":"2","larger_num":"8","correct_side":1,"subjID":"valeriecatalinamolanoosorio13","gender":"1","age":"11","school":"6"},{"start_time":1551801468395,"click_time":1551801469913,"finger_time":1551801468993,"fix_duration":681.3704275733038,"trial":58,"RT":598,"MT":920,"sideResp":1,"stimulus":"img/250/randomdotsizeEA/L/5_Ratio_250_L_24_R_6.png","xmouse":[795,795,795,795,795,795,795,795,795,795,795,795,795,795,795,795,795,795,795,796,797,799,801,803,805,808,812,822,833,837,845,850,856,864,868,873,877,882,887,892,893,896,901,904,907,909,912,914,914,913,909,903,883,871,853,835,818,777,753,718,692,666,643,607,589,573,562,553,544,543,541,538,536,530,528,524],"ymouse":[511,510,510,510,510,510,509,509,509,509,509,509,509,509,509,509,509,509,509,508,506,505,500,498,495,492,488,471,454,447,428,415,404,382,372,363,352,343,327,318,312,305,293,287,282,279,273,266,261,256,251,245,231,221,210,203,192,173,163,147,135,123,114,99,92,85,80,77,73,73,73,73,73,72,72,72],"timestamp_mouse":[17,39,58,77,97,117,138,158,178,198,218,237,257,278,298,317,337,357,377,397,418,438,458,477,497,517,537,558,577,598,617,637,658,677,697,717,739,757,777,797,817,837,859,877,897,917,938,959,977,997,1017,1037,1058,1077,1098,1117,1138,1159,1177,1198,1218,1237,1257,1277,1297,1318,1337,1358,1377,1397,1417,1437,1457,1477,1497,1518],"xSR":741.5,"ySR":449.15000000000003,"xT1":424.9,"yT1":0,"xT2":1058.1,"yT2":0,"toosoon":0,"cond_shown":"randomdotsizeEA","ratio_trial":250,"smaller_num":"6","larger_num":"24","correct_side":1,"subjID":"valeriecatalinamolanoosorio13","gender":"1","age":"11","school":"6"},{"start_time":1551801471864,"click_time":1551801474672,"finger_time":1551801474214,"fix_duration":250,"trial":59,"RT":2350,"MT":458,"sideResp":2,"stimulus":"img/750/equaldotanddens/L/9_Ratio_750_L_4_R_3.png","xmouse":[816,816,816,816,816,816,816,816,816,816,816,816,816,816,816,816,816,816,816,816,816,816,816,816,816,819,820,821,821,821,821,821,821,821,823,826,830,830,830,830,830,830,830,830,830,830,830,830,830,830,830,830,830,830,830,830,830,830,830,830,830,830,830,830,830,829,829,829,829,829,829,829,828,826,826,824,824,824,824,824,824,824,824,824,823,823,823,823,823,823,823,822,820,818,814,812,809,808,808,808,807,807,806,806,806,806,806,806,806,806,806,806,806,806,806,806,806,813,823,847,862,877,894,911,926,950,968,979,991,999,1011,1020,1029,1036,1042,1048,1051,1052,1054,1055,1060],"ymouse":[488,488,488,488,488,488,488,488,488,488,488,488,488,488,488,488,488,488,488,488,488,488,488,488,488,488,488,488,488,488,488,488,488,488,488,487,485,485,485,485,485,485,485,485,485,485,485,485,485,485,485,485,485,485,485,485,485,485,485,485,485,485,485,484,483,482,480,480,480,480,480,480,480,480,480,480,480,480,480,480,480,480,480,480,480,480,480,480,480,480,480,478,478,478,476,476,475,475,475,475,475,475,475,474,474,474,474,474,474,474,474,474,474,474,473,468,461,446,422,365,334,300,266,230,196,139,103,87,73,64,47,41,34,29,25,20,19,18,18,16,16],"timestamp_mouse":[8,39,48,69,88,109,128,148,168,189,209,228,249,269,288,308,328,348,368,389,409,429,450,469,489,508,529,548,568,588,608,628,649,668,688,708,729,749,768,788,808,828,848,868,889,908,928,949,969,988,1009,1028,1048,1069,1088,1109,1128,1149,1168,1189,1208,1229,1249,1268,1289,1308,1329,1348,1368,1389,1408,1428,1448,1470,1488,1509,1530,1549,1569,1589,1609,1628,1648,1670,1689,1709,1728,1750,1770,1789,1809,1829,1849,1869,1889,1908,1928,1948,1969,1988,2009,2028,2049,2068,2089,2109,2130,2149,2169,2188,2208,2228,2249,2269,2288,2308,2328,2350,2368,2389,2408,2428,2449,2470,2488,2508,2528,2548,2568,2590,2608,2628,2648,2670,2688,2708,2728,2749,2769,2788,2808],"xSR":741.5,"ySR":449.15000000000003,"xT1":424.9,"yT1":0,"xT2":1058.1,"yT2":0,"toosoon":0,"cond_shown":"equaldotanddens","ratio_trial":750,"smaller_num":"3","larger_num":"4","correct_side":1,"subjID":"valeriecatalinamolanoosorio13","gender":"1","age":"11","school":"6"},{"start_time":1551801477259,"click_time":1551801478232,"finger_time":1551801477753,"fix_duration":1244.8120825076062,"trial":60,"RT":494,"MT":479,"sideResp":2,"stimulus":"img/750/randomdotsizeEA/R/11_Ratio_750_L_12_R_16.png","xmouse":[798,798,798,798,798,798,798,798,798,798,798,798,798,798,799,799,800,800,801,801,803,803,804,806,810,812,815,817,817,817,817,817,817,817,821,840,864,885,900,920,961,977,996,1013,1024,1044,1056,1064,1068],"ymouse":[464,464,464,464,464,464,464,464,464,464,464,464,464,464,464,463,462,461,461,461,460,459,456,454,448,444,438,433,426,409,398,388,380,371,357,308,274,249,228,208,177,164,151,140,130,116,106,101,97],"timestamp_mouse":[13,34,59,75,94,114,133,153,174,193,214,233,254,274,294,313,333,354,374,394,413,434,454,474,494,513,533,553,573,595,614,634,653,674,693,713,734,753,773,793,813,834,854,873,893,913,933,954,973],"xSR":741.5,"ySR":449.15000000000003,"xT1":424.9,"yT1":0,"xT2":1058.1,"yT2":0,"toosoon":0,"cond_shown":"randomdotsizeEA","ratio_trial":750,"smaller_num":"12","larger_num":"16","correct_side":2,"subjID":"valeriecatalinamolanoosorio13","gender":"1","age":"11","school":"6"},{"start_time":1551801481174,"click_time":1551801482293,"finger_time":1551801481753,"fix_duration":460.36018402897105,"trial":61,"RT":579,"MT":540,"sideResp":1,"stimulus":"img/500/equaldotsize/L/7_Ratio_500_L_10_R_5.png","xmouse":[824,824,824,824,824,824,824,824,824,824,824,824,824,824,824,824,824,824,824,824,824,824,824,824,824,824,824,824,824,822,819,810,803,793,756,733,708,681,644,628,609,600,594,585,583,579,574,566,559,549,545,542,539,534,527,524],"ymouse":[473,473,473,473,473,473,473,473,473,473,473,473,473,473,473,473,473,475,476,476,476,476,476,476,474,470,461,451,440,420,405,381,363,337,284,259,234,209,175,160,144,137,132,123,121,118,114,110,105,97,95,94,93,91,88,86],"timestamp_mouse":[33,38,59,78,98,120,138,158,179,198,218,239,259,279,298,318,338,359,379,398,418,438,458,478,498,518,538,559,579,598,618,638,659,678,698,719,739,758,780,798,818,838,858,880,898,918,939,958,978,998,1018,1038,1058,1079,1098,1119],"xSR":741.5,"ySR":449.15000000000003,"xT1":424.9,"yT1":0,"xT2":1058.1,"yT2":0,"toosoon":0,"cond_shown":"equaldotsize","ratio_trial":500,"smaller_num":"5","larger_num":"10","correct_side":1,"subjID":"valeriecatalinamolanoosorio13","gender":"1","age":"11","school":"6"},{"start_time":1551801483841,"click_time":1551801485113,"finger_time":1551801484753,"fix_duration":487.27856070907075,"trial":62,"RT":912,"MT":360,"sideResp":2,"stimulus":"img/750/randomdotsizeEA/R/7_Ratio_750_L_3_R_4.png","xmouse":[763,763,763,763,765,766,767,767,767,767,767,767,767,767,767,767,767,767,767,767,767,767,767,767,767,767,767,767,767,767,767,768,768,768,769,769,770,771,773,773,773,775,777,778,781,798,809,832,847,866,900,915,936,954,979,996,1026,1040,1056,1066,1079,1083,1086,1089],"ymouse":[497,497,497,497,497,497,495,495,495,495,495,495,495,495,495,495,495,495,495,495,495,495,495,495,495,495,495,495,495,495,495,495,495,495,495,494,493,492,492,491,490,485,484,480,470,445,429,398,379,352,303,284,260,236,211,191,162,152,137,126,110,105,101,97],"timestamp_mouse":[11,36,52,72,91,111,131,151,173,192,211,232,252,271,292,311,331,351,372,391,411,431,451,472,491,511,531,552,571,591,612,631,651,671,691,712,731,752,771,791,811,831,852,872,892,912,931,952,971,991,1012,1031,1051,1071,1092,1112,1132,1151,1171,1191,1212,1231,1252,1272],"xSR":741.5,"ySR":449.15000000000003,"xT1":424.9,"yT1":0,"xT2":1058.1,"yT2":0,"toosoon":0,"cond_shown":"randomdotsizeEA","ratio_trial":750,"smaller_num":"3","larger_num":"4","correct_side":2,"subjID":"valeriecatalinamolanoosorio13","gender":"1","age":"11","school":"6"},{"start_time":1551801486760,"click_time":1551801490172,"finger_time":1551801487533,"fix_duration":646.7021321171961,"trial":63,"RT":773,"MT":2639,"sideResp":1,"stimulus":"img/250/randomdotsizeEA/L/14_Ratio_250_L_12_R_3.png","xmouse":[792,792,792,792,792,792,792,792,792,792,792,792,792,792,792,792,792,792,792,792,792,792,792,792,792,792,792,792,792,792,792,792,792,792,792,792,792,799,812,816,817,802,788,774,740,727,719,712,707,703,693,683,677,670,666,655,648,642,632,614