[{"start_time":1551800568830,"click_time":1551800572343,"finger_time":1551800571821,"fix_duration":645.8837036198202,"trial":0,"RT":2991,"MT":522,"sideResp":1,"stimulus":[],"xmouse":[794,794,794,794,794,794,794,794,794,794,794,794,794,794,794,794,794,794,794,794,794,794,794,794,794,794,794,794,794,794,794,794,794,794,794,794,794,794,794,794,794,794,794,794,794,794,794,794,794,794,794,794,794,794,794,794,794,794,794,794,794,794,794,794,794,794,794,794,794,794,794,794,794,794,794,794,794,794,794,794,794,794,794,794,794,794,794,794,794,794,794,797,798,798,798,798,798,798,798,798,798,798,798,798,797,796,795,794,791,791,790,790,789,789,789,789,789,789,789,789,789,789,789,789,789,789,789,789,789,789,789,789,789,789,789,789,789,789,789,789,789,788,788,786,783,779,775,770,757,748,737,724,705,674,657,645,638,628,596,582,571,566,561,558,555,551,548,545,540,539,536,534,530,525,519],"ymouse":[525,525,525,525,525,525,525,525,525,525,525,525,525,525,525,525,525,525,525,525,525,525,525,525,525,525,525,525,525,525,525,525,525,525,525,525,525,525,525,525,525,525,525,525,525,525,525,525,525,525,525,525,525,525,525,525,525,525,525,525,525,525,525,525,525,525,525,525,525,525,525,525,525,525,525,525,525,525,525,525,525,525,525,525,525,525,525,525,524,516,511,506,499,490,488,487,487,487,487,487,487,487,487,487,487,487,487,488,489,489,492,493,494,495,495,496,497,499,501,502,503,505,507,509,510,510,510,511,511,512,513,513,513,513,513,513,513,513,513,513,513,514,514,514,510,504,500,495,474,465,448,429,403,342,313,290,267,246,182,158,137,121,111,92,83,76,68,61,54,51,51,51,51,52,54],"timestamp_mouse":[11,51,72,90,112,132,150,172,192,211,231,251,271,290,312,331,351,371,392,412,432,450,470,492,510,531,551,570,591,612,630,652,672,692,711,732,751,772,792,810,831,852,872,891,911,932,951,972,990,1011,1031,1052,1071,1090,1112,1131,1151,1171,1192,1210,1230,1252,1271,1290,1311,1331,1352,1370,1390,1412,1430,1450,1472,1490,1511,1531,1552,1572,1590,1612,1630,1652,1670,1691,1711,1732,1752,1771,1790,1810,1831,1851,1872,1891,1912,1930,1951,1971,1990,2012,2032,2052,2071,2092,2111,2132,2151,2171,2191,2211,2230,2251,2271,2290,2311,2331,2350,2371,2391,2410,2431,2451,2471,2491,2511,2530,2551,2571,2591,2611,2630,2651,2670,2691,2711,2732,2750,2771,2790,2812,2830,2851,2871,2891,2910,2931,2952,2971,2991,3010,3031,3051,3072,3091,3111,3131,3151,3170,3191,3211,3231,3250,3271,3291,3312,3330,3352,3371,3391,3411,3431,3452,3472,3491,3512],"xSR":741.5,"ySR":481,"xT1":424.9,"yT1":0,"xT2":1058.1,"yT2":0,"toosoon":0,"cond_shown":"Congruent","ratio_trial":200,"L_num":3,"L_den":10,"R_num":11,"R_den":22,"correct_side":2,"subjID":"ValerieCatalinaMolanoOsorio13","gender":"1","age":"11","school":"cafam","test":{"fix_dur":[250,1500],"timestim":1000,"targets_dim":[100,100],"targets_relative_coord":[0.3,0.7],"size_stim":[880,420],"start_dim":[100,100],"size_start":[300,300],"size_fix":60,"samplingrate":20,"img_types":["Congruent","Incongruent"],"ratios":[100,200,300],"rep_conds":19,"nTrials":120,"trials_to_rest":500,"Trials_order":[20,48,55,71,6,92,21,64,100,62,57,112,1,85,67,31,18,17,106,115,103,65,30,61,66,87,72,97,94,27,74,102,116,73,82,107,58,83,0,117,89,28,59,49,45,44,118,7,54,15,50,4,80,81,98,76,51,84,5,37,77,10,3,39,93,42,91,78,43,34,12,104,101,26,32,60,9,25,70,111,96,88,38,40,109,105,63,108,75,110,47,13,36,41,8,11,2,46,86,23,53,56,22,79,16,35,68,29,19,14,113,95,69,114,119,99,24,52,90,33],"cond_shown":["Congruent","Congruent","Incongruent","Incongruent","Congruent","Congruent","Incongruent","Congruent","Congruent","Congruent","Incongruent","Congruent","Incongruent","Incongruent","Incongruent","Incongruent","Congruent","Incongruent","Congruent","Incongruent","Incongruent","Incongruent","Congruent","Incongruent","Congruent","Incongruent","Congruent","Incongruent","Congruent","Incongruent","Congruent","Congruent","Congruent","Incongruent","Congruent","Incongruent","Congruent","Incongruent","Congruent","Incongruent","Incongruent","Congruent","Incongruent","Incongruent","Incongruent","Congruent","Congruent","Incongruent","Congruent","Incongruent","Congruent","Congruent","Congruent","Incongruent","Congruent","Congruent","Incongruent","Congruent","Incongruent","Incongruent","Incongruent","Congruent","Incongruent","Incongruent","Incongruent","Congruent","Incongruent","Congruent","Incongruent","Congruent","Congruent","Congruent","Incongruent","Congruent","Congruent","Congruent","Incongruent","Incongruent","Congruent","Incongruent","Congruent","Congruent","Congruent","Congruent","Incongruent","Incongruent","Incongruent","Congruent","Incongruent","Congruent","Incongruent","Incongruent","Congruent","Incongruent","Congruent","Incongruent","Congruent","Congruent","Congruent","Incongruent","Incongruent","Congruent","Congruent","Incongruent","Congruent","Incongruent","Congruent","Incongruent","Incongruent","Congruent","Incongruent","Incongruent","Incongruent","Congruent","Incongruent","Incongruent","Congruent","Congruent","Congruent","Incongruent"],"ratio_trial":[200,100,100,300,100,200,200,300,300,200,200,300,100,100,100,100,100,300,300,100,100,300,100,100,100,200,100,100,300,200,200,100,200,100,300,300,300,300,100,200,300,300,300,100,200,200,300,100,100,200,200,300,200,200,200,300,200,100,300,100,300,300,200,200,200,100,100,100,100,300,100,200,300,200,200,100,200,100,300,200,100,300,200,300,100,200,200,100,200,200,300,100,100,300,200,300,200,300,200,300,300,200,300,100,300,300,200,300,100,200,300,300,200,100,300,200,100,300,100,200],"left_num":[3,2,9,13,2,3,7,9,11,5,3,8,13,9,13,8,7,3,2,6,9,13,11,1,15,7,10,6,4,3,3,10,3,3,4,8,7,4,1,3,13,2,13,10,4,8,20,6,12,3,14,24,12,7,13,1,7,2,1,3,7,4,4,9,3,8,4,9,6,1,15,3,4,8,3,10,4,9,1,3,8,11,6,1,2,7,4,8,4,3,13,2,7,7,3,4,8,24,16,4,13,3,11,11,5,2,3,8,8,3,4,2,7,7,4,3,7,9,1,7],"right_num":[11,11,14,12,11,11,8,3,1,14,11,10,12,14,6,1,15,4,12,3,20,12,6,8,13,6,3,13,1,11,9,3,11,7,13,9,20,6,18,11,12,12,12,8,14,2,9,7,13,1,6,8,6,6,14,6,12,11,3,8,8,13,1,8,11,2,8,8,13,7,13,11,2,7,14,3,14,14,7,11,2,2,7,11,6,4,14,2,6,9,12,6,15,8,14,2,2,2,12,2,12,9,2,9,7,6,14,14,6,14,8,6,14,9,6,1,9,3,3,6],"left_den":[10,5,15,26,5,10,10,10,22,10,4,15,26,15,26,20,14,6,10,12,10,26,22,2,25,15,25,10,10,4,12,25,10,9,20,10,14,5,2,4,26,10,26,25,6,15,25,10,30,10,28,30,20,15,26,5,10,5,2,5,10,20,30,15,4,16,8,15,10,20,25,10,20,15,6,25,6,15,20,4,16,22,12,5,4,15,6,16,5,12,26,4,14,10,6,20,15,30,20,20,26,12,22,22,25,4,6,10,16,6,5,4,10,14,5,10,14,10,2,15],"right_den":[22,22,28,15,22,22,16,5,5,20,20,12,20,28,10,2,25,20,24,5,25,15,15,20,26,9,10,26,10,20,20,10,22,30,26,18,25,12,30,20,15,24,15,16,30,6,18,14,26,2,20,16,15,9,20,12,24,22,15,16,20,26,3,10,20,5,20,16,26,20,26,22,4,21,20,10,30,28,20,20,5,10,10,22,15,6,30,5,10,20,15,15,25,20,20,4,6,4,20,4,15,20,10,15,14,30,20,28,10,20,16,30,28,15,12,2,15,5,5,9],"correct_side":[2,2,1,2,2,2,1,1,1,2,1,2,2,1,2,2,2,1,2,2,1,2,1,1,1,2,1,1,1,1,2,1,2,1,2,1,2,1,2,1,2,2,2,2,1,1,1,1,2,2,1,1,1,2,2,2,1,2,1,1,1,2,2,2,1,1,1,1,1,2,1,2,2,1,2,1,1,1,2,1,1,1,2,2,1,2,1,1,1,2,2,1,2,1,2,2,1,1,1,2,2,2,1,2,2,1,2,1,2,2,1,1,1,2,1,2,2,1,2,2],"img_shown":["img2/200/Congruent/R/C_Dist_200_LN_3_LD_10_RN_11_RD_22_1.png","img2/100/Congruent/R/C_Dist_100_LN_2_LD_5_RN_11_RD_22_1.png","img2/100/Incongruent/L/I_Dist_100_LN_9_LD_15_RN_14_RD_28_0.png","img2/300/Incongruent/R/I_Dist_300_LN_13_LD_26_RN_12_RD_15_1.png","img2/100/Congruent/R/C_Dist_100_LN_2_LD_5_RN_11_RD_22_1.png","img2/200/Congruent/R/C_Dist_200_LN_3_LD_10_RN_11_RD_22_1.png","img2/200/Incongruent/L/I_Dist_200_LN_7_LD_10_RN_8_RD_16_0.png","img2/300/Congruent/L/C_Dist_300_LN_9_LD_10_RN_3_RD_5_0.png","img2/300/Congruent/L/C_Dist_300_LN_11_LD_22_RN_1_RD_5_0.png","img2/200/Congruent/R/C_Dist_200_LN_5_LD_10_RN_14_RD_20_1.png","img2/200/Incongruent/L/I_Dist_200_LN_3_LD_4_RN_11_RD_20_0.png","img2/300/Congruent/R/C_Dist_300_LN_8_LD_15_RN_10_RD_12_1.png","img2/100/Incongruent/R/I_Dist_100_LN_13_LD_26_RN_12_RD_20_1.png","img2/100/Incongruent/L/I_Dist_100_LN_9_LD_15_RN_14_RD_28_0.png","img2/100/Incongruent/R/I_Dist_100_LN_13_LD_26_RN_6_RD_10_1.png","img2/100/Incongruent/R/I_Dist_100_LN_8_LD_20_RN_1_RD_2_1.png","img2/100/Congruent/R/C_Dist_100_LN_7_LD_14_RN_15_RD_25_1.png","img2/300/Incongruent/L/I_Dist_300_LN_3_LD_6_RN_4_RD_20_0.png","img2/300/Congruent/R/C_Dist_300_LN_2_LD_10_RN_12_RD_24_1.png","img2/100/Incongruent/R/I_Dist_100_LN_6_LD_12_RN_3_RD_5_1.png","img2/100/Incongruent/L/I_Dist_100_LN_9_LD_10_RN_20_RD_25_0.png","img2/300/Incongruent/R/I_Dist_300_LN_13_LD_26_RN_12_RD_15_1.png","img2/100/Congruent/L/C_Dist_100_LN_11_LD_22_RN_6_RD_15_0.png","img2/100/Incongruent/L/I_Dist_100_LN_1_LD_2_RN_8_RD_20_0.png","img2/100/Congruent/L/C_Dist_100_LN_15_LD_25_RN_13_RD_26_0.png","img2/200/Incongruent/R/I_Dist_200_LN_7_LD_15_RN_6_RD_9_1.png","img2/100/Congruent/L/C_Dist_100_LN_10_LD_25_RN_3_RD_10_0.png","img2/100/Incongruent/L/I_Dist_100_LN_6_LD_10_RN_13_RD_26_0.png","img2/300/Congruent/L/C_Dist_300_LN_4_LD_10_RN_1_RD_10_0.png","img2/200/Incongruent/L/I_Dist_200_LN_3_LD_4_RN_11_RD_20_0.png","img2/200/Congruent/R/C_Dist_200_LN_3_LD_12_RN_9_RD_20_1.png","img2/100/Congruent/L/C_Dist_100_LN_10_LD_25_RN_3_RD_10_0.png","img2/200/Congruent/R/C_Dist_200_LN_3_LD_10_RN_11_RD_22_1.png","img2/100/Incongruent/L/I_Dist_100_LN_3_LD_9_RN_7_RD_30_0.png","img2/300/Congruent/R/C_Dist_300_LN_4_LD_20_RN_13_RD_26_1.png","img2/300/Incongruent/L/I_Dist_300_LN_8_LD_10_RN_9_RD_18_0.png","img2/300/Congruent/R/C_Dist_300_LN_7_LD_14_RN_20_RD_25_1.png","img2/300/Incongruent/L/I_Dist_300_LN_4_LD_5_RN_6_RD_12_0.png","img2/100/Congruent/R/C_Dist_100_LN_1_LD_2_RN_18_RD_30_1.png","img2/200/Incongruent/L/I_Dist_200_LN_3_LD_4_RN_11_RD_20_0.png","img2/300/Incongruent/R/I_Dist_300_LN_13_LD_26_RN_12_RD_15_1.png","img2/300/Congruent/R/C_Dist_300_LN_2_LD_10_RN_12_RD_24_1.png","img2/300/Incongruent/R/I_Dist_300_LN_13_LD_26_RN_12_RD_15_1.png","img2/100/Incongruent/R/I_Dist_100_LN_10_LD_25_RN_8_RD_16_1.png","img2/200/Incongruent/L/I_Dist_200_LN_4_LD_6_RN_14_RD_30_0.png","img2/200/Congruent/L/C_Dist_200_LN_8_LD_15_RN_2_RD_6_0.png","img2/300/Congruent/L/C_Dist_300_LN_20_LD_25_RN_9_RD_18_0.png","img2/100/Incongruent/L/I_Dist_100_LN_6_LD_10_RN_7_RD_14_0.png","img2/100/Congruent/R/C_Dist_100_LN_12_LD_30_RN_13_RD_26_1.png","img2/200/Incongruent/R/I_Dist_200_LN_3_LD_10_RN_1_RD_2_1.png","img2/200/Congruent/L/C_Dist_200_LN_14_LD_28_RN_6_RD_20_0.png","img2/300/Congruent/L/C_Dist_300_LN_24_LD_30_RN_8_RD_16_0.png","img2/200/Congruent/L/C_Dist_200_LN_12_LD_20_RN_6_RD_15_0.png","img2/200/Incongruent/R/I_Dist_200_LN_7_LD_15_RN_6_RD_9_1.png","img2/200/Congruent/R/C_Dist_200_LN_13_LD_26_RN_14_RD_20_1.png","img2/300/Congruent/R/C_Dist_300_LN_1_LD_5_RN_6_RD_12_1.png","img2/200/Incongruent/L/I_Dist_200_LN_7_LD_10_RN_12_RD_24_0.png","img2/100/Congruent/R/C_Dist_100_LN_2_LD_5_RN_11_RD_22_1.png","img2/300/Incongruent/L/I_Dist_300_LN_1_LD_2_RN_3_RD_15_0.png","img2/100/Incongruent/L/I_Dist_100_LN_3_LD_5_RN_8_RD_16_0.png","img2/300/Incongruent/L/I_Dist_300_LN_7_LD_10_RN_8_RD_20_0.png","img2/300/Congruent/R/C_Dist_300_LN_4_LD_20_RN_13_RD_26_1.png","img2/200/Incongruent/R/I_Dist_200_LN_4_LD_30_RN_1_RD_3_1.png","img2/200/Incongruent/R/I_Dist_200_LN_9_LD_15_RN_8_RD_10_1.png","img2/200/Incongruent/L/I_Dist_200_LN_3_LD_4_RN_11_RD_20_0.png","img2/100/Congruent/L/C_Dist_100_LN_8_LD_16_RN_2_RD_5_0.png","img2/100/Incongruent/L/I_Dist_100_LN_4_LD_8_RN_8_RD_20_0.png","img2/100/Congruent/L/C_Dist_100_LN_9_LD_15_RN_8_RD_16_0.png","img2/100/Incongruent/L/I_Dist_100_LN_6_LD_10_RN_13_RD_26_0.png","img2/300/Congruent/R/C_Dist_300_LN_1_LD_20_RN_7_RD_20_1.png","img2/100/Congruent/L/C_Dist_100_LN_15_LD_25_RN_13_RD_26_0.png","img2/200/Congruent/R/C_Dist_200_LN_3_LD_10_RN_11_RD_22_1.png","img2/300/Incongruent/R/I_Dist_300_LN_4_LD_20_RN_2_RD_4_1.png","img2/200/Congruent/L/C_Dist_200_LN_8_LD_15_RN_7_RD_21_0.png","img2/200/Congruent/R/C_Dist_200_LN_3_LD_6_RN_14_RD_20_1.png","img2/100/Congruent/L/C_Dist_100_LN_10_LD_25_RN_3_RD_10_0.png","img2/200/Incongruent/L/I_Dist_200_LN_4_LD_6_RN_14_RD_30_0.png","img2/100/Incongruent/L/I_Dist_100_LN_9_LD_15_RN_14_RD_28_0.png","img2/300/Congruent/R/C_Dist_300_LN_1_LD_20_RN_7_RD_20_1.png","img2/200/Incongruent/L/I_Dist_200_LN_3_LD_4_RN_11_RD_20_0.png","img2/100/Congruent/L/C_Dist_100_LN_8_LD_16_RN_2_RD_5_0.png","img2/300/Congruent/L/C_Dist_300_LN_11_LD_22_RN_2_RD_10_0.png","img2/200/Congruent/R/C_Dist_200_LN_6_LD_12_RN_7_RD_10_1.png","img2/300/Congruent/R/C_Dist_300_LN_1_LD_5_RN_11_RD_22_1.png","img2/100/Incongruent/L/I_Dist_100_LN_2_LD_4_RN_6_RD_15_0.png","img2/200/Incongruent/R/I_Dist_200_LN_7_LD_15_RN_4_RD_6_1.png","img2/200/Incongruent/L/I_Dist_200_LN_4_LD_6_RN_14_RD_30_0.png","img2/100/Congruent/L/C_Dist_100_LN_8_LD_16_RN_2_RD_5_0.png","img2/200/Incongruent/L/I_Dist_200_LN_4_LD_5_RN_6_RD_10_0.png","img2/200/Congruent/R/C_Dist_200_LN_3_LD_12_RN_9_RD_20_1.png","img2/300/Incongruent/R/I_Dist_300_LN_13_LD_26_RN_12_RD_15_1.png","img2/100/Incongruent/L/I_Dist_100_LN_2_LD_4_RN_6_RD_15_0.png","img2/100/Congruent/R/C_Dist_100_LN_7_LD_14_RN_15_RD_25_1.png","img2/300/Incongruent/L/I_Dist_300_LN_7_LD_10_RN_8_RD_20_0.png","img2/200/Congruent/R/C_Dist_200_LN_3_LD_6_RN_14_RD_20_1.png","img2/300/Incongruent/R/I_Dist_300_LN_4_LD_20_RN_2_RD_4_1.png","img2/200/Congruent/L/C_Dist_200_LN_8_LD_15_RN_2_RD_6_0.png","img2/300/Congruent/L/C_Dist_300_LN_24_LD_30_RN_2_RD_4_0.png","img2/200/Congruent/L/C_Dist_200_LN_16_LD_20_RN_12_RD_20_0.png","img2/300/Incongruent/R/I_Dist_300_LN_4_LD_20_RN_2_RD_4_1.png","img2/300/Incongruent/R/I_Dist_300_LN_13_LD_26_RN_12_RD_15_1.png","img2/200/Congruent/R/C_Dist_200_LN_3_LD_12_RN_9_RD_20_1.png","img2/300/Congruent/L/C_Dist_300_LN_11_LD_22_RN_2_RD_10_0.png","img2/100/Incongruent/R/I_Dist_100_LN_11_LD_22_RN_9_RD_15_1.png","img2/300/Congruent/R/C_Dist_300_LN_5_LD_25_RN_7_RD_14_1.png","img2/300/Incongruent/L/I_Dist_300_LN_2_LD_4_RN_6_RD_30_0.png","img2/200/Congruent/R/C_Dist_200_LN_3_LD_6_RN_14_RD_20_1.png","img2/300/Incongruent/L/I_Dist_300_LN_8_LD_10_RN_14_RD_28_0.png","img2/100/Incongruent/R/I_Dist_100_LN_8_LD_16_RN_6_RD_10_1.png","img2/200/Congruent/R/C_Dist_200_LN_3_LD_6_RN_14_RD_20_1.png","img2/300/Incongruent/L/I_Dist_300_LN_4_LD_5_RN_8_RD_16_0.png","img2/300/Incongruent/L/I_Dist_300_LN_2_LD_4_RN_6_RD_30_0.png","img2/200/Incongruent/L/I_Dist_200_LN_7_LD_10_RN_14_RD_28_0.png","img2/100/Congruent/R/C_Dist_100_LN_7_LD_14_RN_9_RD_15_1.png","img2/300/Incongruent/L/I_Dist_300_LN_4_LD_5_RN_6_RD_12_0.png","img2/200/Incongruent/R/I_Dist_200_LN_3_LD_10_RN_1_RD_2_1.png","img2/100/Congruent/R/C_Dist_100_LN_7_LD_14_RN_9_RD_15_1.png","img2/300/Congruent/L/C_Dist_300_LN_9_LD_10_RN_3_RD_5_0.png","img2/100/Congruent/R/C_Dist_100_LN_1_LD_2_RN_3_RD_5_1.png","img2/200/Incongruent/R/I_Dist_200_LN_7_LD_15_RN_6_RD_9_1.png"],"dist100_C":[["C_Dist_100_LN_10_LD_25_RN_3_RD_10_0.png","C_Dist_100_LN_11_LD_22_RN_4_RD_10_0.png","C_Dist_100_LN_11_LD_22_RN_6_RD_15_0.png","C_Dist_100_LN_15_LD_25_RN_13_RD_26_0.png","C_Dist_100_LN_3_LD_6_RN_2_RD_5_0.png","C_Dist_100_LN_6_LD_20_RN_5_RD_25_0.png","C_Dist_100_LN_8_LD_16_RN_2_RD_5_0.png","C_Dist_100_LN_9_LD_15_RN_8_RD_16_0.png"],["C_Dist_100_LN_1_LD_2_RN_18_RD_30_1.png","C_Dist_100_LN_1_LD_2_RN_3_RD_5_1.png","C_Dist_100_LN_12_LD_30_RN_13_RD_26_1.png","C_Dist_100_LN_2_LD_5_RN_11_RD_22_1.png","C_Dist_100_LN_2_LD_5_RN_6_RD_12_1.png","C_Dist_100_LN_3_LD_20_RN_4_RD_16_1.png","C_Dist_100_LN_4_LD_10_RN_15_RD_30_1.png","C_Dist_100_LN_4_LD_8_RN_6_RD_10_1.png","C_Dist_100_LN_6_LD_12_RN_15_RD_25_1.png","C_Dist_100_LN_7_LD_14_RN_15_RD_25_1.png","C_Dist_100_LN_7_LD_14_RN_9_RD_15_1.png"]],"dist100_I":[["I_Dist_100_LN_1_LD_2_RN_8_RD_20_0.png","I_Dist_100_LN_2_LD_4_RN_6_RD_15_0.png","I_Dist_100_LN_2_LD_4_RN_8_RD_20_0.png","I_Dist_100_LN_3_LD_5_RN_11_RD_22_0.png","I_Dist_100_LN_3_LD_5_RN_8_RD_16_0.png","I_Dist_100_LN_3_LD_6_RN_4_RD_10_0.png","I_Dist_100_LN_3_LD_9_RN_7_RD_30_0.png","I_Dist_100_LN_4_LD_8_RN_8_RD_20_0.png","I_Dist_100_LN_6_LD_10_RN_11_RD_22_0.png","I_Dist_100_LN_6_LD_10_RN_13_RD_26_0.png","I_Dist_100_LN_6_LD_10_RN_7_RD_14_0.png","I_Dist_100_LN_9_LD_10_RN_20_RD_25_0.png","I_Dist_100_LN_9_LD_15_RN_13_RD_26_0.png","I_Dist_100_LN_9_LD_15_RN_14_RD_28_0.png"],["I_Dist_100_LN_10_LD_25_RN_8_RD_16_1.png","I_Dist_100_LN_10_LD_25_RN_9_RD_18_1.png","I_Dist_100_LN_11_LD_22_RN_9_RD_15_1.png","I_Dist_100_LN_12_LD_24_RN_9_RD_15_1.png","I_Dist_100_LN_12_LD_30_RN_2_RD_4_1.png","I_Dist_100_LN_13_LD_26_RN_12_RD_20_1.png","I_Dist_100_LN_13_LD_26_RN_6_RD_10_1.png","I_Dist_100_LN_17_LD_30_RN_10_RD_15_1.png","I_Dist_100_LN_6_LD_12_RN_3_RD_5_1.png","I_Dist_100_LN_8_LD_16_RN_6_RD_10_1.png","I_Dist_100_LN_8_LD_20_RN_1_RD_2_1.png","I_Dist_100_LN_9_LD_18_RN_6_RD_10_1.png"]],"dist100_S":[["E_Dist_100_LN_2_LD_12_RN_2_RD_30_0.png","E_Dist_100_LN_6_LD_10_RN_6_RD_12_0.png"],["E_Dist_100_LN_6_LD_12_RN_6_RD_10_1.png"]],"dist200_C":[["C_Dist_200_LN_11_LD_22_RN_3_RD_10_0.png","C_Dist_200_LN_12_LD_15_RN_6_RD_10_0.png","C_Dist_200_LN_12_LD_20_RN_6_RD_15_0.png","C_Dist_200_LN_14_LD_28_RN_6_RD_20_0.png","C_Dist_200_LN_15_LD_25_RN_4_RD_10_0.png","C_Dist_200_LN_16_LD_20_RN_12_RD_20_0.png","C_Dist_200_LN_16_LD_30_RN_9_RD_27_0.png","C_Dist_200_LN_20_LD_25_RN_9_RD_15_0.png","C_Dist_200_LN_21_LD_30_RN_2_RD_4_0.png","C_Dist_200_LN_4_LD_10_RN_3_RD_15_0.png","C_Dist_200_LN_4_LD_8_RN_3_RD_10_0.png","C_Dist_200_LN_6_LD_15_RN_3_RD_15_0.png","C_Dist_200_LN_7_LD_21_RN_2_RD_15_0.png","C_Dist_200_LN_8_LD_15_RN_2_RD_6_0.png","C_Dist_200_LN_8_LD_15_RN_3_RD_9_0.png","C_Dist_200_LN_8_LD_15_RN_7_RD_21_0.png","C_Dist_200_LN_9_LD_20_RN_4_RD_16_0.png"],["C_Dist_200_LN_1_LD_2_RN_21_RD_30_1.png","C_Dist_200_LN_13_LD_26_RN_14_RD_20_1.png","C_Dist_200_LN_3_LD_10_RN_11_RD_22_1.png","C_Dist_200_LN_3_LD_10_RN_14_RD_28_1.png","C_Dist_200_LN_3_LD_10_RN_7_RD_14_1.png","C_Dist_200_LN_3_LD_12_RN_9_RD_20_1.png","C_Dist_200_LN_3_LD_6_RN_14_RD_20_1.png","C_Dist_200_LN_5_LD_10_RN_14_RD_20_1.png","C_Dist_200_LN_6_LD_12_RN_7_RD_10_1.png","C_Dist_200_LN_6_LD_20_RN_11_RD_22_1.png","C_Dist_200_LN_7_LD_15_RN_18_RD_27_1.png","C_Dist_200_LN_9_LD_30_RN_13_RD_26_1.png"]],"dist200_I":[["I_Dist_200_LN_1_LD_2_RN_3_RD_10_0.png","I_Dist_200_LN_1_LD_3_RN_2_RD_15_0.png","I_Dist_200_LN_3_LD_4_RN_11_RD_20_0.png","I_Dist_200_LN_4_LD_5_RN_6_RD_10_0.png","I_Dist_200_LN_4_LD_6_RN_14_RD_30_0.png","I_Dist_200_LN_7_LD_10_RN_12_RD_24_0.png","I_Dist_200_LN_7_LD_10_RN_14_RD_28_0.png","I_Dist_200_LN_7_LD_10_RN_8_RD_16_0.png"],["I_Dist_200_LN_11_LD_20_RN_3_RD_4_1.png","I_Dist_200_LN_14_LD_30_RN_12_RD_18_1.png","I_Dist_200_LN_14_LD_30_RN_6_RD_9_1.png","I_Dist_200_LN_3_LD_10_RN_1_RD_2_1.png","I_Dist_200_LN_4_LD_30_RN_1_RD_3_1.png","I_Dist_200_LN_6_LD_20_RN_3_RD_6_1.png","I_Dist_200_LN_7_LD_15_RN_4_RD_6_1.png","I_Dist_200_LN_7_LD_15_RN_6_RD_9_1.png","I_Dist_200_LN_9_LD_15_RN_8_RD_10_1.png"]],"dist200_S":[["E_Dist_200_LN_3_LD_6_RN_3_RD_10_0.png"],["E_Dist_200_LN_3_LD_10_RN_3_RD_6_1.png"]],"dist300_C":[["C_Dist_300_LN_11_LD_22_RN_1_RD_5_0.png","C_Dist_300_LN_11_LD_22_RN_2_RD_10_0.png","C_Dist_300_LN_11_LD_22_RN_4_RD_20_0.png","C_Dist_300_LN_12_LD_24_RN_2_RD_10_0.png","C_Dist_300_LN_18_LD_20_RN_9_RD_15_0.png","C_Dist_300_LN_20_LD_25_RN_13_RD_26_0.png","C_Dist_300_LN_20_LD_25_RN_14_RD_28_0.png","C_Dist_300_LN_20_LD_25_RN_5_RD_10_0.png","C_Dist_300_LN_20_LD_25_RN_8_RD_16_0.png","C_Dist_300_LN_20_LD_25_RN_9_RD_18_0.png","C_Dist_300_LN_24_LD_30_RN_2_RD_4_0.png","C_Dist_300_LN_24_LD_30_RN_8_RD_16_0.png","C_Dist_300_LN_3_LD_6_RN_2_RD_10_0.png","C_Dist_300_LN_4_LD_10_RN_1_RD_10_0.png","C_Dist_300_LN_4_LD_5_RN_2_RD_4_0.png","C_Dist_300_LN_8_LD_16_RN_1_RD_5_0.png","C_Dist_300_LN_9_LD_10_RN_3_RD_5_0.png"],["C_Dist_300_LN_1_LD_20_RN_7_RD_20_1.png","C_Dist_300_LN_1_LD_3_RN_19_RD_30_1.png","C_Dist_300_LN_1_LD_30_RN_8_RD_24_1.png","C_Dist_300_LN_1_LD_5_RN_11_RD_22_1.png","C_Dist_300_LN_1_LD_5_RN_3_RD_6_1.png","C_Dist_300_LN_1_LD_5_RN_6_RD_12_1.png","C_Dist_300_LN_2_LD_10_RN_12_RD_24_1.png","C_Dist_300_LN_2_LD_20_RN_10_RD_25_1.png","C_Dist_300_LN_3_LD_12_RN_11_RD_20_1.png","C_Dist_300_LN_3_LD_6_RN_4_RD_5_1.png","C_Dist_300_LN_4_LD_20_RN_13_RD_26_1.png","C_Dist_300_LN_5_LD_25_RN_6_RD_12_1.png","C_Dist_300_LN_5_LD_25_RN_7_RD_14_1.png","C_Dist_300_LN_7_LD_14_RN_20_RD_25_1.png","C_Dist_300_LN_8_LD_15_RN_10_RD_12_1.png"]],"dist300_I":[["I_Dist_300_LN_1_LD_2_RN_2_RD_10_0.png","I_Dist_300_LN_1_LD_2_RN_3_RD_15_0.png","I_Dist_300_LN_2_LD_4_RN_6_RD_30_0.png","I_Dist_300_LN_3_LD_6_RN_4_RD_20_0.png","I_Dist_300_LN_4_LD_5_RN_6_RD_12_0.png","I_Dist_300_LN_4_LD_5_RN_8_RD_16_0.png","I_Dist_300_LN_7_LD_10_RN_8_RD_20_0.png","I_Dist_300_LN_8_LD_10_RN_14_RD_28_0.png","I_Dist_300_LN_8_LD_10_RN_9_RD_18_0.png"],["I_Dist_300_LN_13_LD_26_RN_12_RD_15_1.png","I_Dist_300_LN_4_LD_20_RN_2_RD_4_1.png"]],"dist300_S":[["E_Dist_300_LN_9_LD_12_RN_9_RD_20_0.png"],["E_Dist_300_LN_18_LD_30_RN_18_RD_20_1.png","E_Dist_300_LN_3_LD_10_RN_3_RD_5_1.png","E_Dist_300_LN_9_LD_20_RN_9_RD_12_1.png"]],"dist500_C":[["C_Dist_500_LN_10_LD_13_RN_7_RD_26_0.png","C_Dist_500_LN_10_LD_15_RN_4_RD_24_0.png","C_Dist_500_LN_12_LD_16_RN_3_RD_12_0.png","C_Dist_500_LN_12_LD_18_RN_4_RD_24_0.png","C_Dist_500_LN_15_LD_18_RN_5_RD_15_0.png","C_Dist_500_LN_15_LD_20_RN_1_RD_4_0.png","C_Dist_500_LN_18_LD_27_RN_1_RD_6_0.png","C_Dist_500_LN_20_LD_24_RN_1_RD_3_0.png","C_Dist_500_LN_20_LD_24_RN_3_RD_9_0.png","C_Dist_500_LN_20_LD_24_RN_7_RD_21_0.png","C_Dist_500_LN_20_LD_28_RN_3_RD_14_0.png","C_Dist_500_LN_21_LD_28_RN_6_RD_24_0.png","C_Dist_500_LN_22_LD_28_RN_2_RD_7_0.png","C_Dist_500_LN_25_LD_30_RN_9_RD_27_0.png","C_Dist_500_LN_4_LD_6_RN_1_RD_6_0.png","C_Dist_500_LN_5_LD_6_RN_2_RD_6_0.png","C_Dist_500_LN_6_LD_9_RN_1_RD_6_0.png","C_Dist_500_LN_7_LD_10_RN_1_RD_5_0.png","C_Dist_500_LN_8_LD_12_RN_1_RD_6_0.png","C_Dist_500_LN_8_LD_12_RN_4_RD_24_0.png"],["C_Dist_500_LN_1_LD_4_RN_12_RD_16_1.png","C_Dist_500_LN_1_LD_4_RN_9_RD_12_1.png","C_Dist_500_LN_1_LD_9_RN_11_RD_18_1.png","C_Dist_500_LN_10_LD_24_RN_22_RD_24_1.png","C_Dist_500_LN_2_LD_12_RN_10_RD_15_1.png","C_Dist_500_LN_2_LD_12_RN_12_RD_18_1.png","C_Dist_500_LN_2_LD_12_RN_4_RD_6_1.png","C_Dist_500_LN_2_LD_24_RN_7_RD_12_1.png","C_Dist_500_LN_2_LD_5_RN_18_RD_20_1.png","C_Dist_500_LN_2_LD_5_RN_9_RD_10_1.png","C_Dist_500_LN_2_LD_8_RN_12_RD_16_1.png","C_Dist_500_LN_2_LD_8_RN_21_RD_28_1.png","C_Dist_500_LN_3_LD_10_RN_4_RD_5_1.png","C_Dist_500_LN_3_LD_12_RN_15_RD_20_1.png","C_Dist_500_LN_3_LD_30_RN_6_RD_10_1.png","C_Dist_500_LN_3_LD_8_RN_14_RD_16_1.png","C_Dist_500_LN_4_LD_16_RN_15_RD_20_1.png","C_Dist_500_LN_4_LD_24_RN_12_RD_18_1.png","C_Dist_500_LN_5_LD_14_RN_6_RD_7_1.png","C_Dist_500_LN_7_LD_21_RN_20_RD_24_1.png","C_Dist_500_LN_7_LD_28_RN_12_RD_16_1.png","C_Dist_500_LN_7_LD_28_RN_9_RD_12_1.png","C_Dist_500_LN_9_LD_27_RN_20_RD_24_1.png"]],"dist500_I":[["I_Dist_500_LN_2_LD_3_RN_4_RD_24_0.png","I_Dist_500_LN_5_LD_6_RN_6_RD_18_0.png","I_Dist_500_LN_7_LD_8_RN_9_RD_24_0.png"],["I_Dist_500_LN_7_LD_21_RN_5_RD_6_1.png"]],"dist500_S":[["E_Dist_500_LN_6_LD_8_RN_6_RD_24_0.png"],["E_Dist_500_LN_2_LD_12_RN_2_RD_3_1.png","E_Dist_500_LN_6_LD_24_RN_6_RD_8_1.png"]]}},{"start_time":1551800574730,"click_time":1551800577242,"finger_time":1551800576681,"fix_duration":685.460567557261,"trial":1,"RT":1951,"MT":561,"sideResp":1,"stimulus":[],"xmouse":[794,794,793,791,791,791,791,791,791,791,791,791,791,791,791,791,791,791,791,791,791,791,791,791,791,791,791,791,791,791,791,791,791,791,791,791,791,791,791,791,791,791,791,791,791,791,791,791,791,791,791,791,791,791,791,791,791,791,791,791,791,791,791,791,791,791,791,791,791,791,791,791,791,791,791,791,791,791,791,791,791,791,791,791,791,791,791,791,791,791,791,791,791,791,789,785,775,760,739,690,669,649,633,619,584,570,558,549,541,535,535,535,535,535,535,535,535,537,537,538,538,538,538,536,528,522],"ymouse":[518,520,520,520,520,520,520,520,520,520,520,520,520,520,520,520,520,520,520,520,520,520,520,520,520,520,520,520,520,520,520,520,520,520,520,520,520,520,520,520,520,520,520,520,520,520,520,520,520,520,520,520,520,520,520,520,520,520,520,520,520,520,520,520,520,520,520,520,520,520,520,520,520,520,520,520,520,520,520,520,520,520,520,520,520,520,520,520,519,517,515,513,510,508,501,494,485,470,454,418,402,387,372,361,335,325,315,304,295,272,260,248,236,222,199,190,185,178,171,157,149,138,130,121,104,98],"timestamp_mouse":[15,38,50,71,91,111,131,151,171,191,212,230,251,271,292,310,330,352,371,390,412,430,450,472,490,510,531,550,571,590,612,631,650,670,690,712,732,752,771,791,810,831,850,872,891,911,930,951,972,990,1011,1031,1051,1071,1091,1110,1131,1151,1170,1192,1211,1231,1251,1270,1292,1310,1332,1350,1370,1391,1410,1431,1452,1470,1491,1510,1532,1552,1570,1591,1610,1632,1652,1671,1691,1712,1731,1751,1770,1791,1811,1831,1850,1871,1891,1912,1931,1951,1970,1992,2011,2031,2051,2072,2091,2111,2131,2151,2170,2191,2210,2230,2251,2271,2291,2311,2331,2350,2371,2391,2411,2431,2450,2471,2490,2511],"xSR":741.5,"ySR":481,"xT1":424.9,"yT1":0,"xT2":1058.1,"yT2":0,"toosoon":0,"cond_shown":"Congruent","ratio_trial":100,"L_num":2,"L_den":5,"R_num":11,"R_den":22,"correct_side":2,"subjID":"ValerieCatalinaMolanoOsorio13","gender":"1","school":"cafam","age":"11"},{"start_time":1551800578912,"click_time":1551800581241,"finger_time":1551800580682,"fix_duration":250,"trial":2,"RT":1770,"MT":559,"sideResp":2,"stimulus":[],"xmouse":[793,793,793,793,792,792,792,792,792,792,792,792,792,792,792,792,792,792,792,792,792,792,792,792,792,792,792,792,792,792,792,792,792,792,792,792,792,792,792,792,792,792,792,792,792,792,792,792,792,792,792,792,792,792,792,792,792,792,792,792,792,792,792,792,792,792,792,792,792,792,792,792,792,792,792,792,792,792,792,793,794,796,798,800,802,805,814,824,836,849,870,883,896,909,925,966,982,999,1015,1028,1049,1052,1052,1052,1050,1045,1044,1044,1044,1044,1044,1044,1045,1046,1049,1055,1059],"ymouse":[515,515,516,516,516,516,516,516,516,516,516,516,516,516,516,516,516,516,516,516,516,516,516,516,516,516,516,516,516,516,516,516,516,516,516,516,516,516,516,516,516,516,516,516,516,516,516,516,516,516,516,516,516,516,516,516,516,516,516,516,516,516,516,516,516,516,516,516,516,516,516,516,516,516,516,516,516,516,516,515,514,513,511,507,503,500,496,484,474,458,428,411,392,373,354,301,279,257,238,219,182,162,148,138,128,119,119,119,119,118,113,112,108,105,101,91,86],"timestamp_mouse":[20,29,48,69,89,109,129,148,170,189,209,229,249,269,288,308,329,350,368,390,409,429,448,469,488,509,529,548,569,588,608,629,648,670,689,708,730,749,769,790,809,829,848,869,889,909,930,950,969,990,1009,1030,1048,1069,1089,1109,1129,1148,1170,1188,1209,1230,1250,1270,1289,1309,1328,1350,1370,1388,1409,1429,1449,1470,1488,1509,1530,1550,1569,1589,1609,1629,1648,1670,1690,1709,1728,1750,1770,1788,1809,1829,1848,1868,1889,1908,1928,1948,1969,1990,2009,2028,2049,2070,2090,2108,2129,2149,2170,2189,2210,2228,2249,2270,2290,2309,2329],"xSR":741.5,"ySR":481,"xT1":424.9,"yT1":0,"xT2":1058.1,"yT2":0,"toosoon":0,"cond_shown":"Incongruent","ratio_trial":100,"L_num":9,"L_den":15,"R_num":14,"R_den":28,"correct_side":1,"subjID":"ValerieCatalinaMolanoOsorio13","gender":"1","school":"cafam","age":"11"},{"start_time":1551800583530,"click_time":1551800584481,"finger_time":1551800583981,"fix_duration":786.2436050115282,"trial":3,"RT":451,"MT":500,"sideResp":1,"stimulus":[],"xmouse":[792,792,792,792,792,792,792,792,792,792,792,792,792,792,792,792,792,791,791,788,788,787,787,785,775,764,741,710,681,646,631,621,614,609,598,596,592,591,591,591,591,591,591,591,540,533,525,520],"ymouse":[518,518,518,518,518,518,518,518,518,518,518,518,518,517,513,511,507,502,498,489,486,482,476,467,401,355,304,243,186,103,69,46,28,15,1,0,0,0,0,0,0,0,0,0,3,7,13,17],"timestamp_mouse":[10,38,51,72,92,111,131,151,171,190,211,231,250,270,291,311,331,351,372,390,411,431,451,471,490,510,531,552,571,590,611,630,650,671,690,712,731,752,771,791,810,832,852,870,891,911,931,951],"xSR":741.5,"ySR":481,"xT1":424.9,"yT1":0,"xT2":1058.1,"yT2":0,"toosoon":0,"cond_shown":"Incongruent","ratio_trial":300,"L_num":13,"L_den":26,"R_num":12,"R_den":15,"correct_side":2,"subjID":"ValerieCatalinaMolanoOsorio13","gender":"1","school":"cafam","age":"11"},{"start_time":1551800586117,"click_time":1551800587261,"finger_time":1551800586340,"fix_duration":293.2040082930578,"trial":4,"RT":223,"MT":921,"sideResp":2,"stimulus":[],"xmouse":[779,779,779,779,780,785,787,789,791,792,793,796,797,798,799,807,812,818,824,835,852,858,865,872,877,893,899,906,912,919,935,941,945,951,953,954,954,954,954,954,959,964,973,983,996,1021,1026,1029,1032,1035,1040,1041,1044,1045,1049,1058,1061,1065],"ymouse":[501,501,501,501,501,499,497,493,491,489,483,479,477,473,469,456,447,436,423,406,381,366,350,335,319,279,268,258,247,238,219,212,205,199,195,194,194,193,193,193,192,189,186,182,177,166,163,160,156,153,146,141,137,132,126,107,100,95],"timestamp_mouse":[9,24,44,63,84,103,125,145,164,185,204,223,243,264,285,304,324,343,365,384,403,424,444,464,484,504,524,544,563,584,603,623,644,664,685,703,723,743,763,785,804,824,844,864,884,904,923,944,964,985,1005,1023,1044,1064,1085,1105,1124,1144],"xSR":741.5,"ySR":481,"xT1":424.9,"yT1":0,"xT2":1058.1,"yT2":0,"toosoon":0,"cond_shown":"Congruent","ratio_trial":100,"L_num":2,"L_den":5,"R_num":11,"R_den":22,"correct_side":2,"subjID":"ValerieCatalinaMolanoOsorio13","gender":"1","school":"cafam","age":"11"},{"start_time":1551800589241,"click_time":1551800591101,"finger_time":1551800590701,"fix_duration":977.2728813736437,"trial":5,"RT":1460,"MT":400,"sideResp":2,"stimulus":[],"xmouse":[755,755,755,755,755,755,755,755,755,755,755,755,755,755,755,755,755,755,755,755,755,755,755,756,759,760,760,760,760,760,760,760,760,760,760,760,760,760,760,760,760,760,760,760,760,760,760,760,760,760,760,760,760,760,760,761,762,763,764,766,770,773,776,780,787,791,794,798,800,808,812,816,820,826,844,852,862,873,884,920,936,952,967,983,1014,1027,1040,1053,1064,1082,1088,1092,1095,1097],"ymouse":[569,569,569,569,569,569,569,569,569,569,569,569,569,569,569,569,569,569,569,569,569,569,569,568,566,565,565,565,564,564,564,564,564,564,564,564,564,564,564,564,564,564,564,562,560,560,560,560,560,560,560,560,560,560,560,558,558,557,556,555,550,547,542,538,527,523,518,513,510,500,494,489,481,472,452,439,427,411,394,344,323,301,279,260,219,200,181,165,151,126,117,110,103,96],"timestamp_mouse":[2,20,45,60,80,99,120,140,161,180,199,221,240,260,280,299,321,340,360,379,401,420,439,460,480,499,519,540,559,580,600,620,640,660,680,701,720,740,760,779,801,820,840,861,879,900,920,940,959,980,1000,1020,1040,1060,1080,1101,1120,1140,1161,1179,1201,1221,1240,1260,1280,1300,1319,1340,1360,1379,1401,1421,1440,1460,1479,1501,1520,1540,1560,1579,1601,1619,1641,1660,1680,1700,1719,1740,1761,1779,1800,1820,1841,1860],"xSR":741.5,"ySR":481,"xT1":424.9,"yT1":0,"xT2":1058.1,"yT2":0,"toosoon":0,"cond_shown":"Congruent","ratio_trial":200,"L_num":3,"L_den":10,"R_num":11,"R_den":22,"correct_side":2,"subjID":"ValerieCatalinaMolanoOsorio13","gender":"1","school":"cafam","age":"11"},{"start_time":1551800592924,"click_time":1551800593981,"finger_time":1551800593562,"fix_duration":702.7094162870529,"trial":6,"RT":638,"MT":419,"sideResp":1,"stimulus":[],"xmouse":[813,813,813,813,813,813,813,813,813,813,813,813,813,813,813,813,813,813,813,813,813,813,813,813,812,811,810,807,806,799,791,784,776,765,748,723,696,669,644,602,584,565,549,535,511,510,510,510,510,510,510,510,510],"ymouse":[542,542,542,542,542,542,542,542,542,542,542,542,542,542,542,542,542,542,542,542,542,542,540,537,527,525,521,517,512,500,491,479,468,455,421,396,371,343,319,262,238,209,182,158,120,113,108,104,102,102,102,101,98],"timestamp_mouse":[16,36,56,78,98,116,138,156,177,198,217,237,258,276,296,318,337,357,377,397,417,436,456,478,496,517,536,557,578,597,616,638,658,677,697,716,737,758,778,797,817,836,857,878,897,917,936,958,977,998,1017,1036,1056],"xSR":741.5,"ySR":481,"xT1":424.9,"yT1":0,"xT2":1058.1,"yT2":0,"toosoon":0,"cond_shown":"Incongruent","ratio_trial":200,"L_num":7,"L_den":10,"R_num":8,"R_den":16,"correct_side":1,"subjID":"ValerieCatalinaMolanoOsorio13","gender":"1","school":"cafam","age":"11"},{"start_time":1551800596225,"click_time":1551800600141,"finger_time":1551800597021,"fix_duration":1043.5277916742186,"trial":7,"RT":796,"MT":3120,"sideResp":2,"stimulus":[],"xmouse":[789,789,788,788,788,788,788,788,788,788,788,788,788,788,788,788,788,788,788,788,788,788,788,788,788,788,789,791,793,798,799,800,802,803,808,811,813,815,819,825,828,830,833,834,837,837,838,840,841,841,841,841,841,841,841,841,841,841,841,841,841,841,841,841,839,836,830,823,811,785,779,776,775,775,775,775,775,775,775,775,775,775,775,775,775,775,775,775,774,774,774,774,774,774,774,774,774,774,774,774,774,774,774,774,774,773,773,773,773,773,773,773,773,773,773,773,774,775,776,780,781,783,783,783,786,787,787,787,788,788,788,788,788,787,785,783,781,780,779,776,774,773,772,772,771,771,771,771,771,771,771,771,771,772,775,779,784,789,796,818,829,844,858,869,894,902,913,920,928,951,960,968,975,982,987,990,992,993,995,1001,1005,1009,1009,1012,1020,1024,1030,1035,1041,1051,1054,1056,1057,1057,1058,1059],"ymouse":[521,522,522,522,522,522,522,522,522,522,522,522,522,522,522,522,522,522,522,522,522,522,522,522,522,521,520,520,516,512,511,508,506,502,495,491,489,485,482,474,469,467,464,462,457,456,455,454,453,453,452,452,452,452,452,452,452,452,452,452,452,452,452,452,452,456,464,473,487,522,529,533,535,535,535,535,535,535,535,535,535,535,535,535,535,535,536,536,538,538,539,539,540,540,540,541,541,541,541,541,541,541,541,541,541,541,541,541,541,541,541,541,541,541,540,537,537,535,534,528,527,526,524,521,517,515,511,508,506,504,503,503,503,503,503,503,503,504,505,510,512,515,517,520,525,526,528,529,531,533,533,534,534,535,536,536,536,536,536,528,524,515,507,498,470,459,441,423,399,346,325,305,287,271,239,225,212,200,190,172,166,162,158,154,145,140,134,130,122,102,95,88,81,77,71,68],"timestamp_mouse":[21,37,62,76,96,116,136,155,177,197,215,237,257,277,296,315,335,357,377,396,415,437,456,477,496,515,536,557,576,596,616,635,656,677,696,716,736,757,776,796,815,836,857,875,897,917,937,956,976,997,1015,1035,1056,1077,1097,1116,1135,1156,1176,1197,1217,1237,1255,1276,1295,1317,1336,1357,1376,1396,1416,1437,1456,1476,1495,1517,1535,1555,1576,1596,1616,1637,1656,1675,1697,1715,1736,1756,1776,1796,1815,1836,1856,1877,1896,1915,1935,1956,1975,1996,2015,2035,2056,2075,2096,2115,2137,2155,2176,2195,2217,2235,2257,2277,2296,2316,2335,2357,2376,2396,2416,2436,2455,2477,2495,2517,2536,2557,2576,2596,2616,2636,2656,2675,2697,2717,2736,2755,2777,2795,2816,2836,2856,2877,2895,2916,2937,2957,2976,2996,3015,3037,3056,3077,3096,3116,3135,3156,3176,3196,3215,3236,3257,3276,3295,3317,3336,3356,3377,3396,3417,3436,3457,3476,3496,3517,3535,3556,3577,3596,3616,3636,3657,3677,3696,3716,3735,3755,3775,3796,3816,3836,3855,3877,3896,3916],"xSR":741.5,"ySR":481,"xT1":424.9,"yT1":0,"xT2":1058.1,"yT2":0,"toosoon":0,"cond_shown":"Congruent","ratio_trial":300,"L_num":9,"L_den":10,"R_num":3,"R_den":5,"correct_side":1,"subjID":"ValerieCatalinaMolanoOsorio13","gender":"1","school":"cafam","age":"11"},{"start_time":1551800602333,"click_time":1551800604141,"finger_time":1551800602862,"fix_duration":770.3512207725255,"trial":8,"RT":529,"MT":1279,"sideResp":2,"stimulus":[],"xmouse":[764,764,764,764,764,764,764,764,764,764,764,764,764,764,764,764,764,764,764,764,764,764,764,764,753,748,737,723,707,674,660,645,630,616,591,582,575,570,563,550,547,544,542,537,531,531,530,529,529,527,526,525,525,525,524,523,522,522,524,557,589,632,680,723,825,853,875,894,917,964,982,1000,1011,1017,1022,1025,1028,1030,1035,1038,1043,1049,1055,1061,1078,1086,1092,1098,1104,1117,1123],"ymouse":[577,577,577,577,577,576,575,574,574,573,572,572,572,572,572,572,572,571,568,565,563,559,552,545,521,506,487,463,442,401,379,360,341,322,278,260,244,231,218,194,183,174,167,158,142,136,131,127,123,115,113,111,109,109,109,109,110,116,123,164,194,225,258,289,333,336,338,338,332,312,303,296,289,285,272,266,259,251,242,226,215,204,193,182,158,148,139,132,125,107,99],"timestamp_mouse":[9,29,48,68,89,108,127,149,169,187,208,228,247,267,287,309,329,347,367,388,409,427,449,468,488,508,529,548,569,587,608,628,648,669,688,708,728,747,767,788,809,828,848,868,887,908,928,948,968,988,1007,1028,1047,1068,1087,1107,1127,1148,1169,1188,1209,1229,1248,1268,1287,1308,1329,1348,1368,1388,1408,1428,1448,1469,1488,1509,1528,1548,1568,1588,1609,1628,1649,1667,1688,1707,1727,1748,1769,1788,1808],"xSR":741.5,"ySR":481,"xT1":424.9,"yT1":0,"xT2":1058.1,"yT2":0,"toosoon":0,"cond_shown":"Congruent","ratio_trial":300,"L_num":11,"L_den":22,"R_num":1,"R_den":5,"correct_side":1,"subjID":"ValerieCatalinaMolanoOsorio13","gender":"1","school":"cafam","age":"11"},{"start_time":1551800606815,"click_time":1551800608641,"finger_time":1551800607961,"fix_duration":1211.1477254580313,"trial":9,"RT":1146,"MT":680,"sideResp":1,"stimulus":[],"xmouse":[794,794,794,794,794,794,794,794,794,794,794,794,794,794,794,794,794,794,794,794,794,794,794,794,794,794,794,794,794,794,794,794,794,794,794,794,794,794,794,794,794,794,794,794,794,794,794,794,794,794,794,794,794,794,795,799,801,801,801,801,801,801,801,801,796,788,782,777,773,766,747,739,729,721,713,690,681,667,655,644,615,605,599,593,585,570,560,551,545,539,528,523],"ymouse":[501,501,501,501,501,501,501,501,501,501,501,501,501,501,501,501,501,501,501,501,501,501,501,501,501,501,501,501,501,501,501,501,501,501,501,501,501,501,501,501,501,501,501,501,501,501,501,501,501,501,501,500,498,495,493,487,483,480,475,471,455,450,441,431,415,396,385,372,360,347,310,299,288,277,265,244,236,226,216,204,175,164,155,146,136,118,110,100,91,83,68,63],"timestamp_mouse":[9,38,46,67,85,106,125,147,166,187,207,225,245,266,285,307,326,345,367,386,405,427,445,467,485,507,526,546,566,587,606,626,647,666,686,707,725,746,766,787,807,826,847,866,885,906,927,946,966,986,1005,1027,1046,1065,1086,1105,1127,1146,1167,1185,1206,1225,1246,1266,1287,1306,1326,1346,1365,1387,1406,1425,1445,1466,1487,1506,1526,1547,1566,1586,1606,1626,1646,1667,1686,1706,1725,1746,1766,1786,1806,1826],"xSR":741.5,"ySR":481,"xT1":424.9,"yT1":0,"xT2":1058.1,"yT2":0,"toosoon":0,"cond_shown":"Congruent","ratio_trial":200,"L_num":5,"L_den":10,"R_num":14,"R_den":20,"correct_side":2,"subjID":"ValerieCatalinaMolanoOsorio13","gender":"1","school":"cafam","age":"11"},{"start_time":1551800610998,"click_time":1551800613061,"finger_time":1551800612681,"fix_duration":1034.3043189340726,"trial":10,"RT":1683,"MT":380,"sideResp":2,"stimulus":[],"xmouse":[796,796,796,796,796,796,796,796,796,796,796,796,796,796,796,796,796,796,796,796,796,796,796,796,796,796,796,796,796,796,796,796,796,796,796,796,796,796,796,796,796,796,796,796,796,796,796,796,796,796,796,796,796,795,791,787,780,778,775,774,773,773,773,773,773,773,773,773,773,773,773,773,773,773,773,773,773,773,773,773,773,778,783,789,796,803,828,845,862,884,899,959,975,990,999,1010,1023,1029,1036,1041,1046,1055,1058,1059],"ymouse":[521,521,521,521,521,521,521,521,521,521,521,521,521,521,521,521,521,521,521,521,521,521,521,521,521,521,521,521,521,521,521,521,521,521,521,521,521,521,521,521,521,521,521,521,521,521,521,521,521,521,521,521,521,519,516,510,499,497,493,492,491,491,491,491,491,491,491,491,491,490,490,490,490,490,490,490,490,490,490,490,490,487,486,483,480,474,456,443,428,408,395,335,308,280,256,225,185,169,153,141,130,108,102,97],"timestamp_mouse":[9,34,43,63,83,104,122,143,164,182,204,222,243,262,282,303,323,342,362,383,403,422,443,462,483,503,524,544,562,584,604,624,643,662,683,703,724,744,762,783,804,822,842,863,884,903,924,943,964,983,1003,1024,1044,1063,1083,1103,1122,1142,1163,1184,1202,1223,1242,1264,1283,1302,1322,1343,1363,1383,1403,1424,1442,1463,1482,1502,1523,1544,1564,1582,1603,1623,1643,1664,1683,1704,1723,1743,1764,1783,1802,1823,1843,1863,1882,1904,1923,1943,1962,1983,2003,2023,2044,2063],"xSR":741.5,"ySR":481,"xT1":424.9,"yT1":0,"xT2":1058.1,"yT2":0,"toosoon":0,"cond_shown":"Incongruent","ratio_trial":200,"L_num":3,"L_den":4,"R_num":11,"R_den":20,"correct_side":1,"subjID":"ValerieCatalinaMolanoOsorio13","gender":"1","school":"cafam","age":"11"},{"start_time":1551800614593,"click_time":1551800619842,"finger_time":1551800619402,"fix_duration":250,"trial":11,"RT":4809,"MT":440,"sideResp":1,"stimulus":[],"xmouse":[750,750,750,750,750,750,750,750,750,750,750,750,750,751,753,755,755,756,757,757,758,758,758,759,759,760,760,760,760,760,760,760,760,760,760,760,760,760,760,760,760,760,760,760,760,760,760,760,760,760,760,760,760,760,760,760,760,760,760,760,760,760,760,760,760,760,760,760,760,760,760,760,760,760,760,760,760,760,760,760,760,760,760,760,760,760,760,760,760,760,760,760,760,760,760,760,760,760,760,760,760,760,760,760,760,760,760,760,760,760,760,760,760,760,760,760,760,760,760,760,760,760,760,760,760,760,760,760,760,760,760,760,760,760,760,760,760,760,760,760,760,760,760,760,760,760,760,760,760,760,760,760,760,760,760,760,760,760,760,760,760,760,760,760,760,760,760,760,760,760,760,760,760,760,760,760,760,760,760,760,760,760,760,760,760,760,760,760,760,760,760,760,760,760,760,760,760,760,760,760,760,760,760,760,760,760,760,760,760,760,760,760,760,760,760,760,760,760,760,760,760,760,760,760,760,761,761,761,761,761,761,763,763,763,764,764,763,760,754,748,744,741,733,726,718,710,690,675,661,644,633,604,595,587,576,561,535,519,506,493,480,445,431],"ymouse":[532,533,534,534,535,535,535,535,535,535,535,535,535,535,535,535,536,536,536,536,536,536,536,536,536,536,536,536,536,536,536,536,536,536,536,536,536,536,536,536,536,536,536,536,536,536,536,536,536,536,536,536,536,536,536,536,536,536,536,536,536,536,536,536,536,536,536,536,536,536,536,536,536,536,536,536,536,536,536,536,536,536,536,536,536,536,536,536,536,536,536,536,536,536,536,536,536,536,536,536,536,536,536,536,536,536,536,536,536,536,536,536,536,536,536,536,536,536,536,536,536,536,536,536,536,536,536,536,536,536,536,536,536,536,536,536,536,536,536,536,536,536,536,536,536,536,536,536,536,536,536,536,536,536,536,536,536,536,536,536,536,536,536,536,536,536,536,536,536,536,536,536,536,536,536,536,536,536,536,536,536,536,536,536,536,536,536,536,536,536,536,536,536,536,536,536,536,536,536,536,536,536,536,536,536,536,536,536,536,536,536,536,536,536,536,536,536,536,536,536,536,536,536,536,536,536,536,536,535,535,535,533,530,529,527,525,513,502,493,484,479,460,451,442,431,420,394,380,365,348,334,316,304,293,279,260,224,205,186,170,153,110,97],"timestamp_mouse":[10,28,61,69,88,108,128,148,169,187,207,228,248,268,288,308,327,347,367,388,408,428,449,468,488,507,529,548,568,588,608,629,647,668,689,709,728,748,767,788,808,829,847,868,887,907,928,948,969,987,1008,1027,1048,1067,1088,1107,1129,1147,1167,1188,1208,1229,1249,1267,1289,1307,1329,1348,1368,1389,1408,1427,1449,1467,1488,1507,1529,1547,1568,1588,1608,1627,1648,1667,1689,1708,1728,1748,1767,1788,1807,1828,1847,1867,1888,1908,1927,1947,1968,1988,2009,2028,2047,2068,2087,2107,2128,2148,2167,2187,2208,2229,2249,2269,2289,2307,2328,2348,2367,2389,2409,2427,2448,2469,2487,2509,2528,2549,2568,2587,2609,2629,2647,2667,2688,2707,2728,2747,2769,2788,2809,2827,2849,2868,2887,2909,2927,2949,2969,2989,3008,3028,3048,3068,3089,3109,3128,3149,3167,3189,3207,3228,3248,3267,3288,3308,3329,3349,3369,3388,3409,3429,3449,3469,3488,3509,3529,3548,3569,3588,3608,3628,3647,3668,3689,3708,3728,3747,3769,3788,3808,3829,3849,3869,3888,3909,3928,3949,3968,3988,4009,4028,4047,4069,4087,4109,4128,4148,4169,4189,4208,4229,4249,4269,4288,4307,4328,4347,4368,4388,4407,4428,4448,4469,4489,4507,4528,4547,4569,4589,4607,4628,4648,4669,4688,4708,4727,4748,4768,4788,4809,4827,4848,4868,4888,4908,4928,4947,4968,4989,5008,5028,5048,5068,5089,5109,5128,5148,5168,5187,5208,5228,5249],"xSR":741.5,"ySR":481,"xT1":424.9,"yT1":0,"xT2":1058.1,"yT2":0,"toosoon":0,"cond_shown":"Congruent","ratio_trial":300,"L_num":8,"L_den":15,"R_num":10,"R_den":12,"correct_side":2,"subjID":"ValerieCatalinaMolanoOsorio13","gender":"1","school":"cafam","age":"11"},{"start_time":1551800622878,"click_time":1551800640421,"finger_time":1551800623601,"fix_duration":1096.7983632450841,"trial":12,"RT":723,"MT":16820,"sideResp":2,"stimulus":[],"xmouse":[800,799,799,798,798,798,798,798,798,798,798,798,798,798,798,798,798,798,798,798,798,798,798,798,798,798,798,798,798,798,798,798,799,802,808,813,825,844,853,865,876,885,902,909,917,927,933,952,956,959,962,965,972,976,981,987,992,1006,1012,1018,1022,1025,1034,1038,1042,1047,1054,1065,1084,1091,1097,1109,1140,1163,1186,1223,1253,1286,1282,1263,1238,1214,1168,1149,1138,1138,1138,1138,1138,1138,1138,1138,1137,1137,1137,1137,1137,1137,1137,1137,1137,1137,1137,1137,1137,1137,1137,1137,1137,1137,1137,1137,1137,1136,1134,1128,1123,1111,1107,1102,1099,1096,1088,1086,1085,1082,1081,1077,1074,1072,1070,1069,1068,1068,1068,1068,1068,1068,1068,1068,1068,1068,1068,1068,1068,1068,1068,1068,1068,1068,1068,1068,1068,1068,1068,1068,1068,1068,1068,1068,1068,1068,1068,1068,1068,1068,1068,1068,1068,1068,1068,1068,1068,1068,1068,1068,1068,1068,1068,1068,1068,1068,1068,1068,1068,1068,1068,1068,1068,1068,1068,1068,1068,1068,1068,1068,1068,1068,1068,1068,1068,1068,1068,1068,1068,1068,1068,1068,1068,1068,1068,1068,1068,1068,1068,1068,1068,1068,1068,1068,1068,1068,1068,1068,1068,1068,1068,1068,1068,1068,1068,1068,1068,1068,1068,1068,1068,1068,1068,1068,1068,1068,1068,1068,1068,1068,1068,1068,1068,1068,1068,1068,1068,1068,1068,1068,1068,1068,1068,1068,1068,1068,1068,1068,1068,1068,1068,1068,1068,1068,1068,1068,1068,1068,1068,1068,1068,1068,1068,1068,1068,1068,1068,1068,1068,1068,1068,1068,1068,1068,1068,1068,1068,1068,1068,1068,1068,1068,1068,1068,1068,1068,1068,1068,1068,1068,1068,1068,1068,1068,1068,1068,1068,1068,1068,1068,1068,1068,1068,1068,1068,1068,1068,1068,1068,1068,1068,1068,1068,1068,1068,1068,1068,1068,1068,1068,1068,1068,1068,1068,1068,1068,1068,1068,1068,1068,1068,1068,1068,1068,1068,1068,1068,1068,1068,1068,1068,1068,1068,1068,1068,1068,1068,1068,1068,1068,1068,1068,1068,1068,1068,1068,1068,1068,1068,1068,1068,1068,1068,1068,1068,1068,1068,1068,1068,1068,1068,1068,1068,1068,1068,1068,1068,1068,1068,1068,1068,1068,1068,1068,1068,1068,1068,1068,1068,1068,1068,1068,1068,1068,1068,1068,1068,1068,1068,1068,1068,1068,1068,1068,1068,1068,1068,1068,1068,1068,1068,1068,1068,1068,1068,1066,1059,1053,1048,1041,1037,1027,1022,1015,1008,1001,985,980,973,966,960,946,942,937,928,916,895,887,880,873,866,849,824,809,795,789,788,788,788,789,791,792,792,792,791,789,776,772,770,769,768,768,768,768,771,776,783,785,786,787,787,787,787,787,787,787,787,787,787,787,787,787,787,787,787,786,785,785,785,785,785,785,785,785,785,785,785,785,785,785,785,785,785,785,785,785,785,785,785,785,785,784,782,781,781,780,777,776,776,775,775,775,775,775,775,775,775,775,776,777,779,782,783,786,786,786,786,786,786,786,786,786,786,786,786,786,786,785,785,785,785,785,785,785,785,785,785,783,781,774,766,737,727,718,713,709,708,708,708,708,708,708,712,724,740,767,824,846,858,862,863,863,863,863,863,863,862,857,850,841,834,818,814,810,810,809,809,808,808,808,808,805,805,804,803,803,802,802,802,802,802,802,802,803,803,803,803,803,803,803,803,803,803,803,803,804,806,807,808,808,808,808,809,809,809,809,809,809,809,809,809,809,810,810,811,812,812,812,812,812,814,815,815,816,816,815,815,815,815,815,815,815,814,815,815,815,815,813,812,811,811,811,811,811,811,811,811,811,811,811,811,811,811,812,812,812,814,814,815,815,815,815,815,815,815,815,818,822,825,826,826,826,827,827,828,828,830,830,830,830,830,830,830,830,830,830,830,830,830,830,830,830,830,829,829,829,829,829,829,829,829,829,829,829,829,829,829,829,829,829,829,829,829,829,829,828,828,827,827,826,825,821,819,817,814,813,813,813,812,811,809,805,801,801,800,797,784,778,775,773,773,773,773,773,773,773,773,774,777,778,780,781,781,781,781,781,781,782,782,782,782,783,784,784,784,784,784,784,784,784,784,784,784,784,784,784,784,784,784,784,784,784,784,784,784,784,784,784,784,785,785,786,786,786,789,789,791,793,796,798,803,820,830,838,845,853,867,873,880,887,897,918,925,932,940,948,963,969,977,985,1002,1021,1032,1044,1053,1061,1076,1084,1090,1096,1101,1110],"ymouse":[529,529,529,529,529,529,529,529,529,529,529,529,529,529,529,529,529,529,529,529,529,529,529,529,529,529,529,529,529,527,526,524,515,508,501,492,469,440,419,400,379,365,338,329,318,306,295,273,265,258,249,241,225,216,207,198,187,166,159,152,146,141,136,133,129,128,125,123,122,122,127,138,182,209,236,262,285,323,336,351,370,388,422,435,443,443,443,443,443,443,443,441,439,439,439,439,439,439,439,439,439,439,439,439,439,439,439,439,439,439,439,439,439,437,435,433,430,420,418,416,415,413,410,409,408,408,407,406,405,403,403,403,403,403,403,403,403,403,403,403,403,403,403,403,403,403,403,403,403,403,403,403,403,403,403,403,403,403,403,403,403,403,403,403,403,403,403,403,403,403,403,403,403,403,403,403,403,403,403,403,403,403,403,403,403,403,403,403,403,403,403,403,403,403,403,403,403,403,403,403,403,403,403,403,403,403,403,403,403,403,403,403,403,403,403,403,403,403,403,403,403,403,403,403,403,403,403,403,403,403,403,403,403,403,403,403,403,403,403,403,403,403,403,403,403,403,403,403,403,403,403,403,403,403,403,403,403,403,403,403,403,403,403,403,403,403,403,403,403,403,403,403,403,403,403,403,403,403,403,403,403,403,403,403,403,403,403,403,403,403,403,403,403,403,403,403,403,403,403,403,403,403,403,403,403,403,403,403,403,403,403,403,403,403,403,403,403,403,403,403,403,403,403,403,403,403,403,403,403,403,403,403,403,403,403,403,403,403,403,403,403,403,403,403,403,403,403,403,403,403,403,403,403,403,403,403,403,403,403,403,403,403,403,403,403,403,403,403,403,403,403,403,403,403,403,403,403,403,403,403,403,403,403,403,403,403,403,403,403,403,403,403,403,403,403,403,403,403,403,403,403,403,403,403,403,403,403,403,403,403,403,403,403,403,403,403,403,403,403,403,403,403,403,403,403,403,403,403,403,403,402,400,392,390,387,384,383,376,375,372,369,368,365,364,362,362,361,358,357,357,356,354,350,350,350,350,351,359,369,376,384,395,400,401,402,405,405,406,406,406,407,407,411,412,413,417,422,445,456,464,475,486,495,497,498,498,498,498,498,498,498,498,498,498,498,500,500,502,504,506,509,511,515,518,519,521,522,523,523,523,523,523,523,523,523,523,523,523,523,523,523,523,523,523,525,526,528,536,542,547,552,557,563,566,567,568,568,568,568,568,568,568,568,568,568,568,568,564,562,558,556,554,552,549,548,546,544,538,536,535,533,533,533,533,533,532,532,532,532,532,532,532,532,532,532,532,532,531,529,528,526,525,525,524,524,524,524,523,522,520,520,520,520,518,515,514,514,514,514,514,514,513,513,512,510,509,506,496,490,485,481,479,478,478,478,478,478,478,479,480,482,485,487,487,487,487,487,487,487,487,487,487,487,487,487,487,487,487,487,487,487,486,485,483,483,483,483,483,483,483,484,485,485,486,487,488,488,488,488,488,488,488,488,488,488,488,488,486,485,483,482,485,485,485,485,485,485,485,485,484,484,484,484,484,485,485,485,485,485,485,485,485,485,485,485,485,485,484,483,480,479,479,478,478,478,478,478,478,478,478,477,476,471,468,466,465,465,465,465,462,461,459,453,452,450,449,448,444,444,442,442,441,438,438,438,438,438,438,438,438,438,438,438,438,438,438,438,438,438,438,438,438,438,438,438,438,438,438,438,438,438,438,438,438,438,439,439,441,442,443,443,443,443,443,443,443,444,447,449,451,452,457,472,479,485,487,490,490,490,490,492,493,501,507,514,519,523,528,528,529,529,529,529,529,529,529,531,532,532,532,532,532,532,532,532,532,532,532,532,532,532,533,533,533,533,533,533,533,533,533,533,533,533,533,533,533,533,533,533,532,532,530,528,527,523,520,513,490,479,468,459,447,429,419,403,388,374,335,322,310,301,290,270,261,250,241,223,202,194,186,177,165,145,134,125,114,103,77],"timestamp_mouse":[4,23,49,64,84,104,123,144,162,183,203,223,243,264,282,304,323,342,363,384,404,423,446,464,483,503,522,542,563,583,603,624,643,663,683,704,723,743,763,783,803,824,843,863,883,904,924,943,963,984,1003,1023,1043,1062,1083,1104,1123,1143,1164,1183,1204,1224,1243,1263,1284,1303,1323,1343,1364,1383,1403,1423,1443,1464,1484,1503,1524,1543,1564,1582,1604,1624,1643,1663,1683,1704,1724,1743,1764,1783,1804,1823,1842,1864,1884,1904,1923,1944,1963,1983,2004,2023,2044,2064,2083,2104,2124,2143,2164,2183,2204,2224,2243,2263,2284,2304,2324,2343,2364,2383,2403,2424,2443,2464,2483,2503,2524,2543,2563,2584,2604,2624,2644,2663,2683,2704,2724,2743,2763,2784,2804,2824,2843,2863,2883,2904,2923,2943,2964,2984,3003,3024,3044,3064,3083,3104,3124,3143,3164,3184,3204,3224,3243,3263,3283,3304,3323,3343,3364,3384,3404,3424,3444,3463,3484,3503,3524,3543,3563,3583,3603,3624,3643,3663,3684,3721,3723,3743,3764,3784,3804,3823,3843,3863,3883,3903,3923,3944,3964,3983,4004,4022,4043,4064,4084,4104,4123,4143,4162,4183,4204,4224,4243,4263,4284,4304,4324,4343,4364,4384,4404,4424,4444,4464,4483,4503,4524,4544,4563,4583,4604,4624,4643,4663,4683,4704,4723,4743,4763,4783,4804,4824,4843,4864,4884,4903,4923,4944,4964,4984,5004,5022,5044,5064,5083,5103,5124,5144,5163,5183,5203,5224,5244,5264,5284,5303,5324,5344,5363,5384,5403,5423,5444,5463,5484,5504,5522,5544,5564,5582,5604,5624,5644,5664,5684,5704,5723,5744,5763,5784,5803,5823,5844,5864,5884,5903,5924,5943,5963,5983,6004,6024,6043,6064,6083,6104,6124,6143,6164,6182,6202,6223,6244,6263,6283,6304,6324,6344,6363,6384,6404,6423,6444,6464,6483,6504,6523,6544,6563,6584,6604,6623,6643,6664,6683,6703,6723,6743,6764,6782,6803,6824,6844,6863,6883,6904,6924,6943,6964,6984,7004,7024,7043,7063,7084,7103,7124,7143,7164,7183,7204,7223,7244,7263,7284,7302,7323,7343,7364,7384,7403,7424,7443,7463,7484,7503,7523,7543,7563,7583,7604,7624,7643,7664,7684,7704,7723,7743,7763,7784,7804,7824,7844,7863,7883,7904,7924,7944,7964,7983,8003,8022,8043,8063,8084,8104,8123,8144,8163,8183,8203,8224,8244,8263,8284,8304,8323,8343,8363,8383,8403,8423,8444,8464,8483,8504,8522,8544,8564,8583,8603,8623,8643,8663,8683,8703,8723,8743,8763,8783,8803,8824,8843,8863,8883,8903,8923,8944,8963,8982,9003,9024,9043,9063,9083,9103,9122,9142,9163,9183,9203,9224,9243,9262,9284,9304,9323,9344,9364,9383,9403,9424,9443,9463,9483,9503,9524,9543,9564,9583,9603,9624,9644,9663,9683,9704,9723,9743,9764,9784,9804,9823,9843,9864,9883,9902,9924,9943,9964,9983,10003,10023,10043,10064,10084,10103,10123,10142,10163,10183,10203,10223,10243,10263,10283,10303,10324,10343,10364,10383,10402,10423,10444,10463,10483,10503,10524,10543,10564,10584,10603,10623,10643,10664,10683,10704,10724,10744,10764,10784,10804,10824,10844,10864,10884,10903,10924,10943,10963,10983,11003,11023,11043,11063,11083,11103,11123,11143,11163,11184,11202,11224,11243,11263,11284,11304,11322,11343,11364,11384,11404,11424,11444,11463,11482,11503,11523,11543,11563,11583,11604,11623,11643,11663,11684,11704,11724,11743,11763,11783,11804,11823,11844,11863,11884,11903,11923,11943,11963,11984,12004,12024,12043,12064,12084,12104,12123,12144,12163,12184,12203,12223,12244,12264,12283,12303,12323,12343,12364,12383,12403,12423,12444,12463,12484,12503,12524,12543,12563,12584,12602,12623,12643,12663,12683,12704,12724,12743,12763,12784,12804,12823,12843,12863,12883,12904,12923,12943,12964,12984,13004,13023,13044,13063,13083,13104,13123,13143,13163,13183,13203,13223,13243,13264,13283,13303,13323,13343,13363,13383,13404,13423,13443,13462,13484,13503,13524,13544,13563,13583,13603,13624,13642,13663,13683,13703,13723,13743,13763,13783,13804,13823,13843,13863,13884,13903,13923,13943,13963,13983,14003,14023,14043,14063,14083,14103,14124,14143,14163,14184,14203,14223,14243,14263,14284,14303,14323,14343,14363,14383,14404,14424,14443,14463,14483,14503,14522,14543,14563,14583,14604,14624,14643,14663,14684,14703,14724,14743,14763,14784,14803,14823,14843,14864,14883,14903,14923,14944,14963,14984,15004,15023,15043,15063,15083,15104,15124,15144,15163,15182,15204,15223,15243,15263,15283,15303,15324,15343,15364,15383,15404,15423,15444,15464,15483,15503,15524,15543,15563,15583,15603,15623,15644,15664,15683,15703,15724,15744,15764,15782,15804,15824,15843,15863,15883,15903,15924,15943,15964,15983,16003,16023,16043,16062,16083,16104,16124,16143,16163,16183,16203,16223,16243,16263,16284,16304,16324,16344,16364,16383,16404,16423,16444,16464,16483,16503,16524,16544,16563,16583,16604,16623,16643,16663,16684,16704,16723,16743,16763,16784,16803,16824,16843,16863,16883,16903,16924,16943,16964,16983,17004,17024,17043,17063,17083,17103,17124,17143,17163,17183,17203,17224,17243,17263,17283,17304,17324,17343,17364,17383,17402,17424,17443,17464,17484,17504,17524,17543],"xSR":741.5,"ySR":481,"xT1":424.9,"yT1":0,"xT2":1058.1,"yT2":0,"toosoon":0,"cond_shown":"Incongruent","ratio_trial":100,"L_num":13,"L_den":26,"R_num":12,"R_den":20,"correct_side":2,"subjID":"ValerieCatalinaMolanoOsorio13","gender":"1","school":"cafam","age":"11"},{"start_time":1551800642260,"click_time":1551800644521,"finger_time":1551800644001,"fix_duration":438.2325399771795,"trial":13,"RT":1741,"MT":520,"sideResp":1,"stimulus":[],"xmouse":[789,789,789,789,789,789,789,789,789,789,789,789,789,789,789,789,789,790,791,791,791,792,792,795,796,797,798,798,798,798,798,798,798,798,798,798,798,798,798,798,798,798,798,798,798,798,798,798,798,798,798,798,798,798,798,798,798,798,798,798,798,798,798,798,798,798,798,798,798,798,798,798,798,798,798,798,798,798,798,798,798,798,798,798,795,789,775,757,704,682,662,647,632,616,612,607,604,601,581,568,554,542,531,521,518,515,509,503,491,488,485,484,484,481],"ymouse":[537,537,537,537,537,537,537,537,537,537,537,537,537,537,537,537,537,537,536,535,534,533,532,528,526,525,522,521,521,521,521,521,521,521,521,521,521,521,521,521,521,521,521,521,521,521,521,521,521,521,521,521,521,521,521,521,521,521,521,521,521,521,521,521,521,521,521,521,521,521,521,521,521,521,521,521,521,521,521,521,521,520,519,510,503,496,482,460,410,388,368,346,330,303,292,283,274,265,246,237,227,217,209,197,190,181,172,162,139,129,122,113,106,93],"timestamp_mouse":[10,21,43,62,82,102,122,142,161,181,202,220,242,261,282,301,321,341,361,380,402,422,441,461,482,501,521,542,561,581,601,622,641,662,681,701,722,741,762,781,801,822,842,862,882,902,922,942,961,982,1001,1022,1041,1061,1082,1102,1122,1142,1161,1181,1201,1221,1241,1261,1282,1301,1321,1340,1361,1381,1401,1422,1442,1461,1482,1502,1521,1541,1561,1581,1602,1621,1641,1661,1681,1702,1721,1741,1761,1781,1801,1822,1842,1861,1881,1901,1922,1941,1961,1982,2001,2021,2042,2061,2081,2101,2122,2141,2161,2181,2201,2221,2241,2261],"xSR":741.5,"ySR":481,"xT1":424.9,"yT1":0,"xT2":1058.1,"yT2":0,"toosoon":0,"cond_shown":"Incongruent","ratio_trial":100,"L_num":9,"L_den":15,"R_num":14,"R_den":28,"correct_side":1,"subjID":"ValerieCatalinaMolanoOsorio13","gender":"1","school":"cafam","age":"11"},{"start_time":1551800647974,"click_time":1551800650202,"finger_time":1551800649641,"fix_duration":750.2014147521397,"trial":14,"RT":1667,"MT":561,"sideResp":2,"stimulus":[],"xmouse":[769,769,769,769,769,769,769,769,769,769,769,769,769,769,769,769,769,769,769,769,769,769,769,769,769,769,769,769,769,769,769,769,769,769,769,769,769,769,769,769,769,769,769,769,769,769,769,769,769,769,769,769,769,769,769,769,769,769,769,769,769,769,769,769,769,769,769,769,769,769,769,769,769,769,769,769,769,769,769,769,770,776,796,811,800,824,846,881,898,912,921,929,942,948,952,953,957,962,964,969,976,982,1001,1008,1016,1021,1027,1043,1052,1065,1074,1081],"ymouse":[510,510,510,510,510,510,510,510,510,510,510,510,510,510,510,510,510,510,510,510,510,510,510,510,510,510,510,510,510,510,510,510,510,510,510,510,510,510,510,510,510,510,510,510,510,510,510,510,510,510,510,510,510,510,510,510,510,510,510,510,510,510,510,510,510,510,510,510,510,510,510,510,510,510,510,510,510,510,510,510,509,505,489,475,490,466,448,422,409,398,389,380,361,353,348,341,337,324,317,306,293,278,242,226,213,202,189,158,144,132,114,96],"timestamp_mouse":[22,27,48,68,87,107,128,148,167,187,207,228,247,267,288,306,328,347,368,387,408,427,448,467,487,507,527,547,567,587,607,628,647,667,688,707,728,747,768,788,808,827,847,867,887,907,927,947,967,987,1007,1027,1048,1067,1087,1107,1127,1147,1168,1187,1208,1227,1247,1268,1288,1308,1328,1347,1368,1387,1407,1427,1447,1467,1487,1508,1526,1547,1568,1587,1608,1627,1646,1667,1688,1707,1727,1748,1768,1787,1808,1828,1847,1867,1887,1907,1927,1947,1968,1987,2007,2028,2047,2068,2087,2107,2128,2147,2167,2187,2207,2228],"xSR":741.5,"ySR":481,"xT1":424.9,"yT1":0,"xT2":1058.1,"yT2":0,"toosoon":0,"cond_shown":"Incongruent","ratio_trial":100,"L_num":13,"L_den":26,"R_num":6,"R_den":10,"correct_side":2,"subjID":"ValerieCatalinaMolanoOsorio13","gender":"1","school":"cafam","age":"11"},{"start_time":1551800652077,"click_time":1551800654142,"finger_time":1551800653041,"fix_duration":634.9187954372862,"trial":15,"RT":964,"MT":1101,"sideResp":2,"stimulus":[],"xmouse":[837,837,837,837,837,837,837,837,837,837,837,837,837,837,837,837,837,837,837,837,837,837,837,837,837,837,837,837,837,837,837,837,837,837,837,837,837,837,837,837,837,837,837,837,837,837,837,838,842,848,854,862,870,873,874,875,875,875,875,875,876,878,880,881,882,883,887,891,893,895,899,905,923,939,964,993,1024,1101,1126,1147,1163,1171,1183,1186,1187,1188,1188,1190,1190,1189,1188,1186,1180,1178,1174,1172,1170,1167,1166,1165,1164,1163,1161,1158],"ymouse":[534,534,534,534,534,534,534,534,534,534,534,533,530,529,528,527,527,527,527,527,527,527,527,527,527,527,527,527,527,527,527,527,527,527,527,527,527,527,527,527,527,527,527,527,527,527,526,522,517,510,499,490,479,473,472,472,472,472,472,471,471,470,466,464,462,460,456,450,447,443,438,430,405,384,354,317,274,164,132,105,83,70,55,50,46,43,41,39,38,37,36,36,36,36,36,36,36,36,36,37,37,37,39,40],"timestamp_mouse":[8,24,44,65,84,104,124,145,163,185,205,225,244,264,285,305,325,345,364,384,404,424,444,465,484,504,524,545,564,585,604,624,644,664,685,705,724,744,765,786,805,825,843,864,884,905,924,944,964,984,1004,1024,1044,1065,1084,1104,1125,1145,1165,1184,1204,1225,1244,1264,1284,1305,1324,1344,1364,1384,1405,1424,1444,1465,1485,1504,1524,1544,1565,1584,1605,1625,1644,1664,1685,1705,1725,1744,1765,1784,1805,1824,1844,1864,1885,1903,1925,1944,1965,1985,2004,2025,2044,2065],"xSR":741.5,"ySR":481,"xT1":424.9,"yT1":0,"xT2":1058.1,"yT2":0,"toosoon":0,"cond_shown":"Incongruent","ratio_trial":100,"L_num":8,"L_den":20,"R_num":1,"R_den":2,"correct_side":2,"subjID":"ValerieCatalinaMolanoOsorio13","gender":"1","school":"cafam","age":"11"},{"start_time":1551800655976,"click_time":1551800657201,"finger_time":1551800656562,"fix_duration":372.5205350977189,"trial":16,"RT":586,"MT":639,"sideResp":1,"stimulus":[],"xmouse":[799,799,799,799,799,799,799,799,799,799,799,799,798,796,795,795,795,795,795,794,793,792,788,786,784,778,774,765,758,749,740,729,685,665,646,626,609,587,585,585,585,585,579,576,572,570,569,566,566,566,566,566,566,566,566,566,566,566,566,566,566,510],"ymouse":[519,519,519,519,519,519,519,519,519,519,519,519,520,520,520,520,520,520,520,517,516,514,508,504,501,497,494,489,485,480,474,464,422,400,376,349,322,263,230,201,171,139,79,59,41,27,15,4,4,4,4,4,4,4,4,4,4,4,4,4,4,1],"timestamp_mouse":[8,33,45,65,85,105,133,145,166,185,205,225,245,266,285,305,326,345,365,386,405,425,445,465,486,505,525,545,565,586,605,625,645,666,685,705,726,745,766,785,805,826,845,866,885,905,926,945,965,986,1005,1025,1045,1065,1086,1105,1126,1146,1165,1186,1206,1225],"xSR":741.5,"ySR":481,"xT1":424.9,"yT1":0,"xT2":1058.1,"yT2":0,"toosoon":0,"cond_shown":"Congruent","ratio_trial":100,"L_num":7,"L_den":14,"R_num":15,"R_den":25,"correct_side":2,"subjID":"ValerieCatalinaMolanoOsorio13","gender":"1","school":"cafam","age":"11"},{"start_time":1551800659957,"click_time":1551800662021,"finger_time":1551800661021,"fix_duration":1374.8888476392378,"trial":17,"RT":1064,"MT":1000,"sideResp":2,"stimulus":[],"xmouse":[801,801,801,801,801,801,801,801,801,801,801,801,801,801,801,801,801,801,801,801,801,801,801,801,801,801,801,801,801,801,801,801,801,801,801,801,801,801,801,801,801,801,801,801,801,801,801,801,801,801,801,801,801,795,789,785,784,782,782,782,782,782,782,782,782,782,782,782,782,782,782,782,782,782,782,782,782,782,789,796,807,820,838,873,908,943,987,1032,1117,1149,1172,1188,1197,1199,1199,1198,1196,1193,1186,1179,1170,1161,1149,1103],"ymouse":[501,501,501,501,501,501,501,501,501,501,501,501,501,501,501,501,501,501,501,501,501,501,501,501,501,501,501,501,501,501,501,501,501,501,501,501,501,501,501,501,501,501,501,501,501,501,501,501,501,501,501,500,498,480,473,467,465,464,464,464,464,464,464,464,464,464,464,464,464,464,464,464,464,464,464,464,463,463,460,456,451,445,437,419,399,373,348,323,268,240,215,188,170,135,126,123,119,117,115,114,111,108,105,98],"timestamp_mouse":[9,23,45,65,84,104,123,145,164,185,204,225,244,265,284,304,325,344,364,384,404,425,444,464,484,504,524,544,564,585,605,625,644,664,684,704,725,745,765,785,804,825,844,865,885,904,924,944,965,985,1005,1024,1044,1064,1084,1104,1124,1144,1164,1184,1204,1224,1245,1264,1284,1304,1325,1344,1365,1385,1404,1425,1444,1465,1484,1505,1524,1545,1564,1585,1604,1624,1645,1664,1684,1704,1724,1745,1764,1785,1804,1825,1844,1864,1885,1904,1925,1944,1964,1985,2005,2024,2045,2064],"xSR":741.5,"ySR":481,"xT1":424.9,"yT1":0,"xT2":1058.1,"yT2":0,"toosoon":0,"cond_shown":"Incongruent","ratio_trial":300,"L_num":3,"L_den":6,"R_num":4,"R_den":20,"correct_side":1,"subjID":"ValerieCatalinaMolanoOsorio13","gender":"1","school":"cafam","age":"11"},{"start_time":1551800666603,"click_time":1551800667661,"finger_time":1551800666661,"fix_duration":718.846170053766,"trial":18,"RT":58,"MT":1000,"sideResp":1,"stimulus":[],"xmouse":[786,786,786,785,783,773,768,763,760,759,756,755,752,752,751,750,750,748,746,743,731,722,708,695,679,658,652,651,651,650,642,635,626,618,607,591,586,581,576,570,557,554,550,546,544,538,536,534,531,529,524,520,519],"ymouse":[484,484,479,476,472,462,457,449,442,434,419,414,410,409,408,404,402,399,394,379,300,267,233,205,178,149,145,144,144,144,144,144,142,141,139,137,135,134,134,132,130,129,127,125,124,122,119,117,115,111,103,100,98],"timestamp_mouse":[36,38,58,78,99,118,138,158,178,198,218,239,258,278,298,318,339,358,378,398,418,437,458,479,499,518,538,558,578,599,618,638,659,679,698,718,739,758,778,798,818,839,858,879,898,918,939,958,978,998,1018,1039,1058],"xSR":741.5,"ySR":481,"xT1":424.9,"yT1":0,"xT2":1058.1,"yT2":0,"toosoon":0,"cond_shown":"Congruent","ratio_trial":300,"L_num":2,"L_den":10,"R_num":12,"R_den":24,"correct_side":2,"subjID":"ValerieCatalinaMolanoOsorio13","gender":"1","school":"cafam","age":"11"},{"start_time":1551800670036,"click_time":1551800671882,"finger_time":1551800671201,"fix_duration":1092.4971705369658,"trial":19,"RT":1165,"MT":681,"sideResp":2,"stimulus":[],"xmouse":[788,789,789,789,789,789,789,789,789,789,789,789,789,789,789,789,789,789,789,789,789,789,789,789,789,789,789,789,789,789,789,789,789,790,791,791,792,794,795,796,796,797,797,798,802,805,806,806,809,809,809,810,810,812,817,825,831,839,851,871,885,901,919,934,959,969,979,991,1006,1037,1048,1056,1062,1063,1066,1066,1066,1066,1066,1065,1064,1064,1064,1064,1069,1074,1079,1080,1083,1087,1088,1088,1088],"ymouse":[549,549,549,549,549,549,549,549,549,549,549,549,548,547,547,547,547,547,547,547,547,547,547,547,547,547,547,547,547,547,547,547,547,546,546,545,545,545,545,544,544,543,541,541,538,536,535,532,531,531,530,530,529,527,519,511,502,491,475,452,441,426,409,395,364,352,341,326,307,267,253,242,233,226,215,213,211,208,206,199,197,193,190,182,162,149,139,127,118,104,102,100,97],"timestamp_mouse":[9,35,45,66,85,106,125,145,165,185,205,226,245,266,285,306,326,346,365,386,406,426,445,465,485,506,526,545,566,585,605,626,646,665,685,704,724,745,766,785,805,825,846,865,885,905,925,946,965,985,1006,1026,1046,1065,1085,1106,1125,1146,1165,1185,1206,1225,1245,1265,1285,1306,1325,1346,1365,1385,1406,1425,1445,1466,1485,1505,1525,1545,1565,1585,1605,1625,1645,1665,1686,1705,1725,1746,1765,1785,1805,1825,1846],"xSR":741.5,"ySR":481,"xT1":424.9,"yT1":0,"xT2":1058.1,"yT2":0,"toosoon":0,"cond_shown":"Incongruent","ratio_trial":100,"L_num":6,"L_den":12,"R_num":3,"R_den":5,"correct_side":2,"subjID":"ValerieCatalinaMolanoOsorio13","gender":"1","school":"cafam","age":"11"},{"start_time":1551800675595,"click_time":1551800677462,"finger_time":1551800676921,"fix_duration":571.1695626233077,"trial":20,"RT":1326,"MT":541,"sideResp":1,"stimulus":[],"xmouse":[792,792,792,792,792,792,792,792,792,792,792,792,792,792,792,792,792,792,792,792,792,792,792,792,792,792,792,792,792,792,792,792,792,792,792,792,792,792,792,792,792,792,792,792,792,792,792,792,792,792,792,792,792,792,792,792,792,792,792,792,792,792,792,792,792,789,775,763,746,726,689,640,621,609,602,595,585,581,576,569,563,548,541,537,536,536,536,536,535,535,533,529,525,521],"ymouse":[556,556,556,554,552,551,549,548,548,548,547,547,547,547,547,547,545,543,541,540,537,537,537,537,537,537,537,537,537,537,537,537,537,537,537,537,537,537,537,537,537,537,537,537,537,537,537,537,537,537,537,537,537,537,537,537,537,537,537,537,535,531,526,520,510,498,455,426,389,350,288,224,195,171,153,140,127,123,119,115,112,107,101,99,98,98,98,98,98,98,97,95,94,92],"timestamp_mouse":[8,39,47,66,87,106,126,147,166,186,206,226,247,267,287,306,326,346,366,386,406,427,446,466,487,507,527,547,566,586,606,626,646,666,686,707,726,747,766,787,806,825,846,866,887,907,926,946,967,986,1006,1026,1047,1066,1087,1107,1126,1146,1167,1187,1207,1227,1247,1266,1286,1305,1326,1347,1366,1386,1407,1426,1446,1466,1486,1506,1526,1547,1566,1587,1606,1627,1646,1666,1686,1707,1726,1746,1766,1787,1806,1826,1847,1866],"xSR":741.5,"ySR":481,"xT1":424.9,"yT1":0,"xT2":1058.1,"yT2":0,"toosoon":0,"cond_shown":"Incongruent","ratio_trial":100,"L_num":9,"L_den":10,"R_num":20,"R_den":25,"correct_side":1,"subjID":"ValerieCatalinaMolanoOsorio13","gender":"1","school":"cafam","age":"11"},{"start_time":1551800680144,"click_time":1551800681442,"finger_time":1551800681021,"fix_duration":1241.5480367695707,"trial":21,"RT":877,"MT":421,"sideResp":2,"stimulus":[],"xmouse":[807,807,803,800,799,798,795,793,789,787,786,785,785,783,781,780,778,778,778,778,778,778,778,778,778,778,778,778,778,778,778,778,778,778,778,778,778,778,778,778,781,787,798,857,886,909,927,940,959,967,975,983,997,1007,1019,1024,1025,1026,1028,1031,1032,1037,1042,1057,1060],"ymouse":[521,521,521,520,520,519,519,518,518,518,518,517,517,517,517,517,517,517,517,517,517,517,517,517,517,517,517,517,517,517,517,517,517,517,517,517,517,516,515,512,509,501,493,445,424,401,380,358,321,310,299,285,265,251,223,214,205,198,184,175,167,154,139,106,96],"timestamp_mouse":[34,37,58,77,97,117,137,157,176,198,217,237,258,277,297,317,338,358,377,397,417,437,458,477,497,518,537,557,577,598,618,638,657,677,697,717,738,757,778,797,818,838,858,877,897,917,937,957,978,998,1017,1038,1057,1076,1097,1117,1138,1158,1177,1198,1218,1237,1257,1277,1298],"xSR":741.5,"ySR":481,"xT1":424.9,"yT1":0,"xT2":1058.1,"yT2":0,"toosoon":0,"cond_shown":"Incongruent","ratio_trial":300,"L_num":13,"L_den":26,"R_num":12,"R_den":15,"correct_side":2,"subjID":"ValerieCatalinaMolanoOsorio13","gender":"1","school":"cafam","age":"11"},{"start_time":1551800683354,"click_time":1551800685703,"finger_time":1551800685282,"fix_duration":850.6499182219319,"trial":22,"RT":1928,"MT":421,"sideResp":2,"stimulus":[],"xmouse":[781,781,781,781,781,781,781,781,781,781,781,781,781,781,781,781,781,781,781,781,781,781,781,781,781,781,781,781,781,781,781,781,781,781,781,781,781,781,781,781,781,781,781,781,781,781,781,781,781,781,781,781,781,781,781,781,781,781,781,781,781,781,781,781,781,781,781,781,781,781,781,781,781,781,781,781,781,781,781,781,781,781,781,781,781,781,781,781,781,781,781,784,786,797,803,811,823,833,861,877,895,918,952,1040,1070,1095,1111,1118,1126,1128,1132,1136,1142,1148,1148,1148,1148,1148],"ymouse":[515,515,515,515,515,515,515,515,515,515,515,515,515,515,515,515,515,515,515,515,515,515,515,515,515,515,515,515,515,515,515,515,515,515,515,515,515,515,515,515,515,515,515,515,515,515,515,515,515,515,515,515,515,515,515,515,515,515,515,515,515,515,515,515,515,515,515,515,515,515,515,515,515,515,515,515,515,515,515,515,515,515,515,515,515,515,515,515,515,515,515,514,513,504,498,491,479,467,432,410,386,361,333,256,226,199,175,162,145,140,134,129,121,109,104,102,100,99],"timestamp_mouse":[11,27,47,68,87,107,128,148,168,188,208,229,248,268,288,308,329,348,368,387,408,428,447,467,488,509,528,548,569,587,608,628,647,667,688,707,727,747,767,787,807,829,848,867,887,908,927,948,968,987,1008,1027,1048,1067,1088,1108,1128,1148,1167,1188,1208,1227,1247,1267,1289,1307,1327,1348,1367,1388,1408,1427,1448,1467,1487,1508,1527,1548,1568,1587,1608,1627,1648,1668,1687,1708,1728,1748,1767,1787,1808,1827,1847,1867,1888,1907,1928,1947,1968,1987,2008,2027,2047,2067,2087,2107,2127,2147,2168,2187,2207,2228,2247,2267,2288,2307,2328,2348],"xSR":741.5,"ySR":481,"xT1":424.9,"yT1":0,"xT2":1058.1,"yT2":0,"toosoon":0,"cond_shown":"Congruent","ratio_trial":100,"L_num":11,"L_den":22,"R_num":6,"R_den":15,"correct_side":1,"subjID":"ValerieCatalinaMolanoOsorio13","gender":"1","school":"cafam","age":"11"},{"start_time":1551800688176,"click_time":1551800689281,"finger_time":1551800688601,"fix_duration":1252.841160931491,"trial":23,"RT":425,"MT":680,"sideResp":1,"stimulus":[],"xmouse":[811,813,816,819,820,823,824,827,828,829,831,832,832,832,832,833,833,836,837,840,841,842,843,843,843,843,843,838,834,829,820,814,801,800,798,794,791,785,780,776,768,758,724,706,684,661,639,599,580,564,552,540,531,529,526,523],"ymouse":[507,507,507,506,506,506,506,506,506,506,506,506,506,506,506,506,504,503,502,502,501,498,494,491,487,481,474,458,447,433,419,406,378,366,356,348,341,330,325,318,308,295,250,226,203,181,158,116,103,90,80,71,66,66,65,64],"timestamp_mouse":[5,25,46,65,86,106,127,145,165,186,206,227,245,265,286,305,325,345,365,385,406,425,446,466,485,506,525,545,566,585,605,626,645,665,685,705,725,745,765,786,805,826,845,865,885,905,926,945,966,985,1005,1026,1045,1065,1085,1105],"xSR":741.5,"ySR":481,"xT1":424.9,"yT1":0,"xT2":1058.1,"yT2":0,"toosoon":0,"cond_shown":"Incongruent","ratio_trial":100,"L_num":1,"L_den":2,"R_num":8,"R_den":20,"correct_side":1,"subjID":"ValerieCatalinaMolanoOsorio13","gender":"1","school":"cafam","age":"11"},{"start_time":1551800692527,"click_time":1551800694361,"finger_time":1551800694021,"fix_duration":1304.782140760644,"trial":24,"RT":1494,"MT":340,"sideResp":2,"stimulus":[],"xmouse":[784,784,784,784,784,784,784,784,784,784,784,784,784,784,784,784,784,784,784,784,784,784,784,784,784,784,784,784,784,784,784,784,784,784,784,784,784,784,784,784,784,784,784,784,784,784,784,784,784,784,784,784,784,784,784,784,784,784,784,784,785,788,789,791,796,797,797,798,798,802,804,806,808,813,825,835,847,860,876,912,933,954,978,998,1045,1061,1069,1078,1083,1091,1093,1094],"ymouse":[527,527,527,527,527,527,527,527,527,527,527,527,527,527,527,527,527,527,527,527,527,527,527,527,527,527,527,527,527,527,527,527,527,527,527,527,527,527,527,527,527,527,527,527,527,527,527,527,527,528,529,531,531,531,531,531,531,531,531,531,530,528,526,522,516,514,513,512,510,506,504,500,496,490,473,462,448,429,407,358,329,300,270,246,180,161,145,131,120,106,100,97],"timestamp_mouse":[14,42,55,75,94,114,135,155,175,194,215,234,254,275,295,315,335,354,375,394,415,435,455,474,495,515,534,554,575,594,614,634,654,675,694,714,735,754,775,794,815,835,854,875,895,915,934,954,975,994,1015,1035,1054,1075,1096,1115,1134,1154,1174,1194,1215,1235,1254,1274,1295,1315,1334,1355,1375,1394,1414,1435,1454,1475,1494,1514,1534,1554,1574,1595,1614,1634,1655,1674,1694,1714,1734,1754,1775,1794,1814,1834],"xSR":741.5,"ySR":481,"xT1":424.9,"yT1":0,"xT2":1058.1,"yT2":0,"toosoon":0,"cond_shown":"Congruent","ratio_trial":100,"L_num":15,"L_den":25,"R_num":13,"R_den":26,"correct_side":1,"subjID":"ValerieCatalinaMolanoOsorio13","gender":"1","school":"cafam","age":"11"},{"start_time":1551800696718,"click_time":1551800697782,"finger_time":1551800697121,"fix_duration":833.084378381691,"trial":25,"RT":403,"MT":661,"sideResp":1,"stimulus":[],"xmouse":[802,802,802,802,802,802,802,802,802,802,802,802,802,802,802,802,801,798,795,793,786,780,770,762,753,705,686,669,652,637,608,597,585,568,554,544,544,544,544,544,544,544,544,544,544,544,544,544,544,544,544,544,544,501],"ymouse":[512,512,512,512,512,512,512,512,512,512,512,512,512,512,512,511,506,504,498,493,480,473,459,441,420,347,316,284,250,214,146,115,84,50,24,5,5,5,5,5,5,5,5,5,5,5,5,5,5,5,5,5,5,3],"timestamp_mouse":[9,39,44,64,83,103,124,144,164,184,204,224,244,264,284,303,324,344,364,384,403,425,444,463,484,503,523,544,564,583,603,623,644,663,683,703,724,744,763,783,803,823,843,863,884,904,923,943,963,985,1004,1024,1044,1064],"xSR":741.5,"ySR":481,"xT1":424.9,"yT1":0,"xT2":1058.1,"yT2":0,"toosoon":0,"cond_shown":"Incongruent","ratio_trial":200,"L_num":7,"L_den":15,"R_num":6,"R_den":9,"correct_side":2,"subjID":"ValerieCatalinaMolanoOsorio13","gender":"1","school":"cafam","age":"11"},{"start_time":1551800700433,"click_time":1551800702121,"finger_time":1551800701101,"fix_duration":1069.2933623179808,"trial":26,"RT":668,"MT":1020,"sideResp":1,"stimulus":[],"xmouse":[797,797,797,797,798,799,802,803,804,807,809,809,810,811,813,814,814,815,816,819,820,820,821,823,826,827,829,830,832,834,835,835,835,835,836,836,836,836,837,837,838,838,838,838,838,838,838,838,838,838,838,838,838,838,838,838,838,838,838,838,838,838,838,838,838,836,830,819,817,777,762,748,736,727,704,695,686,675,654,644,598,577,548,524,497],"ymouse":[501,501,501,501,501,501,501,501,501,500,500,498,498,498,497,497,496,496,495,493,493,490,489,489,487,486,486,484,484,481,481,481,481,480,480,480,480,480,480,479,479,479,479,479,479,479,479,479,479,479,479,479,479,479,479,479,479,479,479,479,479,479,479,478,475,471,464,453,450,420,406,393,379,370,356,348,340,332,309,301,247,218,176,141,97],"timestamp_mouse":[11,38,49,69,88,109,128,149,168,188,208,228,249,268,288,308,328,348,368,388,408,428,448,468,488,509,528,548,569,588,608,630,648,668,688,708,728,748,770,789,809,829,849,868,888,908,928,949,969,989,1009,1029,1048,1068,1089,1109,1129,1148,1168,1189,1208,1229,1248,1269,1288,1308,1328,1349,1369,1388,1409,1428,1448,1468,1488,1508,1528,1548,1568,1588,1608,1629,1649,1669,1688],"xSR":741.5,"ySR":481,"xT1":424.9,"yT1":0,"xT2":1058.1,"yT2":0,"toosoon":0,"cond_shown":"Congruent","ratio_trial":100,"L_num":10,"L_den":25,"R_num":3,"R_den":10,"correct_side":1,"subjID":"ValerieCatalinaMolanoOsorio13","gender":"1","school":"cafam","age":"11"},{"start_time":1551800724189,"click_time":1551800726382,"finger_time":1551800725842,"fix_duration":706.8122250399412,"trial":27,"RT":1653,"MT":540,"sideResp":1,"stimulus":[],"xmouse":[806,806,806,806,806,806,806,806,806,806,806,806,806,806,806,806,806,806,806,806,806,806,806,806,806,806,806,806,806,806,806,806,806,806,806,806,806,806,806,806,806,806,806,806,806,806,806,806,806,806,806,806,806,806,806,806,806,806,806,806,806,806,806,806,806,806,806,806,806,806,806,806,806,806,806,806,806,806,806,806,806,783,766,750,732,716,682,667,651,634,610,572,556,546,540,537,536,536,536,536,534,534,534,534,534,534,533,530,526,508],"ymouse":[535,535,535,535,535,535,535,535,535,535,535,535,535,535,535,535,535,535,535,535,535,535,535,535,535,535,535,535,535,535,535,535,535,535,535,535,535,535,535,535,535,535,535,535,535,535,535,535,535,535,535,535,535,535,535,535,535,535,535,535,535,535,535,535,535,535,535,535,535,535,535,535,535,535,535,535,535,535,535,534,532,486,466,442,418,396,353,331,307,283,239,179,159,143,134,130,128,128,128,127,127,120,115,110,105,99,82,67,48,10],"timestamp_mouse":[13,35,53,73,94,112,133,152,173,192,212,233,253,273,292,313,333,353,374,393,413,433,453,473,494,513,532,552,572,593,613,632,653,673,692,713,733,753,772,792,813,832,853,874,893,913,932,953,972,994,1012,1032,1053,1072,1092,1113,1132,1154,1173,1193,1212,1233,1252,1273,1292,1313,1332,1352,1373,1392,1413,1432,1453,1473,1494,1513,1532,1553,1573,1592,1612,1632,1653,1672,1692,1712,1732,1753,1772,1792,1813,1832,1852,1872,1893,1912,1932,1953,1972,1992,2013,2032,2052,2072,2092,2113,2132,2152,2172,2193],"xSR":741.5,"ySR":481,"xT1":424.9,"yT1":0,"xT2":1058.1,"yT2":0,"toosoon":0,"cond_shown":"Incongruent","ratio_trial":100,"L_num":6,"L_den":10,"R_num":13,"R_den":26,"correct_side":1,"subjID":"ValerieCatalinaMolanoOsorio13","gender":"1","school":"cafam","age":"11"},{"start_time":1551800729132,"click_time":1551800731183,"finger_time":1551800730681,"fix_duration":1009.1692386601325,"trial":28,"RT":1549,"MT":502,"sideResp":1,"stimulus":[],"xmouse":[809,809,809,809,809,809,809,809,809,809,809,809,809,809,809,809,809,809,809,809,809,809,809,809,809,809,809,809,809,809,809,809,809,809,809,809,809,809,809,809,809,809,809,809,809,809,809,809,809,809,809,809,809,809,809,809,809,809,809,809,809,809,809,809,809,809,809,809,809,809,809,809,809,809,803,799,791,781,770,740,720,692,662,632,566,543,524,513,507,506,506,506,510,512,512,513,513,514,515,515,515,515,515],"ymouse":[518,518,518,518,518,518,518,518,518,518,518,518,518,518,518,518,518,518,518,518,518,518,518,518,518,518,518,518,518,518,518,518,518,518,518,518,518,518,518,518,518,518,518,518,518,518,518,518,518,518,518,518,518,518,518,518,518,518,518,518,518,518,518,518,518,518,518,518,518,518,518,518,518,517,509,503,492,478,464,430,408,383,352,324,250,218,193,177,166,159,156,153,147,144,137,136,135,132,131,126,111,101,92],"timestamp_mouse":[9,29,49,70,89,109,130,149,169,189,211,229,249,269,290,309,329,350,369,389,410,429,450,470,489,509,530,550,570,589,609,630,650,669,690,709,729,750,769,790,811,829,849,871,889,910,929,949,970,991,1009,1030,1049,1070,1090,1110,1130,1151,1170,1189,1209,1230,1250,1269,1289,1310,1329,1349,1371,1390,1409,1429,1450,1469,1489,1510,1530,1549,1570,1589,1610,1629,1649,1670,1689,1709,1729,1750,1769,1790,1809,1829,1849,1869,1890,1909,1929,1950,1970,1989,2010,2029,2051],"xSR":741.5,"ySR":481,"xT1":424.9,"yT1":0,"xT2":1058.1,"yT2":0,"toosoon":0,"cond_shown":"Congruent","ratio_trial":300,"L_num":4,"L_den":10,"R_num":1,"R_den":10,"correct_side":1,"subjID":"ValerieCatalinaMolanoOsorio13","gender":"1","school":"cafam","age":"11"},{"start_time":1551800733500,"click_time":1551800734541,"finger_time":1551800734081,"fix_duration":1336.619351430253,"trial":29,"RT":581,"MT":460,"sideResp":1,"stimulus":[],"xmouse":[808,808,808,808,808,808,808,808,808,808,808,808,808,808,808,808,808,808,808,808,807,806,803,800,797,795,787,783,777,769,761,729,705,679,652,625,582,573,570,568,568,568,568,567,567,565,558,556,552,548,543,528,519],"ymouse":[518,518,518,518,518,518,518,518,518,518,518,518,518,518,518,518,518,518,518,518,518,518,515,512,508,505,494,488,481,470,459,413,378,341,297,252,159,138,125,118,116,115,115,115,114,114,108,107,103,101,96,85,79],"timestamp_mouse":[12,39,41,62,81,102,121,141,161,181,201,222,241,262,281,301,322,342,363,382,402,421,442,462,481,502,521,541,563,581,602,621,643,661,682,702,721,741,761,782,801,821,841,861,881,901,921,942,961,982,1002,1021,1041],"xSR":741.5,"ySR":481,"xT1":424.9,"yT1":0,"xT2":1058.1,"yT2":0,"toosoon":0,"cond_shown":"Incongruent","ratio_trial":200,"L_num":3,"L_den":4,"R_num":11,"R_den":20,"correct_side":1,"subjID":"ValerieCatalinaMolanoOsorio13","gender":"1","school":"cafam","age":"11"},{"start_time":1551800736663,"click_time":1551800738521,"finger_time":1551800737921,"fix_duration":460.0185202257513,"trial":30,"RT":1258,"MT":600,"sideResp":2,"stimulus":[],"xmouse":[789,789,789,789,789,789,789,789,789,789,789,789,789,789,789,789,789,789,789,789,789,789,789,789,789,789,789,789,789,789,789,789,789,789,789,789,789,789,789,789,789,789,789,789,789,789,789,789,789,789,789,789,789,789,789,789,789,789,789,791,795,802,820,832,842,852,860,888,901,914,926,939,961,971,981,989,999,1014,1019,1025,1031,1038,1045,1048,1050,1051,1052,1058,1063,1067,1073,1079,1086],"ymouse":[494,494,494,494,494,494,494,494,494,494,494,494,494,494,494,494,494,494,494,494,494,494,494,494,494,494,494,494,494,494,494,494,494,494,494,494,494,494,494,494,494,494,494,494,494,494,494,494,494,494,494,494,494,494,494,494,494,494,494,494,493,485,472,462,450,438,427,390,373,354,336,314,284,270,259,245,233,209,200,191,182,174,162,158,157,155,152,145,138,129,121,114,93],"timestamp_mouse":[19,39,58,79,98,119,139,159,179,198,218,238,259,278,299,320,338,358,378,399,419,439,460,478,498,520,539,560,578,598,618,639,660,679,699,718,738,759,778,798,818,839,858,878,898,918,939,958,978,998,1019,1038,1058,1078,1098,1118,1138,1159,1178,1199,1219,1239,1258,1278,1299,1318,1339,1358,1378,1398,1418,1438,1458,1479,1498,1518,1539,1558,1578,1599,1618,1639,1658,1679,1699,1718,1738,1758,1779,1798,1819,1838,1858],"xSR":741.5,"ySR":481,"xT1":424.9,"yT1":0,"xT2":1058.1,"yT2":0,"toosoon":0,"cond_shown":"Congruent","ratio_trial":200,"L_num":3,"L_den":12,"R_num":9,"R_den":20,"correct_side":2,"subjID":"ValerieCatalinaMolanoOsorio13","gender":"1","school":"cafam","age":"11"},{"start_time":1551800739836,"click_time":1551800741862,"finger_time":1551800741061,"fix_duration":253.92338758244136,"trial":31,"RT":1225,"MT":801,"sideResp":1,"stimulus":[],"xmouse":[746,746,746,746,746,746,746,747,749,752,752,752,753,754,756,757,757,757,757,757,757,757,757,757,757,757,757,757,757,757,757,757,757,757,757,757,757,757,757,757,757,757,757,757,757,757,757,757,757,757,759,761,763,765,770,772,777,783,789,814,827,847,864,880,909,919,927,931,934,937,937,938,938,938,938,934,927,912,891,818,790,764,743,728,706,694,683,673,664,649,645,644,643,643,637,631,623,613,598,554,535,516],"ymouse":[551,551,551,551,550,550,550,549,548,547,546,546,546,545,542,542,541,541,541,541,541,541,541,541,541,541,541,541,541,541,541,541,541,541,541,541,541,541,541,541,541,541,541,541,541,541,541,541,541,541,541,540,539,538,537,534,533,530,526,506,489,467,448,426,388,374,365,356,347,334,330,327,323,321,316,314,311,304,297,272,266,259,247,240,231,226,222,219,216,211,210,210,209,207,199,190,181,168,151,107,93,80],"timestamp_mouse":[10,35,45,65,85,106,126,145,166,185,206,225,247,266,285,305,325,346,366,385,406,426,445,466,485,505,526,545,565,586,606,625,645,665,685,705,725,746,765,785,805,826,845,865,885,905,927,946,965,985,1005,1025,1045,1065,1085,1106,1126,1146,1165,1185,1206,1225,1246,1265,1286,1305,1325,1345,1365,1385,1405,1425,1445,1466,1485,1506,1525,1546,1565,1585,1605,1625,1646,1665,1685,1706,1725,1745,1766,1785,1805,1826,1846,1865,1885,1906,1926,1945,1965,1985,2006,2026],"xSR":741.5,"ySR":481,"xT1":424.9,"yT1":0,"xT2":1058.1,"yT2":0,"toosoon":0,"cond_shown":"Congruent","ratio_trial":100,"L_num":10,"L_den":25,"R_num":3,"R_den":10,"correct_side":1,"subjID":"ValerieCatalinaMolanoOsorio13","gender":"1","school":"cafam","age":"11"},{"start_time":1551800743688,"click_time":1551800745600,"finger_time":1551800745021,"fix_duration":546.660701247741,"trial":32,"RT":1333,"MT":579,"sideResp":2,"stimulus":[],"xmouse":[766,766,766,766,766,766,766,766,766,766,766,766,766,766,766,766,766,766,766,766,766,766,766,766,766,766,766,766,766,766,766,766,766,766,766,766,766,766,766,766,766,766,766,766,766,766,766,766,766,766,766,766,766,766,766,766,766,766,766,766,767,775,783,790,799,812,858,879,906,931,956,999,1015,1030,1041,1051,1060,1063,1063,1063,1063,1063,1063,1063,1064,1065,1076,1082,1086,1091,1097,1115,1121,1129,1135,1139],"ymouse":[562,562,562,562,562,562,562,562,562,562,562,562,562,562,562,562,562,562,562,562,562,562,562,562,562,562,562,562,562,562,562,562,562,562,562,562,562,562,562,562,562,562,562,562,562,562,562,562,562,562,562,562,562,562,562,562,562,562,562,562,562,558,552,546,540,530,496,478,460,439,415,365,344,322,303,285,257,250,243,238,234,231,230,228,224,219,200,191,178,165,154,132,123,114,106,98],"timestamp_mouse":[13,32,52,73,93,112,132,152,172,192,213,233,252,272,292,312,332,352,373,392,414,433,453,472,494,512,532,553,572,592,613,632,652,673,693,712,733,753,772,793,812,832,852,872,893,913,933,953,973,992,1013,1032,1053,1072,1093,1112,1133,1152,1172,1194,1212,1232,1252,1273,1292,1312,1333,1353,1372,1393,1413,1433,1452,1473,1492,1513,1532,1552,1572,1593,1612,1632,1653,1672,1693,1712,1732,1753,1772,1792,1813,1833,1853,1873,1893,1912],"xSR":741.5,"ySR":481,"xT1":424.9,"yT1":0,"xT2":1058.1,"yT2":0,"toosoon":0,"cond_shown":"Congruent","ratio_trial":200,"L_num":3,"L_den":10,"R_num":11,"R_den":22,"correct_side":2,"subjID":"ValerieCatalinaMolanoOsorio13","gender":"1","school":"cafam","age":"11"},{"start_time":1551800773612,"click_time":1551800775701,"finger_time":1551800774641,"fix_duration":250,"trial":33,"RT":1029,"MT":1060,"sideResp":2,"stimulus":[],"xmouse":[758,760,760,764,767,770,771,772,772,772,773,773,775,775,775,778,780,781,785,787,794,796,796,796,796,798,800,802,803,803,803,803,803,803,803,803,803,803,803,803,803,803,803,803,802,801,800,799,798,796,789,785,778,771,761,732,715,700,681,659,618,608,598,590,580,580,580,580,580,580,580,580,580,580,580,632,684,745,805,861,947,969,988,1005,1021,1052,1064,1078,1088,1097,1103,1103,1103,1103,1103,1103,1103,1103,1103,1103,1104,1104,1106,1106,1106],"ymouse":[515,515,515,517,518,519,519,521,521,521,521,521,521,521,521,521,521,522,522,522,523,523,523,523,523,523,521,520,519,519,519,519,519,519,519,519,519,519,519,519,518,517,516,514,513,512,511,509,508,505,487,476,458,443,419,362,325,291,252,213,125,92,61,33,5,5,5,5,5,5,5,5,5,5,5,3,33,61,89,111,138,140,140,140,140,140,140,140,140,138,132,130,128,126,124,124,123,122,121,119,112,108,103,101,97],"timestamp_mouse":[17,41,48,68,88,108,129,148,169,190,209,229,248,269,289,308,330,349,369,388,408,429,448,470,488,508,528,548,569,588,608,628,648,668,690,708,728,748,770,788,808,830,848,869,889,908,928,949,968,988,1008,1029,1048,1068,1089,1109,1128,1148,1168,1188,1208,1229,1248,1268,1288,1308,1328,1348,1368,1388,1408,1428,1449,1468,1489,1508,1529,1549,1568,1588,1608,1629,1648,1668,1689,1708,1729,1748,1769,1789,1809,1829,1849,1868,1888,1908,1929,1948,1969,1989,2008,2029,2049,2068,2089],"xSR":741.5,"ySR":481,"xT1":424.9,"yT1":0,"xT2":1058.1,"yT2":0,"toosoon":0,"cond_shown":"Incongruent","ratio_trial":100,"L_num":3,"L_den":9,"R_num":7,"R_den":30,"correct_side":1,"subjID":"ValerieCatalinaMolanoOsorio13","gender":"1","school":"cafam","age":"11"},{"start_time":1551800778154,"click_time":1551800779520,"finger_time":1551800778620,"fix_duration":772.6322945769351,"trial":34,"RT":466,"MT":900,"sideResp":2,"stimulus":[],"xmouse":[795,795,795,795,795,795,795,796,797,797,797,798,798,798,798,799,799,799,800,800,800,800,800,799,797,797,796,795,792,791,789,786,784,781,781,781,781,781,781,781,784,785,787,797,805,812,826,842,888,919,949,972,997,1045,1054,1065,1072,1077,1088,1090,1093,1095,1097,1101,1102,1104,1104,1104,1105],"ymouse":[520,520,520,520,520,520,520,520,520,520,520,520,520,520,520,518,517,516,512,508,503,498,488,479,474,471,467,462,451,446,439,433,426,416,413,410,408,406,404,402,401,399,397,389,383,377,369,354,318,287,257,230,205,166,159,154,150,147,140,139,136,133,130,120,116,112,107,101,87],"timestamp_mouse":[9,33,46,67,86,107,126,146,167,187,206,226,248,267,286,306,328,347,366,388,406,427,448,466,486,506,526,547,566,586,607,626,646,666,686,707,726,747,767,787,806,826,847,866,886,906,927,947,967,987,1006,1026,1046,1067,1087,1106,1127,1146,1166,1187,1206,1227,1248,1266,1287,1306,1327,1346,1366],"xSR":741.5,"ySR":481,"xT1":424.9,"yT1":0,"xT2":1058.1,"yT2":0,"toosoon":0,"cond_shown":"Congruent","ratio_trial":300,"L_num":4,"L_den":20,"R_num":13,"R_den":26,"correct_side":2,"subjID":"ValerieCatalinaMolanoOsorio13","gender":"1","school":"cafam","age":"11"},{"start_time":1551800782124,"click_time":1551800783420,"finger_time":1551800782921,"fix_duration":1482.9723498532933,"trial":35,"RT":797,"MT":499,"sideResp":1,"stimulus":[],"xmouse":[797,797,797,797,797,797,797,797,797,797,797,797,797,797,797,797,797,797,797,797,797,797,797,797,797,797,797,797,797,797,797,797,797,797,797,797,797,798,798,793,781,763,743,716,643,621,600,584,576,575,575,575,575,575,575,574,573,570,565,555,548,539,532,525,515],"ymouse":[528,528,528,528,528,528,528,528,528,528,528,528,528,528,528,528,527,527,527,527,527,527,526,526,526,526,526,526,526,526,526,526,525,525,523,521,519,515,507,465,434,395,346,287,139,97,66,44,34,32,32,32,32,32,32,32,30,28,27,23,22,20,20,20,20],"timestamp_mouse":[16,36,56,76,96,117,138,157,176,196,218,236,257,276,296,316,337,357,377,397,416,437,457,476,497,517,536,556,576,597,616,636,656,676,696,717,736,756,776,797,817,836,856,876,896,917,937,956,977,996,1016,1037,1056,1077,1096,1117,1136,1157,1177,1196,1216,1236,1256,1277,1296],"xSR":741.5,"ySR":481,"xT1":424.9,"yT1":0,"xT2":1058.1,"yT2":0,"toosoon":0,"cond_shown":"Incongruent","ratio_trial":300,"L_num":8,"L_den":10,"R_num":9,"R_den":18,"correct_side":1,"subjID":"ValerieCatalinaMolanoOsorio13","gender":"1","school":"cafam","age":"11"},{"start_time":1551800786368,"click_time":1551800787320,"finger_time":1551800787080,"fix_duration":1367.2000036340614,"trial":36,"RT":712,"MT":240,"sideResp":2,"stimulus":[],"xmouse":[799,799,799,799,799,799,799,799,799,799,799,799,799,799,799,799,799,799,799,799,799,799,799,799,799,799,799,799,799,799,800,800,805,808,814,827,844,890,921,947,976,999,1049,1064,1077,1086,1089,1095],"ymouse":[525,525,525,525,525,525,525,525,525,525,525,525,525,525,525,525,525,525,525,525,525,524,523,523,522,522,520,520,519,518,518,517,507,498,485,466,442,380,343,305,271,239,173,153,137,121,112,96],"timestamp_mouse":[12,40,52,74,93,113,132,152,173,192,214,233,253,274,292,313,333,352,372,393,412,432,452,474,492,512,532,552,573,593,612,633,652,673,693,712,732,752,773,793,812,833,852,873,892,913,933,952],"xSR":741.5,"ySR":481,"xT1":424.9,"yT1":0,"xT2":1058.1,"yT2":0,"toosoon":0,"cond_shown":"Congruent","ratio_trial":300,"L_num":7,"L_den":14,"R_num":20,"R_den":25,"correct_side":2,"subjID":"ValerieCatalinaMolanoOsorio13","gender":"1","school":"cafam","age":"11"},{"start_time":1551800789641,"click_time":1551800791021,"finger_time":1551800790401,"fix_duration":1239.0744885618078,"trial":37,"RT":760,"MT":620,"sideResp":1,"stimulus":[],"xmouse":[807,807,807,807,807,807,807,807,807,807,807,807,807,807,807,807,807,807,807,807,807,807,807,807,807,807,807,807,807,807,807,807,807,807,807,807,807,803,784,742,710,679,647,621,585,577,576,575,575,575,575,574,570,568,560,556,551,545,540,530,527,523,522,521,517,514,512,510,503,478],"ymouse":[511,511,511,511,511,511,511,511,511,511,511,511,511,511,511,511,511,511,511,511,511,511,511,511,511,511,511,511,511,511,511,511,511,511,510,505,498,485,454,401,370,338,305,278,243,234,231,230,230,230,230,229,226,224,219,215,211,207,201,189,184,180,177,174,167,161,154,142,126,65],"timestamp_mouse":[1,20,44,60,79,100,119,140,161,179,199,221,239,260,281,299,320,339,359,380,399,419,440,459,479,499,521,540,560,579,599,620,640,659,679,701,719,740,760,779,799,819,839,860,879,900,920,939,959,980,1000,1019,1039,1060,1080,1099,1119,1139,1160,1180,1199,1219,1239,1259,1279,1299,1320,1339,1359,1380],"xSR":741.5,"ySR":481,"xT1":424.9,"yT1":0,"xT2":1058.1,"yT2":0,"toosoon":0,"cond_shown":"Incongruent","ratio_trial":300,"L_num":4,"L_den":5,"R_num":6,"R_den":12,"correct_side":1,"subjID":"ValerieCatalinaMolanoOsorio13","gender":"1","school":"cafam","age":"11"},{"start_time":1551800792171,"click_time":1551800793341,"finger_time":1551800792820,"fix_duration":250,"trial":38,"RT":649,"MT":521,"sideResp":1,"stimulus":[],"xmouse":[794,794,794,794,794,794,794,794,794,794,794,794,794,794,794,794,794,794,794,794,794,794,794,794,794,794,794,793,791,790,785,778,752,738,719,705,690,663,657,650,645,640,627,622,618,614,608,600,596,589,584,575,552,545,536,531,529,524,522],"ymouse":[515,515,515,515,515,515,515,515,515,515,515,515,515,515,515,515,515,515,515,515,515,515,515,515,515,515,514,511,505,500,493,484,456,441,428,416,401,372,363,354,347,339,324,316,309,300,293,275,265,252,236,218,165,147,131,118,109,100,97],"timestamp_mouse":[13,39,49,71,90,110,129,149,170,189,211,231,249,269,289,310,329,349,370,389,409,429,451,470,489,509,530,549,569,589,609,629,649,669,690,709,729,750,769,789,809,829,849,871,889,909,929,949,970,989,1010,1031,1049,1070,1089,1110,1129,1149,1170],"xSR":741.5,"ySR":481,"xT1":424.9,"yT1":0,"xT2":1058.1,"yT2":0,"toosoon":0,"cond_shown":"Congruent","ratio_trial":100,"L_num":1,"L_den":2,"R_num":18,"R_den":30,"correct_side":2,"subjID":"ValerieCatalinaMolanoOsorio13","gender":"1","school":"cafam","age":"11"},{"start_time":1551800795177,"click_time":1551800796901,"finger_time":1551800796240,"fix_duration":536.6584653562592,"trial":39,"RT":1063,"MT":661,"sideResp":1,"stimulus":[],"xmouse":[808,808,808,808,808,808,808,808,808,808,808,808,808,808,808,808,808,808,808,808,808,808,808,808,808,808,808,808,808,808,808,808,808,808,808,808,808,808,808,808,808,808,808,808,808,808,808,808,808,808,808,807,795,787,774,758,739,697,678,662,648,637,623,619,614,612,608,596,592,584,577,568,543,532,523,516,508,493,484,473,464,457,446,446,446,446,444],"ymouse":[513,513,513,513,513,513,513,513,513,513,513,513,513,513,513,513,513,513,513,513,513,513,513,513,513,513,513,513,513,513,513,513,513,513,513,513,513,513,513,513,513,513,513,513,513,513,513,513,513,512,511,503,485,471,455,433,404,340,311,285,263,249,230,225,219,215,210,197,190,182,175,167,150,142,135,129,124,119,116,111,106,104,100,100,100,100,99],"timestamp_mouse":[11,23,43,64,84,103,124,143,163,183,204,224,244,263,283,303,324,343,363,383,403,424,443,463,483,503,523,543,563,583,603,623,643,665,683,703,723,745,763,784,803,823,844,863,883,904,923,943,964,983,1004,1024,1044,1063,1083,1103,1124,1143,1165,1183,1203,1224,1243,1264,1283,1303,1323,1343,1363,1384,1403,1423,1443,1463,1483,1503,1523,1543,1563,1584,1605,1623,1643,1663,1683,1703,1724],"xSR":741.5,"ySR":481,"xT1":424.9,"yT1":0,"xT2":1058.1,"yT2":0,"toosoon":0,"cond_shown":"Incongruent","ratio_trial":200,"L_num":3,"L_den":4,"R_num":11,"R_den":20,"correct_side":1,"subjID":"ValerieCatalinaMolanoOsorio13","gender":"1","school":"cafam","age":"11"},{"start_time":1551800798332,"click_time":1551800799920,"finger_time":1551800799300,"fix_duration":250,"trial":40,"RT":968,"MT":620,"sideResp":2,"stimulus":[],"xmouse":[819,819,819,819,819,819,819,819,819,819,819,819,819,819,819,819,819,819,819,819,819,819,819,819,819,819,819,819,819,819,819,819,819,819,819,819,819,819,819,819,819,822,823,824,830,832,836,838,844,858,866,875,885,900,921,934,946,958,973,998,1012,1019,1029,1036,1053,1061,1069,1077,1083,1093,1096,1098,1098,1098,1098,1098,1098,1099,1099,1099],"ymouse":[494,494,494,494,494,494,494,494,494,494,494,494,494,494,494,494,494,494,494,494,494,494,494,494,494,494,494,494,494,494,494,494,494,494,494,494,494,494,494,494,494,494,494,494,493,492,489,487,483,472,463,456,444,424,398,382,365,347,330,294,273,255,236,218,183,169,158,147,140,127,123,121,119,119,116,114,111,108,101,89],"timestamp_mouse":[11,36,49,69,88,109,130,148,168,189,208,229,248,268,288,308,329,348,370,388,408,428,450,468,488,509,528,549,568,588,608,628,648,668,688,708,728,748,768,788,809,828,849,869,888,908,928,949,968,988,1008,1028,1048,1068,1088,1109,1128,1150,1169,1188,1208,1229,1249,1268,1288,1309,1328,1348,1369,1388,1409,1429,1448,1468,1488,1508,1528,1548,1569,1588],"xSR":741.5,"ySR":481,"xT1":424.9,"yT1":0,"xT2":1058.1,"yT2":0,"toosoon":0,"cond_shown":"Incongruent","ratio_trial":300,"L_num":13,"L_den":26,"R_num":12,"R_den":15,"correct_side":2,"subjID":"ValerieCatalinaMolanoOsorio13","gender":"1","school":"cafam","age":"11"},{"start_time":1551800802991,"click_time":1551800804582,"finger_time":1551800804062,"fix_duration":250,"trial":41,"RT":1071,"MT":520,"sideResp":2,"stimulus":[],"xmouse":[780,780,780,780,780,780,780,780,780,780,780,780,780,780,780,780,780,780,780,780,780,780,780,780,780,780,780,780,780,780,780,780,780,780,780,780,780,780,780,780,780,780,780,780,780,781,783,784,785,787,788,808,824,844,863,888,946,976,1009,1037,1060,1093,1099,1105,1111,1114,1119,1120,1121,1121,1121,1117,1114,1113,1112,1111,1109,1108,1107,1105],"ymouse":[539,539,539,538,538,538,538,538,538,538,538,538,538,538,538,538,538,538,538,538,538,538,538,538,538,538,538,538,538,538,538,538,538,538,538,538,538,538,538,538,538,538,538,538,538,538,538,538,538,538,538,525,514,496,477,452,389,359,326,296,272,226,217,208,199,191,178,171,166,161,157,144,140,135,131,129,117,108,100,88],"timestamp_mouse":[11,46,49,70,89,111,129,149,170,190,210,229,250,271,290,309,329,349,369,389,409,430,449,470,489,510,530,550,569,589,609,629,650,670,689,711,730,750,770,790,810,830,851,871,891,910,930,950,971,991,1011,1030,1051,1071,1091,1110,1130,1150,1170,1191,1210,1231,1250,1270,1290,1310,1330,1350,1370,1390,1410,1430,1450,1470,1490,1510,1530,1551,1570,1591],"xSR":741.5,"ySR":481,"xT1":424.9,"yT1":0,"xT2":1058.1,"yT2":0,"toosoon":0,"cond_shown":"Congruent","ratio_trial":300,"L_num":2,"L_den":10,"R_num":12,"R_den":24,"correct_side":2,"subjID":"ValerieCatalinaMolanoOsorio13","gender":"1","school":"cafam","age":"11"},{"start_time":1551800806666,"click_time":1551800807721,"finger_time":1551800807442,"fix_duration":743.8057441376029,"trial":42,"RT":7