[{"start_time":1551901451882,"click_time":1551901452720,"finger_time":1551901452639,"fix_duration":316.3921443291806,"trial":0,"RT":757,"MT":81,"sideResp":1,"stimulus":"img/250/equaldotanddens/L/1_Ratio_250_L_8_R_2.png","xmouse":[791,791,791,791,791,791,791,791,791,791,791,791,791,791,791,791,791,791,791,791,791,791,791,791,791,791,791,791,791,791,791,791,791,791,791,791,791,784,730,663,583,525,505],"ymouse":[495,495,495,495,495,495,495,495,495,495,495,495,495,495,495,495,495,495,495,495,495,495,495,495,495,495,495,495,495,495,495,495,495,495,495,495,495,478,387,289,176,82,17],"timestamp_mouse":[8,18,47,57,77,97,117,137,158,178,198,217,237,258,278,297,317,337,357,378,398,417,438,458,478,498,517,538,558,577,597,617,637,658,679,697,718,737,757,777,797,817,838],"xSR":741.5,"ySR":469.95,"xT1":424.9,"yT1":0,"xT2":1058.1,"yT2":0,"toosoon":0,"cond_shown":"equaldotanddens","ratio_trial":250,"smaller_num":"2","larger_num":"8","correct_side":1,"subjID":"valerybonilla19","gender":"1","age":"11","school":"6","test":{"fix_dur":[250,1500],"timestim":300,"targets_dim":[100,100],"targets_relative_coord":[0.3,0.7],"size_stim":[880,420],"start_dim":[100,100],"size_start":[300,300],"size_fix":60,"samplingrate":20,"img_types":["equaldotsize","equaldotanddens","randomdotsizeEA"],"ratios":[250,500,750,900],"rep_conds":9,"nTrials":120,"trials_to_rest":500,"Trials_order":[61,107,36,30,117,16,4,84,3,114,65,34,99,70,50,46,39,95,104,109,22,47,33,10,20,118,77,35,106,21,25,28,48,72,7,49,105,59,111,75,13,82,26,18,64,66,69,94,87,67,27,15,6,57,88,83,5,44,85,74,108,119,100,93,97,38,73,53,19,79,23,68,92,9,58,63,12,110,60,56,43,31,42,113,14,71,41,37,62,54,80,98,29,24,96,8,89,76,103,0,91,40,55,45,86,115,81,2,116,112,32,1,78,17,52,11,51,90,102,101],"cond_shown":["equaldotanddens","randomdotsizeEA","equaldotsize","equaldotsize","equaldotsize","equaldotanddens","equaldotanddens","equaldotsize","equaldotsize","equaldotsize","randomdotsizeEA","equaldotanddens","equaldotsize","equaldotanddens","randomdotsizeEA","equaldotanddens","equaldotsize","randomdotsizeEA","randomdotsizeEA","equaldotanddens","equaldotanddens","randomdotsizeEA","equaldotsize","equaldotanddens","randomdotsizeEA","equaldotanddens","randomdotsizeEA","randomdotsizeEA","equaldotanddens","equaldotsize","equaldotanddens","equaldotanddens","equaldotsize","equaldotsize","equaldotanddens","equaldotanddens","equaldotsize","randomdotsizeEA","equaldotsize","equaldotsize","equaldotanddens","equaldotanddens","randomdotsizeEA","equaldotsize","equaldotanddens","equaldotsize","equaldotsize","equaldotanddens","equaldotsize","equaldotanddens","equaldotsize","equaldotsize","equaldotsize","equaldotsize","equaldotanddens","randomdotsizeEA","randomdotsizeEA","randomdotsizeEA","equaldotanddens","randomdotsizeEA","equaldotsize","randomdotsizeEA","equaldotanddens","equaldotsize","equaldotanddens","randomdotsizeEA","equaldotanddens","randomdotsizeEA","equaldotanddens","equaldotanddens","randomdotsizeEA","randomdotsizeEA","randomdotsizeEA","equaldotsize","equaldotanddens","equaldotsize","equaldotsize","randomdotsizeEA","equaldotsize","randomdotsizeEA","equaldotanddens","equaldotanddens","equaldotsize","randomdotsizeEA","randomdotsizeEA","randomdotsizeEA","randomdotsizeEA","equaldotanddens","randomdotsizeEA","equaldotsize","randomdotsizeEA","randomdotsizeEA","randomdotsizeEA","equaldotsize","equaldotsize","randomdotsizeEA","randomdotsizeEA","equaldotanddens","equaldotanddens","equaldotsize","equaldotanddens","equaldotanddens","equaldotanddens","equaldotsize","randomdotsizeEA","equaldotanddens","equaldotsize","randomdotsizeEA","randomdotsizeEA","equaldotanddens","randomdotsizeEA","equaldotanddens","equaldotsize","randomdotsizeEA","equaldotanddens","randomdotsizeEA","equaldotsize","equaldotsize","equaldotsize","randomdotsizeEA"],"ratio_trial":[250,900,250,750,900,500,500,250,500,750,500,900,500,900,250,900,500,900,750,250,900,900,900,900,750,900,500,900,900,900,250,500,250,250,750,250,900,900,500,500,250,900,250,750,500,750,900,900,500,750,500,500,750,900,500,900,500,750,250,250,250,900,500,900,250,250,250,500,750,750,900,750,750,900,900,500,250,250,250,750,750,750,750,500,250,900,500,250,250,750,750,250,500,250,250,750,500,500,750,250,750,500,750,900,250,750,900,250,750,500,750,250,750,500,500,900,500,750,750,500],"smaller_num":["2","18","3","6","18","1","4","1","5","9","2","9","4","18","5","18","2","18","3","3","18","18","9","9","12","9","6","18","18","18","6","3","2","3","3","1","18","18","1","9","1","9","3","15","4","12","18","18","6","3","2","4","15","9","6","18","9","15","3","2","6","18","9","18","2","6","2","9","6","3","9","6","9","9","18","9","3","4","5","3","3","9","6","2","6","18","6","2","4","15","3","4","10","4","3","9","4","9","9","2","6","9","18","18","2","15","18","1","3","1","6","2","15","4","6","18","2","6","6","2"],"larger_num":["8","20","12","8","20","2","8","4","10","12","4","10","8","20","20","20","4","20","4","12","20","20","10","10","16","10","12","20","20","20","24","6","8","12","4","4","20","20","2","18","4","10","12","20","8","16","20","20","12","4","4","8","20","10","12","20","18","20","12","8","24","20","18","20","8","24","8","18","8","4","10","8","12","10","20","18","12","16","20","4","4","12","8","4","24","20","12","8","16","20","4","16","20","16","12","12","8","18","12","8","8","18","24","20","8","20","20","4","4","2","8","8","20","8","12","20","4","8","8","4"],"correct_side":[1,1,2,1,1,2,1,2,1,2,2,2,1,2,2,1,2,1,1,1,1,2,2,2,2,1,1,2,2,2,1,2,2,2,1,2,1,2,2,1,2,2,2,2,1,2,1,1,1,1,1,1,1,1,1,2,1,1,1,2,2,2,2,2,1,1,1,2,1,1,2,2,2,1,1,1,2,2,2,1,1,2,1,1,1,2,1,1,2,2,1,2,2,1,1,2,1,1,2,1,1,1,1,1,2,2,1,2,1,2,2,1,1,1,1,1,1,1,1,1],"img_shown":["img/250/equaldotanddens/L/1_Ratio_250_L_8_R_2.png","img/900/randomdotsizeEA/L/2_Ratio_900_L_20_R_18.png","img/250/equaldotsize/R/11_Ratio_250_L_3_R_12.png","img/750/equaldotsize/L/13_Ratio_750_L_8_R_6.png","img/900/equaldotsize/L/4_Ratio_900_L_20_R_18.png","img/500/equaldotanddens/R/12_Ratio_500_L_1_R_2.png","img/500/equaldotanddens/L/8_Ratio_500_L_8_R_4.png","img/250/equaldotsize/R/8_Ratio_250_L_1_R_4.png","img/500/equaldotsize/L/7_Ratio_500_L_10_R_5.png","img/750/equaldotsize/R/15_Ratio_750_L_9_R_12.png","img/500/randomdotsizeEA/R/9_Ratio_500_L_2_R_4.png","img/900/equaldotanddens/R/15_Ratio_900_L_9_R_10.png","img/500/equaldotsize/L/8_Ratio_500_L_8_R_4.png","img/900/equaldotanddens/R/14_Ratio_900_L_18_R_20.png","img/250/randomdotsizeEA/R/12_Ratio_250_L_5_R_20.png","img/900/equaldotanddens/L/8_Ratio_900_L_20_R_18.png","img/500/equaldotsize/R/9_Ratio_500_L_2_R_4.png","img/900/randomdotsizeEA/L/8_Ratio_900_L_20_R_18.png","img/750/randomdotsizeEA/L/9_Ratio_750_L_4_R_3.png","img/250/equaldotanddens/L/14_Ratio_250_L_12_R_3.png","img/900/equaldotanddens/L/2_Ratio_900_L_20_R_18.png","img/900/randomdotsizeEA/R/13_Ratio_900_L_18_R_20.png","img/900/equaldotsize/R/15_Ratio_900_L_9_R_10.png","img/900/equaldotanddens/R/6_Ratio_900_L_9_R_10.png","img/750/randomdotsizeEA/R/11_Ratio_750_L_12_R_16.png","img/900/equaldotanddens/L/1_Ratio_900_L_10_R_9.png","img/500/randomdotsizeEA/L/13_Ratio_500_L_12_R_6.png","img/900/randomdotsizeEA/R/13_Ratio_900_L_18_R_20.png","img/900/equaldotanddens/R/11_Ratio_900_L_18_R_20.png","img/900/equaldotsize/R/11_Ratio_900_L_18_R_20.png","img/250/equaldotanddens/L/5_Ratio_250_L_24_R_6.png","img/500/equaldotanddens/R/2_Ratio_500_L_3_R_6.png","img/250/equaldotsize/R/13_Ratio_250_L_2_R_8.png","img/250/equaldotsize/R/9_Ratio_250_L_3_R_12.png","img/750/equaldotanddens/L/8_Ratio_750_L_4_R_3.png","img/250/equaldotanddens/R/8_Ratio_250_L_1_R_4.png","img/900/equaldotsize/L/10_Ratio_900_L_20_R_18.png","img/900/randomdotsizeEA/R/12_Ratio_900_L_18_R_20.png","img/500/equaldotsize/R/12_Ratio_500_L_1_R_2.png","img/500/equaldotsize/L/4_Ratio_500_L_18_R_9.png","img/250/equaldotanddens/R/8_Ratio_250_L_1_R_4.png","img/900/equaldotanddens/R/15_Ratio_900_L_9_R_10.png","img/250/randomdotsizeEA/R/4_Ratio_250_L_3_R_12.png","img/750/equaldotsize/R/4_Ratio_750_L_15_R_20.png","img/500/equaldotanddens/L/8_Ratio_500_L_8_R_4.png","img/750/equaldotsize/R/11_Ratio_750_L_12_R_16.png","img/900/equaldotsize/L/10_Ratio_900_L_20_R_18.png","img/900/equaldotanddens/L/8_Ratio_900_L_20_R_18.png","img/500/equaldotsize/L/13_Ratio_500_L_12_R_6.png","img/750/equaldotanddens/L/9_Ratio_750_L_4_R_3.png","img/500/equaldotsize/L/5_Ratio_500_L_4_R_2.png","img/500/equaldotsize/L/8_Ratio_500_L_8_R_4.png","img/750/equaldotsize/L/1_Ratio_750_L_20_R_15.png","img/900/equaldotsize/L/1_Ratio_900_L_10_R_9.png","img/500/equaldotanddens/L/11_Ratio_500_L_12_R_6.png","img/900/randomdotsizeEA/R/13_Ratio_900_L_18_R_20.png","img/500/randomdotsizeEA/L/4_Ratio_500_L_18_R_9.png","img/750/randomdotsizeEA/L/1_Ratio_750_L_20_R_15.png","img/250/equaldotanddens/L/14_Ratio_250_L_12_R_3.png","img/250/randomdotsizeEA/R/13_Ratio_250_L_2_R_8.png","img/250/equaldotsize/R/6_Ratio_250_L_6_R_24.png","img/900/randomdotsizeEA/R/12_Ratio_900_L_18_R_20.png","img/500/equaldotanddens/R/1_Ratio_500_L_9_R_18.png","img/900/equaldotsize/R/9_Ratio_900_L_18_R_20.png","img/250/equaldotanddens/L/1_Ratio_250_L_8_R_2.png","img/250/randomdotsizeEA/L/5_Ratio_250_L_24_R_6.png","img/250/equaldotanddens/L/7_Ratio_250_L_8_R_2.png","img/500/randomdotsizeEA/R/6_Ratio_500_L_9_R_18.png","img/750/equaldotanddens/L/14_Ratio_750_L_8_R_6.png","img/750/equaldotanddens/L/10_Ratio_750_L_4_R_3.png","img/900/randomdotsizeEA/R/7_Ratio_900_L_9_R_10.png","img/750/randomdotsizeEA/R/2_Ratio_750_L_6_R_8.png","img/750/randomdotsizeEA/R/15_Ratio_750_L_9_R_12.png","img/900/equaldotsize/L/1_Ratio_900_L_10_R_9.png","img/900/equaldotanddens/L/4_Ratio_900_L_20_R_18.png","img/500/equaldotsize/L/4_Ratio_500_L_18_R_9.png","img/250/equaldotsize/R/4_Ratio_250_L_3_R_12.png","img/250/randomdotsizeEA/R/10_Ratio_250_L_4_R_16.png","img/250/equaldotsize/R/12_Ratio_250_L_5_R_20.png","img/750/randomdotsizeEA/L/9_Ratio_750_L_4_R_3.png","img/750/equaldotanddens/L/10_Ratio_750_L_4_R_3.png","img/750/equaldotanddens/R/15_Ratio_750_L_9_R_12.png","img/750/equaldotsize/L/13_Ratio_750_L_8_R_6.png","img/500/randomdotsizeEA/L/5_Ratio_500_L_4_R_2.png","img/250/randomdotsizeEA/L/5_Ratio_250_L_24_R_6.png","img/900/randomdotsizeEA/R/12_Ratio_900_L_18_R_20.png","img/500/randomdotsizeEA/L/11_Ratio_500_L_12_R_6.png","img/250/equaldotanddens/L/1_Ratio_250_L_8_R_2.png","img/250/randomdotsizeEA/R/10_Ratio_250_L_4_R_16.png","img/750/equaldotsize/R/5_Ratio_750_L_15_R_20.png","img/750/randomdotsizeEA/L/8_Ratio_750_L_4_R_3.png","img/250/randomdotsizeEA/R/10_Ratio_250_L_4_R_16.png","img/500/randomdotsizeEA/R/3_Ratio_500_L_10_R_20.png","img/250/equaldotsize/L/2_Ratio_250_L_16_R_4.png","img/250/equaldotsize/L/15_Ratio_250_L_12_R_3.png","img/750/randomdotsizeEA/R/15_Ratio_750_L_9_R_12.png","img/500/randomdotsizeEA/L/8_Ratio_500_L_8_R_4.png","img/500/equaldotanddens/L/4_Ratio_500_L_18_R_9.png","img/750/equaldotanddens/R/15_Ratio_750_L_9_R_12.png","img/250/equaldotsize/L/1_Ratio_250_L_8_R_2.png","img/750/equaldotanddens/L/13_Ratio_750_L_8_R_6.png","img/500/equaldotanddens/L/4_Ratio_500_L_18_R_9.png","img/750/equaldotanddens/L/6_Ratio_750_L_24_R_18.png","img/900/equaldotsize/L/2_Ratio_900_L_20_R_18.png","img/250/randomdotsizeEA/R/13_Ratio_250_L_2_R_8.png","img/750/equaldotanddens/R/3_Ratio_750_L_15_R_20.png","img/900/equaldotsize/L/4_Ratio_900_L_20_R_18.png","img/250/randomdotsizeEA/R/8_Ratio_250_L_1_R_4.png","img/750/randomdotsizeEA/L/9_Ratio_750_L_4_R_3.png","img/500/equaldotanddens/R/12_Ratio_500_L_1_R_2.png","img/750/randomdotsizeEA/R/2_Ratio_750_L_6_R_8.png","img/250/equaldotanddens/L/3_Ratio_250_L_8_R_2.png","img/750/equaldotsize/L/1_Ratio_750_L_20_R_15.png","img/500/randomdotsizeEA/L/8_Ratio_500_L_8_R_4.png","img/500/equaldotanddens/L/13_Ratio_500_L_12_R_6.png","img/900/randomdotsizeEA/L/10_Ratio_900_L_20_R_18.png","img/500/equaldotsize/L/5_Ratio_500_L_4_R_2.png","img/750/equaldotsize/L/14_Ratio_750_L_8_R_6.png","img/750/equaldotsize/L/13_Ratio_750_L_8_R_6.png","img/500/randomdotsizeEA/L/10_Ratio_500_L_4_R_2.png"],"Rat0":[["12_Ratio_0_L_9_R_0.png","13_Ratio_0_L_6_R_0.png","5_Ratio_0_L_2_R_0.png","6_Ratio_0_L_4_R_0.png","8_Ratio_0_L_6_R_0.png"],["1_Ratio_0_L_0_R_17.png","10_Ratio_0_L_0_R_22.png","11_Ratio_0_L_0_R_1.png","14_Ratio_0_L_0_R_24.png","15_Ratio_0_L_0_R_4.png","2_Ratio_0_L_0_R_5.png","3_Ratio_0_L_0_R_17.png","4_Ratio_0_L_0_R_7.png","7_Ratio_0_L_0_R_19.png","9_Ratio_0_L_0_R_15.png"]],"Rat250":[["1_Ratio_250_L_8_R_2.png","14_Ratio_250_L_12_R_3.png","15_Ratio_250_L_12_R_3.png","2_Ratio_250_L_16_R_4.png","3_Ratio_250_L_8_R_2.png","5_Ratio_250_L_24_R_6.png","7_Ratio_250_L_8_R_2.png"],["10_Ratio_250_L_4_R_16.png","11_Ratio_250_L_3_R_12.png","12_Ratio_250_L_5_R_20.png","13_Ratio_250_L_2_R_8.png","4_Ratio_250_L_3_R_12.png","6_Ratio_250_L_6_R_24.png","8_Ratio_250_L_1_R_4.png","9_Ratio_250_L_3_R_12.png"]],"Rat500":[["10_Ratio_500_L_4_R_2.png","11_Ratio_500_L_12_R_6.png","13_Ratio_500_L_12_R_6.png","4_Ratio_500_L_18_R_9.png","5_Ratio_500_L_4_R_2.png","7_Ratio_500_L_10_R_5.png","8_Ratio_500_L_8_R_4.png"],["1_Ratio_500_L_9_R_18.png","12_Ratio_500_L_1_R_2.png","14_Ratio_500_L_5_R_10.png","15_Ratio_500_L_1_R_2.png","2_Ratio_500_L_3_R_6.png","3_Ratio_500_L_10_R_20.png","6_Ratio_500_L_9_R_18.png","9_Ratio_500_L_2_R_4.png"]],"Rat750":[["1_Ratio_750_L_20_R_15.png","10_Ratio_750_L_4_R_3.png","13_Ratio_750_L_8_R_6.png","14_Ratio_750_L_8_R_6.png","6_Ratio_750_L_24_R_18.png","8_Ratio_750_L_4_R_3.png","9_Ratio_750_L_4_R_3.png"],["11_Ratio_750_L_12_R_16.png","12_Ratio_750_L_3_R_4.png","15_Ratio_750_L_9_R_12.png","2_Ratio_750_L_6_R_8.png","3_Ratio_750_L_15_R_20.png","4_Ratio_750_L_15_R_20.png","5_Ratio_750_L_15_R_20.png","7_Ratio_750_L_3_R_4.png"]],"Rat900":[["1_Ratio_900_L_10_R_9.png","10_Ratio_900_L_20_R_18.png","2_Ratio_900_L_20_R_18.png","4_Ratio_900_L_20_R_18.png","8_Ratio_900_L_20_R_18.png"],["11_Ratio_900_L_18_R_20.png","12_Ratio_900_L_18_R_20.png","13_Ratio_900_L_18_R_20.png","14_Ratio_900_L_18_R_20.png","15_Ratio_900_L_9_R_10.png","3_Ratio_900_L_9_R_10.png","5_Ratio_900_L_9_R_10.png","6_Ratio_900_L_9_R_10.png","7_Ratio_900_L_9_R_10.png","9_Ratio_900_L_18_R_20.png"]],"Rat1000":[["10_Ratio_1000_L_16_R_16.png","11_Ratio_1000_L_6_R_6.png","12_Ratio_1000_L_14_R_14.png","13_Ratio_1000_L_20_R_20.png","15_Ratio_1000_L_15_R_15.png","2_Ratio_1000_L_17_R_17.png","4_Ratio_1000_L_9_R_9.png","5_Ratio_1000_L_6_R_6.png","6_Ratio_1000_L_19_R_19.png","8_Ratio_1000_L_14_R_14.png","9_Ratio_1000_L_25_R_25.png"],["1_Ratio_1000_L_1_R_1.png","14_Ratio_1000_L_17_R_17.png","3_Ratio_1000_L_17_R_17.png","7_Ratio_1000_L_6_R_6.png"]]}},{"start_time":1551901453973,"click_time":1551901454980,"finger_time":1551901454659,"fix_duration":330.01953780424776,"trial":1,"RT":686,"MT":321,"sideResp":2,"stimulus":"img/900/randomdotsizeEA/L/2_Ratio_900_L_20_R_18.png","xmouse":[827,827,827,827,827,827,827,827,827,827,827,827,827,827,827,827,827,827,827,827,827,827,827,826,826,824,823,822,822,822,822,821,821,821,830,844,858,883,887,890,891,897,911,962,974,988,1002,1027,1036,1052,1065],"ymouse":[511,511,511,511,511,511,511,511,511,511,511,511,511,511,511,511,511,511,511,511,511,511,511,512,512,510,510,510,509,509,509,507,501,480,449,408,361,296,287,283,282,276,266,228,214,200,189,161,143,113,81],"timestamp_mouse":[10,31,46,66,87,106,126,146,166,187,206,226,247,267,286,307,326,346,367,387,406,427,447,466,486,506,526,547,566,588,606,627,647,666,686,707,727,747,766,787,806,826,846,866,887,907,926,947,966,986,1007],"xSR":741.5,"ySR":469.95,"xT1":424.9,"yT1":0,"xT2":1058.1,"yT2":0,"toosoon":0,"cond_shown":"randomdotsizeEA","ratio_trial":900,"smaller_num":"18","larger_num":"20","correct_side":1,"subjID":"valerybonilla19","gender":"1","age":"11","school":"6"},{"start_time":1551901456312,"click_time":1551901457299,"finger_time":1551901456859,"fix_duration":611.9414087375161,"trial":2,"RT":547,"MT":440,"sideResp":2,"stimulus":"img/250/equaldotsize/R/11_Ratio_250_L_3_R_12.png","xmouse":[800,800,800,800,800,800,800,800,800,800,800,800,800,800,800,800,800,800,800,800,800,800,800,800,800,800,828,858,883,903,927,941,957,981,1002,1022,1034,1034,1034,1034,1034,1034,1034,1034,1037,1048,1082,1094,1100,1101],"ymouse":[518,518,518,518,518,518,518,518,518,518,518,518,518,518,518,518,518,518,518,518,518,518,518,518,518,518,479,442,402,365,325,305,287,267,253,234,218,218,218,218,218,218,218,217,204,177,134,118,105,98],"timestamp_mouse":[13,40,48,68,87,109,128,147,167,187,208,227,247,267,287,307,327,349,368,387,407,427,447,468,488,507,528,547,567,588,608,627,647,667,688,707,727,748,767,787,807,827,847,868,887,907,927,947,967,987],"xSR":741.5,"ySR":469.95,"xT1":424.9,"yT1":0,"xT2":1058.1,"yT2":0,"toosoon":0,"cond_shown":"equaldotsize","ratio_trial":250,"smaller_num":"3","larger_num":"12","correct_side":2,"subjID":"valerybonilla19","gender":"1","age":"11","school":"6"},{"start_time":1551901458475,"click_time":1551901459519,"finger_time":1551901459139,"fix_duration":434.87854635239,"trial":3,"RT":664,"MT":380,"sideResp":1,"stimulus":"img/750/equaldotsize/L/13_Ratio_750_L_8_R_6.png","xmouse":[817,817,817,817,817,817,817,817,817,817,817,817,817,817,817,817,817,817,817,817,817,817,817,817,817,817,817,817,817,817,817,816,810,699,604,518,456,452,454,455,456,456,456,457,458,459,461,463,465,465,465,469,473],"ymouse":[507,507,507,507,507,507,507,507,507,507,507,507,507,507,507,507,507,507,507,507,507,507,507,507,507,507,507,507,507,507,507,507,499,387,318,263,227,224,216,213,208,204,201,196,195,189,181,172,145,131,118,101,90],"timestamp_mouse":[11,31,44,64,85,105,125,144,164,185,204,225,246,265,284,305,324,345,364,384,404,425,445,465,485,504,524,544,564,585,604,624,644,664,684,704,725,745,764,784,805,825,845,864,884,904,924,944,964,984,1004,1025,1044],"xSR":741.5,"ySR":469.95,"xT1":424.9,"yT1":0,"xT2":1058.1,"yT2":0,"toosoon":0,"cond_shown":"equaldotsize","ratio_trial":750,"smaller_num":"6","larger_num":"8","correct_side":1,"subjID":"valerybonilla19","gender":"1","age":"11","school":"6"},{"start_time":1551901461441,"click_time":1551901462500,"finger_time":1551901462239,"fix_duration":1001.3246894866744,"trial":4,"RT":798,"MT":261,"sideResp":2,"stimulus":"img/900/equaldotsize/L/4_Ratio_900_L_20_R_18.png","xmouse":[782,782,782,782,782,782,782,782,782,782,782,782,782,782,782,782,782,782,782,782,782,782,782,782,782,782,782,782,782,782,782,782,782,782,782,782,782,788,799,870,939,1005,1063,1104,1134,1139,1140,1140,1142,1148,1150,1151,1151],"ymouse":[503,503,503,503,503,503,503,503,503,503,503,503,503,503,503,503,499,499,499,499,499,499,499,499,499,499,499,499,499,499,499,499,499,499,499,499,498,489,478,433,399,363,331,303,267,247,236,222,210,171,144,115,84],"timestamp_mouse":[33,38,58,79,99,119,138,158,178,198,218,239,259,279,298,320,338,358,378,398,418,438,459,478,498,519,538,559,578,598,618,638,659,679,698,719,738,759,778,798,818,838,858,878,898,918,938,958,978,999,1018,1038,1059],"xSR":741.5,"ySR":469.95,"xT1":424.9,"yT1":0,"xT2":1058.1,"yT2":0,"toosoon":0,"cond_shown":"equaldotsize","ratio_trial":900,"smaller_num":"18","larger_num":"20","correct_side":1,"subjID":"valerybonilla19","gender":"1","age":"11","school":"6"},{"start_time":1551901464377,"click_time":1551901465441,"finger_time":1551901465099,"fix_duration":1157.5960181425824,"trial":5,"RT":722,"MT":342,"sideResp":2,"stimulus":"img/500/equaldotanddens/R/12_Ratio_500_L_1_R_2.png","xmouse":[760,760,760,760,760,760,760,760,760,760,760,760,760,760,760,760,760,760,760,760,760,760,760,760,760,760,760,760,760,760,760,760,760,761,791,820,883,909,1006,1141,1195,1225,1238,1243,1244,1244,1244,1236,1197,1183,1174,1165,1160,1145],"ymouse":[527,527,527,527,527,527,527,527,527,527,527,527,527,527,527,527,527,527,527,527,527,527,527,527,527,527,527,527,527,527,527,527,527,527,500,476,432,409,333,211,153,114,88,75,69,69,69,69,71,71,71,71,71,71],"timestamp_mouse":[10,31,43,62,83,102,123,142,162,182,203,223,242,263,282,302,323,342,362,382,403,422,443,463,483,502,522,542,563,582,603,622,643,662,682,703,722,743,762,782,802,822,843,864,883,904,922,942,963,982,1002,1022,1043,1063],"xSR":741.5,"ySR":469.95,"xT1":424.9,"yT1":0,"xT2":1058.1,"yT2":0,"toosoon":0,"cond_shown":"equaldotanddens","ratio_trial":500,"smaller_num":"1","larger_num":"2","correct_side":2,"subjID":"valerybonilla19","gender":"1","age":"11","school":"6"},{"start_time":1551901467200,"click_time":1551901468019,"finger_time":1551901467880,"fix_duration":978.6141126701286,"trial":6,"RT":680,"MT":139,"sideResp":1,"stimulus":"img/500/equaldotanddens/L/8_Ratio_500_L_8_R_4.png","xmouse":[788,788,788,788,788,788,788,788,788,788,788,788,788,788,788,788,788,788,788,788,788,788,788,788,788,788,788,788,788,788,788,788,788,788,778,770,718,671,575,536,501,472],"ymouse":[506,506,506,506,506,506,506,506,506,506,506,506,506,506,506,506,506,506,506,506,506,506,506,506,506,506,506,506,506,506,506,506,506,494,446,417,331,275,176,138,110,86],"timestamp_mouse":[1,19,41,59,79,99,119,139,159,179,199,219,239,259,279,300,319,339,359,379,400,419,441,460,480,500,519,539,560,580,600,621,640,659,680,699,720,740,759,779,799,819],"xSR":741.5,"ySR":469.95,"xT1":424.9,"yT1":0,"xT2":1058.1,"yT2":0,"toosoon":0,"cond_shown":"equaldotanddens","ratio_trial":500,"smaller_num":"4","larger_num":"8","correct_side":1,"subjID":"valerybonilla19","gender":"1","age":"11","school":"6"},{"start_time":1551901470174,"click_time":1551901471279,"finger_time":1551901471119,"fix_duration":1314.8767074696336,"trial":7,"RT":945,"MT":160,"sideResp":2,"stimulus":"img/250/equaldotsize/R/8_Ratio_250_L_1_R_4.png","xmouse":[808,808,808,808,808,808,808,808,808,808,808,808,808,808,808,808,808,808,808,808,808,808,808,808,808,808,808,808,808,808,808,808,808,808,808,808,808,808,808,808,808,808,808,808,808,808,812,814,817,819,834,849,877,916,1044,1140],"ymouse":[483,483,483,483,483,483,483,483,483,483,483,483,483,483,483,483,483,483,483,483,483,483,483,483,483,483,483,483,483,483,483,483,483,483,483,483,483,483,483,483,483,483,483,483,483,478,470,465,460,455,424,393,348,279,144,64],"timestamp_mouse":[19,34,46,65,85,106,125,145,165,185,205,226,245,266,285,305,325,345,365,385,406,426,445,465,485,506,525,545,565,585,605,625,645,666,685,706,725,745,765,785,806,826,845,865,885,905,925,945,965,985,1005,1025,1045,1065,1086,1105],"xSR":741.5,"ySR":469.95,"xT1":424.9,"yT1":0,"xT2":1058.1,"yT2":0,"toosoon":0,"cond_shown":"equaldotsize","ratio_trial":250,"smaller_num":"1","larger_num":"4","correct_side":2,"subjID":"valerybonilla19","gender":"1","age":"11","school":"6"},{"start_time":1551901472997,"click_time":1551901474019,"finger_time":1551901473699,"fix_duration":557.1983627630369,"trial":8,"RT":702,"MT":320,"sideResp":1,"stimulus":"img/500/equaldotsize/L/7_Ratio_500_L_10_R_5.png","xmouse":[744,744,744,744,744,744,744,744,744,744,744,744,744,744,744,744,744,744,744,744,744,744,744,744,744,744,744,744,744,744,744,744,744,744,744,744,738,729,710,669,640,616,596,587,558,535,517,511,507,507,507,507],"ymouse":[491,491,491,491,491,491,491,491,491,491,491,491,491,491,491,491,491,491,491,491,491,491,491,491,491,491,491,491,491,491,491,491,491,491,475,454,430,400,361,309,287,279,274,270,248,222,197,175,155,126,112,96],"timestamp_mouse":[10,32,43,63,82,102,124,142,163,183,202,222,242,263,282,302,322,343,362,382,402,422,442,463,483,502,523,542,563,583,602,622,643,662,682,702,723,743,762,782,802,823,842,862,882,902,922,942,962,982,1002,1022],"xSR":741.5,"ySR":469.95,"xT1":424.9,"yT1":0,"xT2":1058.1,"yT2":0,"toosoon":0,"cond_shown":"equaldotsize","ratio_trial":500,"smaller_num":"5","larger_num":"10","correct_side":1,"subjID":"valerybonilla19","gender":"1","age":"11","school":"6"},{"start_time":1551901476186,"click_time":1551901477779,"finger_time":1551901476979,"fix_duration":1485.2673872469932,"trial":9,"RT":793,"MT":800,"sideResp":2,"stimulus":"img/750/equaldotsize/R/15_Ratio_750_L_9_R_12.png","xmouse":[800,800,800,800,800,800,800,800,800,800,800,800,800,800,800,800,800,800,800,800,800,800,800,800,800,800,800,800,800,800,800,800,800,800,800,800,808,816,828,852,865,870,875,884,915,932,955,977,992,1013,1018,1021,1025,1027,1035,1040,1046,1051,1051,1051,1054,1063,1074,1083,1087,1087,1089,1091,1093,1095,1095,1095,1095,1095,1095,1095,1098,1101,1106,1113],"ymouse":[538,538,538,538,538,538,538,538,538,538,538,538,538,538,538,538,538,538,538,538,538,538,538,538,538,538,538,538,538,538,538,538,538,538,538,532,514,495,471,428,404,392,383,373,350,333,311,285,259,211,195,187,181,177,163,154,148,143,143,143,143,141,140,137,133,132,129,127,124,122,122,122,122,122,122,122,117,112,101,88],"timestamp_mouse":[13,39,54,73,93,113,133,154,174,193,214,233,254,273,295,313,334,353,373,393,413,434,454,474,494,513,533,553,574,593,614,633,653,673,693,713,733,754,773,793,813,833,853,874,893,913,933,954,973,993,1014,1033,1053,1073,1093,1113,1133,1153,1174,1193,1214,1233,1253,1274,1293,1313,1334,1354,1373,1394,1414,1433,1453,1473,1493,1513,1533,1554,1574,1593],"xSR":741.5,"ySR":469.95,"xT1":424.9,"yT1":0,"xT2":1058.1,"yT2":0,"toosoon":0,"cond_shown":"equaldotsize","ratio_trial":750,"smaller_num":"9","larger_num":"12","correct_side":2,"subjID":"valerybonilla19","gender":"1","age":"11","school":"6"},{"start_time":1551901479980,"click_time":1551901481639,"finger_time":1551901480859,"fix_duration":1478.0755104610143,"trial":10,"RT":879,"MT":780,"sideResp":2,"stimulus":"img/500/randomdotsizeEA/R/9_Ratio_500_L_2_R_4.png","xmouse":[821,821,821,821,821,821,821,821,821,821,821,821,821,821,821,821,821,821,821,821,821,821,821,821,821,821,821,821,821,821,821,821,821,821,821,821,821,821,821,821,821,819,809,796,789,785,785,785,785,785,785,785,785,785,785,785,785,785,785,785,785,785,785,785,785,785,785,785,794,832,903,1018,1072,1117,1151,1181,1186,1187,1188,1188,1188,1178,1161,1141],"ymouse":[528,528,528,528,528,528,528,528,528,528,528,528,528,528,528,528,528,528,528,528,528,528,528,528,528,528,528,528,528,528,528,528,528,528,528,528,528,528,528,528,528,522,500,480,467,460,460,460,460,460,460,460,460,460,460,460,460,460,460,460,460,460,460,460,460,460,460,460,455,439,400,306,246,186,137,72,53,43,38,36,35,35,35,35],"timestamp_mouse":[1,32,39,60,79,100,119,139,159,179,199,220,239,261,279,300,320,339,359,379,399,419,439,460,479,499,521,540,559,579,599,619,639,659,680,699,720,739,760,780,801,819,839,859,879,900,919,939,959,980,1000,1021,1040,1059,1079,1099,1120,1139,1159,1180,1200,1220,1239,1259,1279,1300,1319,1339,1359,1380,1399,1419,1439,1460,1479,1501,1519,1539,1560,1579,1600,1619,1639,1659],"xSR":741.5,"ySR":469.95,"xT1":424.9,"yT1":0,"xT2":1058.1,"yT2":0,"toosoon":0,"cond_shown":"randomdotsizeEA","ratio_trial":500,"smaller_num":"2","larger_num":"4","correct_side":2,"subjID":"valerybonilla19","gender":"1","age":"11","school":"6"},{"start_time":1551901483127,"click_time":1551901484099,"finger_time":1551901483860,"fix_duration":605.511081226904,"trial":11,"RT":733,"MT":239,"sideResp":2,"stimulus":"img/900/equaldotanddens/R/15_Ratio_900_L_9_R_10.png","xmouse":[768,768,768,768,768,768,768,768,768,768,768,768,768,768,768,768,768,768,768,768,768,768,768,768,768,768,768,768,768,768,768,768,768,769,775,787,804,837,950,1020,1111,1133,1145,1140,1131,1127,1127,1123,1113],"ymouse":[496,496,496,496,496,496,496,496,496,496,496,496,496,496,496,496,496,496,496,496,496,496,496,496,496,496,496,496,496,496,496,496,496,496,493,483,469,444,370,328,258,223,192,142,129,123,122,114,99],"timestamp_mouse":[12,39,54,72,93,112,134,153,173,192,214,232,252,272,292,312,333,352,373,394,413,433,453,472,492,512,532,553,574,592,613,633,653,673,692,712,733,752,772,792,813,833,852,872,892,912,932,953,972],"xSR":741.5,"ySR":469.95,"xT1":424.9,"yT1":0,"xT2":1058.1,"yT2":0,"toosoon":0,"cond_shown":"equaldotanddens","ratio_trial":900,"smaller_num":"9","larger_num":"10","correct_side":2,"subjID":"valerybonilla19","gender":"1","age":"11","school":"6"},{"start_time":1551901486855,"click_time":1551901488159,"finger_time":1551901487599,"fix_duration":654.3335340894502,"trial":12,"RT":744,"MT":560,"sideResp":1,"stimulus":"img/500/equaldotsize/L/8_Ratio_500_L_8_R_4.png","xmouse":[786,786,786,786,786,786,786,786,786,786,786,786,786,785,785,785,785,785,785,785,785,785,785,785,785,785,785,785,785,785,785,785,785,785,785,784,781,749,740,738,738,738,738,737,735,723,704,655,629,610,591,571,561,561,570,584,596,596,596,596,596,596,596,596,596,497],"ymouse":[506,506,506,506,506,506,506,506,506,506,506,506,506,508,508,508,508,508,508,508,508,508,508,508,508,508,508,508,508,508,508,508,508,508,508,509,506,463,446,433,420,410,398,397,395,390,385,369,354,336,308,265,184,107,69,34,0,0,0,0,0,0,0,0,0,14],"timestamp_mouse":[4,32,44,64,84,104,125,144,165,186,205,226,244,264,284,305,324,344,364,385,405,424,444,464,485,504,525,544,564,584,605,625,644,665,685,705,724,744,764,785,804,825,844,864,884,904,924,945,964,984,1004,1024,1044,1064,1084,1104,1124,1144,1164,1185,1204,1224,1245,1265,1285,1304],"xSR":741.5,"ySR":469.95,"xT1":424.9,"yT1":0,"xT2":1058.1,"yT2":0,"toosoon":0,"cond_shown":"equaldotsize","ratio_trial":500,"smaller_num":"4","larger_num":"8","correct_side":1,"subjID":"valerybonilla19","gender":"1","age":"11","school":"6"},{"start_time":1551901492147,"click_time":1551901493480,"finger_time":1551901493039,"fix_duration":926.3287124543946,"trial":13,"RT":892,"MT":441,"sideResp":1,"stimulus":"img/900/equaldotanddens/R/14_Ratio_900_L_18_R_20.png","xmouse":[780,780,780,780,780,780,780,780,780,780,780,780,780,780,780,780,780,780,780,780,780,780,780,780,780,780,780,780,780,780,780,780,780,780,780,780,780,780,780,780,780,780,779,778,776,770,763,743,636,549,473,419,400,395,394,394,394,394,394,394,394,394,394,401,419,424,431],"ymouse":[497,497,497,497,497,497,497,497,497,497,497,497,497,497,497,497,497,497,497,497,497,497,497,497,497,497,497,497,497,497,497,497,497,497,497,497,497,497,497,496,491,486,482,474,468,457,442,411,283,200,130,81,58,50,50,50,50,50,50,50,50,50,49,49,51,53,54],"timestamp_mouse":[12,34,53,72,92,113,133,152,173,193,213,231,252,272,292,313,332,353,373,391,412,433,452,473,491,512,533,553,573,593,611,632,652,672,693,713,731,753,771,792,812,832,852,871,892,912,931,953,972,992,1012,1031,1052,1071,1092,1111,1133,1152,1172,1192,1212,1232,1252,1271,1292,1313,1333],"xSR":741.5,"ySR":469.95,"xT1":424.9,"yT1":0,"xT2":1058.1,"yT2":0,"toosoon":0,"cond_shown":"equaldotanddens","ratio_trial":900,"smaller_num":"18","larger_num":"20","correct_side":2,"subjID":"valerybonilla19","gender":"1","age":"11","school":"6"},{"start_time":1551901496070,"click_time":1551901496980,"finger_time":1551901496800,"fix_duration":250,"trial":14,"RT":730,"MT":180,"sideResp":2,"stimulus":"img/250/randomdotsizeEA/R/12_Ratio_250_L_5_R_20.png","xmouse":[806,806,806,806,806,806,806,806,806,806,806,806,806,806,806,806,806,806,806,806,806,806,806,806,806,806,806,806,806,806,806,806,806,806,806,810,819,864,920,949,976,999,1031,1043,1052,1059],"ymouse":[504,504,504,504,504,504,504,504,504,504,504,504,504,504,504,504,504,504,504,504,504,504,504,504,504,504,504,504,504,504,504,504,504,504,498,486,460,357,261,208,161,125,93,86,82,77],"timestamp_mouse":[10,34,50,69,88,108,129,148,169,189,208,229,249,269,290,308,329,350,369,389,408,429,448,470,489,508,530,549,569,588,609,629,648,669,688,709,730,750,770,788,808,830,849,869,889,909],"xSR":741.5,"ySR":469.95,"xT1":424.9,"yT1":0,"xT2":1058.1,"yT2":0,"toosoon":0,"cond_shown":"randomdotsizeEA","ratio_trial":250,"smaller_num":"5","larger_num":"20","correct_side":2,"subjID":"valerybonilla19","gender":"1","age":"11","school":"6"},{"start_time":1551901498522,"click_time":1551901499399,"finger_time":1551901499120,"fix_duration":701.82355539645,"trial":15,"RT":598,"MT":279,"sideResp":1,"stimulus":"img/900/equaldotanddens/L/8_Ratio_900_L_20_R_18.png","xmouse":[791,791,791,791,791,791,791,791,791,791,791,791,791,791,791,791,791,791,791,791,791,791,791,791,791,791,791,789,786,735,699,670,654,643,642,642,642,642,642,642,630,583,517,477],"ymouse":[515,515,515,515,515,515,515,515,515,515,515,515,515,515,515,515,515,515,515,515,515,515,515,515,515,515,515,513,503,403,329,257,202,178,176,176,176,176,176,176,164,136,100,78],"timestamp_mouse":[32,37,56,77,97,117,137,157,177,197,216,237,257,277,298,317,337,358,376,397,417,437,458,477,497,518,538,556,577,598,617,638,657,676,696,717,737,757,777,798,816,837,856,877],"xSR":741.5,"ySR":469.95,"xT1":424.9,"yT1":0,"xT2":1058.1,"yT2":0,"toosoon":0,"cond_shown":"equaldotanddens","ratio_trial":900,"smaller_num":"18","larger_num":"20","correct_side":1,"subjID":"valerybonilla19","gender":"1","age":"11","school":"6"},{"start_time":1551901501042,"click_time":1551901506340,"finger_time":1551901505898,"fix_duration":742.679209109456,"trial":16,"RT":4856,"MT":442,"sideResp":2,"stimulus":"img/500/equaldotsize/R/9_Ratio_500_L_2_R_4.png","xmouse":[775,775,775,775,775,775,775,775,775,775,775,775,775,775,775,775,775,775,775,775,775,775,775,775,775,775,775,775,775,775,775,775,775,775,775,775,775,775,775,775,775,775,775,775,775,775,775,775,775,775,775,775,775,775,775,775,775,775,775,775,775,775,775,775,775,775,775,775,775,775,775,775,775,775,775,775,775,775,775,775,775,775,775,775,775,775,775,775,775,775,775,775,775,775,775,775,775,775,776,777,779,779,779,779,779,779,779,779,779,779,779,779,779,779,779,779,779,779,779,779,779,779,779,779,779,779,779,779,779,779,779,779,779,779,779,779,779,779,779,779,779,779,779,779,779,779,779,779,779,779,779,779,779,779,779,779,779,779,779,779,779,779,779,779,779,779,779,779,779,779,779,779,779,779,779,779,779,779,779,779,779,779,779,779,779,779,779,779,779,779,779,779,779,779,779,779,779,779,779,779,779,779,779,779,779,779,779,779,779,779,779,779,779,779,779,779,779,779,779,779,779,779,779,779,779,779,779,779,779,779,779,779,779,779,779,779,779,779,779,784,795,817,846,879,935,1103,1133,1149,1156,1169,1175,1188,1205,1229,1250,1250,1250,1250,1250,1250,1250,1250,1250,1250,1097],"ymouse":[536,536,536,536,536,536,536,536,536,536,536,536,536,536,536,536,536,536,536,536,536,536,536,536,536,536,536,536,536,536,536,536,536,536,536,536,536,536,536,536,536,536,536,536,536,536,536,536,536,536,536,536,536,536,536,536,536,536,536,536,536,536,536,536,536,536,536,536,536,536,536,536,536,536,536,536,536,536,536,536,536,536,536,535,535,535,535,535,535,535,535,535,535,535,535,535,535,535,535,534,534,534,534,534,534,534,534,534,534,534,534,534,534,534,534,534,534,534,534,534,534,534,534,534,534,534,534,534,534,534,534,534,534,534,534,534,534,534,534,534,534,534,534,534,534,534,534,534,534,534,534,534,534,534,534,534,534,534,534,534,534,534,534,534,534,534,534,534,534,534,534,534,534,534,534,534,534,534,534,534,534,534,534,534,534,534,534,534,534,534,534,534,534,534,534,534,534,534,534,534,534,534,534,534,534,534,534,534,534,534,534,534,534,534,534,534,534,534,534,534,534,534,534,534,534,534,534,534,534,534,534,534,534,534,534,534,534,534,534,529,517,491,456,420,375,300,288,280,275,256,240,209,168,109,13,13,13,13,13,13,13,13,13,13,43],"timestamp_mouse":[18,37,57,76,98,117,138,157,176,198,218,237,257,277,297,317,337,356,377,397,417,438,457,478,497,518,538,557,577,597,616,638,656,676,697,716,738,756,776,798,817,836,858,876,898,916,938,958,976,998,1017,1036,1057,1076,1097,1117,1138,1158,1177,1197,1217,1238,1257,1277,1298,1317,1336,1358,1378,1396,1418,1437,1457,1477,1497,1517,1536,1558,1576,1597,1618,1638,1657,1677,1697,1717,1737,1758,1778,1798,1817,1837,1856,1878,1896,1917,1936,1958,1977,1997,2018,2037,2056,2077,2096,2117,2138,2157,2177,2196,2218,2238,2257,2277,2298,2316,2338,2358,2376,2397,2416,2437,2457,2477,2496,2518,2537,2556,2577,2596,2618,2637,2657,2677,2698,2717,2736,2757,2778,2797,2816,2838,2857,2878,2897,2918,2937,2957,2978,2996,3018,3037,3057,3076,3097,3118,3138,3158,3178,3197,3217,3238,3257,3278,3296,3318,3338,3356,3376,3397,3417,3438,3457,3476,3497,3517,3537,3558,3577,3596,3617,3638,3658,3678,3697,3718,3736,3756,3777,3797,3816,3837,3857,3876,3897,3916,3937,3957,3977,3997,4016,4036,4057,4077,4097,4117,4137,4158,4177,4197,4217,4237,4258,4277,4297,4318,4337,4357,4378,4398,4416,4437,4457,4478,4498,4518,4538,4558,4576,4598,4616,4637,4657,4677,4697,4716,4737,4758,4777,4796,4817,4837,4856,4876,4896,4917,4936,4957,4976,4998,5017,5036,5057,5077,5097,5117,5138,5156,5176,5197,5218,5237,5257,5278,5298],"xSR":741.5,"ySR":469.95,"xT1":424.9,"yT1":0,"xT2":1058.1,"yT2":0,"toosoon":0,"cond_shown":"equaldotsize","ratio_trial":500,"smaller_num":"2","larger_num":"4","correct_side":2,"subjID":"valerybonilla19","gender":"1","age":"11","school":"6"},{"start_time":1551901507984,"click_time":1551901509041,"finger_time":1551901508638,"fix_duration":782.2704700708938,"trial":17,"RT":654,"MT":403,"sideResp":2,"stimulus":"img/900/randomdotsizeEA/L/8_Ratio_900_L_20_R_18.png","xmouse":[785,785,785,785,785,785,785,785,785,785,785,785,785,785,785,785,785,785,785,785,785,785,785,785,785,785,784,784,784,786,791,799,811,844,863,886,929,965,977,987,995,1001,1007,1029,1037,1040,1040,1040,1040,1041,1048,1053,1059],"ymouse":[524,524,524,524,524,524,524,524,524,524,524,524,524,524,524,524,524,524,524,524,524,524,524,524,524,524,522,522,516,509,494,472,443,358,310,263,200,151,136,124,113,106,102,91,89,87,87,87,87,87,85,85,82],"timestamp_mouse":[15,37,55,76,95,116,136,154,174,194,215,234,256,274,296,316,334,356,374,396,415,435,455,476,495,515,535,554,575,595,614,635,654,674,695,715,736,756,775,794,815,835,855,874,895,915,935,955,975,995,1015,1035,1056],"xSR":741.5,"ySR":469.95,"xT1":424.9,"yT1":0,"xT2":1058.1,"yT2":0,"toosoon":0,"cond_shown":"randomdotsizeEA","ratio_trial":900,"smaller_num":"18","larger_num":"20","correct_side":1,"subjID":"valerybonilla19","gender":"1","age":"11","school":"6"},{"start_time":1551901510892,"click_time":1551901511979,"finger_time":1551901511558,"fix_duration":872.3504726953244,"trial":18,"RT":666,"MT":421,"sideResp":2,"stimulus":"img/750/randomdotsizeEA/L/9_Ratio_750_L_4_R_3.png","xmouse":[797,797,797,797,797,797,797,797,797,797,797,797,797,797,797,797,797,797,797,797,797,797,797,798,798,798,798,798,798,800,802,807,816,832,839,848,858,874,924,955,969,979,992,1025,1045,1065,1083,1092,1097,1103,1103,1104,1104,1104,1104],"ymouse":[515,515,515,515,515,515,515,515,515,515,515,515,515,515,515,515,515,515,515,515,515,515,515,515,515,515,515,515,514,510,505,494,479,441,423,403,385,361,308,279,264,250,237,209,195,178,160,143,132,118,117,116,114,104,95],"timestamp_mouse":[10,33,46,66,87,107,127,146,167,187,208,228,248,266,287,308,327,348,367,387,407,427,447,467,486,508,527,547,567,586,607,626,648,666,686,707,727,746,766,786,807,827,848,867,886,907,927,946,966,987,1007,1028,1047,1067,1086],"xSR":741.5,"ySR":469.95,"xT1":424.9,"yT1":0,"xT2":1058.1,"yT2":0,"toosoon":0,"cond_shown":"randomdotsizeEA","ratio_trial":750,"smaller_num":"3","larger_num":"4","correct_side":1,"subjID":"valerybonilla19","gender":"1","age":"11","school":"6"},{"start_time":1551901513957,"click_time":1551901514439,"finger_time":1551901514319,"fix_duration":1257.782896831076,"trial":19,"RT":362,"MT":120,"sideResp":1,"stimulus":"img/250/equaldotanddens/L/14_Ratio_250_L_12_R_3.png","xmouse":[802,802,802,802,802,802,802,802,802,802,802,802,802,802,802,802,792,779,758,734,700,635,598,555,515],"ymouse":[525,525,525,525,525,525,525,525,525,525,525,525,525,525,525,523,498,472,438,395,346,251,189,126,76],"timestamp_mouse":[8,22,43,62,82,102,123,142,162,182,203,222,243,261,282,302,321,342,362,381,401,421,443,462,482],"xSR":741.5,"ySR":469.95,"xT1":424.9,"yT1":0,"xT2":1058.1,"yT2":0,"toosoon":0,"cond_shown":"equaldotanddens","ratio_trial":250,"smaller_num":"3","larger_num":"12","correct_side":1,"subjID":"valerybonilla19","gender":"1","age":"11","school":"6"},{"start_time":1551901518958,"click_time":1551901520139,"finger_time":1551901519639,"fix_duration":395.25341069422046,"trial":20,"RT":681,"MT":500,"sideResp":1,"stimulus":"img/900/equaldotanddens/L/2_Ratio_900_L_20_R_18.png","xmouse":[814,814,814,814,814,814,814,814,814,814,814,814,814,814,814,814,814,814,814,814,814,814,814,814,814,814,814,814,814,814,814,814,814,815,802,769,710,690,673,655,645,640,632,625,610,607,598,594,584,576,576,576,576,576,576,576,576,576,576,435],"ymouse":[518,518,518,518,518,518,518,518,518,518,518,518,518,518,518,518,518,518,518,518,518,518,518,518,518,518,518,518,518,518,518,518,518,507,452,391,321,299,276,257,239,215,200,184,158,137,80,51,20,4,4,4,4,4,4,4,4,4,4,3],"timestamp_mouse":[8,35,41,61,80,101,121,141,160,181,201,222,241,262,282,300,321,342,362,381,401,422,441,461,480,501,522,541,561,582,601,622,641,661,681,702,722,740,760,782,802,820,841,861,882,901,921,941,962,982,1001,1021,1042,1061,1082,1101,1122,1141,1161,1181],"xSR":741.5,"ySR":469.95,"xT1":424.9,"yT1":0,"xT2":1058.1,"yT2":0,"toosoon":0,"cond_shown":"equaldotanddens","ratio_trial":900,"smaller_num":"18","larger_num":"20","correct_side":1,"subjID":"valerybonilla19","gender":"1","age":"11","school":"6"},{"start_time":1551901522660,"click_time":1551901523599,"finger_time":1551901523279,"fix_duration":1059.9704314207877,"trial":21,"RT":619,"MT":320,"sideResp":2,"stimulus":"img/900/randomdotsizeEA/R/13_Ratio_900_L_18_R_20.png","xmouse":[788,788,788,788,788,788,788,788,788,788,788,788,788,788,788,788,788,788,788,788,788,788,788,788,788,788,788,788,789,800,846,877,905,928,947,966,969,973,976,977,990,1003,1018,1033,1042,1057,1078],"ymouse":[550,550,550,550,550,550,550,550,550,550,550,550,550,550,550,550,550,550,550,550,550,550,550,550,550,550,550,550,539,527,465,412,349,276,210,105,70,58,54,53,51,50,48,47,47,49,55],"timestamp_mouse":[32,39,59,78,99,119,140,159,179,200,219,239,259,279,299,319,340,359,380,399,418,439,458,479,500,520,540,559,578,598,619,639,659,678,699,719,738,758,778,799,819,839,860,880,899,920,939],"xSR":741.5,"ySR":469.95,"xT1":424.9,"yT1":0,"xT2":1058.1,"yT2":0,"toosoon":0,"cond_shown":"randomdotsizeEA","ratio_trial":900,"smaller_num":"18","larger_num":"20","correct_side":2,"subjID":"valerybonilla19","gender":"1","age":"11","school":"6"},{"start_time":1551901524731,"click_time":1551901525679,"finger_time":1551901525340,"fix_duration":250,"trial":22,"RT":609,"MT":339,"sideResp":2,"stimulus":"img/900/equaldotsize/R/15_Ratio_900_L_9_R_10.png","xmouse":[821,821,821,821,821,821,821,821,821,821,821,821,821,821,821,821,821,821,821,821,821,821,821,821,821,821,821,821,821,820,820,841,916,946,971,986,994,1006,1011,1014,1018,1020,1020,1020,1021,1034,1055,1071],"ymouse":[506,506,506,506,506,506,506,506,506,506,506,506,506,506,506,506,506,506,506,506,506,506,506,506,506,506,506,506,506,490,466,408,319,275,216,181,155,120,110,102,95,92,91,91,91,91,94,96],"timestamp_mouse":[8,41,47,68,89,108,127,148,167,188,208,229,248,269,288,307,329,348,368,388,409,428,447,468,488,509,529,549,568,588,609,628,649,668,687,708,728,749,767,788,808,827,849,868,888,908,928,948],"xSR":741.5,"ySR":469.95,"xT1":424.9,"yT1":0,"xT2":1058.1,"yT2":0,"toosoon":0,"cond_shown":"equaldotsize","ratio_trial":900,"smaller_num":"9","larger_num":"10","correct_side":2,"subjID":"valerybonilla19","gender":"1","age":"11","school":"6"},{"start_time":1551901527710,"click_time":1551901528720,"finger_time":1551901528439,"fix_duration":1169.2731642289957,"trial":23,"RT":729,"MT":281,"sideResp":2,"stimulus":"img/900/equaldotanddens/R/6_Ratio_900_L_9_R_10.png","xmouse":[780,780,780,780,780,780,780,780,780,780,780,780,780,780,780,780,780,780,780,780,780,780,780,780,780,780,780,780,780,780,780,780,780,780,803,834,876,916,937,976,998,1022,1037,1040,1041,1041,1041,1041,1042,1055,1062],"ymouse":[527,527,527,527,527,527,527,527,527,527,527,527,527,527,527,527,527,527,527,527,527,527,527,527,527,527,527,527,527,527,527,527,527,528,511,474,417,354,301,205,172,143,117,104,94,93,93,93,92,85,79],"timestamp_mouse":[10,34,49,68,90,110,130,150,169,189,209,230,250,268,288,310,329,349,369,390,408,429,449,470,488,510,530,549,568,590,610,629,648,669,689,709,729,748,768,789,809,829,850,869,889,909,929,948,969,989,1009],"xSR":741.5,"ySR":469.95,"xT1":424.9,"yT1":0,"xT2":1058.1,"yT2":0,"toosoon":0,"cond_shown":"equaldotanddens","ratio_trial":900,"smaller_num":"9","larger_num":"10","correct_side":2,"subjID":"valerybonilla19","gender":"1","age":"11","school":"6"},{"start_time":1551901529850,"click_time":1551901533019,"finger_time":1551901531199,"fix_duration":250,"trial":24,"RT":1349,"MT":1820,"sideResp":2,"stimulus":"img/750/randomdotsizeEA/R/11_Ratio_750_L_12_R_16.png","xmouse":[793,793,793,793,793,793,793,793,793,793,793,793,793,793,793,793,793,793,793,793,793,793,793,793,793,793,793,793,793,793,793,793,793,793,793,793,793,793,793,793,793,793,793,793,793,793,793,793,793,793,793,793,793,793,793,793,792,792,792,792,792,792,792,792,792,790,787,783,782,782,782,782,782,782,782,782,782,782,782,782,782,782,782,782,782,782,782,782,781,780,780,780,780,780,780,780,780,780,780,780,779,779,778,778,778,778,778,778,778,778,778,778,778,783,790,794,796,801,803,804,804,805,805,805,805,805,802,783,776,775,775,775,775,775,775,775,775,775,775,775,775,775,777,777,778,778,778,778,778,779,780,786,795,815,840,886,960,1108,1157],"ymouse":[481,481,481,481,481,481,481,481,481,481,481,481,481,481,481,481,481,481,481,481,481,481,481,481,481,481,481,481,481,481,481,481,481,481,481,481,481,481,481,481,481,481,481,481,481,481,481,481,481,481,481,481,481,481,481,481,481,481,481,481,481,481,481,481,481,479,473,448,429,416,407,404,403,403,403,403,403,403,403,403,403,403,403,403,403,403,403,403,405,407,408,408,408,408,408,408,408,408,408,409,410,411,414,417,419,421,423,423,423,423,423,423,423,423,423,422,422,422,422,422,422,422,422,422,422,422,425,452,479,519,552,571,575,575,575,575,575,575,575,575,573,567,552,549,547,546,545,544,544,540,534,515,491,451,404,341,270,111,38],"timestamp_mouse":[9,36,49,69,89,109,129,149,169,188,208,230,250,270,290,310,328,350,370,389,409,430,450,469,489,508,528,549,570,590,609,629,649,669,690,709,728,749,770,790,809,829,849,870,890,910,929,949,969,989,1008,1029,1048,1068,1090,1110,1129,1149,1169,1189,1210,1229,1249,1269,1290,1310,1329,1348,1369,1389,1409,1430,1450,1470,1488,1509,1528,1550,1568,1589,1609,1629,1649,1669,1688,1709,1729,1750,1768,1789,1809,1830,1849,1869,1889,1908,1930,1949,1969,1989,2008,2029,2050,2068,2089,2110,2128,2150,2170,2189,2210,2229,2250,2269,2289,2309,2329,2349,2368,2389,2408,2429,2449,2470,2489,2509,2529,2549,2569,2589,2609,2628,2650,2669,2690,2709,2728,2750,2769,2789,2809,2828,2849,2869,2889,2910,2929,2948,2969,2990,3009,3029,3049,3068,3089,3110,3129,3149,3169],"xSR":741.5,"ySR":469.95,"xT1":424.9,"yT1":0,"xT2":1058.1,"yT2":0,"toosoon":0,"cond_shown":"randomdotsizeEA","ratio_trial":750,"smaller_num":"12","larger_num":"16","correct_side":2,"subjID":"valerybonilla19","gender":"1","age":"11","school":"6"},{"start_time":1551901535367,"click_time":1551901536599,"finger_time":1551901535979,"fix_duration":1365.1689652453588,"trial":25,"RT":612,"MT":620,"sideResp":2,"stimulus":"img/900/equaldotanddens/L/1_Ratio_900_L_10_R_9.png","xmouse":[779,779,779,779,779,779,779,779,779,779,779,779,779,779,779,779,779,779,779,779,779,779,779,779,779,779,779,779,779,779,779,785,829,885,994,1059,1120,1182,1190,1193,1194,1194,1193,1192,1191,1163,1137,1079,1066,1065,1065,1065,1066,1079,1097,1110,1110,1110,1110,1110,1110,1106],"ymouse":[471,471,471,471,471,471,471,471,471,471,471,471,471,471,471,471,471,471,471,471,471,471,471,471,471,471,471,471,471,471,467,460,421,389,342,314,279,225,205,184,164,149,146,145,145,136,128,112,109,108,108,108,108,106,104,102,102,102,102,102,102,99],"timestamp_mouse":[13,32,52,72,92,111,133,152,173,192,211,232,252,272,293,312,331,353,372,391,413,432,453,472,492,512,532,552,572,593,612,632,652,672,691,712,731,752,771,791,813,833,852,871,892,912,932,952,971,992,1012,1032,1052,1071,1092,1113,1132,1152,1172,1193,1212,1232],"xSR":741.5,"ySR":469.95,"xT1":424.9,"yT1":0,"xT2":1058.1,"yT2":0,"toosoon":0,"cond_shown":"equaldotanddens","ratio_trial":900,"smaller_num":"9","larger_num":"10","correct_side":1,"subjID":"valerybonilla19","gender":"1","age":"11","school":"6"},{"start_time":1551901538293,"click_time":1551901539159,"finger_time":1551901538899,"fix_duration":971.1837742175779,"trial":26,"RT":606,"MT":260,"sideResp":2,"stimulus":"img/500/randomdotsizeEA/L/13_Ratio_500_L_12_R_6.png","xmouse":[805,805,805,805,805,805,805,805,805,805,805,805,805,805,805,805,805,805,805,805,805,805,805,805,805,805,805,805,806,825,865,952,969,984,999,1010,1028,1030,1035,1038,1040,1044,1050,1061],"ymouse":[504,504,504,504,504,504,504,504,504,504,504,504,504,504,504,504,504,504,504,504,504,504,504,504,504,504,504,504,500,485,452,343,288,234,184,146,82,74,54,48,44,44,44,46],"timestamp_mouse":[8,41,45,66,86,106,126,145,167,186,206,227,246,266,287,305,326,346,366,386,406,426,445,466,486,505,526,546,566,586,606,626,645,666,686,705,727,747,766,785,806,826,846,866],"xSR":741.5,"ySR":469.95,"xT1":424.9,"yT1":0,"xT2":1058.1,"yT2":0,"toosoon":0,"cond_shown":"randomdotsizeEA","ratio_trial":500,"smaller_num":"6","larger_num":"12","correct_side":1,"subjID":"valerybonilla19","gender":"1","age":"11","school":"6"},{"start_time":1551901540978,"click_time":1551901541939,"finger_time":1551901541600,"fix_duration":957.198309328407,"trial":27,"RT":622,"MT":339,"sideResp":1,"stimulus":"img/900/randomdotsizeEA/R/13_Ratio_900_L_18_R_20.png","xmouse":[817,817,817,817,817,817,817,817,817,817,817,817,817,817,817,817,817,817,817,817,817,817,817,817,817,817,817,817,802,783,758,720,600,567,548,526,502,448,421,398,398,398,398,398,398,398,398,423,426],"ymouse":[531,531,531,531,531,531,531,531,531,531,531,531,530,530,530,530,530,530,530,530,530,530,530,530,530,529,528,525,517,512,504,493,416,383,348,299,241,112,52,10,10,10,10,10,10,10,10,13,22],"timestamp_mouse":[8,20,41,60,81,100,120,141,161,181,202,220,241,261,280,301,321,341,361,382,401,421,441,461,481,501,521,540,560,581,601,622,641,660,681,701,721,741,760,780,801,821,841,862,882,900,920,942,961],"xSR":741.5,"ySR":469.95,"xT1":424.9,"yT1":0,"xT2":1058.1,"yT2":0,"toosoon":0,"cond_shown":"randomdotsizeEA","ratio_trial":900,"smaller_num":"18","larger_num":"20","correct_side":2,"subjID":"valerybonilla19","gender":"1","age":"11","school":"6"},{"start_time":1551901543691,"click_time":1551901544239,"finger_time":1551901544039,"fix_duration":1030.9257496197415,"trial":28,"RT":348,"MT":200,"sideResp":2,"stimulus":"img/900/equaldotanddens/R/11_Ratio_900_L_18_R_20.png","xmouse":[792,793,793,793,793,793,793,793,793,793,793,793,793,793,793,793,802,811,820,831,845,857,886,897,917,955,995,1063],"ymouse":[504,503,503,502,502,502,502,502,502,502,502,502,502,502,502,502,483,463,442,415,391,365,310,281,242,166,118,37],"timestamp_mouse":[13,46,47,69,87,108,128,148,167,188,209,228,248,268,289,308,329,348,368,389,408,429,448,468,488,508,528,548],"xSR":741.5,"ySR":469.95,"xT1":424.9,"yT1":0,"xT2":1058.1,"yT2":0,"toosoon":0,"cond_shown":"equaldotanddens","ratio_trial":900,"smaller_num":"18","larger_num":"20","correct_side":2,"subjID":"valerybonilla19","gender":"1","age":"11","school":"6"},{"start_time":1551901547264,"click_time":1551901549220,"finger_time":1551901549099,"fix_duration":705.0407999578612,"trial":29,"RT":1835,"MT":121,"sideResp":2,"stimulus":"img/900/equaldotsize/R/11_Ratio_900_L_18_R_20.png","xmouse":[771,771,771,771,771,771,771,771,771,771,771,771,771,771,771,771,771,771,771,771,771,771,771,771,771,771,771,771,771,771,771,771,771,771,771,771,771,771,771,771,771,771,771,771,771,771,771,771,771,771,771,771,771,771,771,771,771,771,771,771,771,771,771,771,771,771,771,771,771,771,771,771,771,771,771,771,771,771,771,771,771,771,771,771,771,771,771,771,771,771,802,848,895,982,1003,1015,1034,1074],"ymouse":[558,558,558,558,558,558,558,558,558,558,558,558,558,558,558,558,558,558,558,558,558,558,558,558,558,558,558,558,558,558,558,558,558,558,558,558,558,558,558,558,558,558,558,558,558,558,558,558,558,558,558,558,558,558,558,558,558,558,558,558,558,558,558,558,558,558,558,558,558,558,558,558,558,558,558,558,558,558,558,558,558,558,558,558,558,558,558,558,558,558,474,369,261,169,158,150,126,71],"timestamp_mouse":[15,38,56,75,95,114,134,155,175,195,214,236,254,274,295,315,335,355,375,395,415,436,455,474,496,515,535,556,576,594,616,636,654,675,696,715,735,755,775,796,816,836,855,876,895,916,934,956,976,996,1016,1035,1055,1076,1096,1115,1136,1156,1175,1194,1215,1235,1256,1274,1295,1315,1334,1354,1375,1396,1416,1436,1456,1475,1494,1514,1536,1554,1575,1596,1614,1636,1656,1675,1696,1716,1735,1756,1774,1795,1816,1835,1855,1875,1895,1915,1934,1956],"xSR":741.5,"ySR":469.95,"xT1":424.9,"yT1":0,"xT2":1058.1,"yT2":0,"toosoon":0,"cond_shown":"equaldotsize","ratio_trial":900,"smaller_num":"18","larger_num":"20","correct_side":2,"subjID":"valerybonilla19","gender":"1","age":"11","school":"6"},{"start_time":1551901552636,"click_time":1551901554899,"finger_time":1551901552699,"fix_duration":715.1882358215531,"trial":30,"RT":63,"MT":2200,"sideResp":1,"stimulus":"img/250/equaldotanddens/L/5_Ratio_250_L_24_R_6.png","xmouse":[769,769,769,697,671,656,656,656,656,656,656,656,656,656,656,656,656,656,656,656,656,656,656,656,656,656,649,645,644,648,657,669,671,671,671,671,680,687,690,691,695,697,698,698,698,698,698,698,705,731,773,845,864,865,865,865,865,858,848,839,833,826,826,826,826,826,826,826,826,826,826,826,816,795,787,784,784,784,784,784,784,784,784,784,784,784,784,784,783,778,756,656,596,555,516,510,500,494,487,475,463,445,439,438,440,452,482,487,488,488,488,488,492,495],"ymouse":[526,526,526,468,422,400,400,400,400,400,400,400,400,400,400,400,400,400,400,400,400,400,400,400,400,400,419,436,449,465,485,513,515,515,515,515,508,502,496,491,478,470,467,467,467,467,467,467,469,487,513,563,573,573,573,573,573,568,561,557,553,550,550,550,550,550,550,550,550,550,550,549,543,537,534,534,534,534,534,534,534,534,534,534,534,534,534,534,532,525,499,423,384,343,292,267,230,218,210,206,205,204,203,202,199,195,183,180,179,178,176,161,137,97],"timestamp_mouse":[12,38,44,63,83,104,123,144,163,183,203,223,243,263,283,303,323,343,363,384,404,424,443,463,483,503,523,543,563,583,603,623,643,663,684,703,723,743,763,784,803,823,844,863,883,903,923,943,964,983,1003,1024,1043,1064,1083,1104,1124,1143,1163,1183,1203,1223,1243,1263,1283,1303,1323,1343,1364,1383,1403,1423,1443,1463,1483,1503,1524,1543,1565,1583,1604,1623,1644,1663,1683,1703,1723,1743,1764,1784,1803,1823,1843,1863,1883,1903,1923,1943,1964,1983,2004,2023,2044,2063,2085,2103,2123,2144,2163,2183,2204,2223,2244,2263],"xSR":741.5,"ySR":469.95,"xT1":424.9,"yT1":0,"xT2":1058.1,"yT2":0,"toosoon":0,"cond_shown":"equaldotanddens","ratio_trial":250,"smaller_num":"6","larger_num":"24","correct_side":1,"subjID":"valerybonilla19","gender":"1","age":"11","school":"6"},{"start_time":1551901557007,"click_time":1551901558059,"finger_time":1551901557659,"fix_duration":1367.915164838544,"trial":31,"RT":652,"MT":400,"sideResp":2,"stimulus":"img/500/equaldotanddens/R/2_Ratio_500_L_3_R_6.png","xmouse":[787,787,787,787,787,787,787,787,787,787,787,787,787,787,787,787,787,787,787,787,787,787,787,787,787,787,787,787,787,792,798,814,858,892,916,934,946,956,969,974,978,982,988,988,988,989,996,1027,1048,1071,1086,1097,1104],"ymouse":[520,520,520,520,520,520,520,520,520,520,520,520,520,520,520,520,520,520,520,520,520,520,520,520,520,520,520,520,520,519,514,501,457,410,374,341,310,285,240,222,207,194,181,181,181,180,176,157,146,132,119,107,93],"timestamp_mouse":[13,32,53,72,93,113,132,152,172,192,212,233,252,272,293,312,332,353,373,392,412,432,452,472,492,512,533,552,573,592,612,632,652,672,692,712,732,752,772,792,813,832,852,872,892,912,932,953,972,992,1012,1033,1052],"xSR":741.5,"ySR":469.95,"xT1":424.9,"yT1":0,"xT2":1058.1,"yT2":0,"toosoon":0,"cond_shown":"equaldotanddens","ratio_trial":500,"smaller_num":"3","larger_num":"6","correct_side":2,"subjID":"valerybonilla19","gender":"1","age":"11","school":"6"},{"start_time":1551901559190,"click_time":1551901560020,"finger_time":1551901559919,"fix_duration":250,"trial":32,"RT":729,"MT":101,"sideResp":2,"stimulus":"img/250/equaldotsize/R/13_Ratio_250_L_2_R_8.png","xmouse":[789,789,789,789,789,789,789,789,789,789,789,789,789,789,789,789,789,789,789,789,789,789,789,789,789,789,789,789,789,789,789,789,789,789,788,808,853,911,970,1068,1093,1108],"ymouse":[507,507,507,507,507,507,507,507,507,507,507,507,507,507,507,507,507,507,507,507,507,507,507,507,507,507,507,507,507,507,507,507,507,507,507,484,447,389,319,171,111,69],"timestamp_mouse":[9,44,49,70,89,109,129,150,169,190,209,230,249,269,290,311,330,349,370,389,410,430,450,470,489,510,529,549,569,590,609,629,649,669,690,709,729,749,769,789,809,830],"xSR":741.5,"ySR":469.95,"xT1":424.9,"yT1":0,"xT2":1058.1,"yT2":0,"toosoon":0,"cond_shown":"equaldotsize","ratio_trial":250,"smaller_num":"2","larger_num":"8","correct_side":2,"subjID":"valerybonilla19","gender":"1","age":"11","school":"6"},{"start_time":1551901561796,"click_time":1551901562759,"finger_time":1551901562399,"fix_duration":1176.6018011614162,"trial":33,"RT":603,"MT":360,"sideResp":2,"stimulus":"img/250/equaldotsize/R/9_Ratio_250_L_3_R_12.png","xmouse":[798,798,798,798,798,798,798,798,798,798,798,798,798,798,798,798,798,798,798,798,798,798,798,798,798,798,798,798,814,834,871,922,953,976,1013,1021,1025,1025,1025,1025,1025,1026,1026,1027,1030,1050,1070,1081,1089],"ymouse":[512,512,512,512,512,512,512,512,512,512,512,512,512,512,512,512,512,512,512,512,512,512,512,512,512,512,512,512,499,477,432,347,289,235,151,128,116,114,114,114,114,112,110,109,109,106,103,101,98],"timestamp_mouse":[9,38,43,64,83,103,123,144,163,185,203,224,244,263,284,303,324,344,365,383,404,423,443,463,483,503,523,544,565,583,603,623,644,663,683,703,723,744,763,783,803,824,843,864,883,903,923,944,963],"xSR":741.5,"ySR":469.95,"xT1":424.9,"yT1":0,"xT2":1058.1,"yT2":0,"toosoon":0,"cond_shown":"equaldotsize","ratio_trial":250,"smaller_num":"3","larger_num":"12","correct_side":2,"subjID":"valerybonilla19","gender":"1","age":"11","school":"6"},{"start_time":1551901564617,"click_time":1551901566259,"finger_time":1551901566160,"fix_duration":995.9221673338777,"trial":34,"RT":1543,"MT":99,"sideResp":2,"stimulus":"img/750/equaldotanddens/L/8_Ratio_750_L_4_R_3.png","xmouse":[787,787,787,787,787,787,787,787,787,787,787,787,787,787,787,787,787,787,787,787,787,787,787,787,787,787,787,787,787,787,787,787,787,787,787,787,787,787,787,787,787,787,787,787,787,787,787,787,787,787,787,787,787,787,787,787,787,787,787,787,787,787,787,787,787,787,787,787,787,787,787,787,787,787,787,798,816,844,942,1016,1054,1074,1084],"ymouse":[509,509,509,509,509,509,509,509,509,509,509,509,509,509,509,509,509,509,509,509,509,509,509,509,509,509,509,509,509,509,509,509,509,509,509,509,509,509,509,509,509,509,509,509,509,509,509,509,509,509,509,509,509,509,509,509,509,509,509,509,509,509,509,509,509,509,509,509,509,509,509,509,509,509,509,498,481,451,343,239,172,124,93],"timestamp_mouse":[12,22,43,63,82,102,122,143,162,182,202,222,242,263,282,302,322,342,362,382,402,422,442,463,482,502,522,543,564,582,603,623,642,662,683,703,723,742,762,782,804,823,843,862,882,903,923,942,962,983,1003,1023,1043,1062,1082,1103,1122,1142,1163,1183,1203,1223,1243,1263,1283,1303,1322,1342,1363,1383,1403,1423,1443,1462,1482,1502,1522,1543,1562,1583,1602,1623,1642],"xSR":741.5,"ySR":469.95,"xT1":424.9,"yT1":0,"xT2":1058.1,"yT2":0,"toosoon":0,"cond_shown":"equaldotanddens","ratio_trial":750,"smaller_num":"3","larger_num":"4","correct_side":1,"subjID":"valerybonilla19","gender":"1","age":"11","school":"6"},{"start_time":1551901567743,"click_time":1551901568759,"finger_time":1551901568439,"fix_duration":642.4505798436417,"trial":35,"RT":696,"MT":320,"sideResp":2,"stimulus":"img/250/equaldotanddens/R/8_Ratio_250_L_1_R_4.png","xmouse":[790,790,790,790,790,790,790,790,790,790,790,790,790,790,790,790,790,790,790,790,790,790,790,790,790,790,790,790,790,790,790,790,795,813,845,892,976,1008,1024,1034,1038,1038,1038,1038,1038,1038,1038,1038,1038,1042,1084],"ymouse":[511,511,511,511,511,511,511,511,511,511,511,511,511,511,511,511,511,511,511,511,511,511,511,511,511,511,511,511,511,511,511,511,504,481,444,388,251,173,113,71,37,28,25,25,25,25,25,25,25,24,27],"timestamp_mouse":[16,37,56,76,96,116,137,157,177,197,216,237,256,276,297,317,337,356,376,396,416,436,457,476,496,517,536,556,576,596,616,636,656,676,696,716,738,755,776,797,816,836,856,876,896,917,937,956,977,996,1016],"xSR":741.5,"ySR":469.95,"xT1":424.9,"yT1":0,"xT2":1058.1,"yT2":0,"toosoon":0,"cond_shown":"equaldotanddens","ratio_trial":250,"smaller_num":"1","larger_num":"4","correct_side":2,"subjID":"valerybonilla19","gender":"1","age":"11","school":"6"},{"start_time":1551901569590,"click_time":1551901570559,"finger_time":1551901570299,"fix_duration":250,"trial":36,"RT":709,"MT":260,"sideResp":1,"stimulus":"img/900/equaldotsize/L/10_Ratio_900_L_20_R_18.png","xmouse":[782,782,782,782,782,782,782,782,782,781,780,780,780,780,780,780,780,780,780,780,780,780,780,780,780,780,780,780,780,780,780,780,780,776,771,740,714,651,616,592,575,573,573,572,571,569,559,552,522],"ymouse":[509,509,509,509,509,509,509,509,509,510,510,510,510,510,510,511,511,511,511,511,511,511,511,511,511,511,511,511,511,511,511,511,511,505,498,450,411,319,258,209,151,137,129,124,120,115,108,105,98],"timestamp_mouse":[10,40,49,69,90,109,130,150,170,189,209,229,249,269,290,309,329,349,370,390,410,430,449,469,489,510,529,550,570,589,609,629,650,669,690,709,729,748,769,789,809,829,850,870,890,909,929,949,969],"xSR":741.5,"ySR":469.95,"xT1":424.9,"yT1":0,"xT2":1058.1,"yT2":0,"toosoon":0,"cond_shown":"equaldotsize","ratio_trial":900,"smaller_num":"18","larger_num":"20","correct_side":1,"subjID":"valerybonilla19","gender":"1","age":"11","school":"6"},{"start_time":1551901572329,"click_time":1551901573320,"finger_time":1551901572898,"fix_duration":1068.9314375217693,"trial":37,"RT":569,"MT":422,"sideResp":2,"stimulus":"img/900/randomdotsizeEA/R/12_Ratio_900_L_18_R_20.png","xmouse":[772,772,772,772,772,772,772,772,772,772,772,772,772,772,772,772,772,772,772,772,772,772,772,772,772,772,772,773,815,890,941,977,998,1013,1016,1019,1020,1021,1021,1021,1021,1021,1022,1032,1049,1073,1095,1107,1120,1121],"ymouse":[504,504,504,504,504,504,504,504,504,504,504,504,504,504,504,504,504,504,504,504,504,504,504,504,504,504,504,503,464,398,343,280,233,183,169,160,156,153,151,151,150,150,149,148,145,141,135,126,100,97],"timestamp_mouse":[10,33,50,70,90,110,130,150,170,190,210,230,251,271,291,312,331,350,371,391,410,431,451,470,491,510,530,552,569,590,610,631,651,670,690,710,731,751,770,791,810,830,850,870,890,911,930,950,969,991],"xSR":741.5,"ySR":469.95,"xT1":424.9,"yT1":0,"xT2":1058.1,"yT2":0,"toosoon":0,"cond_shown":"randomdotsizeEA","ratio_trial":900,"smaller_num":"18","larger_num":"20","correct_side":2,"subjID":"valerybonilla19","gender":"1","age":"11","school":"6"},{"start_time":1551901575996,"click_time":1551901577119,"finger_time":1551901576680,"fix_duration":614.709820507938,"trial":38,"RT":684,"MT":439,"sideResp":2,"stimulus":"img/500/equaldotsize/R/12_Ratio_500_L_1_R_2.png","xmouse":[792,792,792,792,792,792,792,792,792,792,792,792,792,792,792,792,792,792,792,792,792,792,792,792,792,792,792,792,792,792,792,792,798,810,858,1020,1061,1087,1098,1103,1110,1112,1115,1116,1116,1109,1101,1093,1090,1089,1089,1089,1089,1089,1089,1090,1095],"ymouse":[539,539,539,539,539,539,539,539,539,539,539,539,539,539,539,539,539,539,539,539,539,539,539,539,539,539,539,539,539,539,539,539,539,533,498,338,279,236,212,195,170,160,152,144,135,117,111,110,110,110,110,110,110,109,108,100,84],"timestamp_mouse":[10,37,43,63,84,103,123,144,163,184,204,223,243,263,283,304,323,343,364,383,403,423,443,463,484,503,523,543,563,584,603,625,643,664,684,704,722,743,763,783,804,823,844,864,884,903,923,943,964,983,1004,1023,1044,1063,1083,1103,1123],"xSR":741.5,"ySR":469.95,"xT1":424.9,"yT1":0,"xT2":1058.1,"yT2":0,"toosoon":0,"cond_shown":"equaldotsize","ratio_trial":500,"smaller_num":"1","larger_num":"2","correct_side":2,"subjID":"valerybonilla19","gender":"1","age":"11","school":"6"},{"start_time":1551901578459,"click_time":1551901579160,"finger_time":1551901579080,"fix_duration":598.403453904551,"trial":39,"RT":621,"MT":80,"sideResp":1,"stimulus":"img/500/equaldotsize/L/4_Ratio_500_L_18_R_9.png","xmouse":[780,780,780,780,780,780,780,780,780,780,780,780,780,780,780,780,780,780,780,780,780,780,780,780,780,780,780,780,780,768,757,705,601,550,506,475],"ymouse":[512,512,512,512,512,512,512,512,512,512,512,512,512,512,512,512,512,512,512,512,512,512,512,512,512,512,512,512,512,492,477,407,277,206,134,78],"timestamp_mouse":[8,20,40,60,80,100,120,140,160,180,201,221,240,260,280,300,321,340,360,380,400,420,440,460,481,501,520,540,560,581,601,621,642,660,680,701],"xSR":741.5,"ySR":469.95,"xT1":424.9,"yT1":0,"xT2":1058.1,"yT2":0,"toosoon":0,"cond_shown":"equaldotsize","ratio_trial":500,"smaller_num":"9","larger_num":"18","correct_side":1,"subjID":"valerybonilla19","gender":"1","age":"11","school":"6"},{"start_time":1551901580403,"click_time":1551901581279,"finger_time":1551901580919,"fix_duration":383.4010918982882,"trial":40,"RT":516,"MT":360,"sideResp":2,"stimulus":"img/250/equaldotanddens/R/8_Ratio_250_L_1_R_4.png","xmouse":[788,788,788,788,788,788,788,788,788,788,788,788,788,788,788,788,788,788,788,788,788,788,788,789,793,856,914,988,1052,1105,1176,1176,1176,1176,1176,1176,1176,1176,1176,1176,1176,1176,1176,1133],"ymouse":[522,522,522,522,522,522,522,522,522,522,522,522,522,522,522,522,522,522,522,522,522,522,522,523,522,447,380,306,226,143,15,15,15,15,15,15,15,15,15,15,15,15,15,7],"timestamp_mouse":[31,36,56,76,96,116,136,156,176,196,216,237,256,276,296,317,337,356,377,396,416,436,456,477,496,516,536,556,576,597,616,635,656,676,697,716,737,756,776,796,816,836,856,876],"xSR":741.5,"ySR":469.95,"xT1":424.9,"yT1":0,"xT2":1058.1,"yT2":0,"toosoon":0,"cond_shown":"equaldotanddens","ratio_trial":250,"smaller_num":"1","larger_num":"4","correct_side":2,"subjID":"valerybonilla19","gender":"1","age":"11","school":"6"},{"start_time":1551901583127,"click_time":1551901584039,"finger_time":1551901583759,"fix_duration":1006.3105614004332,"trial":41,"RT":632,"MT":280,"sideResp":2,"stimulus":"img/900/equaldotanddens/R/15_Ratio_900_L_9_R_10.png","xmouse":[793,793,793,793,793,793,793,793,793,793,793,793,793,793,793,793,793,793,793,793,793,793,793,793,793,793,793,793,793,800,821,862,918,990,1114,1134,1141,1145,1147,1148,1148,1148,1148,1148,1148,1143],"ymouse":[512,512,512,512,512,512,512,512,512,512,512,512,512,512,512,512,512,512,512,512,512,512,512,512,512,512,512,512,512,507,487,452,406,345,206,170,146,131,125,124,124,124,124,124,112,85],"timestamp_mouse":[20,38,52,73,92,112,132,152,173,192,212,233,252,272,292,313,332,352,372,392,412,433,452,473,492,512,532,552,572,592,612,632,652,673,693,713,732,752,772,793,813,832,853,873,892,912],"xSR":741.5,"ySR":469.95,"xT1":424.9,"yT1":0,"xT2":1058.1,"yT2":0,"toosoon":0,"cond_shown":"equaldotanddens","ratio_trial":900,"smaller_num":"9","larger_num":"10","correct_side":2,"subjID":"valerybonilla19","gender":"1","age":"11","school":"6"},{"start_time":1551901585745,"click_time":1551901586639,"finger_time":1551901586360,"fix_duration":864.899123996411,"trial":42,"RT":615,"MT":279,"sideResp":2,"stimulus":"img/250/randomdotsizeEA/R/4_Ratio_250_L_3_R_12.png","xmouse":[808,808,808,808,808,808,808,808,808,808,808,808,808,808,808,808,808,808,808,808,808,808,808,808,808,808,808,808,815,822,832,847,875,895,922,929,932,938,949,953,957,964,978,1020,1081],"ymouse":[486,486,486,486,486,486,486,486,486,486,486,486,486,486,486,486,486,486,486,486,486,486,486,486,486,486,486,486,481,470,446,413,337,282,187,154,127,106,80,74,70,67,64,59,59],"timestamp_mouse":[15,41,55,75,94,115,135,154,174,194,214,235,254,274,295,314,334,356,375,394,414,435,454,475,494,514,535,554,575,594,615,634,654,675,695,714,735,755,775,794,814,835,854,874,894],"xSR":741.5,"ySR":469.95,"xT1":424.9,"yT1":0,"xT2":1058.1,"yT2":0,"toosoon":0,"cond_shown":"randomdotsizeEA","ratio_trial":250,"smaller_num":"3","larger_num":"12","correct_side":2,"subjID":"valerybonilla19","gender":"1","age":"11","school":"6"},{"start_time":1551901588765,"click_time":1551901589699,"finger_time":1551901589379,"fix_duration":1344.3211670715455,"trial":43,"RT":614,"MT":320,"sideResp":2,"stimulus":"img/750/equaldotsize/R/4_Ratio_750_L_15_R_20.png","xmouse":[789,789,789,789,789,789,789,789,789,789,789,789,789,789,789,789,789,789,789,789,789,789,789,789,789,789,789,789,790,813,881,938,985,1074,1113,1136,1151,1158,1161,1161,1161,1162,1162,1146,1133,1121,1120],"ymouse":[541,541,541,541,541,541,541,541,541,541,541,541,541,541,541,541,541,541,541,541,541,541,541,541,541,541,541,541,539,525,483,441,396,291,245,214,195,181,177,177,177,176,168,138,121,106,99],"timestamp_mouse":[14,37,54,75,94,115,135,154,174,194,214,234,254,274,294,316,334,355,375,394,414,434,454,475,494,514,535,555,574,594,614,634,655,674,694,714,734,754,775,795,814,835,855,873,894,914,934],"xSR":741.5,"ySR":469.95,"xT1":424.9,"yT1":0,"xT2":1058.1,"yT2":0,"toosoon":0,"cond_shown":"equaldotsize","ratio_trial":750,"smaller_num":"15","larger_num":"20","correct_side":2,"subjID":"valerybonilla19","gender":"1","age":"11","school":"6"},{"start_time":1551901591515,"click_time":1551901592340,"finger_time":1551901592139,"fix_duration":1195.4456681623583,"trial":44,"RT":624,"MT":201,"sideResp":1,"stimulus":"img/500/equaldotanddens/L/8_Ratio_500_L_8_R_4.png","xmouse":[815,815,815,815,815,815,815,815,815,815,815,815,807,799,791,784,781,781,781,781,781,780,773,768,766,766,766,766,766,766,761,735,680,643,612,586,546,533,526,521,516,508],"ymouse":[523,523,523,523,523,523,523,523,523,523,523,523,523,523,523,523,523,523,523,523,523,523,523,523,523,523,523,523,523,523,518,488,420,366,310,255,168,142,123,112,101,86],"timestamp_mouse":[10,24,45,64,85,104,124,144,164,185,205,224,245,264,284,304,324,344,364,385,404,424,445,464,485,504,524,545,564,584,604,624,644,664,684,704,725,744,765,785,804,825],"xSR":741.5,"ySR":469.95,"xT1":424.9,"yT1":0,"xT2":1058.1,"yT2":0,"toosoon":0,"cond_shown":"equaldotanddens","ratio_trial":500,"smaller_num":"4","larger_num":"8","correct_side":1,"subjID":"valerybonilla19","gender":"1","age":"11","school":"6"},{"start_time":1551901594876,"click_time":1551901595679,"finger_time":1551901595419,"fix_duration":416.1349240865988,"trial":45,"RT":543,"MT":260,"sideResp":2,"stimulus":"img/750/equaldotsize/R/11_Ratio_750_L_12_R_16.png","xmouse":[787,787,787,787,787,787,787,787,786,786,786,786,786,786,786,786,786,786,786,786,786,791,801,811,828,833,839,851,870,925,955,976,990,1004,1018,1025,1034,1045,1057,1076,1080],"ymouse":[525,525,525,525,525,525,527,528,533,533,533,533,533,533,533,533,533,533,533,533,533,528,519,511,496,489,479,464,448,404,377,346,320,288,256,242,223,200,176,117,97],"timestamp_mouse":[9,23,43,63,83,103,124,143,164,184,203,223,243,264,283,303,323,343,364,385,403,423,444,463,484,503,524,543,564,583,603,623,643,663,683,703,724,744,763,783,803],"xSR":741.5,"ySR":469.95,"xT1":424.9,"yT1":0,"xT2":1058.1,"yT2":0,"toosoon":0,"cond_shown":"equaldotsize","ratio_trial":750,"smaller_num":"12","larger_num":"16","correct_side":2,"subjID":"valerybonilla19","gender":"1","age":"11","school":"6"},{"start_time":1551901596791,"click_time":1551901598039,"finger_time":1551901597479,"fix_duration":250,"trial":46,"RT":688,"MT":560,"sideResp":2,"stimulus":"img/900/equaldotsize/L/10_Ratio_900_L_20_R_18.png","xmouse":[796,796,796,795,795,795,795,795,795,795,794,794,794,793,792,792,792,792,792,792,792,792,792,792,792,792,792,792,792,792,792,792,792,792,792,793,793,793,795,799,809,822,844,926,971,1027,1040,1055,1063,1064,1065,1065,1066,1075,1075,1075,1076,1076,1076,1076,1076,1076,1076],"ymouse":[487,488,488,490,490,490,490,490,491,491,494,495,499,506,508,508,508,508,508,508,508,508,508,508,508,508,508,508,508,508,508,506,502,478,467,458,455,454,454,452,447,437,417,335,286,216,197,163,137,133,132,132,131,127,127,127,126,126,121,115,108,101,96],"timestamp_mouse":[8,34,48,69,88,108,128,148,169,189,209,228,249,268,288,308,328,349,368,388,408,429,448,468,489,508,528,548,569,588,608,628,649,668,688,707,728,748,768,788,808,829,848,868,889,908,928,949,968,988,1009,1028,1049,1068,1088,1108,1129,1149,1168,1188,1208,1229,1248],"xSR":741.5,"ySR":469.95,"xT1":424.9,"yT1":0,"xT2":1058.1,"yT2":0,"toosoon":0,"cond_shown":"equaldotsize","ratio_trial":900,"smaller_num":"18","larger_num":"20","correct_side":1,"subjID":"valerybonilla19","gender":"1","age":"11","school":"6"},{"start_time":1551901601042,"click_time":1551901601960,"finger_time":1551901601679,"fix_duration":641.3760750258099,"trial":47,"RT":637,"MT":281,"sideResp":1,"stimulus":"img/900/equaldotanddens/L/8_Ratio_900_L_20_R_18.png","xmouse":[795,795,795,795,795,795,795,795,795,795,795,795,795,795,795,795,795,795,795,795,795,795,795,795,795,795,795,795,795,788,755,733,715,690,664,639,603,603,603,603,603,603,603,603,603,485],"ymouse":[525,525,525,525,525,525,525,525,525,525,525,525,525,525,525,525,525,525,525,525,525,525,525,525,525,525,525,525,525,518,475,433,373,286,194,105,21,21,21,21,21,21,21,21,21,7],"timestamp_mouse":[31,37,57,77,98,117,138,158,178,198,217,237,258,278,297,317,338,358,377,398,417,437,458,477,497,517,537,558,577,597,617,637,657,678,697,717,738,758,777,797,818,837,857,878,897,918],"xSR":741.5,"ySR":469.95,"xT1":424.9,"yT1":0,"xT2":1058.1,"yT2":0,"toosoon":0,"cond_shown":"equaldotanddens","ratio_trial":900,"smaller_num":"18","larger_num":"20","correct_side":1,"subjID":"valerybonilla19","gender":"1","age":"11","school":"6"},{"start_time":1551901603559,"click_time":1551901604521,"finger_time":1551901604219,"fix_duration":518.5982366936765,"trial":48,"RT":660,"MT":302,"sideResp":1,"stimulus":"img/500/equaldotsize/L/13_Ratio_500_L_12_R_6.png","xmouse":[797,797,797,797,797,797,797,797,797,797,797,797,797,797,797,797,797,797,797,797,797,797,797,797,797,797,797,797,797,797,797,786,770,742,731,693,645,634,630,630,630,628,625,619,601,581,546,533,523],"ymouse":[502,502,502,502,502,502,502,502,502,502,502,502,502,502,502,502,502,502,502,502,502,502,502,502,502,502,502,502,502,502,502,492,472,438,425,375,292,259,232,212,174,155,138,115,85,74,71,71,72],"timestamp_mouse":[8,34,40,60,81,101,120,140,160,180,200,221,240,260,281,301,321,340,361,380,401,421,440,461,480,500,521,540,560,580,601,620,641,660,681,700,720,740,760,780,801,820,840,860,881,901,920,940,961],"xSR":741.5,"ySR":469.95,"xT1":424.9,"yT1":0,"xT2":1058.1,"yT2":0,"toosoon":0,"cond_shown":"equaldotsize","ratio_trial":500,"smaller_num":"6","larger_num":"12","correct_side":1,"subjID":"valerybonilla19","gender":"1","age":"11","school":"6"},{"start_time":1551901606470,"click_time":1551901607719,"finger_time":1551901607120,"fix_duration":1269.8162067120556,"trial":49,"RT":650,"MT":599,"sideResp":1,"stimulus":"img/750/equaldotanddens/L/9_Ratio_750_L_4_R_3.png","xmouse":[777,777,777,777,777,777,777,777,777,777,777,777,777,777,777,777,777,777,777,777,777,777,777,777,777,777,777,777,777,777,801,818,839,855,862,864,864,864,864,864,861,848,826,790,744,659,631,585,548,508,422,391,377,377,377,377,377,377,377,377,377,377,427],"ymouse":[529,529,529,529,529,529,529,529,529,529,529,529,529,529,529,529,529,529,529,529,529,529,529,529,529,529,529,529,528,527,494,475,457,442,433,431,431,431,431,431,430,428,423,411,391,349,329,287,244,196,78,29,8,8,8,8,8,8,8,8,8,8,22],"timestamp_mouse":[9,39,49,69,89,110,129,149,170,191,210,229,250,270,289,310,329,350,370,389,409,429,449,469,490,510,529,549,569,589,609,629,650,669,689,709,730,749,769,789,809,829,849,869,889,909,929,949,970,989,1009,1029,1049,1069,1089,1109,1129,1150,1170,1189,1210,1228,1249],"xSR":741.5,"ySR":469.95,"xT1":424.9,"yT1":0,"xT2":1058.1,"yT2":0,"toosoon":0,"cond_shown":"equaldotanddens","ratio_trial":750,"smaller_num":"3","larger_num":"4","correct_side":1,"subjID":"valerybonilla19","gender":"1","age":"11","school":"6"},{"start_time":1551901609557,"click_time":1551901610459,"finger_time":1551901610219,"fix_duration":1058.9420566521198,"trial":50,"RT":662,"MT":240,"sideResp":1,"stimulus":"img/500/equaldotsize/L/5_Ratio_500_L_4_R_2.png","xmouse":[793,793,792,792,792,792,792,792,792,792,792,792,792,792,792,792,792,792,792,792,792,792,792,792,792,792,792,792,792,792,791,782,772,762,750,735,708,634,604,587,572,562,547,544,534,512],"ymouse":[495,498,499,500,500,500,500,500,500,500,500,500,500,500,500,500,500,500,500,500,500,500,500,500,500,500,500,500,500,500,500,489,478,460,434,397,337,202,151,111,83,62,38,35,34,34],"timestamp_mouse":[2,30,42,63,83,102,122,143,162,182,203,223,242,262,283,302,323,342,362,383,402,423,442,462,482,502,522,542,562,582,602,622,642,662,682,703,723,742,762,783,802,822,842,862,882,902],"xSR":741.5,"ySR":469.95,"xT1":424.9,"yT1":0,"xT2":1058.1,"yT2":0,"toosoon":0,"cond_shown":"equaldotsize","ratio_trial":500,"smaller_num":"2","larger_num":"4","correct_side":1,"subjID":"valerybonilla19","gender":"1","age":"11","school":"6"},{"start_time":1551901613222,"click_time":1551901614099,"finger_time":1551901613779,"fix_duration":421.1784979079747,"trial":51,"RT":557,"MT":320,"sideResp":1,"stimulus":"img/500/equaldotsize/L/8_Ratio_500_L_8_R_4.png","xmouse":[777,777,777,777,777,777,777,777,777,777,777,777,777,777,777,777,777,777,778,778,778,779,779,775,772,771,764,748,688,636,580,533,495,438,423,418,417,417,417,417,417,417,417,425],"ymouse":[508,508,508,508,508,508,508,508,508,508,508,508,508,508,508,508,508,508,507,503,499,494,489,477,475,474,470,461,417,380,334,288,241,140,109,93,89,89,89,89,89,89,89,87],"timestamp_mouse":[17,39,58,78,97,117,138,158,178,197,217,239,257,277,297,317,337,357,378,397,417,437,457,477,498,518,537,557,577,597,619,638,658,677,697,717,738,758,778,797,817,837,859,877],"xSR":741.5,"ySR":469.95,"xT1":424.9,"yT1":0,"xT2":1058.1,"yT2":0,"toosoon":0,"cond_shown":"equaldotsize","ratio_trial":500,"smaller_num":"4","larger_num":"8","correct_side":1,"subjID":"valerybonilla19","gender":"1","age":"11","school":"6"},{"start_time":1551901615314,"click_time":1551901616139,"finger_time":1551901616000,"fix_duration":533.0352288509526,"trial":52,"RT":686,"MT":139,"sideResp":1,"stimulus":"img/750/equaldotsize/L/1_Ratio_750_L_20_R_15.png","xmouse":[791,791,791,791,791,791,791,791,791,791,791,791,791,791,791,791,791,791,791,791,791,791,791,791,791,791,791,791,791,791,791,791,791,789,773,747,711,672,629,568,540,522],"ymouse":[491,491,491,491,491,491,491,491,491,491,491,491,491,491,491,491,491,491,491,491,491,491,491,491,491,491,491,491,491,491,491,491,491,479,442,388,324,260,197,102,52,25],"timestamp_mouse":[14,37,45,65,87,105,126,146,165,185,205,227,246,266,287,305,325,346,367,385,407,425,445,465,485,506,527,545,565,587,605,626,645,665,686,705,726,745,766,785,805,825],"xSR":741.5,"ySR":469.95,"xT1":424.9,"yT1":0,"xT2":1058.1,"yT2":0,"toosoon":0,"cond_shown":"equaldotsize","ratio_trial":750,"smaller_num":"15","larger_num":"20","correct_side":1,"subjID":"valerybonilla19","gender":"1","age":"11","school":"6"},{"start_time":1551901617169,"click_time":1551901618200,"finger_time":1551901618099,"fix_duration":268.2323797156392,"trial":53,"RT":930,"MT":101,"sideResp":2,"stimulus":"img/900/equaldotsize/L/1_Ratio_900_L_10_R_9.png","xmouse":[806,806,806,806,806,806,806,806,806,806,806,806,806,806,806,806,806,806,806,806,806,806,806,806,806,806,806,806,806,806,806,806,806,806,806,806,806,806,806,806,806,806,806,806,808,814,868,899,934,970,1007,1072],"ymouse":[505,505,505,505,505,505,505,505,505,505,505,505,505,505,505,505,505,505,505,505,505,505,505,505,505,505,505,505,505,505,505,505,505,505,505,505,505,505,505,505,505,505,505,505,505,497,423,382,332,273,212,97],"timestamp_mouse":[11,31,51,71,92,110,130,152,172,191,211,231,251,271,290,312,330,350,370,391,410,430,452,471,492,512,531,550,570,590,610,630,650,670,690,710,730,750,771,790,811,830,851,871,890,912,930,950,970,992,1011,1031],"xSR":741.5,"ySR":469.95,"xT1":424.9,"yT1":0,"xT2":1058.1,"yT2":0,"toosoon":0,"cond_shown":"equaldotsize","ratio_trial":900,"smaller_num":"9","larger_num":"10","correct_side":1,"subjID":"valerybonilla19","gender":"1","age":"11","school":"6"},{"start_time":1551901619875,"click_time":1551901620719,"finger_time":1551901620299,"fix_duration":873.1021077193492,"trial":54,"RT":424,"MT":420,"sideResp":1,"stimulus":"img/500/equaldotanddens/L/11_Ratio_500_L_12_R_6.png","xmouse":[783,783,783,783,783,783,783,783,783,783,783,783,783,783,783,783,783,783,780,773,753,721,573,513,469,443,428,427,427,427,427,427,427,439,454,466,475,475,475,475,475,470,464],"ymouse":[508,508,508,508,508,508,508,508,508,508,508,508,508,508,508,508,508,508,506,495,471,438,337,296,261,238,215,211,210,210,210,210,209,206,202,197,180,169,160,138,131,109,79],"timestamp_mouse":[10,25,44,65,85,104,124,144,165,184,205,224,245,265,286,305,325,345,364,385,404,424,445,466,485,504,525,544,564,586,605,624,644,664,684,705,725,744,764,785,804,825,844],"xSR":741.5,"ySR":469.95,"xT1":424.9,"yT1":0,"xT2":1058.1,"yT2":0,"toosoon":0,"cond_shown":"equaldotanddens","ratio_trial":500,"smaller_num":"6","larger_num":"12","correct_side":1,"subjID":"valerybonilla19","gender":"1","age":"11","school":"6"},{"start_time":1551901621872,"click_time":1551901622819,"finger_time":1551901622659,"fix_duration":250,"trial":55,"RT":787,"MT":160,"sideResp":2,"stimulus":"img/900/randomdotsizeEA/R/13_Ratio_900_L_18_R_20.png","xmouse":[784,784,784,784,784,784,784,784,784,784,784,784,784,784,784,784,784,784,784,784,784,784,784,784,784,784,784,784,784,784,784,784,784,784,785,785,787,803,819,853,880,916,981,1013,1041,1062,1077,1094],"ymouse":[520,520,520,520,520,520,520,520,520,520,520,520,520,520,520,520,520,520,520,520,520,520,520,520,520,520,520,520,520,520,520,520,520,520,521,521,521,502,477,430,387,335,237,191,152,123,101,70],"timestamp_mouse":[8,27,47,69,87,108,127,148,168,188,209,227,247,267,288,307,327,348,367,388,408,428,447,467,487,509,528,547,567,588,609,627,648,667,687,708,728,748,767,787,807,827,847,867,887,908,927,947],"xSR":741.5,"ySR":469.95,"xT1":424.9,"yT1":0,"xT2":1058.1,"yT2":0,"toosoon":0,"cond_shown":"randomdotsizeEA","ratio_trial":900,"smaller_num":"18","larger_num":"20","correct_side":2,"subjID":"valerybonilla19","gender":"1","age":"11","school":"6"},{"start_time":1551901623812,"click_time":1551901625181,"finger_time":1551901624519,"fix_duration":250,"trial":56,"RT":707,"MT":662,"sideResp":1,"stimulus":"img/500/randomdotsizeEA/L/4_Ratio_500_L_18_R_9.png","xmouse":[801,801,801,801,801,801,801,801,801,801,801,801,801,801,801,801,801,801,801,801,801,801,801,801,801,801,801,801,801,801,801,801,801,806,822,875,906,928,941,947,953,953,953,953,953,953,953,953,949,927,864,818,796,780,756,678,626,578,556,556,556,556,556,556,556,556,556,556,445],"ymouse":[524,524,524,524,524,524,524,524,524,524,524,524,524,524,524,524,524,524,524,524,524,524,524,524,524,524,524,524,524,524,524,524,524,521,510,472,454,436,422,408,386,382,378,378,378,378,378,377,377,377,377,370,366,354,324,197,126,58,23,23,23,23,23,23,23,23,23,23,4],"timestamp_mouse":[8,39,47,68,88,108,127,148,168,187,208,227,248,269,287,307,327,348,369,389,407,427,447,468,488,507,528,548,569,587,607,628,647,668,688,707,728,747,767,788,807,828,847,868,888,908,927,948,968,988,1007,1029,1047,1067,1087,1108,1127,1148,1169,1189,1208,1229,1248,1267,1288,1307,1328,1347,1369],"xSR":741.5,"ySR":469.95,"xT1":424.9,"yT1":0,"xT2":1058.1,"yT2":0,"toosoon":0,"cond_shown":"randomdotsizeEA","ratio_trial":500,"smaller_num":"9","larger_num":"18","correct_side":1,"subjID":"valerybonilla19","gender":"1","age":"11","school":"6"},{"start_time":1551901627737,"click_time":1551901628620,"finger_time":1551901628399,"fix_duration":295.39839928763644,"trial":57,"RT":662,"MT":221,"sideResp":2,"stimulus":"img/750/randomdotsizeEA/L/1_Ratio_750_L_20_R_15.png","xmouse":[786,786,786,786,786,786,786,786,786,786,786,786,786,786,786,786,786,786,786,786,786,786,786,786,786,786,786,786,786,786,797,813,825,839,873,888,908,931,955,992,1006,1021,1040,1060,1101],"ymouse":[530,530,530,530,530,530,530,530,530,530,530,530,530,530,530,530,530,530,530,530,530,530,530,530,530,530,530,530,530,529,515,501,483,469,421,403,381,354,327,280,255,227,193,160,86],"timestamp_mouse":[10,31,43,62,82,103,123,142,162,183,203,223,242,264,282,302,322,344,363,383,403,422,442,464,482,503,522,542,563,583,602,622,642,662,683,702,722,743,762,782,802,822,842,862,882],"xSR":741.5,"ySR":469.95,"xT1":424.9,"yT1":0,"xT2":1058.1,"yT2":0,"toosoon":0,"cond_shown":"randomdotsizeEA","ratio_trial":750,"smaller_num":"15","larger_num":"20","correct_side":1,"subjID":"valerybonilla19","gender":"1","age":"11","school":"6"},{"start_time":1551901630518,"click_time":1551901631939,"finger_time":1551901631339,"fix_duration":1058.5121943132456,"trial":58,"RT":821,"MT":600,"sideResp":1,"stimulus":"img/250/equaldotanddens/L/14_Ratio_250_L_12_R_3.png","xmouse":[756,756,756,756,756,756,756,756,756,756,756,756,756,756,756,756,756,756,756,756,756,756,756,756,756,756,756,756,756,756,756,756,756,756,756,756,756,756,756,756,756,756,756,755,749,748,746,746,746,746,746,746,746,746,745,738,725,725,725,725,723,713,708,690,679,657,587,551,511,482,461,443],"ymouse":[547,547,547,547,547,547,547,547,547,547,547,547,547,547,547,547,547,547,547,547,547,547,547,547,547,547,547,547,547,547,547,547,547,547,547,547,546,536,524,506,489,449,422,416,397,390,385,385,385,385,385,385,385,385,385,381,377,377,377,377,374,362,356,336,319,293,215,178,146,122,104,80],"timestamp_mouse":[8,35,41,62,82,101,121,142,161,183,202,222,242,261,281,301,321,341,361,381,403,422,441,462,481,503,522,542,562,582,602,621,643,661,683,701,723,741,762,782,801,821,843,861,881,902,921,941,962,982,1001,1021,1041,1061,1082,1102,1121,1143,1163,1182,1202,1221,1242,1261,1283,1302,1321,1343,1361,1382,1402,1421],"xSR":741.5,"ySR":469.95,"xT1":424.9,"yT1":0,"xT2":1058.1,"yT2":0,"toosoon":0,"cond_shown":"equaldotanddens","ratio_trial":250,"smaller_num":"3","larger_num":"12","correct_side":1,"subjID":"valerybonilla19","gender":"1","age":"11","school":"6"},{"start_time":1551901633301,"click_time":1551901634520,"finger_time":1551901634220,"fix_duration":559.7789613067724,"trial":59,"RT":919,"MT":300,"sideResp":2,"stimulus":"img/250/randomdotsizeEA/R/13_Ratio_250_L_2_R_8.png","xmouse":[775,775,775,775,775,775,775,775,775,775,775,775,775,775,775,775,775,775,775,775,775,775,775,775,775,775,775,775,775,775,775,775,775,775,775,775,775,775,775,775,775,775,775,776,783,806,851,979,1030,1067,1087,1091,1092,1092,1092,1092,1092,1092,1092,1093,1097,1105],"ymouse":[502,502,502,502,502,502,502,502,502,502,502,502,502,502,502,502,502,502,502,502,502,502,502,502,502,502,502,502,502,502,502,502,502,502,502,502,502,502,502,502,502,502,502,502,501,487,461,356,292,228,185,166,163,163,163,163,163,160,150,133,116,94],"timestamp_mouse":[1,21,38,59,78,98,118,138,159,178,208,218,238,259,280,298,318,338,358,378,399,418,439,458,480,498,518,538,559,580,599,618,638,658,679,698,718,739,759,780,798,819,839,859,878,899,919,939,958,979,998,1018,1039,1059,1078,1098,1119,1139,1158,1178,1198,1218],"xSR":741.5,"ySR":469.95,"xT1":424.9,"yT1":0,"xT2":1058.1,"yT2":0,"toosoon":0,"cond_shown":"randomdotsizeEA","ratio_trial":250,"smaller_num":"2","larger_num":"8","correct_side":2,"subjID":"valerybonilla19","gender":"1","age":"11","school":"6"},{"start_time":1551901637032,"click_time":1551901637941,"finger_time":1551901637799,"fix_duration":250,"trial":60,"RT":767,"MT":142,"sideResp":2,"stimulus":"img/250/equaldotsize/R/6_Ratio_250_L_6_R_24.png","xmouse":[782,782,782,782,782,782,782,782,782,782,782,782,782,782,782,782,782,782,782,782,782,782,782,782,782,782,782,782,782,782,782,782,782,782,782,782,800,823,864,910,989,1020,1043,1063,1081,1108],"ymouse":[517,517,517,517,517,517,517,517,517,517,517,517,517,517,517,517,517,517,517,517,517,517,517,517,517,517,517,517,517,517,517,517,517,517,517,517,512,506,489,468,406,366,319,271,204,61],"timestamp_mouse":[8,41,47,67,88,107,128,147,168,187,207,229,248,267,288,308,327,349,367,388,407,429,447,468,487,508,527,547,569,587,607,628,649,667,687,707,727,747,767,788,809,827,848,867,887,909],"xSR":741.5,"ySR":469.95,"xT1":424.9,"yT1":0,"xT2":1058.1,"yT2":0,"toosoon":0,"cond_shown":"equaldotsize","ratio_trial":250,"smaller_num":"6","larger_num":"24","correct_side":2,"subjID":"valerybonilla19","gender":"1","age":"11","school":"6"},{"start_time":1551901639853,"click_time":1551901641160,"finger_time":1551901640680,"fix_duration":1092.4328152320863,"trial":61,"RT":827,"MT":480,"sideResp":2,"stimulus":"img/900/randomdotsizeEA/R/12_Ratio_900_L_18_R_20.png","xmouse":[784,784,784,784,784,784,784,784,784,784,784,784,784,784,784,784,784,784,784,784,784,784,784,784,784,784,784,784,784,784,784,784,784,784,784,784,784,786,791,807,837,856,888,902,915,928,931,934,938,942,956,966,981,992,999,1016,1023,1028,1031,1034,1040,1045,1046,1051,1056,1069],"ymouse":[501,501,501,501,501,501,501,501,501,501,501,501,501,501,501,501,501,501,501,501,501,501,501,501,501,501,501,501,501,501,501,501,501,501,501,501,501,501,501,496,478,462,424,401,379,340,328,321,312,303,279,265,247,235,221,189,174,163,153,141,119,105,101,88,77,52],"timestamp_mouse":[13,35,47,67,88,108,126,147,166,186,207,227,248,266,286,306,327,346,367,387,406,426,446,467,487,506,527,548,567,586,606,626,647,666,686,707,727,747,767,787,806,827,846,866,887,907,928,946,967,987,1006,1027,1046,1066,1087,1106,1128,1146,1166,1187,1206,1227,1246,1267,1286,1307],"xSR":741.5,"ySR":469.95,"xT1":424.9,"yT1":0,"xT2":1058.1,"yT2":0,"toosoon":0,"cond_shown":"randomdotsizeEA","ratio_trial":900,"smaller_num":"18","larger_num":"20","correct_side":2,"subjID":"valerybonilla19","gender":"1","age":"11","school":"6"},{"start_time":1551901642483,"click_time":1551901643559,"finger_time":1551901643119,"fix_duration":502.07929890437333,"trial":62,"RT":636,"MT":440,"sideResp":2,"stimulus":"img/500/equaldotanddens/R/1_Ratio_500_L_9_R_18.png","xmouse":[801,801,801,801,801,801,801,801,801,801,801,801,801,801,801,801,801,801,801,801,801,801,801,801,801,801,801,801,804,820,838,867,906,966,981,993,998,1003,1013,1019,1022,1025,1029,1033,1034,1035,1035,1035,1035,1036,1039,1047,1053,1059],"ymouse":[498,498,498,498,498,498,498,498,498,498,498,498,498,498,498,498,498,498,498,498,498,498,498,498,498,498,498,498,496,487,479,468,447,396,361,320,287,251,189,153,131,107,86,50,42,41,41,41,41,41,41,41,41,41],"timestamp_mouse":[16,41,56,76,97,117,136,156,176,197,217,236,256,278,296,316,337,357,377,398,417,437,458,478,496,516,538,556,576,597,616,636,657,677,696,716,737,758,776,797,816,837,857,876,897,916,937,957,976,997,1016,1038,1057,1076],"xSR":741.5,"ySR":469.95,"xT1":424.9,"yT1":0,"xT2":1058.1,"yT2":0,"toosoon":0,"cond_shown":"equaldotanddens","ratio_trial":500,"smaller_num":"9","larger_num":"18","correct_side":2,"subjID":"valerybonilla19","gender":"1","age":"11","school":"6"},{"start_time":1551901645621,"click_time":1551901647100,"finger_time":1551901646740,"fix_duration":1279.897071665228,"trial":63,"RT":1119,"MT":360,"sideResp":2,"stimulus":"img/900/equaldotsize/R/9_Ratio_900_L_18_R_20.png","xmouse":[777,777,777,777,777,777,777,777,777,777,777,777,777,777,777,777,777,777,777,777,777,777,777,777,777,777,777,777,777,777,777,777,777,777,777,777,777,777,777,777,777,777,777,780,787,797,809,814,822,830,831,831,831,833,838,847,863,868,876,886,897,918,946,960,976,995,1011,1039,1051,1067,1082,1102,1124,1132],"ymouse":[499,499,499,499,499,499,499,499,499,499,499,499,499,499,499,499,499,499,499,499,499,499,499,499,499,499,499,499,499,499,499,499,499,499,499,499,499,499,499,499,499,499,499,499,498,496,494,494,492,491,490,490,490,490,488,484,473,468,460,449,435,410,368,344,315,283,257,209,187,167,147,124,100,89],"timestamp_mouse":[19,38,58,80,98,118,139,158,179,199,218,240,259,280,298,319,339,359,380,398,419,439,459,478,498,518,538,560,579,599,620,639,659,679,698,719,739,759,779,800,819,838,859,878,898,919,939,959,978,999,1019,1039,1060,1078,1100,1119,1139,1158,1178,1199,1219,1238,1258,1278,1300,1319,1340,1358,1378,1399,1418,1439,1460,1479],"xSR":741.5,"ySR":469.95,"xT1":424.9,"yT1":0,"xT2":1058.1,"yT2":0,"toosoon":0,"cond_shown":"equaldotsize","ratio_trial":900,"smaller_num":"18","larger_num":"20","correct_side":2,"subjID":"valerybonilla19","gender":"1","age":"11","school":"6"},{"start_time":1551901648248,"click_time":1551901649420,"finger_time":1551901649161,"fix_duration":467.5563723401177,"trial":64,"RT":913,"MT":259,"sideResp":1,"stimulus":"img/250/equaldotanddens/L/1_Ratio_250_L_8_R_2.png","xmouse":[816,816,816,816,816,816,816,816,816,816,816,816,816,816,816,816,816,816,816,816,816,816,816,816,816,816,816,816,816,816,816,816,816,816,816,816,816,816,816,816,816,816,816,802,789,763,752,742,718,671,634,595,590,586,584,582,562,528,515],"ymouse":[530,530,530,530,530,530,530,530,530,530,530,530,530,530,530,530,530,530,530,530,530,530,530,530,530,530,530,530,530,530,530,530,530,530,530,530,530,530,530,530,530,530,530,518,501,460,441,417,377,295,245,171,152,140,134,128,110,94,88],"timestamp_mouse":[11,32,53,72,91,112,131,153,172,191,212,231,251,272,291,312,333,351,373,391,412,431,451,472,492,511,532,551,573,592,612,631,652,671,691,711,733,751,773,791,811,832,851,871,891,913,931,951,972,991,1011,1031,1052,1072,1091,1112,1131,1152,1172],"xSR":741.5,"ySR":469.95,"xT1":424.9,"yT1":0,"xT2":1058.1,"yT2":0,"toosoon":0,"cond_shown":"equaldotanddens","ratio_trial":250,"smaller_num":"2","larger_num":"8","correct_side":1,"subjID":"valerybonilla19","gender":"1","age":"11","school":"6"},{"start_time":1551901650532,"click_time":1551901652099,"finger_time":1551901651800,"fix_duration":250,"trial":65,"RT":1268,"MT":299,"sideResp":1,"stimulus":"img/250/randomdotsizeEA/L/5_Ratio_250_L_24_R_6.png","xmouse":[786,786,786,786,786,786,786,786,786,786,786,786,786,786,786,786,786,786,786,786,786,786,786,786,786,786,786,786,786,786,786,786,786,786,786,786,786,786,786,786,786,786,786,786,786,786,786,786,786,786,786,786,786,786,786,786,786,786,786,786,786,786,780,730,658,588,522,433,417,409,406,405,404,404,404,404,410,436,444],"ymouse":[555,555,555,555,555,555,554,547,545,543,542,541,541,541,541,541,541,541,541,541,541,541,541,541,541,541,541,541,541,541,541,541,541,541,541,541,541,541,541,541,541,541,541,541,541,541,541,541,541,541,541,541,541,541,541,541,541,541,541,541,541,541,532,497,439,378,312,201,170,148,132,124,117,116,116,115,114,105,97],"timestamp_mouse":[10,32,48,68,87,107,127,147,167,187,208,228,247,268,288,307,328,348,368,388,408,427,447,467,488,508,528,547,567,587,608,627,648,668,688,708,727,747,768,789,808,828,848,867,887,909,927,948,967,988,1009,1027,1047,1067,1087,1107,1129,1147,1168,1188,1207,1227,1247,1268,1287,1309,1328,1348,1367,1387,1407,1427,1448,1468,1487,1508,1528,1547,1567],"xSR":741.5,"ySR":469.95,"xT1":424.9,"yT1":0,"xT2":1058.1,"yT2":0,"toosoon":0,"cond_shown":"randomdotsizeEA","ratio_trial":250,"smaller_num":"6","larger_num":"24","correct_side":1,"subjID":"valerybonilla19","gender":"1","age":"11","school":"6"},{"start_time":1551901653937,"click_time":1551901654539,"finger_time":1551901654419,"fix_duration":955.333634391461,"trial":66,"RT":482,"MT":120,"sideResp":1,"stimulus":"img/250/equaldotanddens/L/7_Ratio_250_L_8_R_2.png","xmouse":[786,786,786,786,786,786,786,786,786,786,786,786,786,786,786,786,786,786,786,786,786,786,786,778,768,748,710,601,556,526,515],"ymouse":[505,508,508,508,508,508,508,508,508,508,508,508,508,508,508,508,508,508,508,508,508,508,508,487,463,423,368,237,177,121,85],"timestamp_mouse":[2,23,42,62,82,102,122,143,163,183,203,223,243,263,283,303,322,342,363,382,402,423,442,463,482,503,523,543,562,583,602],"xSR":741.5,"ySR":469.95,"xT1":424.9,"yT1":0,"xT2":1058.1,"yT2":0,"toosoon":0,"cond_shown":"equaldotanddens","ratio_trial":250,"smaller_num":"2","larger_num":"8","correct_side":1,"subjID":"valerybonilla19","gender":"1","age":"11","school":"6"},{"start_time":1551901656577,"click_time":1551901657699,"finger_time":1551901657380,"fix_duration":1156.2234860952278,"trial":67,"RT":803,"MT":319,"sideResp":2,"stimulus":"img/500/randomdotsizeEA/R/6_Ratio_500_L_9_R_18.png","xmouse":[799,799,799,799,799,799,799,799,799,799,799,799,799,799,799,799,799,799,799,799,799,799,799,799,799,799,799,799,799,799,799,799,799,799,799,799,799,799,801,816,833,876,911,958,1016,1131,1180,1202,1209,1212,1212,1212,1212,1207,1195,1181,1158],"ymouse":[516,516,516,516,516,516,516,516,516,516,516,516,516,516,516,517,517,517,517,517,517,517,517,517,517,517,517,517,517,517,517,517,517,517,517,517,517,515,508,482,461,412,384,346,304,196,135,93,69,50,46,45,45,43,39,32,27],"timestamp_mouse":[10,34,44,62,83,102,123,143,162,182,203,224,244,262,283,303,322,343,362,384,403,422,444,462,483,502,523,544,563,583,602,623,642,662,683,702,722,743,762,782,803,822,842,862,882,903,922,943,962,982,1002,1023,1042,1063,1083,1102,1122],"xSR":741.5,"ySR":469.95,"xT1":424.9,"yT1":0,"xT2":1058.1,"yT2":0,"toosoon":0,"cond_shown":"randomdotsizeEA","ratio_trial":500,"smaller_num":"9","larger_num":"18","correct_side":2,"subjID":"valerybonilla19","gender":"1","age":"11","school":"6"},{"start_time":1551901659090,"click_time":1551901660220,"finger_time":1551901659940,"fix_duration":509.5927459095052,"trial":68,"RT":850,"MT":280,"sideResp":1,"stimulus":"img/750/equaldotanddens/L/14_Ratio_750_L_8_R_6.png","xmouse":[785,785,785,785,785,785,785,785,785,785,785,785,785,785,785,785,785,785,785,785,785,785,785,785,785,785,785,785,785,785,785,785,785,785,785,785,785,785,785,785,785,779,723,680,649,614,606,598,591,582,573,568,562,551,538,512,497],"ymouse":[492,492,492,492,492,492,492,492,492,492,492,492,492,492,492,492,492,492,492,492,492,492,492,492,492,492,492,492,492,492,492,492,492,492,492,492,492,492,492,492,492,489,442,403,377,335,318,300,280,262,236,225,206,185,161,116,88],"timestamp_mouse":[10,42,49,70,90,111,130,149,169,189,210,231,249,269,290,310,330,349,370,389,411,429,449,469,490,509,530,549,569,589,611,629,651,670,689,709,730,749,770,790,809,829,850,870,890,909,929,950,969,990,1010,1029,1049,1070,1089,1110,1130],"xSR":741.5,"ySR":469.95,"xT1":424.9,"yT1":0,"xT2":1058.1,"yT2":0,"toosoon":0,"cond_shown":"equaldotanddens","ratio_trial":750,"smaller_num":"6","larger_num":"8","correct_side":1,"subjID":"valerybonilla19","gender":"1","age":"11","school":"6"},{"start_time":1551901662751,"click_time":1551901663701,"finger_time":1551901663339,"fix_duration":250,"trial":69,"RT":588,"MT":362,"sideResp":1,"stimulus":"img/750/equaldotanddens/L/10_Ratio_750_L_4_R_3.png","xmouse":[803,802,802,802,802,802,802,802,802,802,802,802,802,802,802,802,802,801,791,789,789,789,789,789,789,789,789,775,743,704,643,580,517,402,402,402,402,402,402,402,402,402,402,402,402,402,418,431],"ymouse":[544,544,544,544,544,544,544,544,544,544,544,544,544,544,544,544,544,542,529,527,527,527,527,527,527,527,527,510,482,442,380,297,213,32,32,32,32,32,32,32,32,32,32,32,32,32,7,45],"timestamp_mouse":[10,30,49,69,89,110,129,148,169,188,208,229,248,269,289,308,328,348,369,389,408,429,448,468,489,508,529,549,569,588,609,628,649,668,689,708,728,748,769,789,808,828,849,869,888,908,929,950],"xSR":741.5,"ySR":469.95,"xT1":424.9,"yT1":0,"xT2":1058.1,"yT2":0,"toosoon":0,"cond_shown":"equaldotanddens","ratio_trial":750,"smaller_num":"3","larger_num":"4","correct_side":1,"subjID":"valerybonilla19","gender":"1","age":"11","school":"6"},{"start_time":1551901664818,"click_time":1551901666139,"finger_time":1551901665840,"fix_duration":474.34891080108997,"trial":70,"RT":1022,"MT":299,"sideResp":1,"stimulus":"img/900/randomdotsizeEA/R/7_Ratio_900_L_9_R_10.png","xmouse":[773,773,773,773,773,773,773,773,773,773,773,773,773,773,773,773,773,773,773,773,773,773,773,773,773,773,773,773,773,773,773,773,773,773,773,773,773,773,773,777,777,777,777,777,777,777,777,777,777,778,776,748,725,639,543,527,523,521,521,520,514,509,503,500,498,498,497],"ymouse":[517,517,517,517,517,517,517,517,517,517,517,517,517,517,517,517,517,517,517,517,517,517,517,517,517,517,517,517,517,517,517,517,517,517,517,517,517,517,517,514,514,514,514,514,514,514,514,514,514,513,486,425,392,305,243,232,229,228,226,225,215,207,192,177,154,106,84],"timestamp_mouse":[9,32,41,62,82,103,121,142,161,182,201,222,241,261,282,301,322,341,361,382,401,421,442,461,481,502,521,541,561,581,602,623,642,662,681,701,722,743,762,782,801,821,842,863,882,901,922,941,963,981,1001,1022,1042,1062,1083,1101,1121,1142,1161,1182,1201,1222,1241,1262,1281,1301,1321],"xSR":741.5,"ySR":469.95,"xT1":424.9,"yT1":0,"xT2":1058.1,"yT2":0,"toosoon":0,"cond_shown":"randomdotsizeEA","ratio_trial":900,"smaller_num":"9","larger_num":"10","correct_side":2,"subjID":"valerybonilla19","gender":"1","age":"11","school":"6"},{"start_time":1551901667895,"click_time":1551901669420,"finger_time":1551901668619,"fix_duration":1035.0072207329238,"trial":71,"RT":724,"MT"