[{"start_time":1551899894627,"click_time":1551899914870,"finger_time":1551899894632,"fix_duration":913.5802526463524,"trial":0,"RT":5,"MT":20238,"sideResp":2,"stimulus":[],"xmouse":[1467,1467,1467,1467,1467,1467,1466,1466,1466,1466,1466,1466,1466,1466,1466,1466,1466,1466,1466,1466,1466,1466,1466,1466,1466,1466,1466,1466,1466,1465,1465,1465,1465,1465,1465,1465,1465,1465,1465,1465,1462,1454,1441,1426,1411,1395,1352,1330,1316,1305,1302,1302,1302,1302,1302,1302,1302,1302,1302,1302,1302,1302,1302,1302,1302,1302,1301,1291,1281,1271,1260,1249,1247,1245,1244,1244,1243,1242,1240,1239,1237,1234,1230,1229,1223,1213,1179,1153,1122,1091,1073,1061,1064,1064,1064,1077,1110,1122,1125,1125,1125,1125,1125,1125,1125,1125,1125,1125,1125,1125,1125,1125,1125,1125,1125,1125,1125,1125,1125,1125,1125,1125,1125,1125,1125,1125,1125,1125,1125,1125,1125,1125,1125,1125,1125,1125,1125,1125,1125,1125,1125,1125,1125,1125,1125,1125,1125,1125,1125,1125,1125,1125,1125,1125,1125,1125,1125,1125,1125,1125,1125,1125,1125,1125,1125,1125,1125,1125,1125,1125,1125,1125,1125,1125,1125,1125,1125,1125,1125,1125,1125,1125,1125,1125,1125,1125,1125,1125,1125,1125,1125,1126,1098,1081,1064,1050,1016,999,987,981,975,972,956,948,939,931,913,909,904,900,899,898,897,897,895,889,849,811,756,723,698,686,683,683,683,683,683,683,683,683,683,683,683,683,684,690,707,744,759,766,767,767,767,767,767,768,769,769,769,769,769,769,769,769,769,769,769,769,769,769,769,769,769,769,769,769,769,769,769,769,769,769,769,769,769,769,769,769,769,769,769,769,769,769,769,769,769,769,769,769,769,769,769,769,769,769,769,769,769,769,769,769,769,769,769,769,769,769,769,769,769,769,769,769,769,769,769,769,769,769,769,769,769,769,769,769,769,769,769,769,769,769,769,769,769,769,769,769,769,769,769,769,773,780,792,800,805,806,806,806,806,806,806,806,806,806,806,806,806,806,806,806,806,806,806,806,806,806,806,806,806,806,806,806,806,806,806,806,806,806,806,806,806,806,806,806,806,806,806,806,806,806,806,806,806,806,806,806,806,806,806,806,806,806,806,806,806,806,806,806,806,806,806,806,806,806,806,806,806,806,806,806,806,806,806,806,806,806,806,806,806,806,806,806,806,806,806,806,806,806,806,806,806,806,806,806,806,806,806,806,806,806,806,806,806,806,807,808,798,772,768,768,768,768,768,768,768,768,768,768,768,768,768,768,768,768,768,768,768,768,768,768,768,768,768,768,768,768,768,768,768,768,768,768,768,777,800,829,878,881,881,881,881,881,881,881,881,881,882,888,898,920,977,1006,1028,1043,1052,1055,1055,1055,1055,1055,1055,1055,1055,1055,1055,1055,1055,1055,1055,1055,1055,1055,1055,1055,1055,1055,1055,1055,1055,1055,1055,1055,1055,1055,1055,1066,1079,1084,1087,1092,1113,1125,1133,1140,1145,1151,1183,1195,1203,1205,1205,1208,1211,1215,1219,1220,1220,1221,1222,1223,1228,1234,1239,1247,1253,1255,1248,1231,1215,1195,1179,1178,1178,1178,1178,1178,1178,1181,1193,1208,1307,1391,1537,1537,1537,1537,1537,1537,1537,1537,1537,1537,1537,1537,1582,1580,1571,1558,1542,1526,1510,1471,1430,1353,1250,1044,1031,1031,1037,1122,1274,1476,1482,1477,1453,1422,1392,1389,1389,1410,1535,1535,1535,1535,1552,1500,1391,1334,1293,1282,1282,1381,1436,1451,1451,1447,1299,1202,1136,1122,1167,1281,1406,1512,1530,1522,1450,1403,1380,1375,1407,1483,1535,1547,1546,1540,1466,1429,1413,1412,1412,1438,1466,1477,1477,1477,1438,1420,1407,1406,1406,1406,1421,1437,1442,1442,1442,1432,1419,1409,1408,1408,1408,1408,1408,1408,1408,1408,1408,1408,1408,1408,1408,1408,1408,1411,1421,1424,1426,1426,1427,1428,1428,1428,1428,1428,1428,1428,1428,1428,1428,1428,1428,1428,1428,1428,1428,1428,1428,1428,1428,1428,1428,1428,1428,1428,1423,1411,1392,1371,1348,1300,1273,1248,1204,1165,1059,1022,997,986,984,981,976,970,968,964,952,939,916,890,862,815,800,790,785,785,785,785,785,785,785,785,785,785,785,785,785,785,785,784,784,784,784,784,784,784,784,784,784,784,783,782,782,782,782,782,782,782,782,782,782,782,782,782,782,782,782,782,782,782,782,782,782,782,782,782,782,782,782,782,782,782,782,782,782,782,782,782,782,782,782,782,782,782,782,782,782,782,782,782,782,782,782,782,782,782,782,782,782,782,782,782,782,782,782,782,782,782,782,782,782,782,782,782,782,782,782,782,782,782,782,782,782,782,782,782,782,782,782,782,782,782,782,782,782,782,782,782,782,782,782,782,782,782,782,782,782,782,782,782,782,782,782,782,782,782,782,782,782,782,782,782,782,782,782,782,782,782,782,782,782,782,782,782,782,782,782,782,782,782,782,782,782,782,782,782,782,782,782,782,782,782,782,782,782,782,782,782,782,782,782,785,793,795,796,796,797,797,797,797,797,797,797,797,797,797,797,797,797,797,797,797,797,797,797,797,797,792,790,790,795,825,862,892,936,975,1044,1067,1090,1109,1126,1153,1158,1162,1163,1164,1164,1164,1158,1144,1136,1130,1123,1120,1119,1119,1119,1119,1119,1119,1119],"ymouse":[593,593,593,593,593,593,592,592,591,591,591,591,591,591,591,591,591,591,591,591,591,591,591,591,591,591,591,591,591,590,590,590,590,590,590,590,590,590,590,590,590,590,589,588,586,584,575,570,565,560,559,559,559,559,559,559,559,559,559,559,559,559,559,559,559,559,559,559,561,565,568,571,573,574,575,575,575,576,577,578,578,581,585,585,587,590,596,604,609,612,617,623,634,636,642,652,672,673,673,673,673,673,673,673,673,673,673,673,673,673,673,673,673,673,673,673,673,673,673,673,673,673,673,673,673,673,673,673,673,673,673,673,673,673,673,673,673,673,673,673,673,673,673,673,673,673,673,673,673,673,673,673,673,673,673,673,673,673,673,673,673,673,673,673,673,673,673,673,673,673,673,673,673,673,673,673,673,673,673,673,673,673,673,673,673,673,673,673,673,673,673,673,644,639,637,636,635,632,628,625,617,611,588,581,577,576,573,572,572,571,571,571,571,571,571,568,551,532,513,504,493,487,486,486,486,486,486,486,486,486,486,486,486,486,486,486,489,495,496,498,498,498,498,498,500,501,503,503,503,503,503,503,503,503,503,503,503,503,503,503,503,503,503,503,503,503,503,503,503,503,503,503,503,503,503,503,503,503,503,503,503,503,503,503,503,503,503,503,503,503,503,503,503,503,503,503,503,503,503,503,503,503,503,503,503,503,503,503,503,503,503,503,503,503,503,503,503,503,503,503,503,503,503,503,503,503,503,503,503,504,504,504,504,504,504,504,504,504,504,504,504,504,507,511,518,524,527,528,528,528,528,528,528,528,528,528,528,528,528,528,528,528,528,528,528,528,528,528,528,528,528,528,528,528,528,528,528,528,528,528,528,528,528,528,528,528,528,528,528,528,528,528,528,528,528,528,528,528,528,528,528,528,528,528,528,528,528,528,528,528,528,528,528,528,528,528,528,528,528,528,528,528,528,528,528,528,528,528,528,528,528,528,528,528,528,528,528,528,528,528,528,528,528,528,528,528,528,528,528,528,528,528,528,528,528,528,528,524,495,463,457,457,457,457,457,457,457,457,457,457,457,457,457,457,457,457,457,457,457,457,457,457,457,457,457,457,457,457,457,457,457,457,457,457,457,462,476,494,523,525,525,525,525,525,525,525,525,525,525,525,526,529,537,542,545,547,549,549,549,549,549,549,549,549,549,549,549,549,549,549,549,549,549,549,549,549,549,549,549,549,549,549,549,549,549,549,549,549,549,549,549,549,549,549,549,549,547,547,543,541,539,539,539,536,535,532,529,529,529,528,527,527,523,519,515,508,501,492,436,398,362,326,299,298,298,298,298,298,298,299,313,326,361,384,436,436,436,436,436,436,436,436,436,436,436,436,537,537,537,537,537,537,537,537,528,512,482,412,407,407,407,416,459,516,520,521,521,521,521,521,521,519,513,513,513,513,513,513,513,512,501,496,494,482,482,482,482,482,492,492,483,478,471,465,466,482,486,488,488,488,488,488,488,488,488,488,489,490,499,502,502,502,502,498,493,492,492,492,494,495,495,495,495,495,495,495,495,495,495,495,495,495,495,495,495,495,495,495,495,495,495,495,495,495,495,495,495,495,495,495,495,495,495,495,495,495,495,495,495,495,495,495,495,495,495,495,495,495,495,495,495,495,495,495,495,495,495,495,495,495,495,495,495,495,495,495,495,495,495,494,494,494,494,495,496,497,497,497,502,503,504,504,504,498,496,495,494,494,494,494,494,494,494,494,494,494,494,494,494,494,494,496,497,500,500,500,501,501,503,505,507,509,511,516,517,517,517,517,517,517,517,517,517,517,517,517,517,517,517,517,517,517,517,517,517,517,517,517,517,517,517,517,517,517,517,517,517,517,517,517,517,517,517,517,517,517,517,517,517,517,517,517,517,517,517,517,517,517,517,517,517,517,517,517,517,517,517,517,517,517,517,517,517,517,517,517,517,517,517,517,517,517,517,517,517,517,517,517,517,517,517,517,517,517,517,517,517,517,517,517,517,517,517,517,517,517,517,517,517,517,517,517,517,517,517,517,517,517,517,517,517,517,517,517,517,517,517,517,517,517,517,517,517,517,517,517,517,517,517,517,517,517,517,517,517,517,517,517,517,517,517,517,517,517,517,517,517,517,517,517,517,517,517,517,514,513,512,512,512,512,512,512,512,512,512,512,512,512,512,512,512,512,512,512,512,512,512,512,509,497,483,470,461,438,416,397,367,337,271,248,232,216,202,171,160,148,137,129,116,114,112,108,106,105,102,101,101,101,101,101,100,100,96],"timestamp_mouse":[4,23,43,63,83,104,123,143,164,183,202,222,242,263,283,303,323,343,363,384,403,424,443,463,482,503,524,544,563,583,602,623,643,664,684,704,722,743,763,783,804,823,843,863,883,903,923,943,962,983,1004,1024,1042,1064,1084,1104,1123,1144,1163,1184,1203,1222,1242,1264,1284,1303,1323,1342,1363,1384,1404,1423,1444,1463,1483,1504,1523,1543,1563,1582,1604,1623,1642,1663,1684,1704,1723,1743,1764,1782,1803,1823,1842,1863,1883,1903,1923,1942,1964,1984,2003,2023,2043,2063,2084,2104,2123,2144,2164,2183,2203,2224,2243,2264,2284,2303,2323,2343,2363,2383,2403,2423,2443,2462,2483,2503,2523,2543,2563,2583,2603,2623,2643,2663,2683,2703,2723,2742,2763,2783,2804,2823,2843,2864,2884,2903,2924,2943,2964,2983,3004,3023,3042,3062,3084,3103,3123,3142,3163,3183,3203,3224,3244,3264,3283,3303,3324,3342,3363,3384,3403,3423,3443,3462,3483,3503,3524,3544,3564,3583,3604,3623,3643,3664,3683,3704,3724,3743,3764,3783,3803,3823,3844,3863,3884,3903,3924,3942,3962,3983,4003,4023,4043,4063,4084,4104,4124,4143,4164,4184,4202,4224,4244,4263,4284,4303,4324,4343,4364,4383,4402,4422,4444,4463,4483,4503,4523,4543,4563,4583,4603,4624,4644,4664,4684,4703,4723,4743,4763,4784,4803,4823,4843,4863,4884,4904,4924,4942,4963,4984,5002,5023,5043,5064,5084,5104,5123,5143,5164,5183,5204,5223,5243,5264,5283,5304,5323,5343,5364,5383,5404,5424,5444,5462,5484,5504,5524,5543,5564,5583,5604,5623,5643,5662,5683,5703,5723,5742,5764,5783,5803,5823,5843,5864,5884,5903,5923,5944,5964,5983,6004,6023,6044,6062,6083,6102,6123,6144,6163,6183,6203,6224,6244,6264,6283,6303,6323,6343,6363,6384,6404,6424,6444,6463,6484,6504,6523,6543,6563,6583,6603,6623,6643,6663,6683,6703,6723,6743,6763,6784,6803,6824,6844,6863,6883,6903,6923,6943,6964,6983,7002,7023,7043,7063,7084,7103,7122,7144,7163,7183,7203,7223,7243,7264,7283,7302,7324,7344,7363,7384,7404,7424,7444,7464,7483,7504,7522,7542,7563,7584,7603,7623,7643,7664,7683,7704,7724,7743,7764,7784,7802,7824,7842,7864,7882,7902,7923,7944,7963,7983,8004,8024,8042,8063,8083,8104,8124,8142,8163,8184,8204,8223,8242,8263,8283,8303,8324,8342,8363,8383,8404,8424,8443,8463,8483,8504,8522,8543,8563,8583,8604,8623,8644,8663,8683,8703,8723,8744,8764,8783,8803,8824,8844,8862,8884,8903,8923,8943,8964,8983,9004,9024,9043,9062,9083,9104,9124,9143,9164,9183,9203,9224,9243,9263,9283,9303,9323,9344,9363,9383,9404,9423,9443,9464,9483,9503,9523,9543,9562,9583,9603,9624,9643,9663,9683,9703,9724,9744,9763,9783,9804,9823,9842,9863,9884,9903,9923,9943,9963,9983,10003,10023,10043,10063,10083,10103,10124,10143,10162,10183,10203,10224,10244,10263,10283,10303,10324,10344,10363,10383,10403,10422,10443,10464,10484,10503,10523,10544,10563,10583,10603,10623,10643,10664,10684,10704,10724,10743,10764,10784,10803,10823,10844,10863,10883,10903,10923,10944,10963,10983,11003,11023,11043,11062,11083,11103,11124,11144,11163,11183,11203,11223,11244,11263,11283,11303,11323,11343,11363,11383,11403,11423,11444,11463,11483,11502,11522,11542,11562,11583,11603,11624,11643,11663,11682,11704,11723,11743,11764,11783,11803,11823,11844,11863,11883,11902,11923,11944,11964,11983,12003,12022,12044,12063,12083,12103,12123,12143,12163,12183,12203,12223,12244,12263,12284,12303,12323,12343,12363,12383,12404,12423,12444,12463,12484,12504,12524,12544,12564,12584,12604,12623,12645,12663,12683,12703,12722,12742,12763,12783,12804,12823,12843,12863,12884,12903,12923,12943,12963,12983,13003,13023,13043,13063,13083,13103,13123,13142,13163,13183,13203,13223,13244,13262,13283,13303,13323,13343,13362,13383,13404,13424,13443,13463,13482,13503,13523,13543,13563,13583,13604,13624,13643,13663,13682,13704,13723,13743,13764,13783,13802,13824,13843,13864,13882,13904,13923,13944,13962,13984,14003,14024,14044,14063,14084,14104,14124,14143,14162,14183,14204,14223,14244,14263,14283,14303,14322,14344,14363,14384,14404,14423,14443,14464,14483,14503,14523,14544,14563,14584,14604,14623,14643,14664,14684,14704,14723,14742,14763,14783,14804,14824,14843,14863,14883,14903,14923,14944,14963,14983,15004,15024,15044,15063,15083,15103,15123,15143,15163,15183,15204,15223,15243,15263,15284,15304,15323,15343,15363,15382,15402,15424,15444,15464,15483,15504,15524,15543,15564,15584,15603,15623,15644,15663,15683,15704,15723,15742,15763,15783,15804,15823,15843,15863,15883,15902,15923,15942,15964,15983,16003,16022,16043,16064,16083,16103,16124,16144,16163,16184,16202,16224,16244,16262,16283,16304,16323,16343,16363,16384,16404,16423,16443,16464,16483,16504,16524,16543,16564,16583,16603,16624,16642,16664,16684,16704,16723,16744,16764,16783,16803,16824,16844,16862,16883,16903,16922,16944,16964,16983,17003,17023,17043,17062,17084,17103,17123,17143,17162,17184,17203,17223,17243,17263,17283,17303,17323,17342,17364,17383,17404,17423,17443,17462,17483,17503,17522,17543,17564,17583,17603,17624,17644,17663,17684,17703,17723,17744,17763,17785,17802,17823,17843,17864,17883,17903,17923,17943,17963,17983,18003,18023,18043,18063,18083,18103,18124,18143,18163,18183,18204,18222,18244,18263,18284,18303,18323,18344,18362,18383,18403,18423,18443,18463,18484,18502,18524,18544,18562,18583,18604,18624,18643,18664,18684,18703,18723,18743,18763,18783,18802,18824,18843,18863,18882,18903,18924,18943,18963,18983,19004,19024,19044,19063,19084,19103,19123,19143,19163,19184,19203,19223,19243,19262,19283,19302,19323,19344,19363,19384,19404,19424,19443,19463,19483,19502,19524,19543,19564,19583,19603,19624,19643,19663,19682,19703,19724,19743,19764,19783,19803,19824,19843,19863,19882,19903,19924,19943,19964,19983,20004,20024,20042,20063,20084,20103,20123,20143,20164,20182,20203,20224,20243],"xSR":741.5,"ySR":469.95,"xT1":424.9,"yT1":0,"xT2":1058.1,"yT2":0,"toosoon":0,"cond_shown":"Incongruent","ratio_trial":200,"L_num":7,"L_den":10,"R_num":14,"R_den":28,"correct_side":1,"subjID":"valerybonillajaime19","gender":"1","age":"11","school":"6","test":{"fix_dur":[250,1500],"timestim":1000,"targets_dim":[100,100],"targets_relative_coord":[0.3,0.7],"size_stim":[880,420],"start_dim":[100,100],"size_start":[300,300],"size_fix":60,"samplingrate":20,"img_types":["Congruent","Incongruent"],"ratios":[100,200,300],"rep_conds":19,"nTrials":120,"trials_to_rest":500,"Trials_order":[15,23,89,93,68,56,30,9,14,87,29,10,46,112,20,116,12,26,43,76,82,74,19,92,110,44,64,73,39,2,65,106,11,100,111,51,50,67,41,98,58,35,0,6,119,118,80,45,13,52,88,5,24,85,104,95,101,97,49,105,38,81,3,66,115,55,83,77,22,18,53,72,28,34,86,69,117,75,109,4,31,17,8,94,79,33,78,1,54,107,96,71,60,62,36,70,114,47,61,90,59,21,84,40,102,48,57,108,32,63,16,27,113,7,103,99,42,37,91,25],"cond_shown":["Incongruent","Incongruent","Incongruent","Incongruent","Congruent","Congruent","Congruent","Incongruent","Congruent","Incongruent","Incongruent","Congruent","Congruent","Congruent","Congruent","Congruent","Congruent","Congruent","Incongruent","Congruent","Congruent","Congruent","Incongruent","Congruent","Congruent","Congruent","Congruent","Incongruent","Incongruent","Congruent","Incongruent","Congruent","Incongruent","Congruent","Incongruent","Incongruent","Congruent","Incongruent","Incongruent","Congruent","Congruent","Incongruent","Congruent","Congruent","Incongruent","Congruent","Congruent","Incongruent","Incongruent","Congruent","Congruent","Incongruent","Congruent","Incongruent","Congruent","Incongruent","Incongruent","Incongruent","Incongruent","Incongruent","Congruent","Incongruent","Incongruent","Congruent","Incongruent","Incongruent","Incongruent","Incongruent","Congruent","Congruent","Incongruent","Congruent","Congruent","Congruent","Congruent","Incongruent","Incongruent","Incongruent","Incongruent","Congruent","Incongruent","Incongruent","Congruent","Congruent","Incongruent","Incongruent","Congruent","Incongruent","Congruent","Incongruent","Congruent","Incongruent","Congruent","Congruent","Congruent","Congruent","Congruent","Incongruent","Incongruent","Congruent","Incongruent","Incongruent","Congruent","Congruent","Congruent","Congruent","Incongruent","Congruent","Congruent","Incongruent","Congruent","Incongruent","Incongruent","Incongruent","Incongruent","Incongruent","Congruent","Incongruent","Incongruent","Incongruent"],"ratio_trial":[200,300,300,200,200,200,100,200,200,200,300,300,300,300,200,200,100,200,100,300,300,200,100,200,200,200,300,100,200,200,300,300,300,300,200,200,200,100,300,200,300,300,100,100,300,300,200,200,100,300,300,300,100,100,200,300,300,100,100,200,200,200,200,100,100,100,300,300,300,100,300,100,300,300,200,200,200,200,100,300,100,300,200,300,100,200,100,100,100,300,100,300,100,200,100,300,100,300,100,100,300,200,100,300,100,100,200,100,200,200,300,200,300,100,100,200,100,100,100,100],"left_num":[7,4,13,7,6,11,2,7,1,7,1,1,11,4,12,16,12,7,17,9,20,7,8,5,4,8,2,17,1,14,13,1,13,5,4,7,6,3,4,6,20,4,7,11,4,5,4,7,8,1,1,1,6,9,13,13,4,12,10,3,20,1,7,8,12,13,1,8,11,6,13,6,24,1,16,3,9,7,13,3,2,7,6,5,17,7,2,1,10,13,9,13,1,1,11,12,3,8,2,4,13,7,7,18,6,3,6,2,6,1,2,9,4,3,8,11,6,6,12,10],"right_num":[14,8,12,14,7,3,6,12,21,14,3,19,1,1,6,9,13,2,10,3,8,18,1,14,3,3,10,10,3,6,12,11,12,7,14,6,7,4,2,11,13,2,15,6,2,6,3,12,1,3,8,2,5,20,14,12,2,9,9,1,9,3,8,2,9,12,2,14,4,5,12,15,8,3,9,11,8,6,6,11,8,8,7,7,10,4,11,8,3,12,8,12,3,21,6,2,4,14,6,6,12,6,9,9,5,2,3,6,11,3,12,8,6,8,1,3,5,11,9,8],"left_den":[10,5,26,10,12,22,5,10,2,10,2,3,22,10,20,30,30,21,30,10,25,15,20,10,8,15,20,30,2,28,26,5,26,25,6,15,12,6,20,20,25,20,14,22,20,25,10,10,20,5,30,2,20,10,26,26,20,24,25,10,25,2,10,16,24,26,2,10,22,20,26,12,30,5,30,4,15,15,26,12,4,10,12,25,30,15,5,2,25,26,15,26,2,2,22,24,20,10,4,8,26,15,14,20,20,6,20,5,20,2,10,15,5,5,20,20,20,10,24,25],"right_den":[28,16,15,28,10,10,12,24,30,28,15,30,5,10,15,27,26,15,15,5,16,27,2,20,10,9,25,15,10,20,15,22,15,14,30,9,10,10,4,22,26,4,25,15,4,12,15,24,2,6,24,10,25,25,20,15,4,15,18,2,15,10,16,5,15,20,10,28,20,25,15,25,16,6,27,20,10,9,10,20,20,20,10,14,15,6,22,20,10,15,16,15,5,30,15,10,16,28,15,10,15,9,15,15,25,5,6,12,22,10,24,10,12,16,2,4,25,22,15,16],"correct_side":[1,1,2,1,2,1,2,1,2,1,1,2,1,1,1,1,2,1,2,1,1,2,2,2,1,1,2,2,1,1,2,2,2,2,1,2,2,1,2,2,1,2,2,1,2,2,1,1,2,2,2,1,1,1,2,2,2,2,2,2,1,1,1,1,2,2,1,1,1,1,2,2,1,2,1,1,2,2,2,2,1,1,2,2,2,2,2,1,1,2,1,2,2,2,1,1,2,1,1,2,2,2,2,1,1,1,2,2,2,1,2,2,1,1,2,2,1,1,2,2],"img_shown":["img2/200/Incongruent/L/I_Dist_200_LN_7_LD_10_RN_14_RD_28_0.png","img2/300/Incongruent/L/I_Dist_300_LN_4_LD_5_RN_8_RD_16_0.png","img2/300/Incongruent/R/I_Dist_300_LN_13_LD_26_RN_12_RD_15_1.png","img2/200/Incongruent/L/I_Dist_200_LN_7_LD_10_RN_14_RD_28_0.png","img2/200/Congruent/R/C_Dist_200_LN_6_LD_12_RN_7_RD_10_1.png","img2/200/Congruent/L/C_Dist_200_LN_11_LD_22_RN_3_RD_10_0.png","img2/100/Congruent/R/C_Dist_100_LN_2_LD_5_RN_6_RD_12_1.png","img2/200/Incongruent/L/I_Dist_200_LN_7_LD_10_RN_12_RD_24_0.png","img2/200/Congruent/R/C_Dist_200_LN_1_LD_2_RN_21_RD_30_1.png","img2/200/Incongruent/L/I_Dist_200_LN_7_LD_10_RN_14_RD_28_0.png","img2/300/Incongruent/L/I_Dist_300_LN_1_LD_2_RN_3_RD_15_0.png","img2/300/Congruent/R/C_Dist_300_LN_1_LD_3_RN_19_RD_30_1.png","img2/300/Congruent/L/C_Dist_300_LN_11_LD_22_RN_1_RD_5_0.png","img2/300/Congruent/L/C_Dist_300_LN_4_LD_10_RN_1_RD_10_0.png","img2/200/Congruent/L/C_Dist_200_LN_12_LD_20_RN_6_RD_15_0.png","img2/200/Congruent/L/C_Dist_200_LN_16_LD_30_RN_9_RD_27_0.png","img2/100/Congruent/R/C_Dist_100_LN_12_LD_30_RN_13_RD_26_1.png","img2/200/Congruent/L/C_Dist_200_LN_7_LD_21_RN_2_RD_15_0.png","img2/100/Incongruent/R/I_Dist_100_LN_17_LD_30_RN_10_RD_15_1.png","img2/300/Congruent/L/C_Dist_300_LN_9_LD_10_RN_3_RD_5_0.png","img2/300/Congruent/L/C_Dist_300_LN_20_LD_25_RN_8_RD_16_0.png","img2/200/Congruent/R/C_Dist_200_LN_7_LD_15_RN_18_RD_27_1.png","img2/100/Incongruent/R/I_Dist_100_LN_8_LD_20_RN_1_RD_2_1.png","img2/200/Congruent/R/C_Dist_200_LN_5_LD_10_RN_14_RD_20_1.png","img2/200/Congruent/L/C_Dist_200_LN_4_LD_8_RN_3_RD_10_0.png","img2/200/Congruent/L/C_Dist_200_LN_8_LD_15_RN_3_RD_9_0.png","img2/300/Congruent/R/C_Dist_300_LN_2_LD_20_RN_10_RD_25_1.png","img2/100/Incongruent/R/I_Dist_100_LN_17_LD_30_RN_10_RD_15_1.png","img2/200/Incongruent/L/I_Dist_200_LN_1_LD_2_RN_3_RD_10_0.png","img2/200/Congruent/L/C_Dist_200_LN_14_LD_28_RN_6_RD_20_0.png","img2/300/Incongruent/R/I_Dist_300_LN_13_LD_26_RN_12_RD_15_1.png","img2/300/Congruent/R/C_Dist_300_LN_1_LD_5_RN_11_RD_22_1.png","img2/300/Incongruent/R/I_Dist_300_LN_13_LD_26_RN_12_RD_15_1.png","img2/300/Congruent/R/C_Dist_300_LN_5_LD_25_RN_7_RD_14_1.png","img2/200/Incongruent/L/I_Dist_200_LN_4_LD_6_RN_14_RD_30_0.png","img2/200/Incongruent/R/I_Dist_200_LN_7_LD_15_RN_6_RD_9_1.png","img2/200/Congruent/R/C_Dist_200_LN_6_LD_12_RN_7_RD_10_1.png","img2/100/Incongruent/L/I_Dist_100_LN_3_LD_6_RN_4_RD_10_0.png","img2/300/Incongruent/R/I_Dist_300_LN_4_LD_20_RN_2_RD_4_1.png","img2/200/Congruent/R/C_Dist_200_LN_6_LD_20_RN_11_RD_22_1.png","img2/300/Congruent/L/C_Dist_300_LN_20_LD_25_RN_13_RD_26_0.png","img2/300/Incongruent/R/I_Dist_300_LN_4_LD_20_RN_2_RD_4_1.png","img2/100/Congruent/R/C_Dist_100_LN_7_LD_14_RN_15_RD_25_1.png","img2/100/Congruent/L/C_Dist_100_LN_11_LD_22_RN_6_RD_15_0.png","img2/300/Incongruent/R/I_Dist_300_LN_4_LD_20_RN_2_RD_4_1.png","img2/300/Congruent/R/C_Dist_300_LN_5_LD_25_RN_6_RD_12_1.png","img2/200/Congruent/L/C_Dist_200_LN_4_LD_10_RN_3_RD_15_0.png","img2/200/Incongruent/L/I_Dist_200_LN_7_LD_10_RN_12_RD_24_0.png","img2/100/Incongruent/R/I_Dist_100_LN_8_LD_20_RN_1_RD_2_1.png","img2/300/Congruent/R/C_Dist_300_LN_1_LD_5_RN_3_RD_6_1.png","img2/300/Congruent/R/C_Dist_300_LN_1_LD_30_RN_8_RD_24_1.png","img2/300/Incongruent/L/I_Dist_300_LN_1_LD_2_RN_2_RD_10_0.png","img2/100/Congruent/L/C_Dist_100_LN_6_LD_20_RN_5_RD_25_0.png","img2/100/Incongruent/L/I_Dist_100_LN_9_LD_10_RN_20_RD_25_0.png","img2/200/Congruent/R/C_Dist_200_LN_13_LD_26_RN_14_RD_20_1.png","img2/300/Incongruent/R/I_Dist_300_LN_13_LD_26_RN_12_RD_15_1.png","img2/300/Incongruent/R/I_Dist_300_LN_4_LD_20_RN_2_RD_4_1.png","img2/100/Incongruent/R/I_Dist_100_LN_12_LD_24_RN_9_RD_15_1.png","img2/100/Incongruent/R/I_Dist_100_LN_10_LD_25_RN_9_RD_18_1.png","img2/200/Incongruent/R/I_Dist_200_LN_3_LD_10_RN_1_RD_2_1.png","img2/200/Congruent/L/C_Dist_200_LN_20_LD_25_RN_9_RD_15_0.png","img2/200/Incongruent/L/I_Dist_200_LN_1_LD_2_RN_3_RD_10_0.png","img2/200/Incongruent/L/I_Dist_200_LN_7_LD_10_RN_8_RD_16_0.png","img2/100/Congruent/L/C_Dist_100_LN_8_LD_16_RN_2_RD_5_0.png","img2/100/Incongruent/R/I_Dist_100_LN_12_LD_24_RN_9_RD_15_1.png","img2/100/Incongruent/R/I_Dist_100_LN_13_LD_26_RN_12_RD_20_1.png","img2/300/Incongruent/L/I_Dist_300_LN_1_LD_2_RN_2_RD_10_0.png","img2/300/Incongruent/L/I_Dist_300_LN_8_LD_10_RN_14_RD_28_0.png","img2/300/Congruent/L/C_Dist_300_LN_11_LD_22_RN_4_RD_20_0.png","img2/100/Congruent/L/C_Dist_100_LN_6_LD_20_RN_5_RD_25_0.png","img2/300/Incongruent/R/I_Dist_300_LN_13_LD_26_RN_12_RD_15_1.png","img2/100/Congruent/R/C_Dist_100_LN_6_LD_12_RN_15_RD_25_1.png","img2/300/Congruent/L/C_Dist_300_LN_24_LD_30_RN_8_RD_16_0.png","img2/300/Congruent/R/C_Dist_300_LN_1_LD_5_RN_3_RD_6_1.png","img2/200/Congruent/L/C_Dist_200_LN_16_LD_30_RN_9_RD_27_0.png","img2/200/Incongruent/L/I_Dist_200_LN_3_LD_4_RN_11_RD_20_0.png","img2/200/Incongruent/R/I_Dist_200_LN_9_LD_15_RN_8_RD_10_1.png","img2/200/Incongruent/R/I_Dist_200_LN_7_LD_15_RN_6_RD_9_1.png","img2/100/Incongruent/R/I_Dist_100_LN_13_LD_26_RN_6_RD_10_1.png","img2/300/Congruent/R/C_Dist_300_LN_3_LD_12_RN_11_RD_20_1.png","img2/100/Incongruent/L/I_Dist_100_LN_2_LD_4_RN_8_RD_20_0.png","img2/300/Incongruent/L/I_Dist_300_LN_7_LD_10_RN_8_RD_20_0.png","img2/200/Congruent/R/C_Dist_200_LN_6_LD_12_RN_7_RD_10_1.png","img2/300/Congruent/R/C_Dist_300_LN_5_LD_25_RN_7_RD_14_1.png","img2/100/Incongruent/R/I_Dist_100_LN_17_LD_30_RN_10_RD_15_1.png","img2/200/Incongruent/R/I_Dist_200_LN_7_LD_15_RN_4_RD_6_1.png","img2/100/Congruent/R/C_Dist_100_LN_2_LD_5_RN_11_RD_22_1.png","img2/100/Incongruent/L/I_Dist_100_LN_1_LD_2_RN_8_RD_20_0.png","img2/100/Congruent/L/C_Dist_100_LN_10_LD_25_RN_3_RD_10_0.png","img2/300/Incongruent/R/I_Dist_300_LN_13_LD_26_RN_12_RD_15_1.png","img2/100/Congruent/L/C_Dist_100_LN_9_LD_15_RN_8_RD_16_0.png","img2/300/Incongruent/R/I_Dist_300_LN_13_LD_26_RN_12_RD_15_1.png","img2/100/Congruent/R/C_Dist_100_LN_1_LD_2_RN_3_RD_5_1.png","img2/200/Congruent/R/C_Dist_200_LN_1_LD_2_RN_21_RD_30_1.png","img2/100/Congruent/L/C_Dist_100_LN_11_LD_22_RN_6_RD_15_0.png","img2/300/Congruent/L/C_Dist_300_LN_12_LD_24_RN_2_RD_10_0.png","img2/100/Congruent/R/C_Dist_100_LN_3_LD_20_RN_4_RD_16_1.png","img2/300/Incongruent/L/I_Dist_300_LN_8_LD_10_RN_14_RD_28_0.png","img2/100/Incongruent/L/I_Dist_100_LN_2_LD_4_RN_6_RD_15_0.png","img2/100/Congruent/R/C_Dist_100_LN_4_LD_8_RN_6_RD_10_1.png","img2/300/Incongruent/R/I_Dist_300_LN_13_LD_26_RN_12_RD_15_1.png","img2/200/Incongruent/R/I_Dist_200_LN_7_LD_15_RN_6_RD_9_1.png","img2/100/Congruent/R/C_Dist_100_LN_7_LD_14_RN_9_RD_15_1.png","img2/300/Congruent/L/C_Dist_300_LN_18_LD_20_RN_9_RD_15_0.png","img2/100/Congruent/L/C_Dist_100_LN_6_LD_20_RN_5_RD_25_0.png","img2/100/Congruent/L/C_Dist_100_LN_3_LD_6_RN_2_RD_5_0.png","img2/200/Incongruent/R/I_Dist_200_LN_6_LD_20_RN_3_RD_6_1.png","img2/100/Congruent/R/C_Dist_100_LN_2_LD_5_RN_6_RD_12_1.png","img2/200/Congruent/R/C_Dist_200_LN_6_LD_20_RN_11_RD_22_1.png","img2/200/Incongruent/L/I_Dist_200_LN_1_LD_2_RN_3_RD_10_0.png","img2/300/Congruent/R/C_Dist_300_LN_2_LD_10_RN_12_RD_24_1.png","img2/200/Incongruent/R/I_Dist_200_LN_9_LD_15_RN_8_RD_10_1.png","img2/300/Incongruent/L/I_Dist_300_LN_4_LD_5_RN_6_RD_12_0.png","img2/100/Incongruent/L/I_Dist_100_LN_3_LD_5_RN_8_RD_16_0.png","img2/100/Incongruent/R/I_Dist_100_LN_8_LD_20_RN_1_RD_2_1.png","img2/200/Incongruent/R/I_Dist_200_LN_11_LD_20_RN_3_RD_4_1.png","img2/100/Congruent/L/C_Dist_100_LN_6_LD_20_RN_5_RD_25_0.png","img2/100/Incongruent/L/I_Dist_100_LN_6_LD_10_RN_11_RD_22_0.png","img2/100/Incongruent/R/I_Dist_100_LN_12_LD_24_RN_9_RD_15_1.png","img2/100/Incongruent/R/I_Dist_100_LN_10_LD_25_RN_8_RD_16_1.png"],"dist100_C":[["C_Dist_100_LN_10_LD_25_RN_3_RD_10_0.png","C_Dist_100_LN_11_LD_22_RN_4_RD_10_0.png","C_Dist_100_LN_11_LD_22_RN_6_RD_15_0.png","C_Dist_100_LN_15_LD_25_RN_13_RD_26_0.png","C_Dist_100_LN_3_LD_6_RN_2_RD_5_0.png","C_Dist_100_LN_6_LD_20_RN_5_RD_25_0.png","C_Dist_100_LN_8_LD_16_RN_2_RD_5_0.png","C_Dist_100_LN_9_LD_15_RN_8_RD_16_0.png"],["C_Dist_100_LN_1_LD_2_RN_18_RD_30_1.png","C_Dist_100_LN_1_LD_2_RN_3_RD_5_1.png","C_Dist_100_LN_12_LD_30_RN_13_RD_26_1.png","C_Dist_100_LN_2_LD_5_RN_11_RD_22_1.png","C_Dist_100_LN_2_LD_5_RN_6_RD_12_1.png","C_Dist_100_LN_3_LD_20_RN_4_RD_16_1.png","C_Dist_100_LN_4_LD_10_RN_15_RD_30_1.png","C_Dist_100_LN_4_LD_8_RN_6_RD_10_1.png","C_Dist_100_LN_6_LD_12_RN_15_RD_25_1.png","C_Dist_100_LN_7_LD_14_RN_15_RD_25_1.png","C_Dist_100_LN_7_LD_14_RN_9_RD_15_1.png"]],"dist100_I":[["I_Dist_100_LN_1_LD_2_RN_8_RD_20_0.png","I_Dist_100_LN_2_LD_4_RN_6_RD_15_0.png","I_Dist_100_LN_2_LD_4_RN_8_RD_20_0.png","I_Dist_100_LN_3_LD_5_RN_11_RD_22_0.png","I_Dist_100_LN_3_LD_5_RN_8_RD_16_0.png","I_Dist_100_LN_3_LD_6_RN_4_RD_10_0.png","I_Dist_100_LN_3_LD_9_RN_7_RD_30_0.png","I_Dist_100_LN_4_LD_8_RN_8_RD_20_0.png","I_Dist_100_LN_6_LD_10_RN_11_RD_22_0.png","I_Dist_100_LN_6_LD_10_RN_13_RD_26_0.png","I_Dist_100_LN_6_LD_10_RN_7_RD_14_0.png","I_Dist_100_LN_9_LD_10_RN_20_RD_25_0.png","I_Dist_100_LN_9_LD_15_RN_13_RD_26_0.png","I_Dist_100_LN_9_LD_15_RN_14_RD_28_0.png"],["I_Dist_100_LN_10_LD_25_RN_8_RD_16_1.png","I_Dist_100_LN_10_LD_25_RN_9_RD_18_1.png","I_Dist_100_LN_11_LD_22_RN_9_RD_15_1.png","I_Dist_100_LN_12_LD_24_RN_9_RD_15_1.png","I_Dist_100_LN_12_LD_30_RN_2_RD_4_1.png","I_Dist_100_LN_13_LD_26_RN_12_RD_20_1.png","I_Dist_100_LN_13_LD_26_RN_6_RD_10_1.png","I_Dist_100_LN_17_LD_30_RN_10_RD_15_1.png","I_Dist_100_LN_6_LD_12_RN_3_RD_5_1.png","I_Dist_100_LN_8_LD_16_RN_6_RD_10_1.png","I_Dist_100_LN_8_LD_20_RN_1_RD_2_1.png","I_Dist_100_LN_9_LD_18_RN_6_RD_10_1.png"]],"dist100_S":[["E_Dist_100_LN_2_LD_12_RN_2_RD_30_0.png","E_Dist_100_LN_6_LD_10_RN_6_RD_12_0.png"],["E_Dist_100_LN_6_LD_12_RN_6_RD_10_1.png"]],"dist200_C":[["C_Dist_200_LN_11_LD_22_RN_3_RD_10_0.png","C_Dist_200_LN_12_LD_15_RN_6_RD_10_0.png","C_Dist_200_LN_12_LD_20_RN_6_RD_15_0.png","C_Dist_200_LN_14_LD_28_RN_6_RD_20_0.png","C_Dist_200_LN_15_LD_25_RN_4_RD_10_0.png","C_Dist_200_LN_16_LD_20_RN_12_RD_20_0.png","C_Dist_200_LN_16_LD_30_RN_9_RD_27_0.png","C_Dist_200_LN_20_LD_25_RN_9_RD_15_0.png","C_Dist_200_LN_21_LD_30_RN_2_RD_4_0.png","C_Dist_200_LN_4_LD_10_RN_3_RD_15_0.png","C_Dist_200_LN_4_LD_8_RN_3_RD_10_0.png","C_Dist_200_LN_6_LD_15_RN_3_RD_15_0.png","C_Dist_200_LN_7_LD_21_RN_2_RD_15_0.png","C_Dist_200_LN_8_LD_15_RN_2_RD_6_0.png","C_Dist_200_LN_8_LD_15_RN_3_RD_9_0.png","C_Dist_200_LN_8_LD_15_RN_7_RD_21_0.png","C_Dist_200_LN_9_LD_20_RN_4_RD_16_0.png"],["C_Dist_200_LN_1_LD_2_RN_21_RD_30_1.png","C_Dist_200_LN_13_LD_26_RN_14_RD_20_1.png","C_Dist_200_LN_3_LD_10_RN_11_RD_22_1.png","C_Dist_200_LN_3_LD_10_RN_14_RD_28_1.png","C_Dist_200_LN_3_LD_10_RN_7_RD_14_1.png","C_Dist_200_LN_3_LD_12_RN_9_RD_20_1.png","C_Dist_200_LN_3_LD_6_RN_14_RD_20_1.png","C_Dist_200_LN_5_LD_10_RN_14_RD_20_1.png","C_Dist_200_LN_6_LD_12_RN_7_RD_10_1.png","C_Dist_200_LN_6_LD_20_RN_11_RD_22_1.png","C_Dist_200_LN_7_LD_15_RN_18_RD_27_1.png","C_Dist_200_LN_9_LD_30_RN_13_RD_26_1.png"]],"dist200_I":[["I_Dist_200_LN_1_LD_2_RN_3_RD_10_0.png","I_Dist_200_LN_1_LD_3_RN_2_RD_15_0.png","I_Dist_200_LN_3_LD_4_RN_11_RD_20_0.png","I_Dist_200_LN_4_LD_5_RN_6_RD_10_0.png","I_Dist_200_LN_4_LD_6_RN_14_RD_30_0.png","I_Dist_200_LN_7_LD_10_RN_12_RD_24_0.png","I_Dist_200_LN_7_LD_10_RN_14_RD_28_0.png","I_Dist_200_LN_7_LD_10_RN_8_RD_16_0.png"],["I_Dist_200_LN_11_LD_20_RN_3_RD_4_1.png","I_Dist_200_LN_14_LD_30_RN_12_RD_18_1.png","I_Dist_200_LN_14_LD_30_RN_6_RD_9_1.png","I_Dist_200_LN_3_LD_10_RN_1_RD_2_1.png","I_Dist_200_LN_4_LD_30_RN_1_RD_3_1.png","I_Dist_200_LN_6_LD_20_RN_3_RD_6_1.png","I_Dist_200_LN_7_LD_15_RN_4_RD_6_1.png","I_Dist_200_LN_7_LD_15_RN_6_RD_9_1.png","I_Dist_200_LN_9_LD_15_RN_8_RD_10_1.png"]],"dist200_S":[["E_Dist_200_LN_3_LD_6_RN_3_RD_10_0.png"],["E_Dist_200_LN_3_LD_10_RN_3_RD_6_1.png"]],"dist300_C":[["C_Dist_300_LN_11_LD_22_RN_1_RD_5_0.png","C_Dist_300_LN_11_LD_22_RN_2_RD_10_0.png","C_Dist_300_LN_11_LD_22_RN_4_RD_20_0.png","C_Dist_300_LN_12_LD_24_RN_2_RD_10_0.png","C_Dist_300_LN_18_LD_20_RN_9_RD_15_0.png","C_Dist_300_LN_20_LD_25_RN_13_RD_26_0.png","C_Dist_300_LN_20_LD_25_RN_14_RD_28_0.png","C_Dist_300_LN_20_LD_25_RN_5_RD_10_0.png","C_Dist_300_LN_20_LD_25_RN_8_RD_16_0.png","C_Dist_300_LN_20_LD_25_RN_9_RD_18_0.png","C_Dist_300_LN_24_LD_30_RN_2_RD_4_0.png","C_Dist_300_LN_24_LD_30_RN_8_RD_16_0.png","C_Dist_300_LN_3_LD_6_RN_2_RD_10_0.png","C_Dist_300_LN_4_LD_10_RN_1_RD_10_0.png","C_Dist_300_LN_4_LD_5_RN_2_RD_4_0.png","C_Dist_300_LN_8_LD_16_RN_1_RD_5_0.png","C_Dist_300_LN_9_LD_10_RN_3_RD_5_0.png"],["C_Dist_300_LN_1_LD_20_RN_7_RD_20_1.png","C_Dist_300_LN_1_LD_3_RN_19_RD_30_1.png","C_Dist_300_LN_1_LD_30_RN_8_RD_24_1.png","C_Dist_300_LN_1_LD_5_RN_11_RD_22_1.png","C_Dist_300_LN_1_LD_5_RN_3_RD_6_1.png","C_Dist_300_LN_1_LD_5_RN_6_RD_12_1.png","C_Dist_300_LN_2_LD_10_RN_12_RD_24_1.png","C_Dist_300_LN_2_LD_20_RN_10_RD_25_1.png","C_Dist_300_LN_3_LD_12_RN_11_RD_20_1.png","C_Dist_300_LN_3_LD_6_RN_4_RD_5_1.png","C_Dist_300_LN_4_LD_20_RN_13_RD_26_1.png","C_Dist_300_LN_5_LD_25_RN_6_RD_12_1.png","C_Dist_300_LN_5_LD_25_RN_7_RD_14_1.png","C_Dist_300_LN_7_LD_14_RN_20_RD_25_1.png","C_Dist_300_LN_8_LD_15_RN_10_RD_12_1.png"]],"dist300_I":[["I_Dist_300_LN_1_LD_2_RN_2_RD_10_0.png","I_Dist_300_LN_1_LD_2_RN_3_RD_15_0.png","I_Dist_300_LN_2_LD_4_RN_6_RD_30_0.png","I_Dist_300_LN_3_LD_6_RN_4_RD_20_0.png","I_Dist_300_LN_4_LD_5_RN_6_RD_12_0.png","I_Dist_300_LN_4_LD_5_RN_8_RD_16_0.png","I_Dist_300_LN_7_LD_10_RN_8_RD_20_0.png","I_Dist_300_LN_8_LD_10_RN_14_RD_28_0.png","I_Dist_300_LN_8_LD_10_RN_9_RD_18_0.png"],["I_Dist_300_LN_13_LD_26_RN_12_RD_15_1.png","I_Dist_300_LN_4_LD_20_RN_2_RD_4_1.png"]],"dist300_S":[["E_Dist_300_LN_9_LD_12_RN_9_RD_20_0.png"],["E_Dist_300_LN_18_LD_30_RN_18_RD_20_1.png","E_Dist_300_LN_3_LD_10_RN_3_RD_5_1.png","E_Dist_300_LN_9_LD_20_RN_9_RD_12_1.png"]],"dist500_C":[["C_Dist_500_LN_10_LD_13_RN_7_RD_26_0.png","C_Dist_500_LN_10_LD_15_RN_4_RD_24_0.png","C_Dist_500_LN_12_LD_16_RN_3_RD_12_0.png","C_Dist_500_LN_12_LD_18_RN_4_RD_24_0.png","C_Dist_500_LN_15_LD_18_RN_5_RD_15_0.png","C_Dist_500_LN_15_LD_20_RN_1_RD_4_0.png","C_Dist_500_LN_18_LD_27_RN_1_RD_6_0.png","C_Dist_500_LN_20_LD_24_RN_1_RD_3_0.png","C_Dist_500_LN_20_LD_24_RN_3_RD_9_0.png","C_Dist_500_LN_20_LD_24_RN_7_RD_21_0.png","C_Dist_500_LN_20_LD_28_RN_3_RD_14_0.png","C_Dist_500_LN_21_LD_28_RN_6_RD_24_0.png","C_Dist_500_LN_22_LD_28_RN_2_RD_7_0.png","C_Dist_500_LN_25_LD_30_RN_9_RD_27_0.png","C_Dist_500_LN_4_LD_6_RN_1_RD_6_0.png","C_Dist_500_LN_5_LD_6_RN_2_RD_6_0.png","C_Dist_500_LN_6_LD_9_RN_1_RD_6_0.png","C_Dist_500_LN_7_LD_10_RN_1_RD_5_0.png","C_Dist_500_LN_8_LD_12_RN_1_RD_6_0.png","C_Dist_500_LN_8_LD_12_RN_4_RD_24_0.png"],["C_Dist_500_LN_1_LD_4_RN_12_RD_16_1.png","C_Dist_500_LN_1_LD_4_RN_9_RD_12_1.png","C_Dist_500_LN_1_LD_9_RN_11_RD_18_1.png","C_Dist_500_LN_10_LD_24_RN_22_RD_24_1.png","C_Dist_500_LN_2_LD_12_RN_10_RD_15_1.png","C_Dist_500_LN_2_LD_12_RN_12_RD_18_1.png","C_Dist_500_LN_2_LD_12_RN_4_RD_6_1.png","C_Dist_500_LN_2_LD_24_RN_7_RD_12_1.png","C_Dist_500_LN_2_LD_5_RN_18_RD_20_1.png","C_Dist_500_LN_2_LD_5_RN_9_RD_10_1.png","C_Dist_500_LN_2_LD_8_RN_12_RD_16_1.png","C_Dist_500_LN_2_LD_8_RN_21_RD_28_1.png","C_Dist_500_LN_3_LD_10_RN_4_RD_5_1.png","C_Dist_500_LN_3_LD_12_RN_15_RD_20_1.png","C_Dist_500_LN_3_LD_30_RN_6_RD_10_1.png","C_Dist_500_LN_3_LD_8_RN_14_RD_16_1.png","C_Dist_500_LN_4_LD_16_RN_15_RD_20_1.png","C_Dist_500_LN_4_LD_24_RN_12_RD_18_1.png","C_Dist_500_LN_5_LD_14_RN_6_RD_7_1.png","C_Dist_500_LN_7_LD_21_RN_20_RD_24_1.png","C_Dist_500_LN_7_LD_28_RN_12_RD_16_1.png","C_Dist_500_LN_7_LD_28_RN_9_RD_12_1.png","C_Dist_500_LN_9_LD_27_RN_20_RD_24_1.png"]],"dist500_I":[["I_Dist_500_LN_2_LD_3_RN_4_RD_24_0.png","I_Dist_500_LN_5_LD_6_RN_6_RD_18_0.png","I_Dist_500_LN_7_LD_8_RN_9_RD_24_0.png"],["I_Dist_500_LN_7_LD_21_RN_5_RD_6_1.png"]],"dist500_S":[["E_Dist_500_LN_6_LD_8_RN_6_RD_24_0.png"],["E_Dist_500_LN_2_LD_12_RN_2_RD_3_1.png","E_Dist_500_LN_6_LD_24_RN_6_RD_8_1.png"]]}},{"start_time":1551899916381,"click_time":1551899918472,"finger_time":1551899917971,"fix_duration":250,"trial":1,"RT":1590,"MT":501,"sideResp":1,"stimulus":[],"xmouse":[793,793,793,793,792,791,791,791,791,791,791,791,791,791,791,791,791,791,791,791,791,791,791,791,791,791,791,791,791,791,791,791,791,791,791,791,791,791,791,791,791,791,791,791,791,791,791,791,791,791,791,791,791,791,791,791,791,791,791,791,791,791,791,791,791,791,791,791,791,791,791,791,791,791,791,790,788,780,769,755,728,719,710,700,688,667,657,649,642,633,617,605,585,578,563,544,538,537,537,537,537,537,535,520],"ymouse":[522,522,522,522,522,523,523,523,523,523,523,523,523,523,523,523,523,523,523,523,523,523,523,523,523,523,523,523,523,523,523,523,523,523,523,523,523,523,523,523,523,523,523,523,523,523,523,523,523,523,523,523,523,523,523,523,523,523,523,523,523,523,523,523,523,523,523,523,523,523,523,523,523,523,523,521,506,476,438,389,296,261,228,195,146,100,83,75,69,65,61,60,60,60,60,60,60,60,60,60,60,60,60,60],"timestamp_mouse":[11,52,69,90,108,129,149,169,189,210,229,249,270,289,310,329,349,369,389,410,428,449,470,488,510,530,549,569,588,610,629,649,670,690,710,730,750,770,790,809,829,850,869,889,909,929,949,970,989,1009,1030,1050,1070,1090,1108,1129,1149,1169,1188,1210,1229,1248,1269,1290,1310,1328,1350,1370,1389,1409,1430,1449,1469,1490,1509,1529,1549,1570,1589,1609,1629,1650,1669,1689,1709,1729,1749,1769,1790,1809,1829,1849,1869,1889,1909,1928,1949,1969,1990,2008,2028,2049,2069,2090],"xSR":741.5,"ySR":469.95,"xT1":424.9,"yT1":0,"xT2":1058.1,"yT2":0,"toosoon":0,"cond_shown":"Incongruent","ratio_trial":300,"L_num":4,"L_den":5,"R_num":8,"R_den":16,"correct_side":1,"subjID":"valerybonillajaime19","gender":"1","school":"6","age":"11"},{"start_time":1551899920518,"click_time":1551899922550,"finger_time":1551899921890,"fix_duration":1066.1101388593588,"trial":2,"RT":1372,"MT":660,"sideResp":2,"stimulus":[],"xmouse":[813,813,813,813,813,813,813,813,813,813,813,813,813,813,813,813,813,813,813,813,813,813,813,813,813,813,813,813,813,813,813,813,813,813,813,813,813,813,813,813,813,813,813,813,812,812,812,812,812,812,812,812,812,812,812,812,812,812,812,812,812,812,812,812,812,812,812,825,839,875,892,908,919,931,955,966,977,979,980,980,980,980,981,993,1031,1053,1073,1078,1079,1084,1089,1093,1099,1102,1103,1103,1103,1103,1103,1103,1103,1103],"ymouse":[501,501,501,501,501,501,501,501,501,501,501,501,501,501,501,501,501,501,501,501,501,501,501,501,501,501,501,501,501,501,501,501,501,501,501,501,501,501,501,501,501,501,501,501,501,501,501,501,501,501,501,501,501,501,501,501,501,501,501,501,501,501,501,501,501,501,501,482,458,401,370,337,311,279,229,205,184,178,176,176,175,175,175,168,153,143,132,128,127,121,115,111,105,102,100,100,100,100,100,100,100,99],"timestamp_mouse":[16,34,53,73,92,113,132,152,172,192,212,232,253,273,292,312,332,352,372,392,413,432,453,472,492,513,531,552,573,592,612,633,652,673,692,713,733,751,772,793,811,831,852,872,892,912,933,952,971,992,1013,1031,1051,1071,1092,1111,1133,1152,1172,1192,1211,1233,1252,1271,1292,1313,1332,1352,1372,1392,1411,1432,1452,1472,1492,1512,1532,1552,1572,1593,1612,1631,1652,1673,1692,1713,1731,1752,1772,1792,1811,1832,1852,1872,1892,1912,1932,1952,1972,1993,2013,2032],"xSR":741.5,"ySR":469.95,"xT1":424.9,"yT1":0,"xT2":1058.1,"yT2":0,"toosoon":0,"cond_shown":"Incongruent","ratio_trial":300,"L_num":13,"L_den":26,"R_num":12,"R_den":15,"correct_side":2,"subjID":"valerybonillajaime19","gender":"1","school":"6","age":"11"},{"start_time":1551899924529,"click_time":1551899926330,"finger_time":1551899926031,"fix_duration":1096.5553787769409,"trial":3,"RT":1502,"MT":299,"sideResp":2,"stimulus":[],"xmouse":[779,779,779,779,779,779,779,779,779,779,779,779,779,779,779,779,779,779,779,779,779,779,779,779,779,779,779,779,779,779,779,779,779,779,779,779,779,779,779,779,779,779,779,779,779,779,779,779,779,779,779,779,779,779,779,779,779,779,779,779,779,779,779,779,779,779,779,779,779,779,779,779,787,802,828,868,880,893,906,922,950,964,976,989,1008,1030,1040,1047,1054,1061,1071],"ymouse":[536,536,536,536,536,536,536,536,536,536,536,536,536,536,536,536,536,536,536,536,536,536,536,536,536,536,536,536,536,536,536,536,536,536,536,536,536,536,536,536,536,536,536,536,536,536,536,536,536,536,536,536,536,536,536,536,536,536,536,536,536,536,536,536,536,536,536,536,536,536,536,536,527,508,475,418,399,378,355,333,293,274,255,237,209,173,155,141,129,117,99],"timestamp_mouse":[9,34,41,62,81,101,122,142,161,181,201,221,240,262,281,301,321,341,362,382,401,422,442,462,482,502,522,540,561,582,601,621,642,661,681,701,720,741,762,781,801,821,841,860,882,901,921,941,962,981,1002,1021,1042,1062,1082,1101,1121,1141,1162,1181,1201,1221,1240,1262,1280,1301,1322,1341,1362,1381,1401,1420,1440,1461,1481,1502,1520,1541,1561,1581,1601,1621,1640,1661,1682,1700,1721,1742,1762,1781,1801],"xSR":741.5,"ySR":469.95,"xT1":424.9,"yT1":0,"xT2":1058.1,"yT2":0,"toosoon":0,"cond_shown":"Incongruent","ratio_trial":200,"L_num":7,"L_den":10,"R_num":14,"R_den":28,"correct_side":1,"subjID":"valerybonillajaime19","gender":"1","school":"6","age":"11"},{"start_time":1551899928195,"click_time":1551899930370,"finger_time":1551899930151,"fix_duration":564.022856704396,"trial":4,"RT":1956,"MT":219,"sideResp":2,"stimulus":[],"xmouse":[792,792,792,792,792,792,792,792,792,792,792,792,792,792,792,792,792,792,792,792,792,792,792,792,792,792,792,792,792,792,792,792,792,792,792,792,792,792,792,792,792,792,792,792,792,792,792,792,792,792,792,792,792,792,792,792,792,792,792,792,792,792,792,792,792,792,792,792,792,792,792,792,792,792,792,792,792,792,792,792,792,792,792,792,792,792,792,792,792,792,792,792,792,792,792,792,807,850,895,942,986,1040,1056,1068,1079,1088,1107,1120,1130],"ymouse":[492,492,492,492,492,492,492,492,493,493,493,493,493,493,493,493,493,493,493,493,493,493,493,493,493,493,493,493,493,493,493,493,493,493,493,493,493,493,493,493,493,493,493,493,493,493,493,493,493,493,493,493,493,493,493,493,493,493,493,493,493,493,493,493,493,493,493,493,493,493,493,493,493,493,493,493,493,493,493,493,493,493,493,493,493,493,493,493,493,493,493,493,493,493,493,492,484,458,430,398,364,287,259,229,208,187,143,111,91],"timestamp_mouse":[15,36,55,76,94,115,135,155,176,195,215,235,254,275,295,315,336,355,375,395,416,434,455,476,494,515,535,556,575,595,615,635,655,675,695,715,734,755,775,795,815,836,855,876,895,915,936,954,975,995,1016,1035,1062,1075,1095,1116,1136,1156,1175,1194,1215,1236,1254,1276,1296,1314,1336,1356,1376,1396,1415,1434,1455,1476,1496,1516,1536,1555,1575,1596,1616,1636,1655,1675,1696,1716,1735,1756,1775,1794,1816,1835,1855,1876,1896,1916,1935,1956,1975,1996,2015,2034,2054,2075,2095,2115,2135,2154,2175],"xSR":741.5,"ySR":469.95,"xT1":424.9,"yT1":0,"xT2":1058.1,"yT2":0,"toosoon":0,"cond_shown":"Congruent","ratio_trial":200,"L_num":6,"L_den":12,"R_num":7,"R_den":10,"correct_side":2,"subjID":"valerybonillajaime19","gender":"1","school":"6","age":"11"},{"start_time":1551899932366,"click_time":1551899934250,"finger_time":1551899933831,"fix_duration":1235.7473439810017,"trial":5,"RT":1465,"MT":419,"sideResp":1,"stimulus":[],"xmouse":[760,760,760,760,760,760,760,760,760,760,760,760,760,760,760,760,760,760,760,760,760,760,760,760,760,760,760,760,760,760,760,760,760,760,760,760,760,760,760,760,760,760,760,760,760,760,760,760,760,760,760,760,760,760,760,760,760,760,760,760,760,760,760,760,760,760,760,760,760,760,760,755,746,718,704,694,677,664,625,575,562,556,552,550,550,550,550,547,533,531,531,531,531,531,522],"ymouse":[501,501,501,501,501,501,501,501,501,501,501,501,501,501,501,501,501,501,501,501,501,501,501,501,501,501,501,501,501,501,501,501,501,501,501,501,501,501,501,501,501,501,501,501,501,501,501,501,501,501,501,501,501,501,501,501,501,501,501,501,501,501,501,501,501,501,501,501,501,501,501,489,472,424,398,373,337,300,227,125,91,69,56,51,51,51,51,50,50,50,50,50,50,50,50],"timestamp_mouse":[9,35,45,65,84,105,124,143,165,185,203,225,244,264,285,304,324,343,364,383,405,424,444,464,485,505,524,545,564,583,605,625,644,665,684,703,725,744,765,785,804,825,845,865,884,905,924,945,964,983,1004,1024,1044,1065,1083,1105,1124,1143,1165,1184,1204,1224,1244,1264,1284,1305,1325,1343,1365,1385,1404,1425,1444,1465,1484,1505,1524,1544,1565,1584,1603,1624,1644,1665,1684,1704,1725,1744,1765,1783,1804,1825,1844,1865,1884],"xSR":741.5,"ySR":469.95,"xT1":424.9,"yT1":0,"xT2":1058.1,"yT2":0,"toosoon":0,"cond_shown":"Congruent","ratio_trial":200,"L_num":11,"L_den":22,"R_num":3,"R_den":10,"correct_side":1,"subjID":"valerybonillajaime19","gender":"1","school":"6","age":"11"},{"start_time":1551899936103,"click_time":1551899937790,"finger_time":1551899937611,"fix_duration":250,"trial":6,"RT":1508,"MT":179,"sideResp":2,"stimulus":[],"xmouse":[767,767,767,767,770,774,775,775,775,775,775,775,775,775,775,775,775,775,775,775,775,775,775,775,775,775,775,775,775,775,775,775,775,775,775,775,775,775,775,775,775,775,775,775,775,775,775,775,775,775,775,775,775,775,775,775,775,775,775,775,775,775,775,775,775,775,775,775,775,775,775,775,785,797,818,839,861,896,913,948,979,1006,1052,1065,1076],"ymouse":[503,503,503,503,505,506,507,507,507,507,507,507,507,507,507,507,507,507,507,507,507,507,507,507,507,507,507,507,507,507,507,507,507,507,507,507,507,507,507,507,507,507,507,507,507,507,507,507,507,507,507,507,507,507,507,507,507,507,507,507,507,507,507,507,507,507,507,507,507,507,507,507,504,497,485,469,450,411,386,337,292,238,153,121,99],"timestamp_mouse":[10,31,47,67,87,107,127,148,167,186,207,227,246,267,288,307,327,346,367,387,408,427,447,466,487,506,528,547,567,587,608,627,648,668,686,707,727,748,766,786,807,826,848,866,887,907,927,947,968,987,1007,1027,1046,1068,1087,1107,1127,1147,1168,1188,1207,1227,1247,1268,1287,1308,1328,1346,1367,1388,1406,1427,1447,1467,1486,1508,1527,1546,1568,1587,1608,1628,1647,1667,1687],"xSR":741.5,"ySR":469.95,"xT1":424.9,"yT1":0,"xT2":1058.1,"yT2":0,"toosoon":0,"cond_shown":"Congruent","ratio_trial":100,"L_num":2,"L_den":5,"R_num":6,"R_den":12,"correct_side":2,"subjID":"valerybonillajaime19","gender":"1","school":"6","age":"11"},{"start_time":1551899939644,"click_time":1551899941670,"finger_time":1551899941150,"fix_duration":611.5625541179887,"trial":7,"RT":1506,"MT":520,"sideResp":2,"stimulus":[],"xmouse":[801,801,801,801,801,801,801,801,801,801,801,801,801,801,801,801,801,801,801,801,801,801,801,801,801,801,801,801,801,801,801,801,801,801,801,801,801,801,801,801,801,801,801,801,801,801,801,801,801,801,801,801,801,801,801,801,801,801,801,801,801,801,801,801,801,801,801,801,801,801,801,801,800,809,828,849,887,904,917,930,951,964,972,976,981,989,995,1000,1004,1009,1010,1020,1030,1037,1047,1058,1065,1066,1068,1070,1091,1099],"ymouse":[497,497,497,497,497,497,497,497,497,497,497,497,497,497,497,497,497,497,497,497,497,497,497,497,497,497,497,497,497,497,497,497,497,497,497,497,497,497,497,497,497,497,497,497,497,497,497,497,497,497,497,497,497,497,497,497,497,497,497,497,497,497,497,497,497,497,497,497,497,497,497,497,497,495,490,482,453,430,407,379,317,270,247,223,203,164,145,130,121,115,114,112,112,112,110,110,109,109,108,108,102,98],"timestamp_mouse":[10,39,46,65,86,105,126,146,166,187,207,225,246,267,287,306,326,347,366,387,406,426,445,467,486,506,525,547,566,586,607,626,647,667,687,707,726,747,766,786,807,827,846,867,886,906,927,945,967,987,1006,1026,1047,1065,1086,1107,1126,1146,1167,1187,1206,1226,1247,1266,1287,1307,1327,1347,1366,1386,1406,1426,1446,1466,1486,1506,1526,1546,1565,1587,1606,1626,1646,1666,1686,1707,1726,1746,1766,1786,1806,1826,1846,1866,1887,1907,1926,1946,1965,1986,2007,2026],"xSR":741.5,"ySR":469.95,"xT1":424.9,"yT1":0,"xT2":1058.1,"yT2":0,"toosoon":0,"cond_shown":"Incongruent","ratio_trial":200,"L_num":7,"L_den":10,"R_num":12,"R_den":24,"correct_side":1,"subjID":"valerybonillajaime19","gender":"1","school":"6","age":"11"},{"start_time":1551899943655,"click_time":1551899945570,"finger_time":1551899944930,"fix_duration":1183.1298476162294,"trial":8,"RT":1275,"MT":640,"sideResp":2,"stimulus":[],"xmouse":[814,814,814,814,814,814,814,814,814,814,814,814,814,814,814,814,814,814,814,814,814,814,814,814,814,814,814,814,814,814,814,814,814,814,814,814,814,814,814,814,814,814,814,814,814,814,814,814,814,814,814,814,814,814,814,814,814,814,814,814,815,824,835,849,861,891,908,923,949,970,1015,1036,1055,1080,1111,1161,1171,1174,1174,1174,1174,1170,1165,1160,1160,1160,1160,1159,1159,1159,1159,1159,1159,1159,1159,1158],"ymouse":[501,501,501,501,501,501,501,501,501,501,501,501,501,501,501,501,501,501,501,501,501,501,501,501,501,501,501,501,501,501,501,501,501,501,501,501,501,501,501,501,501,501,501,501,501,501,501,501,501,501,501,501,501,501,501,501,501,501,501,501,501,492,477,456,436,388,362,339,303,277,229,211,197,181,162,131,123,119,117,117,113,110,108,107,107,107,107,106,104,103,99,98,98,98,97,93],"timestamp_mouse":[15,42,56,75,96,114,135,155,175,194,215,235,255,275,295,316,335,355,375,396,416,435,456,475,495,516,536,556,576,595,616,635,655,676,695,715,735,755,775,796,816,835,856,874,895,916,936,955,976,996,1015,1036,1056,1075,1096,1116,1135,1156,1175,1195,1215,1235,1256,1275,1294,1315,1335,1355,1375,1396,1416,1435,1455,1474,1496,1515,1536,1555,1575,1594,1615,1635,1656,1675,1696,1715,1735,1755,1776,1796,1815,1836,1856,1875,1895,1915],"xSR":741.5,"ySR":469.95,"xT1":424.9,"yT1":0,"xT2":1058.1,"yT2":0,"toosoon":0,"cond_shown":"Congruent","ratio_trial":200,"L_num":1,"L_den":2,"R_num":21,"R_den":30,"correct_side":2,"subjID":"valerybonillajaime19","gender":"1","school":"6","age":"11"},{"start_time":1551899947327,"click_time":1551899948490,"finger_time":1551899948330,"fix_duration":1034.3225718450701,"trial":9,"RT":1003,"MT":160,"sideResp":2,"stimulus":[],"xmouse":[761,761,761,761,762,762,762,762,762,762,762,762,762,762,762,762,762,762,762,762,762,762,762,762,762,762,762,762,762,762,762,762,762,762,762,762,762,762,762,762,762,762,762,762,762,765,769,779,786,793,806,823,884,921,972,1001,1028,1048,1071],"ymouse":[500,500,500,500,500,500,500,500,500,500,500,500,500,500,500,500,500,500,500,500,500,500,500,500,500,500,500,500,500,500,500,500,500,500,500,500,500,500,500,500,500,500,500,500,500,500,500,493,486,478,463,440,356,306,230,189,143,104,39],"timestamp_mouse":[10,22,43,64,83,103,123,143,163,184,203,224,243,264,283,303,322,343,363,383,403,424,443,464,483,503,523,543,563,584,603,623,642,663,683,703,724,743,763,783,803,823,844,864,883,904,923,943,963,984,1003,1023,1043,1063,1083,1102,1123,1143,1163],"xSR":741.5,"ySR":469.95,"xT1":424.9,"yT1":0,"xT2":1058.1,"yT2":0,"toosoon":0,"cond_shown":"Incongruent","ratio_trial":200,"L_num":7,"L_den":10,"R_num":14,"R_den":28,"correct_side":1,"subjID":"valerybonillajaime19","gender":"1","school":"6","age":"11"},{"start_time":1551899951832,"click_time":1551899953551,"finger_time":1551899953270,"fix_duration":320.85680840562156,"trial":10,"RT":1438,"MT":281,"sideResp":2,"stimulus":[],"xmouse":[794,794,795,795,795,795,795,796,797,798,798,798,798,798,798,798,798,798,798,798,798,798,798,798,798,798,798,798,798,798,798,798,798,798,798,798,798,798,798,798,798,798,798,798,798,798,798,798,798,798,798,798,798,798,798,798,798,798,798,798,798,798,798,798,798,798,799,803,808,816,828,854,930,966,1003,1009,1020,1031,1036,1042,1048,1059,1072,1076,1083,1084],"ymouse":[558,558,557,557,557,557,557,555,554,553,553,552,552,552,552,552,552,552,552,552,552,552,552,552,552,552,552,552,552,552,552,552,552,552,552,552,552,552,552,552,552,552,552,552,552,552,552,552,552,552,552,552,552,552,552,552,552,552,552,551,551,551,551,551,551,551,550,541,531,516,494,457,352,302,246,233,208,188,179,168,160,148,127,116,103,98],"timestamp_mouse":[18,38,58,79,98,118,139,157,178,198,218,238,259,277,298,318,338,358,378,398,418,438,458,477,498,517,538,558,578,598,617,639,658,678,698,718,737,758,779,797,818,837,859,878,897,918,939,959,979,999,1018,1038,1059,1078,1098,1119,1138,1159,1178,1199,1219,1238,1259,1278,1299,1319,1338,1358,1378,1399,1418,1438,1457,1478,1498,1518,1538,1558,1578,1598,1618,1638,1657,1678,1698,1718],"xSR":741.5,"ySR":469.95,"xT1":424.9,"yT1":0,"xT2":1058.1,"yT2":0,"toosoon":0,"cond_shown":"Incongruent","ratio_trial":300,"L_num":1,"L_den":2,"R_num":3,"R_den":15,"correct_side":1,"subjID":"valerybonillajaime19","gender":"1","school":"6","age":"11"},{"start_time":1551899955883,"click_time":1551899957150,"finger_time":1551899957090,"fix_duration":832.7145741843789,"trial":11,"RT":1207,"MT":60,"sideResp":1,"stimulus":[],"xmouse":[817,817,817,817,817,817,817,817,817,817,817,817,817,817,817,817,817,817,817,817,817,817,817,817,817,817,817,817,817,817,817,817,817,817,817,817,817,817,817,817,817,817,817,817,817,817,817,817,817,817,817,817,817,817,817,817,817,817,815,801,665,601,554,516],"ymouse":[512,512,512,512,512,512,512,512,512,512,512,512,512,512,512,512,512,512,512,512,512,512,512,512,512,512,512,512,512,512,512,512,512,512,512,512,512,512,512,512,512,512,512,512,512,512,512,512,512,512,512,512,512,512,512,512,512,512,504,482,298,208,130,64],"timestamp_mouse":[12,40,47,67,88,107,127,148,166,187,207,228,246,268,287,306,327,348,368,388,407,428,446,468,486,508,528,547,568,586,607,628,646,668,686,707,728,747,767,788,807,827,847,868,886,907,926,947,968,988,1006,1027,1047,1067,1087,1107,1127,1148,1167,1187,1207,1226,1247,1267],"xSR":741.5,"ySR":469.95,"xT1":424.9,"yT1":0,"xT2":1058.1,"yT2":0,"toosoon":0,"cond_shown":"Congruent","ratio_trial":300,"L_num":1,"L_den":3,"R_num":19,"R_den":30,"correct_side":2,"subjID":"valerybonillajaime19","gender":"1","school":"6","age":"11"},{"start_time":1551899959763,"click_time":1551899961750,"finger_time":1551899961491,"fix_duration":1252.7823017910105,"trial":12,"RT":1728,"MT":259,"sideResp":1,"stimulus":[],"xmouse":[767,767,767,767,767,767,767,767,767,767,767,767,767,767,767,767,767,767,767,767,767,767,767,767,767,767,767,767,767,767,767,767,767,767,767,767,767,767,767,767,767,767,767,767,767,767,767,767,767,767,767,767,767,767,767,767,767,767,767,767,767,767,767,767,767,767,767,767,767,767,767,767,767,767,767,767,767,767,767,767,767,767,767,764,759,745,706,675,666,657,649,642,619,599,576,552,541,534,523,507],"ymouse":[541,541,541,541,541,541,541,541,541,541,541,541,541,541,541,541,541,541,541,541,541,541,541,541,541,541,541,541,541,541,541,541,541,541,541,541,541,541,541,541,541,541,541,541,541,541,541,541,541,541,541,541,541,541,541,541,541,541,541,541,541,541,541,541,541,541,541,541,541,541,541,541,541,541,541,541,541,541,541,541,541,541,541,533,522,494,435,371,349,329,305,283,236,208,183,154,137,126,113,99],"timestamp_mouse":[10,28,47,67,87,108,127,148,167,187,208,227,248,266,288,308,327,347,368,388,408,427,448,467,486,507,527,547,566,588,607,628,646,667,687,707,727,747,767,788,808,826,848,868,887,906,927,947,968,986,1007,1027,1048,1067,1087,1107,1128,1148,1168,1187,1207,1228,1247,1268,1287,1307,1327,1347,1367,1388,1408,1428,1447,1467,1487,1506,1527,1547,1567,1588,1607,1627,1647,1668,1688,1707,1728,1747,1767,1787,1808,1828,1847,1866,1888,1907,1927,1948,1967,1987],"xSR":741.5,"ySR":469.95,"xT1":424.9,"yT1":0,"xT2":1058.1,"yT2":0,"toosoon":0,"cond_shown":"Congruent","ratio_trial":300,"L_num":11,"L_den":22,"R_num":1,"R_den":5,"correct_side":1,"subjID":"valerybonillajaime19","gender":"1","school":"6","age":"11"},{"start_time":1551899964794,"click_time":1551899968650,"finger_time":1551899968171,"fix_duration":763.8030182859263,"trial":13,"RT":3377,"MT":479,"sideResp":1,"stimulus":[],"xmouse":[782,782,782,782,782,782,782,782,782,782,782,782,782,782,782,782,782,782,782,782,782,782,782,782,782,782,782,782,782,782,782,782,782,782,782,782,782,782,782,782,782,782,782,782,782,782,782,782,782,782,782,782,782,782,782,782,782,782,782,782,782,782,782,782,782,782,782,782,782,782,782,782,782,782,782,782,782,782,782,782,782,782,782,782,782,782,782,782,782,782,782,782,782,782,782,782,782,782,782,782,782,782,782,782,782,782,782,782,782,782,782,782,782,782,782,782,782,782,782,782,782,782,782,782,782,782,782,782,782,782,782,782,782,782,782,782,782,782,782,782,782,782,782,782,782,782,782,782,782,782,782,782,782,782,782,782,782,782,782,782,782,782,782,782,782,782,782,778,769,753,733,662,638,617,601,584,557,544,535,527,526,526,526,526,526,526,526,526,526,526,526,526,521],"ymouse":[527,527,527,527,527,527,527,527,527,527,527,527,527,527,527,527,527,527,527,527,527,527,527,527,527,527,527,527,527,527,527,527,527,527,527,527,527,527,527,527,527,527,527,527,527,527,527,527,527,527,527,527,527,527,527,527,527,527,527,527,527,527,527,527,527,527,527,527,527,527,527,527,527,527,527,527,527,527,527,527,527,527,527,527,527,527,527,527,527,527,527,527,527,527,527,527,527,527,527,527,527,527,527,527,527,527,527,527,527,527,527,527,527,527,527,527,527,527,527,527,527,527,527,527,527,527,527,527,527,527,527,527,527,527,527,527,527,527,527,527,527,527,527,527,527,527,527,527,527,527,527,527,527,527,527,527,527,527,527,527,527,527,527,527,527,527,514,493,468,435,401,299,263,235,214,190,152,134,115,102,92,92,92,92,92,92,92,92,92,92,92,92,91],"timestamp_mouse":[17,37,64,76,96,117,135,157,175,195,217,235,257,275,295,317,337,357,377,395,416,435,456,475,495,516,537,555,577,595,616,636,657,675,697,715,737,756,775,796,816,837,856,877,897,915,935,957,976,996,1016,1036,1057,1076,1097,1116,1136,1157,1176,1196,1216,1235,1256,1276,1297,1315,1336,1356,1376,1397,1416,1436,1456,1476,1495,1516,1536,1556,1576,1597,1616,1636,1656,1677,1696,1716,1736,1757,1776,1795,1816,1836,1857,1876,1896,1916,1936,1955,1977,1996,2015,2036,2056,2077,2097,2116,2136,2157,2176,2197,2216,2235,2256,2276,2296,2316,2335,2356,2376,2395,2417,2436,2456,2476,2496,2515,2537,2556,2577,2596,2616,2637,2656,2676,2697,2717,2737,2755,2777,2796,2817,2836,2857,2876,2897,2916,2937,2957,2976,2995,3017,3036,3056,3076,3096,3117,3137,3156,3177,3196,3216,3236,3256,3277,3296,3315,3336,3356,3377,3397,3415,3436,3456,3477,3496,3517,3536,3557,3576,3596,3618,3636,3656,3675,3696,3717,3736,3756,3777,3795,3817,3836,3856],"xSR":741.5,"ySR":469.95,"xT1":424.9,"yT1":0,"xT2":1058.1,"yT2":0,"toosoon":0,"cond_shown":"Congruent","ratio_trial":300,"L_num":4,"L_den":10,"R_num":1,"R_den":10,"correct_side":1,"subjID":"valerybonillajaime19","gender":"1","school":"6","age":"11"},{"start_time":1551899972264,"click_time":1551899973970,"finger_time":1551899973470,"fix_duration":773.8638097824806,"trial":14,"RT":1206,"MT":500,"sideResp":1,"stimulus":[],"xmouse":[804,804,804,804,804,804,804,804,804,804,804,804,804,804,804,804,804,804,804,804,804,804,804,804,804,804,804,804,804,804,804,804,804,804,804,804,804,804,804,804,804,804,804,804,804,804,804,804,804,804,804,804,804,804,804,804,804,804,807,808,808,808,808,793,779,759,740,711,624,584,562,555,554,552,552,551,551,551,551,551,551,550,548,530,504,496],"ymouse":[505,505,505,505,505,505,505,505,505,505,505,505,505,505,505,505,505,505,505,505,505,505,505,505,505,505,505,505,505,505,505,505,505,505,505,505,505,505,505,505,505,505,505,505,505,505,505,505,505,505,505,505,505,505,505,505,505,503,491,477,459,439,415,363,330,294,264,229,154,128,117,114,114,114,114,114,114,114,114,114,114,114,114,109,100,96],"timestamp_mouse":[19,34,47,67,86,106,125,146,165,186,207,227,247,265,286,306,326,346,366,387,407,427,446,466,487,506,526,546,566,586,607,626,647,666,686,707,727,746,766,786,806,825,847,866,886,905,927,945,966,986,1006,1027,1047,1066,1086,1107,1126,1146,1166,1186,1205,1226,1247,1267,1286,1305,1326,1346,1366,1385,1406,1425,1446,1467,1487,1506,1525,1546,1566,1587,1606,1626,1646,1666,1686,1706],"xSR":741.5,"ySR":469.95,"xT1":424.9,"yT1":0,"xT2":1058.1,"yT2":0,"toosoon":0,"cond_shown":"Congruent","ratio_trial":200,"L_num":12,"L_den":20,"R_num":6,"R_den":15,"correct_side":1,"subjID":"valerybonillajaime19","gender":"1","school":"6","age":"11"},{"start_time":1551899975321,"click_time":1551899977210,"finger_time":1551899976750,"fix_duration":690.3723361821138,"trial":15,"RT":1429,"MT":460,"sideResp":1,"stimulus":[],"xmouse":[831,831,831,831,831,831,831,831,831,831,831,831,831,831,831,831,831,831,831,831,831,831,831,831,831,831,831,831,831,831,831,831,831,831,831,831,831,831,831,831,831,831,831,831,831,831,831,831,831,831,831,831,831,831,831,831,831,831,831,831,831,830,830,829,826,821,818,813,808,802,794,784,774,758,744,726,674,657,642,629,613,590,580,568,563,562,561,560,557,553,549,541,536,529,523],"ymouse":[523,523,523,523,523,523,523,523,523,523,523,523,523,523,523,523,523,523,523,523,523,523,523,523,523,523,523,523,523,523,523,523,523,523,523,523,523,524,524,524,524,524,524,524,524,524,524,524,524,524,524,524,524,524,524,524,524,524,524,524,524,524,524,524,524,524,524,520,513,501,475,426,393,356,323,287,219,200,186,177,170,166,164,161,160,160,160,157,154,147,138,107,90,73,56],"timestamp_mouse":[10,43,49,69,89,108,130,149,169,188,209,228,249,269,288,309,329,350,368,389,409,429,449,470,490,510,529,549,570,589,609,630,648,669,689,709,730,748,769,789,809,829,849,869,889,909,929,950,969,988,1010,1030,1048,1070,1088,1110,1130,1150,1168,1189,1209,1230,1249,1268,1289,1309,1329,1349,1369,1390,1409,1429,1448,1469,1489,1509,1529,1550,1570,1589,1609,1629,1648,1669,1689,1710,1729,1749,1770,1789,1809,1828,1849,1869,1889],"xSR":741.5,"ySR":469.95,"xT1":424.9,"yT1":0,"xT2":1058.1,"yT2":0,"toosoon":0,"cond_shown":"Congruent","ratio_trial":200,"L_num":16,"L_den":30,"R_num":9,"R_den":27,"correct_side":1,"subjID":"valerybonillajaime19","gender":"1","school":"6","age":"11"},{"start_time":1551899978881,"click_time":1551899980690,"finger_time":1551899980290,"fix_duration":689.0105933472138,"trial":16,"RT":1409,"MT":400,"sideResp":1,"stimulus":[],"xmouse":[792,792,792,792,792,792,792,792,792,792,792,792,792,792,792,792,792,792,792,792,792,792,792,792,792,792,792,792,792,792,792,792,792,792,792,792,792,792,792,792,792,792,792,792,792,792,792,792,792,792,792,792,792,792,792,792,792,792,792,792,792,792,792,792,792,792,792,792,790,782,743,708,674,627,607,591,574,555,533,531,531,531,531,527,526,523,523,523,521,520,517],"ymouse":[516,516,516,516,516,516,516,516,516,516,516,516,516,516,516,516,516,516,516,516,516,516,516,516,516,516,516,516,516,516,516,516,516,516,516,516,516,516,516,516,516,516,516,516,516,516,516,516,516,516,516,516,516,516,516,516,516,516,516,516,516,516,516,516,516,516,516,516,514,490,418,367,320,257,237,223,213,207,202,201,201,201,201,191,180,163,146,131,111,106,97],"timestamp_mouse":[9,31,49,68,89,110,129,149,170,190,210,230,250,269,290,310,328,348,370,388,410,428,449,470,488,510,530,550,569,588,610,629,650,670,689,710,729,749,769,790,810,830,848,870,889,909,930,950,970,990,1009,1029,1050,1070,1090,1108,1129,1148,1170,1189,1209,1230,1249,1268,1290,1309,1329,1349,1369,1389,1409,1429,1449,1469,1489,1518,1529,1549,1569,1588,1609,1629,1649,1669,1689,1710,1729,1749,1769,1788,1809],"xSR":741.5,"ySR":469.95,"xT1":424.9,"yT1":0,"xT2":1058.1,"yT2":0,"toosoon":0,"cond_shown":"Congruent","ratio_trial":100,"L_num":12,"L_den":30,"R_num":13,"R_den":26,"correct_side":2,"subjID":"valerybonillajaime19","gender":"1","school":"6","age":"11"},{"start_time":1551899982394,"click_time":1551899984011,"finger_time":1551899983090,"fix_duration":762.682111772583,"trial":17,"RT":696,"MT":921,"sideResp":1,"stimulus":[],"xmouse":[796,796,796,796,796,796,796,796,796,796,796,796,796,796,796,796,796,796,796,796,796,796,796,796,795,795,795,797,797,798,801,803,811,820,830,846,865,901,924,940,961,980,996,1016,1016,1016,1016,1016,1016,1016,1016,1016,1016,995,957,889,802,710,537,492,476,473,471,471,473,487,509,578,594,600,600,600,602,603,602,595,584,551,529,508,498],"ymouse":[528,528,528,528,528,528,528,528,528,528,528,528,528,528,528,528,528,528,528,528,528,528,528,528,528,527,524,519,516,514,509,506,493,472,451,421,387,321,290,266,242,223,209,189,189,189,189,189,189,189,189,189,189,195,212,231,255,286,359,383,398,404,407,409,413,418,423,441,444,444,444,444,442,427,411,383,345,226,162,102,68],"timestamp_mouse":[17,39,56,76,96,116,137,156,177,197,216,236,257,276,295,316,337,357,376,396,416,436,456,476,496,517,535,556,576,596,617,637,656,675,696,716,735,755,775,795,817,836,856,875,896,917,935,957,975,996,1016,1037,1056,1075,1096,1116,1136,1156,1175,1196,1217,1236,1255,1276,1296,1316,1337,1356,1375,1397,1416,1436,1456,1475,1496,1516,1536,1557,1575,1596,1617],"xSR":741.5,"ySR":469.95,"xT1":424.9,"yT1":0,"xT2":1058.1,"yT2":0,"toosoon":0,"cond_shown":"Congruent","ratio_trial":200,"L_num":7,"L_den":21,"R_num":2,"R_den":15,"correct_side":1,"subjID":"valerybonillajaime19","gender":"1","school":"6","age":"11"},{"start_time":1551899985584,"click_time":1551899986871,"finger_time":1551899986390,"fix_duration":493.7407699851984,"trial":18,"RT":806,"MT":481,"sideResp":1,"stimulus":[],"xmouse":[795,795,795,795,795,795,795,795,795,795,795,795,795,795,795,795,795,795,795,795,795,795,795,795,795,795,795,795,795,795,795,795,795,795,795,795,795,795,795,795,795,795,795,769,756,740,717,688,666,620,588,582,580,580,580,580,580,580,579,578,571,562,551,541,524],"ymouse":[495,495,495,495,495,495,495,495,495,495,495,495,495,495,495,495,495,495,495,495,495,495,495,495,495,495,495,495,495,495,495,495,495,495,495,495,495,495,495,487,459,391,369,257,229,205,187,175,169,161,158,157,157,157,157,157,157,157,156,156,146,134,111,94,67],"timestamp_mouse":[11,32,45,66,87,106,126,147,167,186,206,226,247,266,286,307,325,345,366,386,406,427,447,467,487,507,527,546,566,586,605,627,647,666,686,706,726,747,765,786,806,826,847,867,886,906,926,947,966,986,1005,1027,1046,1067,1085,1107,1126,1146,1167,1186,1207,1227,1246,1265,1287],"xSR":741.5,"ySR":469.95,"xT1":424.9,"yT1":0,"xT2":1058.1,"yT2":0,"toosoon":0,"cond_shown":"Incongruent","ratio_trial":100,"L_num":17,"L_den":30,"R_num":10,"R_den":15,"correct_side":2,"subjID":"valerybonillajaime19","gender":"1","school":"6","age":"11"},{"start_time":1551899989089,"click_time":1551899991030,"finger_time":1551899990670,"fix_duration":1298.7217575982213,"trial":19,"RT":1581,"MT":360,"sideResp":1,"stimulus":[],"xmouse":[784,784,784,784,784,784,784,784,784,784,784,784,784,784,784,784,784,784,784,784,784,784,784,784,784,784,784,784,784,784,784,784,784,784,784,784,784,784,784,784,784,784,784,784,784,784,784,784,784,784,784,784,784,784,784,784,784,784,784,784,784,784,784,784,784,784,784,784,784,784,784,784,784,784,784,784,784,784,782,742,705,669,637,618,612,612,608,603,599,597,597,595,592,588,568,546,531,519],"ymouse":[523,523,523,523,523,523,523,523,523,523,523,523,523,523,523,523,523,523,523,523,523,523,523,523,523,523,523,523,523,523,523,523,523,523,523,523,523,523,523,523,523,523,523,523,523,523,523,523,523,523,523,523,523,523,523,523,523,523,523,523,523,523,523,523,523,523,523,523,523,523,523,523,523,523,523,523,523,517,499,436,391,343,294,249,179,153,122,105,90,70,64,59,56,55,55,55,55,55],"timestamp_mouse":[10,21,45,61,82,101,120,141,161,181,202,222,242,261,281,301,322,341,361,381,402,420,441,473,481,502,522,542,560,581,602,622,642,661,681,701,721,740,760,781,800,822,840,862,882,901,920,941,962,980,1001,1022,1042,1061,1082,1100,1120,1142,1162,1181,1201,1221,1242,1261,1282,1301,1322,1340,1362,1381,1401,1421,1441,1462,1482,1502,1521,1541,1561,1581,1601,1621,1640,1661,1681,1702,1721,1742,1760,1780,1800,1821,1841,1861,1881,1901,1920,1940],"xSR":741.5,"ySR":469.95,"xT1":424.9,"yT1":0,"xT2":1058.1,"yT2":0,"toosoon":0,"cond_shown":"Congruent","ratio_trial":300,"L_num":9,"L_den":10,"R_num":3,"R_den":5,"correct_side":1,"subjID":"valerybonillajaime19","gender":"1","school":"6","age":"11"},{"start_time":1551899993386,"click_time":1551899994390,"finger_time":1551899994309,"fix_duration":1454.3538888542905,"trial":20,"RT":923,"MT":81,"sideResp":1,"stimulus":[],"xmouse":[775,775,775,775,775,775,775,775,775,775,775,775,775,775,775,775,775,775,775,775,775,775,775,775,775,775,775,775,775,775,775,775,775,775,775,775,775,775,775,775,775,775,775,775,771,749,700,639,579,493,426],"ymouse":[516,516,516,516,516,516,516,516,516,516,516,516,516,516,516,516,516,516,516,516,516,516,516,516,516,516,516,516,516,516,516,516,516,516,516,516,516,516,516,516,516,516,516,516,516,500,458,395,315,173,5],"timestamp_mouse":[10,32,45,64,84,105,123,144,164,185,204,223,245,264,285,304,324,343,364,384,404,425,444,464,483,505,523,544,564,583,603,625,645,665,685,704,725,744,765,783,805,824,845,864,884,904,923,944,963,985,1003],"xSR":741.5,"ySR":469.95,"xT1":424.9,"yT1":0,"xT2":1058.1,"yT2":0,"toosoon":0,"cond_shown":"Congruent","ratio_trial":300,"L_num":20,"L_den":25,"R_num":8,"R_den":16,"correct_side":1,"subjID":"valerybonillajaime19","gender":"1","school":"6","age":"11"},{"start_time":1551899995955,"click_time":1551899996890,"finger_time":1551899996690,"fix_duration":484.3836067393713,"trial":21,"RT":735,"MT":200,"sideResp":2,"stimulus":[],"xmouse":[770,770,770,770,770,770,770,770,770,770,770,770,770,770,770,770,770,770,770,770,770,770,770,770,770,770,770,770,770,770,770,772,773,783,795,820,903,951,994,1044,1070,1101,1111,1115,1115,1115,1108],"ymouse":[499,499,499,499,499,499,499,499,499,499,499,499,499,499,499,499,499,499,499,499,499,499,499,499,499,499,499,499,499,499,499,499,498,493,488,477,435,406,373,320,284,221,183,151,125,103,74],"timestamp_mouse":[15,34,55,76,94,115,135,156,176,195,214,235,255,274,295,314,336,355,374,394,415,436,455,476,494,516,534,555,574,595,615,635,655,676,696,715,735,755,775,796,815,835,854,875,896,915,935],"xSR":741.5,"ySR":469.95,"xT1":424.9,"yT1":0,"xT2":1058.1,"yT2":0,"toosoon":0,"cond_shown":"Congruent","ratio_trial":200,"L_num":7,"L_den":15,"R_num":18,"R_den":27,"correct_side":2,"subjID":"valerybonillajaime19","gender":"1","school":"6","age":"11"},{"start_time":1551899998460,"click_time":1551900000350,"finger_time":1551899999890,"fix_duration":768.2041815870626,"trial":22,"RT":1430,"MT":460,"sideResp":2,"stimulus":[],"xmouse":[784,784,784,784,784,784,784,784,784,784,784,784,784,784,784,784,784,784,784,784,784,784,784,784,784,784,784,784,784,784,784,784,784,784,784,784,784,784,784,784,784,784,784,784,784,784,784,784,784,784,784,784,784,784,784,784,784,784,784,784,784,784,784,784,784,784,784,784,784,788,793,837,869,903,935,971,1027,1045,1062,1082,1100,1125,1131,1132,1132,1132,1132,1132,1132,1130,1128,1126,1125,1125,1125],"ymouse":[497,497,497,497,497,497,497,497,497,497,497,497,497,497,497,497,497,497,497,497,497,497,497,497,497,497,497,497,497,497,497,497,497,497,497,497,497,497,497,497,497,497,497,497,497,497,497,497,497,497,497,497,497,497,497,497,497,497,497,497,497,497,497,497,497,497,497,497,497,495,492,454,428,399,373,342,284,258,235,213,195,167,153,149,147,145,144,141,138,132,127,117,111,105,98],"timestamp_mouse":[10,30,51,70,90,110,130,149,170,190,210,229,251,270,291,310,330,349,371,391,411,430,451,470,491,511,531,550,570,591,611,630,650,671,690,710,730,750,770,791,810,829,851,871,889,911,930,951,969,990,1011,1029,1050,1071,1089,1111,1130,1149,1171,1191,1209,1230,1250,1269,1291,1310,1330,1351,1371,1390,1411,1430,1449,1470,1490,1509,1529,1550,1570,1590,1609,1629,1651,1670,1690,1710,1729,1750,1770,1790,1809,1830,1849,1870,1890],"xSR":741.5,"ySR":469.95,"xT1":424.9,"yT1":0,"xT2":1058.1,"yT2":0,"toosoon":0,"cond_shown":"Incongruent","ratio_trial":100,"L_num":8,"L_den":20,"R_num":1,"R_den":2,"correct_side":2,"subjID":"valerybonillajaime19","gender":"1","school":"6","age":"11"},{"start_time":1551900001770,"click_time":1551900002930,"finger_time":1551900002792,"fix_duration":598.2137413167602,"trial":23,"RT":1022,"MT":138,"sideResp":2,"stimulus":[],"xmouse":[824,824,824,824,824,824,824,824,824,824,824,824,824,824,824,824,824,824,824,824,824,824,824,824,824,824,824,824,824,824,824,824,824,824,824,824,824,824,824,824,824,824,824,824,824,824,824,824,824,833,839,867,886,911,938,969,1039,1057,1069],"ymouse":[505,505,505,505,505,505,505,505,505,505,505,505,505,505,505,505,505,505,505,505,505,505,505,505,505,505,505,505,505,505,505,505,505,505,505,505,505,505,505,505,505,505,505,505,505,505,505,505,505,490,481,425,380,321,266,203,83,58,42],"timestamp_mouse":[8,36,40,60,80,100,120,140,161,181,199,220,240,259,279,300,320,339,360,379,400,420,441,460,480,501,520,540,560,580,599,619,640,660,680,701,719,740,759,779,801,821,840,861,881,900,921,941,960,981,1001,1022,1040,1060,1080,1100,1121,1139,1159],"xSR":741.5,"ySR":469.95,"xT1":424.9,"yT1":0,"xT2":1058.1,"yT2":0,"toosoon":0,"cond_shown":"Congruent","ratio_trial":200,"L_num":5,"L_den":10,"R_num":14,"R_den":20,"correct_side":2,"subjID":"valerybonillajaime19","gender":"1","school":"6","age":"11"},{"start_time":1551900003862,"click_time":1551900005190,"finger_time":1551900005070,"fix_duration":250,"trial":24,"RT":1208,"MT":120,"sideResp":1,"stimulus":[],"xmouse":[763,763,763,763,763,763,763,763,763,763,763,763,763,763,763,763,763,763,763,763,763,763,763,763,763,763,763,763,763,763,763,763,763,763,763,763,763,763,763,763,763,763,763,763,763,763,763,764,764,764,764,764,764,764,764,764,764,764,763,751,729,693,636,592,546,501,463],"ymouse":[566,566,566,566,566,566,566,566,566,566,566,566,566,566,566,566,566,566,566,566,566,566,566,566,566,566,566,566,566,566,566,566,566,566,566,566,566,566,566,566,566,566,566,566,566,566,566,566,566,566,565,565,564,564,564,564,564,564,557,539,509,448,347,280,215,152,99],"timestamp_mouse":[13,33,47,68,88,107,128,148,168,188,208,228,248,268,288,307,327,349,367,387,408,428,448,468,488,507,528,548,568,589,609,627,647,668,688,709,727,747,768,788,809,828,848,868,888,908,928,949,969,988,1008,1029,1048,1068,1088,1108,1128,1148,1169,1188,1208,1229,1248,1268,1287,1309,1328],"xSR":741.5,"ySR":469.95,"xT1":424.9,"yT1":0,"xT2":1058.1,"yT2":0,"toosoon":0,"cond_shown":"Congruent","ratio_trial":200,"L_num":4,"L_den":8,"R_num":3,"R_den":10,"correct_side":1,"subjID":"valerybonillajaime19","gender":"1","school":"6","age":"11"},{"start_time":1551900007188,"click_time":1551900009070,"finger_time":1551900008809,"fix_duration":958.3709606526952,"trial":25,"RT":1621,"MT":261,"sideResp":1,"stimulus":[],"xmouse":[802,802,802,802,802,802,802,802,802,802,802,802,802,802,802,802,802,802,802,802,802,802,802,802,802,802,802,802,802,802,802,802,802,802,802,802,802,802,802,802,802,802,802,802,802,802,802,802,802,802,802,802,802,802,802,802,802,802,802,802,802,802,802,802,802,802,802,802,802,802,802,802,802,802,802,802,802,802,801,801,793,754,681,652,630,615,592,587,582,577,570,545,531,528,523],"ymouse":[510,510,510,510,510,510,510,510,510,510,510,510,510,510,510,510,510,510,510,510,510,510,510,510,510,510,510,510,510,510,510,510,510,510,510,510,510,510,510,510,510,510,510,510,510,510,510,510,510,510,510,510,510,510,510,510,510,510,510,510,510,510,510,510,510,510,510,510,510,510,510,510,510,510,510,510,510,510,509,508,498,455,394,352,306,262,175,148,125,106,94,76,73,73,73],"timestamp_mouse":[9,22,42,61,82,102,123,143,162,182,201,223,243,261,281,303,322,342,361,383,401,422,442,462,483,501,523,542,562,583,601,622,642,663,682,701,723,743,761,782,803,822,843,863,881,902,922,942,962,982,1002,1022,1042,1063,1082,1103,1122,1142,1161,1182,1202,1222,1242,1261,1282,1302,1321,1342,1363,1381,1402,1422,1443,1462,1483,1503,1521,1542,1561,1582,1602,1621,1641,1662,1682,1702,1722,1741,1761,1783,1802,1822,1843,1862,1882],"xSR":741.5,"ySR":469.95,"xT1":424.9,"yT1":0,"xT2":1058.1,"yT2":0,"toosoon":0,"cond_shown":"Congruent","ratio_trial":200,"L_num":8,"L_den":15,"R_num":3,"R_den":9,"correct_side":1,"subjID":"valerybonillajaime19","gender":"1","school":"6","age":"11"},{"start_time":1551900010534,"click_time":1551900011830,"finger_time":1551900011471,"fix_duration":603.8771631644119,"trial":26,"RT":937,"MT":359,"sideResp":2,"stimulus":[],"xmouse":[807,807,807,807,807,807,807,807,807,807,807,807,807,807,807,807,807,807,807,807,807,807,807,807,807,807,807,807,807,807,807,807,807,807,807,807,807,807,807,807,807,807,807,808,821,833,851,882,975,1015,1045,1065,1074,1080,1086,1086,1086,1086,1086,1086,1086,1086,1086,1090,1096],"ymouse":[512,512,512,512,512,512,512,512,512,512,512,512,512,512,512,512,512,512,512,512,512,512,512,512,512,512,512,512,512,512,512,512,512,512,512,512,512,512,512,512,512,512,512,512,505,495,481,456,381,337,291,245,214,194,180,180,180,180,180,178,172,161,144,121,93],"timestamp_mouse":[15,41,55,76,97,115,137,157,176,196,216,236,255,276,295,316,336,357,377,396,415,436,455,477,495,517,536,556,576,597,616,637,656,676,697,716,736,757,776,797,816,836,856,876,896,916,937,956,977,995,1015,1037,1056,1076,1095,1116,1137,1157,1176,1195,1217,1236,1256,1275,1296],"xSR":741.5,"ySR":469.95,"xT1":424.9,"yT1":0,"xT2":1058.1,"yT2":0,"toosoon":0,"cond_shown":"Congruent","ratio_trial":300,"L_num":2,"L_den":20,"R_num":10,"R_den":25,"correct_side":2,"subjID":"valerybonillajaime19","gender":"1","school":"6","age":"11"},{"start_time":1551900012932,"click_time":1551900015210,"finger_time":1551900014749,"fix_duration":299.8847307272607,"trial":27,"RT":1817,"MT":461,"sideResp":2,"stimulus":[],"xmouse":[812,812,812,812,812,812,812,812,812,812,812,812,812,812,812,812,812,812,812,812,812,812,812,812,812,812,812,812,812,812,812,812,812,812,812,812,812,812,812,812,812,812,812,812,812,812,812,812,812,812,812,812,812,812,812,812,812,812,812,812,812,812,812,812,812,812,812,812,812,812,812,812,812,812,812,812,812,812,812,812,812,812,812,812,812,812,812,814,818,841,861,886,937,971,1061,1104,1138,1159,1174,1188,1193,1195,1198,1199,1199,1199,1198,1192,1187,1179,1175,1170,1165,1158],"ymouse":[493,493,493,493,493,493,493,493,493,493,493,493,493,493,493,493,493,493,493,493,493,493,493,493,493,493,493,493,493,493,493,493,493,493,493,493,493,493,493,493,493,493,493,493,493,493,493,493,493,493,493,493,493,493,493,493,493,493,493,493,493,493,493,493,493,493,493,493,493,493,493,493,493,493,493,493,493,493,493,493,493,493,493,493,493,493,492,491,488,474,459,438,390,350,243,181,134,99,73,47,35,31,23,20,19,19,18,18,18,18,18,19,23,29],"timestamp_mouse":[33,39,59,78,98,118,139,157,178,199,219,237,258,279,299,318,338,358,379,399,418,438,458,477,499,517,537,558,578,598,617,638,658,678,698,718,737,758,778,799,818,838,858,877,899,918,938,958,978,998,1018,1038,1058,1078,1099,1117,1139,1158,1178,1198,1218,1238,1258,1279,1299,1318,1338,1357,1378,1398,1419,1437,1458,1478,1498,1517,1538,1558,1578,1599,1619,1637,1658,1678,1699,1718,1738,1759,1779,1797,1817,1838,1859,1878,1897,1917,1938,1958,1977,1997,2017,2038,2058,2077,2098,2118,2138,2158,2178,2198,2217,2237,2258,2277],"xSR":741.5,"ySR":469.95,"xT1":424.9,"yT1":0,"xT2":1058.1,"yT2":0,"toosoon":0,"cond_shown":"Incongruent","ratio_trial":100,"L_num":17,"L_den":30,"R_num":10,"R_den":15,"correct_side":2,"subjID":"valerybonillajaime19","gender":"1","school":"6","age":"11"},{"start_time":1551900016929,"click_time":1551900019611,"finger_time":1551900018630,"fix_duration":658.3970443935598,"trial":28,"RT":1701,"MT":981,"sideResp":1,"stimulus":[],"xmouse":[804,804,804,804,804,804,804,804,804,804,804,804,804,804,804,804,804,804,804,804,804,804,804,804,804,804,804,804,804,804,804,804,804,804,804,804,804,804,804,804,804,804,804,804,804,804,804,804,804,804,804,804,804,804,804,804,804,804,804,804,804,804,804,804,804,804,804,804,804,804,804,804,804,804,804,804,804,804,804,804,804,804,804,804,817,846,859,869,875,879,881,881,881,881,881,881,881,881,881,881,881,881,881,881,881,881,875,857,834,790,700,651,607,559,518,436,410,398,393,393,393,393,393,393,393,393,393,393,393,393,393,393,423,423,425],"ymouse":[499,499,499,499,499,499,499,499,499,499,499,499,499,499,499,499,499,499,499,499,499,499,499,499,499,499,499,499,499,499,499,499,499,499,499,499,499,499,499,499,499,499,499,499,499,499,499,499,499,499,499,499,499,499,499,499,499,499,499,499,499,499,499,499,499,499,499,499,499,499,499,499,499,499,499,499,499,499,499,499,499,499,499,499,491,467,448,428,412,401,389,388,387,387,387,387,387,387,387,387,387,387,387,387,387,387,387,385,382,375,349,325,294,256,216,103,58,24,10,10,10,10,10,10,10,10,10,10,10,10,10,10,2,10,19],"timestamp_mouse":[8,31,41,61,81,101,121,141,162,181,201,221,241,261,282,300,321,341,361,381,401,420,441,462,482,501,521,541,562,581,600,621,641,661,681,701,722,742,761,781,801,822,842,861,881,901,921,942,961,981,1001,1022,1041,1061,1081,1100,1121,1142,1161,1182,1201,1221,1242,1262,1282,1302,1322,1342,1362,1381,1401,1421,1441,1462,1482,1502,1522,1542,1562,1582,1601,1621,1641,1660,1681,1701,1720,1741,1761,1781,1802,1820,1841,1862,1881,1901,1921,1942,1960,1981,2002,2021,2041,2062,2081,2102,2120,2141,2161,2181,2202,2221,2241,2261,2281,2301,2320,2341,2361,2381,2401,2422,2441,2461,2482,2501,2521,2540,2560,2580,2602,2622,2641,2662,2681],"xSR":741.5,"ySR":469.95,"xT1":424.9,"yT1":0,"xT2":1058.1,"yT2":0,"toosoon":0,"cond_shown":"Incongruent","ratio_trial":200,"L_num":1,"L_den":2,"R_num":3,"R_den":10,"correct_side":1,"subjID":"valerybonillajaime19","gender":"1","school":"6","age":"11"},{"start_time":1551900021044,"click_time":1551900023050,"finger_time":1551900022331,"fix_duration":313.45125337921587,"trial":29,"RT":1287,"MT":719,"sideResp":1,"stimulus":[],"xmouse":[779,780,780,780,780,780,780,780,780,780,780,780,780,780,780,780,780,780,780,780,780,780,780,780,780,780,780,780,780,780,780,780,780,780,780,780,780,780,780,780,780,780,780,780,780,780,780,780,780,780,780,780,780,780,780,780,780,780,780,780,781,781,781,779,773,754,742,723,702,671,590,521,501,448,433,422,421,421,421,421,423,425,431,442,460,466,466,466,466,466,461,458,458,458,458,458,458,458,463,471,484],"ymouse":[487,488,488,488,488,488,488,488,488,488,488,488,488,488,488,488,488,488,488,488,488,488,488,488,488,488,488,488,488,488,488,488,488,488,488,488,488,488,488,488,488,488,488,488,488,488,488,488,488,488,488,488,488,488,488,488,488,488,488,488,487,483,477,474,461,433,419,406,394,376,322,272,257,210,190,168,161,156,152,146,136,133,131,128,126,123,122,122,122,122,120,119,119,119,119,119,119,118,117,112,97],"timestamp_mouse":[9,26,53,66,87,106,126,146,166,186,207,226,246,266,286,306,326,346,366,386,406,426,446,466,486,506,526,546,566,586,607,626,647,666,686,706,726,747,766,787,806,827,847,866,886,906,927,946,966,986,1006,1026,1046,1067,1086,1106,1126,1147,1167,1187,1205,1227,1246,1266,1286,1306,1326,1346,1366,1386,1405,1427,1446,1467,1486,1505,1526,1546,1566,1587,1606,1626,1646,1667,1687,1706,1726,1746,1767,1786,1806,1826,1846,1866,1886,1906,1926,1947,1965,1987,2006],"xSR":741.5,"ySR":469.95,"xT1":424.9,"yT1":0,"xT2":1058.1,"yT2":0,"toosoon":0,"cond_shown":"Congruent","ratio_trial":200,"L_num":14,"L_den":28,"R_num":6,"R_den":20,"correct_side":1,"subjID":"valerybonillajaime19","gender":"1","school":"6","age":"11"},{"start_time":1551900024598,"click_time":1551900025730,"finger_time":1551900025290,"fix_duration":586.3436096334574,"trial":30,"RT":692,"MT":440,"sideResp":2,"stimulus":[],"xmouse":[811,811,811,811,811,811,811,811,811,811,811,811,811,811,811,811,811,811,811,811,811,811,811,811,810,810,810,810,810,810,810,810,810,824,847,870,895,965,994,1017,1036,1050,1067,1068,1069,1069,1070,1072,1072,1072,1072,1072,1075,1080,1087,1095,1106],"ymouse":[490,490,490,490,490,490,490,490,490,490,490,490,490,490,490,490,490,490,490,490,490,490,490,490,491,491,491,491,491,491,491,491,491,483,471,455,432,373,344,315,287,263,224,210,191,183,177,168,163,159,158,157,151,139,128,113,93],"timestamp_mouse":[13,33,52,72,93,113,132,152,172,192,212,233,252,272,292,313,332,353,372,392,413,432,452,472,492,513,532,552,572,592,612,632,652,672,692,712,732,753,772,792,812,832,852,873,892,912,933,952,972,992,1011,1032,1052,1073,1092,1113,1132],"xSR":741.5,"ySR":469.95,"xT1":424.9,"yT1":0,"xT2":1058.1,"yT2":0,"toosoon":0,"cond_shown":"Incongruent","ratio_trial":300,"L_num":13,"L_den":26,"R_num":12,"R_den":15,"correct_side":2,"subjID":"valerybonillajaime19","gender":"1","school":"6","age":"11"},{"start_time":1551900027887,"click_time":1551900028731,"finger_time":1551900028570,"fix_duration":1355.9833844318882,"trial":31,"RT":683,"MT":161,"sideResp":2,"stimulus":[],"xmouse":[777,777,777,777,777,777,777,777,777,777,777,777,777,777,777,777,777,777,777,777,777,777,777,777,777,777,777,777,777,777,777,777,789,796,842,883,932,978,1059,1082,1100,1111,1116],"ymouse":[513,513,513,513,513,513,513,513,513,513,513,513,513,513,513,513,513,513,513,513,513,513,513,513,513,513,513,513,513,513,513,513,510,508,480,446,398,347,206,160,128,109,99],"timestamp_mouse":[21,35,43,63,83,103,124,143,163,183,203,223,243,262,283,303,324,343,363,383,403,423,443,463,483,504,523,544,563,583,603,624,643,663,683,703,723,743,763,783,803,824,843],"xSR":741.5,"ySR":469.95,"xT1":424.9,"yT1":0,"xT2":1058.1,"yT2":0,"toosoon":0,"cond_shown":"Congruent","ratio_trial":300,"L_num":1,"L_den":5,"R_num":11,"R_den":22,"correct_side":2,"subjID":"valerybonillajaime19","gender":"1","school":"6","age":"11"},{"start_time":1551900029963,"click_time":1551900031490,"finger_time":1551900031351,"fix_duration":250,"trial":32,"RT":1388,"MT":139,"sideResp":2,"stimulus":[],"xmouse":[811,811,811,811,811,811,811,811,811,811,811,811,811,811,811,811,811,811,811,811,811,811,811,811,811,811,811,811,811,811,811,811,811,811,811,811,811,811,811,811,811,811,811,811,811,811,811,811,811,811,811,811,811,811,811,811,811,811,811,811,811,811,811,811,811,811,811,813,830,860,902,981,1012,1046,1063,1084,1091],"ymouse":[540,540,540,540,540,540,540,540,540,540,540,540,540,540,540,540,540,540,540,540,540,540,540,540,540,540,540,540,540,540,540,540,540,540,540,540,540,540,540,540,540,540,540,540,540,540,540,540,540,540,540,540,540,540,540,540,540,540,540,540,540,540,540,540,540,540,540,532,515,478,430,320,269,192,154,105,89],"timestamp_mouse":[10,36,46,67,87,108,127,147,167,188,207,228,247,267,287,307,327,347,366,387,408,427,448,467,487,507,527,547,567,588,607,627,647,667,688,707,728,747,767,787,808,827,847,868,887,908,927,947,967,987,1008,1027,1047,1067,1088,1108,1127,1147,1168,1188,1207,1227,1247,1267,1287,1307,1327,1347,1367,1388,1407,1427,1446,1467,1487,1508,1527],"xSR":741.5,"ySR":469.95,"xT1":424.9,"yT1":0,"xT2":1058.1,"yT2":0,"toosoon":0,"cond_shown":"Incongruent","ratio_trial":300,"L_num":13,"L_den":26,"R_num":12,"R_den":15,"correct_side":2,"subjID":"valerybonillajaime19","gender":"1","school":"6","age":"11"},{"start_time":1551900033842,"click_time":1551900035571,"finger_time":1551900034870,"fix_duration":250,"trial":33,"RT":1028,"MT":701,"sideResp":2,"stimulus":[],"xmouse":[782,782,782,782,782,783,783,783,784,784,784,784,784,784,784,784,784,784,784,784,784,784,784,784,784,784,784,785,785,785,785,786,787,789,790,791,794,794,795,795,796,796,796,796,796,796,796,800,805,811,821,838,844,846,847,847,847,847,847,847,847,847,847,847,848,849,873,887,910,938,980,1083,1125,1159,1183,1183,1183,1183,1183,1183,1183,1181,1181,1179,1178,1175,1152],"ymouse":[540,541,541,543,545,547,548,548,549,549,549,549,549,549,549,549,549,549,549,549,549,549,549,549,549,549,550,550,550,550,550,547,544,542,540,538,535,534,532,532,531,531,531,531,531,531,531,524,515,501,484,459,451,448,448,448,448,448,448,448,448,448,448,448,448,448,420,401,373,340,292,162,101,48,1,1,1,1,1,1,5,10,11,13,14,16,24],"timestamp_mouse":[11,44,48,67,87,108,129,148,168,188,209,228,248,268,288,308,328,349,369,388,408,428,448,469,488,508,528,548,568,588,608,628,648,668,688,707,728,748,769,788,808,828,848,868,888,908,928,947,968,988,1008,1028,1047,1068,1089,1108,1129,1148,1169,1188,1209,1229,1249,1268,1288,1308,1328,1348,1368,1389,1409,1428,1448,1467,1489,1509,1528,1548,1568,1588,1609,1629,1648,1668,1688,1708,1729],"xSR":741.5,"ySR":469.95,"xT1":424.9,"yT1":0,"xT2":1058.1,"yT2":0,"toosoon":0,"cond_shown":"Congruent","ratio_trial":300,"L_num":5,"L_den":25,"R_num":7,"R_den":14,"correct_side":2,"subjID":"valerybonillajaime19","gender":"1","school":"6","age":"11"},{"start_time":1551900036895,"click_time":1551900039010,"finger_time":1551900038590,"fix_duration":384.3424106994766,"trial":34,"RT":1695,"MT":420,"sideResp":2,"stimulus":[],"xmouse":[797,797,797,797,797,797,797,797,797,797,797,797,797,797,797,797,797,797,797,797,797,797,797,797,797,797,797,797,797,797,797,797,797,797,797,797,797,797,797,797,797,797,797,797,797,797,797,797,797,797,797,797,797,797,797,797,797,797,797,797,797,797,797,797,797,797,797,797,797,797,797,797,797,797,797,797,797,797,797,797,797,797,797,809,845,863,879,898,918,948,966,977,986,994,996,996,998,1000,1007,1042,1060,1072,1073,1079,1080,1083],"ymouse":[522,522,522,522,522,522,522,522,522,522,522,522,522,522,522,522,522,522,522,522,522,522,522,522,522,522,522,522,522,522,522,522,522,522,522,522,522,522,522,522,522,522,522,522,522,522,522,522,522,522,522,522,522,522,522,522,522,522,522,522,522,522,522,522,522,522,522,522,522,522,522,522,522,522,522,522,522,522,522,522,522,521,518,493,439,403,363,322,274,204,174,156,141,131,130,130,130,130,130,129,127,124,122,108,103,95],"timestamp_mouse":[15,41,56,76,95,116,136,156,175,195,215,234,255,276,295,315,336,356,376,395,415,436,456,476,495,514,535,555,576,596,614,635,656,676,696,715,735,755,775,795,815,836,855,875,895,915,935,955,976,996,1016,1036,1056,1076,1096,1115,1135,1156,1176,1196,1216,1235,1255,1276,1296,1316,1336,1355,1375,1396,1416,1436,1455,1476,1495,1516,1535,1555,1575,1595,1615,1635,1655,1676,1695,1715,1735,1756,1775,1795,1815,1836,1855,1875,1895,1915,1936,1955,1976,1995,2015,2035,2055,2076,2095,2115],"xSR":741.5,"ySR":469.95,"xT1":424.9,"yT1":0,"xT2":1058.1,"yT2":0,"toosoon":0,"cond_shown":"Incongruent","ratio_trial":200,"L_num":4,"L_den":6,"R_num":14,"R_den":30,"correct_side":1,"subjID":"valerybonillajaime19","gender":"1","school":"6","age":"11"},{"start_time":1551900040456,"click_time":1551900042251,"finger_time":1551900041870,"fix_duration":564.2232720583928,"trial":35,"RT":1414,"MT":381,"sideResp":1,"stimulus":[],"xmouse":[778,778,778,778,778,778,778,778,778,778,778,778,778,778,778,778,778,778,778,778,778,778,778,778,778,778,778,778,778,778,778,778,778,778,778,778,778,778,778,778,778,778,778,778,778,778,778,778,778,778,778,778,778,778,778,778,778,778,778,778,778,778,778,778,778,778,778,778,774,763,728,681,665,654,646,633,614,599,583,570,563,556,553,551,549,548,537,532,525,521],"ymouse":[516,516,516,516,516,516,516,516,516,516,516,516,516,516,516,516,516,516,516,516,516,516,516,516,516,516,516,516,516,516,516,516,516,516,516,516,516,516,516,516,516,516,516,516,516,516,516,516,516,516,516,516,516,516,516,516,516,516,516,516,516,516,516,516,516,516,516,516,513,506,486,456,442,424,409,379,334,297,260,223,186,134,107,98,95,93,93,93,93,93],"timestamp_mouse":[15,34,54,75,94,113,135,154,175,194,214,234,254,274,294,315,335,355,375,395,414,434,454,474,494,515,535,555,575,594,614,634,655,675,694,715,734,755,774,794,815,835,854,874,895,914,933,954,975,995,1014,1034,1055,1074,1094,1115,1134,1154,1175,1194,1214,1234,1254,1275,1295,1314,1334,1354,1375,1394,1414,1433,1455,1474,1494,1514,1534,1554,1574,1594,1614,1634,1654,1674,1695,1714,1734,1754,1774,1795],"xSR":741.5,"ySR":469.95,"xT1":424.9,"yT1":0,"xT2":1058.1,"yT2":0,"toosoon":0,"cond_shown":"Incongruent","ratio_trial":200,"L_num":7,"L_den":15,"R_num":6,"R_den":9,"correct_side":2,"subjID":"valerybonillajaime19","gender":"1","school":"6","age":"11"},{"start_time":1551900043322,"click_time":1551900045330,"finger_time":1551900044610,"fix_duration":250,"trial":36,"RT":1288,"MT":720,"sideResp":2,"stimulus":[],"xmouse":[789,789,789,789,789,789,789,789,789,789,789,789,789,789,789,789,789,789,789,789,789,789,789,789,789,789,789,789,789,789,789,789,789,789,789,789,789,789,789,789,789,789,789,789,789,789,789,789,789,789,789,789,789,789,789,789,789,789,789,791,794,797,802,815,825,839,854,872,914,954,978,1012,1078,1214,1257,1285,1296,1297,1281,1281,1281,1281,1281,1281,1281,1281,1281,1281,1281,1281,1190,1187,1182,1169,1162,1160,1160,1160,1160,1160,1151],"ymouse":[523,523,523,523,523,523,523,523,523,523,523,523,523,523,523,523,523,523,523,523,523,523,523,523,523,523,523,523,523,523,523,523,523,523,523,523,523,523,523,523,523,523,523,523,523,523,523,523,523,523,523,523,523,523,523,523,523,523,523,522,517,511,503,479,462,443,423,403,377,365,358,353,343,288,246,193,140,80,12,12,12,12,12,12,12,12,12,12,12,12,7,15,21,32,36,37,37,37,37,37,37],"timestamp_mouse":[11,31,49,68,89,107,128,148,168,189,209,228,249,268,288,309,328,348,368,388,408,427,449,468,488,509,528,548,568,589,608,629,649,668,688,709,729,748,768,789,807,829,848,868,888,908,929,949,968,988,1008,1028,1049,1068,1088,1108,1129,1148,1168,1188,1208,1228,1248,1268,1288,1308,1328,1348,1369,1388,1408,1428,1449,1469,1488,1508,1529,1548,1569,1588,1608,1628,1648,1669,1689,1708,1729,1748,1770,1788,1807,1827,1848,1869,1888,1908,1929,1949,1967,1989,2008],"xSR":741.5,"ySR":469.95,"xT1":424.9,"yT1":0,"xT2":1058.1,"yT2":0,"toosoon":0,"cond_shown":"Congruent","ratio_trial":200,"L_num":6,"L_den":12,"R_num":7,"R_den":10,"correct_side":2,"subjID":"valerybonillajaime19","gender":"1","school":"6","age":"11"},{"start_time":1551900046483,"click_time":1551900048010,"finger_time":1551900047690,"fix_duration":250,"trial":37,"RT":1207,"MT":320,"sideResp":2,"stimulus":[],"xmouse":[806,806,806,806,806,806,806,806,806,806,806,806,806,806,806,806,806,806,806,806,806,806,806,806,806,806,806,806,806,806,806,806,806,806,806,806,806,806,806,806,806,806,806,807,807,808,808,808,809,809,809,809,809,809,809,809,809,813,823,831,863,892,899,906,917,932,962,978,991,1001,1019,1037,1046,1055,1063,1069,1071],"ymouse":[547,547,547,547,547,547,547,547,547,547,547,547,547,547,547,547,547,547,547,547,547,547,547,547,547,547,547,547,547,547,547,547,547,547,547,547,547,547,547,547,547,547,547,547,546,544,541,539,539,539,539,539,539,539,539,539,539,533,518,510,483,454,439,422,402,382,351,334,322,308,284,240,213,183,154,130,96],"timestamp_mouse":[9,40,48,67,88,107,127,147,167,187,207,228,247,267,287,307,327,347,367,387,408,427,447,467,487,508,527,548,568,587,607,627,647,667,687,708,727,747,768,787,808,827,847,867,887,906,927,948,968,987,1007,1027,1048,1066,1087,1107,1128,1147,1167,1187,1207,1226,1247,1267,1288,1307,1327,1347,1367,1388,1408,1428,1447,1468,1487,1506,1527],"xSR":741.5,"ySR":469.95,"xT1":424.9,"yT1":0,"xT2":1058.1,"yT2":0,"toosoon":0,"cond_shown":"Incongruent","ratio_trial":100,"L_num":3,"L_den":6,"R_num":4,"R_den":10,"correct_side":1,"subjID":"valerybonillajaime19","gender":"1","school":"6","age":"11"},{"start_time":1551900049857,"click_time":1551900052230,"finger_time":1551900051870,"fix_duration":824.0862956559998,"trial":38,"RT":2013,"MT":360,"sideResp":2,"stimulus":[],"xmouse":[782,782,782,782,782,782,782,782,782,782,782,782,782,782,782,782,782,782,782,782,782,781,780,780,780,780,780,780,780,780,780,780,780,780,780,780,780,780,780,780,780,780,780,780,780,780,780,780,780,780,780,780,780,780,780,780,780,780,780,780,780,780,780,780,780,780,780,780,780,780,780,780,780,780,780,780,780,780,780,780,780,780,780,780,780,780,780,780,780,780,780,780,780,780,780,780,780,780,779,783,802,844,945,967,980,989,996,1002,1005,1005,1010,1018,1047,1064,1079,1091,1102,1120,1132],"ymouse":[481,481,481,481,481,481,481,481,481,481,481,481,481,481,481,481,481,481,481,481,481,481,480,480,480,480,480,480,480,480,480,480,480,480,480,480,480,480,480,480,480,480,480,480,480,480,480,480,480,480,480,480,480,480,480,480,480,480,480,480,480,480,480,480,480,480,480,480,480,480,480,480,480,480,480,480,480,480,480,480,480,480,480,480,480,480,480,480,480,480,480,480,480,480,480,480,480,480,479,470,451,426,365,346,330,317,308,300,294,291,280,269,243,229,214,196,174,130,97],"timestamp_mouse":[21,37,53,73,94,114,134,153,172,194,213,233,253,274,294,313,334,353,372,393,413,433,453,473,493,514,533,554,574,593,613,633,653,673,694,714,734,754,774,794,814,833,853,874,894,914,934,953,974,992,1012,1034,1054,1073,1094,1113,1134,1154,1174,1193,1214,1233,1254,1273,1293,1313,1333,1353,1373,1393,1414,1432,1453,1473,1494,1513,1533,1553,1573,1593,1613,1633,1653,1673,1693,1713,1733,1753,1774,1793,1812,1834,1853,1874,1892,1913,1934,1953,1974,1993,2013,2033,2054,2072,2093,2112,2133,2153,2174,2193,2213,2233,2252,2273,2293,2313,2333,2353,2372],"xSR":741.5,"ySR":469.95,"xT1":424.9,"yT1":0,"xT2":1058.1,"yT2":0,"toosoon":0,"cond_shown":"Incongruent","ratio_trial":300,"L_num":4,"L_den":20,"R_num":2,"R_den":4,"correct_side":2,"subjID":"valerybonillajaime19","gender":"1","school":"6","age":"11"},{"start_time":1551900056218,"click_time":1551900057870,"finger_time":1551900057550,"fix_duration":1467.8273431115867,"trial":39,"RT":1332,"MT":320,"sideResp":2,"stimulus":[],"xmouse":[784,784,784,784,784,784,784,784,784,784,784,784,784,784,784,784,784,784,784,784,784,784,784,784,784,784,784,784,784,784,784,784,784,784,784,784,784,784,784,784,784,785,785,785,785,785,785,785,785,785,785,785,785,785,785,785,785,785,785,785,785,785,786,787,790,805,818,842,954,1066,1196,1208,1211,1211,1211,1211,1211,1211,1203,1184,1155,1140,1130],"ymouse":[509,509,509,509,509,509,509,509,509,509,509,509,509,509,509,509,509,509,509,509,509,509,509,509,509,508,508,508,508,508,508,508,507,506,504,501,500,500,500,499,499,498,498,498,498,498,498,498,498,498,498,498,498,498,498,498,498,498,498,498,498,498,496,494,491,475,463,434,319,234,152,138,132,131,131,131,131,131,128,122,110,104,99],"timestamp_mouse":[12,43,52,72,92,113,133,152,173,192,213,232,253,272,293,312,332,352,373,392,413,432,453,472,492,513,532,553,572,593,612,632,652,673,693,712,733,753,772,792,812,832,852,871,892,913,932,952,973,993,1013,1032,1052,1072,1092,1112,1132,1153,1172,1192,1212,1233,1252,1272,1292,1312,1332,1353,1372,1393,1412,1432,1451,1473,1493,1512,1532,1552,1572,1592,1613,1631,1651],"xSR":741.5,"ySR":469.95,"xT1":424.9,"yT1":0,"xT2":1058.1,"yT2":0,"toosoon":0,"cond_shown":"Congruent","ratio_trial":200,"L_num":6,"L_den":20,"R_num":11,"R_den":22,"correct_side":2,"subjID":"valerybonillajaime19","gender":"1","school":"6","age":"11"},{"start_time":1551900059345,"click_time":1551900060950,"finger_time":1551900060690,"fix_duration":414.17415181633055,"trial":40,"RT":1345,"MT":260,"sideResp":1,"stimulus":[],"xmouse":[818,818,818,818,818,818,818,818,818,818,818,818,818,818,818,818,818,818,818,818,818,818,818,818,818,818,818,818,818,817,817,817,817,817,817,817,817,817,817,817,817,817,817,817,817,817,817,817,817,817,817,817,817,817,817,817,817,817,817,817,817,817,817,817,815,806,799,785,765,679,597,558,537,526,524,523,522,520,518,517,517],"ymouse":[533,533,533,533,533,533,533,533,533,533,533,533,533,533,533,533,533,533,533,533,533,533,533,533,533,533,533,533,533,533,533,533,533,533,533,533,533,533,533,533,533,533,533,533,533,533,533,533,533,533,533,533,533,533,533,533,533,533,533,533,533,533,533,530,513,493,475,451,419,321,248,213,190,177,166,160,154,144,128,101,93],"timestamp_mouse":[10,32,46,66,85,106,125,145,165,185,205,226,245,265,285,305,325,345,365,385,405,426,445,466,486,505,525,545,565,586,605,626,646,665,685,705,726,746,766,785,805,825,845,865,885,905,926,946,966,986,1006,1026,1046,1065,1085,1105,1125,1146,1165,1185,1206,1226,1244,1265,1285,1305,1326,1345,1366,1386,1405,1425,1445,1465,1486,1504,1526,1545,1566,1586,1604],"xSR":741.5,"ySR":469.95,"xT1":424.9,"yT1":0,"xT2":1058.1,"yT2":0,"toosoon":0,"cond_shown":"Congruent","ratio_trial":300,"L_num":20,"L_den":25,"R_num":13,"R_den":26,"correct_side":1,"subjID":"valerybonillajaime19","gender":"1","school":"6","age":"11"},{"start_time":1551900062041,"click_time":1551900063271,"finger_time":1551900062730,"fix_duration":250,"trial":41,"RT":689,"MT":541,"sideResp":2,"stimulus":[],"xmouse":[791,791,791,791,791,791,791,791,791,791,791,792,792,792,792,792,792,792,792,792,792,792,792,792,792,792,792,792,792,792,794,801,815,832,859,912,939,968,1000,1045,1063,1077,1087,1093,1103,1104,1104,1104,1104,1100,1100,1100,1100,1100,1100,1100,1100,1101,1102,1103,1107,1108],"ymouse":[512,512,512,512,512,512,512,512,512,512,512,512,512,512,512,512,512,512,512,512,512,512,512,512,512,512,512,512,512,512,510,506,498,492,474,437,413,384,347,287,259,235,216,200,182,180,178,176,172,155,148,141,135,131,126,125,123,122,118,114,102,95],"timestamp_mouse":[11,39,50,70,88,110,129,148,169,190,208,230,250,270,289,310,329,350,369,389,410,429,449,468,490,510,529,550,570,590,609,629,649,670,689,710,729,749,770,790,809,829,849,869,890,909,929,949,970,990,1009,1029,1049,1070,1089,1108,1130,1150,1169,1189,1209,1230],"xSR":741.5,"ySR":469.95,"xT1":424.9,"yT1":0,"xT2":1058.1,"yT2":0,"toosoon":0,"cond_shown":"Incongruent","ratio_trial":300,"L_num":4,"L_den":20,"R_num":2,"R_den":4,"correct_side":2,"subjID":"valerybonillajaime19","gender":"1","school":"6","age":"11"},{"start_time":1551900066545,"click_time":1551900068270,"finger_time":1551900067949,"fix_duration":1032.094005777995,"trial":42,"RT":1404,"MT":321,"sideResp":2,"stimulus":[],"xmouse":[786,786,786,786,786,786,786,786,786,786,786,786,786,786,786,786,786,786,786,786,786,786,786,786,786,786,786,786,786,786,786,786,786,786,786,786,786,786,786,786,786,786,786,786,786,786,786,786,786,786,786,786,786,786,786,786,786,786,786,786,786,786,786,786,786,786,786,786,786,788,812,831,850,865,874,890,901,910,926,943,988,1010,1031,1050,1068,1099,1115],"ymouse":[493,493,493,493,493,493,493,493,493,493,493,493,493,493,493,493,493,493,493,493,493,493,493,493,493,493,493,493,493,493,493,493,493,493,493,493,493,493,493,493,493,493,493,493,493,493,493,493,493,493,493,493,493,493,493,493,493,493,493,493,493,493,493,493,493,493,493,493,493,487,468,451,433,416,401,383,372,364,354,340,301,277,246,214,183,121,82],"timestamp_mouse":[10,36,45,65,85,105,125,145,165,186,204,225,245,265,286,305,325,345,365,385,406,426,446,466,485,505,525,545,565,585,605,625,644,665,685,706,726,745,765,786,806,825,845,865,885,905,925,946,966,985,1006,1026,1045,1065,1085,1104,1126,1146,1164,1186,1206,1226,1246,1265,1285,1306,1325,1346,1366,1385,1404,1424,1445,1465,1485,1505,1525,1545,1565,1585,1605,1625,1645,1665,1685,1705,1725],"xSR":741.5,"ySR":469.95,"xT1":424.9,"yT1":0,"xT2":1058.1,"yT2":0,"toosoon":0,"cond_shown":"Congruent","ratio_trial":100,"L_num":7,"L_den":14,"R_num":15,"R_den":25,"correct_side":2,"subjID":"valerybonillajaime19","gender":"1","school":"6","age":"11